##NAMES=Metavoltine
##RRUFFID=R070542
##IDEAL CHEMISTRY=K_2_Na_6_Fe^2+^Fe^3+^_6_O_2_(S^6+^O_4_)_12_&#183;18H_2_O
##LOCALITY=Vulcano Island. Lipari Islands, Messina Province, Sicily, Italy
##OWNER=RRUFF
##SOURCE=James Shigley
##DESCRIPTION=Dark yellow granular crystals
##STATUS=The identification of this mineral has been made only by X-ray diffraction.
##URL=rruff.info/R070542
128.9422, 277.5892
129.4243, 284.1006
129.9064, 293.5038
130.3886, 306.0186
130.8707, 320.8402
131.3528, 335.9934
131.8349, 350.7231
132.3170, 366.2510
132.7991, 385.5683
133.2813, 408.9147
133.7634, 433.1130
134.2455, 456.2131
134.7276, 478.0561
135.2097, 499.3368
135.6918, 519.9548
136.1740, 540.0378
136.6561, 560.5822
137.1382, 581.2374
137.6203, 603.6308
138.1024, 630.2167
138.5845, 661.7729
139.0667, 694.4644
139.5488, 728.2015
140.0309, 763.2792
140.5130, 796.5214
140.9951, 828.2796
141.4772, 858.2561
141.9594, 885.0998
142.4415, 908.0057
142.9236, 930.2185
143.4057, 952.8154
143.8878, 974.2795
144.3699, 999.9922
144.8521, 1029.984
145.3342, 1064.214
145.8163, 1102.505
146.2984, 1152.261
146.7805, 1197.604
147.2626, 1230.529
147.7448, 1238.446
148.2269, 1253.915
148.7090, 1283.690
149.1911, 1325.673
149.6732, 1356.689
150.1554, 1366.935
150.6375, 1372.778
151.1196, 1384.841
151.6017, 1413.635
152.0838, 1437.762
152.5659, 1454.253
153.0481, 1462.905
153.5302, 1469.198
154.0123, 1470.971
154.4944, 1471.514
154.9765, 1473.941
155.4586, 1473.619
155.9408, 1479.795
156.4229, 1498.003
156.9050, 1526.809
157.3871, 1541.215
157.8692, 1534.820
158.3513, 1520.760
158.8335, 1515.909
159.3156, 1536.076
159.7977, 1556.639
160.2798, 1566.561
160.7619, 1560.966
161.2440, 1554.131
161.7262, 1550.091
162.2083, 1547.971
162.6904, 1545.878
163.1725, 1544.303
163.6546, 1541.826
164.1367, 1537.061
164.6189, 1526.369
165.1010, 1518.192
165.5831, 1517.554
166.0652, 1522.987
166.5473, 1529.160
167.0294, 1534.180
167.5116, 1538.153
167.9937, 1541.091
168.4758, 1542.382
168.9579, 1543.131
169.4400, 1545.535
169.9221, 1549.040
170.4043, 1548.760
170.8864, 1535.820
171.3685, 1518.535
171.8506, 1507.831
172.3327, 1512.780
172.8148, 1523.067
173.2970, 1529.705
173.7791, 1532.543
174.2612, 1535.110
174.7433, 1542.575
175.2254, 1551.787
175.7076, 1556.654
176.1897, 1547.373
176.6718, 1535.186
177.1539, 1535.551
177.6360, 1550.499
178.1181, 1569.599
178.6003, 1584.209
179.0824, 1595.112
179.5645, 1604.233
180.0466, 1612.222
180.5287, 1619.431
181.0108, 1625.995
181.4930, 1631.597
181.9751, 1637.791
182.4572, 1648.194
182.9393, 1661.906
183.4214, 1673.095
183.9035, 1675.836
184.3857, 1673.146
184.8678, 1673.057
185.3499, 1676.726
185.8320, 1683.251
186.3141, 1691.928
186.7962, 1702.707
187.2784, 1713.500
187.7605, 1723.911
188.2426, 1733.383
188.7247, 1739.190
189.2068, 1739.400
189.6889, 1736.851
190.1711, 1737.555
190.6532, 1741.550
191.1353, 1747.750
191.6174, 1757.373
192.0995, 1769.596
192.5816, 1777.177
193.0638, 1776.426
193.5459, 1770.358
194.0280, 1770.568
194.5101, 1778.321
194.9922, 1785.275
195.4743, 1780.566
195.9565, 1764.444
196.4386, 1752.245
196.9207, 1750.088
197.4028, 1756.062
197.8849, 1757.178
198.3671, 1752.068
198.8492, 1746.487
199.3313, 1749.863
199.8134, 1763.646
200.2955, 1771.465
200.7776, 1765.280
201.2598, 1745.876
201.7419, 1733.469
202.2240, 1729.871
202.7061, 1729.317
203.1882, 1721.959
203.6703, 1705.735
204.1525, 1693.132
204.6346, 1689.672
205.1167, 1695.983
205.5988, 1701.793
206.0809, 1707.278
206.5630, 1711.990
207.0452, 1713.634
207.5273, 1710.037
208.0094, 1711.020
208.4915, 1724.913
208.9736, 1756.341
209.4557, 1770.552
209.9379, 1761.310
210.4200, 1740.120
210.9021, 1732.837
211.3842, 1744.693
211.8663, 1756.532
212.3484, 1758.793
212.8306, 1749.615
213.3127, 1737.963
213.7948, 1719.813
214.2769, 1701.419
214.7590, 1703.063
215.2411, 1733.847
215.7233, 1765.134
216.2054, 1778.960
216.6875, 1767.767
217.1696, 1765.105
217.6517, 1774.792
218.1338, 1794.021
218.6160, 1812.981
219.0981, 1832.830
219.5802, 1850.623
220.0623, 1864.952
220.5444, 1876.815
221.0265, 1881.391
221.5087, 1873.445
221.9908, 1857.461
222.4729, 1857.391
222.9550, 1880.818
223.4371, 1908.736
223.9192, 1929.440
224.4014, 1941.643
224.8835, 1948.400
225.3656, 1946.296
225.8477, 1937.692
226.3298, 1941.455
226.8119, 1965.498
227.2941, 1991.398
227.7762, 2004.876
228.2583, 1997.865
228.7404, 1995.893
229.2225, 2003.819
229.7046, 2020.486
230.1868, 2033.622
230.6689, 2040.802
231.1510, 2047.063
231.6331, 2056.693
232.1152, 2071.778
232.5974, 2086.213
233.0795, 2101.454
233.5616, 2117.096
234.0437, 2120.912
234.5258, 2102.102
235.0079, 2083.431
235.4901, 2086.743
235.9722, 2127.781
236.4543, 2160.023
236.9364, 2173.104
237.4185, 2167.019
237.9006, 2167.123
238.3828, 2176.170
238.8649, 2188.468
239.3470, 2198.615
239.8291, 2203.668
240.3112, 2211.885
240.7933, 2225.669
241.2755, 2245.250
241.7576, 2262.529
242.2397, 2277.833
242.7218, 2290.374
243.2039, 2298.760
243.6860, 2299.735
244.1682, 2302.734
244.6503, 2310.569
245.1324, 2323.612
245.6145, 2332.832
246.0966, 2334.708
246.5787, 2336.253
247.0609, 2345.437
247.5430, 2366.976
248.0251, 2387.240
248.5072, 2403.851
248.9893, 2416.653
249.4714, 2425.242
249.9536, 2424.118
250.4357, 2424.087
250.9178, 2438.927
251.3999, 2479.086
251.8820, 2512.687
252.3641, 2531.416
252.8463, 2534.182
253.3284, 2537.261
253.8105, 2537.160
254.2926, 2540.936
254.7747, 2557.931
255.2568, 2595.450
255.7390, 2630.933
256.2211, 2658.034
256.7032, 2675.658
257.1853, 2700.865
257.6674, 2737.271
258.1495, 2776.877
258.6317, 2809.394
259.1138, 2828.960
259.5959, 2854.318
260.0780, 2889.172
260.5601, 2933.908
261.0422, 2987.406
261.5244, 3053.594
262.0065, 3123.476
262.4886, 3187.511
262.9707, 3248.939
263.4528, 3296.975
263.9349, 3325.887
264.4171, 3335.048
264.8992, 3352.827
265.3813, 3387.403
265.8634, 3419.250
266.3455, 3424.679
266.8276, 3395.948
267.3098, 3365.546
267.7919, 3343.338
268.2740, 3329.291
268.7561, 3301.004
269.2382, 3259.409
269.7203, 3203.094
270.2025, 3124.212
270.6846, 3014.853
271.1667, 2916.564
271.6488, 2843.366
272.1309, 2793.532
272.6130, 2724.144
273.0952, 2627.432
273.5773, 2527.698
274.0594, 2453.522
274.5415, 2410.475
275.0236, 2361.891
275.5057, 2296.131
275.9879, 2216.152
276.4700, 2147.879
276.9521, 2092.380
277.4342, 2045.669
277.9163, 2005.342
278.3984, 1971.980
278.8806, 1939.225
279.3627, 1903.781
279.8448, 1867.657
280.3269, 1842.632
280.8090, 1830.605
281.2911, 1823.361
281.7733, 1814.451
282.2554, 1803.903
282.7375, 1789.133
283.2196, 1767.122
283.7017, 1740.967
284.1838, 1725.213
284.6660, 1721.755
285.1481, 1717.595
285.6302, 1698.631
286.1123, 1665.748
286.5944, 1636.457
287.0765, 1614.679
287.5587, 1599.042
288.0408, 1585.556
288.5229, 1574.103
289.0050, 1565.897
289.4871, 1564.389
289.9692, 1568.224
290.4514, 1568.385
290.9335, 1562.664
291.4156, 1552.549
291.8977, 1539.547
292.3798, 1523.629
292.8619, 1510.099
293.3441, 1504.193
293.8262, 1504.426
294.3083, 1506.278
294.7904, 1510.928
295.2726, 1513.900
295.7547, 1502.511
296.2368, 1478.477
296.7189, 1460.164
297.2010, 1469.007
297.6831, 1493.569
298.1653, 1504.619
298.6474, 1493.694
299.1295, 1474.588
299.6116, 1464.407
300.0937, 1462.257
300.5758, 1462.840
301.0580, 1462.011
301.5401, 1461.815
302.0222, 1467.806
302.5043, 1483.805
302.9864, 1497.745
303.4685, 1490.296
303.9507, 1467.814
304.4328, 1452.038
304.9149, 1466.504
305.3970, 1490.490
305.8791, 1496.619
306.3612, 1478.172
306.8434, 1453.956
307.3255, 1438.461
307.8076, 1429.823
308.2897, 1423.549
308.7718, 1418.923
309.2539, 1414.819
309.7361, 1409.224
310.2182, 1401.212
310.7003, 1396.014
311.1824, 1399.928
311.6645, 1408.902
312.1466, 1415.957
312.6288, 1419.239
313.1109, 1418.750
313.5930, 1413.117
314.0751, 1401.695
314.5572, 1391.272
315.0393, 1383.288
315.5215, 1378.965
316.0036, 1379.844
316.4857, 1397.591
316.9678, 1411.401
317.4499, 1407.097
317.9320, 1383.530
318.4142, 1365.372
318.8963, 1366.444
319.3784, 1375.394
319.8605, 1381.347
320.3426, 1376.396
320.8247, 1372.688
321.3069, 1374.841
321.7890, 1382.595
322.2711, 1390.251
322.7532, 1399.392
323.2353, 1406.232
323.7174, 1408.031
324.1996, 1398.003
324.6817, 1389.688
325.1638, 1387.024
325.6459, 1388.986
326.1280, 1388.317
326.6101, 1380.105
327.0923, 1371.938
327.5744, 1367.998
328.0565, 1374.048
328.5386, 1377.564
329.0207, 1376.708
329.5028, 1372.872
329.9850, 1370.928
330.4671, 1371.322
330.9492, 1373.268
331.4313, 1376.565
331.9134, 1382.041
332.3955, 1387.576
332.8777, 1394.910
333.3598, 1401.808
333.8419, 1403.200
334.3240, 1396.139
334.8061, 1387.979
335.2882, 1379.610
335.7704, 1367.824
336.2525, 1369.870
336.7346, 1394.425
337.2167, 1424.918
337.6988, 1432.827
338.1809, 1409.769
338.6631, 1388.981
339.1452, 1382.498
339.6273, 1390.816
340.1094, 1395.074
340.5915, 1393.886
341.0736, 1391.557
341.5558, 1395.179
342.0379, 1406.112
342.5200, 1410.833
343.0021, 1403.053
343.4842, 1385.992
343.9663, 1376.089
344.4485, 1373.940
344.9306, 1376.300
345.4127, 1380.747
345.8948, 1387.233
346.3769, 1396.001
346.8590, 1408.955
347.3412, 1422.558
347.8233, 1427.920
348.3054, 1425.153
348.7875, 1418.821
349.2696, 1410.495
349.7517, 1401.227
350.2339, 1393.491
350.7160, 1387.328
351.1981, 1383.693
351.6802, 1386.667
352.1623, 1394.539
352.6444, 1398.984
353.1266, 1388.815
353.6087, 1373.767
354.0908, 1369.639
354.5729, 1379.932
355.0550, 1394.391
355.5371, 1407.691
356.0193, 1418.310
356.5014, 1422.502
356.9835, 1414.818
357.4656, 1402.220
357.9477, 1388.353
358.4298, 1372.991
358.9120, 1363.431
359.3941, 1369.081
359.8762, 1381.788
360.3583, 1391.275
360.8404, 1391.968
361.3225, 1389.927
361.8047, 1386.659
362.2868, 1382.407
362.7689, 1380.848
363.2510, 1386.419
363.7331, 1393.633
364.2152, 1398.075
364.6974, 1396.444
365.1795, 1394.201
365.6616, 1391.987
366.1437, 1389.946
366.6258, 1388.796
367.1079, 1391.293
367.5901, 1392.796
368.0722, 1390.793
368.5543, 1380.352
369.0364, 1373.501
369.5185, 1373.656
370.0006, 1377.538
370.4828, 1377.638
370.9649, 1369.110
371.4470, 1362.331
371.9291, 1360.724
372.4112, 1365.364
372.8933, 1371.873
373.3755, 1381.928
373.8576, 1392.351
374.3397, 1398.489
374.8218, 1398.744
375.3039, 1398.235
375.7861, 1398.667
376.2682, 1399.918
376.7503, 1396.773
377.2324, 1386.662
377.7145, 1377.733
378.1967, 1379.166
378.6788, 1392.191
379.1609, 1403.806
379.6430, 1412.632
380.1251, 1417.799
380.6072, 1413.980
381.0894, 1400.118
381.5715, 1388.411
382.0536, 1390.771
382.5357, 1404.364
383.0178, 1412.485
383.4999, 1412.917
383.9821, 1407.676
384.4642, 1394.337
384.9463, 1375.210
385.4284, 1365.521
385.9105, 1381.396
386.3926, 1410.009
386.8748, 1428.504
387.3569, 1435.133
387.8390, 1435.380
388.3211, 1430.397
388.8032, 1422.947
389.2853, 1418.770
389.7675, 1424.710
390.2496, 1431.819
390.7317, 1432.078
391.2138, 1425.719
391.6959, 1417.896
392.1780, 1409.200
392.6602, 1401.551
393.1423, 1396.853
393.6244, 1394.506
394.1065, 1396.495
394.5886, 1407.335
395.0707, 1424.117
395.5529, 1436.528
396.0350, 1440.141
396.5171, 1439.296
396.9992, 1435.170
397.4813, 1423.139
397.9634, 1417.691
398.4456, 1425.569
398.9277, 1440.467
399.4098, 1451.438
399.8919, 1458.133
400.3740, 1460.304
400.8561, 1456.223
401.3383, 1444.269
401.8204, 1436.624
402.3025, 1435.447
402.7846, 1436.810
403.2667, 1437.100
403.7488, 1436.119
404.2310, 1434.669
404.7131, 1433.324
405.1952, 1431.716
405.6773, 1425.537
406.1594, 1410.940
406.6415, 1401.865
407.1237, 1412.025
407.6058, 1443.498
408.0879, 1463.978
408.5700, 1468.835
409.0521, 1464.401
409.5342, 1461.042
410.0164, 1458.754
410.4985, 1459.313
410.9806, 1463.582
411.4627, 1471.441
411.9448, 1484.739
412.4269, 1504.650
412.9091, 1521.572
413.3912, 1521.044
413.8733, 1508.671
414.3554, 1499.214
414.8375, 1498.702
415.3196, 1503.330
415.8018, 1510.813
416.2839, 1520.500
416.7660, 1527.907
417.2481, 1524.906
417.7302, 1520.100
418.2123, 1523.703
418.6945, 1542.429
419.1766, 1561.215
419.6587, 1572.121
420.1408, 1576.681
420.6229, 1578.012
421.1050, 1570.518
421.5872, 1565.628
422.0693, 1570.211
422.5514, 1587.129
423.0335, 1603.210
423.5156, 1615.844
423.9977, 1626.219
424.4799, 1635.862
424.9620, 1644.443
425.4441, 1652.472
425.9262, 1659.169
426.4083, 1664.707
426.8904, 1673.044
427.3726, 1686.183
427.8547, 1700.057
428.3368, 1712.243
428.8189, 1722.213
429.3010, 1731.776
429.7831, 1739.568
430.2653, 1748.064
430.7474, 1764.325
431.2295, 1790.782
431.7116, 1815.817
432.1937, 1835.815
432.6758, 1850.736
433.1580, 1856.423
433.6401, 1850.784
434.1222, 1844.028
434.6043, 1849.612
435.0864, 1865.773
435.5685, 1879.304
436.0507, 1884.862
436.5328, 1886.869
437.0149, 1894.978
437.4970, 1908.208
437.9791, 1919.190
438.4612, 1917.250
438.9434, 1911.129
439.4255, 1915.364
439.9076, 1934.480
440.3897, 1957.161
440.8718, 1976.450
441.3539, 1992.162
441.8361, 2003.508
442.3182, 2004.619
442.8003, 2005.782
443.2824, 2014.904
443.7645, 2032.635
444.2466, 2047.472
444.7288, 2049.974
445.2109, 2050.390
445.6930, 2057.135
446.1751, 2085.108
446.6572, 2104.302
447.1393, 2108.067
447.6215, 2098.689
448.1036, 2086.088
448.5857, 2067.098
449.0678, 2048.415
449.5499, 2032.924
450.0320, 2022.855
450.5142, 2008.841
450.9963, 1988.527
451.4784, 1966.437
451.9605, 1949.737
452.4426, 1940.310
452.9247, 1929.234
453.4069, 1915.106
453.8890, 1897.339
454.3711, 1869.705
454.8532, 1829.609
455.3353, 1794.402
455.8174, 1782.318
456.2996, 1789.483
456.7817, 1791.350
457.2638, 1783.236
457.7459, 1772.283
458.2281, 1768.752
458.7102, 1771.175
459.1923, 1773.707
459.6744, 1772.907
460.1565, 1770.771
460.6386, 1770.338
461.1208, 1771.746
461.6029, 1772.288
462.0850, 1770.509
462.5671, 1766.785
463.0492, 1761.354
463.5313, 1750.428
464.0135, 1742.485
464.4956, 1744.174
464.9777, 1752.407
465.4598, 1757.659
465.9419, 1752.590
466.4240, 1747.668
466.9062, 1748.097
467.3883, 1756.393
467.8704, 1763.571
468.3525, 1767.961
468.8346, 1771.439
469.3167, 1776.141
469.7989, 1783.070
470.2810, 1789.489
470.7631, 1796.325
471.2452, 1802.681
471.7273, 1800.949
472.2094, 1787.609
472.6916, 1774.845
473.1737, 1770.988
473.6558, 1776.511
474.1379, 1781.273
474.6200, 1784.318
475.1021, 1787.686
475.5843, 1796.234
476.0664, 1809.221
476.5485, 1819.152
477.0306, 1822.150
477.5127, 1820.446
477.9948, 1816.755
478.4770, 1811.262
478.9591, 1807.536
479.4412, 1808.633
479.9233, 1813.029
480.4054, 1819.341
480.8875, 1829.146
481.3697, 1836.278
481.8518, 1831.695
482.3339, 1821.646
482.8160, 1818.832
483.2981, 1837.512
483.7802, 1856.670
484.2624, 1866.031
484.7445, 1864.651
485.2266, 1860.337
485.7087, 1849.947
486.1908, 1839.795
486.6729, 1834.896
487.1551, 1839.472
487.6372, 1843.234
488.1193, 1845.175
488.6014, 1846.064
489.0835, 1848.621
489.5656, 1854.955
490.0478, 1858.432
490.5299, 1855.819
491.0120, 1846.886
491.4941, 1837.989
491.9762, 1828.353
492.4583, 1821.023
492.9405, 1819.318
493.4226, 1822.995
493.9047, 1830.531
494.3868, 1844.033
494.8689, 1857.795
495.3510, 1862.638
495.8332, 1859.095
496.3153, 1850.593
496.7974, 1830.752
497.2795, 1810.948
497.7616, 1809.282
498.2437, 1828.747
498.7259, 1845.850
499.2080, 1842.501
499.6901, 1829.069
500.1722, 1817.904
500.6543, 1813.632
501.1364, 1811.535
501.6186, 1812.629
502.1007, 1815.361
502.5828, 1813.454
503.0649, 1802.655
503.5470, 1789.713
504.0291, 1775.701
504.5113, 1756.370
504.9934, 1750.615
505.4755, 1767.296
505.9576, 1789.641
506.4397, 1799.507
506.9218, 1793.528
507.4040, 1785.233
507.8861, 1776.826
508.3682, 1767.839
508.8503, 1754.697
509.3324, 1736.444
509.8145, 1722.921
510.2967, 1725.163
510.7788, 1737.958
511.2609, 1737.925
511.7430, 1722.495
512.2252, 1705.243
512.7073, 1701.806
513.1894, 1707.050
513.6715, 1710.073
514.1536, 1707.622
514.6357, 1701.097
515.1179, 1686.325
515.6000, 1667.044
516.0821, 1656.994
516.5642, 1673.364
517.0463, 1692.681
517.5284, 1700.284
518.0106, 1692.116
518.4927, 1682.902
518.9748, 1674.943
519.4569, 1667.865
519.9390, 1661.365
520.4211, 1653.691
520.9033, 1648.953
521.3854, 1648.057
521.8675, 1650.411
522.3496, 1654.376
522.8317, 1661.613
523.3138, 1666.528
523.7960, 1665.044
524.2781, 1656.954
524.7602, 1654.384
525.2423, 1658.509
525.7244, 1663.405
526.2065, 1660.970
526.6887, 1652.962
527.1708, 1648.196
527.6529, 1649.311
528.1350, 1653.990
528.6171, 1662.314
529.0992, 1672.427
529.5814, 1677.444
530.0635, 1665.582
530.5456, 1652.174
531.0277, 1651.756
531.5098, 1665.984
531.9919, 1681.187
532.4741, 1692.332
532.9562, 1701.064
533.4383, 1708.978
533.9204, 1717.920
534.4025, 1724.101
534.8846, 1725.606
535.3668, 1724.000
535.8489, 1722.791
536.3310, 1720.133
536.8131, 1720.785
537.2952, 1727.448
537.7773, 1740.294
538.2595, 1748.560
538.7416, 1749.895
539.2237, 1753.175
539.7058, 1769.743
540.1879, 1798.834
540.6700, 1816.111
541.1522, 1816.439
541.6343, 1809.321
542.1164, 1808.103
542.5985, 1811.562
543.0806, 1814.990
543.5627, 1812.719
544.0449, 1811.345
544.5270, 1821.767
545.0091, 1842.183
545.4912, 1857.838
545.9733, 1854.964
546.4554, 1846.955
546.9376, 1844.782
547.4197, 1852.668
547.9018, 1860.442
548.3839, 1866.361
548.8660, 1870.395
549.3481, 1872.484
549.8303, 1873.228
550.3124, 1871.238
550.7945, 1864.192
551.2766, 1853.809
551.7587, 1849.572
552.2408, 1852.849
552.7230, 1859.056
553.2051, 1867.601
553.6872, 1878.701
554.1693, 1882.962
554.6514, 1879.173
555.1335, 1873.430
555.6157, 1875.447
556.0978, 1882.070
556.5799, 1880.041
557.0620, 1861.705
557.5441, 1840.148
558.0262, 1832.407
558.5084, 1834.851
558.9905, 1836.297
559.4726, 1829.780
559.9547, 1821.293
560.4368, 1814.774
560.9189, 1810.587
561.4011, 1806.729
561.8832, 1801.391
562.3653, 1796.922
562.8474, 1795.035
563.3295, 1801.159
563.8116, 1802.633
564.2938, 1798.534
564.7759, 1790.240
565.2580, 1779.017
565.7401, 1762.447
566.2222, 1749.605
566.7043, 1744.286
567.1865, 1744.441
567.6686, 1738.700
568.1507, 1726.437
568.6328, 1714.459
569.1149, 1708.361
569.5970, 1706.152
570.0792, 1700.612
570.5613, 1690.445
571.0434, 1682.630
571.5255, 1688.088
572.0076, 1699.245
572.4897, 1703.841
572.9719, 1693.015
573.4540, 1680.479
573.9361, 1675.366
574.4182, 1674.545
574.9003, 1669.599
575.3824, 1653.316
575.8646, 1637.016
576.3467, 1625.628
576.8288, 1619.958
577.3109, 1611.949
577.7930, 1596.814
578.2751, 1584.991
578.7573, 1585.931
579.2394, 1604.257
579.7215, 1613.508
580.2036, 1610.176
580.6857, 1601.060
581.1678, 1595.571
581.6500, 1593.713
582.1321, 1595.770
582.6142, 1603.780
583.0963, 1614.141
583.5784, 1622.041
584.0605, 1627.315
584.5427, 1629.134
585.0248, 1623.761
585.5069, 1616.609
585.9890, 1612.743
586.4711, 1613.006
586.9532, 1613.838
587.4354, 1614.390
587.9175, 1614.527
588.3996, 1614.127
588.8817, 1611.108
589.3638, 1610.209
589.8459, 1613.034
590.3281, 1617.615
590.8102, 1619.650
591.2923, 1616.924
591.7744, 1617.248
592.2565, 1624.256
592.7386, 1636.248
593.2208, 1643.160
593.7029, 1644.615
594.1850, 1644.715
594.6671, 1647.066
595.1492, 1650.335
595.6313, 1650.434
596.1135, 1646.803
596.5956, 1642.101
597.0777, 1636.100
597.5598, 1631.287
598.0419, 1631.973
598.5240, 1646.934
599.0062, 1657.299
599.4883, 1648.775
599.9704, 1629.593
600.4525, 1618.350
600.9346, 1628.395
601.4167, 1637.465
601.8989, 1638.693
602.3810, 1632.220
602.8631, 1626.709
603.3452, 1621.403
603.8273, 1618.253
604.3094, 1618.640
604.7916, 1622.730
605.2737, 1629.183
605.7558, 1639.230
606.2379, 1647.424
606.7200, 1644.763
607.2021, 1634.297
607.6843, 1628.166
608.1664, 1631.483
608.6485, 1637.180
609.1306, 1639.486
609.6127, 1638.203
610.0948, 1632.912
610.5770, 1614.000
611.0591, 1599.237
611.5412, 1602.216
612.0233, 1622.554
612.5054, 1637.104
612.9875, 1638.756
613.4697, 1635.276
613.9518, 1630.518
614.4339, 1624.436
614.9160, 1616.722
615.3981, 1605.664
615.8802, 1595.477
616.3624, 1592.111
616.8445, 1596.121
617.3266, 1597.397
617.8087, 1592.885
618.2908, 1586.900
618.7729, 1589.386
619.2551, 1597.951
619.7372, 1602.131
620.2193, 1590.697
620.7014, 1576.421
621.1835, 1573.219
621.6656, 1579.972
622.1478, 1587.724
622.6299, 1595.222
623.1120, 1600.144
623.5941, 1601.081
624.0762, 1597.873
624.5583, 1590.527
625.0405, 1570.479
625.5226, 1552.598
626.0047, 1550.796
626.4868, 1573.892
626.9689, 1587.463
627.4510, 1585.643
627.9332, 1576.194
628.4153, 1574.450
628.8974, 1580.268
629.3795, 1584.015
629.8616, 1581.527
630.3438, 1575.434
630.8259, 1569.214
631.3080, 1563.219
631.7901, 1559.433
632.2722, 1564.039
632.7543, 1568.097
633.2365, 1561.097
633.7186, 1541.358
634.2007, 1527.482
634.6828, 1530.077
635.1649, 1538.563
635.6470, 1545.175
636.1292, 1548.233
636.6113, 1551.343
637.0934, 1554.000
637.5755, 1557.131
638.0576, 1562.842
638.5397, 1572.199
639.0219, 1578.737
639.5040, 1581.525
639.9861, 1580.245
640.4682, 1571.011
640.9503, 1555.123
641.4324, 1543.294
641.9146, 1545.776
642.3967, 1552.860
642.8788, 1550.487
643.3609, 1539.635
643.8430, 1532.294
644.3251, 1537.370
644.8073, 1546.957
645.2894, 1556.299
645.7715, 1565.771
646.2536, 1571.911
646.7357, 1573.841
647.2178, 1572.588
647.7000, 1568.045
648.1821, 1557.056
648.6642, 1551.568
649.1463, 1553.802
649.6284, 1560.397
650.1105, 1566.255
650.5927, 1571.329
651.0748, 1574.055
651.5569, 1573.131
652.0390, 1570.241
652.5211, 1567.917
653.0032, 1566.077
653.4854, 1564.395
653.9675, 1563.557
654.4496, 1562.119
654.9317, 1557.792
655.4138, 1550.555
655.8959, 1546.165
656.3781, 1547.440
656.8602, 1551.485
657.3423, 1557.105
657.8244, 1566.011
658.3065, 1571.176
658.7886, 1570.535
659.2708, 1568.697
659.7529, 1571.897
660.2350, 1580.769
660.7171, 1584.718
661.1992, 1581.016
661.6813, 1574.276
662.1635, 1570.925
662.6456, 1570.693
663.1277, 1572.745
663.6099, 1580.548
664.0920, 1587.104
664.5741, 1584.122
665.0562, 1574.300
665.5383, 1567.290
666.0204, 1567.935
666.5026, 1571.300
666.9847, 1576.631
667.4668, 1584.373
667.9489, 1587.397
668.4310, 1582.882
668.9131, 1577.618
669.3953, 1575.655
669.8774, 1577.403
670.3595, 1579.228
670.8416, 1581.103
671.3237, 1582.949
671.8058, 1585.080
672.2880, 1587.149
672.7701, 1587.884
673.2522, 1586.584
673.7343, 1585.119
674.2164, 1585.046
674.6985, 1586.032
675.1807, 1587.528
675.6628, 1590.523
676.1449, 1592.690
676.6270, 1593.056
677.1091, 1591.927
677.5912, 1590.422
678.0734, 1587.600
678.5555, 1585.935
679.0376, 1586.662
679.5197, 1589.389
680.0018, 1590.708
680.4839, 1590.748
680.9661, 1588.612
681.4482, 1581.638
681.9303, 1572.077
682.4124, 1567.671
682.8945, 1568.882
683.3766, 1569.802
683.8588, 1561.259
684.3409, 1552.026
684.8230, 1553.731
685.3051, 1573.824
685.7872, 1589.325
686.2693, 1589.051
686.7515, 1581.451
687.2336, 1576.380
687.7157, 1576.278
688.1978, 1574.841
688.6799, 1569.483
689.1620, 1564.092
689.6442, 1568.926
690.1263, 1585.100
690.6084, 1596.632
691.0905, 1597.661
691.5726, 1591.460
692.0547, 1581.175
692.5369, 1568.300
693.0190, 1560.221
693.5011, 1565.481
693.9832, 1573.937
694.4653, 1578.666
694.9474, 1579.327
695.4296, 1575.849
695.9117, 1559.660
696.3938, 1546.637
696.8759, 1546.860
697.3580, 1563.710
697.8401, 1575.101
698.3223, 1579.783
698.8044, 1581.345
699.2865, 1581.931
699.7686, 1581.570
700.2507, 1583.076
700.7328, 1587.137
701.2150, 1590.768
701.6971, 1589.669
702.1792, 1585.576
702.6613, 1581.710
703.1434, 1576.937
703.6255, 1576.504
704.1077, 1590.364
704.5898, 1609.239
705.0719, 1618.327
705.5540, 1605.933
706.0361, 1592.862
706.5182, 1580.841
707.0004, 1571.197
707.4825, 1568.318
707.9646, 1574.259
708.4467, 1580.388
708.9288, 1583.921
709.4109, 1585.334
709.8931, 1585.577
710.3752, 1584.807
710.8573, 1584.965
711.3394, 1589.566
711.8215, 1594.525
712.3036, 1593.947
712.7858, 1587.836
713.2679, 1582.033
713.7500, 1574.211
714.2321, 1571.490
714.7142, 1580.895
715.1964, 1611.000
715.6785, 1627.384
716.1606, 1624.238
716.6427, 1613.993
717.1248, 1606.376
717.6069, 1601.794
718.0891, 1596.130
718.5712, 1589.099
719.0533, 1581.264
719.5354, 1571.976
720.0175, 1562.550
720.4996, 1556.889
720.9818, 1556.773
721.4639, 1559.064
721.9460, 1561.272
722.4281, 1564.340
722.9102, 1569.765
723.3923, 1585.996
723.8745, 1595.334
724.3566, 1588.710
724.8387, 1573.298
725.3208, 1567.737
725.8029, 1575.644
726.2850, 1582.908
726.7672, 1584.436
727.2493, 1582.498
727.7314, 1585.275
728.2135, 1592.359
728.6956, 1599.147
729.1777, 1603.497
729.6599, 1605.700
730.1420, 1605.227
730.6241, 1602.465
731.1062, 1600.654
731.5883, 1603.626
732.0704, 1606.218
732.5526, 1605.623
733.0347, 1601.311
733.5168, 1594.783
733.9989, 1583.351
734.4810, 1573.776
734.9631, 1571.973
735.4453, 1578.638
735.9274, 1579.402
736.4095, 1572.655
736.8916, 1567.090
737.3737, 1574.285
737.8558, 1588.763
738.3380, 1599.755
738.8201, 1605.073
739.3022, 1607.188
739.7843, 1607.117
740.2664, 1604.936
740.7485, 1600.709
741.2307, 1591.712
741.7128, 1584.093
742.1949, 1574.688
742.6770, 1569.000
743.1591, 1578.366
743.6412, 1607.469
744.1234, 1627.241
744.6055, 1630.401
745.0876, 1623.361
745.5697, 1615.309
746.0518, 1606.802
746.5339, 1600.169
747.0161, 1597.601
747.4982, 1596.148
747.9803, 1593.294
748.4624, 1589.556
748.9445, 1586.637
749.4266, 1581.768
749.9088, 1581.369
750.3909, 1589.933
750.8730, 1605.372
751.3551, 1615.840
751.8372, 1620.839
752.3193, 1622.285
752.8015, 1619.890
753.2836, 1614.758
753.7657, 1611.631
754.2478, 1610.380
754.7299, 1608.995
755.2120, 1604.967
755.6942, 1600.749
756.1763, 1596.865
756.6584, 1593.525
757.1405, 1598.461
757.6226, 1631.211
758.1047, 1659.599
758.5869, 1660.540
759.0690, 1625.885
759.5511, 1606.370
760.0332, 1605.883
760.5153, 1612.520
760.9974, 1619.700
761.4796, 1626.799
761.9617, 1625.142
762.4438, 1613.505
762.9259, 1600.996
763.4080, 1596.840
763.8901, 1597.263
764.3723, 1596.927
764.8544, 1594.225
765.3365, 1592.580
765.8186, 1595.199
766.3007, 1598.585
766.7828, 1598.890
767.2650, 1593.608
767.7471, 1589.735
768.2292, 1587.097
768.7113, 1586.418
769.1934, 1589.969
769.6755, 1597.334
770.1577, 1602.419
770.6398, 1603.699
771.1219, 1602.953
771.6040, 1600.107
772.0861, 1597.199
772.5682, 1598.104
773.0504, 1610.369
773.5325, 1619.158
774.0146, 1615.277
774.4967, 1604.908
774.9788, 1600.956
775.4609, 1608.021
775.9431, 1613.483
776.4252, 1615.550
776.9073, 1614.497
777.3894, 1609.778
777.8715, 1601.635
778.3536, 1594.423
778.8358, 1587.072
779.3179, 1584.568
779.8000, 1601.002
780.2821, 1628.384
780.7642, 1644.095
781.2463, 1624.050
781.7285, 1604.375
782.2106, 1603.592
782.6927, 1618.093
783.1748, 1623.600
783.6569, 1615.753
784.1390, 1607.019
784.6212, 1599.792
785.1033, 1595.063
785.5854, 1601.222
786.0675, 1617.503
786.5496, 1627.673
787.0317, 1612.141
787.5139, 1591.188
787.9960, 1593.434
788.4781, 1615.243
788.9602, 1631.464
789.4423, 1622.100
789.9244, 1612.723
790.4066, 1619.578
790.8887, 1642.515
791.3708, 1652.129
791.8529, 1643.418
792.3350, 1632.839
792.8171, 1629.003
793.2993, 1630.964
793.7814, 1634.214
794.2635, 1638.699
794.7456, 1639.237
795.2277, 1624.514
795.7098, 1608.611
796.1920, 1611.122
796.6741, 1633.396
797.1562, 1647.303
797.6383, 1633.392
798.1204, 1616.355
798.6025, 1610.855
799.0847, 1618.886
799.5668, 1620.883
800.0489, 1614.501
800.5310, 1608.628
801.0131, 1613.705
801.4952, 1625.419
801.9774, 1621.435
802.4595, 1600.457
802.9416, 1583.537
803.4237, 1592.974
803.9058, 1610.532
804.3879, 1617.779
804.8701, 1609.998
805.3522, 1604.138
805.8343, 1605.859
806.3164, 1609.011
806.7985, 1610.049
807.2806, 1608.272
807.7628, 1607.844
808.2449, 1608.688
808.7270, 1611.310
809.2091, 1617.646
809.6912, 1625.918
810.1733, 1632.393
810.6555, 1636.729
811.1376, 1637.817
811.6197, 1632.990
812.1018, 1625.670
812.5839, 1618.132
813.0660, 1608.302
813.5482, 1605.099
814.0303, 1611.319
814.5124, 1621.006
814.9945, 1630.898
815.4766, 1641.277
815.9587, 1643.652
816.4409, 1636.376
816.9230, 1628.802
817.4051, 1634.820
817.8872, 1645.742
818.3693, 1645.506
818.8514, 1627.818
819.3336, 1615.469
819.8157, 1624.205
820.2978, 1639.716
820.7799, 1649.172
821.2620, 1649.414
821.7441, 1649.575
822.2263, 1649.095
822.7084, 1649.399
823.1905, 1653.290
823.6726, 1659.777
824.1547, 1661.482
824.6368, 1656.859
825.1190, 1652.272
825.6011, 1656.484
826.0832, 1662.450
826.5653, 1660.867
827.0474, 1645.796
827.5295, 1634.633
828.0117, 1633.738
828.4938, 1636.601
828.9760, 1638.944
829.4581, 1641.252
829.9402, 1640.618
830.4223, 1636.372
830.9044, 1631.412
831.3865, 1628.400
831.8687, 1627.149
832.3508, 1627.367
832.8329, 1629.195
833.3150, 1631.315
833.7971, 1633.459
834.2792, 1635.166
834.7614, 1635.886
835.2435, 1634.400
835.7256, 1634.485
836.2077, 1637.179
836.6898, 1639.997
837.1719, 1639.412
837.6541, 1635.785
838.1362, 1638.141
838.6183, 1648.033
839.1004, 1657.326
839.5825, 1655.069
840.0646, 1648.725
840.5468, 1649.166
841.0289, 1660.472
841.5110, 1668.987
841.9931, 1668.603
842.4752, 1664.741
842.9573, 1660.697
843.4395, 1654.742
843.9216, 1656.702
844.4037, 1669.372
844.8858, 1680.273
845.3679, 1673.479
845.8500, 1655.750
846.3322, 1645.797
846.8143, 1645.955
847.2964, 1648.346
847.7785, 1647.704
848.2606, 1646.887
848.7427, 1648.928
849.2249, 1656.202
849.7070, 1659.040
850.1891, 1655.256
850.6712, 1650.033
851.1533, 1646.974
851.6354, 1646.011
852.1176, 1643.934
852.5997, 1640.556
853.0818, 1639.011
853.5639, 1643.992
854.0460, 1651.169
854.5281, 1655.309
855.0103, 1655.665
855.4924, 1656.056
855.9745, 1655.973
856.4566, 1657.934
856.9387, 1664.187
857.4208, 1675.328
857.9030, 1682.538
858.3851, 1685.868
858.8672, 1684.868
859.3493, 1674.459
859.8314, 1660.715
860.3135, 1660.287
860.7957, 1672.438
861.2778, 1680.996
861.7599, 1671.761
862.2420, 1660.036
862.7241, 1654.544
863.2062, 1656.346
863.6884, 1661.509
864.1705, 1672.650
864.6526, 1681.759
865.1347, 1684.500
865.6168, 1682.026
866.0989, 1678.884
866.5811, 1675.333
867.0632, 1674.917
867.5453, 1683.713
868.0274, 1693.518
868.5095, 1697.566
868.9916, 1696.199
869.4738, 1692.709
869.9559, 1685.146
870.4380, 1678.744
870.9201, 1674.794
871.4022, 1673.270
871.8843, 1673.863
872.3665, 1676.588
872.8486, 1682.558
873.3307, 1696.160
873.8128, 1709.772
874.2949, 1710.684
874.7770, 1702.215
875.2592, 1693.628
875.7413, 1686.107
876.2234, 1681.750
876.7055, 1681.357
877.1876, 1684.629
877.6697, 1693.241
878.1519, 1710.161
878.6340, 1718.061
879.1161, 1708.819
879.5982, 1694.586
880.0803, 1701.760
880.5624, 1721.856
881.0446, 1731.398
881.5267, 1711.557
882.0088, 1693.576
882.4909, 1697.055
882.9730, 1710.819
883.4551, 1716.073
883.9373, 1707.785
884.4194, 1700.888
884.9015, 1697.083
885.3836, 1694.840
885.8657, 1691.429
886.3478, 1687.526
886.8300, 1686.839
887.3121, 1691.804
887.7942, 1693.984
888.2763, 1681.382
888.7584, 1664.995
889.2405, 1657.370
889.7227, 1667.439
890.2048, 1673.882
890.6869, 1674.135
891.1690, 1673.363
891.6511, 1677.547
892.1332, 1686.042
892.6154, 1688.214
893.0975, 1682.482
893.5796, 1679.716
894.0617, 1698.756
894.5438, 1720.357
895.0259, 1719.598
895.5081, 1689.026
895.9902, 1668.921
896.4723, 1673.407
896.9544, 1685.431
897.4365, 1700.122
897.9186, 1717.689
898.4008, 1717.270
898.8829, 1697.973
899.3650, 1678.674
899.8471, 1674.040
900.3292, 1676.082
900.8113, 1672.799
901.2935, 1665.088
901.7756, 1662.746
902.2577, 1676.326
902.7398, 1688.713
903.2219, 1692.269
903.7040, 1688.802
904.1862, 1689.120
904.6683, 1693.793
905.1504, 1697.570
905.6325, 1698.438
906.1146, 1697.026
906.5967, 1691.004
907.0789, 1683.406
907.5610, 1682.824
908.0431, 1703.863
908.5252, 1720.266
909.0073, 1718.527
909.4894, 1707.519
909.9716, 1704.744
910.4537, 1713.375
910.9358, 1715.916
911.4179, 1707.776
911.9000, 1695.572
912.3821, 1685.705
912.8643, 1680.158
913.3464, 1684.654
913.8285, 1704.906
914.3106, 1725.065
914.7927, 1740.360
915.2748, 1750.234
915.7570, 1754.329
916.2391, 1751.644
916.7212, 1745.817
917.2033, 1736.159
917.6854, 1725.751
918.1675, 1716.105
918.6497, 1708.335
919.1318, 1705.503
919.6139, 1707.939
920.0960, 1714.007
920.5781, 1728.012
921.0602, 1741.176
921.5424, 1746.598
922.0245, 1743.461
922.5066, 1741.092
922.9887, 1739.811
923.4708, 1738.241
923.9529, 1735.054
924.4351, 1731.115
924.9172, 1729.620
925.3993, 1730.075
925.8814, 1729.628
926.3635, 1723.229
926.8456, 1718.822
927.3278, 1723.736
927.8099, 1735.105
928.2920, 1739.286
928.7741, 1733.132
929.2562, 1727.599
929.7383, 1724.632
930.2205, 1724.793
930.7026, 1732.738
931.1847, 1745.151
931.6668, 1750.556
932.1489, 1740.071
932.6310, 1730.516
933.1132, 1738.129
933.5953, 1749.820
934.0774, 1745.791
934.5595, 1713.116
935.0416, 1694.485
935.5237, 1693.877
936.0059, 1702.023
936.4880, 1712.266
936.9701, 1722.483
937.4522, 1724.707
937.9343, 1717.290
938.4164, 1711.275
938.8986, 1718.019
939.3807, 1725.453
939.8628, 1721.771
940.3449, 1703.755
940.8270, 1698.591
941.3091, 1709.244
941.7913, 1723.920
942.2734, 1739.467
942.7555, 1752.642
943.2376, 1751.776
943.7197, 1739.006
944.2018, 1726.583
944.6840, 1721.208
945.1661, 1717.927
945.6482, 1712.393
946.1303, 1706.811
946.6124, 1708.787
947.0945, 1719.453
947.5767, 1735.882
948.0588, 1761.908
948.5409, 1785.372
949.0230, 1778.243
949.5051, 1750.754
949.9872, 1729.072
950.4694, 1722.607
950.9515, 1721.139
951.4336, 1723.390
951.9157, 1726.360
952.3978, 1726.132
952.8799, 1720.191
953.3621, 1720.687
953.8442, 1729.699
954.3263, 1738.129
954.8084, 1733.315
955.2905, 1722.700
955.7726, 1721.847
956.2548, 1732.212
956.7369, 1742.899
957.2190, 1750.724
957.7011, 1755.254
958.1832, 1755.882
958.6653, 1752.833
959.1475, 1747.370
959.6296, 1738.539
960.1117, 1735.118
960.5938, 1746.089
961.0759, 1760.780
961.5580, 1759.613
962.0402, 1747.996
962.5223, 1740.501
963.0044, 1743.149
963.4865, 1750.619
963.9686, 1765.259
964.4507, 1781.790
964.9329, 1792.183
965.4150, 1796.583
965.8971, 1793.287
966.3792, 1780.361
966.8613, 1767.075
967.3434, 1763.222
967.8256, 1765.794
968.3077, 1772.032
968.7898, 1783.312
969.2719, 1790.189
969.7540, 1786.351
970.2361, 1782.780
970.7183, 1786.681
971.2004, 1797.716
971.6825, 1805.008
972.1646, 1808.632
972.6467, 1811.999
973.1288, 1818.777
973.6110, 1825.264
974.0931, 1826.660
974.5752, 1824.288
975.0573, 1824.901
975.5394, 1832.160
976.0215, 1838.184
976.5037, 1840.699
976.9858, 1841.956
977.4679, 1846.212
977.9500, 1853.463
978.4321, 1865.109
978.9142, 1885.625
979.3964, 1899.633
979.8785, 1885.517
980.3606, 1864.053
980.8427, 1860.234
981.3248, 1884.904
981.8069, 1904.266
982.2891, 1917.949
982.7712, 1927.926
983.2533, 1934.539
983.7354, 1939.029
984.2175, 1944.730
984.6996, 1951.767
985.1818, 1959.751
985.6639, 1955.636
986.1460, 1964.539
986.6281, 2015.548
987.1102, 2094.174
987.5923, 2132.665
988.0745, 2125.410
988.5566, 2111.363
989.0387, 2101.354
989.5208, 2093.946
990.0029, 2088.552
990.4850, 2083.796
990.9672, 2076.432
991.4493, 2056.868
991.9314, 2049.136
992.4135, 2064.972
992.8957, 2089.540
993.3778, 2113.268
993.8599, 2136.665
994.3420, 2143.983
994.8242, 2133.571
995.3063, 2121.460
995.7884, 2123.034
996.2705, 2128.042
996.7526, 2123.666
997.2347, 2109.724
997.7169, 2105.654
998.1990, 2118.571
998.6811, 2133.734
999.1632, 2147.620
999.6453, 2160.133
1000.127, 2168.495
1000.610, 2174.391
1001.092, 2185.866
1001.574, 2208.112
1002.056, 2233.354
1002.538, 2259.879
1003.020, 2285.009
1003.502, 2304.370
1003.984, 2314.047
1004.466, 2329.460
1004.949, 2352.826
1005.431, 2375.646
1005.913, 2386.629
1006.395, 2391.760
1006.877, 2402.800
1007.359, 2420.437
1007.841, 2440.308
1008.323, 2466.541
1008.806, 2487.559
1009.288, 2495.215
1009.770, 2493.559
1010.252, 2504.419
1010.734, 2528.129
1011.216, 2547.057
1011.698, 2555.411
1012.180, 2555.066
1012.662, 2540.451
1013.145, 2521.081
1013.627, 2512.005
1014.109, 2525.834
1014.591, 2536.676
1015.073, 2543.891
1015.555, 2547.629
1016.037, 2545.190
1016.519, 2538.826
1017.002, 2544.010
1017.484, 2560.798
1017.966, 2569.196
1018.448, 2546.624
1018.930, 2520.139
1019.412, 2507.528
1019.894, 2507.464
1020.376, 2506.763
1020.858, 2506.915
1021.341, 2499.370
1021.823, 2479.093
1022.305, 2454.433
1022.787, 2439.622
1023.269, 2430.184
1023.751, 2417.912
1024.233, 2403.258
1024.715, 2379.132
1025.198, 2334.624
1025.680, 2288.804
1026.162, 2256.792
1026.644, 2238.733
1027.126, 2220.222
1027.608, 2200.842
1028.090, 2179.192
1028.572, 2149.596
1029.054, 2120.614
1029.536, 2101.548
1030.019, 2090.421
1030.501, 2074.233
1030.983, 2047.115
1031.465, 2027.553
1031.947, 2021.659
1032.429, 2021.656
1032.911, 2015.285
1033.393, 2004.246
1033.876, 1992.048
1034.358, 1979.125
1034.840, 1966.987
1035.322, 1957.082
1035.804, 1947.560
1036.286, 1936.331
1036.768, 1923.134
1037.250, 1913.703
1037.733, 1907.919
1038.215, 1906.428
1038.697, 1914.025
1039.179, 1922.413
1039.661, 1921.607
1040.143, 1914.575
1040.625, 1910.927
1041.107, 1915.040
1041.589, 1917.479
1042.072, 1915.602
1042.554, 1914.107
1043.036, 1923.743
1043.518, 1939.246
1044.000, 1941.490
1044.482, 1925.193
1044.964, 1917.931
1045.446, 1946.906
1045.928, 1979.134
1046.411, 1992.081
1046.893, 1987.154
1047.375, 1989.233
1047.857, 1998.794
1048.339, 2005.620
1048.821, 1998.569
1049.303, 1993.947
1049.785, 2018.955
1050.268, 2058.594
1050.750, 2085.994
1051.232, 2080.510
1051.714, 2081.579
1052.196, 2088.887
1052.678, 2105.890
1053.160, 2143.522
1053.642, 2193.879
1054.125, 2224.877
1054.607, 2236.132
1055.089, 2250.393
1055.571, 2289.259
1056.053, 2326.185
1056.535, 2345.585
1057.017, 2352.040
1057.499, 2358.684
1057.981, 2365.009
1058.464, 2379.277
1058.946, 2406.085
1059.428, 2435.712
1059.910, 2456.137
1060.392, 2472.571
1060.874, 2493.069
1061.356, 2525.906
1061.838, 2541.785
1062.320, 2534.719
1062.803, 2521.877
1063.285, 2514.651
1063.767, 2510.703
1064.249, 2502.333
1064.731, 2490.120
1065.213, 2477.155
1065.695, 2465.889
1066.177, 2453.069
1066.660, 2438.093
1067.142, 2420.346
1067.624, 2397.515
1068.106, 2369.177
1068.588, 2345.311
1069.070, 2327.973
1069.552, 2311.640
1070.034, 2292.249
1070.516, 2271.194
1070.999, 2248.583
1071.481, 2224.641
1071.963, 2206.162
1072.445, 2196.999
1072.927, 2182.200
1073.409, 2151.015
1073.891, 2118.377
1074.373, 2124.567
1074.855, 2151.385
1075.338, 2155.400
1075.820, 2105.430
1076.302, 2066.746
1076.784, 2062.599
1077.266, 2067.802
1077.748, 2064.902
1078.230, 2054.174
1078.713, 2041.380
1079.195, 2026.702
1079.677, 2014.011
1080.159, 2005.630
1080.641, 2000.382
1081.123, 1999.066
1081.605, 2000.356
1082.087, 2000.226
1082.569, 1998.302
1083.052, 1996.068
1083.534, 1993.423
1084.016, 1991.624
1084.498, 1994.509
1084.980, 1997.833
1085.462, 1993.064
1085.944, 1977.681
1086.426, 1973.785
1086.908, 1993.576
1087.391, 2009.199
1087.873, 2007.491
1088.355, 1996.269
1088.837, 2000.489
1089.319, 2014.721
1089.801, 2019.981
1090.283, 2005.267
1090.765, 1988.452
1091.248, 1971.919
1091.730, 1961.116
1092.212, 1961.839
1092.694, 1975.063
1093.176, 1988.133
1093.658, 2001.045
1094.140, 2011.048
1094.622, 2013.871
1095.104, 2014.962
1095.587, 2019.734
1096.069, 2026.323
1096.551, 2028.437
1097.033, 2023.965
1097.515, 2020.804
1097.997, 2020.092
1098.479, 2020.575
1098.961, 2018.998
1099.443, 2018.346
1099.926, 2026.282
1100.408, 2044.170
1100.890, 2052.111
1101.372, 2035.050
1101.854, 2022.269
1102.336, 2024.453
1102.818, 2036.676
1103.300, 2049.500
1103.783, 2061.271
1104.265, 2065.861
1104.747, 2058.965
1105.229, 2050.615
1105.711, 2039.286
1106.193, 2034.282
1106.675, 2046.259
1107.157, 2076.060
1107.640, 2084.929
1108.122, 2073.351
1108.604, 2065.469
1109.086, 2081.625
1109.568, 2102.385
1110.050, 2115.502
1110.532, 2121.352
1111.014, 2120.294
1111.496, 2109.255
1111.979, 2101.198
1112.461, 2096.584
1112.943, 2097.108
1113.425, 2109.065
1113.907, 2124.461
1114.389, 2131.649
1114.871, 2130.544
1115.353, 2132.190
1115.835, 2142.229
1116.318, 2149.126
1116.800, 2149.649
1117.282, 2146.541
1117.764, 2142.128
1118.246, 2138.494
1118.728, 2143.393
1119.210, 2161.922
1119.692, 2171.696
1120.175, 2153.327
1120.657, 2133.998
1121.139, 2127.752
1121.621, 2132.264
1122.103, 2135.585
1122.585, 2137.287
1123.067, 2133.765
1123.549, 2117.780
1124.031, 2104.944
1124.514, 2108.328
1124.996, 2118.122
1125.478, 2121.218
1125.960, 2114.498
1126.442, 2123.652
1126.924, 2150.370
1127.406, 2167.360
1127.888, 2138.598
1128.370, 2104.377
1128.853, 2109.416
1129.335, 2139.905
1129.817, 2146.593
1130.299, 2111.867
1130.781, 2098.284
1131.263, 2118.039
1131.745, 2143.358
1132.227, 2137.205
1132.710, 2120.035
1133.192, 2124.596
1133.674, 2153.224
1134.156, 2176.410
1134.638, 2190.129
1135.120, 2193.868
1135.602, 2182.843
1136.084, 2168.454
1136.567, 2176.700
1137.049, 2198.906
1137.531, 2213.091
1138.013, 2212.117
1138.495, 2212.298
1138.977, 2220.448
1139.459, 2230.606
1139.941, 2241.264
1140.423, 2251.410
1140.906, 2252.781
1141.388, 2247.630
1141.870, 2248.483
1142.352, 2267.175
1142.834, 2282.601
1143.316, 2282.636
1143.798, 2275.645
1144.280, 2269.843
1144.762, 2265.569
1145.245, 2259.862
1145.727, 2252.682
1146.209, 2241.371
1146.691, 2211.461
1147.173, 2189.060
1147.655, 2207.287
1148.137, 2243.188
1148.619, 2240.598
1149.102, 2187.381
1149.584, 2159.073
1150.066, 2165.653
1150.548, 2177.464
1151.030, 2165.729
1151.512, 2146.356
1151.994, 2135.849
1152.476, 2133.992
1152.958, 2129.038
1153.441, 2118.515
1153.923, 2110.455
1154.405, 2106.802
1154.887, 2105.375
1155.369, 2106.182
1155.851, 2105.923
1156.333, 2098.630
1156.815, 2082.419
1157.297, 2068.672
1157.780, 2058.041
1158.262, 2050.896
1158.744, 2048.056
1159.226, 2047.894
1159.708, 2047.170
1160.190, 2046.453
1160.672, 2047.776
1161.154, 2054.760
1161.637, 2054.403
1162.119, 2037.722
1162.601, 2023.670
1163.083, 2025.788
1163.565, 2038.515
1164.047, 2038.198
1164.529, 2029.426
1165.011, 2028.812
1165.494, 2052.705
1165.976, 2073.385
1166.458, 2083.503
1166.940, 2087.926
1167.422, 2089.422
1167.904, 2088.411
1168.386, 2087.619
1168.868, 2087.523
1169.350, 2091.724
1169.833, 2108.265
1170.315, 2122.581
1170.797, 2121.726
1171.279, 2118.739
1171.761, 2135.215
1172.243, 2169.918
1172.725, 2193.870
1173.207, 2204.451
1173.689, 2213.066
1174.172, 2225.982
1174.654, 2241.427
1175.136, 2262.255
1175.618, 2283.932
1176.100, 2292.133
1176.582, 2286.617
1177.064, 2286.506
1177.546, 2296.006
1178.029, 2307.587
1178.511, 2314.490
1178.993, 2321.055
1179.475, 2333.727
1179.957, 2350.881
1180.439, 2354.401
1180.921, 2342.948
1181.403, 2335.261
1181.885, 2338.271
1182.368, 2343.705
1182.850, 2346.926
1183.332, 2345.547
1183.814, 2335.606
1184.296, 2316.268
1184.778, 2295.738
1185.260, 2273.218
1185.742, 2256.327
1186.224, 2250.451
1186.707, 2249.771
1187.189, 2250.924
1187.671, 2251.626
1188.153, 2248.360
1188.635, 2240.246
1189.117, 2229.161
1189.599, 2214.225
1190.081, 2200.886
1190.564, 2199.233
1191.046, 2196.079
1191.528, 2164.259
1192.010, 2120.003
1192.492, 2099.455
1192.974, 2120.551
1193.456, 2137.748
1193.938, 2150.314
1194.421, 2156.281
1194.903, 2147.464
1195.385, 2135.298
1195.867, 2141.226
1196.349, 2158.494
1196.831, 2160.135
1197.313, 2127.360
1197.795, 2110.426
1198.277, 2116.800
1198.760, 2130.925
1199.242, 2140.096
1199.724, 2144.088
1200.206, 2140.116
1200.688, 2129.309
1201.170, 2122.102
1201.652, 2122.024
1202.134, 2121.321
1202.616, 2118.813
1203.099, 2114.744
1203.581, 2106.019
1204.063, 2097.479
1204.545, 2101.846
1205.027, 2120.011
1205.509, 2121.059
1205.991, 2090.427
1206.473, 2064.835
1206.956, 2053.178
1207.438, 2052.536
1207.920, 2063.775
1208.402, 2080.309
1208.884, 2089.859
1209.366, 2088.876
1209.848, 2094.612
1210.330, 2115.039
1210.813, 2129.120
1211.295, 2128.374
1211.777, 2117.900
1212.259, 2102.366
1212.741, 2085.877
1213.223, 2077.011
1213.705, 2079.490
1214.187, 2082.112
1214.669, 2083.474
1215.151, 2084.885
1215.634, 2086.929
1216.116, 2089.446
1216.598, 2094.315
1217.080, 2098.959
1217.562, 2096.642
1218.044, 2076.202
1218.526, 2074.117
1219.008, 2100.840
1219.491, 2127.203
1219.973, 2136.210
1220.455, 2132.352
1220.937, 2118.734
1221.419, 2100.720
1221.901, 2091.247
1222.383, 2106.215
1222.865, 2107.835
1223.348, 2089.378
1223.830, 2070.774
1224.312, 2069.243
1224.794, 2077.143
1225.276, 2081.053
1225.758, 2081.317
1226.240, 2078.944
1226.722, 2067.293
1227.204, 2066.342
1227.687, 2081.861
1228.169, 2094.824
1228.651, 2082.500
1229.133, 2059.314
1229.615, 2051.636
1230.097, 2056.221
1230.579, 2057.869
1231.061, 2050.535
1231.543, 2044.912
1232.026, 2042.277
1232.508, 2039.991
1232.990, 2033.109
1233.472, 2026.053
1233.954, 2028.714
1234.436, 2038.568
1234.918, 2040.791
1235.400, 2026.006
1235.883, 2021.585
1236.365, 2033.338
1236.847, 2047.225
1237.329, 2048.522
1237.811, 2041.792
1238.293, 2027.715
1238.775, 2009.067
1239.257, 2006.724
1239.740, 2029.253
1240.222, 2045.662
1240.704, 2051.318
1241.186, 2047.224
1241.668, 2022.654
1242.150, 1997.144
1242.632, 2000.480
1243.114, 2030.715
1243.596, 2038.762
1244.079, 2016.323
1244.561, 1999.773
1245.043, 1997.129
1245.525, 2001.353
1246.007, 2009.421
1246.489, 2016.918
1246.971, 2016.218
1247.453, 2008.068
1247.936, 2014.035
1248.418, 2037.787
1248.900, 2049.199
1249.382, 2038.588
1249.864, 2021.811
1250.346, 2012.010
1250.828, 2006.463
1251.310, 2002.353
1251.792, 1999.706
1252.275, 2004.554
1252.757, 2017.591
1253.239, 2021.035
1253.721, 2006.869
1254.203, 1992.572
1254.685, 1995.309
1255.167, 2003.718
1255.649, 2009.895
1256.131, 2013.056
1256.614, 2003.743
1257.096, 1982.907
1257.578, 1973.524
1258.060, 1986.317
1258.542, 2001.557
1259.024, 2005.462
1259.506, 2005.911
1259.988, 2009.853
1260.471, 2016.052
1260.953, 2016.306
1261.435, 2010.822
1261.917, 1999.592
1262.399, 1976.800
1262.881, 1964.083
1263.363, 1983.985
1263.845, 2006.988
1264.328, 2013.941
1264.810, 2008.449
1265.292, 2009.585
1265.774, 2014.866
1266.256, 2012.948
1266.738, 1994.083
1267.220, 1982.215
1267.702, 1990.601
1268.184, 2002.044
1268.667, 2008.033
1269.149, 2009.511
1269.631, 2009.070
1270.113, 2006.842
1270.595, 2002.589
1271.077, 1992.579
1271.559, 1990.210
1272.041, 2002.163
1272.523, 2011.277
1273.006, 2003.956
1273.488, 1989.384
1273.970, 1988.507
1274.452, 1997.342
1274.934, 2007.927
1275.416, 2021.951
1275.898, 2028.903
1276.380, 2028.004
1276.863, 2021.902
1277.345, 2008.835
1277.827, 1994.756
1278.309, 1986.644
1278.791, 1984.899
1279.273, 1991.743
1279.755, 2013.261
1280.237, 2023.984
1280.719, 2022.766
1281.202, 2017.294
1281.684, 2007.952
1282.166, 2001.290
1282.648, 2007.789
1283.130, 2019.590
1283.612, 2023.657
1284.094, 2017.128
1284.576, 2018.606
1285.058, 2028.168
1285.541, 2036.546
1286.023, 2040.613
1286.505, 2038.799
1286.987, 2022.308
1287.469, 2004.462
1287.951, 2002.573
1288.433, 2016.886
1288.915, 2019.406
1289.398, 2011.116
1289.880, 2001.243
1290.362, 1988.683
1290.844, 1983.344
1291.326, 1994.125
1291.808, 2009.281
1292.290, 2021.123
1292.772, 2029.623
1293.255, 2034.443
1293.737, 2035.695
1294.219, 2033.722
1294.701, 2023.394
1295.183, 2018.224
1295.665, 2021.930
1296.147, 2027.017
1296.629, 2028.106
1297.111, 2025.940
1297.594, 2020.041
1298.076, 2012.323
##END=



