##NAMES=Metazeunerite
##RRUFFID=R070314
##IDEAL CHEMISTRY=Cu^2+^(U^6+^O_2_)_2_(As^5+^O_4_)_2_&#183;8H_2_O
##LOCALITY=Mylar mine, Majuba Hill, Antelope District, Pershing County, Nevada, USA
##OWNER=RRUFF
##SOURCE=James Shigley
##DESCRIPTION=Green tabular crystals in quartz
##STATUS=The identification of this mineral has been confirmed by single-crystal X-ray diffraction.
##URL=rruff.info/R070314
173.0880, 5732.861
173.5701, 5760.719
174.0522, 5785.968
174.5344, 5806.215
175.0165, 5815.200
175.4986, 5802.796
175.9807, 5781.551
176.4628, 5789.031
176.9449, 5842.103
177.4271, 5893.706
177.9092, 5928.962
178.3913, 5951.305
178.8734, 5963.551
179.3555, 5964.175
179.8376, 5958.457
180.3197, 5961.927
180.8019, 5976.713
181.2840, 5997.976
181.7661, 6026.831
182.2482, 6059.234
182.7303, 6090.880
183.2124, 6120.652
183.6946, 6146.863
184.1767, 6164.182
184.6588, 6168.948
185.1409, 6170.271
185.6230, 6171.893
186.1051, 6171.712
186.5873, 6165.727
187.0694, 6150.802
187.5515, 6132.640
188.0336, 6127.126
188.5157, 6142.756
188.9978, 6157.038
189.4800, 6166.211
189.9621, 6171.276
190.4442, 6174.289
190.9263, 6176.440
191.4084, 6174.808
191.8905, 6158.990
192.3727, 6108.220
192.8548, 6081.699
193.3369, 6101.751
193.8190, 6140.478
194.3011, 6172.828
194.7832, 6188.935
195.2654, 6193.143
195.7475, 6194.395
196.2296, 6192.816
196.7117, 6187.533
197.1938, 6166.672
197.6759, 6148.838
198.1581, 6154.801
198.6402, 6190.857
199.1223, 6239.077
199.6044, 6266.213
200.0865, 6264.501
200.5686, 6255.301
201.0508, 6231.569
201.5329, 6208.034
202.0150, 6197.075
202.4971, 6201.747
202.9792, 6215.066
203.4613, 6228.490
203.9435, 6250.620
204.4256, 6251.824
204.9077, 6207.229
205.3898, 6160.867
205.8719, 6146.564
206.3540, 6169.098
206.8362, 6204.625
207.3183, 6218.565
207.8004, 6195.983
208.2825, 6189.949
208.7646, 6217.627
209.2467, 6246.863
209.7289, 6260.177
210.2110, 6255.053
210.6931, 6238.590
211.1752, 6215.070
211.6573, 6176.858
212.1395, 6161.131
212.6216, 6189.740
213.1037, 6220.567
213.5858, 6232.134
214.0679, 6225.211
214.5500, 6214.168
215.0322, 6213.352
215.5143, 6224.676
215.9964, 6233.623
216.4785, 6234.312
216.9606, 6238.124
217.4427, 6252.341
217.9249, 6274.105
218.4070, 6294.784
218.8891, 6306.748
219.3712, 6309.695
219.8533, 6314.783
220.3354, 6328.376
220.8176, 6337.883
221.2997, 6335.359
221.7818, 6326.070
222.2639, 6321.378
222.7460, 6330.545
223.2281, 6351.525
223.7103, 6361.485
224.1924, 6350.057
224.6745, 6337.974
225.1566, 6330.959
225.6387, 6325.738
226.1208, 6315.181
226.6030, 6293.901
227.0851, 6267.276
227.5672, 6259.405
228.0493, 6296.049
228.5314, 6316.562
229.0135, 6296.287
229.4957, 6260.734
229.9778, 6240.736
230.4599, 6250.594
230.9420, 6277.478
231.4241, 6289.183
231.9062, 6274.352
232.3884, 6263.175
232.8705, 6256.971
233.3526, 6256.808
233.8347, 6268.597
234.3168, 6293.383
234.7989, 6317.494
235.2811, 6312.181
235.7632, 6253.305
236.2453, 6223.188
236.7274, 6248.786
237.2095, 6287.424
237.6916, 6312.849
238.1738, 6319.341
238.6559, 6315.920
239.1380, 6313.857
239.6201, 6315.124
240.1022, 6310.167
240.5843, 6286.270
241.0665, 6266.213
241.5486, 6262.752
242.0307, 6275.108
242.5128, 6293.176
242.9949, 6310.404
243.4770, 6327.756
243.9592, 6332.274
244.4413, 6304.820
244.9234, 6282.306
245.4055, 6281.946
245.8876, 6298.356
246.3697, 6315.814
246.8519, 6323.453
247.3340, 6322.196
247.8161, 6320.051
248.2982, 6317.336
248.7803, 6313.092
249.2624, 6302.425
249.7446, 6290.843
250.2267, 6289.368
250.7088, 6308.673
251.1909, 6336.654
251.6730, 6333.804
252.1551, 6277.734
252.6373, 6236.618
253.1194, 6239.988
253.6015, 6264.575
254.0836, 6288.033
254.5657, 6303.455
255.0478, 6310.562
255.5300, 6305.897
256.0121, 6285.002
256.4942, 6269.383
256.9763, 6265.974
257.4584, 6269.917
257.9406, 6282.454
258.4227, 6304.376
258.9048, 6321.589
259.3869, 6314.931
259.8690, 6283.043
260.3511, 6258.203
260.8333, 6245.571
261.3154, 6243.412
261.7975, 6254.358
262.2796, 6277.152
262.7617, 6297.432
263.2438, 6301.951
263.7260, 6293.865
264.2081, 6292.312
264.6902, 6303.193
265.1723, 6314.754
265.6544, 6319.863
266.1365, 6319.065
266.6187, 6313.437
267.1008, 6298.428
267.5829, 6279.837
268.0650, 6272.190
268.5471, 6279.685
269.0292, 6285.513
269.5114, 6273.619
269.9935, 6252.467
270.4756, 6236.167
270.9577, 6230.434
271.4398, 6229.319
271.9219, 6227.616
272.4041, 6225.385
272.8862, 6219.240
273.3683, 6201.418
273.8504, 6181.813
274.3325, 6179.928
274.8146, 6206.738
275.2968, 6232.984
275.7789, 6236.451
276.2610, 6222.033
276.7431, 6210.609
277.2252, 6211.587
277.7073, 6215.865
278.1895, 6206.388
278.6716, 6179.945
279.1537, 6157.804
279.6358, 6146.980
280.1179, 6145.618
280.6000, 6153.969
281.0822, 6173.817
281.5643, 6192.696
282.0464, 6193.301
282.5285, 6173.779
283.0106, 6159.776
283.4927, 6155.545
283.9749, 6157.153
284.4570, 6162.173
284.9391, 6170.064
285.4212, 6179.849
285.9033, 6192.631
286.3854, 6207.700
286.8676, 6210.422
287.3497, 6190.454
287.8318, 6169.388
288.3139, 6157.492
288.7960, 6152.959
289.2781, 6150.173
289.7603, 6146.232
290.2424, 6141.320
290.7245, 6136.261
291.2066, 6130.869
291.6887, 6125.569
292.1708, 6118.710
292.6530, 6112.587
293.1351, 6110.718
293.6172, 6114.265
294.0993, 6120.605
294.5814, 6126.001
295.0635, 6138.362
295.5457, 6132.902
296.0278, 6090.211
296.5099, 6045.096
296.9920, 6024.461
297.4741, 6029.509
297.9562, 6042.331
298.4384, 6044.319
298.9205, 6033.380
299.4026, 6026.099
299.8847, 6011.253
300.3668, 6011.000
300.8489, 6050.558
301.3311, 6110.757
301.8131, 6150.218
302.2953, 6138.532
302.7774, 6087.694
303.2595, 6059.252
303.7416, 6064.859
304.2237, 6077.633
304.7058, 6099.206
305.1880, 6121.079
305.6701, 6132.834
306.1522, 6130.348
306.6343, 6122.047
307.1164, 6123.394
307.5985, 6138.939
308.0807, 6147.089
308.5628, 6126.799
309.0449, 6110.132
309.5270, 6122.582
310.0091, 6164.041
310.4912, 6205.802
310.9734, 6221.067
311.4555, 6212.339
311.9376, 6206.524
312.4197, 6205.959
312.9018, 6207.887
313.3839, 6209.234
313.8661, 6211.242
314.3482, 6217.134
314.8303, 6223.729
315.3124, 6237.110
315.7945, 6277.029
316.2766, 6350.840
316.7588, 6407.342
317.2409, 6406.292
317.7230, 6373.409
318.2051, 6351.122
318.6872, 6347.291
319.1693, 6349.619
319.6515, 6348.931
320.1336, 6346.589
320.6157, 6350.773
321.0978, 6368.580
321.5799, 6387.170
322.0620, 6383.198
322.5442, 6353.945
323.0263, 6326.600
323.5084, 6311.938
323.9905, 6302.036
324.4726, 6285.660
324.9547, 6260.887
325.4369, 6235.062
325.9190, 6214.690
326.4011, 6200.383
326.8832, 6189.267
327.3653, 6185.812
327.8474, 6181.288
328.3296, 6165.528
328.8117, 6143.771
329.2938, 6133.779
329.7759, 6147.960
330.2580, 6178.359
330.7401, 6188.410
331.2223, 6165.580
331.7044, 6137.712
332.1865, 6102.117
332.6686, 6065.291
333.1507, 6033.223
333.6328, 6008.020
334.1150, 5989.043
334.5971, 5975.517
335.0792, 5968.451
335.5613, 5964.627
336.0434, 5964.928
336.5255, 5967.255
337.0077, 5972.991
337.4898, 5980.244
337.9719, 5983.617
338.4540, 5976.685
338.9361, 5961.703
339.4182, 5959.916
339.9004, 5981.398
340.3825, 6001.625
340.8646, 6017.857
341.3467, 6027.385
341.8288, 6024.857
342.3109, 6006.728
342.7931, 5983.410
343.2752, 5970.764
343.7573, 5970.183
344.2394, 5970.118
344.7215, 5964.229
345.2036, 5961.163
345.6858, 5972.845
346.1679, 5998.988
346.6500, 6016.314
347.1321, 5998.555
347.6142, 5960.929
348.0963, 5949.580
348.5785, 5976.441
349.0606, 6006.327
349.5427, 6005.984
350.0248, 5985.749
350.5069, 5976.276
350.9890, 5993.534
351.4712, 6015.042
351.9533, 6021.887
352.4354, 6016.258
352.9175, 6010.048
353.3996, 6008.878
353.8817, 6010.534
354.3639, 6008.844
354.8460, 6001.545
355.3281, 5996.369
355.8102, 5996.402
356.2923, 5998.841
356.7744, 6000.647
357.2566, 6001.124
357.7387, 6000.661
358.2208, 5999.128
358.7029, 5995.402
359.1850, 5997.507
359.6671, 6013.646
360.1493, 6026.626
360.6314, 6026.443
361.1135, 6017.134
361.5956, 6007.583
362.0777, 6002.664
362.5598, 6002.478
363.0420, 6007.839
363.5241, 6024.137
364.0062, 6037.380
364.4883, 6048.418
364.9704, 6054.616
365.4525, 6051.889
365.9347, 6040.153
366.4168, 6025.910
366.8989, 6015.678
367.3810, 6009.414
367.8631, 6006.263
368.3452, 6002.843
368.8274, 6007.327
369.3095, 6028.497
369.7916, 6060.104
370.2737, 6087.192
370.7558, 6101.843
371.2379, 6108.783
371.7201, 6116.723
372.2022, 6126.408
372.6843, 6129.025
373.1664, 6112.494
373.6485, 6092.030
374.1306, 6091.981
374.6128, 6118.735
375.0949, 6145.448
375.5770, 6162.212
376.0591, 6168.350
376.5412, 6157.361
377.0233, 6125.655
377.5055, 6094.694
377.9876, 6088.915
378.4697, 6111.721
378.9518, 6123.533
379.4339, 6115.003
379.9160, 6103.360
380.3982, 6094.392
380.8803, 6090.462
381.3624, 6098.879
381.8445, 6125.413
382.3266, 6160.524
382.8087, 6175.275
383.2909, 6144.852
383.7730, 6125.642
384.2551, 6127.074
384.7372, 6134.700
385.2193, 6137.147
385.7014, 6132.473
386.1836, 6125.153
386.6657, 6119.011
387.1478, 6113.894
387.6299, 6113.309
388.1120, 6118.430
388.5941, 6127.262
389.0763, 6142.693
389.5584, 6160.411
390.0405, 6173.369
390.5226, 6178.037
391.0047, 6178.640
391.4868, 6181.613
391.9690, 6187.117
392.4511, 6193.444
392.9332, 6200.973
393.4153, 6208.400
393.8974, 6214.968
394.3795, 6220.654
394.8617, 6224.275
395.3438, 6225.761
395.8259, 6224.656
396.3080, 6217.287
396.7901, 6202.706
397.2722, 6194.382
397.7544, 6206.950
398.2365, 6233.816
398.7186, 6240.829
399.2007, 6208.236
399.6828, 6178.344
400.1649, 6168.100
400.6471, 6171.174
401.1292, 6178.455
401.6113, 6187.023
402.0934, 6195.314
402.5755, 6201.364
403.0576, 6205.781
403.5398, 6205.410
404.0219, 6196.846
404.5040, 6187.349
404.9861, 6178.175
405.4682, 6171.151
405.9503, 6171.251
406.4325, 6183.372
406.9146, 6200.953
407.3967, 6198.404
407.8788, 6161.909
408.3609, 6133.672
408.8430, 6125.214
409.3252, 6125.090
409.8073, 6124.857
410.2894, 6123.155
410.7715, 6123.474
411.2536, 6131.447
411.7357, 6144.841
412.2179, 6151.434
412.7000, 6148.827
413.1821, 6143.225
413.6642, 6135.248
414.1463, 6127.547
414.6284, 6126.927
415.1106, 6142.683
415.5927, 6155.998
416.0748, 6147.854
416.5569, 6125.389
417.0390, 6111.363
417.5211, 6114.255
418.0033, 6125.693
418.4854, 6133.180
418.9675, 6134.231
419.4496, 6140.095
419.9317, 6158.516
420.4138, 6175.757
420.8960, 6183.457
421.3781, 6181.748
421.8602, 6172.042
422.3423, 6153.657
422.8244, 6131.395
423.3065, 6126.942
423.7887, 6158.714
424.2708, 6179.696
424.7529, 6176.009
425.2350, 6166.684
425.7171, 6168.890
426.1992, 6184.080
426.6814, 6199.158
427.1635, 6196.309
427.6456, 6178.342
428.1277, 6182.396
428.6098, 6222.411
429.0919, 6257.617
429.5741, 6262.387
430.0562, 6250.474
430.5383, 6241.253
431.0204, 6239.888
431.5025, 6240.745
431.9846, 6233.822
432.4668, 6224.325
432.9489, 6236.305
433.4310, 6282.035
433.9131, 6329.578
434.3952, 6337.249
434.8773, 6299.900
435.3595, 6275.318
435.8416, 6267.364
436.3237, 6272.272
436.8058, 6296.648
437.2879, 6332.070
437.7701, 6358.069
438.2522, 6363.562
438.7343, 6357.142
439.2164, 6361.060
439.6985, 6385.635
440.1806, 6402.099
440.6628, 6403.733
441.1449, 6403.289
441.6270, 6408.640
442.1091, 6419.786
442.5912, 6433.086
443.0733, 6447.706
443.5555, 6461.557
444.0376, 6464.182
444.5197, 6449.518
445.0018, 6440.646
445.4839, 6450.958
445.9660, 6469.236
446.4482, 6484.897
446.9303, 6496.162
447.4124, 6508.307
447.8945, 6529.092
448.3766, 6552.166
448.8587, 6560.616
449.3409, 6551.065
449.8230, 6544.198
450.3051, 6559.640
450.7872, 6593.821
451.2693, 6610.299
451.7514, 6595.130
452.2336, 6579.967
452.7157, 6570.456
453.1978, 6568.867
453.6799, 6580.483
454.1620, 6606.064
454.6441, 6637.492
455.1263, 6665.513
455.6084, 6691.152
456.0905, 6707.405
456.5726, 6704.605
457.0547, 6701.795
457.5368, 6699.508
458.0190, 6702.258
458.5011, 6719.595
458.9832, 6758.245
459.4653, 6799.830
459.9474, 6814.554
460.4295, 6801.869
460.9117, 6795.760
461.3938, 6802.766
461.8759, 6818.258
462.3580, 6842.513
462.8401, 6873.104
463.3222, 6896.671
463.8044, 6907.816
464.2865, 6911.947
464.7686, 6908.558
465.2507, 6901.059
465.7328, 6903.891
466.2149, 6924.997
466.6971, 6953.641
467.1792, 6968.061
467.6613, 6956.430
468.1434, 6955.495
468.6255, 6990.334
469.1076, 7014.065
469.5898, 6981.831
470.0719, 6911.385
470.5540, 6860.233
471.0361, 6868.482
471.5182, 6909.498
472.0003, 6900.377
472.4825, 6818.364
472.9646, 6748.440
473.4467, 6716.107
473.9288, 6696.781
474.4109, 6679.669
474.8930, 6662.685
475.3752, 6640.674
475.8573, 6605.242
476.3394, 6565.108
476.8215, 6536.298
477.3036, 6519.321
477.7857, 6501.546
478.2679, 6472.675
478.7500, 6442.384
479.2321, 6438.434
479.7142, 6478.319
480.1963, 6497.276
480.6784, 6469.688
481.1606, 6424.872
481.6427, 6385.082
482.1248, 6354.099
482.6069, 6330.532
483.0890, 6313.711
483.5711, 6302.747
484.0533, 6292.471
484.5354, 6283.579
485.0175, 6274.194
485.4996, 6261.441
485.9817, 6249.940
486.4638, 6243.790
486.9460, 6243.163
487.4281, 6244.917
487.9102, 6247.234
488.3923, 6250.011
488.8744, 6254.970
489.3565, 6263.833
489.8387, 6263.854
490.3208, 6239.975
490.8029, 6207.731
491.2850, 6201.055
491.7671, 6231.062
492.2492, 6254.013
492.7314, 6255.801
493.2135, 6242.413
493.6956, 6214.769
494.1777, 6176.164
494.6598, 6139.460
495.1419, 6113.446
495.6241, 6098.511
496.1062, 6097.422
496.5883, 6131.571
497.0704, 6149.219
497.5525, 6135.026
498.0346, 6110.297
498.5168, 6090.409
498.9989, 6078.216
499.4810, 6070.668
499.9631, 6067.289
500.4452, 6066.458
500.9273, 6059.349
501.4095, 6042.064
501.8916, 6035.792
502.3737, 6058.826
502.8558, 6093.064
503.3379, 6108.856
503.8200, 6101.454
504.3022, 6093.338
504.7843, 6092.387
505.2664, 6095.418
505.7485, 6102.556
506.2306, 6111.774
506.7127, 6111.739
507.1949, 6092.942
507.6770, 6061.580
508.1591, 6045.037
508.6412, 6054.642
509.1233, 6063.137
509.6054, 6073.057
510.0876, 6078.370
510.5697, 6070.792
511.0518, 6053.029
511.5339, 6037.819
512.0161, 6034.133
512.4982, 6039.664
512.9803, 6051.087
513.4624, 6070.615
513.9445, 6081.485
514.4266, 6072.349
514.9088, 6056.300
515.3909, 6051.877
515.8730, 6060.247
516.3551, 6064.654
516.8372, 6060.891
517.3193, 6050.367
517.8015, 6026.825
518.2836, 5995.997
518.7657, 5979.379
519.2478, 5989.493
519.7299, 6015.928
520.2120, 6034.597
520.6942, 6046.633
521.1763, 6048.095
521.6584, 6029.930
522.1405, 6011.001
522.6226, 5997.625
523.1047, 5991.938
523.5869, 5998.279
524.0690, 6022.730
524.5511, 6051.784
525.0332, 6062.833
525.5153, 6055.968
525.9974, 6044.099
526.4796, 6025.763
526.9617, 6010.697
527.4438, 6016.684
527.9259, 6040.162
528.4080, 6045.876
528.8901, 6012.445
529.3723, 5976.191
529.8544, 5953.115
530.3365, 5943.721
530.8186, 5951.083
531.3007, 5975.751
531.7828, 6006.666
532.2650, 6030.412
532.7471, 6048.538
533.2292, 6049.936
533.7113, 6016.969
534.1934, 5987.029
534.6755, 5967.844
535.1577, 5959.743
535.6398, 5966.507
536.1219, 5991.091
536.6040, 6012.761
537.0861, 6005.357
537.5682, 5979.267
538.0504, 5970.435
538.5325, 5984.969
539.0146, 6002.192
539.4967, 6008.515
539.9788, 6005.347
540.4609, 6000.170
540.9431, 5993.353
541.4252, 5984.235
541.9073, 5965.900
542.3894, 5949.571
542.8715, 5948.733
543.3536, 5962.439
543.8358, 5977.688
544.3179, 5984.290
544.8000, 5983.923
545.2821, 5983.942
545.7642, 5984.996
546.2463, 5984.601
546.7285, 5978.592
547.2106, 5973.619
547.6927, 5976.986
548.1748, 5987.869
548.6569, 5995.140
549.1390, 5992.991
549.6211, 5985.456
550.1032, 5973.208
550.5853, 5958.543
551.0674, 5951.880
551.5496, 5958.155
552.0317, 5970.059
552.5138, 5976.160
552.9959, 5975.980
553.4780, 5971.285
553.9601, 5961.360
554.4423, 5948.367
554.9244, 5921.605
555.4065, 5895.907
555.8886, 5898.953
556.3707, 5941.739
556.8528, 5991.042
557.3350, 6003.795
557.8171, 5984.716
558.2992, 5972.254
558.7813, 5970.745
559.2634, 5973.111
559.7455, 5974.253
560.2277, 5976.044
560.7098, 5984.543
561.1919, 6009.289
561.6740, 6024.155
562.1561, 6016.368
562.6382, 5997.474
563.1204, 5975.127
563.6025, 5953.036
564.0846, 5938.322
564.5667, 5936.589
565.0488, 5945.307
565.5309, 5954.344
566.0131, 5962.519
566.4952, 5974.000
566.9773, 5995.191
567.4594, 6015.363
567.9415, 6027.593
568.4236, 6032.563
568.9058, 6035.010
569.3879, 6036.743
569.8700, 6036.996
570.3521, 6033.525
570.8342, 6027.749
571.3163, 6026.802
571.7985, 6033.746
572.2806, 6036.331
572.7627, 6016.357
573.2448, 5968.628
573.7269, 5947.454
574.2090, 5974.184
574.6912, 6000.318
575.1733, 6016.945
575.6554, 6025.064
576.1375, 6024.891
576.6196, 6017.143
577.1017, 6006.961
577.5839, 5996.985
578.0660, 5988.316
578.5481, 5986.844
579.0302, 5993.960
579.5123, 5995.386
579.9944, 5978.953
580.4766, 5958.043
580.9587, 5964.375
581.4408, 6009.370
581.9229, 6029.976
582.4050, 5993.238
582.8871, 5951.443
583.3693, 5935.497
583.8514, 5942.719
584.3335, 5964.780
584.8156, 5998.062
585.2977, 6031.172
585.7798, 6045.989
586.2620, 6041.498
586.7441, 6027.847
587.2262, 5995.019
587.7083, 5970.258
588.1904, 5978.858
588.6725, 6003.053
589.1547, 6013.250
589.6368, 6000.835
590.1189, 5986.900
590.6010, 5978.972
591.0831, 5976.640
591.5652, 5981.426
592.0474, 5992.095
592.5295, 6003.608
593.0116, 6013.227
593.4937, 6019.469
593.9758, 6016.068
594.4579, 5994.093
594.9401, 5983.781
595.4222, 6000.501
595.9043, 6017.833
596.3864, 6021.073
596.8685, 6014.435
597.3506, 6010.546
597.8328, 6016.605
598.3149, 6021.852
598.7970, 6011.534
599.2791, 5993.230
599.7612, 5988.545
600.2433, 6001.667
600.7255, 6017.728
601.2076, 6024.634
601.6897, 6023.223
602.1718, 6020.103
602.6539, 6000.858
603.1360, 6000.458
603.6182, 6049.287
604.1003, 6095.720
604.5824, 6093.517
605.0645, 6050.107
605.5466, 6010.214
606.0287, 6000.006
606.5109, 6006.284
606.9930, 6014.098
607.4751, 6022.202
607.9572, 6017.539
608.4393, 5993.164
608.9214, 5969.829
609.4036, 5969.483
609.8857, 5992.290
610.3678, 6011.464
610.8499, 6026.020
611.3320, 6038.507
611.8141, 6051.709
612.2963, 6061.770
612.7784, 6061.868
613.2605, 6053.356
613.7426, 6047.400
614.2247, 6056.401
614.7068, 6070.646
615.1890, 6059.723
615.6711, 6021.782
616.1532, 6003.090
616.6353, 6025.104
617.1174, 6056.509
617.5995, 6061.338
618.0817, 6038.919
618.5638, 6019.804
619.0459, 5997.017
619.5280, 5987.093
620.0101, 6010.231
620.4922, 6043.011
620.9744, 6054.564
621.4565, 6040.469
621.9386, 6020.158
622.4207, 6009.938
622.9028, 6007.960
623.3849, 6007.917
623.8671, 6010.239
624.3492, 6011.728
624.8313, 6010.049
625.3134, 6008.699
625.7955, 6013.739
626.2776, 6024.723
626.7598, 6030.617
627.2419, 6028.846
627.7240, 6022.784
628.2061, 6006.375
628.6882, 5989.869
629.1703, 5991.862
629.6525, 6014.337
630.1346, 6038.302
630.6167, 6045.466
631.0988, 6038.048
631.5809, 6025.363
632.0630, 6002.365
632.5452, 5995.545
633.0273, 6030.356
633.5094, 6067.819
633.9915, 6053.998
634.4736, 5992.548
634.9557, 5958.743
635.4379, 5991.446
635.9200, 6030.412
636.4021, 6043.591
636.8842, 6040.243
637.3663, 6034.248
637.8484, 6029.911
638.3306, 6026.988
638.8127, 6023.927
639.2948, 6022.305
639.7769, 6035.648
640.2590, 6072.291
640.7411, 6094.084
641.2233, 6084.916
641.7054, 6061.065
642.1875, 6031.739
642.6696, 5998.675
643.1517, 5987.361
643.6339, 6023.544
644.1160, 6060.853
644.5981, 6073.457
645.0802, 6070.887
645.5623, 6066.790
646.0444, 6064.795
646.5266, 6062.575
647.0087, 6056.934
647.4908, 6049.871
647.9729, 6052.824
648.4550, 6069.603
648.9371, 6080.686
649.4193, 6077.462
649.9014, 6070.768
650.3835, 6071.115
650.8656, 6077.571
651.3477, 6083.830
651.8298, 6096.533
652.3120, 6100.121
652.7941, 6072.850
653.2762, 6039.150
653.7583, 6038.021
654.2404, 6070.731
654.7225, 6101.370
655.2047, 6099.513
655.6868, 6075.413
656.1689, 6061.156
656.6510, 6056.689
657.1331, 6063.781
657.6152, 6089.426
658.0974, 6117.188
658.5795, 6134.012
659.0616, 6140.705
659.5437, 6139.074
660.0258, 6124.888
660.5079, 6107.907
660.9901, 6083.759
661.4722, 6063.347
661.9543, 6065.842
662.4364, 6085.838
662.9185, 6092.381
663.4006, 6060.629
663.8828, 6015.261
664.3649, 6016.865
664.8470, 6067.482
665.3291, 6095.628
665.8112, 6083.179
666.2933, 6064.106
666.7755, 6064.650
667.2576, 6079.390
667.7397, 6083.505
668.2218, 6063.380
668.7039, 6054.773
669.1860, 6079.986
669.6682, 6106.565
670.1503, 6101.917
670.6324, 6076.115
671.1145, 6065.110
671.5966, 6088.541
672.0787, 6119.835
672.5609, 6117.568
673.0430, 6087.199
673.5251, 6066.552
674.0072, 6058.627
674.4893, 6065.655
674.9714, 6096.940
675.4536, 6137.933
675.9357, 6149.012
676.4178, 6110.887
676.8999, 6084.969
677.3820, 6079.295
677.8641, 6079.500
678.3463, 6081.900
678.8284, 6083.810
679.3105, 6080.404
679.7926, 6070.175
680.2747, 6062.178
680.7568, 6068.341
681.2390, 6082.259
681.7211, 6084.929
682.2032, 6076.729
682.6853, 6082.575
683.1674, 6117.884
683.6495, 6156.505
684.1317, 6154.276
684.6138, 6098.782
685.0959, 6068.314
685.5780, 6085.012
686.0601, 6100.110
686.5422, 6098.219
687.0244, 6091.338
687.5065, 6091.660
687.9886, 6100.815
688.4707, 6114.142
688.9528, 6132.801
689.4349, 6151.384
689.9171, 6167.219
690.3992, 6177.831
690.8813, 6170.981
691.3634, 6144.019
691.8455, 6120.949
692.3276, 6128.582
692.8098, 6161.782
693.2919, 6173.350
693.7740, 6150.441
694.2561, 6134.322
694.7382, 6135.236
695.2203, 6143.003
695.7025, 6152.315
696.1846, 6162.738
696.6667, 6173.712
697.1488, 6190.216
697.6309, 6199.566
698.1130, 6184.735
698.5952, 6164.723
699.0773, 6166.523
699.5594, 6188.799
700.0415, 6211.214
700.5236, 6221.735
701.0057, 6222.757
701.4879, 6217.904
701.9700, 6206.900
702.4521, 6194.571
702.9342, 6178.224
703.4163, 6168.697
703.8984, 6174.383
704.3806, 6190.595
704.8627, 6206.733
705.3448, 6224.418
705.8269, 6237.504
706.3090, 6250.954
706.7911, 6253.877
707.2733, 6226.606
707.7554, 6188.734
708.2375, 6176.677
708.7196, 6200.191
709.2017, 6227.218
709.6838, 6220.901
710.1660, 6196.589
710.6481, 6197.210
711.1302, 6221.572
711.6123, 6237.604
712.0944, 6232.021
712.5765, 6222.220
713.0587, 6230.484
713.5408, 6257.872
714.0229, 6280.970
714.5050, 6303.271
714.9871, 6315.903
715.4692, 6306.343
715.9514, 6295.526
716.4335, 6303.611
716.9156, 6327.272
717.3977, 6345.307
717.8798, 6344.854
718.3619, 6342.215
718.8441, 6355.275
719.3262, 6373.084
719.8083, 6372.321
720.2904, 6353.416
720.7725, 6340.705
721.2546, 6351.384
721.7368, 6375.349
722.2189, 6389.511
722.7010, 6393.641
723.1831, 6387.406
723.6652, 6361.629
724.1473, 6343.500
724.6295, 6351.875
725.1116, 6376.975
725.5937, 6400.593
726.0758, 6426.625
726.5579, 6436.605
727.0400, 6409.835
727.5222, 6383.778
728.0043, 6385.535
728.4864, 6401.345
728.9685, 6405.161
729.4506, 6391.127
729.9327, 6378.805
730.4149, 6389.824
730.8970, 6413.538
731.3791, 6424.795
731.8612, 6424.977
732.3433, 6426.959
732.8254, 6434.425
733.3076, 6445.853
733.7897, 6461.949
734.2718, 6481.250
734.7539, 6484.126
735.2360, 6454.650
735.7181, 6435.413
736.2003, 6432.229
736.6824, 6439.178
737.1645, 6457.135
737.6466, 6482.125
738.1287, 6504.189
738.6108, 6519.696
739.0930, 6534.583
739.5751, 6553.852
740.0572, 6573.216
740.5393, 6589.422
741.0214, 6600.998
741.5035, 6603.259
741.9857, 6593.878
742.4678, 6582.968
742.9499, 6584.616
743.4320, 6598.308
743.9141, 6619.620
744.3962, 6651.715
744.8784, 6672.557
745.3605, 6668.469
745.8426, 6657.062
746.3247, 6662.108
746.8068, 6685.431
747.2889, 6709.423
747.7711, 6743.387
748.2532, 6766.251
748.7353, 6764.166
749.2174, 6755.656
749.6995, 6754.697
750.1816, 6763.052
750.6638, 6779.526
751.1459, 6807.634
751.6280, 6835.819
752.1101, 6850.077
752.5922, 6858.035
753.0743, 6876.199
753.5565, 6904.573
754.0386, 6927.108
754.5207, 6933.129
755.0028, 6936.327
755.4849, 6969.950
755.9670, 7040.243
756.4492, 7077.888
756.9313, 7066.723
757.4134, 7060.869
757.8955, 7086.191
758.3776, 7127.943
758.8597, 7166.403
759.3419, 7201.950
759.8240, 7230.643
760.3061, 7244.913
760.7882, 7260.995
761.2703, 7288.635
761.7524, 7318.739
762.2346, 7337.227
762.7167, 7346.665
763.1988, 7366.566
763.6809, 7410.233
764.1630, 7465.052
764.6451, 7522.958
765.1273, 7579.692
765.6094, 7622.959
766.0915, 7652.019
766.5736, 7678.117
767.0557, 7707.749
767.5378, 7740.469
768.0200, 7776.484
768.5021, 7817.048
768.9842, 7852.548
769.4663, 7882.270
769.9484, 7907.543
770.4305, 7924.130
770.9127, 7939.808
771.3948, 7967.638
771.8769, 8008.706
772.3590, 8045.120
772.8411, 8068.909
773.3232, 8094.561
773.8054, 8130.908
774.2875, 8169.774
774.7696, 8200.495
775.2517, 8224.174
775.7338, 8251.321
776.2159, 8287.653
776.6981, 8329.896
777.1802, 8381.185
777.6623, 8433.941
778.1444, 8465.665
778.6265, 8476.831
779.1086, 8494.346
779.5908, 8533.770
780.0729, 8583.309
780.5550, 8618.463
781.0371, 8636.009
781.5192, 8672.331
782.0013, 8733.534
782.4835, 8798.424
782.9656, 8865.409
783.4477, 8925.857
783.9298, 8959.423
784.4119, 8964.704
784.8940, 9002.760
785.3762, 9104.655
785.8583, 9202.550
786.3404, 9275.931
786.8225, 9339.579
787.3046, 9402.764
787.7867, 9469.008
788.2689, 9542.883
788.7510, 9627.192
789.2331, 9717.736
789.7152, 9818.792
790.1973, 9920.666
790.6794, 10003.84
791.1616, 10072.63
791.6437, 10149.74
792.1258, 10245.66
792.6079, 10354.62
793.0900, 10472.90
793.5721, 10598.59
794.0543, 10710.79
794.5364, 10807.63
795.0185, 10904.95
795.5006, 11006.63
795.9827, 11111.33
796.4648, 11214.97
796.9470, 11319.53
797.4291, 11441.95
797.9112, 11613.51
798.3933, 11757.14
798.8754, 11849.71
799.3575, 11933.13
799.8397, 12025.91
800.3218, 12128.33
800.8039, 12242.74
801.2860, 12372.54
801.7681, 12490.35
802.2502, 12583.89
802.7324, 12658.07
803.2145, 12701.13
803.6966, 12733.31
804.1787, 12795.36
804.6608, 12894.43
805.1429, 13001.44
805.6251, 13096.19
806.1072, 13176.81
806.5893, 13232.74
807.0714, 13268.08
807.5535, 13319.67
808.0356, 13396.21
808.5178, 13451.41
808.9999, 13457.34
809.4820, 13415.92
809.9641, 13325.90
810.4462, 13166.23
810.9283, 13034.61
811.4105, 12944.68
811.8926, 12859.83
812.3747, 12765.89
812.8568, 12670.49
813.3389, 12589.03
813.8210, 12521.46
814.3032, 12430.63
814.7853, 12282.83
815.2674, 12147.38
815.7495, 12049.03
816.2316, 11972.50
816.7137, 11906.40
817.1959, 11848.56
817.6780, 11799.73
818.1601, 11761.79
818.6422, 11725.27
819.1243, 11682.33
819.6064, 11634.95
820.0886, 11583.95
820.5707, 11531.21
821.0528, 11484.05
821.5349, 11444.41
822.0170, 11406.59
822.4991, 11366.99
822.9813, 11322.02
823.4634, 11257.10
823.9455, 11171.69
824.4276, 11066.13
824.9097, 10939.10
825.3918, 10796.07
825.8740, 10637.55
826.3561, 10468.82
826.8382, 10310.87
827.3203, 10176.14
827.8024, 10023.36
828.2845, 9841.975
828.7667, 9655.195
829.2488, 9468.918
829.7309, 9283.136
830.2130, 9091.433
830.6951, 8893.710
831.1772, 8727.209
831.6594, 8622.377
832.1415, 8524.103
832.6236, 8406.978
833.1057, 8285.405
833.5878, 8175.206
834.0699, 8074.118
834.5521, 7966.341
835.0342, 7840.916
835.5163, 7729.075
835.9984, 7668.876
836.4805, 7635.669
836.9626, 7593.057
837.4448, 7539.646
837.9269, 7477.714
838.4090, 7408.971
838.8911, 7344.023
839.3732, 7294.195
839.8553, 7257.580
840.3375, 7229.826
840.8196, 7211.264
841.3017, 7183.233
841.7838, 7140.744
842.2659, 7095.712
842.7480, 7053.368
843.2302, 7017.479
843.7123, 6999.584
844.1944, 7010.985
844.6765, 7001.796
845.1586, 6958.365
845.6407, 6914.745
846.1229, 6877.280
846.6050, 6848.243
847.0871, 6833.938
847.5692, 6832.803
848.0513, 6826.014
848.5334, 6812.915
849.0156, 6791.225
849.4977, 6746.402
849.9798, 6705.185
850.4619, 6693.997
850.9440, 6701.427
851.4261, 6701.456
851.9083, 6686.124
852.3904, 6663.032
852.8725, 6629.750
853.3546, 6597.259
853.8367, 6577.993
854.3188, 6568.074
854.8010, 6560.898
855.2831, 6553.841
855.7652, 6543.147
856.2473, 6525.486
856.7294, 6504.451
857.2115, 6487.435
857.6937, 6472.795
858.1758, 6450.181
858.6579, 6419.202
859.1400, 6394.316
859.6221, 6381.659
860.1042, 6382.060
860.5864, 6399.951
861.0685, 6434.146
861.5506, 6453.270
862.0327, 6453.993
862.5148, 6452.218
862.9969, 6449.915
863.4791, 6448.944
863.9612, 6452.462
864.4433, 6458.014
864.9254, 6455.921
865.4075, 6435.385
865.8896, 6429.876
866.3718, 6458.562
866.8539, 6478.735
867.3360, 6468.447
867.8181, 6446.447
868.3002, 6433.726
868.7823, 6431.209
869.2645, 6427.770
869.7466, 6416.333
870.2287, 6409.036
870.7108, 6418.094
871.1929, 6426.991
871.6750, 6415.644
872.1572, 6392.881
872.6393, 6384.626
873.1214, 6400.350
873.6035, 6409.454
874.0856, 6377.769
874.5677, 6337.904
875.0499, 6325.316
875.5320, 6333.426
876.0141, 6351.940
876.4962, 6375.225
876.9783, 6388.812
877.4604, 6380.362
877.9426, 6367.663
878.4247, 6381.077
878.9068, 6414.738
879.3889, 6452.295
879.8710, 6490.666
880.3531, 6508.956
880.8353, 6497.474
881.3174, 6480.308
881.7995, 6486.689
882.2816, 6512.538
882.7637, 6530.740
883.2458, 6539.128
883.7280, 6557.021
884.2101, 6590.680
884.6922, 6623.981
885.1743, 6648.022
885.6564, 6662.714
886.1385, 6666.444
886.6207, 6655.012
887.1028, 6651.292
887.5849, 6653.740
888.0670, 6666.790
888.5491, 6707.677
889.0313, 6745.443
889.5134, 6747.005
889.9955, 6721.270
890.4776, 6709.553
890.9597, 6723.923
891.4418, 6735.466
891.9240, 6744.287
892.4061, 6745.024
892.8882, 6730.585
893.3703, 6708.667
893.8524, 6687.501
894.3345, 6668.853
894.8167, 6656.462
895.2988, 6660.886
895.7809, 6661.018
896.2630, 6643.590
896.7451, 6617.719
897.2272, 6587.493
897.7094, 6558.160
898.1915, 6541.698
898.6736, 6542.544
899.1557, 6541.219
899.6378, 6517.895
900.1199, 6487.266
900.6021, 6470.595
901.0842, 6459.839
901.5663, 6434.702
902.0484, 6394.334
902.5305, 6356.761
903.0126, 6334.190
903.4948, 6314.578
903.9769, 6271.400
904.4590, 6218.195
904.9411, 6207.295
905.4232, 6233.810
905.9053, 6244.284
906.3875, 6221.413
906.8696, 6190.094
907.3517, 6173.939
907.8338, 6168.274
908.3159, 6159.342
908.7980, 6147.197
909.2802, 6127.234
909.7623, 6097.866
910.2444, 6068.365
910.7265, 6041.919
911.2086, 6022.324
911.6907, 6017.284
912.1729, 6026.463
912.6550, 6022.366
913.1371, 6000.039
913.6192, 5980.119
914.1013, 5966.606
914.5834, 5955.201
915.0656, 5943.403
915.5477, 5931.465
916.0298, 5919.462
916.5119, 5906.143
916.9940, 5897.724
917.4761, 5908.047
917.9583, 5903.641
918.4404, 5857.137
918.9225, 5809.918
919.4046, 5797.071
919.8867, 5811.071
920.3688, 5823.311
920.8510, 5834.674
921.3331, 5837.523
921.8152, 5824.507
922.2973, 5809.979
922.7794, 5800.369
923.2615, 5792.905
923.7437, 5785.448
924.2258, 5777.083
924.7079, 5764.863
925.1900, 5747.217
925.6721, 5726.629
926.1542, 5697.206
926.6364, 5671.785
927.1185, 5665.175
927.6006, 5668.316
928.0827, 5662.667
928.5648, 5645.365
929.0469, 5634.270
929.5291, 5649.397
930.0112, 5662.711
930.4933, 5649.096
930.9754, 5624.410
931.4575, 5605.337
931.9396, 5593.812
932.4218, 5589.355
932.9039, 5591.540
933.3860, 5593.286
933.8681, 5585.136
934.3502, 5575.843
934.8323, 5579.460
935.3145, 5589.692
935.7966, 5592.851
936.2787, 5588.292
936.7608, 5586.123
937.2429, 5592.236
937.7250, 5593.617
938.2072, 5567.177
938.6893, 5527.032
939.1714, 5503.967
939.6535, 5496.818
940.1356, 5502.113
940.6177, 5517.245
941.0999, 5527.968
941.5820, 5523.849
942.0641, 5511.740
942.5462, 5501.493
943.0283, 5493.935
943.5104, 5499.055
943.9926, 5515.081
944.4747, 5508.015
944.9568, 5466.620
945.4389, 5431.059
945.9210, 5439.823
946.4031, 5475.636
946.8853, 5490.033
947.3674, 5483.125
947.8495, 5476.858
948.3316, 5472.566
948.8137, 5469.890
949.2958, 5468.925
949.7780, 5467.988
950.2601, 5464.130
950.7422, 5459.417
951.2243, 5468.276
951.7064, 5495.433
952.1885, 5502.625
952.6707, 5479.904
953.1528, 5461.443
953.6349, 5464.541
954.1170, 5476.782
954.5991, 5481.825
955.0812, 5479.957
955.5634, 5477.821
956.0455, 5474.436
956.5276, 5474.115
957.0097, 5478.951
957.4918, 5484.253
957.9739, 5491.121
958.4561, 5492.812
958.9382, 5475.473
959.4203, 5436.716
959.9024, 5412.418
960.3845, 5408.139
960.8666, 5407.358
961.3488, 5409.161
961.8309, 5412.115
962.3130, 5419.056
962.7951, 5424.573
963.2772, 5414.064
963.7593, 5379.774
964.2415, 5371.289
964.7236, 5419.418
965.2057, 5448.542
965.6878, 5431.150
966.1699, 5405.502
966.6520, 5391.034
967.1342, 5387.331
967.6163, 5396.312
968.0984, 5424.757
968.5805, 5438.570
969.0626, 5425.393
969.5447, 5411.848
970.0269, 5403.936
970.5090, 5398.633
970.9911, 5394.456
971.4732, 5390.833
971.9553, 5386.436
972.4374, 5380.525
972.9196, 5376.033
973.4017, 5371.826
973.8838, 5370.990
974.3659, 5379.720
974.8480, 5388.006
975.3301, 5386.733
975.8123, 5377.516
976.2944, 5365.800
976.7765, 5349.624
977.2586, 5340.472
977.7407, 5348.510
978.2228, 5354.886
978.7050, 5343.729
979.1871, 5332.896
979.6692, 5347.037
980.1513, 5377.729
980.6334, 5391.148
981.1155, 5375.253
981.5977, 5356.875
982.0798, 5340.021
982.5619, 5327.244
983.0440, 5319.763
983.5261, 5316.945
984.0082, 5323.799
984.4904, 5335.022
984.9725, 5329.576
985.4546, 5291.583
985.9367, 5267.675
986.4188, 5290.254
986.9009, 5313.929
987.3831, 5306.005
987.8652, 5288.607
988.3473, 5294.159
988.8294, 5317.439
989.3115, 5322.297
989.7936, 5290.337
990.2758, 5261.612
990.7579, 5249.006
991.2400, 5248.854
991.7221, 5266.779
992.2042, 5290.507
992.6863, 5314.253
993.1685, 5330.750
993.6506, 5314.224
994.1327, 5235.682
994.6148, 5183.898
995.0969, 5221.236
995.5790, 5274.134
996.0612, 5299.801
996.5433, 5306.569
997.0254, 5305.047
997.5075, 5298.515
997.9896, 5291.032
998.4717, 5283.996
998.9539, 5276.126
999.4360, 5266.814
999.9181, 5256.411
1000.400, 5240.869
1000.882, 5227.246
1001.364, 5227.356
1001.847, 5238.581
1002.329, 5244.752
1002.811, 5237.603
1003.293, 5233.423
1003.775, 5244.998
1004.257, 5256.604
1004.739, 5256.873
1005.221, 5251.091
1005.703, 5248.910
1006.186, 5248.174
1006.668, 5232.599
1007.150, 5185.634
1007.632, 5161.774
1008.114, 5214.523
1008.596, 5266.824
1009.078, 5258.540
1009.560, 5227.811
1010.043, 5226.153
1010.525, 5249.460
1011.007, 5258.116
1011.489, 5236.599
1011.971, 5212.432
1012.453, 5188.759
1012.935, 5175.779
1013.417, 5188.579
1013.899, 5209.033
1014.382, 5217.073
1014.864, 5213.728
1015.346, 5211.044
1015.828, 5213.293
1016.310, 5211.987
1016.792, 5193.063
1017.274, 5182.528
1017.756, 5204.134
1018.239, 5233.647
1018.721, 5246.528
1019.203, 5244.783
1019.685, 5242.483
1020.167, 5243.771
1020.649, 5239.925
1021.131, 5219.783
1021.613, 5204.187
1022.095, 5204.318
1022.578, 5211.960
1023.060, 5221.745
1023.542, 5232.032
1024.024, 5242.497
1024.506, 5254.794
1024.988, 5255.682
1025.470, 5227.495
1025.952, 5205.949
1026.435, 5209.597
1026.917, 5220.326
1027.399, 5229.960
1027.881, 5233.351
1028.363, 5217.608
1028.845, 5177.100
1029.327, 5152.835
1029.809, 5163.115
1030.292, 5175.406
1030.774, 5180.298
1031.256, 5185.156
1031.738, 5202.866
1032.220, 5220.935
1032.702, 5210.612
1033.184, 5166.335
1033.666, 5146.237
1034.148, 5177.588
1034.630, 5202.156
1035.113, 5214.251
1035.595, 5213.282
1036.077, 5183.903
1036.559, 5149.115
1037.041, 5148.951
1037.523, 5185.345
1038.005, 5200.867
1038.487, 5183.868
1038.970, 5163.803
1039.452, 5126.585
1039.934, 5107.617
1040.416, 5142.440
1040.898, 5186.314
1041.380, 5178.769
1041.862, 5126.223
1042.344, 5100.855
1042.826, 5117.517
1043.309, 5129.072
1043.791, 5131.748
1044.273, 5133.474
1044.755, 5137.501
1045.237, 5141.087
1045.719, 5139.900
1046.201, 5136.290
1046.683, 5142.264
1047.166, 5163.521
1047.648, 5175.974
1048.130, 5181.474
1048.612, 5168.543
1049.094, 5122.730
1049.576, 5087.096
1050.058, 5103.731
1050.540, 5149.996
1051.022, 5162.103
1051.505, 5135.144
1051.987, 5124.604
1052.469, 5133.999
1052.951, 5138.151
1053.433, 5130.951
1053.915, 5118.141
1054.397, 5102.300
1054.879, 5086.946
1055.361, 5078.098
1055.844, 5075.660
1056.326, 5079.911
1056.808, 5090.836
1057.290, 5098.473
1057.772, 5101.150
1058.254, 5095.884
1058.736, 5079.934
1059.218, 5069.812
1059.701, 5093.318
1060.183, 5135.253
1060.665, 5140.768
1061.147, 5116.495
1061.629, 5092.496
1062.111, 5074.896
1062.593, 5085.955
1063.075, 5132.498
1063.557, 5168.793
1064.040, 5144.520
1064.522, 5095.069
1065.004, 5090.085
1065.486, 5109.199
1065.968, 5097.452
1066.450, 5062.374
1066.932, 5045.159
1067.414, 5055.338
1067.896, 5073.434
1068.379, 5089.074
1068.861, 5096.142
1069.343, 5079.918
1069.825, 5056.774
1070.307, 5048.808
1070.789, 5052.185
1071.271, 5059.479
1071.753, 5067.604
1072.236, 5072.513
1072.718, 5072.133
1073.200, 5070.221
1073.682, 5064.391
1074.164, 5063.663
1074.646, 5083.841
1075.128, 5107.505
1075.610, 5112.453
1076.093, 5101.944
1076.575, 5089.339
1077.057, 5077.918
1077.539, 5072.036
1078.021, 5082.690
1078.503, 5087.292
1078.985, 5069.960
1079.467, 5048.254
1079.949, 5029.397
1080.432, 5018.721
1080.914, 5026.421
1081.396, 5052.402
1081.878, 5074.088
1082.360, 5096.683
1082.842, 5100.654
1083.324, 5065.667
1083.806, 5032.261
1084.288, 5012.837
1084.771, 5008.577
1085.253, 5029.299
1085.735, 5067.503
1086.217, 5087.034
1086.699, 5083.684
1087.181, 5070.978
1087.663, 5033.917
1088.145, 5019.806
1088.628, 5052.634
1089.110, 5090.042
1089.592, 5102.716
1090.074, 5096.991
1090.556, 5085.822
1091.038, 5069.143
1091.520, 5048.139
1092.002, 5020.885
1092.484, 5002.916
1092.967, 4997.329
1093.449, 4997.330
1093.931, 4999.726
1094.413, 5005.032
1094.895, 5015.206
1095.377, 5027.283
1095.859, 5029.127
1096.341, 5022.064
1096.823, 5015.062
1097.306, 5009.317
1097.788, 5008.033
1098.270, 5012.024
1098.752, 5017.906
1099.234, 5023.681
1099.716, 5026.936
1100.198, 5020.985
1100.680, 5011.425
1101.163, 5011.493
1101.645, 5017.298
1102.127, 5016.323
1102.609, 5008.712
1103.091, 5006.292
1103.573, 5014.925
1104.055, 5023.846
1104.537, 5023.336
1105.020, 5019.964
1105.502, 5018.753
1105.984, 5018.951
1106.466, 5023.512
1106.948, 5027.321
1107.430, 5015.200
1107.912, 4985.770
1108.394, 4969.719
1108.876, 4988.957
1109.359, 5009.498
1109.841, 5020.694
1110.323, 5027.124
1110.805, 5033.625
1111.287, 5035.407
1111.769, 5021.930
1112.251, 4997.209
1112.733, 4982.541
1113.215, 4979.020
1113.698, 4988.260
1114.180, 5031.451
1114.662, 5052.942
1115.144, 5027.458
1115.626, 4994.550
1116.108, 4975.049
1116.590, 4971.593
1117.072, 4994.020
1117.555, 5042.589
1118.037, 5061.035
1118.519, 5042.820
1119.001, 5032.226
1119.483, 5036.047
1119.965, 5035.790
1120.447, 5022.970
1120.929, 5008.108
1121.411, 5002.069
1121.894, 5002.037
1122.376, 5002.857
1122.858, 5003.343
1123.340, 4993.889
1123.822, 4977.288
1124.304, 4972.164
1124.786, 4981.009
1125.268, 4986.874
1125.750, 4979.813
1126.233, 4971.511
1126.715, 4980.210
1127.197, 4991.118
1127.679, 4977.229
1128.161, 4955.326
1128.643, 4956.340
1129.125, 4973.032
1129.607, 4976.382
1130.090, 4960.538
1130.572, 4950.793
1131.054, 4966.672
1131.536, 4979.412
1132.018, 4969.190
1132.500, 4956.153
1132.982, 4951.472
1133.464, 4953.764
1133.947, 4965.505
1134.429, 4982.011
1134.911, 4984.990
1135.393, 4964.612
1135.875, 4957.044
1136.357, 4978.877
1136.839, 4993.271
1137.321, 4991.946
1137.803, 4984.477
1138.286, 4972.793
1138.768, 4962.301
1139.250, 4961.913
1139.732, 4970.285
1140.214, 4975.655
1140.696, 4978.760
1141.178, 4970.030
1141.660, 4946.887
1142.142, 4934.433
1142.625, 4940.960
1143.107, 4957.071
1143.589, 4977.128
1144.071, 4994.024
1144.553, 4995.459
1145.035, 4983.771
1145.517, 4955.626
1145.999, 4922.298
1146.482, 4920.748
1146.964, 4950.239
1147.446, 4990.601
1147.928, 5032.252
1148.410, 5057.464
1148.892, 5049.476
1149.374, 5026.013
1149.856, 4987.127
1150.339, 4955.241
1150.821, 4965.265
1151.303, 4990.015
1151.785, 4982.208
1152.267, 4946.726
1152.749, 4931.530
1153.231, 4956.212
1153.713, 4969.319
1154.195, 4943.618
1154.677, 4926.406
1155.160, 4937.972
1155.642, 4955.696
1156.124, 4969.439
1156.606, 4977.333
1157.088, 4971.917
1157.570, 4956.151
1158.052, 4971.955
1158.534, 5038.140
1159.017, 5040.813
1159.499, 4960.316
1159.981, 4900.810
1160.463, 4894.088
1160.945, 4910.073
1161.427, 4929.306
1161.909, 4945.645
1162.391, 4946.259
1162.874, 4936.599
1163.356, 4934.755
1163.838, 4938.614
1164.320, 4942.660
1164.802, 4945.571
1165.284, 4946.146
1165.766, 4943.944
1166.248, 4938.455
1166.730, 4927.288
1167.213, 4918.048
1167.695, 4920.616
1168.177, 4924.150
1168.659, 4918.636
1169.141, 4908.537
1169.623, 4894.434
1170.105, 4882.176
1170.587, 4889.534
1171.069, 4923.805
1171.552, 4941.900
1172.034, 4924.518
1172.516, 4908.992
1172.998, 4897.176
1173.480, 4894.304
1173.962, 4910.344
1174.444, 4925.209
1174.926, 4915.079
1175.409, 4889.094
1175.891, 4879.810
1176.373, 4888.606
1176.855, 4894.638
1177.337, 4897.861
1177.819, 4901.583
1178.301, 4906.359
1178.783, 4909.327
1179.266, 4909.114
1179.748, 4904.840
1180.230, 4892.832
1180.712, 4881.418
1181.194, 4890.401
1181.676, 4905.354
1182.158, 4895.353
1182.640, 4873.751
1183.122, 4872.674
1183.604, 4892.831
1184.087, 4914.174
1184.569, 4930.850
1185.051, 4936.736
1185.533, 4925.080
1186.015, 4907.470
1186.497, 4874.498
1186.979, 4852.433
1187.461, 4871.435
1187.944, 4904.588
1188.426, 4913.430
1188.908, 4901.199
1189.390, 4887.266
1189.872, 4865.141
1190.354, 4868.438
1190.836, 4907.481
1191.318, 4922.228
1191.801, 4895.042
1192.283, 4875.707
1192.765, 4894.061
1193.247, 4920.856
1193.729, 4918.698
1194.211, 4899.166
1194.693, 4886.855
1195.175, 4881.551
1195.657, 4884.687
1196.140, 4893.765
1196.622, 4905.808
1197.104, 4917.083
1197.586, 4913.792
1198.068, 4887.776
1198.550, 4868.753
1199.032, 4882.038
1199.514, 4898.942
1199.996, 4906.323
1200.479, 4907.578
1200.961, 4900.237
1201.443, 4891.923
1201.925, 4894.754
1202.407, 4907.536
1202.889, 4916.957
1203.371, 4924.879
1203.853, 4922.175
1204.336, 4904.504
1204.818, 4890.632
1205.300, 4885.083
1205.782, 4878.958
1206.264, 4866.684
1206.746, 4857.666
1207.228, 4865.236
1207.710, 4880.035
1208.193, 4873.374
1208.675, 4856.396
1209.157, 4865.186
1209.639, 4891.917
1210.121, 4916.022
1210.603, 4928.713
1211.085, 4910.719
1211.567, 4853.536
1212.049, 4807.809
1212.531, 4811.233
1213.014, 4825.270
1213.496, 4832.042
1213.978, 4839.483
1214.460, 4858.404
1214.942, 4877.381
1215.424, 4876.767
1215.906, 4864.121
1216.388, 4870.615
1216.871, 4902.310
1217.353, 4915.423
1217.835, 4907.727
1218.317, 4886.799
1218.799, 4849.326
1219.281, 4831.580
1219.763, 4849.748
1220.245, 4877.907
1220.728, 4894.906
1221.210, 4897.793
1221.692, 4867.616
1222.174, 4827.953
1222.656, 4833.220
1223.138, 4864.610
1223.620, 4888.062
1224.102, 4897.687
1224.584, 4891.375
1225.067, 4870.335
1225.549, 4851.700
1226.031, 4838.108
1226.513, 4837.425
1226.995, 4871.798
1227.477, 4894.390
1227.959, 4872.396
1228.441, 4843.598
1228.923, 4835.148
1229.406, 4839.354
1229.888, 4844.839
1230.370, 4850.726
1230.852, 4844.394
1231.334, 4824.897
1231.816, 4818.695
1232.298, 4826.806
1232.780, 4835.214
1233.263, 4840.184
1233.745, 4843.974
1234.227, 4847.961
1234.709, 4848.922
1235.191, 4841.643
1235.673, 4831.786
1236.155, 4822.159
##END=



