##NAMES=Meta-autunite
##RRUFFID=R060476
##IDEAL CHEMISTRY=Ca(U^6+^O_2_)_2_(PO_4_)_2_&#183;6H_2_O
##LOCALITY=San Pedro mine, Malacheta, Minas Gerais, Brazil
##OWNER=RRUFF
##SOURCE=Michael Scott
##DESCRIPTION=Book of yellowish-green thin tabular crystals
##STATUS=The identification of this mineral has been confirmed by X-ray diffraction and chemical analysis
##URL=rruff.info/R060476
##MEASURED CHEMISTRY=(Ca_0.87_Sr_0.05_Ba_0.04_)_∑=0.96_(UO_2_)_1.95_(PO_4_)_2.08_·4.10H_2_O
153.7104, 7830.194
154.1925, 8127.986
154.6746, 8447.248
155.1567, 8784.705
155.6389, 9141.334
156.1210, 9529.018
156.6031, 9938.181
157.0852, 10349.12
157.5673, 10767.03
158.0495, 11177.63
158.5316, 11577.62
159.0137, 11957.81
159.4958, 12335.24
159.9779, 12723.55
160.4600, 13116.53
160.9422, 13493.98
161.4243, 13846.15
161.9064, 14182.19
162.3885, 14506.41
162.8706, 14819.49
163.3527, 15126.67
163.8349, 15438.29
164.3170, 15750.91
164.7991, 16048.07
165.2812, 16310.49
165.7633, 16558.92
166.2454, 16811.88
166.7276, 17073.03
167.2097, 17341.98
167.6918, 17623.88
168.1739, 17915.62
168.6560, 18212.34
169.1381, 18510.00
169.6203, 18709.68
170.1024, 18970.34
170.5845, 19072.29
171.0666, 19187.17
171.5487, 19327.48
172.0309, 19491.32
172.5130, 19661.14
172.9951, 19833.01
173.4772, 20001.81
173.9593, 20159.86
174.4414, 20290.17
174.9236, 20414.98
175.4057, 20560.12
175.8878, 20726.95
176.3699, 20890.54
176.8520, 21035.20
177.3341, 21162.65
177.8163, 21277.08
178.2984, 21377.99
178.7805, 21466.60
179.2626, 21544.56
179.7447, 21610.55
180.2268, 21665.54
180.7090, 21699.73
181.1911, 21720.61
181.6732, 21751.20
182.1553, 21812.88
182.6374, 21890.02
183.1195, 21944.83
183.6017, 21974.46
184.0838, 21997.71
184.5659, 22036.08
185.0480, 22087.52
185.5301, 22144.13
186.0123, 22203.60
186.4944, 22265.07
186.9765, 22322.54
187.4586, 22374.68
187.9407, 22427.96
188.4228, 22494.82
188.9050, 22573.39
189.3871, 22649.64
189.8692, 22715.49
190.3513, 22771.93
190.8334, 22824.70
191.3155, 22872.65
191.7977, 22920.12
192.2798, 22979.19
192.7619, 23050.04
193.2440, 23110.36
193.7261, 23148.66
194.2082, 23166.08
194.6904, 23171.58
195.1725, 23161.70
195.6546, 23148.41
196.1367, 23154.20
196.6188, 23179.79
197.1009, 23213.68
197.5831, 23253.85
198.0652, 23300.50
198.5473, 23337.13
199.0294, 23361.17
199.5115, 23376.67
199.9937, 23390.18
200.4758, 23400.55
200.9579, 23413.17
201.4400, 23432.54
201.9221, 23459.29
202.4042, 23479.86
202.8864, 23490.60
203.3685, 23497.20
203.8506, 23514.30
204.3327, 23543.60
204.8148, 23575.14
205.2969, 23604.57
205.7791, 23632.18
206.2612, 23654.43
206.7433, 23668.67
207.2254, 23679.23
207.7075, 23699.81
208.1896, 23735.66
208.6718, 23766.56
209.1539, 23778.41
209.6360, 23765.49
210.1181, 23763.63
210.6002, 23778.08
211.0823, 23803.37
211.5645, 23824.25
212.0466, 23840.71
212.5287, 23854.47
213.0108, 23867.36
213.4929, 23881.17
213.9750, 23887.32
214.4572, 23878.83
214.9393, 23865.18
215.4214, 23876.87
215.9035, 23923.86
216.3856, 23975.69
216.8678, 24014.51
217.3499, 24036.22
217.8320, 24058.15
218.3141, 24079.23
218.7962, 24100.48
219.2783, 24127.15
219.7605, 24163.19
220.2426, 24195.50
220.7247, 24214.67
221.2068, 24212.82
221.6889, 24220.07
222.1710, 24242.02
222.6532, 24272.95
223.1353, 24293.32
223.6174, 24298.22
224.0995, 24301.95
224.5816, 24312.98
225.0637, 24337.86
225.5459, 24353.87
226.0280, 24355.72
226.5101, 24349.61
226.9922, 24354.51
227.4743, 24375.12
227.9564, 24399.38
228.4386, 24422.87
228.9207, 24447.94
229.4028, 24464.44
229.8849, 24468.62
230.3670, 24464.71
230.8492, 24464.96
231.3313, 24470.58
231.8134, 24478.36
232.2955, 24487.21
232.7776, 24497.50
233.2597, 24508.61
233.7419, 24521.43
234.2240, 24535.49
234.7061, 24548.21
235.1882, 24557.10
235.6703, 24569.37
236.1524, 24588.71
236.6346, 24617.82
237.1167, 24648.79
237.5988, 24683.80
238.0809, 24720.05
238.5630, 24751.11
239.0451, 24773.93
239.5273, 24795.22
240.0094, 24816.76
240.4915, 24836.38
240.9736, 24861.14
241.4557, 24895.05
241.9378, 24931.68
242.4200, 24956.58
242.9021, 24960.11
243.3842, 24966.64
243.8663, 24986.34
244.3484, 25024.79
244.8306, 25059.49
245.3127, 25089.68
245.7948, 25116.29
246.2769, 25141.14
246.7590, 25165.35
247.2411, 25185.76
247.7233, 25200.36
248.2054, 25206.92
248.6875, 25216.95
249.1696, 25230.86
249.6517, 25248.28
250.1338, 25269.31
250.6160, 25297.95
251.0981, 25323.37
251.5802, 25340.09
252.0623, 25344.89
252.5444, 25359.20
253.0265, 25386.70
253.5087, 25420.84
253.9908, 25452.60
254.4729, 25483.82
254.9550, 25509.63
255.4371, 25527.05
255.9192, 25534.40
256.4014, 25546.17
256.8835, 25562.38
257.3656, 25583.01
257.8477, 25608.52
258.3298, 25639.07
258.8120, 25674.40
259.2941, 25717.18
259.7762, 25768.50
260.2583, 25808.11
260.7404, 25830.32
261.2225, 25847.56
261.7047, 25874.68
262.1868, 25916.35
262.6689, 25954.26
263.1510, 25983.06
263.6331, 26002.67
264.1152, 26026.90
264.5974, 26056.71
265.0795, 26089.30
265.5616, 26122.45
266.0437, 26158.66
266.5258, 26189.29
267.0079, 26210.71
267.4901, 26225.05
267.9722, 26249.07
268.4543, 26289.59
268.9364, 26328.26
269.4185, 26347.71
269.9006, 26342.62
270.3828, 26342.42
270.8649, 26349.71
271.3470, 26365.32
271.8291, 26395.44
272.3112, 26444.03
272.7933, 26496.02
273.2755, 26540.73
273.7576, 26577.41
274.2397, 26607.81
274.7218, 26629.22
275.2039, 26645.04
275.6860, 26666.59
276.1682, 26695.20
276.6503, 26725.38
277.1324, 26756.22
277.6145, 26788.54
278.0966, 26813.16
278.5787, 26829.28
279.0609, 26839.28
279.5430, 26844.44
280.0251, 26843.33
280.5072, 26851.29
280.9893, 26882.79
281.4715, 26937.71
281.9536, 26979.79
282.4357, 27004.06
282.9178, 27021.55
283.3999, 27050.05
283.8820, 27089.37
284.3642, 27134.27
284.8463, 27182.16
285.3284, 27232.73
285.8105, 27286.10
286.2926, 27342.11
286.7747, 27399.37
287.2569, 27458.51
287.7390, 27518.86
288.2211, 27572.43
288.7032, 27614.32
289.1853, 27646.34
289.6674, 27676.46
290.1496, 27704.62
290.6317, 27733.64
291.1138, 27769.61
291.5959, 27811.39
292.0780, 27847.82
292.5602, 27874.37
293.0423, 27894.38
293.5244, 27913.54
294.0065, 27931.74
294.4886, 27955.18
294.9707, 27994.44
295.4529, 28045.14
295.9350, 28090.25
296.4171, 28124.35
296.8992, 28152.01
297.3813, 28177.97
297.8634, 28202.62
298.3456, 28232.02
298.8277, 28275.64
299.3098, 28326.90
299.7919, 28369.71
300.2740, 28396.42
300.7561, 28420.71
301.2383, 28462.10
301.7204, 28517.64
302.2025, 28571.16
302.6846, 28606.90
303.1667, 28636.13
303.6488, 28679.44
304.1310, 28744.01
304.6131, 28808.90
305.0952, 28848.27
305.5773, 28869.93
306.0594, 28894.90
306.5415, 28936.68
307.0237, 28986.23
307.5058, 29036.33
307.9879, 29086.55
308.4700, 29132.59
308.9521, 29165.94
309.4343, 29193.39
309.9164, 29227.69
310.3985, 29285.21
310.8806, 29344.43
311.3627, 29385.26
311.8448, 29406.95
312.3270, 29431.74
312.8091, 29472.44
313.2912, 29524.00
313.7733, 29580.49
314.2554, 29649.58
314.7375, 29714.72
315.2197, 29764.45
315.7018, 29800.85
316.1839, 29837.81
316.6660, 29880.19
317.1481, 29926.83
317.6302, 29976.84
318.1124, 30039.89
318.5945, 30094.24
319.0766, 30125.96
319.5587, 30141.64
320.0408, 30164.80
320.5229, 30203.19
321.0051, 30250.65
321.4872, 30305.11
321.9693, 30371.12
322.4514, 30433.64
322.9335, 30491.95
323.4156, 30544.58
323.8978, 30588.74
324.3799, 30610.93
324.8620, 30635.96
325.3441, 30672.26
325.8262, 30720.61
326.3083, 30778.46
326.7905, 30861.70
327.2726, 30949.46
327.7547, 31014.98
328.2368, 31026.33
328.7189, 31048.42
329.2010, 31099.29
329.6832, 31182.33
330.1653, 31251.40
330.6474, 31303.69
331.1295, 31344.01
331.6116, 31374.91
332.0938, 31378.36
332.5759, 31401.57
333.0580, 31456.17
333.5401, 31537.96
334.0222, 31612.68
334.5043, 31681.79
334.9865, 31742.48
335.4686, 31791.61
335.9507, 31822.21
336.4328, 31860.48
336.9149, 31910.45
337.3970, 31968.22
337.8792, 32021.55
338.3613, 32070.12
338.8434, 32117.63
339.3255, 32165.91
339.8076, 32215.28
340.2898, 32267.06
340.7719, 32323.17
341.2540, 32380.21
341.7361, 32433.43
342.2182, 32481.49
342.7003, 32531.91
343.1825, 32585.89
343.6646, 32644.14
344.1467, 32709.40
344.6288, 32783.45
345.1109, 32857.80
345.5930, 32921.73
346.0752, 32975.93
346.5573, 33038.32
347.0394, 33117.20
347.5215, 33203.14
348.0036, 33275.54
348.4857, 33334.16
348.9679, 33392.38
349.4500, 33463.00
349.9321, 33541.77
350.4142, 33615.87
350.8963, 33682.84
351.3784, 33746.89
351.8606, 33811.68
352.3427, 33876.90
352.8248, 33942.84
353.3069, 34007.54
353.7890, 34073.20
354.2711, 34144.76
354.7533, 34222.92
355.2354, 34302.73
355.7175, 34383.41
356.1996, 34461.75
356.6817, 34532.05
357.1638, 34580.21
357.6460, 34627.74
358.1281, 34693.09
358.6102, 34775.01
359.0923, 34860.02
359.5744, 34945.14
360.0565, 35026.77
360.5387, 35101.18
361.0208, 35163.67
361.5029, 35223.79
361.9850, 35279.33
362.4671, 35334.42
362.9492, 35401.10
363.4314, 35499.16
363.9135, 35598.77
364.3956, 35680.98
364.8777, 35732.08
365.3598, 35793.92
365.8419, 35884.88
366.3241, 35989.96
366.8062, 36086.10
367.2883, 36157.20
367.7704, 36231.32
368.2526, 36321.09
368.7347, 36433.11
369.2168, 36523.62
369.6989, 36569.13
370.1810, 36607.32
370.6631, 36669.74
371.1453, 36767.54
371.6274, 36873.62
372.1095, 36990.43
372.5916, 37115.63
373.0737, 37230.57
373.5558, 37338.52
374.0380, 37432.61
374.5201, 37504.25
375.0022, 37537.74
375.4843, 37600.01
375.9664, 37701.29
376.4485, 37825.19
376.9307, 37944.18
377.4128, 38057.57
377.8949, 38164.02
378.3770, 38257.80
378.8591, 38339.59
379.3412, 38436.34
379.8234, 38550.34
380.3055, 38668.09
380.7876, 38772.95
381.2697, 38866.34
381.7518, 38955.38
382.2339, 39040.17
382.7161, 39123.44
383.1982, 39213.57
383.6803, 39309.77
384.1624, 39408.22
384.6445, 39507.50
385.1266, 39606.08
385.6088, 39698.45
386.0909, 39781.30
386.5730, 39865.20
387.0551, 39960.10
387.5372, 40064.45
388.0193, 40175.86
388.5015, 40297.64
388.9836, 40422.09
389.4657, 40544.55
389.9478, 40664.95
390.4299, 40772.03
390.9120, 40837.46
391.3942, 40891.57
391.8763, 40971.09
392.3584, 41112.52
392.8405, 41259.66
393.3226, 41386.91
393.8047, 41496.41
394.2869, 41597.58
394.7690, 41673.09
395.2511, 41755.95
395.7332, 41870.96
396.2154, 42045.48
396.6975, 42202.83
397.1796, 42317.80
397.6617, 42408.59
398.1438, 42505.55
398.6259, 42610.25
399.1081, 42724.53
399.5902, 42855.71
400.0723, 43009.33
400.5544, 43138.20
401.0365, 43212.99
401.5186, 43284.19
402.0008, 43395.71
402.4829, 43584.96
402.9650, 43741.92
403.4471, 43841.59
403.9292, 43899.95
404.4113, 43984.58
404.8935, 44106.45
405.3756, 44230.34
405.8577, 44338.28
406.3398, 44427.69
406.8219, 44515.09
407.3040, 44599.99
407.7862, 44686.11
408.2683, 44783.31
408.7504, 44892.64
409.2325, 44996.99
409.7146, 45087.59
410.1967, 45170.04
410.6789, 45266.73
411.1610, 45378.30
411.6431, 45502.07
412.1252, 45644.93
412.6073, 45798.29
413.0894, 45933.86
413.5716, 46038.11
414.0537, 46134.06
414.5358, 46245.43
415.0179, 46369.39
415.5000, 46501.45
415.9821, 46640.89
416.4643, 46783.14
416.9464, 46924.48
417.4285, 47063.41
417.9106, 47196.90
418.3927, 47319.66
418.8748, 47436.36
419.3570, 47550.64
419.8391, 47662.68
420.3212, 47774.61
420.8033, 47890.37
421.2854, 48008.60
421.7675, 48124.46
422.2497, 48243.45
422.7318, 48355.82
423.2139, 48453.33
423.6960, 48523.64
424.1781, 48606.18
424.6602, 48714.90
425.1424, 48836.42
425.6245, 48949.48
426.1066, 49040.96
426.5887, 49138.63
427.0709, 49246.29
427.5530, 49363.69
428.0351, 49491.61
428.5172, 49638.08
428.9993, 49784.91
429.4814, 49918.39
429.9636, 50034.49
430.4457, 50152.21
430.9278, 50276.85
431.4099, 50399.71
431.8920, 50494.43
432.3741, 50556.65
432.8563, 50630.25
433.3384, 50737.34
433.8205, 50874.66
434.3026, 51022.47
434.7847, 51183.85
435.2668, 51336.89
435.7490, 51453.07
436.2311, 51541.55
436.7132, 51629.95
437.1953, 51723.51
437.6774, 51823.54
438.1595, 51940.37
438.6417, 52069.12
439.1238, 52189.39
439.6059, 52280.80
440.0880, 52362.01
440.5701, 52453.20
441.0522, 52558.17
441.5344, 52666.26
442.0165, 52777.17
442.4986, 52885.59
442.9807, 52984.32
443.4628, 53063.77
443.9449, 53140.05
444.4271, 53221.49
444.9092, 53305.95
445.3913, 53382.41
445.8734, 53420.43
446.3555, 53468.61
446.8376, 53554.43
447.3198, 53709.79
447.8019, 53842.62
448.2840, 53933.86
448.7661, 54007.58
449.2482, 54097.98
449.7303, 54219.74
450.2125, 54332.23
450.6946, 54426.57
451.1767, 54504.28
451.6588, 54577.23
452.1409, 54641.38
452.6230, 54712.23
453.1052, 54807.34
453.5873, 54931.18
454.0694, 55026.59
454.5515, 55080.77
455.0337, 55121.66
455.5158, 55194.47
455.9979, 55298.05
456.4800, 55409.21
456.9621, 55526.04
457.4442, 55642.13
457.9264, 55738.88
458.4085, 55816.87
458.8906, 55898.07
459.3727, 56011.04
459.8548, 56136.32
460.3369, 56235.94
460.8191, 56291.15
461.3012, 56348.91
461.7833, 56455.33
462.2654, 56592.70
462.7475, 56723.23
463.2296, 56827.68
463.7118, 56924.77
464.1939, 57019.48
464.6760, 57112.52
465.1581, 57218.79
465.6402, 57360.02
466.1223, 57503.53
466.6045, 57624.26
467.0866, 57685.79
467.5687, 57762.79
468.0508, 57869.92
468.5329, 57993.72
469.0150, 58106.86
469.4972, 58204.71
469.9793, 58296.53
470.4614, 58381.99
470.9435, 58460.64
471.4256, 58550.50
471.9077, 58658.22
472.3899, 58765.98
472.8720, 58857.31
473.3541, 58932.73
473.8362, 59003.20
474.3183, 59068.35
474.8004, 59133.70
475.2826, 59210.32
475.7647, 59297.61
476.2468, 59388.79
476.7289, 59480.38
477.2110, 59573.13
477.6931, 59673.27
478.1753, 59780.81
478.6574, 59874.64
479.1395, 59920.92
479.6216, 59946.76
480.1037, 59993.69
480.5858, 60080.99
481.0680, 60176.52
481.5501, 60269.06
482.0322, 60354.31
482.5143, 60421.80
482.9964, 60442.30
483.4786, 60467.18
483.9607, 60528.48
484.4428, 60631.25
484.9249, 60720.90
485.4070, 60776.68
485.8892, 60822.12
486.3713, 60873.15
486.8534, 60918.86
487.3355, 60986.86
487.8176, 61089.85
488.2997, 61210.93
488.7819, 61315.55
489.2640, 61396.64
489.7461, 61476.71
490.2282, 61563.43
490.7103, 61656.27
491.1924, 61738.17
491.6746, 61806.07
492.1567, 61874.96
492.6388, 61959.47
493.1209, 62058.13
493.6030, 62152.60
494.0851, 62243.43
494.5673, 62323.45
495.0494, 62372.91
495.5315, 62399.99
496.0136, 62432.70
496.4957, 62492.25
496.9778, 62560.07
497.4600, 62620.11
497.9421, 62672.05
498.4242, 62714.70
498.9063, 62746.29
499.3884, 62769.74
499.8705, 62786.55
500.3527, 62792.94
500.8348, 62802.85
501.3169, 62822.13
501.7990, 62847.66
502.2811, 62875.41
502.7632, 62920.71
503.2454, 62951.42
503.7275, 62955.71
504.2096, 62936.55
504.6917, 62921.74
505.1738, 62909.58
505.6559, 62905.70
506.1381, 62916.43
506.6202, 62948.71
507.1023, 62967.93
507.5844, 62967.52
508.0665, 62967.36
508.5486, 62996.86
509.0308, 63056.78
509.5129, 63118.24
509.9950, 63175.29
510.4771, 63226.29
510.9592, 63268.10
511.4413, 63299.88
511.9235, 63324.92
512.4056, 63349.19
512.8877, 63364.98
513.3698, 63351.51
513.8519, 63303.99
514.3340, 63270.27
514.8162, 63312.80
515.2983, 63379.26
515.7804, 63406.02
516.2625, 63346.95
516.7446, 63281.27
517.2267, 63234.53
517.7089, 63206.16
518.1910, 63194.37
518.6731, 63226.59
519.1552, 63251.26
519.6373, 63245.91
520.1194, 63207.07
520.6016, 63178.39
521.0837, 63165.25
521.5658, 63155.49
522.0479, 63139.23
522.5300, 63112.48
523.0121, 63093.46
523.4943, 63088.20
523.9764, 63083.84
524.4585, 63052.92
524.9406, 62995.26
525.4227, 62941.44
525.9048, 62902.70
526.3870, 62875.73
526.8691, 62863.11
527.3513, 62862.41
527.8334, 62836.84
528.3155, 62734.88
528.7976, 62600.51
529.2797, 62498.83
529.7618, 62440.51
530.2440, 62394.41
530.7261, 62349.73
531.2082, 62300.56
531.6903, 62240.28
532.1724, 62138.19
532.6545, 62053.47
533.1367, 62019.29
533.6188, 62019.93
534.1009, 61997.85
534.5830, 61928.77
535.0651, 61851.10
535.5472, 61775.63
536.0294, 61700.99
536.5115, 61637.36
536.9936, 61592.24
537.4757, 61548.36
537.9578, 61488.96
538.4399, 61409.66
538.9221, 61341.43
539.4042, 61289.63
539.8863, 61244.95
540.3684, 61189.02
540.8505, 61122.84
541.3326, 61059.56
541.8148, 61009.33
542.2969, 60962.49
542.7790, 60896.42
543.2611, 60814.13
543.7432, 60736.96
544.2253, 60694.24
544.7075, 60656.26
545.1896, 60585.07
545.6717, 60467.67
546.1538, 60362.70
546.6359, 60308.17
547.1180, 60277.06
547.6002, 60241.29
548.0823, 60191.20
548.5644, 60139.39
549.0465, 60087.93
549.5286, 60035.80
550.0107, 59981.64
550.4929, 59933.36
550.9750, 59869.60
551.4571, 59778.20
551.9392, 59658.26
552.4213, 59550.00
552.9034, 59452.10
553.3856, 59367.00
553.8677, 59308.81
554.3498, 59273.08
554.8319, 59200.60
555.3140, 59079.00
555.7961, 58943.46
556.2783, 58839.22
556.7604, 58759.31
557.2425, 58685.80
557.7246, 58617.75
558.2067, 58548.04
558.6888, 58470.80
559.1710, 58387.20
559.6531, 58300.57
560.1352, 58209.86
560.6173, 58120.26
561.0994, 58037.34
561.5815, 57962.14
562.0637, 57884.84
562.5458, 57792.81
563.0279, 57704.99
563.5100, 57635.16
563.9921, 57605.21
564.4742, 57551.34
564.9564, 57460.73
565.4385, 57353.32
565.9206, 57262.95
566.4027, 57191.93
566.8848, 57127.15
567.3669, 57069.55
567.8491, 57013.06
568.3312, 56937.53
568.8133, 56843.93
569.2954, 56749.09
569.7775, 56673.49
570.2596, 56602.27
570.7418, 56507.42
571.2239, 56386.18
571.7060, 56258.96
572.1881, 56124.21
572.6702, 55999.91
573.1523, 55910.04
573.6345, 55895.04
574.1166, 55854.46
574.5987, 55728.27
575.0808, 55557.76
575.5629, 55408.94
576.0450, 55317.79
576.5272, 55224.47
577.0093, 55121.07
577.4914, 55008.18
577.9735, 54881.59
578.4556, 54729.62
578.9377, 54591.23
579.4199, 54490.70
579.9020, 54430.68
580.3841, 54355.16
580.8662, 54263.82
581.3483, 54163.88
581.8304, 54061.79
582.3126, 53958.07
582.7947, 53852.91
583.2768, 53745.32
583.7589, 53639.27
584.2410, 53529.19
584.7231, 53423.93
585.2053, 53341.30
585.6874, 53303.23
586.1696, 53274.61
586.6517, 53256.02
587.1338, 53235.52
587.6159, 53164.99
588.0980, 52968.32
588.5801, 52773.56
589.0623, 52642.86
589.5444, 52589.46
590.0265, 52510.93
590.5086, 52402.70
590.9907, 52276.04
591.4728, 52132.84
591.9550, 51969.16
592.4371, 51831.70
592.9192, 51732.01
593.4013, 51647.02
593.8834, 51547.89
594.3655, 51435.90
594.8477, 51312.62
595.3298, 51174.08
595.8119, 51033.63
596.2940, 50909.15
596.7761, 50799.00
597.2582, 50693.57
597.7404, 50582.89
598.2225, 50477.93
598.7046, 50391.27
599.1867, 50322.76
599.6688, 50242.79
600.1509, 50133.01
600.6331, 50013.25
601.1152, 49896.13
601.5973, 49780.94
602.0794, 49668.29
602.5615, 49563.13
603.0436, 49456.65
603.5258, 49339.35
604.0079, 49209.88
604.4900, 49083.12
604.9721, 48966.81
605.4542, 48850.74
605.9363, 48706.61
606.4185, 48540.20
606.9006, 48386.18
607.3827, 48268.81
607.8648, 48171.45
608.3469, 48079.21
608.8290, 47989.62
609.3112, 47893.58
609.7933, 47783.21
610.2754, 47664.42
610.7575, 47534.23
611.2396, 47391.28
611.7217, 47261.30
612.2039, 47166.51
612.6860, 47078.52
613.1681, 46973.38
613.6502, 46832.18
614.1323, 46706.84
614.6144, 46607.53
615.0966, 46516.44
615.5787, 46402.26
616.0608, 46261.46
616.5429, 46124.85
617.0250, 46000.73
617.5071, 45884.89
617.9893, 45775.59
618.4714, 45670.93
618.9535, 45558.05
619.4356, 45420.93
619.9177, 45275.23
620.3998, 45137.29
620.8820, 45007.78
621.3641, 44888.82
621.8462, 44789.18
622.3283, 44693.14
622.8104, 44588.68
623.2925, 44470.11
623.7747, 44355.73
624.2568, 44252.67
624.7389, 44151.55
625.2210, 44044.85
625.7031, 43930.01
626.1852, 43813.87
626.6674, 43699.62
627.1495, 43582.21
627.6316, 43447.34
628.1137, 43293.54
628.5958, 43160.99
629.0779, 43069.16
629.5601, 42996.88
630.0422, 42907.20
630.5243, 42801.94
631.0064, 42684.18
631.4885, 42539.88
631.9706, 42395.63
632.4528, 42283.71
632.9349, 42202.53
633.4170, 42111.10
633.8991, 41974.61
634.3812, 41835.87
634.8633, 41720.91
635.3455, 41642.95
635.8276, 41559.21
636.3097, 41464.88
636.7918, 41367.52
637.2739, 41273.08
637.7560, 41183.09
638.2382, 41090.13
638.7203, 40992.70
639.2024, 40893.38
639.6845, 40790.45
640.1666, 40684.95
640.6487, 40594.52
641.1309, 40529.40
641.6130, 40471.36
642.0951, 40403.82
642.5772, 40324.01
643.0594, 40227.61
643.5415, 40093.44
644.0236, 39957.68
644.5057, 39847.57
644.9879, 39759.53
645.4700, 39657.00
645.9521, 39515.16
646.4342, 39372.20
646.9163, 39247.93
647.3984, 39147.45
647.8806, 39028.80
648.3627, 38883.71
648.8448, 38736.70
649.3269, 38606.76
649.8090, 38494.42
650.2911, 38381.93
650.7733, 38265.57
651.2554, 38154.00
651.7375, 38053.81
652.2196, 37965.05
652.7017, 37888.02
653.1838, 37827.57
653.6660, 37768.05
654.1481, 37695.50
654.6302, 37615.18
655.1123, 37535.62
655.5944, 37461.80
656.0765, 37386.15
656.5587, 37307.21
657.0408, 37223.95
657.5229, 37130.34
658.0050, 37013.40
658.4871, 36910.45
658.9692, 36842.65
659.4514, 36804.38
659.9335, 36730.50
660.4156, 36618.00
660.8977, 36497.74
661.3798, 36393.26
661.8619, 36299.55
662.3441, 36200.04
662.8262, 36093.99
663.3083, 35985.89
663.7904, 35881.91
664.2725, 35777.16
664.7546, 35665.31
665.2368, 35541.88
665.7189, 35421.13
666.2010, 35305.88
666.6831, 35196.38
667.1652, 35093.48
667.6473, 35002.76
668.1295, 34908.76
668.6116, 34805.63
669.0937, 34701.52
669.5758, 34618.77
670.0579, 34560.57
670.5400, 34487.55
671.0222, 34381.40
671.5043, 34259.85
671.9864, 34153.63
672.4685, 34061.96
672.9506, 33982.48
673.4327, 33931.59
673.9149, 33879.55
674.3970, 33791.37
674.8791, 33671.49
675.3612, 33561.07
675.8433, 33486.68
676.3254, 33415.88
676.8076, 33331.41
677.2897, 33229.96
677.7718, 33134.38
678.2539, 33049.04
678.7360, 32966.44
679.2181, 32880.92
679.7003, 32792.85
680.1824, 32712.18
680.6645, 32641.04
681.1466, 32572.88
681.6287, 32499.30
682.1108, 32422.41
682.5930, 32350.91
683.0751, 32286.56
683.5572, 32223.62
684.0393, 32156.33
684.5214, 32086.01
685.0035, 32014.44
685.4857, 31941.41
685.9678, 31867.11
686.4499, 31789.41
686.9320, 31711.12
687.4141, 31637.95
687.8962, 31574.38
688.3784, 31508.66
688.8605, 31438.91
689.3426, 31365.37
689.8247, 31289.70
690.3068, 31211.73
690.7889, 31126.54
691.2711, 31024.81
691.7532, 30917.31
692.2353, 30833.07
692.7174, 30768.48
693.1995, 30695.95
693.6816, 30593.05
694.1638, 30480.11
694.6459, 30369.67
695.1280, 30262.66
695.6101, 30167.43
696.0922, 30088.12
696.5743, 30020.64
697.0565, 29966.06
697.5386, 29932.37
698.0207, 29873.35
698.5028, 29777.41
698.9849, 29681.61
699.4670, 29630.05
699.9492, 29616.77
700.4313, 29575.86
700.9135, 29497.09
701.3956, 29406.93
701.8777, 29330.43
702.3598, 29262.61
702.8419, 29195.69
703.3240, 29128.22
703.8062, 29057.71
704.2883, 28978.45
704.7704, 28896.32
705.2525, 28821.79
705.7346, 28764.95
706.2167, 28704.22
706.6989, 28635.43
707.1810, 28563.09
707.6631, 28499.58
708.1452, 28449.96
708.6273, 28387.29
709.1094, 28296.93
709.5916, 28196.10
710.0737, 28127.53
710.5558, 28086.53
711.0379, 28044.74
711.5200, 27985.16
712.0021, 27919.38
712.4843, 27856.44
712.9664, 27795.13
713.4485, 27729.23
713.9306, 27648.05
714.4127, 27569.28
714.8948, 27503.91
715.3770, 27451.44
715.8591, 27395.18
716.3412, 27335.75
716.8233, 27271.64
717.3054, 27201.48
717.7875, 27125.15
718.2697, 27051.51
718.7518, 26980.21
719.2339, 26910.93
719.7160, 26847.01
720.1981, 26783.91
720.6802, 26710.27
721.1624, 26624.11
721.6445, 26543.33
722.1266, 26483.68
722.6087, 26431.73
723.0908, 26376.90
723.5729, 26318.98
724.0551, 26255.77
724.5372, 26182.96
725.0193, 26109.46
725.5014, 26045.63
725.9835, 25992.88
726.4656, 25941.50
726.9478, 25889.76
727.4299, 25839.53
727.9120, 25800.22
728.3941, 25765.21
728.8762, 25712.68
729.3583, 25628.01
729.8405, 25542.49
730.3226, 25483.67
730.8047, 25440.88
731.2868, 25398.42
731.7689, 25355.47
732.2510, 25306.89
732.7332, 25245.21
733.2153, 25178.61
733.6974, 25123.82
734.1795, 25087.07
734.6616, 25045.80
735.1437, 24993.88
735.6259, 24935.10
736.1080, 24877.55
736.5901, 24821.58
737.0722, 24770.88
737.5543, 24730.88
738.0364, 24693.97
738.5186, 24652.39
739.0007, 24606.57
739.4828, 24557.08
739.9649, 24508.07
740.4470, 24451.77
740.9291, 24376.30
741.4113, 24285.07
741.8934, 24218.77
742.3755, 24194.59
742.8576, 24164.32
743.3397, 24104.02
743.8218, 24018.92
744.3040, 23951.90
744.7861, 23903.96
745.2682, 23860.66
745.7503, 23816.96
746.2324, 23769.27
746.7145, 23709.09
747.1967, 23636.86
747.6788, 23570.37
748.1609, 23524.94
748.6430, 23484.18
749.1251, 23435.64
749.6072, 23375.18
750.0894, 23322.14
750.5715, 23276.64
751.0536, 23239.56
751.5357, 23218.97
752.0178, 23218.59
752.4999, 23181.94
752.9821, 23104.30
753.4642, 23020.63
753.9463, 22964.21
754.4284, 22926.10
754.9105, 22890.25
755.3926, 22854.71
755.8748, 22815.93
756.3569, 22765.36
756.8390, 22713.42
757.3211, 22669.63
757.8032, 22642.65
758.2853, 22607.39
758.7675, 22557.26
759.2496, 22503.76
759.7318, 22458.07
760.2139, 22422.55
760.6960, 22378.86
761.1781, 22323.73
761.6602, 22268.46
762.1423, 22230.06
762.6245, 22202.16
763.1066, 22168.78
763.5887, 22125.66
764.0708, 22080.43
764.5529, 22037.77
765.0350, 21996.77
765.5172, 21956.27
765.9993, 21917.23
766.4814, 21876.64
766.9635, 21834.81
767.4456, 21790.52
767.9277, 21740.62
768.4099, 21682.60
768.8920, 21631.50
769.3741, 21590.89
769.8562, 21553.88
770.3383, 21508.64
770.8204, 21458.21
771.3026, 21411.29
771.7847, 21373.24
772.2668, 21334.95
772.7489, 21291.10
773.2310, 21243.03
773.7131, 21193.41
774.1953, 21135.74
774.6774, 21086.67
775.1595, 21052.01
775.6416, 21024.82
776.1237, 20992.58
776.6058, 20954.84
777.0880, 20914.50
777.5701, 20871.02
778.0522, 20827.89
778.5343, 20790.23
779.0164, 20757.71
779.4985, 20730.11
779.9807, 20714.57
780.4628, 20694.86
780.9449, 20654.66
781.4270, 20603.73
781.9091, 20561.64
782.3912, 20544.93
782.8734, 20521.66
783.3555, 20484.85
783.8376, 20440.17
784.3197, 20402.49
784.8018, 20372.27
785.2839, 20342.68
785.7661, 20313.97
786.2482, 20281.63
786.7303, 20232.83
787.2124, 20173.92
787.6945, 20121.62
788.1766, 20088.40
788.6588, 20059.16
789.1409, 20025.58
789.6230, 19989.50
790.1051, 19955.52
790.5872, 19927.20
791.0693, 19896.14
791.5515, 19858.56
792.0336, 19818.65
792.5157, 19793.06
792.9978, 19781.99
793.4799, 19763.11
793.9620, 19724.04
794.4442, 19677.47
794.9263, 19637.71
795.4084, 19605.15
795.8905, 19580.29
796.3726, 19575.38
796.8547, 19565.43
797.3369, 19536.54
797.8190, 19493.26
798.3011, 19452.80
798.7832, 19415.53
799.2653, 19379.41
799.7474, 19343.27
800.2296, 19308.06
800.7117, 19278.13
801.1938, 19252.86
801.6759, 19226.09
802.1580, 19196.81
802.6401, 19163.35
803.1223, 19121.50
803.6044, 19074.28
804.0865, 19030.06
804.5686, 18993.98
805.0507, 18959.42
805.5328, 18923.38
806.0150, 18887.59
806.4971, 18856.56
806.9792, 18831.84
807.4613, 18807.61
807.9434, 18782.75
808.4255, 18756.75
808.9077, 18727.78
809.3898, 18695.88
809.8719, 18661.84
810.3540, 18623.09
810.8361, 18584.86
811.3182, 18550.59
811.8004, 18519.93
812.2825, 18491.44
812.7646, 18469.21
813.2467, 18443.47
813.7288, 18411.64
814.2109, 18375.61
814.6931, 18340.45
815.1752, 18306.09
815.6573, 18272.51
816.1394, 18239.09
816.6215, 18207.42
817.1037, 18178.83
817.5858, 18154.22
818.0679, 18135.10
818.5500, 18129.54
819.0322, 18121.22
819.5143, 18098.68
819.9964, 18068.10
820.4785, 18043.02
820.9606, 18028.40
821.4427, 18010.89
821.9249, 17987.56
822.4070, 17960.84
822.8891, 17936.86
823.3712, 17915.14
823.8533, 17889.96
824.3354, 17857.72
824.8176, 17825.59
825.2997, 17799.78
825.7818, 17780.67
826.2639, 17769.32
826.7460, 17778.93
827.2281, 17780.96
827.7103, 17757.60
828.1924, 17728.51
828.6745, 17721.53
829.1566, 17743.59
829.6387, 17759.54
830.1208, 17763.39
830.6030, 17760.72
831.0851, 17759.65
831.5672, 17758.84
832.0493, 17754.35
832.5314, 17743.66
833.0135, 17732.70
833.4957, 17725.61
833.9778, 17720.69
834.4599, 17715.88
834.9420, 17722.74
835.4241, 17711.99
835.9063, 17679.16
836.3884, 17634.63
836.8705, 17591.69
837.3526, 17550.18
837.8347, 17498.92
838.3168, 17435.07
838.7990, 17366.15
839.2811, 17299.83
839.7632, 17232.26
840.2453, 17156.66
840.7274, 17066.98
841.2095, 16982.53
841.6917, 16912.54
842.1738, 16848.23
842.6559, 16781.71
843.1380, 16711.25
843.6201, 16643.30
844.1022, 16576.54
844.5844, 16516.86
845.0665, 16475.41
845.5486, 16444.88
846.0307, 16404.68
846.5128, 16352.72
846.9949, 16300.97
847.4771, 16252.38
847.9592, 16211.07
848.4413, 16182.65
848.9234, 16171.19
849.4055, 16153.34
849.8876, 16125.24
850.3698, 16095.89
850.8519, 16070.64
851.3340, 16048.97
851.8161, 16028.73
852.2982, 16009.72
852.7803, 15986.45
853.2625, 15949.74
853.7446, 15909.94
854.2267, 15878.32
854.7088, 15854.58
855.1909, 15828.99
855.6730, 15795.36
856.1552, 15763.27
856.6373, 15738.70
857.1194, 15720.00
857.6015, 15690.54
858.0836, 15648.73
858.5657, 15607.72
859.0479, 15573.59
859.5300, 15543.95
860.0121, 15513.50
860.4942, 15483.62
860.9763, 15459.25
861.4584, 15449.51
861.9406, 15439.76
862.4227, 15423.34
862.9048, 15401.33
863.3869, 15378.73
863.8690, 15353.27
864.3511, 15332.68
864.8333, 15320.48
865.3154, 15311.42
865.7975, 15293.21
866.2796, 15267.50
866.7617, 15241.51
867.2438, 15216.65
867.7260, 15193.48
868.2081, 15171.84
868.6902, 15151.92
869.1723, 15133.69
869.6544, 15123.28
870.1365, 15104.74
870.6187, 15073.68
871.1008, 15038.39
871.5829, 15011.09
872.0650, 14991.45
872.5471, 14970.73
873.0292, 14947.64
873.5114, 14923.92
873.9935, 14901.70
874.4756, 14879.90
874.9577, 14857.88
875.4399, 14836.76
875.9220, 14810.60
876.4041, 14768.41
876.8862, 14729.04
877.3683, 14707.08
877.8505, 14706.46
878.3326, 14694.89
878.8147, 14671.38
879.2968, 14643.30
879.7789, 14611.61
880.2610, 14582.13
880.7432, 14569.30
881.2253, 14572.94
881.7074, 14566.57
882.1895, 14528.13
882.6716, 14485.10
883.1537, 14452.24
883.6359, 14429.40
884.1180, 14406.87
884.6001, 14384.88
885.0822, 14362.28
885.5643, 14337.82
886.0464, 14312.95
886.5286, 14292.69
887.0107, 14275.54
887.4928, 14254.86
887.9749, 14221.49
888.4570, 14190.01
888.9391, 14171.76
889.4213, 14161.49
889.9034, 14140.91
890.3855, 14102.36
890.8676, 14072.01
891.3497, 14057.90
891.8318, 14050.45
892.3140, 14029.11
892.7961, 13997.55
893.2782, 13970.63
893.7603, 13954.54
894.2424, 13940.58
894.7245, 13922.92
895.2067, 13903.71
895.6888, 13885.51
896.1709, 13874.35
896.6530, 13854.22
897.1351, 13820.68
897.6172, 13785.37
898.0994, 13761.51
898.5815, 13747.56
899.0636, 13734.34
899.5457, 13721.49
900.0278, 13705.04
900.5099, 13676.32
900.9921, 13646.02
901.4742, 13624.79
901.9563, 13615.43
902.4384, 13603.72
902.9205, 13589.88
903.4026, 13571.07
903.8848, 13542.44
904.3669, 13506.53
904.8490, 13486.06
905.3311, 13480.46
905.8132, 13473.33
906.2953, 13448.37
906.7775, 13421.71
907.2596, 13413.33
907.7417, 13417.47
908.2238, 13413.22
908.7059, 13389.88
909.1880, 13362.98
909.6702, 13333.79
910.1523, 13304.39
910.6344, 13279.97
911.1165, 13260.52
911.5986, 13243.59
912.0807, 13229.90
912.5629, 13215.18
913.0450, 13190.91
913.5271, 13163.74
914.0092, 13143.80
914.4913, 13141.39
914.9734, 13133.30
915.4556, 13113.90
915.9377, 13089.67
916.4198, 13064.03
916.9019, 13036.37
917.3840, 13020.05
917.8661, 13016.72
918.3483, 13014.83
918.8304, 13004.56
919.3125, 12989.17
919.7946, 12972.18
920.2767, 12954.10
920.7589, 12934.96
921.2410, 12913.76
921.7231, 12892.53
922.2052, 12871.46
922.6873, 12850.77
923.1694, 12832.36
923.6516, 12816.29
924.1337, 12802.57
924.6158, 12791.21
925.0979, 12782.00
925.5800, 12779.81
926.0621, 12779.50
926.5443, 12768.34
927.0264, 12724.17
927.5085, 12691.48
927.9906, 12684.43
928.4727, 12689.29
928.9548, 12683.37
929.4370, 12666.42
929.9191, 12650.53
930.4012, 12638.53
930.8833, 12625.91
931.3654, 12603.63
931.8475, 12579.37
932.3297, 12564.71
932.8118, 12565.68
933.2939, 12562.07
933.7761, 12544.98
934.2582, 12525.67
934.7403, 12510.55
935.2224, 12499.45
935.7045, 12490.54
936.1866, 12483.97
936.6688, 12471.51
937.1509, 12439.32
937.6330, 12403.80
938.1151, 12387.57
938.5972, 12386.73
939.0793, 12379.24
939.5615, 12351.76
940.0436, 12325.29
940.5257, 12306.67
941.0078, 12281.64
941.4899, 12270.28
941.9720, 12241.61
942.4542, 12218.65
942.9363, 12205.33
943.4184, 12197.33
943.9005, 12193.21
944.3826, 12189.88
944.8647, 12182.72
945.3469, 12167.77
945.8290, 12154.17
946.3111, 12145.07
946.7932, 12134.22
947.2753, 12113.28
947.7574, 12082.97
948.2396, 12066.51
948.7217, 12064.75
949.2038, 12062.62
949.6859, 12048.57
950.1680, 12028.94
950.6501, 12006.10
951.1323, 11981.11
951.6144, 11965.97
952.0965, 11970.35
952.5786, 11970.14
953.0607, 11955.94
953.5428, 11933.50
954.0250, 11922.00
954.5071, 11919.04
954.9892, 11910.00
955.4713, 11883.58
955.9534, 11858.88
956.4355, 11854.64
956.9177, 11859.48
957.3998, 11856.48
957.8819, 11835.57
958.3640, 11822.34
958.8461, 11819.08
959.3282, 11820.18
959.8104, 11821.75
960.2925, 11822.88
960.7746, 11819.96
961.2567, 11812.70
961.7388, 11803.17
962.2209, 11789.90
962.7031, 11777.02
963.1852, 11767.36
963.6673, 11760.93
964.1494, 11755.87
964.6315, 11752.10
965.1136, 11749.69
965.5958, 11749.26
966.0779, 11749.31
966.5600, 11744.60
967.0421, 11737.78
967.5242, 11736.74
968.0063, 11755.27
968.4885, 11765.33
968.9706, 11748.75
969.4527, 11722.25
969.9348, 11706.42
970.4169, 11704.32
970.8990, 11697.45
971.3812, 11683.56
971.8633, 11671.92
972.3454, 11675.27
972.8275, 11685.16
973.3096, 11688.54
973.7917, 11684.20
974.2739, 11681.14
974.7560, 11686.22
975.2381, 11688.63
975.7202, 11681.77
976.2023, 11668.96
976.6844, 11667.82
977.1666, 11678.25
977.6487, 11691.04
978.1308, 11705.36
978.6129, 11715.93
979.0950, 11714.56
979.5771, 11706.50
980.0593, 11700.28
980.5414, 11699.84
981.0235, 11698.47
981.5056, 11693.10
981.9877, 11690.62
982.4698, 11702.27
982.9520, 11724.32
983.4341, 11729.20
983.9162, 11715.36
984.3983, 11706.76
984.8804, 11727.27
985.3625, 11753.82
985.8447, 11771.73
986.3268, 11779.69
986.8089, 11779.77
987.2910, 11769.20
987.7731, 11759.33
988.2552, 11755.26
988.7374, 11752.24
989.2195, 11737.36
989.7016, 11715.76
990.1837, 11701.91
990.6658, 11707.84
991.1479, 11707.96
991.6301, 11685.19
992.1122, 11655.59
992.5944, 11635.09
993.0765, 11626.15
993.5586, 11614.17
994.0407, 11598.72
994.5228, 11581.90
995.0049, 11561.09
995.4871, 11542.50
995.9692, 11539.96
996.4513, 11550.04
996.9334, 11547.50
997.4155, 11505.18
997.8976, 11473.02
998.3798, 11462.70
998.8619, 11470.02
999.3440, 11492.26
999.8261, 11526.58
1000.308, 11544.48
1000.790, 11536.11
1001.272, 11517.74
1001.755, 11494.42
1002.237, 11472.99
1002.719, 11461.53
1003.201, 11463.46
1003.683, 11468.18
1004.165, 11476.93
1004.647, 11485.75
1005.129, 11491.17
1005.612, 11495.10
1006.094, 11502.99
1006.576, 11514.60
1007.058, 11528.78
1007.540, 11548.80
1008.022, 11567.03
1008.504, 11576.62
1008.986, 11584.12
1009.468, 11603.20
1009.951, 11636.10
1010.433, 11661.05
1010.915, 11674.46
1011.397, 11680.96
1011.879, 11681.18
1012.361, 11679.80
1012.843, 11683.68
1013.325, 11694.65
1013.807, 11702.25
1014.290, 11706.18
1014.772, 11704.42
1015.254, 11696.64
1015.736, 11682.25
1016.218, 11655.71
1016.700, 11618.83
1017.182, 11582.00
1017.664, 11550.41
1018.147, 11519.25
1018.629, 11482.00
1019.111, 11444.85
1019.593, 11417.37
1020.075, 11404.73
1020.557, 11385.51
1021.039, 11357.01
1021.521, 11329.32
1022.003, 11316.83
1022.486, 11309.73
1022.968, 11288.92
1023.450, 11254.54
1023.932, 11222.07
1024.414, 11189.30
1024.896, 11170.33
1025.378, 11174.19
1025.860, 11191.91
1026.343, 11199.20
1026.825, 11196.23
1027.307, 11185.76
1027.789, 11165.77
1028.271, 11147.36
1028.753, 11144.88
1029.235, 11146.93
1029.717, 11139.13
1030.199, 11113.26
1030.682, 11102.66
1031.164, 11113.71
1031.646, 11121.90
1032.128, 11107.07
1032.610, 11079.95
1033.092, 11067.87
1033.574, 11068.17
1034.056, 11071.47
1034.539, 11075.18
1035.021, 11079.23
1035.503, 11086.84
1035.985, 11092.60
1036.467, 11087.24
1036.949, 11070.38
1037.431, 11058.83
1037.913, 11055.00
1038.396, 11050.85
1038.878, 11033.76
1039.360, 11016.76
1039.842, 11014.65
1040.324, 11028.57
1040.806, 11035.41
1041.288, 11030.52
1041.770, 11027.19
1042.252, 11031.11
1042.734, 11037.12
1043.217, 11033.26
1043.699, 11022.87
1044.181, 11014.72
1044.663, 11011.89
1045.145, 11010.31
1045.627, 11010.57
1046.109, 11009.46
1046.591, 11003.90
1047.074, 10993.61
1047.556, 10985.41
1048.038, 10979.27
1048.520, 10978.12
1049.002, 10988.07
1049.484, 11000.17
1049.966, 11009.11
1050.448, 11013.87
1050.931, 11010.82
1051.413, 10990.58
1051.895, 10984.73
1052.377, 11000.78
1052.859, 11022.04
1053.341, 11028.58
1053.823, 11024.96
1054.305, 11019.47
1054.787, 11013.07
1055.270, 11011.08
1055.752, 11023.52
1056.234, 11032.15
1056.716, 11026.71
1057.198, 11012.21
1057.680, 11009.57
1058.162, 11017.94
1058.644, 11024.67
1059.126, 11025.29
1059.609, 11023.84
1060.091, 11023.82
1060.573, 11023.75
1061.055, 11021.48
1061.537, 11015.36
1062.019, 11013.25
1062.501, 11015.85
1062.983, 11020.44
1063.466, 11030.99
1063.948, 11039.45
1064.430, 11020.86
1064.912, 10986.68
1065.394, 10970.99
1065.876, 11007.98
1066.358, 11036.36
1066.840, 11043.60
1067.323, 11040.94
1067.805, 11039.83
1068.287, 11040.59
1068.769, 11046.90
1069.251, 11058.87
1069.733, 11072.43
1070.215, 11092.05
1070.697, 11105.13
1071.179, 11095.74
1071.661, 11071.17
1072.144, 11064.59
1072.626, 11079.24
1073.108, 11089.29
1073.590, 11086.67
1074.072, 11081.65
1074.554, 11087.79
1075.036, 11099.28
1075.518, 11108.65
1076.001, 11114.53
1076.483, 11120.07
1076.965, 11128.32
1077.447, 11131.01
1077.929, 11120.45
1078.411, 11103.36
1078.893, 11098.90
1079.375, 11104.72
1079.858, 11113.42
1080.340, 11125.29
1080.822, 11134.42
1081.304, 11136.23
1081.786, 11135.77
1082.268, 11137.22
1082.750, 11140.52
1083.232, 11142.86
1083.714, 11144.22
1084.197, 11149.25
1084.679, 11167.76
1085.161, 11185.43
1085.643, 11190.17
1086.125, 11185.12
1086.607, 11181.51
1087.089, 11178.82
1087.571, 11183.01
1088.054, 11197.27
1088.536, 11210.09
1089.018, 11203.72
1089.500, 11189.21
1089.982, 11180.37
1090.464, 11178.66
1090.946, 11188.32
1091.428, 11222.73
1091.911, 11246.98
1092.393, 11247.42
1092.875, 11233.70
1093.357, 11226.23
1093.839, 11224.25
1094.321, 11225.70
1094.803, 11231.04
1095.285, 11236.57
1095.767, 11238.65
1096.250, 11242.36
1096.732, 11252.71
1097.214, 11269.02
1097.696, 11275.51
1098.178, 11272.78
1098.660, 11272.02
1099.142, 11279.34
1099.624, 11290.44
1100.106, 11307.29
1100.589, 11323.75
1101.071, 11329.03
1101.553, 11316.91
1102.035, 11314.24
1102.517, 11322.31
1102.999, 11335.43
1103.481, 11352.61
1103.963, 11369.41
1104.446, 11377.54
1104.928, 11379.23
1105.410, 11384.88
1105.892, 11401.78
1106.374, 11413.51
1106.856, 11416.76
1107.338, 11415.94
1107.820, 11415.07
1108.302, 11415.26
1108.785, 11419.27
1109.267, 11427.41
1109.749, 11438.68
1110.231, 11456.15
1110.713, 11473.26
1111.195, 11490.28
1111.677, 11504.05
1112.159, 11501.37
1112.641, 11485.80
1113.124, 11480.13
1113.606, 11491.96
1114.088, 11506.69
1114.570, 11517.84
1115.052, 11525.22
1115.534, 11525.90
1116.016, 11520.72
1116.498, 11530.15
1116.981, 11554.88
1117.463, 11574.66
1117.945, 11577.18
1118.427, 11576.40
1118.909, 11584.74
1119.391, 11599.19
1119.873, 11616.53
1120.355, 11640.03
1120.838, 11651.97
1121.320, 11648.49
1121.802, 11649.57
1122.284, 11680.06
1122.766, 11716.63
1123.248, 11719.54
1123.730, 11699.55
1124.212, 11686.17
1124.694, 11690.94
1125.177, 11699.69
1125.659, 11712.46
1126.141, 11727.29
1126.623, 11743.22
1127.105, 11759.40
1127.587, 11774.97
1128.069, 11789.27
1128.551, 11797.92
1129.033, 11788.95
1129.516, 11787.09
1129.998, 11802.90
1130.480, 11824.74
1130.962, 11830.65
1131.444, 11824.38
1131.926, 11827.46
1132.408, 11843.30
1132.890, 11858.35
1133.373, 11861.01
1133.855, 11863.83
1134.337, 11875.57
1134.819, 11893.08
1135.301, 11904.33
1135.783, 11909.62
1136.265, 11916.47
1136.747, 11927.41
1137.229, 11938.49
1137.712, 11945.88
1138.194, 11952.27
1138.676, 11960.37
1139.158, 11970.23
1139.640, 11977.69
1140.122, 11982.03
1140.604, 11991.25
1141.086, 12010.89
1141.569, 12032.76
1142.051, 12049.53
1142.533, 12062.35
1143.015, 12071.96
1143.497, 12075.23
1143.979, 12086.90
1144.461, 12107.77
1144.943, 12133.71
1145.426, 12169.97
1145.908, 12202.54
1146.390, 12198.97
1146.872, 12175.20
1147.354, 12164.65
1147.836, 12188.06
1148.318, 12208.62
1148.800, 12225.04
1149.282, 12239.36
1149.765, 12254.04
1150.247, 12267.74
1150.729, 12275.04
1151.211, 12278.24
1151.693, 12286.67
1152.175, 12310.58
1152.657, 12331.49
1153.139, 12347.52
1153.621, 12358.32
1154.104, 12357.63
1154.586, 12351.76
1155.068, 12366.58
1155.550, 12401.50
1156.032, 12429.64
1156.514, 12427.15
1156.996, 12429.36
1157.478, 12449.24
1157.961, 12477.85
1158.443, 12499.80
1158.925, 12516.09
1159.407, 12532.28
1159.889, 12548.92
1160.371, 12566.14
1160.853, 12581.65
1161.335, 12600.32
1161.818, 12626.97
1162.300, 12657.44
1162.782, 12679.74
1163.264, 12694.20
1163.746, 12705.49
1164.228, 12713.65
1164.710, 12725.24
1165.192, 12750.30
1165.674, 12776.24
1166.156, 12794.76
1166.639, 12806.16
1167.121, 12806.58
1167.603, 12796.31
1168.085, 12798.42
1168.567, 12823.61
1169.049, 12853.71
1169.531, 12871.21
1170.013, 12887.26
1170.496, 12917.81
1170.978, 12963.37
1171.460, 12985.58
1171.942, 12983.20
1172.424, 12979.44
1172.906, 12980.57
1173.388, 12991.36
1173.870, 13028.98
1174.353, 13072.91
1174.835, 13091.34
1175.317, 13074.86
1175.799, 13085.29
1176.281, 13126.56
1176.763, 13164.79
1177.245, 13178.39
1177.727, 13182.51
1178.209, 13191.71
1178.692, 13204.47
1179.174, 13217.78
1179.656, 13226.40
1180.138, 13251.00
1180.620, 13295.35
1181.102, 13336.82
1181.584, 13356.40
1182.066, 13365.84
1182.548, 13377.19
1183.031, 13390.53
1183.513, 13405.77
1183.995, 13418.57
1184.477, 13445.56
1184.959, 13492.32
1185.441, 13535.56
1185.923, 13545.91
1186.405, 13546.15
1186.888, 13574.34
1187.370, 13621.07
1187.852, 13647.90
1188.334, 13631.13
1188.816, 13630.96
1189.298, 13655.14
1189.780, 13687.87
1190.262, 13713.56
1190.745, 13736.75
1191.227, 13765.14
1191.709, 13797.81
1192.191, 13828.53
1192.673, 13856.06
1193.155, 13880.83
1193.637, 13902.39
1194.119, 13923.24
1194.601, 13949.79
1195.084, 13976.38
1195.566, 13987.97
1196.048, 13986.57
1196.530, 14004.24
1197.012, 14061.76
1197.494, 14107.87
1197.976, 14129.91
1198.458, 14144.29
1198.941, 14176.19
1199.423, 14215.19
1199.905, 14241.16
1200.387, 14252.48
1200.869, 14268.65
1201.351, 14298.55
1201.833, 14321.42
1202.315, 14328.25
1202.797, 14334.06
1203.280, 14368.77
1203.762, 14417.01
1204.244, 14452.36
1204.726, 14470.27
1205.208, 14484.91
1205.690, 14494.59
1206.172, 14511.17
1206.654, 14541.38
1207.136, 14575.07
1207.619, 14592.13
1208.101, 14600.84
1208.583, 14615.51
1209.065, 14638.87
1209.547, 14665.91
1210.029, 14695.29
1210.511, 14728.87
1210.993, 14769.58
1211.476, 14811.70
1211.958, 14842.04
1212.440, 14868.22
1212.922, 14906.05
1213.404, 14963.77
1213.886, 15005.62
1214.368, 15022.51
1214.850, 15037.81
1215.333, 15061.00
1215.815, 15088.64
1216.297, 15118.62
1216.779, 15147.43
1217.261, 15166.67
1217.743, 15169.52
1218.225, 15185.61
1218.707, 15220.11
1219.189, 15258.67
1219.672, 15295.61
1220.154, 15331.69
1220.636, 15371.45
1221.118, 15410.58
1221.600, 15440.56
1222.082, 15454.58
1222.564, 15472.96
1223.046, 15496.31
1223.528, 15524.33
1224.011, 15557.62
1224.493, 15594.61
1224.975, 15638.51
1225.457, 15682.22
1225.939, 15712.58
1226.421, 15717.05
1226.903, 15735.67
1227.385, 15772.19
1227.868, 15810.62
1228.350, 15841.55
1228.832, 15869.85
1229.314, 15901.82
1229.796, 15936.40
1230.278, 15972.38
1230.760, 16013.17
1231.242, 16043.04
1231.724, 16059.45
1232.207, 16077.59
1232.689, 16109.28
1233.171, 16144.60
1233.653, 16176.88
1234.135, 16202.00
1234.617, 16210.41
1235.099, 16189.83
1235.581, 16193.33
1236.063, 16223.04
1236.546, 16263.84
1237.028, 16316.75
1237.510, 16364.97
1237.992, 16384.45
1238.474, 16390.02
1238.956, 16406.16
1239.438, 16436.54
1239.920, 16468.33
1240.403, 16501.10
1240.885, 16533.21
1241.367, 16557.58
1241.849, 16586.04
1242.331, 16635.02
1242.813, 16691.02
1243.295, 16732.05
1243.777, 16753.80
1244.260, 16785.20
1244.742, 16826.52
1245.224, 16864.83
1245.706, 16887.59
1246.188, 16910.25
1246.670, 16951.27
1247.152, 16994.36
1247.634, 17013.39
1248.116, 17005.18
1248.599, 17031.00
1249.081, 17088.71
1249.563, 17141.51
1250.045, 17157.45
1250.527, 17173.64
1251.009, 17218.69
1251.491, 17267.01
1251.973, 17288.69
1252.455, 17285.17
1252.938, 17298.46
1253.420, 17327.03
1253.902, 17356.54
1254.384, 17380.60
1254.866, 17402.36
1255.348, 17422.30
1255.830, 17441.71
1256.313, 17458.42
1256.795, 17474.87
1257.277, 17509.00
1257.759, 17558.07
1258.241, 17606.32
1258.723, 17651.34
1259.205, 17687.44
1259.687, 17708.77
1260.169, 17729.41
1260.651, 17763.05
1261.134, 17805.40
1261.616, 17846.93
1262.098, 17885.12
1262.580, 17913.61
1263.062, 17920.71
1263.544, 17931.09
1264.026, 17946.97
1264.508, 17966.05
1264.991, 17988.26
1265.473, 18011.30
1265.955, 18028.24
1266.437, 18042.79
1266.919, 18064.72
1267.401, 18101.38
1267.883, 18139.85
1268.365, 18183.27
1268.848, 18217.32
1269.330, 18219.37
1269.812, 18214.57
1270.294, 18239.08
1270.776, 18281.04
1271.258, 18313.60
1271.740, 18332.96
1272.222, 18345.42
1272.704, 18349.51
1273.187, 18358.35
1273.669, 18384.33
1274.151, 18415.27
1274.633, 18440.24
1275.115, 18463.06
1275.597, 18491.39
1276.079, 18526.98
1276.561, 18556.44
1277.043, 18579.85
1277.526, 18599.19
1278.008, 18615.76
1278.490, 18628.82
1278.972, 18632.39
1279.454, 18636.70
1279.936, 18651.59
1280.418, 18676.76
1280.900, 18713.88
1281.383, 18760.13
1281.865, 18798.96
1282.347, 18817.18
1282.829, 18833.45
1283.311, 18850.74
1283.793, 18871.38
1284.275, 18899.25
1284.757, 18931.62
1285.240, 18957.59
1285.722, 18978.52
1286.204, 18998.09
1286.686, 19015.60
1287.168, 19036.65
1287.650, 19062.85
1288.132, 19090.28
1288.614, 19117.12
1289.096, 19142.70
1289.578, 19162.88
1290.061, 19181.16
1290.543, 19205.61
1291.025, 19246.37
1291.507, 19268.21
1291.989, 19265.46
1292.471, 19269.40
1292.953, 19304.94
1293.435, 19347.12
1293.918, 19360.83
1294.400, 19364.08
1294.882, 19386.88
1295.364, 19433.69
1295.846, 19466.96
1296.328, 19486.94
1296.810, 19502.27
1297.292, 19510.13
1297.775, 19523.77
1298.257, 19569.88
1298.739, 19616.45
1299.221, 19629.38
1299.703, 19613.40
1300.185, 19622.09
1300.667, 19651.25
1301.149, 19673.71
1301.631, 19675.46
1302.114, 19670.52
1302.596, 19684.93
##END=



