##NAMES=Metavariscite
##RRUFFID=R050461
##IDEAL CHEMISTRY=AlPO_4_&#183;2H_2_O
##LOCALITY=Utahlite Hill, Lucin, Utah, USA
##OWNER=RRUFF
##SOURCE=University of Arizona Mineral Museum
##DESCRIPTION=Group of pale green acicular bladed crystals
##STATUS=The identification of this mineral has been confirmed by X-ray diffraction and chemical analysis
##URL=rruff.info/R050461
##MEASURED CHEMISTRY=Al_1.00_P_1.00_O_4_Â·2H_2_O
91.00781, 13.22901
91.48993, 12.88099
91.97205, 12.74223
92.45416, 12.80671
92.93628, 13.07866
93.41840, 13.59179
93.90051, 14.39005
94.38263, 15.35846
94.86475, 16.33171
95.34686, 17.31021
95.82898, 18.33628
96.31110, 19.37117
96.79321, 20.43620
97.27533, 21.73575
97.75745, 23.30250
98.23956, 25.12182
98.72168, 27.09054
99.20380, 29.18174
99.68591, 31.44369
100.1680, 33.90628
100.6501, 36.52822
101.1323, 39.44049
101.6144, 42.59074
102.0965, 45.94380
102.5786, 49.97486
103.0607, 54.83950
103.5428, 60.27311
104.0250, 65.97132
104.5071, 71.88559
104.9892, 78.06643
105.4713, 84.54538
105.9534, 91.60172
106.4355, 98.29922
106.9177, 104.4170
107.3998, 110.1636
107.8819, 116.4321
108.3640, 123.7804
108.8461, 131.1306
109.3282, 138.0800
109.8104, 144.4450
110.2925, 150.4685
110.7746, 155.7757
111.2567, 160.4903
111.7388, 165.8103
112.2209, 171.5495
112.7031, 178.0365
113.1852, 185.5726
113.6673, 195.1808
114.1494, 204.8636
114.6315, 214.0810
115.1136, 222.8786
115.5958, 231.7596
116.0779, 240.7575
116.5600, 249.9694
117.0421, 259.4633
117.5242, 269.7877
118.0063, 280.1166
118.4885, 290.1271
118.9706, 299.7603
119.4527, 309.2188
119.9348, 318.6440
120.4169, 327.9319
120.8990, 337.0439
121.3812, 346.5426
121.8633, 355.5206
122.3454, 362.7434
122.8275, 367.5395
123.3096, 371.9552
123.7917, 377.9990
124.2739, 385.2649
124.7560, 392.2643
125.2381, 397.7599
125.7202, 402.4211
126.2023, 407.2505
126.6844, 412.3896
127.1666, 417.9497
127.6487, 424.1520
128.1308, 431.0097
128.6129, 438.2011
129.0950, 445.4908
129.5771, 452.9512
130.0593, 460.8996
130.5414, 469.4933
131.0235, 478.5375
131.5056, 486.7186
131.9877, 492.0479
132.4698, 495.6826
132.9520, 501.8832
133.4341, 510.4976
133.9162, 518.7147
134.3983, 525.3139
134.8804, 530.5543
135.3625, 536.7664
135.8447, 544.4104
136.3268, 551.9774
136.8089, 557.4271
137.2910, 560.6157
137.7731, 562.9122
138.2552, 565.3432
138.7374, 568.2842
139.2195, 567.9310
139.7016, 563.2033
140.1837, 556.2448
140.6658, 551.5841
141.1479, 549.7023
141.6301, 548.7587
142.1122, 547.8748
142.5943, 546.8174
143.0764, 546.4030
143.5585, 546.7742
144.0406, 547.7546
144.5228, 548.6950
145.0049, 549.0397
145.4870, 550.0051
145.9691, 552.3261
146.4512, 557.1528
146.9333, 561.5028
147.4155, 564.9888
147.8976, 567.7677
148.3797, 570.9407
148.8618, 574.5784
149.3439, 578.5953
149.8260, 582.9282
150.3082, 589.0370
150.7903, 593.8836
151.2724, 597.7207
151.7545, 600.5650
152.2366, 600.7613
152.7188, 596.9506
153.2009, 591.1274
153.6830, 584.9249
154.1651, 577.1682
154.6472, 570.2903
155.1293, 565.2031
155.6115, 562.0925
156.0936, 559.0154
156.5757, 554.9918
157.0578, 551.0468
157.5399, 548.3636
158.0220, 548.3190
158.5042, 548.6300
158.9863, 548.3779
159.4684, 547.3089
159.9505, 546.6199
160.4326, 547.0485
160.9147, 548.0385
161.3969, 548.7586
161.8790, 548.7813
162.3611, 548.5713
162.8432, 548.2708
163.3253, 547.7510
163.8074, 547.6049
164.2896, 548.6107
164.7717, 550.1739
165.2538, 551.1134
165.7359, 550.0219
166.2180, 548.5881
166.7001, 548.1035
167.1823, 548.9921
167.6644, 550.4008
168.1465, 552.1691
168.6286, 554.1007
169.1107, 555.6497
169.5928, 556.1949
170.0750, 556.3386
170.5571, 556.8034
171.0392, 558.1056
171.5213, 559.1791
172.0034, 558.7614
172.4855, 557.1775
172.9677, 555.8641
173.4498, 555.8300
173.9319, 556.6060
174.4140, 557.5545
174.8961, 558.6289
175.3782, 559.6748
175.8604, 560.5834
176.3425, 561.3548
176.8246, 561.9565
177.3067, 562.0791
177.7888, 562.0320
178.2709, 562.4848
178.7531, 563.9955
179.2352, 565.8272
179.7173, 566.8275
180.1994, 567.0272
180.6815, 567.0284
181.1636, 567.3976
181.6458, 568.0032
182.1279, 568.4248
182.6100, 568.3507
183.0921, 568.0860
183.5742, 568.3193
184.0563, 569.0638
184.5385, 569.9318
185.0206, 570.3970
185.5027, 570.5847
185.9848, 571.0963
186.4669, 572.3638
186.9490, 574.0798
187.4312, 575.3752
187.9133, 576.2001
188.3954, 576.7703
188.8775, 577.2364
189.3596, 577.6086
189.8417, 578.0172
190.3239, 578.5843
190.8060, 579.2516
191.2881, 579.5843
191.7702, 579.4880
192.2523, 579.4314
192.7344, 580.2090
193.2166, 581.8214
193.6987, 583.1956
194.1808, 583.7257
194.6629, 583.5140
195.1450, 583.8640
195.6271, 584.9322
196.1093, 586.1652
196.5914, 586.5797
197.0735, 586.0846
197.5556, 585.8652
198.0377, 586.6483
198.5198, 588.4474
199.0020, 589.5609
199.4841, 589.8008
199.9662, 589.6733
200.4483, 590.0673
200.9304, 591.0771
201.4125, 592.0087
201.8947, 592.4918
202.3768, 592.4791
202.8589, 592.5546
203.3410, 592.6188
203.8231, 592.9133
204.3052, 594.1168
204.7874, 596.5379
205.2695, 598.6160
205.7516, 599.4825
206.2337, 598.9113
206.7158, 598.7311
207.1979, 599.1076
207.6801, 599.7419
208.1622, 599.9296
208.6443, 599.4792
209.1264, 599.1811
209.6085, 599.5666
210.0906, 600.9386
210.5728, 601.5988
211.0549, 601.4313
211.5370, 600.6044
212.0191, 599.3044
212.5012, 597.1284
212.9833, 595.4551
213.4655, 594.9860
213.9476, 595.9252
214.4297, 597.4341
214.9118, 599.9973
215.3939, 602.8666
215.8760, 604.0308
216.3581, 602.6971
216.8403, 601.2658
217.3224, 600.9472
217.8045, 602.1415
218.2866, 603.1827
218.7687, 603.9875
219.2508, 604.6193
219.7330, 605.1893
220.2151, 605.5443
220.6972, 606.0807
221.1793, 607.1244
221.6614, 609.2019
222.1435, 610.2744
222.6257, 609.8762
223.1078, 608.5813
223.5899, 608.0164
224.0720, 608.5577
224.5541, 609.2377
225.0362, 609.6553
225.5184, 609.8213
226.0005, 609.6799
226.4826, 609.0121
226.9647, 608.1120
227.4468, 607.8574
227.9289, 608.7664
228.4111, 609.5580
228.8932, 609.5955
229.3753, 608.4813
229.8574, 607.5494
230.3395, 606.6392
230.8216, 605.9750
231.3038, 606.2849
231.7859, 608.2328
232.2680, 610.1681
232.7501, 611.2687
233.2322, 610.9249
233.7143, 611.1284
234.1965, 612.1425
234.6786, 613.6506
235.1607, 614.7074
235.6428, 614.7470
236.1249, 615.1378
236.6070, 616.6188
237.0892, 620.0795
237.5713, 622.6362
238.0534, 624.1256
238.5355, 624.7448
239.0176, 624.9594
239.4997, 624.5851
239.9819, 624.0657
240.4640, 623.4453
240.9461, 622.1193
241.4282, 622.1882
241.9103, 624.2591
242.3924, 627.5364
242.8746, 630.1638
243.3567, 632.1198
243.8388, 633.4706
244.3209, 634.1152
244.8030, 633.5922
245.2851, 633.6346
245.7673, 634.5202
246.2494, 635.8681
246.7315, 636.8199
247.2136, 637.0844
247.6957, 637.4262
248.1778, 638.2186
248.6600, 639.7545
249.1421, 640.8552
249.6242, 641.5370
250.1063, 641.7843
250.5884, 641.4367
251.0705, 639.8946
251.5527, 638.7696
252.0348, 638.7421
252.5169, 640.1523
252.9990, 641.4473
253.4811, 642.7633
253.9632, 643.8814
254.4454, 644.3468
254.9275, 643.8663
255.4096, 643.2790
255.8917, 642.6918
256.3738, 641.8814
256.8560, 642.2388
257.3381, 644.3245
257.8202, 647.1093
258.3023, 649.0106
258.7844, 649.6061
259.2665, 650.2037
259.7487, 651.2172
260.2308, 652.7056
260.7129, 654.2211
261.1950, 655.8906
261.6771, 657.4418
262.1592, 658.4049
262.6414, 658.4706
263.1235, 658.6898
263.6056, 659.2431
264.0877, 660.1073
264.5698, 661.9918
265.0519, 665.6191
265.5341, 669.2750
266.0162, 670.9199
266.4983, 670.1432
266.9804, 668.5488
267.4625, 666.3118
267.9446, 663.4658
268.4268, 660.7910
268.9089, 658.1885
269.3910, 656.0231
269.8731, 654.8232
270.3552, 654.8702
270.8373, 654.7646
271.3195, 654.1487
271.8016, 653.0759
272.2837, 652.0070
272.7658, 650.7492
273.2479, 649.8975
273.7300, 650.2780
274.2122, 652.1902
274.6943, 653.4441
275.1764, 653.4541
275.6585, 652.4648
276.1406, 651.6230
276.6227, 650.8487
277.1049, 650.5037
277.5870, 651.1761
278.0691, 653.0115
278.5512, 654.1660
279.0333, 654.1600
279.5154, 653.3710
279.9976, 652.9562
280.4797, 652.8984
280.9618, 653.2986
281.4439, 654.5253
281.9260, 656.5831
282.4081, 658.1034
282.8903, 659.0068
283.3724, 659.1650
283.8545, 657.7605
284.3366, 654.5976
284.8187, 651.9268
285.3008, 651.4823
285.7830, 653.0821
286.2651, 654.6523
286.7472, 656.0411
287.2293, 657.2802
287.7114, 658.3278
288.1935, 659.1842
288.6757, 660.1830
289.1578, 661.8611
289.6399, 663.9591
290.1220, 664.9273
290.6041, 664.4914
291.0862, 663.5490
291.5684, 663.4882
292.0505, 664.2005
292.5326, 664.6801
293.0147, 664.0197
293.4968, 662.7346
293.9789, 662.5076
294.4611, 663.5023
294.9432, 664.8514
295.4253, 665.4824
295.9074, 665.5753
296.3895, 665.8785
296.8716, 667.0260
297.3538, 668.5338
297.8359, 669.3450
298.3180, 669.4454
298.8001, 669.3632
299.2822, 669.6642
299.7643, 670.1843
300.2465, 670.4755
300.7286, 670.1335
301.2107, 669.6440
301.6928, 669.7834
302.1749, 670.5117
302.6570, 671.2154
303.1392, 671.1366
303.6213, 670.7410
304.1034, 670.8688
304.5855, 672.0685
305.0676, 673.5263
305.5497, 674.4988
306.0319, 675.0247
306.5140, 675.3535
306.9961, 675.4001
307.4782, 675.4195
307.9603, 675.7338
308.4424, 676.4898
308.9246, 677.3986
309.4067, 678.3744
309.8888, 679.3357
310.3709, 680.0761
310.8530, 680.1183
311.3351, 680.0773
311.8173, 680.6171
312.2994, 682.1313
312.7815, 683.3461
313.2636, 682.8181
313.7457, 681.5146
314.2278, 681.1771
314.7100, 683.7393
315.1921, 686.6474
315.6742, 688.3249
316.1563, 688.4711
316.6384, 688.3101
317.1205, 687.9407
317.6027, 687.6801
318.0848, 687.9327
318.5669, 689.2702
319.0490, 690.7447
319.5311, 692.0974
320.0132, 693.3165
320.4954, 694.1485
320.9775, 693.8876
321.4596, 693.4984
321.9417, 693.8056
322.4238, 695.6663
322.9059, 697.5149
323.3881, 699.1420
323.8702, 700.5085
324.3523, 701.4286
324.8344, 700.8298
325.3165, 700.4686
325.7986, 701.3777
326.2808, 705.7321
326.7629, 708.9044
327.2450, 709.8773
327.7271, 709.2626
328.2092, 709.4733
328.6913, 711.0231
329.1735, 712.9652
329.6556, 714.9777
330.1377, 717.1357
330.6198, 719.2596
331.1019, 722.0184
331.5840, 724.5250
332.0662, 724.9542
332.5483, 721.4135
333.0304, 718.4922
333.5125, 717.9246
333.9946, 720.3077
334.4767, 721.8266
334.9589, 722.4128
335.4410, 722.1826
335.9231, 721.0090
336.4052, 718.2335
336.8873, 716.3370
337.3694, 716.2921
337.8516, 717.9490
338.3336, 718.4477
338.8158, 717.3972
339.2979, 716.0488
339.7800, 715.5789
340.2621, 716.1340
340.7442, 716.5644
341.2263, 716.3986
341.7085, 716.1146
342.1906, 717.6482
342.6727, 721.3004
343.1548, 724.9757
343.6369, 727.1502
344.1190, 727.8967
344.6012, 728.6780
345.0833, 729.5137
345.5654, 730.6719
346.0475, 732.7957
346.5296, 735.8186
347.0117, 738.9688
347.4939, 741.9084
347.9760, 744.6160
348.4581, 746.9588
348.9402, 748.8455
349.4223, 750.7958
349.9044, 753.4459
350.3866, 756.6957
350.8687, 760.2220
351.3508, 764.2239
351.8329, 768.3145
352.3150, 771.6765
352.7971, 774.3557
353.2793, 777.3270
353.7614, 782.0432
354.2435, 787.4890
354.7256, 791.9728
355.2077, 794.3893
355.6898, 796.4315
356.1720, 799.3875
356.6541, 803.2201
357.1362, 807.7064
357.6183, 812.8563
358.1004, 818.5639
358.5826, 824.8311
359.0647, 831.8740
359.5468, 838.9112
360.0289, 845.7366
360.5110, 852.2471
360.9931, 858.2706
361.4753, 863.6844
361.9574, 868.5641
362.4395, 872.8785
362.9216, 876.5864
363.4037, 880.0002
363.8858, 883.7066
364.3680, 886.9843
364.8501, 889.0828
365.3322, 890.4702
365.8143, 890.0226
366.2964, 887.0071
366.7785, 881.4655
367.2607, 875.6416
367.7428, 869.0006
368.2249, 862.6149
368.7070, 857.1335
369.1891, 853.6349
369.6712, 849.6354
370.1534, 844.2109
370.6355, 838.1757
371.1176, 834.1334
371.5997, 832.9024
372.0818, 832.5742
372.5639, 832.3542
373.0461, 832.0045
373.5282, 832.5287
374.0103, 834.1204
374.4924, 836.3828
374.9745, 838.5701
375.4566, 840.3749
375.9388, 843.1215
376.4209, 847.2777
376.9030, 852.8460
377.3851, 858.7314
377.8672, 864.9895
378.3493, 871.6761
378.8315, 878.7004
379.3136, 886.1328
379.7957, 894.2050
380.2778, 903.0531
380.7599, 912.5837
381.2420, 923.2169
381.7242, 934.7760
382.2063, 946.1251
382.6884, 956.3057
383.1705, 965.5720
383.6526, 974.3554
384.1347, 982.5478
384.6169, 990.7103
385.0990, 999.5050
385.5811, 1008.756
386.0632, 1017.527
386.5453, 1025.299
387.0274, 1032.408
387.5096, 1039.071
387.9917, 1045.275
388.4738, 1051.349
388.9559, 1057.060
389.4380, 1062.802
389.9201, 1069.132
390.4023, 1076.015
390.8844, 1083.739
391.3665, 1092.506
391.8486, 1102.330
392.3307, 1112.957
392.8128, 1124.670
393.2950, 1136.863
393.7771, 1149.440
394.2592, 1162.799
394.7413, 1175.259
395.2234, 1186.500
395.7055, 1196.341
396.1877, 1204.516
396.6698, 1211.438
397.1519, 1216.217
397.6340, 1218.991
398.1161, 1219.934
398.5982, 1217.299
399.0804, 1209.680
399.5625, 1199.239
400.0446, 1187.552
400.5267, 1175.380
401.0088, 1160.775
401.4909, 1142.805
401.9731, 1122.295
402.4552, 1102.892
402.9373, 1085.305
403.4194, 1067.671
403.9015, 1048.743
404.3836, 1027.652
404.8658, 1008.601
405.3479, 991.7966
405.8300, 976.9762
406.3121, 963.7548
406.7942, 952.2020
407.2763, 941.6605
407.7585, 932.0108
408.2406, 923.1539
408.7227, 914.7947
409.2048, 906.9342
409.6869, 899.7302
410.1690, 893.3887
410.6512, 887.9012
411.1333, 882.9397
411.6154, 878.4030
412.0975, 874.4511
412.5796, 871.5040
413.0617, 869.4121
413.5439, 867.3523
414.0260, 864.2610
414.5081, 861.1263
414.9902, 859.6824
415.4723, 860.1904
415.9544, 860.8304
416.4366, 860.0646
416.9187, 858.4980
417.4008, 857.0379
417.8829, 855.7149
418.3650, 854.8503
418.8471, 854.6616
419.3293, 855.1081
419.8114, 855.9410
420.2935, 857.2963
420.7756, 858.8476
421.2577, 860.3323
421.7398, 861.6263
422.2220, 863.0676
422.7041, 865.2269
423.1862, 867.5247
423.6683, 868.9297
424.1504, 868.7462
424.6325, 868.2386
425.1147, 867.5644
425.5968, 866.6318
426.0789, 866.3395
426.5610, 867.2139
427.0431, 868.2513
427.5252, 868.5256
428.0074, 867.3956
428.4895, 867.1064
428.9716, 868.4949
429.4537, 870.6751
429.9358, 870.5654
430.4179, 867.5818
430.9001, 864.3640
431.3822, 862.3506
431.8643, 861.5640
432.3464, 860.4291
432.8285, 858.9337
433.3106, 857.1268
433.7928, 854.9212
434.2749, 852.3751
434.7570, 849.9537
435.2391, 847.7088
435.7212, 845.7529
436.2033, 844.5388
436.6855, 843.9987
437.1676, 843.2987
437.6497, 841.1434
438.1318, 838.6639
438.6139, 837.9084
439.0960, 839.6694
439.5782, 841.4515
440.0603, 840.8821
440.5424, 838.8936
441.0245, 837.2449
441.5066, 835.9270
441.9887, 835.7682
442.4709, 838.4593
442.9530, 843.8132
443.4351, 846.9234
443.9172, 843.7672
444.3993, 838.8980
444.8814, 835.6396
445.3636, 835.2003
445.8457, 835.4698
446.3278, 836.7689
446.8099, 838.5787
447.2920, 839.6396
447.7741, 839.3284
448.2563, 838.9473
448.7384, 838.8660
449.2205, 839.1207
449.7026, 839.3979
450.1847, 839.5459
450.6668, 839.9216
451.1490, 840.9792
451.6311, 842.9918
452.1132, 844.6503
452.5953, 845.6860
453.0774, 846.3279
453.5595, 847.3573
454.0417, 848.8480
454.5238, 850.0339
455.0059, 850.4894
455.4880, 850.2719
455.9701, 849.5703
456.4522, 848.3112
456.9344, 847.0707
457.4165, 846.5875
457.8986, 846.6292
458.3807, 846.6315
458.8628, 846.8008
459.3449, 846.4107
459.8271, 844.1913
460.3092, 840.5186
460.7913, 836.9769
461.2734, 834.5061
461.7555, 832.5746
462.2376, 830.6801
462.7198, 828.7134
463.2019, 827.0677
463.6840, 826.2336
464.1661, 825.7307
464.6482, 824.9765
465.1303, 823.5717
465.6125, 822.1390
466.0946, 820.5829
466.5767, 818.9803
467.0588, 818.1631
467.5409, 819.0482
468.0230, 819.9786
468.5052, 820.2310
468.9873, 819.5678
469.4694, 818.8054
469.9515, 817.8070
470.4336, 816.8455
470.9157, 816.3730
471.3979, 816.5887
471.8800, 816.6313
472.3621, 816.1543
472.8442, 815.3518
473.3263, 815.1422
473.8084, 815.5622
474.2906, 816.2772
474.7727, 817.3544
475.2548, 818.5998
475.7369, 818.9355
476.2190, 818.0781
476.7011, 816.9679
477.1833, 816.5830
477.6654, 816.8408
478.1475, 817.5216
478.6296, 818.6483
479.1117, 820.0765
479.5938, 822.1055
480.0760, 824.5483
480.5581, 826.0946
481.0402, 824.6556
481.5223, 822.8347
482.0044, 822.9580
482.4865, 826.2452
482.9687, 829.3027
483.4508, 830.8787
483.9329, 831.5756
484.4150, 832.2335
484.8971, 832.5673
485.3792, 833.3419
485.8614, 835.1581
486.3435, 837.8871
486.8256, 839.5372
487.3077, 839.3074
487.7898, 838.9213
488.2719, 839.3414
488.7541, 840.8676
489.2362, 842.1495
489.7183, 842.9852
490.2004, 843.8348
490.6825, 845.7382
491.1646, 848.8926
491.6468, 851.1073
492.1289, 851.6439
492.6110, 850.8508
493.0931, 849.5215
493.5752, 847.6570
494.0573, 845.8632
494.5395, 844.5201
495.0216, 843.5551
495.5037, 842.8922
495.9858, 842.6061
496.4679, 842.2142
496.9500, 841.2746
497.4322, 839.9407
497.9143, 838.4813
498.3964, 836.8776
498.8785, 835.2973
499.3606, 834.0719
499.8427, 833.0380
500.3249, 831.5172
500.8070, 828.3378
501.2891, 825.3312
501.7712, 823.6387
502.2533, 824.0355
502.7354, 823.8564
503.2176, 822.5496
503.6997, 820.7531
504.1818, 819.0805
504.6639, 817.5214
505.1460, 816.0889
505.6281, 814.8406
506.1103, 813.6917
506.5924, 812.2741
507.0745, 810.4066
507.5566, 808.8727
508.0387, 808.3239
508.5208, 808.6808
509.0030, 808.1253
509.4851, 806.4548
509.9672, 805.0153
510.4493, 805.9515
510.9314, 808.4388
511.4135, 809.5545
511.8957, 808.1463
512.3778, 805.8262
512.8599, 804.1639
513.3420, 803.1030
513.8242, 802.4600
514.3063, 802.5426
514.7884, 802.7255
515.2705, 802.3439
515.7526, 801.3510
516.2347, 800.8134
516.7169, 801.3270
517.1990, 802.3506
517.6811, 803.4811
518.1632, 804.8430
518.6453, 806.0208
519.1274, 807.3144
519.6096, 808.3143
520.0917, 808.1445
520.5738, 805.7986
521.0559, 803.9229
521.5380, 803.1493
522.0201, 803.4515
522.5023, 804.5296
522.9844, 806.6701
523.4665, 808.8046
523.9486, 809.9360
524.4307, 810.1487
524.9128, 811.1573
525.3950, 813.2269
525.8771, 815.6127
526.3592, 817.2656
526.8413, 818.3599
527.3234, 819.6279
527.8055, 821.6183
528.2877, 823.6047
528.7698, 824.6547
529.2519, 824.9241
529.7340, 825.1326
530.2161, 824.9828
530.6982, 825.4025
531.1804, 827.4766
531.6625, 831.6679
532.1446, 835.2595
532.6267, 836.6025
533.1088, 837.3039
533.5909, 838.8231
534.0731, 842.1605
534.5552, 845.3630
535.0373, 848.2094
535.5194, 850.8397
536.0015, 853.7904
536.4836, 857.2477
536.9658, 860.5894
537.4479, 863.5513
537.9300, 866.1309
538.4121, 868.5266
538.8942, 870.5633
539.3763, 873.0596
539.8585, 877.0355
540.3406, 882.1987
540.8227, 886.8947
541.3048, 890.9285
541.7869, 894.5463
542.2690, 897.7924
542.7512, 900.8688
543.2333, 904.3024
543.7154, 909.4006
544.1975, 914.0378
544.6796, 915.9680
545.1617, 915.7562
545.6439, 915.7967
546.1260, 917.5983
546.6081, 919.6741
547.0902, 921.1683
547.5723, 921.8751
548.0544, 922.4269
548.5366, 924.0386
549.0187, 924.8797
549.5008, 923.1987
549.9829, 916.7569
550.4650, 911.9646
550.9471, 910.0314
551.4293, 909.6981
551.9114, 907.8712
552.3935, 904.2664
552.8756, 900.5560
553.3577, 897.3486
553.8398, 894.5546
554.3220, 891.7722
554.8041, 888.9900
555.2862, 886.2562
555.7683, 883.3446
556.2504, 880.5345
556.7325, 878.3132
557.2147, 876.7455
557.6968, 875.7610
558.1789, 875.2975
558.6610, 875.3756
559.1431, 876.0300
559.6252, 877.9171
560.1074, 879.7032
560.5895, 880.8882
561.0716, 881.5527
561.5537, 881.9599
562.0358, 881.3239
562.5179, 881.2577
563.0001, 882.5685
563.4822, 885.4365
563.9643, 887.5466
564.4464, 888.3112
564.9285, 889.1558
565.4106, 891.3389
565.8928, 895.1541
566.3749, 898.4366
566.8570, 900.9932
567.3391, 903.1204
567.8212, 905.0926
568.3033, 906.9832
568.7855, 909.1993
569.2676, 911.9749
569.7497, 915.0762
570.2318, 918.3079
570.7139, 921.5949
571.1960, 924.8860
571.6782, 928.7048
572.1603, 932.0920
572.6424, 933.6536
573.1245, 933.1179
573.6066, 933.7421
574.0887, 938.3019
574.5709, 943.6213
575.0530, 947.2432
575.5351, 947.4134
576.0172, 948.0032
576.4993, 949.2766
576.9814, 950.9600
577.4636, 952.6733
577.9457, 954.6086
578.4278, 956.0597
578.9099, 956.7883
579.3920, 956.9077
579.8741, 956.7701
580.3563, 956.3621
580.8384, 955.8430
581.3205, 955.2595
581.8026, 954.6309
582.2847, 954.4235
582.7668, 954.6731
583.2490, 953.8987
583.7311, 949.5469
584.2132, 943.9354
584.6953, 940.3049
585.1774, 940.5107
585.6595, 940.2155
586.1416, 936.2059
586.6237, 930.5154
587.1058, 926.1584
587.5880, 925.8651
588.0701, 924.7675
588.5522, 921.1337
589.0343, 915.6150
589.5164, 911.2542
589.9985, 908.7648
590.4807, 906.1888
590.9628, 902.3507
591.4449, 897.1876
591.9270, 894.1162
592.4091, 893.5300
592.8912, 893.3139
593.3734, 891.6050
593.8555, 888.6065
594.3376, 885.2061
594.8197, 881.4172
595.3018, 877.7626
595.7839, 874.8582
596.2661, 872.5228
596.7482, 870.4108
597.2303, 868.6139
597.7124, 866.7914
598.1945, 864.4953
598.6766, 861.9955
599.1588, 860.0818
599.6409, 859.7178
600.1230, 859.3332
600.6051, 858.3856
601.0872, 856.8635
601.5693, 854.8333
602.0515, 851.6647
602.5336, 848.8558
603.0157, 847.4681
603.4978, 847.7814
603.9799, 847.7446
604.4620, 847.3024
604.9442, 846.4739
605.4263, 844.9998
605.9084, 843.0346
606.3905, 841.6456
606.8726, 841.1689
607.3547, 841.1526
607.8369, 841.4107
608.3190, 841.6981
608.8011, 841.3944
609.2832, 839.1633
609.7653, 837.1328
610.2474, 836.9846
610.7296, 838.4639
611.2117, 839.4183
611.6938, 838.7131
612.1759, 837.7916
612.6580, 837.3702
613.1401, 837.5799
613.6223, 837.7288
614.1044, 837.8486
614.5865, 837.8643
615.0686, 837.6673
615.5507, 837.2288
616.0328, 836.9307
616.5150, 836.8743
616.9971, 836.8566
617.4792, 836.6666
617.9613, 836.2861
618.4434, 835.5296
618.9255, 833.9904
619.4077, 832.4963
619.8898, 832.2332
620.3719, 832.8533
620.8540, 833.2405
621.3361, 832.5653
621.8182, 831.7379
622.3004, 831.1388
622.7825, 830.7974
623.2646, 830.8930
623.7467, 831.7919
624.2288, 832.8588
624.7109, 833.7457
625.1931, 834.3076
625.6752, 835.2119
626.1573, 836.6594
626.6394, 838.0943
627.1215, 838.8258
627.6036, 838.8338
628.0858, 839.0852
628.5679, 839.7947
629.0500, 840.6130
629.5321, 840.9382
630.0142, 840.9197
630.4963, 841.0393
630.9785, 841.8796
631.4606, 842.5673
631.9427, 842.2070
632.4248, 841.0509
632.9069, 839.8832
633.3890, 838.8651
633.8712, 838.0833
634.3533, 837.6427
634.8354, 837.5732
635.3175, 837.4226
635.7996, 836.7678
636.2817, 836.4745
636.7639, 837.1501
637.2460, 839.0833
637.7281, 840.4450
638.2102, 841.1830
638.6923, 841.4763
639.1744, 841.5411
639.6566, 841.3397
640.1387, 840.5521
640.6208, 838.9495
641.1029, 837.3227
641.5850, 836.5697
642.0671, 836.4894
642.5493, 836.6588
643.0314, 837.7513
643.5135, 838.2498
643.9956, 836.8276
644.4777, 834.1248
644.9598, 832.1102
645.4420, 831.5992
645.9241, 831.5067
646.4062, 831.6355
646.8883, 831.9744
647.3704, 832.1456
647.8525, 832.1915
648.3347, 831.9770
648.8168, 831.2628
649.2989, 830.0643
649.7810, 829.3428
650.2631, 829.1253
650.7452, 829.1487
651.2274, 829.1977
651.7095, 829.2885
652.1916, 829.4481
652.6737, 829.6556
653.1558, 829.9904
653.6379, 830.6940
654.1201, 831.4933
654.6022, 832.0352
655.0843, 831.7976
655.5664, 831.7693
656.0485, 832.5882
656.5306, 833.7164
657.0128, 833.8934
657.4949, 832.4526
657.9770, 831.3170
658.4591, 830.9841
658.9412, 831.3178
659.4233, 831.7074
659.9055, 832.1395
660.3876, 832.8358
660.8697, 834.6828
661.3518, 836.7563
661.8339, 836.3453
662.3160, 833.5844
662.7982, 830.6643
663.2803, 828.4903
663.7624, 827.2958
664.2445, 827.7057
664.7266, 830.1354
665.2087, 831.9857
665.6909, 831.9473
666.1730, 831.2270
666.6551, 830.8164
667.1372, 830.8643
667.6193, 831.0152
668.1014, 831.2146
668.5836, 831.5571
669.0657, 832.2496
669.5478, 833.3231
670.0299, 834.3165
670.5120, 835.2036
670.9941, 835.8469
671.4763, 835.8888
671.9584, 835.4453
672.4405, 834.9633
672.9226, 834.4462
673.4047, 834.1419
673.8868, 834.7382
674.3690, 835.8332
674.8511, 836.0157
675.3332, 832.8535
675.8153, 830.4180
676.2974, 830.9960
676.7795, 834.7902
677.2617, 837.2424
677.7438, 838.1433
678.2259, 838.0270
678.7080, 836.6820
679.1901, 833.9231
679.6722, 833.2590
680.1544, 834.9519
680.6365, 837.1200
681.1186, 838.0504
681.6007, 838.1028
682.0828, 838.3329
682.5649, 838.9907
683.0471, 839.1951
683.5292, 837.3471
684.0113, 834.9639
684.4934, 833.9592
684.9755, 835.8967
685.4576, 837.5876
685.9398, 837.9929
686.4219, 837.7474
686.9040, 838.0043
687.3861, 839.4982
687.8682, 839.9308
688.3503, 838.5029
688.8325, 836.1271
689.3146, 835.2238
689.7967, 835.8156
690.2788, 836.7330
690.7609, 837.7012
691.2430, 838.5623
691.7252, 838.8076
692.2073, 838.6153
692.6894, 838.7756
693.1715, 840.4810
693.6536, 842.1068
694.1357, 842.3144
694.6179, 841.0932
695.1000, 839.9561
695.5821, 839.3394
696.0642, 838.8060
696.5463, 838.0687
697.0284, 837.0090
697.5106, 836.5498
697.9927, 836.7998
698.4748, 837.4167
698.9569, 838.2137
699.4390, 839.1777
699.9211, 840.0923
700.4033, 840.9470
700.8854, 841.8282
701.3675, 843.3959
701.8496, 844.8903
702.3317, 844.8298
702.8138, 842.0759
703.2960, 839.8731
703.7781, 840.4898
704.2602, 842.3239
704.7423, 843.4133
705.2244, 842.0406
705.7065, 841.7495
706.1887, 843.4031
706.6708, 845.8747
707.1529, 847.1135
707.6350, 846.9407
708.1171, 846.4693
708.5992, 845.8086
709.0814, 845.2194
709.5635, 845.2719
710.0456, 845.8985
710.5277, 846.7689
711.0098, 848.0176
711.4919, 849.2102
711.9741, 849.9217
712.4562, 850.2372
712.9383, 850.5145
713.4204, 851.1162
713.9025, 851.4978
714.3846, 851.1779
714.8668, 850.2227
715.3489, 850.1292
715.8310, 851.5185
716.3131, 852.5175
716.7952, 851.8469
717.2773, 849.6885
717.7595, 848.7061
718.2416, 848.9572
718.7237, 849.4842
719.2058, 849.4008
719.6879, 849.1309
720.1700, 849.4960
720.6522, 850.6239
721.1343, 851.5323
721.6164, 851.1965
722.0985, 850.6927
722.5806, 851.0471
723.0627, 853.3405
723.5449, 854.2400
724.0270, 852.7019
724.5091, 850.6006
724.9912, 849.7108
725.4733, 850.2496
725.9554, 850.7477
726.4376, 851.1337
726.9197, 851.2854
727.4018, 850.5057
727.8839, 849.3043
728.3660, 849.4872
728.8481, 852.1013
729.3303, 854.8350
729.8124, 856.0897
730.2945, 856.0596
730.7766, 855.0274
731.2587, 851.1900
731.7408, 848.5482
732.2230, 848.6768
732.7051, 850.4091
733.1872, 851.7428
733.6693, 852.6439
734.1514, 853.2242
734.6335, 853.5652
735.1157, 853.5537
735.5978, 852.5466
736.0799, 850.7092
736.5620, 849.4149
737.0441, 849.6707
737.5262, 850.5095
738.0084, 850.8464
738.4905, 850.8243
738.9726, 850.9235
739.4547, 851.2170
739.9368, 851.8004
740.4189, 853.1034
740.9011, 854.9980
741.3832, 855.5488
741.8653, 853.6547
742.3474, 852.4429
742.8295, 853.7302
743.3116, 856.9980
743.7938, 857.7794
744.2759, 856.0049
744.7580, 853.8485
745.2401, 852.4808
745.7222, 851.8588
746.2043, 852.3057
746.6865, 853.7552
747.1686, 854.7157
747.6507, 853.8626
748.1328, 852.6526
748.6149, 852.0004
749.0970, 852.0820
749.5792, 852.5489
750.0613, 853.7215
750.5434, 854.8597
751.0255, 855.4100
751.5076, 855.2846
751.9897, 855.6613
752.4719, 856.6602
752.9540, 857.5164
753.4361, 857.0284
753.9182, 855.9852
754.4003, 856.2448
754.8824, 858.2255
755.3646, 859.9728
755.8467, 859.9048
756.3288, 859.1387
756.8109, 858.6870
757.2930, 858.7016
757.7751, 859.0976
758.2573, 860.1842
758.7394, 861.3445
759.2215, 861.9747
759.7036, 862.0153
760.1857, 862.0168
760.6678, 862.0616
761.1500, 861.9642
761.6321, 861.0025
762.1142, 859.7400
762.5963, 859.6629
763.0784, 861.4052
763.5605, 863.6117
764.0427, 866.1547
764.5248, 868.2759
765.0069, 869.0277
765.4890, 866.7873
765.9711, 864.9816
766.4532, 863.4666
766.9354, 862.7518
767.4175, 864.0817
767.8996, 868.0499
768.3817, 870.1306
768.8638, 869.0811
769.3459, 866.9662
769.8281, 867.2764
770.3102, 869.2620
770.7923, 870.6866
771.2744, 870.5048
771.7565, 869.9681
772.2386, 869.6300
772.7208, 869.5867
773.2029, 870.0067
773.6850, 871.6222
774.1671, 872.7960
774.6492, 873.0352
775.1313, 872.8203
775.6135, 873.3864
776.0956, 874.9449
776.5777, 875.5686
777.0598, 874.3694
777.5419, 872.5255
778.0240, 872.2156
778.5062, 873.0555
778.9883, 873.8478
779.4704, 873.6569
779.9525, 873.6511
780.4346, 875.0595
780.9167, 877.1890
781.3989, 878.3515
781.8810, 877.4924
782.3631, 876.4840
782.8452, 875.6077
783.3273, 874.8303
783.8094, 873.9188
784.2916, 872.8129
784.7737, 872.2288
785.2558, 872.4845
785.7379, 873.3375
786.2200, 874.8156
786.7021, 876.5969
787.1843, 877.5192
787.6664, 876.3474
788.1485, 874.8567
788.6306, 874.0660
789.1127, 873.7813
789.5948, 873.2010
790.0770, 871.3539
790.5591, 870.5226
791.0412, 871.4666
791.5233, 873.7220
792.0054, 875.9334
792.4875, 878.0892
792.9697, 879.4766
793.4518, 879.4220
793.9339, 878.6924
794.4160, 878.6993
794.8981, 879.1066
795.3802, 878.8047
795.8624, 875.8274
796.3445, 873.4459
796.8266, 873.6619
797.3087, 875.9877
797.7908, 877.6663
798.2729, 878.4924
798.7551, 878.9611
799.2372, 879.2023
799.7193, 879.2294
800.2014, 878.9197
800.6835, 878.3221
801.1656, 878.0201
801.6478, 878.3671
802.1299, 879.1298
802.6120, 880.2198
803.0941, 881.5133
803.5762, 882.6416
804.0583, 883.5800
804.5405, 884.1671
805.0226, 883.8303
805.5047, 882.9967
805.9868, 883.6250
806.4689, 886.4274
806.9510, 888.3979
807.4332, 888.2882
807.9153, 886.7958
808.3974, 885.4274
808.8795, 884.3220
809.3616, 884.2593
809.8438, 887.2592
810.3259, 890.1212
810.8080, 889.5568
811.2901, 886.6062
811.7722, 884.6910
812.2543, 885.5450
812.7365, 886.6403
813.2186, 887.6479
813.7007, 888.3854
814.1828, 887.8723
814.6649, 885.8519
815.1470, 884.6137
815.6292, 885.4966
816.1113, 887.1265
816.5934, 886.6628
817.0755, 884.6770
817.5576, 883.0988
818.0397, 883.0431
818.5219, 883.4512
819.0040, 883.7800
819.4861, 884.1498
819.9682, 884.9958
820.4503, 886.6316
820.9324, 888.3079
821.4146, 890.0988
821.8967, 891.6494
822.3788, 891.8082
822.8609, 890.6512
823.3430, 889.3040
823.8251, 888.2582
824.3073, 887.1148
824.7894, 884.6299
825.2715, 881.7401
825.7536, 880.3671
826.2357, 883.2885
826.7178, 885.4850
827.2000, 884.5197
827.6821, 882.1388
828.1642, 881.6953
828.6463, 883.8336
829.1284, 885.6035
829.6105, 886.3754
830.0927, 886.5710
830.5748, 887.1595
831.0569, 887.8708
831.5390, 887.6453
832.0211, 885.2200
832.5032, 883.2628
832.9854, 884.2977
833.4675, 886.8428
833.9496, 888.6374
834.4317, 888.3741
834.9138, 888.5254
835.3959, 889.4355
835.8781, 890.6330
836.3602, 891.5959
836.8423, 892.3053
837.3244, 892.0012
837.8065, 890.2617
838.2886, 888.3927
838.7708, 887.8806
839.2529, 888.2906
839.7350, 888.9700
840.2171, 890.0220
840.6992, 890.7333
841.1813, 890.7074
841.6635, 890.3123
842.1456, 889.9265
842.6277, 889.5409
843.1098, 889.1197
843.5919, 888.5242
844.0740, 888.2782
844.5562, 889.6046
845.0383, 891.7949
845.5204, 892.5526
846.0025, 891.3829
846.4846, 889.8651
846.9667, 889.0237
847.4489, 888.4459
847.9310, 887.6698
848.4131, 886.2455
848.8952, 885.7651
849.3773, 886.6769
849.8594, 887.9266
850.3416, 888.7359
850.8237, 889.1135
851.3058, 889.4070
851.7879, 889.6055
852.2700, 890.0740
852.7521, 891.7620
853.2343, 893.5390
853.7164, 893.7999
854.1985, 892.3255
854.6806, 891.2034
855.1627, 891.3591
855.6448, 891.8452
856.1270, 892.2305
856.6091, 892.5132
857.0912, 892.5970
857.5733, 892.4392
858.0554, 892.2753
858.5375, 891.9894
859.0197, 891.8791
859.5018, 892.9495
859.9839, 894.9686
860.4660, 896.5599
860.9481, 896.6878
861.4302, 896.4363
861.9124, 896.3449
862.3945, 896.4247
862.8766, 896.4101
863.3587, 896.1755
863.8408, 896.2155
864.3229, 896.9418
864.8051, 897.9158
865.2872, 897.5186
865.7693, 895.9947
866.2514, 894.7835
866.7335, 894.9055
867.2156, 895.3129
867.6978, 894.8951
868.1799, 894.1700
868.6620, 894.3238
869.1441, 896.7608
869.6262, 898.6359
870.1083, 899.6274
870.5905, 899.8302
871.0726, 899.2372
871.5547, 897.8679
872.0368, 896.6396
872.5189, 895.7209
873.0010, 895.1870
873.4832, 895.1252
873.9653, 895.5060
874.4474, 896.3759
874.9295, 898.7738
875.4116, 899.8641
875.8937, 897.4564
876.3759, 894.4487
876.8580, 893.7177
877.3401, 895.7598
877.8222, 897.2696
878.3043, 898.0047
878.7864, 898.2549
879.2686, 898.0167
879.7507, 897.6183
880.2328, 897.8785
880.7149, 899.0360
881.1970, 899.6042
881.6791, 897.5580
882.1613, 895.6903
882.6434, 896.4062
883.1255, 900.3075
883.6076, 902.0811
884.0897, 901.1973
884.5718, 899.9385
885.0540, 900.0514
885.5361, 900.9826
886.0182, 900.7448
886.5003, 899.4877
886.9824, 898.5411
887.4645, 898.6517
887.9467, 899.3606
888.4288, 900.7371
888.9109, 902.6122
889.3930, 903.6539
889.8751, 903.3875
890.3572, 903.1977
890.8394, 903.5310
891.3215, 904.2208
891.8036, 905.0773
892.2857, 905.9623
892.7678, 906.1136
893.2499, 904.5031
893.7321, 902.8920
894.2142, 902.8002
894.6963, 903.6113
895.1784, 904.1381
895.6605, 904.0023
896.1426, 903.8205
896.6248, 903.6113
897.1069, 903.4291
897.5890, 903.2457
898.0711, 903.1018
898.5532, 903.5016
899.0353, 904.6302
899.5175, 905.8360
899.9996, 906.6074
900.4817, 907.0588
900.9638, 907.2815
901.4459, 907.1700
901.9280, 907.1715
902.4102, 907.1780
902.8923, 907.4661
903.3744, 908.4035
903.8565, 910.0172
904.3386, 910.9698
904.8207, 911.2372
905.3029, 911.1169
905.7850, 910.3778
906.2671, 909.6734
906.7492, 909.8850
907.2313, 910.9823
907.7134, 911.8955
908.1956, 912.2415
908.6777, 912.4086
909.1598, 912.3857
909.6419, 912.2959
910.1240, 912.9285
910.6061, 914.3041
911.0883, 915.3220
911.5704, 915.4717
912.0525, 915.0557
912.5346, 914.1492
913.0167, 913.0089
913.4988, 912.1928
913.9810, 912.0820
914.4631, 912.0963
914.9452, 912.2513
915.4273, 912.3792
915.9094, 911.9180
916.3915, 910.7161
916.8737, 911.3263
917.3558, 914.4579
917.8379, 917.8359
918.3200, 918.5847
918.8021, 918.0225
919.2842, 918.1779
919.7664, 919.6697
920.2485, 920.7335
920.7306, 920.5524
921.2127, 919.9813
921.6948, 919.4725
922.1769, 919.0137
922.6591, 918.6814
923.1412, 918.4749
923.6233, 918.3416
924.1054, 917.7512
924.5875, 917.4901
925.0696, 919.6225
925.5518, 923.4932
926.0339, 925.4365
926.5160, 921.3657
926.9981, 918.1024
927.4802, 918.5040
927.9623, 921.2159
928.4445, 921.9501
928.9266, 920.5409
929.4087, 919.1916
929.8908, 918.4765
930.3729, 918.2643
930.8550, 918.5617
931.3372, 919.1836
931.8193, 919.8040
932.3014, 920.4263
932.7835, 920.8815
933.2656, 921.0790
933.7477, 921.1486
934.2299, 921.0842
934.7120, 920.8118
935.1941, 921.4792
935.6762, 923.2941
936.1583, 924.7574
936.6404, 923.5703
937.1226, 921.6536
937.6047, 921.9755
938.0868, 924.7869
938.5689, 926.7039
939.0510, 925.4494
939.5331, 924.3412
940.0153, 924.9354
940.4974, 926.8212
940.9795, 926.8322
941.4616, 924.9186
941.9437, 923.8709
942.4258, 925.7799
942.9080, 928.2973
943.3901, 928.3782
943.8722, 926.9238
944.3543, 925.8596
944.8364, 926.4598
945.3185, 926.5750
945.8007, 925.3845
946.2828, 924.0904
946.7649, 924.6223
947.2470, 926.9198
947.7291, 928.3632
948.2112, 928.5834
948.6934, 928.1367
949.1755, 926.6581
949.6576, 925.3043
950.1397, 925.6658
950.6218, 928.3836
951.1039, 929.9316
951.5861, 929.0037
952.0682, 928.1113
952.5503, 928.6974
953.0324, 930.4349
953.5145, 930.8948
953.9966, 930.1793
954.4788, 929.5377
954.9609, 929.6370
955.4430, 930.1396
955.9251, 931.1521
956.4072, 932.3523
956.8893, 932.8458
957.3715, 929.6763
957.8536, 932.6274
958.3357, 934.3749
958.8178, 934.9834
959.2999, 931.0416
959.7820, 932.9755
960.2642, 932.5548
960.7463, 932.0374
961.2284, 934.7985
961.7105, 931.5184
962.1926, 934.2274
962.6747, 934.5457
963.1569, 935.9583
963.6390, 935.0014
964.1211, 934.7764
964.6032, 936.9214
965.0853, 937.7541
965.5674, 936.5245
966.0496, 938.0066
966.5317, 934.6438
967.0138, 935.5324
967.4959, 938.2553
967.9780, 937.1448
968.4601, 938.6702
968.9423, 939.1917
969.4244, 935.1511
969.9065, 939.0444
970.3886, 939.5066
970.8707, 936.9102
971.3528, 935.8104
971.8350, 934.7783
972.3171, 934.1850
972.7992, 934.8381
973.2813, 937.1484
973.7634, 939.4666
974.2455, 941.3154
974.7277, 942.8492
975.2098, 944.2731
975.6919, 945.5955
976.1740, 945.4968
976.6561, 943.8862
977.1382, 942.7642
977.6204, 943.9410
978.1025, 945.8664
978.5846, 946.4683
979.0667, 946.2383
979.5488, 946.6873
980.0309, 948.9131
980.5131, 951.0468
980.9952, 952.9799
981.4773, 954.4755
981.9594, 955.0427
982.4415, 954.7517
982.9236, 954.0930
983.4058, 953.0691
983.8879, 952.2537
984.3700, 951.9543
984.8521, 952.2122
985.3342, 953.3597
985.8163, 955.8388
986.2985, 956.7989
986.7806, 955.5529
987.2627, 954.3453
987.7448, 954.4105
988.2269, 955.3866
988.7090, 956.4282
989.1912, 957.4414
989.6733, 957.9886
990.1554, 957.5032
990.6375, 956.9076
991.1196, 955.9443
991.6017, 955.4504
992.0839, 957.2380
992.5660, 962.3411
993.0481, 964.6451
993.5302, 962.8273
994.0123, 960.6562
994.4944, 963.2667
994.9766, 967.9503
995.4587, 970.3749
995.9408, 969.8071
996.4229, 969.4241
996.9050, 970.1370
997.3871, 971.3907
997.8693, 972.9707
998.3514, 974.8826
998.8335, 977.4006
999.3156, 980.4500
999.7977, 982.7637
1000.280, 983.4011
1000.762, 983.5764
1001.244, 984.0996
1001.726, 985.0477
1002.208, 986.5663
1002.690, 989.3323
1003.173, 991.4490
1003.655, 992.3437
1004.137, 993.6264
1004.619, 997.1285
1005.101, 1002.396
1005.583, 1007.808
1006.065, 1013.293
1006.547, 1018.606
1007.029, 1023.306
1007.512, 1028.116
1007.994, 1033.399
1008.476, 1039.150
1008.958, 1045.240
1009.440, 1051.665
1009.922, 1058.427
1010.404, 1065.702
1010.886, 1072.899
1011.369, 1078.855
1011.851, 1084.349
1012.333, 1090.745
1012.815, 1098.821
1013.297, 1107.084
1013.779, 1115.593
1014.261, 1123.973
1014.743, 1131.824
1015.225, 1139.267
1015.708, 1147.719
1016.190, 1157.048
1016.672, 1164.985
1017.154, 1169.186
1017.636, 1172.136
1018.118, 1176.437
1018.600, 1180.892
1019.082, 1181.525
1019.565, 1176.931
1020.047, 1171.980
1020.529, 1167.592
1021.011, 1162.613
1021.493, 1155.300
1021.975, 1146.160
1022.457, 1136.060
1022.939, 1125.042
1023.421, 1113.991
1023.904, 1102.272
1024.386, 1091.706
1024.868, 1083.208
1025.350, 1076.571
1025.832, 1069.813
1026.314, 1062.950
1026.796, 1056.546
1027.278, 1051.012
1027.760, 1045.865
1028.243, 1040.434
1028.725, 1035.107
1029.207, 1030.567
1029.689, 1026.947
1030.171, 1024.246
1030.653, 1022.716
1031.135, 1021.528
1031.617, 1019.725
1032.100, 1017.643
1032.582, 1016.217
1033.064, 1015.459
1033.546, 1014.931
1034.028, 1015.223
1034.510, 1014.789
1034.992, 1012.269
1035.474, 1008.569
1035.957, 1006.408
1036.439, 1005.837
1036.921, 1005.548
1037.403, 1005.388
1037.885, 1004.848
1038.367, 1002.558
1038.849, 999.9469
1039.331, 999.0601
1039.813, 1000.837
1040.296, 1001.664
1040.778, 1000.908
1041.260, 1000.037
1041.742, 999.9529
1042.224, 1000.329
1042.706, 999.7169
1043.188, 998.4979
1043.670, 998.1576
1044.152, 1000.701
1044.635, 1002.757
1045.117, 1002.279
1045.599, 1000.874
1046.081, 1000.608
1046.563, 1001.634
1047.045, 1002.539
1047.527, 1003.204
1048.009, 1004.190
1048.492, 1006.954
1048.974, 1009.639
1049.456, 1009.686
1049.938, 1007.302
1050.420, 1006.411
1050.902, 1007.985
1051.384, 1009.936
1051.866, 1011.867
1052.349, 1013.757
1052.831, 1015.404
1053.313, 1016.977
1053.795, 1019.142
1054.277, 1022.344
1054.759, 1024.808
1055.241, 1024.447
1055.723, 1024.179
1056.205, 1026.036
1056.688, 1029.944
1057.170, 1033.346
1057.652, 1036.250
1058.134, 1038.522
1058.616, 1039.598
1059.098, 1040.598
1059.580, 1042.379
1060.062, 1044.883
1060.544, 1048.048
1061.027, 1052.248
1061.509, 1056.389
1061.991, 1060.491
1062.473, 1064.324
1062.955, 1067.754
1063.437, 1070.698
1063.919, 1072.162
1064.401, 1072.480
1064.884, 1074.856
1065.366, 1082.814
1065.848, 1090.512
1066.330, 1095.892
1066.812, 1099.943
1067.294, 1104.525
1067.776, 1109.631
1068.258, 1115.630
1068.740, 1122.613
1069.223, 1130.222
1069.705, 1138.408
1070.187, 1146.992
1070.669, 1155.873
1071.151, 1165.072
1071.633, 1174.846
1072.115, 1185.270
1072.597, 1196.359
1073.079, 1208.425
1073.562, 1220.729
1074.044, 1231.831
1074.526, 1242.508
1075.008, 1254.527
1075.490, 1269.641
1075.972, 1283.723
1076.454, 1296.326
1076.936, 1308.024
1077.419, 1320.255
1077.901, 1332.125
1078.383, 1339.281
1078.865, 1342.108
1079.347, 1343.223
1079.829, 1345.777
1080.311, 1345.062
1080.793, 1337.748
1081.275, 1326.226
1081.758, 1313.576
1082.240, 1299.641
1082.722, 1285.836
1083.204, 1272.467
1083.686, 1257.383
1084.168, 1236.321
1084.650, 1213.994
1085.132, 1194.523
1085.615, 1178.281
1086.097, 1163.197
1086.579, 1149.586
1087.061, 1135.767
1087.543, 1121.003
1088.025, 1106.788
1088.507, 1096.388
1088.989, 1088.348
1089.471, 1079.905
1089.953, 1069.978
1090.436, 1061.460
1090.918, 1054.979
1091.400, 1049.997
1091.882, 1046.588
1092.364, 1044.352
1092.846, 1041.503
1093.328, 1038.176
1093.810, 1034.954
1094.293, 1032.218
1094.775, 1029.470
1095.257, 1026.025
1095.739, 1022.720
1096.221, 1020.500
1096.703, 1019.481
1097.185, 1018.463
1097.667, 1017.413
1098.150, 1016.518
1098.632, 1016.186
1099.114, 1015.839
1099.596, 1014.565
1100.078, 1012.851
1100.560, 1012.476
1101.042, 1014.470
1101.524, 1014.791
1102.006, 1012.642
1102.489, 1009.654
1102.971, 1007.026
1103.453, 1005.048
1103.935, 1004.675
1104.417, 1005.902
1104.899, 1006.158
1105.381, 1004.222
1105.863, 1002.081
1106.345, 999.9603
1106.828, 998.3099
1107.310, 998.8546
1107.792, 1000.704
1108.274, 1000.986
1108.756, 998.7670
1109.238, 996.2472
1109.720, 993.4397
1110.202, 991.7797
1110.685, 992.4534
1111.167, 995.0336
1111.649, 996.4720
1112.131, 996.7922
1112.613, 996.1215
1113.095, 993.6198
1113.577, 991.7051
1114.059, 992.7773
1114.542, 995.0439
1115.024, 996.4679
1115.506, 997.0177
1115.988, 996.3002
1116.470, 994.1331
1116.952, 992.5079
1117.434, 993.2846
1117.916, 994.8804
1118.398, 995.9880
1118.880, 996.5080
1119.363, 996.1183
1119.845, 993.7484
1120.327, 992.9100
1120.809, 994.2278
1121.291, 995.8506
1121.773, 995.9947
1122.255, 995.1439
1122.737, 993.7232
1123.220, 991.9629
1123.702, 991.0264
1124.184, 992.1425
1124.666, 992.9753
1125.148, 992.9036
1125.630, 992.6871
1126.112, 993.7733
1126.594, 995.7175
1127.077, 997.1588
1127.559, 997.9072
1128.041, 998.4151
1128.523, 999.3093
1129.005, 999.5114
1129.487, 998.2643
1129.969, 996.1852
1130.451, 995.2665
1130.933, 995.3470
1131.416, 995.1243
1131.898, 994.0252
1132.380, 993.4593
1132.862, 994.6212
1133.344, 996.5029
1133.826, 998.5823
1134.308, 1000.751
1134.790, 1001.380
1135.272, 1000.418
1135.755, 1000.002
1136.237, 1001.400
1136.719, 1002.995
1137.201, 1003.539
1137.683, 1003.250
1138.165, 1002.201
1138.647, 1000.134
1139.129, 998.8252
1139.612, 998.3544
1140.094, 998.1886
1140.576, 998.0160
1141.058, 997.9584
1141.540, 998.3730
1142.022, 998.9875
1142.504, 999.1930
1142.986, 998.2171
1143.469, 998.1941
1143.951, 999.4082
1144.433, 1000.860
1144.915, 1001.787
1145.397, 1002.324
1145.879, 1002.833
1146.361, 1003.211
1146.843, 1003.007
1147.325, 1000.983
1147.807, 999.9874
1148.290, 1000.529
1148.772, 1001.883
1149.254, 1003.539
1149.736, 1005.222
1150.218, 1006.383
1150.700, 1006.962
1151.182, 1006.775
1151.664, 1004.380
1152.147, 1003.017
1152.629, 1004.023
1153.111, 1006.001
1153.593, 1006.262
1154.075, 1005.202
1154.557, 1004.477
1155.039, 1004.360
1155.521, 1004.162
1156.004, 1002.881
1156.486, 1002.204
1156.968, 1003.427
1157.450, 1005.551
1157.932, 1004.997
1158.414, 1002.225
1158.896, 1000.509
1159.378, 1000.753
1159.860, 1001.696
1160.343, 1003.809
1160.825, 1005.086
1161.307, 1003.478
1161.789, 999.6477
1162.271, 999.1603
1162.753, 1001.850
1163.235, 1003.844
1163.717, 1003.445
1164.199, 1002.717
1164.682, 1003.463
1165.164, 1004.594
1165.646, 1004.994
1166.128, 1004.599
1166.610, 1004.093
1167.092, 1003.444
1167.574, 1003.523
1168.056, 1005.411
1168.539, 1007.235
1169.021, 1007.485
1169.503, 1006.548
1169.985, 1004.644
1170.467, 1001.264
1170.949, 999.9143
1171.431, 1000.797
1171.913, 1002.141
1172.396, 1002.838
1172.878, 1003.421
1173.360, 1004.587
1173.842, 1006.018
1174.324, 1007.195
1174.806, 1008.627
1175.288, 1007.841
1175.770, 1004.261
1176.252, 1001.171
1176.734, 1001.840
1177.217, 1003.930
1177.699, 1004.358
1178.181, 1003.786
1178.663, 1004.472
1179.145, 1008.028
1179.627, 1009.348
1180.109, 1007.635
1180.591, 1005.407
1181.074, 1005.137
1181.556, 1005.836
1182.038, 1006.408
1182.520, 1006.740
1183.002, 1006.542
1183.484, 1005.293
1183.966, 1004.683
1184.448, 1005.036
1184.931, 1005.763
1185.413, 1006.443
1185.895, 1006.928
1186.377, 1006.871
1186.859, 1006.314
1187.341, 1005.732
1187.823, 1004.493
1188.305, 1004.848
1188.787, 1007.800
1189.270, 1011.022
1189.752, 1010.800
1190.234, 1008.825
1190.716, 1007.923
1191.198, 1008.380
1191.680, 1009.246
1192.162, 1011.009
1192.644, 1011.836
1193.126, 1011.104
1193.609, 1009.638
1194.091, 1008.443
1194.573, 1007.616
1195.055, 1007.381
1195.537, 1007.788
1196.019, 1008.563
1196.501, 1010.060
1196.983, 1011.132
1197.466, 1011.302
1197.948, 1011.069
1198.430, 1011.244
1198.912, 1011.724
1199.394, 1012.428
1199.876, 1013.405
1200.358, 1013.890
1200.840, 1013.534
1201.323, 1012.995
1201.805, 1012.452
1202.287, 1011.950
1202.769, 1011.295
1203.251, 1010.843
1203.733, 1011.610
1204.215, 1014.328
1204.697, 1015.928
1205.179, 1015.448
1205.661, 1014.818
1206.144, 1014.975
1206.626, 1015.445
1207.108, 1014.926
1207.590, 1013.917
1208.072, 1013.662
1208.554, 1015.047
1209.036, 1015.095
1209.518, 1012.294
1210.001, 1010.337
1210.483, 1011.598
1210.965, 1014.464
1211.447, 1014.854
1211.929, 1013.801
1212.411, 1013.709
1212.893, 1015.929
1213.375, 1017.239
1213.858, 1016.969
1214.340, 1013.990
1214.822, 1016.888
1215.304, 1018.583
1215.786, 1019.139
1216.268, 1015.144
1216.750, 1017.025
1217.232, 1016.551
1217.714, 1015.981
1218.197, 1018.690
1218.679, 1015.357
1219.161, 1018.013
1219.643, 1018.278
1220.125, 1019.638
1220.607, 1018.628
1221.089, 1018.350
1221.571, 1020.443
1222.053, 1021.222
1222.536, 1019.940
1223.018, 1021.370
1223.500, 1017.954
1223.982, 1018.790
1224.464, 1021.460
1224.946, 1020.296
1225.428, 1021.769
1225.910, 1022.237
1226.393, 1018.144
1226.875, 1021.985
1227.357, 1022.394
1227.839, 1019.280
1228.321, 1022.849
1228.803, 1020.221
1229.285, 1019.805
1229.767, 1021.053
1230.250, 1020.566
1230.732, 1022.815
1231.214, 1022.429
1231.696, 1021.806
1232.178, 1022.212
1232.660, 1019.705
1233.142, 1022.601
1233.624, 1021.807
1234.106, 1022.847
1234.589, 1024.303
1235.071, 1022.575
1235.553, 1024.217
1236.035, 1020.633
1236.517, 1021.422
1236.999, 1021.740
1237.481, 1024.854
1237.963, 1021.295
1238.445, 1021.963
1238.928, 1024.430
1239.410, 1024.380
1239.892, 1025.381
1240.374, 1023.267
1240.856, 1024.080
1241.338, 1024.086
1241.820, 1026.881
1242.302, 1027.474
1242.785, 1025.570
1243.267, 1024.003
1243.749, 1023.934
1244.231, 1025.575
1244.713, 1026.988
1245.195, 1026.147
1245.677, 1025.183
1246.159, 1026.284
1246.641, 1028.100
1247.124, 1027.849
1247.606, 1025.178
1248.088, 1024.875
1248.570, 1027.105
1249.052, 1029.366
1249.534, 1029.885
1250.016, 1030.044
1250.498, 1031.003
1250.980, 1031.870
1251.463, 1031.193
1251.945, 1029.006
1252.427, 1027.884
1252.909, 1027.857
1253.391, 1028.035
1253.873, 1027.885
1254.355, 1027.828
1254.837, 1028.004
1255.320, 1028.417
1255.802, 1029.406
1256.284, 1030.733
1256.766, 1030.247
1257.248, 1028.254
1257.730, 1027.454
1258.212, 1030.669
1258.694, 1033.318
1259.177, 1033.878
1259.659, 1033.882
1260.141, 1035.656
1260.623, 1038.085
1261.105, 1036.205
1261.587, 1031.034
1262.069, 1028.050
1262.551, 1032.007
1263.033, 1034.688
1263.516, 1034.818
1263.998, 1033.968
1264.480, 1033.426
1264.962, 1033.128
1265.444, 1033.055
1265.926, 1033.119
1266.408, 1033.033
1266.890, 1032.499
1267.372, 1032.218
1267.855, 1032.211
1268.337, 1032.564
1268.819, 1033.484
1269.301, 1034.729
1269.783, 1036.164
1270.265, 1037.618
1270.747, 1038.691
1271.229, 1039.582
1271.712, 1039.135
1272.194, 1037.060
1272.676, 1035.404
1273.158, 1036.248
1273.640, 1037.751
1274.122, 1038.293
1274.604, 1038.187
1275.086, 1038.071
1275.568, 1037.892
1276.051, 1038.251
1276.533, 1039.170
1277.015, 1039.780
1277.497, 1038.716
1277.979, 1038.068
1278.461, 1040.093
1278.943, 1042.647
1279.425, 1042.810
1279.907, 1040.656
1280.390, 1040.032
1280.872, 1040.859
1281.354, 1041.899
1281.836, 1043.027
1282.318, 1043.515
1282.800, 1042.554
1283.282, 1041.459
1283.764, 1041.390
1284.247, 1042.154
1284.729, 1043.105
1285.211, 1044.066
1285.693, 1044.406
1286.175, 1042.564
1286.657, 1042.208
1287.139, 1044.387
1287.621, 1046.611
1288.104, 1046.884
1288.586, 1045.906
1289.068, 1044.522
1289.550, 1043.209
1290.032, 1043.108
1290.514, 1045.995
1290.996, 1047.086
1291.478, 1046.009
1291.960, 1044.730
1292.443, 1044.869
1292.925, 1045.100
1293.407, 1042.731
1293.889, 1039.748
1294.371, 1039.991
1294.853, 1044.527
1295.335, 1046.168
1295.817, 1044.833
1296.299, 1043.959
1296.782, 1045.803
1297.264, 1047.916
1297.746, 1048.849
1298.228, 1048.752
1298.710, 1047.583
1299.192, 1045.552
1299.674, 1045.615
1300.156, 1047.438
1300.639, 1048.721
1301.121, 1048.219
1301.603, 1047.874
1302.085, 1049.050
1302.567, 1050.484
1303.049, 1051.650
1303.531, 1052.358
##END=



