##NAMES=Metazeunerite
##RRUFFID=R050524
##IDEAL CHEMISTRY=Cu^2+^(U^6+^O_2_)_2_(As^5+^O_4_)_2_&#183;8H_2_O
##LOCALITY=Majuba Hill mine, Pershing County, Nevada
##OWNER=RRUFF
##SOURCE=University of Arizona Mineral Museum
##DESCRIPTION=Green tabular crystal, cell parameters indicate a disordered structure
##STATUS=The identification of this mineral has been confirmed only by single crystal X-ray diffraction.
##URL=rruff.info/R050524
92.37695, 183.9405
92.85907, 185.1915
93.34119, 185.1671
93.82330, 182.1219
94.30542, 178.1323
94.78754, 174.8396
95.26965, 172.3212
95.75177, 169.0214
96.23389, 164.1633
96.71600, 158.6545
97.19812, 153.3418
97.68024, 148.3080
98.16235, 143.6443
98.64447, 139.5186
99.12659, 136.0548
99.60870, 132.4190
100.0908, 129.0897
100.5729, 125.7276
101.0551, 121.7879
101.5372, 116.8475
102.0193, 111.2561
102.5014, 107.0611
102.9835, 105.4607
103.4656, 104.0681
103.9478, 102.7566
104.4299, 101.3539
104.9120, 99.63436
105.3941, 97.37753
105.8762, 94.47469
106.3583, 91.97989
106.8405, 90.14231
107.3226, 88.38420
107.8047, 86.35512
108.2868, 84.03242
108.7689, 81.63863
109.2510, 79.41215
109.7332, 77.35359
110.2153, 75.42489
110.6974, 73.56998
111.1795, 71.85500
111.6616, 70.37586
112.1437, 69.18301
112.6259, 68.21080
113.1080, 67.37402
113.5901, 66.66651
114.0722, 66.07867
114.5543, 65.63649
115.0364, 65.33335
115.5185, 65.08332
116.0007, 64.95048
116.4828, 64.80431
116.9649, 64.58426
117.4470, 64.27854
117.9291, 63.87120
118.4112, 63.27688
118.8934, 62.30789
119.3755, 61.63192
119.8576, 61.44054
120.3397, 61.45141
120.8218, 61.50869
121.3039, 61.54360
121.7861, 61.50129
122.2682, 61.21954
122.7503, 60.25043
123.2324, 59.51670
123.7145, 59.36375
124.1966, 59.44089
124.6788, 59.19359
125.1609, 58.25271
125.6430, 56.74073
126.1251, 55.73938
126.6072, 55.56124
127.0893, 55.44191
127.5715, 55.01093
128.0536, 54.32524
128.5357, 53.73211
129.0178, 53.51456
129.4999, 53.62824
129.9821, 53.66015
130.4642, 53.59019
130.9463, 53.43489
131.4284, 53.21025
131.9105, 52.91706
132.3926, 52.55247
132.8748, 51.98611
133.3569, 51.34004
133.8390, 50.87115
134.3211, 50.81202
134.8032, 51.03387
135.2853, 51.08178
135.7674, 50.85446
136.2496, 50.57311
136.7317, 50.31521
137.2138, 50.09380
137.6959, 49.93956
138.1780, 49.96976
138.6601, 50.23865
139.1423, 50.11379
139.6244, 49.05446
140.1065, 48.03640
140.5886, 47.43052
141.0707, 47.24670
141.5528, 47.27865
142.0350, 47.33210
142.5171, 47.56749
142.9992, 47.34764
143.4813, 46.29125
143.9634, 45.13108
144.4455, 44.33023
144.9277, 44.01062
145.4098, 43.99014
145.8919, 43.99052
146.3740, 44.05805
146.8561, 44.05373
147.3382, 43.95429
147.8204, 43.78559
148.3025, 43.56091
148.7846, 43.27385
149.2667, 42.97213
149.7488, 42.75076
150.2309, 42.59675
150.7131, 42.50924
151.1952, 42.56057
151.6773, 42.69414
152.1594, 42.71939
152.6415, 42.52223
153.1236, 42.21638
153.6058, 41.96839
154.0879, 41.76368
154.5700, 41.66413
155.0521, 41.78498
155.5342, 42.13861
156.0163, 42.42145
156.4985, 42.41636
156.9806, 42.33866
157.4627, 42.36147
157.9448, 42.53285
158.4269, 42.77901
158.9090, 43.00783
159.3912, 43.23908
159.8733, 43.39278
160.3554, 43.33171
160.8375, 43.24785
161.3196, 43.31758
161.8017, 43.62153
162.2839, 44.09994
162.7660, 44.56979
163.2481, 44.97137
163.7302, 45.45494
164.2123, 46.03189
164.6944, 46.69975
165.1766, 47.47848
165.6587, 48.39408
166.1408, 49.40328
166.6229, 50.23859
167.1050, 50.73017
167.5871, 51.23534
168.0693, 51.88420
168.5514, 52.60195
169.0335, 53.23142
169.5156, 53.65843
169.9977, 53.90021
170.4798, 54.20007
170.9620, 54.56435
171.4441, 54.96581
171.9262, 55.42274
172.4083, 55.91771
172.8904, 56.37585
173.3725, 56.70609
173.8547, 56.94098
174.3368, 57.34407
174.8189, 58.04918
175.3010, 58.83086
175.7831, 59.46093
176.2652, 59.92544
176.7474, 60.47826
177.2295, 61.41138
177.7116, 62.58057
178.1937, 63.60682
178.6758, 64.31799
179.1579, 64.87751
179.6401, 65.53674
180.1222, 66.32219
180.6043, 67.12280
181.0864, 67.77005
181.5685, 68.38756
182.0506, 69.20435
182.5328, 70.49097
183.0149, 72.03398
183.4970, 73.15498
183.9791, 73.65147
184.4612, 73.99265
184.9433, 74.52156
185.4255, 75.06153
185.9076, 75.31664
186.3897, 75.11244
186.8718, 74.45385
187.3539, 73.41077
187.8360, 71.80632
188.3182, 69.94138
188.8003, 67.82189
189.2824, 65.51461
189.7645, 63.10351
190.2466, 60.63536
190.7287, 58.08880
191.2109, 55.78043
191.6930, 53.57875
192.1751, 51.71788
192.6572, 50.38579
193.1393, 49.49467
193.6214, 48.81944
194.1036, 48.18520
194.5857, 47.59556
195.0678, 46.99749
195.5499, 46.27604
196.0320, 45.64625
196.5141, 45.21770
196.9963, 44.98315
197.4784, 44.86917
197.9605, 44.82153
198.4426, 44.85171
198.9247, 44.87328
199.4068, 44.83624
199.8890, 44.82808
200.3711, 44.93013
200.8532, 45.14074
201.3353, 45.36313
201.8174, 45.50631
202.2995, 45.56367
202.7817, 45.63962
203.2638, 45.71239
203.7459, 45.82000
204.2280, 46.04579
204.7101, 46.40786
205.1922, 46.71640
205.6744, 46.71615
206.1565, 46.48422
206.6386, 46.39639
207.1207, 46.70930
207.6028, 47.13744
208.0849, 47.22099
208.5671, 46.83092
209.0492, 46.46598
209.5313, 46.59899
210.0134, 47.05867
210.4955, 47.51533
210.9776, 47.88695
211.4598, 48.17041
211.9419, 48.33855
212.4240, 48.33458
212.9061, 48.33163
213.3882, 48.45389
213.8703, 48.64880
214.3525, 48.82743
214.8346, 48.99696
215.3167, 49.11455
215.7988, 48.99606
216.2809, 48.48882
216.7630, 47.96894
217.2451, 47.63211
217.7273, 47.39424
218.2094, 47.09814
218.6915, 46.61582
219.1736, 45.99541
219.6557, 45.54377
220.1378, 45.44095
220.6200, 45.29516
221.1021, 45.02437
221.5842, 44.63000
222.0663, 44.10536
222.5484, 43.42253
223.0305, 42.60760
223.5127, 41.91039
223.9948, 41.38206
224.4769, 40.94130
224.9590, 40.64405
225.4411, 40.41460
225.9232, 40.10786
226.4054, 39.59991
226.8875, 38.93317
227.3696, 38.58866
227.8517, 38.94107
228.3338, 39.23693
228.8159, 39.29365
229.2981, 39.18219
229.7802, 39.06675
230.2623, 39.06572
230.7444, 39.14975
231.2265, 38.97594
231.7086, 38.15892
232.1908, 37.52401
232.6729, 37.32750
233.1550, 37.46275
233.6371, 37.73812
234.1192, 38.06548
234.6013, 38.40987
235.0835, 38.48730
235.5656, 38.00379
236.0477, 37.62824
236.5298, 37.65070
237.0119, 37.93333
237.4940, 38.15971
237.9762, 38.14402
238.4583, 37.94608
238.9404, 37.85111
239.4225, 37.94703
239.9046, 38.02673
240.3867, 38.04653
240.8689, 37.99967
241.3510, 37.84077
241.8331, 37.50149
242.3152, 37.08751
242.7973, 36.92107
243.2794, 37.15522
243.7616, 37.35003
244.2437, 37.26600
244.7258, 36.98421
245.2079, 36.75257
245.6900, 36.68707
246.1721, 36.71435
246.6543, 36.68431
247.1364, 36.59245
247.6185, 36.46788
248.1006, 36.30893
248.5827, 36.12563
249.0648, 35.94810
249.5470, 35.77555
250.0291, 35.62752
250.5112, 35.52287
250.9933, 35.45906
251.4754, 35.43743
251.9576, 35.48406
252.4397, 35.58123
252.9218, 35.65432
253.4039, 35.68793
253.8860, 35.68197
254.3681, 35.63462
254.8503, 35.54602
255.3324, 35.45578
255.8145, 35.34866
256.2966, 35.24612
256.7787, 35.28585
257.2608, 35.62348
257.7430, 35.93227
258.2251, 35.88526
258.7072, 35.53720
259.1893, 35.25060
259.6714, 35.28090
260.1535, 35.58004
260.6357, 35.89910
261.1178, 36.29099
261.5999, 36.58934
262.0820, 36.67734
262.5641, 36.59857
263.0462, 36.48767
263.5284, 36.37735
264.0105, 36.28794
264.4926, 36.36219
264.9747, 36.74372
265.4568, 37.08413
265.9389, 37.17129
266.4211, 37.09947
266.9032, 37.06500
267.3853, 37.21447
267.8674, 37.49181
268.3495, 37.63987
268.8316, 37.54547
269.3138, 37.49167
269.7959, 37.60205
270.2780, 37.81022
270.7601, 38.02417
271.2422, 38.20535
271.7243, 38.34869
272.2065, 38.42687
272.6886, 38.39251
273.1707, 38.37056
273.6528, 38.38232
274.1349, 38.42739
274.6170, 38.52152
275.0992, 38.68060
275.5813, 38.85487
276.0634, 38.92554
276.5455, 38.89573
277.0276, 38.74042
277.5097, 38.28922
277.9919, 37.81787
278.4740, 37.62940
278.9561, 37.82870
279.4382, 38.19232
279.9203, 38.29607
280.4024, 38.02312
280.8846, 37.72287
281.3667, 37.44667
281.8488, 37.15432
282.3309, 36.75471
282.8130, 36.24883
283.2951, 35.80200
283.7773, 35.70350
284.2594, 36.17104
284.7415, 36.44569
285.2236, 36.49451
285.7057, 36.38851
286.1878, 36.06979
286.6700, 35.58822
287.1521, 35.14202
287.6342, 34.97895
288.1163, 35.18999
288.5984, 35.33628
289.0805, 35.43269
289.5627, 35.45823
290.0448, 35.33382
290.5269, 35.10903
291.0090, 34.93758
291.4911, 34.97496
291.9732, 35.24387
292.4554, 35.42865
292.9375, 35.43856
293.4196, 35.45650
293.9017, 35.53385
294.3838, 35.66645
294.8659, 35.83005
295.3481, 36.00595
295.8302, 36.19728
296.3123, 36.43697
296.7944, 36.75683
297.2765, 37.09541
297.7586, 37.43850
298.2408, 37.79346
298.7229, 38.15101
299.2050, 38.49918
299.6871, 38.87605
300.1692, 39.43037
300.6513, 40.32836
301.1335, 41.21605
301.6156, 42.11298
302.0977, 42.95852
302.5798, 43.69108
303.0619, 44.28411
303.5440, 44.76638
304.0262, 45.20333
304.5083, 45.57269
304.9904, 45.91906
305.4725, 46.28084
305.9546, 46.59921
306.4367, 46.77941
306.9189, 46.81957
307.4010, 46.85959
307.8831, 47.10734
308.3652, 47.67461
308.8473, 48.16384
309.3294, 48.48322
309.8116, 48.81348
310.2937, 49.26339
310.7758, 49.83714
311.2579, 50.47977
311.7400, 51.14536
312.2221, 51.85730
312.7043, 52.45359
313.1864, 52.78155
313.6685, 53.16255
314.1506, 53.78663
314.6327, 54.57746
315.1148, 55.33059
315.5970, 55.89018
316.0791, 56.27214
316.5612, 56.69100
317.0433, 57.31170
317.5254, 57.78899
318.0075, 58.12348
318.4897, 58.25092
318.9718, 58.06631
319.4539, 57.51067
319.9360, 56.65615
320.4181, 55.72845
320.9002, 55.01159
321.3824, 53.82765
321.8645, 51.86177
322.3466, 49.56367
322.8287, 47.30019
323.3108, 45.22424
323.7929, 43.31063
324.2751, 41.52545
324.7572, 39.76612
325.2393, 38.36862
325.7214, 37.43351
326.2035, 36.71946
326.6856, 36.10555
327.1678, 35.55078
327.6499, 35.02314
328.1320, 34.47863
328.6141, 33.89409
329.0962, 33.40966
329.5783, 33.04234
330.0605, 32.74234
330.5426, 32.51901
331.0247, 32.34817
331.5068, 32.18066
331.9889, 31.97482
332.4710, 31.73630
332.9532, 31.55893
333.4353, 31.55849
333.9174, 31.49344
334.3995, 31.24920
334.8816, 30.92861
335.3637, 30.68386
335.8459, 30.59468
336.3280, 30.60946
336.8101, 30.57382
337.2922, 30.40444
337.7743, 30.31200
338.2564, 30.39960
338.7386, 30.51545
339.2206, 30.49517
339.7028, 30.30513
340.1849, 30.07782
340.6670, 30.04177
341.1491, 30.35602
341.6312, 30.45857
342.1133, 30.13647
342.5955, 29.80775
343.0776, 29.70613
343.5597, 29.83045
344.0418, 30.04683
344.5239, 30.26039
345.0060, 30.48104
345.4882, 30.52472
345.9703, 30.12383
346.4524, 29.79943
346.9345, 29.73632
347.4166, 29.84685
347.8987, 29.96414
348.3809, 29.98977
348.8630, 29.93985
349.3451, 29.87501
349.8272, 29.76303
350.3093, 29.68744
350.7914, 29.62044
351.2736, 29.61184
351.7557, 29.76553
352.2378, 30.11396
352.7199, 30.47929
353.2020, 30.51813
353.6841, 30.07221
354.1663, 29.78351
354.6484, 29.86645
355.1305, 30.01120
355.6126, 30.01278
356.0947, 29.87293
356.5768, 29.76286
357.0590, 29.92543
357.5411, 30.38127
358.0232, 30.55217
358.5053, 30.17040
358.9874, 29.78595
359.4695, 29.63489
359.9517, 29.65425
360.4338, 29.70098
360.9159, 29.70139
361.3980, 29.66433
361.8801, 29.60630
362.3622, 29.49716
362.8444, 29.43647
363.3265, 29.46313
363.8086, 29.54944
364.2907, 29.69303
364.7728, 29.90750
365.2549, 30.10101
365.7371, 30.09928
366.2192, 29.86447
366.7013, 29.79110
367.1834, 30.14304
367.6655, 30.55060
368.1476, 30.74911
368.6298, 30.72966
369.1119, 30.61920
369.5940, 30.43146
370.0761, 30.20796
370.5582, 30.17879
371.0403, 30.46426
371.5225, 30.76209
372.0046, 30.83309
372.4867, 30.75964
372.9688, 30.72904
373.4509, 30.81611
373.9330, 30.98205
374.4152, 31.19768
374.8973, 31.47369
375.3794, 31.70050
375.8615, 31.80053
376.3436, 31.82391
376.8257, 31.83928
377.3079, 31.83456
377.7900, 31.86752
378.2721, 31.91782
378.7542, 32.02245
379.2363, 32.41787
379.7184, 33.35258
380.2006, 34.29750
380.6827, 34.48306
381.1648, 33.93483
381.6469, 33.43369
382.1290, 33.21292
382.6111, 33.18852
383.0933, 33.25747
383.5754, 33.40971
384.0575, 33.63368
384.5396, 33.94921
385.0217, 34.34221
385.5038, 34.69585
385.9860, 35.08212
386.4681, 35.35855
386.9502, 35.40405
387.4323, 35.25818
387.9144, 35.02920
388.3965, 34.72974
388.8787, 34.44165
389.3608, 34.41639
389.8429, 34.79500
390.3250, 35.08699
390.8071, 35.11892
391.2892, 35.04320
391.7714, 35.03758
392.2535, 35.14259
392.7356, 35.30635
393.2177, 35.48563
393.6998, 35.70545
394.1819, 35.78132
394.6641, 35.57385
395.1462, 35.36102
395.6283, 35.28383
396.1104, 35.33553
396.5925, 35.46886
397.0746, 35.66523
397.5568, 35.90131
398.0389, 36.05093
398.5210, 36.10044
399.0031, 36.07350
399.4852, 35.84765
399.9673, 35.60251
400.4495, 35.59129
400.9316, 35.87458
401.4137, 36.21558
401.8958, 36.25377
402.3779, 35.91890
402.8600, 35.45385
403.3422, 34.56820
403.8243, 33.82401
404.3064, 33.62951
404.7885, 33.85434
405.2706, 34.03400
405.7527, 33.77378
406.2349, 33.16047
406.7170, 32.93171
407.1991, 33.53331
407.6812, 33.88108
408.1633, 33.48853
408.6454, 32.83403
409.1276, 32.47678
409.6097, 32.62381
410.0918, 32.97642
410.5739, 33.08158
411.0560, 32.88288
411.5381, 32.73690
412.0203, 32.71687
412.5024, 32.75116
412.9845, 32.82868
413.4666, 32.93363
413.9487, 33.01394
414.4308, 33.01791
414.9130, 32.96620
415.3951, 32.92388
415.8772, 32.86636
416.3593, 32.87983
416.8414, 33.04829
417.3235, 33.30544
417.8057, 33.58897
418.2878, 33.93205
418.7699, 34.19930
419.2520, 34.16575
419.7341, 33.87548
420.2162, 33.77087
420.6984, 34.04314
421.1805, 34.48322
421.6626, 34.82424
422.1447, 35.06964
422.6268, 35.31722
423.1089, 35.55851
423.5911, 35.84091
424.0732, 36.25132
424.5553, 36.79802
425.0374, 37.38792
425.5195, 37.98162
426.0016, 38.55658
426.4838, 39.00888
426.9659, 39.37907
427.4480, 39.59045
427.9301, 39.38728
428.4122, 39.01562
428.8943, 39.04681
429.3765, 39.72313
429.8586, 40.70243
430.3407, 41.38815
430.8228, 41.60096
431.3049, 41.89437
431.7870, 42.32212
432.2692, 42.79307
432.7513, 43.26441
433.2334, 43.71871
433.7155, 44.13331
434.1976, 44.48101
434.6797, 44.76813
435.1619, 45.09800
435.6440, 45.50673
436.1261, 45.91915
436.6082, 46.27956
437.0903, 46.65459
437.5724, 47.16634
438.0546, 47.84562
438.5367, 48.54140
439.0188, 48.98806
439.5009, 49.07644
439.9830, 49.26643
440.4651, 49.63642
440.9473, 50.05290
441.4294, 50.54339
441.9115, 51.03793
442.3936, 51.34118
442.8757, 51.20059
443.3578, 50.84930
443.8400, 51.23891
444.3221, 52.88816
444.8042, 53.97699
445.2863, 53.33711
445.7684, 52.11614
446.2505, 51.33441
446.7327, 51.21117
447.2148, 51.27390
447.6969, 51.12332
448.1790, 50.80213
448.6611, 50.58394
449.1432, 50.61490
449.6254, 50.54740
450.1075, 49.93349
450.5896, 48.95265
451.0717, 48.15194
451.5538, 47.83083
452.0359, 47.64204
452.5181, 47.27009
453.0002, 46.72908
453.4823, 46.11669
453.9644, 45.43865
454.4465, 44.76126
454.9286, 44.25824
455.4108, 43.99176
455.8929, 43.67928
456.3750, 43.22942
456.8571, 42.71709
457.3392, 42.19388
457.8214, 41.67840
458.3035, 41.22017
458.7856, 40.87257
459.2677, 40.63678
459.7498, 40.34974
460.2319, 39.96802
460.7141, 39.59354
461.1962, 39.27655
461.6783, 38.97699
462.1604, 38.62412
462.6425, 38.19350
463.1246, 37.74948
463.6068, 37.41758
464.0889, 37.28680
464.5710, 37.03529
465.0531, 36.53777
465.5352, 36.04454
466.0173, 35.63791
466.4995, 35.33369
466.9816, 35.15571
467.4637, 35.16309
467.9458, 35.25650
468.4279, 35.07456
468.9100, 34.45818
469.3922, 33.97879
469.8743, 33.93255
470.3564, 34.01122
470.8385, 33.99473
471.3206, 33.84781
471.8027, 33.61419
472.2849, 33.24085
472.7670, 32.79470
473.2491, 32.56202
473.7312, 32.62079
474.2133, 32.74204
474.6954, 32.81995
475.1776, 32.83422
475.6597, 32.71893
476.1418, 32.40049
476.6239, 32.02794
477.1060, 31.66723
477.5881, 31.33372
478.0703, 31.04676
478.5524, 30.80000
479.0345, 30.66697
479.5166, 30.81211
479.9987, 31.34550
480.4808, 31.62899
480.9630, 31.41031
481.4451, 31.11378
481.9272, 30.99486
482.4093, 31.05347
482.8914, 31.24190
483.3735, 31.55808
483.8557, 31.90712
484.3378, 31.94710
484.8199, 31.43368
485.3020, 30.94019
485.7841, 30.43767
486.2662, 29.99653
486.7484, 29.63466
487.2305, 29.37613
487.7126, 29.29638
488.1947, 29.51988
488.6768, 30.01617
489.1589, 30.29200
489.6411, 30.25033
490.1232, 30.13114
490.6053, 29.96628
491.0874, 29.79705
491.5695, 29.68254
492.0516, 29.64337
492.5338, 29.60765
493.0159, 29.44612
493.4980, 29.18840
493.9801, 29.14024
494.4622, 29.45316
494.9443, 29.77787
495.4265, 29.81919
495.9086, 29.64519
496.3907, 29.41386
496.8728, 29.04004
497.3549, 28.73134
497.8370, 28.74136
498.3192, 28.98279
498.8013, 29.11728
499.2834, 28.99907
499.7655, 28.76535
500.2476, 28.63374
500.7297, 28.62771
501.2119, 28.64292
501.6940, 28.73397
502.1761, 28.79451
502.6582, 28.72852
503.1403, 28.56088
503.6224, 28.38178
504.1045, 28.24445
504.5866, 28.14525
505.0688, 28.06928
505.5509, 28.00395
506.0330, 27.98602
506.5151, 28.13505
506.9972, 28.24114
507.4793, 28.07560
507.9615, 27.67846
508.4436, 27.33116
508.9257, 27.28137
509.4078, 27.48486
509.8899, 27.68889
510.3720, 27.93430
510.8542, 28.09044
511.3363, 28.06553
511.8184, 27.95162
512.3005, 27.80715
512.7827, 27.63403
513.2648, 27.52546
513.7469, 27.60000
514.2290, 27.79333
514.7111, 27.91981
515.1932, 27.95305
515.6754, 27.93675
516.1575, 27.91523
516.6396, 27.86886
517.1217, 27.72694
517.6038, 27.36860
518.0859, 27.05219
518.5681, 26.93250
519.0502, 26.92243
519.5323, 26.86514
520.0144, 26.71715
520.4965, 26.56573
520.9786, 26.52819
521.4608, 26.63979
521.9429, 26.64767
522.4250, 26.41600
522.9071, 26.24500
523.3892, 26.32977
523.8713, 26.51949
524.3535, 26.55618
524.8356, 26.33629
525.3177, 26.02397
525.7998, 25.89338
526.2819, 25.97560
526.7640, 26.08973
527.2462, 26.34279
527.7283, 26.49592
528.2104, 26.34740
528.6925, 26.01809
529.1746, 25.79035
529.6567, 25.81557
530.1389, 25.94605
530.6210, 26.00278
531.1031, 25.98781
531.5852, 25.92695
532.0673, 25.80004
532.5494, 25.67255
533.0316, 25.62492
533.5137, 25.65109
533.9958, 25.71567
534.4779, 25.81894
534.9600, 25.95176
535.4421, 26.18914
535.9243, 26.46247
536.4064, 26.52138
536.8885, 26.22274
537.3706, 25.76365
537.8527, 25.56988
538.3348, 25.83431
538.8170, 25.98353
539.2991, 25.97153
539.7812, 25.89521
540.2633, 25.78161
540.7454, 25.65148
541.2275, 25.52961
541.7097, 25.42762
542.1918, 25.35463
542.6739, 25.33768
543.1560, 25.38685
543.6381, 25.46048
544.1202, 25.58476
544.6024, 25.70353
545.0845, 25.79893
545.5666, 25.86217
546.0487, 25.86100
546.5308, 25.72972
547.0129, 25.54914
547.4951, 25.44777
547.9772, 25.42385
548.4593, 25.42721
548.9414, 25.45335
549.4235, 25.47642
549.9056, 25.43852
550.3878, 25.32875
550.8699, 25.23914
551.3520, 25.16007
551.8341, 25.12873
552.3162, 25.21785
552.7983, 25.39127
553.2805, 25.52235
553.7626, 25.53672
554.2447, 25.46355
554.7268, 25.38467
555.2089, 25.28149
555.6910, 25.20706
556.1732, 25.14700
556.6553, 25.12496
557.1374, 25.18573
557.6195, 25.30075
558.1016, 25.38935
558.5837, 25.40492
559.0659, 25.35656
559.5480, 25.23657
560.0301, 25.01924
560.5122, 24.89466
560.9943, 25.01017
561.4764, 25.14979
561.9586, 25.06661
562.4407, 24.77823
562.9228, 24.56220
563.4049, 24.57803
563.8870, 24.67631
564.3691, 24.68198
564.8513, 24.61568
565.3334, 24.62442
565.8155, 24.78996
566.2976, 25.02135
566.7797, 25.15455
567.2618, 25.19116
567.7440, 25.09966
568.2261, 24.62944
568.7082, 24.26275
569.1903, 24.37710
569.6724, 24.81916
570.1545, 25.21292
570.6367, 25.35938
571.1188, 25.31870
571.6009, 25.18367
572.0830, 24.90267
572.5651, 24.71952
573.0472, 24.66208
573.5294, 24.71456
574.0115, 25.00616
574.4936, 25.40449
574.9757, 25.54056
575.4578, 25.13032
575.9399, 24.57531
576.4221, 24.31081
576.9042, 24.30883
577.3863, 24.44514
577.8684, 24.73221
578.3505, 25.00727
578.8326, 25.06909
579.3148, 24.89932
579.7969, 24.73426
580.2790, 24.52502
580.7611, 24.37894
581.2432, 24.37571
581.7253, 24.46241
582.2075, 24.56475
582.6896, 24.65301
583.1717, 24.71196
583.6538, 24.71227
584.1359, 24.64198
584.6180, 24.59673
585.1002, 24.53629
585.5823, 24.55431
586.0643, 24.74082
586.5464, 24.99523
587.0286, 25.18777
587.5107, 25.28107
587.9928, 25.32460
588.4749, 25.37087
588.9570, 25.40776
589.4391, 25.38350
589.9213, 25.28617
590.4034, 25.15302
590.8855, 24.98850
591.3676, 24.80991
591.8497, 24.67572
592.3318, 24.56756
592.8140, 24.53054
593.2961, 24.58149
593.7782, 24.70956
594.2603, 25.00025
594.7424, 25.39978
595.2245, 25.60661
595.7067, 25.33717
596.1888, 24.70743
596.6709, 24.38823
597.1530, 24.54049
597.6351, 24.73422
598.1172, 24.93134
598.5994, 25.12935
599.0815, 25.37181
599.5636, 25.62802
600.0457, 25.76863
600.5278, 25.66849
601.0099, 25.42682
601.4921, 25.22633
601.9742, 25.06746
602.4563, 24.89002
602.9384, 24.61709
603.4205, 24.39349
603.9026, 24.48104
604.3848, 24.88603
604.8669, 25.21913
605.3490, 25.43153
605.8311, 25.55437
606.3132, 25.57133
606.7953, 25.52029
607.2775, 25.46203
607.7596, 25.42188
608.2417, 25.42202
608.7238, 25.51477
609.2059, 25.73895
609.6880, 25.86147
610.1702, 25.80024
610.6523, 25.72686
611.1344, 25.69032
611.6165, 25.67711
612.0986, 25.66412
612.5807, 25.64379
613.0629, 25.63381
613.5450, 25.65464
614.0271, 25.69908
614.5092, 25.75716
614.9913, 25.83537
615.4734, 25.86177
615.9556, 25.74342
616.4377, 25.55370
616.9198, 25.55276
617.4019, 25.84059
617.8840, 26.10398
618.3661, 26.30424
618.8483, 26.43828
619.3304, 26.46746
619.8125, 26.41990
620.2946, 26.40025
620.7767, 26.48549
621.2589, 26.61570
621.7410, 26.60005
622.2231, 26.37751
622.7052, 26.18888
623.1873, 26.02343
623.6694, 25.94275
624.1516, 26.03881
624.6337, 26.25343
625.1158, 26.42373
625.5979, 26.50599
626.0800, 26.49028
626.5621, 26.27625
627.0443, 25.94398
627.5264, 25.80120
628.0085, 25.93729
628.4906, 26.13931
628.9727, 26.17643
629.4548, 26.04767
629.9370, 26.13568
630.4191, 26.73708
630.9012, 27.14752
631.3833, 27.01372
631.8654, 26.73251
632.3475, 26.76841
632.8297, 27.15004
633.3118, 27.52868
633.7939, 27.62292
634.2760, 27.46284
634.7581, 27.09079
635.2402, 26.38812
635.7224, 25.94758
636.2045, 26.07799
636.6866, 26.44935
637.1687, 26.77024
637.6508, 27.03186
638.1329, 27.13842
638.6151, 26.93570
639.0972, 26.67296
639.5793, 26.54871
640.0614, 26.53420
640.5435, 26.53533
641.0256, 26.51887
641.5078, 26.53161
641.9899, 26.66233
642.4720, 26.95235
642.9541, 27.01840
643.4362, 26.52184
643.9183, 26.19415
644.4005, 26.35486
644.8826, 26.68320
645.3647, 26.80828
645.8468, 26.66283
646.3289, 26.47903
646.8110, 26.43420
647.2932, 26.49450
647.7753, 26.61083
648.2574, 26.78649
648.7395, 26.86749
649.2216, 26.73835
649.7037, 26.53755
650.1859, 26.52189
650.6680, 26.73092
651.1501, 26.93138
651.6322, 27.22382
652.1143, 27.38836
652.5964, 27.14117
653.0786, 26.70888
653.5607, 26.54259
654.0428, 26.80259
654.5249, 27.19984
655.0070, 27.34150
655.4891, 27.21869
655.9713, 27.07547
656.4534, 26.89137
656.9355, 26.72681
657.4176, 26.58455
657.8997, 26.49120
658.3818, 26.49675
658.8640, 26.61805
659.3461, 26.74789
659.8282, 26.88466
660.3103, 26.97460
660.7924, 26.90370
661.2745, 26.71522
661.7567, 26.62270
662.2388, 26.74182
662.7209, 26.92884
663.2030, 26.89324
663.6851, 26.51966
664.1672, 26.30107
664.6494, 26.37346
665.1315, 26.45496
665.6136, 26.46007
666.0957, 26.41440
666.5778, 26.33527
667.0599, 26.22317
667.5421, 26.17955
668.0242, 26.35217
668.5063, 26.64726
668.9884, 26.86136
669.4705, 26.98091
669.9526, 26.94965
670.4348, 26.69119
670.9169, 26.32533
671.3990, 26.10958
671.8811, 26.06866
672.3632, 26.13018
672.8453, 26.45579
673.3275, 26.72280
673.8096, 26.68763
674.2917, 26.48651
674.7738, 26.37302
675.2559, 26.44525
675.7380, 26.59033
676.2202, 26.70169
676.7023, 26.77275
677.1844, 26.70271
677.6665, 26.42620
678.1486, 26.22209
678.6307, 26.27477
679.1129, 26.46553
679.5950, 26.56081
680.0771, 26.53708
680.5592, 26.52897
681.0413, 26.59053
681.5234, 26.66072
682.0056, 26.72819
682.4877, 26.76220
682.9698, 26.66416
683.4519, 26.39572
683.9340, 26.12290
684.4161, 26.13622
684.8983, 26.47515
685.3804, 26.62125
685.8625, 26.47865
686.3446, 26.30960
686.8267, 26.11934
687.3088, 26.01843
687.7910, 26.22391
688.2731, 26.79648
688.7552, 27.19305
689.2373, 27.06039
689.7194, 26.71862
690.2015, 26.44246
690.6837, 26.25430
691.1658, 26.16889
691.6479, 26.19427
692.1300, 26.27905
692.6121, 26.34893
693.0942, 26.39939
693.5764, 26.46828
694.0585, 26.63271
694.5406, 26.70789
695.0227, 26.59452
695.5048, 26.40039
695.9869, 26.21514
696.4691, 26.05746
696.9512, 25.96503
697.4333, 26.00453
697.9154, 26.09380
698.3975, 26.11591
698.8796, 26.08292
699.3618, 26.07223
699.8439, 26.11398
700.3260, 26.17138
700.8081, 26.19586
701.2902, 26.18411
701.7723, 26.17097
702.2545, 26.18209
702.7366, 26.15970
703.2187, 26.02926
703.7008, 25.90096
704.1829, 25.90753
704.6650, 26.04499
705.1472, 26.16589
705.6293, 26.15607
706.1114, 26.08381
706.5935, 26.06263
707.0756, 26.08229
707.5577, 26.06437
708.0399, 25.97638
708.5220, 25.89233
709.0041, 25.88988
709.4862, 25.96916
709.9683, 26.07923
710.4504, 26.27570
710.9326, 26.42910
711.4147, 26.55091
711.8968, 26.59769
712.3789, 26.43997
712.8610, 26.15027
713.3431, 26.02702
713.8253, 26.31645
714.3074, 26.75789
714.7895, 26.95984
715.2716, 26.94183
715.7537, 26.82244
716.2358, 26.60148
716.7180, 26.40336
717.2001, 26.33550
717.6822, 26.38198
718.1643, 26.43937
718.6464, 26.58200
719.1285, 26.62989
719.6107, 26.43383
720.0928, 26.24937
720.5749, 26.31486
721.0570, 26.55080
721.5391, 26.70099
722.0212, 26.62907
722.5034, 26.48108
722.9855, 26.46013
723.4676, 26.54261
723.9497, 26.60767
724.4318, 26.65546
724.9139, 26.57841
725.3961, 26.22367
725.8782, 25.75714
726.3603, 25.68018
726.8424, 26.26820
727.3245, 26.59874
727.8066, 26.36588
728.2888, 26.12078
728.7709, 26.22574
729.2530, 26.52582
729.7351, 26.71294
730.2172, 26.68191
730.6993, 26.58121
731.1815, 26.56843
731.6636, 26.61739
732.1457, 26.59263
732.6278, 26.47621
733.1099, 26.52457
733.5920, 26.93323
734.0742, 27.42154
734.5563, 27.54489
735.0384, 27.21926
735.5205, 26.92418
736.0026, 26.56039
736.4847, 26.34278
736.9669, 26.41651
737.4490, 26.63934
737.9311, 26.89212
738.4132, 27.12732
738.8953, 27.28321
739.3774, 27.30082
739.8596, 27.21875
740.3417, 27.06588
740.8238, 26.85412
741.3059, 26.81729
741.7880, 27.06248
742.2701, 27.32908
742.7523, 27.36107
743.2344, 27.17452
743.7165, 27.01475
744.1986, 26.81455
744.6807, 26.73165
745.1628, 26.87217
745.6450, 27.06530
746.1271, 27.20504
746.6092, 27.28014
747.0913, 27.30312
747.5734, 27.27112
748.0555, 27.22402
748.5377, 27.15854
749.0198, 27.11549
749.5019, 27.31444
749.9840, 27.79661
750.4661, 28.18205
750.9482, 28.22050
751.4304, 28.04422
751.9125, 27.98134
752.3946, 28.11660
752.8767, 28.16574
753.3588, 28.01776
753.8409, 27.91315
754.3231, 27.93369
754.8052, 28.06649
755.2873, 28.34158
755.7694, 28.75460
756.2515, 29.07783
756.7336, 29.00586
757.2158, 28.80192
757.6979, 28.99186
758.1800, 29.50128
758.6621, 29.82712
759.1442, 29.78715
759.6263, 29.59075
760.1085, 29.46028
760.5906, 29.39595
761.0727, 29.46894
761.5548, 29.68356
762.0369, 30.03949
762.5190, 30.73501
763.0012, 31.39738
763.4833, 31.74720
763.9654, 31.81238
764.4475, 31.77722
764.9296, 31.66592
765.4117, 31.56211
765.8939, 31.44288
766.3760, 31.41005
766.8581, 31.76068
767.3402, 32.47139
767.8223, 33.06349
768.3044, 33.21832
768.7866, 33.11973
769.2687, 33.22553
769.7508, 33.59174
770.2329, 33.96453
770.7150, 34.39901
771.1971, 34.75442
771.6793, 34.85447
772.1614, 34.89252
772.6435, 35.13823
773.1256, 35.63528
773.6077, 36.18695
774.0898, 36.80540
774.5720, 37.36845
775.0541, 37.67867
775.5362, 37.87851
776.0183, 38.25441
776.5004, 38.88848
776.9825, 39.69231
777.4647, 40.63657
777.9468, 41.64774
778.4289, 42.29531
778.9110, 42.49831
779.3931, 42.78509
779.8752, 43.26045
780.3574, 43.88257
780.8395, 44.62727
781.3216, 45.49413
781.8037, 46.44287
782.2858, 47.56207
782.7679, 48.63891
783.2501, 49.47050
783.7322, 50.36276
784.2143, 51.61730
784.6964, 53.15186
785.1785, 54.68671
785.6606, 56.09829
786.1428, 57.53352
786.6249, 59.19694
787.1070, 61.04449
787.5891, 62.86025
788.0712, 64.61378
788.5533, 66.54693
789.0355, 68.75089
789.5176, 71.21012
789.9997, 73.89220
790.4818, 76.81139
790.9639, 79.90001
791.4460, 83.13415
791.9282, 86.56534
792.4103, 90.10732
792.8924, 93.92639
793.3745, 98.20451
793.8566, 102.9410
794.3387, 108.0822
794.8209, 113.6330
795.3030, 119.5203
795.7851, 125.7805
796.2672, 132.3316
796.7493, 139.0145
797.2314, 145.7955
797.7136, 152.5051
798.1957, 159.0353
798.6778, 165.5088
799.1599, 172.1986
799.6420, 179.2293
800.1241, 185.9798
800.6063, 192.3122
801.0884, 198.5878
801.5705, 204.7686
802.0526, 211.0466
802.5347, 217.6295
803.0168, 224.5528
803.4990, 231.6398
803.9811, 238.8793
804.4632, 246.1975
804.9453, 253.4748
805.4274, 260.7858
805.9095, 268.4790
806.3917, 276.4529
806.8738, 284.1136
807.3559, 291.0718
807.8380, 297.1981
808.3201, 302.2281
808.8022, 306.1826
809.2844, 308.8644
809.7665, 310.3300
810.2486, 310.1929
810.7307, 308.4078
811.2128, 304.6875
811.6949, 298.0938
812.1771, 287.6455
812.6592, 276.2296
813.1413, 263.5607
813.6234, 250.3146
814.1055, 236.1233
814.5876, 221.9397
815.0698, 208.8759
815.5519, 197.2118
816.0340, 187.0326
816.5161, 178.9026
816.9982, 171.9570
817.4803, 165.4285
817.9625, 159.2820
818.4446, 153.4014
818.9267, 147.7622
819.4088, 142.7143
819.8909, 138.6439
820.3730, 135.2617
820.8552, 131.6006
821.3373, 127.6141
821.8194, 123.4522
822.3015, 119.0652
822.7836, 114.5861
823.2657, 110.2448
823.7479, 105.8155
824.2300, 100.8630
824.7121, 95.18031
825.1942, 89.77312
825.6763, 84.93068
826.1584, 80.35361
826.6406, 75.74535
827.1227, 71.35393
827.6048, 67.58633
828.0869, 64.48917
828.5690, 61.69151
829.0511, 58.98246
829.5333, 56.34888
830.0154, 53.64460
830.4975, 50.96494
830.9796, 48.86015
831.4617, 47.44870
831.9438, 46.20526
832.4260, 44.73536
832.9081, 43.16927
833.3902, 41.89142
833.8723, 40.99240
834.3544, 40.14449
834.8365, 39.36164
835.3187, 38.61629
835.8008, 37.86396
836.2829, 37.16007
836.7650, 36.61469
837.2471, 36.24260
837.7292, 35.76047
838.2114, 34.91055
838.6935, 34.09746
839.1756, 33.55737
839.6577, 33.22221
840.1398, 33.05782
840.6219, 33.00470
841.1041, 32.88839
841.5862, 32.58007
842.0683, 32.18821
842.5504, 31.88898
843.0325, 31.67721
843.5146, 31.53738
843.9968, 31.47618
844.4789, 31.38233
844.9610, 31.16801
845.4431, 30.95323
845.9252, 30.99371
846.4073, 31.39901
846.8895, 31.49495
847.3716, 30.89570
847.8537, 30.50200
848.3358, 30.68156
848.8179, 31.00897
849.3000, 31.11488
849.7822, 31.01196
850.2643, 30.90526
850.7464, 30.78681
851.2285, 30.79480
851.7106, 31.17479
852.1927, 31.61231
852.6749, 31.67541
853.1570, 31.44795
853.6391, 31.33034
854.1212, 31.50657
854.6033, 31.75264
855.0854, 31.72614
855.5676, 31.51110
856.0497, 31.57062
856.5318, 31.92080
857.0139, 32.08573
857.4960, 31.85293
857.9781, 31.60785
858.4603, 31.78451
858.9424, 32.33981
859.4245, 32.77241
859.9066, 33.09082
860.3887, 33.26778
860.8708, 33.08173
861.3530, 32.98320
861.8351, 33.24654
862.3172, 33.74942
862.7993, 34.29300
863.2814, 34.87145
863.7635, 35.32086
864.2457, 35.45452
864.7278, 35.54879
865.2099, 35.79183
865.6920, 36.16378
866.1741, 36.63844
866.6563, 37.19075
867.1384, 37.73059
867.6205, 38.17620
868.1026, 38.59198
868.5847, 39.09570
869.0668, 39.68033
869.5490, 40.31513
870.0311, 40.99760
870.5132, 41.68819
870.9953, 42.37312
871.4774, 43.04868
871.9595, 43.70886
872.4417, 44.35714
872.9238, 44.96496
873.4059, 45.37288
873.8880, 46.00023
874.3701, 47.22744
874.8522, 48.52755
875.3344, 49.43499
875.8165, 49.99867
876.2986, 50.57484
876.7807, 51.21926
877.2628, 51.89984
877.7449, 52.77520
878.2271, 53.53700
878.7092, 53.76652
879.1913, 53.67941
879.6734, 53.79554
880.1555, 54.29446
880.6376, 54.91266
881.1198, 55.47960
881.6019, 55.95837
882.0840, 56.30085
882.5661, 56.49594
883.0482, 56.44900
883.5303, 56.14374
884.0125, 55.85214
884.4946, 55.84813
884.9767, 55.94167
885.4588, 55.42885
885.9409, 54.15766
886.4230, 53.12859
886.9052, 52.47962
887.3873, 51.92397
887.8694, 51.41620
888.3515, 50.84124
888.8336, 49.96619
889.3157, 48.74660
889.7979, 47.57977
890.2800, 46.44829
890.7621, 45.39964
891.2442, 44.46464
891.7263, 43.60199
892.2084, 42.83332
892.6906, 42.10609
893.1727, 41.29600
893.6548, 40.34022
894.1369, 39.35508
894.6190, 38.34856
895.1011, 37.40470
895.5833, 36.64221
896.0654, 36.03508
896.5475, 35.55407
897.0296, 35.16961
897.5117, 34.71264
897.9938, 33.98447
898.4760, 33.11377
898.9581, 32.43209
899.4402, 31.93365
899.9223, 31.54809
900.4044, 31.26822
900.8865, 31.07440
901.3687, 30.98956
901.8508, 30.90415
902.3329, 30.55291
902.8150, 29.83911
903.2971, 29.33807
903.7792, 29.12489
904.2614, 28.99759
904.7435, 28.99005
905.2256, 28.96739
905.7077, 28.79519
906.1898, 28.49549
906.6719, 28.18934
907.1541, 27.77672
907.6362, 27.54450
908.1183, 27.78897
908.6004, 28.02462
909.0825, 27.86727
909.5646, 27.46784
910.0468, 27.11673
910.5289, 26.89033
911.0110, 26.67679
911.4931, 26.44050
911.9752, 26.14515
912.4573, 25.59846
912.9395, 25.00694
913.4216, 24.87655
913.9037, 25.20656
914.3858, 25.53953
914.8679, 25.60949
915.3500, 25.44035
915.8321, 24.97587
916.3142, 24.27307
916.7963, 23.76917
917.2784, 23.48256
917.7606, 23.30685
918.2427, 23.22218
918.7248, 23.16711
919.2069, 23.07573
919.6890, 22.95447
920.1711, 22.84726
920.6533, 22.74339
921.1354, 22.68580
921.6175, 22.77602
922.0996, 22.78367
922.5817, 22.51071
923.0638, 22.11518
923.5460, 21.82003
924.0281, 21.63655
924.5102, 21.50654
924.9923, 21.46018
925.4744, 21.41671
925.9565, 21.31350
926.4387, 21.22698
926.9208, 21.24807
927.4029, 21.34871
927.8850, 21.44401
928.3671, 21.51822
928.8492, 21.50871
929.3314, 21.26210
929.8135, 20.99688
930.2956, 21.04104
930.7777, 21.24301
931.2598, 21.21998
931.7419, 20.90524
932.2241, 20.55935
932.7062, 20.37325
933.1883, 20.30688
933.6704, 20.33127
934.1525, 20.41596
934.6346, 20.40133
935.1168, 20.27695
935.5989, 20.20193
936.0810, 20.25694
936.5631, 20.34745
937.0452, 20.35123
937.5273, 20.26877
938.0095, 20.08907
938.4916, 19.75869
938.9737, 19.55738
939.4558, 19.58275
939.9379, 19.64626
940.4200, 19.58815
940.9022, 19.49106
941.3843, 19.58709
941.8664, 20.00378
942.3485, 20.22110
942.8306, 20.13278
943.3127, 19.98949
943.7949, 19.78349
944.2770, 19.60804
944.7591, 19.56019
945.2412, 19.61928
945.7233, 19.68545
946.2054, 19.74066
946.6876, 19.79226
947.1697, 19.89175
947.6518, 19.94088
948.1339, 19.83295
948.6160, 19.63993
949.0981, 19.43536
949.5803, 19.25930
950.0624, 19.22106
950.5445, 19.47202
951.0266, 19.76074
951.5087, 19.83820
951.9908, 19.78239
952.4730, 19.67635
952.9551, 19.56447
953.4372, 19.57774
953.9193, 19.76319
954.4014, 19.90913
954.8835, 19.69518
955.3657, 19.29729
955.8478, 19.27959
956.3299, 19.58248
956.8120, 19.75661
957.2941, 19.71309
957.7762, 19.64965
958.2584, 19.69656
958.7405, 19.79554
959.2226, 19.83475
959.7047, 19.81278
960.1868, 19.73122
960.6689, 19.54989
961.1511, 19.47763
961.6332, 19.60470
962.1153, 19.79467
962.5974, 19.93327
963.0795, 20.03111
963.5616, 20.14432
964.0438, 20.39795
964.5259, 20.39340
965.0080, 19.77404
965.4901, 19.35796
965.9722, 19.56896
966.4543, 20.00868
966.9365, 20.27291
967.4186, 20.37307
967.9007, 20.53435
968.3828, 20.84301
968.8649, 21.13402
969.3470, 21.44105
969.8292, 21.64713
970.3113, 21.53579
970.7934, 21.33653
971.2755, 21.43131
971.7576, 21.87089
972.2397, 22.32022
972.7219, 22.60149
973.2040, 22.86275
973.6861, 23.24854
974.1682, 23.63193
974.6503, 23.79582
975.1324, 23.83463
975.6146, 24.04701
976.0967, 24.53621
976.5788, 25.06100
977.0609, 25.45765
977.5430, 25.73280
978.0251, 25.80901
978.5073, 25.79473
978.9894, 25.97878
979.4715, 26.36713
979.9536, 26.72458
980.4357, 26.92427
980.9178, 27.02245
981.4000, 27.06866
981.8821, 27.08156
982.3642, 27.10384
982.8463, 27.14688
983.3284, 27.35589
983.8105, 27.76796
984.2927, 28.14310
984.7748, 28.30888
985.2569, 28.29736
985.7390, 28.16119
986.2211, 27.89528
986.7032, 27.59093
987.1854, 27.22675
987.6675, 26.95830
988.1496, 26.85033
988.6317, 26.81104
989.1138, 26.79582
989.5959, 26.75422
990.0781, 26.42534
990.5602, 25.58448
991.0423, 25.14520
991.5244, 25.45297
992.0065, 25.53776
992.4886, 24.86318
992.9708, 23.97564
993.4529, 23.49212
993.9350, 23.37659
994.4171, 23.19180
994.8992, 22.87416
995.3813, 22.58695
995.8635, 22.41582
996.3456, 22.18426
996.8277, 21.73859
997.3098, 21.23774
997.7919, 20.88103
998.2740, 20.67400
998.7562, 20.47829
999.2383, 20.21352
999.7204, 20.03490
1000.203, 20.13935
1000.685, 20.18718
1001.167, 19.78294
1001.649, 19.23672
1002.131, 19.11242
1002.613, 19.47711
1003.095, 19.78560
1003.577, 19.74923
1004.059, 19.65618
1004.542, 19.67822
1005.024, 19.70971
1005.506, 19.58408
1005.988, 19.39615
1006.470, 19.38764
1006.952, 19.61713
1007.434, 19.86516
1007.916, 20.01114
1008.398, 20.07780
1008.881, 20.03888
1009.363, 19.96218
1009.845, 19.93981
1010.327, 19.97680
1010.809, 20.05723
1011.291, 20.17168
1011.773, 20.26863
1012.255, 20.27124
1012.738, 20.24953
1013.220, 20.28457
1013.702, 20.39134
1014.184, 20.69398
1014.666, 21.13314
1015.148, 21.34114
1015.630, 21.13816
1016.112, 20.84185
1016.594, 20.78943
1017.077, 20.96176
1017.559, 21.45399
1018.041, 22.15216
1018.523, 22.44593
1019.005, 22.25685
1019.487, 21.98150
1019.969, 21.83586
1020.451, 21.79407
1020.934, 21.84380
1021.416, 21.96110
1021.898, 21.96238
1022.380, 21.85576
1022.862, 21.98600
1023.344, 22.44016
1023.826, 22.77073
1024.308, 22.67058
1024.791, 22.40718
1025.273, 22.49700
1025.755, 22.92435
1026.237, 23.06504
1026.719, 22.86894
1027.201, 22.81579
1027.683, 23.06312
1028.165, 23.19983
1028.647, 22.90614
1029.130, 22.41012
1029.612, 22.19457
1030.094, 22.28115
1030.576, 22.36660
1031.058, 22.47158
1031.540, 22.49554
1032.022, 22.38076
1032.504, 22.26910
1032.986, 22.29630
1033.469, 22.35577
1033.951, 22.18311
1034.433, 21.71716
1034.915, 21.39962
1035.397, 21.27412
1035.879, 21.20569
1036.361, 21.20813
1036.843, 21.19999
1037.326, 21.13307
1037.808, 21.01044
1038.290, 20.83291
1038.772, 20.58380
1039.254, 20.35000
1039.736, 20.09513
1040.218, 19.91624
1040.700, 19.90184
1041.182, 19.89574
1041.665, 19.77445
1042.147, 19.58769
1042.629, 19.45300
1043.111, 19.38153
1043.593, 19.31088
1044.075, 19.29531
1044.557, 19.20374
1045.039, 18.86014
1045.521, 18.57762
1046.004, 18.64437
1046.486, 18.90757
1046.968, 19.01048
1047.450, 18.87973
1047.932, 18.87956
1048.414, 19.28961
1048.896, 19.50563
1049.378, 19.20026
1049.861, 18.81042
1050.343, 18.64091
1050.825, 18.61946
1051.307, 18.58790
1051.789, 18.53390
1052.271, 18.41834
1052.753, 18.13793
1053.235, 17.92448
1053.718, 17.84818
1054.200, 17.86921
1054.682, 18.03582
1055.164, 18.24794
1055.646, 18.33410
1056.128, 18.26657
1056.610, 18.11359
1057.092, 17.71892
1057.574, 17.47604
1058.057, 17.69134
1058.539, 17.94845
1059.021, 17.90479
1059.503, 17.67899
1059.985, 17.52760
1060.467, 17.49119
1060.949, 17.41564
1061.431, 17.10568
1061.913, 16.94201
1062.396, 17.25205
1062.878, 17.59020
1063.360, 17.55786
1063.842, 17.33001
1064.324, 17.25890
1064.806, 17.38855
1065.288, 17.43785
1065.770, 17.19374
1066.253, 16.99865
1066.735, 17.04488
1067.217, 17.14273
1067.699, 17.17961
1068.181, 17.15182
1068.663, 17.04192
1069.145, 16.86604
1069.627, 16.75226
1070.109, 16.76706
1070.592, 16.82044
1071.074, 16.89131
1071.556, 16.96547
1072.038, 17.05063
1072.520, 17.12250
1073.002, 17.17558
1073.484, 17.19016
1073.966, 17.06693
1074.448, 16.66634
1074.931, 16.35521
1075.413, 16.33172
1075.895, 16.43600
1076.377, 16.67251
1076.859, 16.89097
1077.341, 16.87060
1077.823, 16.63662
1078.305, 16.40902
1078.788, 16.23054
1079.270, 16.16869
1079.752, 16.38662
1080.234, 16.58898
1080.716, 16.47639
1081.198, 16.30483
1081.680, 16.46382
1082.162, 16.86359
1082.644, 17.06893
1083.127, 16.92146
1083.609, 16.70033
1084.091, 16.44805
1084.573, 16.25407
1085.055, 16.19656
1085.537, 16.20646
1086.019, 16.19752
1086.501, 16.19181
1086.984, 16.29340
1087.466, 16.54510
1087.948, 16.71926
1088.430, 16.69654
1088.912, 16.60132
1089.394, 16.39943
1089.876, 16.24025
1090.358, 16.31470
1090.840, 16.52121
1091.323, 16.64542
1091.805, 16.64302
1092.287, 16.58211
1092.769, 16.44577
1093.251, 16.31271
1093.733, 16.14236
1094.215, 16.05874
1094.697, 16.20522
1095.179, 16.48368
1095.662, 16.79218
1096.144, 17.09169
1096.626, 17.17127
1097.108, 16.79466
1097.590, 16.45650
1098.072, 16.28166
1098.554, 16.23405
1099.036, 16.41219
1099.519, 16.62762
1100.001, 16.61897
1100.483, 16.40139
1100.965, 16.21758
1101.447, 16.13156
1101.929, 16.06529
1102.411, 15.98945
1102.893, 15.94107
1103.375, 15.91865
1103.858, 15.94697
1104.340, 16.10200
1104.822, 16.32852
1105.304, 16.43862
1105.786, 16.38754
1106.268, 16.28743
1106.750, 16.12413
1107.232, 15.95937
1107.714, 15.75311
1108.197, 15.60846
1108.679, 15.66979
1109.161, 15.83696
1109.643, 15.85450
1110.125, 15.66185
1110.607, 15.61734
1111.089, 15.96073
1111.571, 16.15559
1112.054, 15.96775
1112.536, 15.75069
1113.018, 15.66572
1113.500, 15.69676
1113.982, 15.89350
1114.464, 16.26162
1114.946, 16.32261
1115.428, 15.71228
1115.911, 15.40591
1116.393, 15.66439
1116.875, 15.93828
1117.357, 15.98892
1117.839, 15.97394
1118.321, 16.11004
1118.803, 16.33934
1119.285, 16.29645
1119.767, 15.72628
1120.250, 15.55301
1120.732, 16.07763
1121.214, 16.36422
1121.696, 15.98786
1122.178, 15.55712
1122.660, 15.61158
1123.142, 15.93429
1123.624, 15.93461
1124.106, 15.54219
1124.589, 15.38335
1125.071, 15.52894
1125.553, 15.67274
1126.035, 15.77207
1126.517, 15.80872
1126.999, 15.76225
1127.481, 15.66456
1127.963, 15.54986
1128.446, 15.42919
1128.928, 15.44955
1129.410, 15.63031
1129.892, 15.78875
1130.374, 15.91167
1130.856, 15.95153
1131.338, 15.88465
1131.820, 15.73665
1132.302, 15.50668
1132.785, 15.27325
1133.267, 15.35050
1133.749, 15.70676
1134.231, 15.79119
1134.713, 15.58892
1135.195, 15.43945
1135.677, 15.43737
1136.159, 15.50130
1136.641, 15.58318
1137.124, 15.63208
1137.606, 15.50460
1138.088, 15.28001
1138.570, 15.30228
1139.052, 15.50939
1139.534, 15.58304
1140.016, 15.49769
1140.498, 15.47014
1140.981, 15.60187
1141.463, 15.80712
1141.945, 16.06890
1142.427, 16.25452
1142.909, 15.95946
1143.391, 15.48560
1143.873, 15.62524
1144.355, 16.19914
1144.838, 16.38659
1145.320, 16.01266
1145.802, 15.66969
1146.284, 15.78045
1146.766, 15.98118
1147.248, 15.84268
1147.730, 15.63772
1148.212, 15.75038
1148.694, 16.01485
1149.177, 16.12943
1149.659, 16.07154
1150.141, 15.97059
1150.623, 15.87400
1151.105, 15.75899
1151.587, 15.54784
1152.069, 15.38738
1152.551, 15.44011
1153.033, 15.54150
1153.516, 15.48553
1153.998, 15.35740
1154.480, 15.38409
1154.962, 15.59457
1155.444, 15.72864
1155.926, 15.64583
1156.408, 15.55388
1156.890, 15.43698
1157.373, 15.41782
1157.855, 15.70170
1158.337, 16.02378
1158.819, 16.01470
1159.301, 15.74985
1159.783, 15.68801
1160.265, 16.03343
1160.747, 16.13674
1161.229, 15.59995
1161.712, 15.32935
1162.194, 15.76882
1162.676, 16.24168
1163.158, 16.28855
1163.640, 16.09338
1164.122, 15.97141
1164.604, 15.92251
1165.086, 15.94131
1165.568, 16.09003
1166.051, 16.09903
1166.533, 15.87673
1167.015, 15.72339
1167.497, 15.79097
1167.979, 15.89295
1168.461, 15.81936
1168.943, 15.65438
1169.425, 15.69686
1169.908, 15.95523
1170.390, 16.09806
1170.872, 16.11823
1171.354, 16.01608
1171.836, 15.78762
1172.318, 15.66053
1172.800, 15.77738
1173.282, 16.02185
1173.765, 16.31506
1174.247, 16.54177
1174.729, 16.17540
1175.211, 15.45885
1175.693, 15.33396
1176.175, 15.76743
1176.657, 16.16970
1177.139, 16.32621
1177.621, 16.23593
1178.104, 15.82217
1178.586, 15.42765
1179.068, 15.49702
1179.550, 15.80921
1180.032, 16.18000
1180.514, 16.50285
1180.996, 16.60633
1181.478, 16.50652
1181.960, 16.31743
1182.443, 16.07423
1182.925, 15.92335
1183.407, 15.99405
1183.889, 16.12977
1184.371, 16.26800
1184.853, 16.39846
1185.335, 16.55996
1185.817, 16.68395
1186.300, 16.66046
1186.782, 16.48478
1187.264, 16.22599
1187.746, 15.74854
1188.228, 15.50487
1188.710, 15.71670
1189.192, 15.98839
1189.674, 16.26551
1190.156, 16.46274
1190.639, 16.46001
1191.121, 16.35844
1191.603, 16.39082
1192.085, 16.57494
1192.567, 16.64638
1193.049, 16.55077
1193.531, 16.49793
1194.013, 16.51160
1194.495, 16.58222
1194.978, 16.74042
1195.460, 16.83279
1195.942, 16.67136
1196.424, 16.37588
1196.906, 16.34223
1197.388, 16.55090
1197.870, 16.53444
1198.352, 16.30536
1198.835, 16.25310
1199.317, 16.44290
1199.799, 16.60007
1200.281, 16.57934
1200.763, 16.50937
1201.245, 16.54138
1201.727, 16.61465
1202.209, 16.62525
1202.692, 16.59045
1203.174, 16.53437
1203.656, 16.46847
1204.138, 16.40365
1204.620, 16.34879
1205.102, 16.32314
1205.584, 16.32976
1206.066, 16.40397
1206.548, 16.67542
1207.031, 16.90534
1207.513, 16.89303
1207.995, 16.75543
1208.477, 16.53305
1208.959, 16.32328
1209.441, 16.34321
1209.923, 16.61192
1210.405, 16.74068
1210.887, 16.41050
1211.370, 16.29165
1211.852, 16.80846
1212.334, 17.15317
1212.816, 16.78520
1213.298, 16.31518
1213.780, 16.25858
1214.262, 16.47099
1214.744, 16.60316
1215.227, 16.65697
1215.709, 16.57700
1216.191, 16.27860
1216.673, 16.23628
1217.155, 16.57752
1217.637, 16.83468
1218.119, 16.80081
1218.601, 16.62416
1219.083, 16.43903
1219.566, 16.26461
1220.048, 16.14170
1220.530, 16.07256
1221.012, 16.05947
1221.494, 16.10880
1221.976, 16.31014
1222.458, 16.62510
1222.940, 16.76467
1223.422, 16.60350
1223.905, 16.37316
1224.387, 16.23029
1224.869, 16.18697
1225.351, 16.37797
1225.833, 16.57231
1226.315, 16.39000
1226.797, 16.06189
1227.279, 16.00716
1227.762, 16.22664
1228.244, 16.46032
1228.726, 16.64839
1229.208, 16.74772
1229.690, 16.63673
1230.172, 16.58196
1230.654, 16.82120
1231.136, 16.98956
1231.619, 16.72424
1232.101, 16.33153
1232.583, 16.23616
1233.065, 16.39406
1233.547, 16.51686
1234.029, 16.59261
1234.511, 16.68991
1234.993, 16.85540
1235.475, 16.83223
1235.958, 16.50443
1236.440, 16.27728
1236.922, 16.40450
1237.404, 16.65534
1237.886, 16.72513
1238.368, 16.66672
1238.850, 16.65875
1239.332, 16.66796
1239.814, 16.50655
1240.297, 16.22514
1240.779, 16.08576
1241.261, 16.12961
1241.743, 16.21384
1242.225, 16.26699
1242.707, 16.29563
1243.189, 16.30345
1243.671, 16.29192
1244.154, 16.18773
1244.636, 16.13094
1245.118, 16.36149
1245.600, 16.70312
1246.082, 16.85874
1246.564, 16.80439
1247.046, 16.66044
1247.528, 16.41159
1248.010, 16.19843
1248.493, 15.97704
1248.975, 15.89297
1249.457, 16.07225
1249.939, 16.27651
1250.421, 16.37708
1250.903, 16.42933
1251.385, 16.51581
1251.867, 16.61771
1252.349, 16.63532
1252.832, 16.57054
1253.314, 16.34425
1253.796, 15.94545
1254.278, 15.82371
1254.760, 16.07177
1255.242, 16.27921
1255.724, 16.22214
1256.206, 16.06804
1256.689, 15.98062
1257.171, 15.95158
1257.653, 15.97062
1258.135, 16.03691
1258.617, 16.16460
1259.099, 16.33097
1259.581, 16.52291
1260.063, 16.70982
1260.546, 16.82187
1261.028, 16.84133
1261.510, 16.71202
1261.992, 16.18583
1262.474, 15.81983
1262.956, 15.96862
1263.438, 16.19608
1263.920, 16.23527
1264.402, 16.19924
1264.885, 16.25488
1265.367, 16.35660
1265.849, 16.32300
1266.331, 16.11607
1266.813, 16.01880
1267.295, 16.04093
1267.777, 16.13670
1268.259, 16.30805
1268.741, 16.51158
1269.224, 16.73894
1269.706, 16.83654
1270.188, 16.63128
1270.670, 16.31486
1271.152, 16.24120
1271.634, 16.32878
1272.116, 16.45615
1272.598, 16.55994
1273.081, 16.45695
1273.563, 16.20826
1274.045, 16.05311
1274.527, 16.05619
1275.009, 16.07997
1275.491, 15.98439
1275.973, 16.05614
1276.455, 16.69554
1276.938, 17.21664
1277.420, 17.17645
1277.902, 16.90978
1278.384, 16.60510
1278.866, 16.35784
1279.348, 16.36478
1279.830, 16.61052
1280.312, 16.70076
1280.794, 16.57966
1281.276, 16.52169
1281.759, 16.54212
1282.241, 16.59111
1282.723, 16.65172
1283.205, 16.83081
1283.687, 17.21521
1284.169, 17.50225
1284.651, 17.23909
1285.133, 16.71827
1285.616, 16.43871
1286.098, 16.39908
##END=



