##NAMES=Metazeunerite
##RRUFFID=R060301
##IDEAL CHEMISTRY=Cu^2+^(U^6+^O_2_)_2_(As^5+^O_4_)_2_&#183;8H_2_O
##LOCALITY=Joachimstal, Bohemia, Czech Republic
##OWNER=RRUFF
##SOURCE=University of Arizona Mineral Museum
##DESCRIPTION=Green blocky dipyramidal single crystals associated with yellow walpurgite, R050573
##STATUS=The identification of this mineral has been confirmed by single-crystal X-ray diffraction.
##URL=rruff.info/R060301
117.5675, 33.28000
118.0496, 33.31520
118.5317, 33.56163
119.0139, 33.73377
119.4960, 33.78077
119.9781, 33.79545
120.4602, 33.79906
120.9423, 33.78270
121.4244, 33.71631
121.9066, 33.56409
122.3887, 33.30962
122.8708, 33.21205
123.3529, 33.44319
123.8350, 33.64173
124.3171, 33.60825
124.7993, 33.35063
125.2814, 33.03611
125.7635, 32.82757
126.2456, 32.75264
126.7277, 32.67617
127.2098, 32.56115
127.6920, 32.45930
128.1741, 32.45121
128.6562, 32.57059
129.1383, 32.69655
129.6204, 32.63567
130.1025, 32.40982
130.5847, 32.23108
131.0668, 32.25143
131.5489, 32.40130
132.0310, 32.42669
132.5131, 32.19828
132.9952, 31.90743
133.4774, 31.69714
133.9595, 31.57220
134.4416, 31.53618
134.9237, 31.64211
135.4058, 31.92551
135.8879, 32.10731
136.3701, 32.01220
136.8522, 31.87690
137.3343, 31.86351
137.8164, 32.00733
138.2985, 32.18121
138.7806, 32.14381
139.2628, 31.69104
139.7449, 31.40145
140.2270, 31.47755
140.7091, 31.64495
141.1912, 31.60641
141.6733, 31.22935
142.1555, 30.66930
142.6376, 30.46862
143.1197, 31.05119
143.6018, 31.54599
144.0839, 31.92514
144.5660, 32.15110
145.0482, 32.14735
145.5303, 31.84205
146.0124, 31.28953
146.4945, 30.89745
146.9766, 30.70708
147.4587, 30.59481
147.9409, 30.52558
148.4230, 30.49558
148.9051, 30.49994
149.3872, 30.54682
149.8693, 30.62910
150.3514, 30.69360
150.8336, 30.75344
151.3157, 30.78684
151.7978, 30.76029
152.2799, 30.66495
152.7620, 30.56851
153.2441, 30.57487
153.7263, 30.61481
154.2084, 30.55544
154.6905, 30.23311
155.1726, 29.79876
155.6547, 29.60138
156.1368, 29.73687
156.6190, 29.95326
157.1011, 30.21535
157.5832, 30.45075
158.0653, 30.50578
158.5474, 30.18362
159.0295, 29.52653
159.5117, 29.10473
159.9938, 29.13094
160.4759, 29.20331
160.9580, 29.14603
161.4401, 29.00465
161.9222, 28.93141
162.4044, 29.11486
162.8865, 29.65262
163.3686, 29.86255
163.8507, 29.34869
164.3328, 28.87095
164.8149, 28.81907
165.2971, 29.17470
165.7792, 29.63808
166.2613, 29.85886
166.7434, 29.73078
167.2255, 29.64279
167.7076, 29.63975
168.1898, 29.64052
168.6719, 29.54946
169.1540, 29.35928
169.6361, 29.19499
170.1182, 29.25532
170.6003, 29.70074
171.0825, 29.95789
171.5646, 29.82855
172.0467, 29.56500
172.5288, 29.50424
173.0109, 29.76768
173.4930, 30.09210
173.9752, 29.95400
174.4573, 29.28291
174.9394, 28.77276
175.4215, 28.75811
175.9036, 29.04753
176.3857, 29.21205
176.8679, 29.11059
177.3500, 28.86738
177.8321, 28.61896
178.3142, 28.34927
178.7963, 28.18323
179.2784, 28.25510
179.7606, 28.53379
180.2427, 28.75600
180.7248, 28.79087
181.2069, 28.79834
181.6890, 28.94137
182.1711, 29.23782
182.6533, 29.53436
183.1354, 29.68358
183.6175, 29.67260
184.0996, 29.61676
184.5817, 29.47810
185.0638, 29.33976
185.5460, 29.25994
186.0281, 29.24973
186.5102, 29.26320
186.9923, 29.23927
187.4744, 29.17266
187.9565, 29.07876
188.4387, 28.89916
188.9208, 28.73203
189.4029, 28.66946
189.8850, 28.73424
190.3671, 28.85153
190.8492, 28.86345
191.3314, 28.59731
191.8135, 28.51926
192.2956, 28.89358
192.7777, 29.32888
193.2598, 29.41955
193.7419, 29.01548
194.2241, 28.35317
194.7062, 28.00336
195.1883, 28.42168
195.6704, 28.64304
196.1525, 28.45401
196.6346, 28.11972
197.1168, 27.96992
197.5989, 28.15305
198.0810, 28.54363
198.5631, 28.78040
199.0452, 28.83743
199.5273, 28.79210
200.0095, 28.57581
200.4916, 28.27453
200.9737, 28.01771
201.4558, 27.85532
201.9379, 27.78655
202.4200, 27.82915
202.9022, 28.08604
203.3843, 28.25800
203.8664, 28.15735
204.3485, 27.87847
204.8306, 27.68238
205.3127, 27.68792
205.7949, 27.84086
206.2770, 28.02070
206.7591, 28.27875
207.2412, 28.45959
207.7233, 28.45463
208.2054, 28.28317
208.6876, 28.04548
209.1697, 27.68591
209.6518, 27.36157
210.1339, 27.30511
210.6160, 27.59665
211.0981, 27.95127
211.5803, 28.16186
212.0624, 28.22829
212.5445, 28.20642
213.0266, 28.02291
213.5087, 27.81446
213.9908, 27.72233
214.4730, 27.78209
214.9551, 27.87800
215.4372, 27.87289
215.9193, 27.74644
216.4014, 27.64595
216.8836, 27.62802
217.3657, 27.64426
217.8478, 27.67921
218.3299, 27.73004
218.8120, 27.76583
219.2941, 27.73464
219.7763, 27.61176
220.2584, 27.50263
220.7405, 27.38371
221.2226, 27.30851
221.7047, 27.34149
222.1868, 27.49521
222.6690, 27.68883
223.1511, 27.78227
223.6332, 27.70215
224.1153, 27.69149
224.5974, 27.83864
225.0795, 28.01120
225.5617, 28.10201
226.0438, 28.08506
226.5259, 28.02690
227.0080, 28.05633
227.4901, 28.29334
227.9722, 28.39073
228.4544, 28.23623
228.9365, 28.02101
229.4186, 27.90621
229.9007, 27.93215
230.3828, 28.00942
230.8649, 27.97207
231.3471, 27.62779
231.8292, 27.48920
232.3113, 27.79807
232.7934, 28.15461
233.2755, 28.18640
233.7576, 27.80482
234.2398, 27.24459
234.7219, 26.89040
235.2040, 26.79965
235.6861, 26.85937
236.1682, 27.23823
236.6503, 27.67335
237.1325, 27.90157
237.6146, 27.85809
238.0967, 27.70545
238.5788, 27.69077
239.0609, 27.91998
239.5430, 28.03998
240.0252, 27.96367
240.5073, 27.81005
240.9894, 27.70669
241.4715, 27.68328
241.9536, 27.66317
242.4357, 27.52784
242.9179, 27.23754
243.4000, 27.01329
243.8821, 26.85917
244.3642, 26.78943
244.8463, 26.87416
245.3284, 27.13728
245.8106, 27.38733
246.2927, 27.34583
246.7748, 26.99689
247.2569, 26.78264
247.7390, 26.88344
248.2211, 27.10233
248.7033, 27.21871
249.1854, 27.20008
249.6675, 27.07639
250.1496, 26.78232
250.6317, 26.35648
251.1138, 26.12087
251.5960, 26.28780
252.0781, 26.61874
252.5602, 26.79579
253.0423, 26.77000
253.5244, 26.70635
254.0065, 26.75278
254.4887, 26.87460
254.9708, 26.98120
255.4529, 27.07871
255.9350, 27.13693
256.4171, 27.09225
256.8992, 26.92242
257.3813, 26.74423
257.8635, 26.63917
258.3456, 26.58270
258.8277, 26.54104
259.3098, 26.51477
259.7919, 26.49275
260.2740, 26.46087
260.7562, 26.41953
261.2383, 26.36610
261.7204, 26.25181
262.2025, 26.13574
262.6846, 26.10693
263.1667, 26.23516
263.6489, 26.40720
264.1310, 26.46932
264.6131, 26.41211
265.0952, 26.28493
265.5773, 25.95328
266.0594, 25.62577
266.5416, 25.53634
267.0237, 25.79242
267.5058, 26.18494
267.9879, 26.47667
268.4700, 26.68247
268.9521, 26.71306
269.4343, 26.31235
269.9164, 25.83779
270.3985, 25.57924
270.8806, 25.61648
271.3627, 25.76741
271.8448, 25.81766
272.3270, 25.75349
272.8091, 25.66057
273.2912, 25.45894
273.7733, 25.29860
274.2554, 25.33625
274.7375, 25.58735
275.2197, 25.82420
275.7018, 25.75107
276.1839, 25.30901
276.6660, 24.94217
277.1481, 24.55787
277.6302, 24.39216
278.1124, 24.76528
278.5945, 25.60852
279.0766, 26.38911
279.5587, 26.48185
280.0408, 25.78536
280.5229, 25.32773
281.0051, 25.42411
281.4872, 25.54403
281.9693, 25.42224
282.4514, 25.11045
282.9335, 24.84149
283.4156, 24.84528
283.8978, 25.12949
284.3799, 25.32384
284.8620, 25.40924
285.3441, 25.41017
285.8262, 25.30670
286.3083, 25.12536
286.7905, 24.90755
287.2726, 24.65901
287.7547, 24.39530
288.2368, 24.27839
288.7189, 24.41037
289.2010, 24.58232
289.6832, 24.80937
290.1653, 25.02363
290.6474, 25.11790
291.1295, 25.01427
291.6116, 24.77144
292.0938, 24.62212
292.5759, 24.56040
293.0580, 24.62148
293.5401, 24.90889
294.0222, 25.27228
294.5043, 25.55791
294.9865, 25.69895
295.4686, 25.70965
295.9507, 25.61423
296.4328, 25.35536
296.9149, 25.08547
297.3970, 24.68358
297.8792, 24.35594
298.3613, 24.36407
298.8434, 24.76416
299.3255, 25.27448
299.8076, 25.39640
300.2897, 24.89133
300.7719, 24.53118
301.2540, 24.44136
301.7361, 24.41880
302.2182, 24.32093
302.7003, 24.13330
303.1824, 23.95082
303.6646, 23.89221
304.1467, 23.98992
304.6288, 24.09842
305.1109, 24.27145
305.5930, 24.40911
306.0751, 24.47779
306.5573, 24.46890
307.0394, 24.37157
307.5215, 24.14903
308.0036, 23.78186
308.4857, 23.56101
308.9678, 23.60171
309.4500, 23.68240
309.9321, 23.78647
310.4142, 23.88204
310.8963, 23.90945
311.3784, 23.81140
311.8605, 23.61880
312.3427, 23.58134
312.8248, 23.95020
313.3069, 24.18200
313.7890, 24.06793
314.2711, 23.79542
314.7532, 23.62015
315.2354, 23.67306
315.7175, 23.86353
316.1996, 23.92924
316.6817, 23.79165
317.1638, 23.64426
317.6459, 23.49061
318.1281, 23.34795
318.6102, 23.19405
319.0923, 23.03215
319.5744, 22.95232
320.0565, 23.14210
320.5386, 23.79435
321.0208, 24.26804
321.5029, 24.53755
321.9850, 24.65275
322.4671, 24.59672
322.9492, 24.39419
323.4313, 24.13914
323.9135, 23.91920
324.3956, 23.72738
324.8777, 23.61148
325.3598, 23.69083
325.8419, 23.73523
326.3240, 23.62120
326.8062, 23.38960
327.2883, 23.16983
327.7704, 23.06849
328.2525, 23.07691
328.7346, 23.03221
329.2167, 22.83517
329.6989, 22.69856
330.1810, 22.72485
330.6631, 22.83196
331.1452, 22.88586
331.6273, 22.80582
332.1094, 22.65551
332.5916, 22.64371
333.0737, 22.88106
333.5558, 23.07095
334.0379, 23.15198
334.5200, 23.17575
335.0021, 23.16695
335.4843, 23.13703
335.9664, 23.13114
336.4485, 23.24731
336.9306, 23.56258
337.4127, 23.76817
337.8948, 23.78211
338.3770, 23.72385
338.8591, 23.63033
339.3412, 23.52059
339.8233, 23.43254
340.3055, 23.41445
340.7876, 23.47511
341.2697, 23.52126
341.7518, 23.66669
342.2339, 23.67315
342.7160, 23.28597
343.1982, 22.67666
343.6803, 22.25872
344.1624, 22.38016
344.6445, 22.90683
345.1266, 23.14711
345.6087, 22.91319
346.0909, 22.68863
346.5730, 22.61019
347.0551, 22.63916
347.5372, 22.75557
348.0193, 22.97603
348.5014, 23.19767
348.9836, 23.21712
349.4657, 22.97807
349.9478, 22.72468
350.4299, 22.42514
350.9120, 22.19349
351.3941, 22.16636
351.8763, 22.36291
352.3584, 22.58680
352.8405, 22.61407
353.3226, 22.43799
353.8047, 22.31304
354.2868, 22.28768
354.7690, 22.30924
355.2511, 22.34122
355.7332, 22.38654
356.2153, 22.46240
356.6974, 22.61167
357.1795, 22.80575
357.6617, 22.92129
358.1438, 22.91581
358.6259, 22.91618
359.1080, 23.06067
359.5901, 23.24707
360.0722, 23.29578
360.5544, 23.08224
361.0365, 22.77397
361.5186, 22.60088
362.0007, 22.57508
362.4828, 22.60149
362.9649, 22.69457
363.4471, 22.79063
363.9292, 22.79758
364.4113, 22.68086
364.8934, 22.58980
365.3755, 22.70776
365.8576, 22.97970
366.3398, 23.09277
366.8219, 22.93719
367.3040, 22.65283
367.7861, 22.31115
368.2682, 21.92618
368.7503, 21.72997
369.2325, 21.98726
369.7146, 22.44140
370.1967, 22.64645
370.6788, 22.54505
371.1609, 22.30786
371.6430, 21.93728
372.1252, 21.52752
372.6073, 21.40077
373.0894, 21.87376
373.5715, 22.42608
374.0536, 22.64617
374.5357, 22.57175
375.0179, 22.40621
375.5000, 22.18933
375.9821, 21.99778
376.4642, 22.02739
376.9463, 22.38870
377.4284, 22.68503
377.9106, 22.71028
378.3927, 22.58770
378.8748, 22.54827
379.3569, 22.66308
379.8390, 22.78904
380.3211, 22.70702
380.8033, 22.35376
381.2854, 22.17957
381.7675, 22.40000
382.2496, 22.67970
382.7317, 22.72511
383.2138, 22.54220
383.6960, 22.35397
384.1781, 22.32870
384.6602, 22.45461
385.1423, 22.54832
385.6244, 22.61156
386.1065, 22.64772
386.5887, 22.62282
387.0708, 22.57737
387.5529, 22.60028
388.0350, 22.73526
388.5171, 22.90205
388.9992, 22.92435
389.4814, 22.71053
389.9635, 22.47744
390.4456, 22.10798
390.9277, 21.79607
391.4098, 21.77246
391.8919, 22.02444
392.3741, 22.27747
392.8562, 22.21840
393.3383, 21.77570
393.8204, 21.57376
394.3025, 21.77627
394.7846, 22.03089
395.2668, 22.32909
395.7489, 22.58069
396.2310, 22.60227
396.7131, 22.25838
397.1952, 21.71354
397.6773, 21.55982
398.1595, 22.10199
398.6416, 22.54341
399.1237, 22.73155
399.6058, 22.81899
400.0879, 22.96952
400.5700, 23.20811
401.0522, 23.38444
401.5343, 23.26293
402.0164, 22.77032
402.4985, 22.41834
402.9806, 22.28419
403.4627, 22.24873
403.9449, 22.35328
404.4270, 22.52165
404.9091, 22.56881
405.3912, 22.31449
405.8733, 21.88854
406.3554, 21.72722
406.8376, 21.94428
407.3197, 22.14012
407.8018, 22.13620
408.2839, 22.03984
408.7660, 21.93215
409.2481, 21.81837
409.7303, 21.76505
410.2124, 21.91070
410.6945, 22.23348
411.1766, 22.37687
411.6587, 22.16270
412.1408, 21.87747
412.6230, 21.82351
413.1051, 21.96615
413.5872, 22.04679
414.0693, 21.89766
414.5514, 21.64184
415.0335, 21.45919
415.5157, 21.35861
415.9978, 21.34543
416.4799, 21.46728
416.9620, 21.67596
417.4441, 21.81513
417.9262, 21.83657
418.4084, 21.84453
418.8905, 21.92575
419.3726, 22.04022
419.8547, 22.06531
420.3368, 21.94141
420.8189, 21.77240
421.3011, 21.73617
421.7832, 21.86980
422.2653, 21.96992
422.7474, 22.00613
423.2295, 22.00641
423.7116, 21.96980
424.1938, 21.90957
424.6759, 21.88742
425.1580, 21.95996
425.6401, 22.11979
426.1222, 22.23053
426.6043, 22.23716
427.0865, 22.26634
427.5686, 22.45456
428.0507, 22.65132
428.5328, 22.60801
429.0149, 22.23462
429.4970, 21.71813
429.9792, 21.37410
430.4613, 21.20729
430.9434, 21.22139
431.4255, 21.61311
431.9076, 21.98174
432.3897, 22.03301
432.8719, 21.83819
433.3540, 21.71207
433.8361, 21.94321
434.3182, 22.44940
434.8003, 22.60942
435.2824, 22.13828
435.7646, 21.74928
436.2467, 21.61028
436.7288, 21.63654
437.2109, 21.79523
437.6930, 22.07908
438.1751, 22.31866
438.6573, 22.22659
439.1394, 21.76581
439.6215, 21.50245
440.1036, 21.61817
440.5857, 21.83891
441.0678, 22.04065
441.5500, 22.20135
442.0321, 22.25595
442.5142, 22.06672
442.9963, 21.79239
443.4784, 21.76513
443.9605, 22.02255
444.4427, 22.23444
444.9248, 22.22264
445.4069, 22.06565
445.8890, 21.89132
446.3711, 21.66733
446.8532, 21.52961
447.3354, 21.62568
447.8175, 21.85436
448.2996, 21.98196
448.7817, 21.94605
449.2638, 21.87472
449.7459, 21.91979
450.2281, 22.09046
450.7102, 22.17363
451.1923, 22.07072
451.6744, 21.95886
452.1565, 21.96836
452.6386, 22.06560
453.1208, 22.13209
453.6029, 22.10294
454.0850, 22.01488
454.5671, 21.96961
455.0492, 21.98792
455.5313, 22.02491
456.0135, 22.10773
456.4956, 22.19052
456.9777, 22.24243
457.4598, 22.25638
457.9419, 22.22996
458.4240, 22.14399
458.9062, 21.99626
459.3883, 21.97639
459.8704, 22.29218
460.3525, 22.50267
460.8346, 22.40954
461.3167, 22.19550
461.7989, 22.13592
462.2810, 22.33948
462.7631, 22.57432
463.2452, 22.40430
463.7273, 21.71841
464.2094, 21.28889
464.6916, 21.32424
465.1737, 21.55152
465.6558, 21.97048
466.1379, 22.47355
466.6200, 22.72479
467.1021, 22.35217
467.5843, 21.69271
468.0664, 21.47346
468.5485, 21.75791
469.0306, 22.01596
469.5127, 21.98628
469.9948, 21.80289
470.4770, 21.67099
470.9591, 21.59388
471.4412, 21.58220
471.9233, 21.68687
472.4054, 21.84976
472.8875, 21.98694
473.3697, 22.08806
473.8518, 22.08831
474.3339, 21.88435
474.8160, 21.48200
475.2981, 21.24607
475.7802, 21.22438
476.2624, 21.31318
476.7445, 21.58413
477.2266, 21.91411
477.7087, 22.05751
478.1908, 21.91583
478.6729, 21.62434
479.1551, 21.41688
479.6372, 21.27407
480.1193, 21.27634
480.6014, 21.59217
481.0835, 21.88229
481.5656, 21.94750
482.0478, 21.82048
482.5299, 21.63670
483.0120, 21.48280
483.4941, 21.34496
483.9762, 21.15958
484.4583, 20.84099
484.9405, 20.65588
485.4226, 20.77512
485.9047, 20.95539
486.3868, 20.98083
486.8689, 20.83667
487.3510, 20.71386
487.8332, 20.82341
488.3153, 21.10465
488.7974, 21.24356
489.2795, 21.17148
489.7616, 21.09856
490.2437, 21.20718
490.7259, 21.38520
491.2080, 21.45022
491.6901, 21.31995
492.1722, 21.17054
492.6543, 21.11743
493.1364, 21.14572
493.6186, 21.23005
494.1007, 21.37903
494.5828, 21.52011
495.0649, 21.56950
495.5470, 21.51815
496.0291, 21.44377
496.5113, 21.37104
496.9934, 21.25492
497.4755, 20.97956
497.9576, 20.64060
498.4397, 20.49869
498.9218, 20.69065
499.4040, 21.03890
499.8861, 21.13453
500.3682, 20.74707
500.8503, 20.52793
501.3324, 20.54903
501.8145, 20.65489
502.2967, 20.80799
502.7788, 20.96533
503.2609, 21.03804
503.7430, 20.94137
504.2251, 20.74020
504.7072, 20.70423
505.1894, 20.92474
505.6715, 21.10128
506.1536, 21.16729
506.6357, 21.15429
507.1178, 21.05164
507.5999, 20.86657
508.0821, 20.69607
508.5642, 20.60279
509.0463, 20.57950
509.5284, 20.63041
510.0105, 20.78248
510.4926, 20.88677
510.9748, 20.79968
511.4569, 20.61236
511.9390, 20.55504
512.4211, 20.75068
512.9032, 20.87281
513.3853, 20.62306
513.8674, 20.22985
514.3495, 20.14273
514.8317, 20.46026
515.3138, 20.83950
515.7959, 20.92173
516.2780, 20.68009
516.7601, 20.53852
517.2422, 20.63681
517.7244, 20.66128
518.2065, 20.42036
518.6886, 20.06841
519.1707, 19.81489
519.6528, 19.73743
520.1349, 19.79846
520.6171, 19.98587
521.0992, 20.38053
521.5813, 20.57156
522.0634, 20.38108
522.5455, 20.15278
523.0276, 19.98772
523.5098, 19.87708
523.9919, 19.78073
524.4740, 19.66669
524.9561, 19.59833
525.4382, 19.72829
525.9203, 20.06168
526.4025, 20.23482
526.8846, 20.08035
527.3667, 19.84806
527.8488, 19.76539
528.3309, 19.81684
528.8130, 19.91955
529.2952, 20.10015
529.7773, 20.28276
530.2594, 20.45257
530.7415, 20.57821
531.2236, 20.48658
531.7057, 20.05125
532.1879, 19.50534
532.6700, 19.31524
533.1521, 19.71856
533.6342, 19.94300
534.1163, 19.78672
534.5984, 19.60810
535.0806, 19.66750
535.5627, 19.91382
536.0448, 20.15114
536.5269, 20.26060
537.0090, 20.26608
537.4911, 20.22134
537.9733, 20.05403
538.4554, 19.99821
538.9375, 20.22545
539.4196, 20.44812
539.9017, 20.46514
540.3839, 20.30100
540.8660, 20.13033
541.3481, 20.06328
541.8302, 20.06616
542.3123, 20.05371
542.7944, 20.01730
543.2766, 20.05150
543.7587, 20.26656
544.2408, 20.50952
544.7229, 20.53285
545.2050, 20.30593
545.6871, 20.14564
546.1693, 20.24340
546.6514, 20.41039
547.1335, 20.44137
547.6156, 20.33293
548.0977, 20.16084
548.5798, 19.94528
549.0620, 19.74035
549.5441, 19.72959
550.0262, 20.18336
550.5083, 20.47323
550.9904, 20.54480
551.4725, 20.49069
551.9547, 20.30349
552.4368, 20.04315
552.9189, 19.86003
553.4010, 19.87104
553.8831, 20.04198
554.3652, 20.27526
554.8474, 20.68043
555.3295, 20.86791
555.8116, 20.52802
556.2937, 20.07662
556.7758, 19.79691
557.2579, 19.70730
557.7401, 19.67138
558.2222, 19.56634
558.7043, 19.48106
559.1864, 19.63480
559.6685, 20.03325
560.1506, 20.33871
560.6328, 20.38066
561.1149, 20.23437
561.5970, 20.00875
562.0791, 19.60138
562.5612, 19.44338
563.0433, 19.81946
563.5255, 20.32123
564.0076, 20.66817
564.4897, 20.82256
564.9718, 20.79545
565.4539, 20.57708
565.9360, 20.23716
566.4182, 20.01198
566.9003, 19.93787
567.3824, 19.91315
567.8645, 19.99020
568.3466, 20.05816
568.8287, 20.03406
569.3109, 19.93368
569.7930, 19.83204
570.2751, 19.76866
570.7572, 19.73991
571.2393, 19.75550
571.7214, 19.82236
572.2036, 19.84594
572.6857, 19.77123
573.1678, 19.66730
573.6499, 19.58690
574.1320, 19.52906
574.6141, 19.58126
575.0963, 19.89685
575.5784, 20.22913
576.0605, 20.37032
576.5426, 20.34142
577.0247, 20.22066
577.5068, 20.03230
577.9890, 19.84309
578.4711, 19.78589
578.9532, 19.93780
579.4353, 20.02753
579.9174, 20.07710
580.3995, 20.05215
580.8817, 19.82127
581.3638, 19.52325
581.8459, 19.45281
582.3280, 19.77028
582.8101, 20.19744
583.2922, 20.21157
583.7744, 19.76854
584.2565, 19.59269
584.7386, 19.99750
585.2207, 20.37158
585.7029, 20.16236
586.1850, 19.59116
586.6671, 19.22704
587.1492, 19.29580
587.6313, 19.48627
588.1135, 19.60125
588.5956, 19.66271
589.0777, 19.72636
589.5598, 19.80678
590.0419, 19.86610
590.5240, 19.84913
591.0062, 19.74821
591.4883, 19.75342
591.9704, 20.00810
592.4525, 20.18266
592.9346, 20.17242
593.4167, 20.05121
593.8989, 19.86392
594.3810, 19.64269
594.8631, 19.47571
595.3452, 19.47300
595.8273, 19.61994
596.3094, 19.75039
596.7916, 19.87344
597.2737, 19.96091
597.7558, 20.02634
598.2379, 20.03513
598.7200, 19.89671
599.2021, 19.57550
599.6843, 19.36158
600.1664, 19.52354
600.6485, 19.82080
601.1306, 19.88439
601.6127, 19.71029
602.0948, 19.54657
602.5770, 19.54110
603.0591, 19.63305
603.5412, 19.65297
604.0233, 19.50202
604.5054, 19.44267
604.9875, 19.50280
605.4697, 19.62820
605.9518, 19.87782
606.4339, 20.16193
606.9160, 20.25552
607.3981, 20.01010
607.8802, 19.61708
608.3624, 19.47894
608.8445, 19.63672
609.3266, 19.72063
609.8087, 19.60256
610.2908, 19.49122
610.7729, 19.59363
611.2551, 19.82951
611.7372, 19.95605
612.2193, 19.86378
612.7014, 19.70453
613.1835, 19.53248
613.6656, 19.38147
614.1478, 19.35344
614.6299, 19.47229
615.1120, 19.60714
615.5941, 19.62386
616.0762, 19.52171
616.5583, 19.43087
617.0405, 19.27479
617.5226, 19.22590
618.0047, 19.44106
618.4868, 19.69781
618.9689, 19.75552
619.4510, 19.59661
619.9332, 19.40773
620.4153, 19.34531
620.8974, 19.37815
621.3795, 19.37576
621.8616, 19.31290
622.3438, 19.36336
622.8259, 19.69696
623.3080, 20.08282
623.7901, 20.19253
624.2722, 20.01320
624.7543, 19.85217
625.2365, 19.79950
625.7186, 19.78970
626.2007, 19.78745
626.6828, 19.78331
627.1649, 19.75734
627.6470, 19.70041
628.1292, 19.63309
628.6113, 19.58246
629.0934, 19.53721
629.5755, 19.55579
630.0576, 19.80577
630.5397, 19.93732
631.0219, 19.73074
631.5040, 19.38794
631.9861, 19.20249
632.4682, 19.26287
632.9503, 19.37107
633.4324, 19.31448
633.9146, 19.16025
634.3967, 19.14888
634.8788, 19.31592
635.3609, 19.46656
635.8430, 19.48699
636.3251, 19.41127
636.8073, 19.33434
637.2894, 19.26425
637.7715, 19.17474
638.2536, 18.94784
638.7357, 18.79260
639.2178, 18.98270
639.7000, 19.39206
640.1821, 19.63160
640.6642, 19.48180
641.1463, 19.12168
641.6284, 18.88568
642.1105, 18.76986
642.5927, 18.81778
643.0748, 19.18529
643.5569, 19.52394
644.0390, 19.63282
644.5211, 19.57998
645.0032, 19.49642
645.4854, 19.40191
645.9675, 19.30930
646.4496, 19.22474
646.9317, 19.14838
647.4138, 19.07831
647.8959, 19.01482
648.3781, 18.96483
648.8602, 18.93165
649.3423, 18.91821
649.8244, 18.93959
650.3065, 19.02444
650.7886, 19.10278
651.2708, 19.18213
651.7529, 19.24634
652.2350, 19.28315
652.7171, 19.29515
653.1992, 19.29715
653.6813, 19.30523
654.1635, 19.28572
654.6456, 19.14795
655.1277, 18.90763
655.6098, 18.78183
656.0919, 18.84784
656.5740, 18.92912
657.0562, 18.85024
657.5383, 18.64306
658.0204, 18.54757
658.5025, 18.61551
658.9846, 18.73121
659.4667, 18.88260
659.9489, 19.05242
660.4310, 19.24934
660.9131, 19.45412
661.3952, 19.60270
661.8773, 19.65032
662.3594, 19.60382
662.8416, 19.45382
663.3237, 19.13218
663.8058, 18.96209
664.2879, 19.11564
664.7700, 19.32024
665.2521, 19.36921
665.7343, 19.30412
666.2164, 19.27365
666.6985, 19.35157
667.1806, 19.43299
667.6627, 19.41519
668.1448, 19.35575
668.6270, 19.40485
669.1091, 19.57878
669.5912, 19.67744
670.0733, 19.49568
670.5554, 19.09598
671.0375, 18.93841
671.5197, 19.24712
672.0018, 19.43225
672.4839, 19.36707
672.9660, 19.22546
673.4481, 19.07745
673.9302, 18.95554
674.4124, 18.91430
674.8945, 18.98938
675.3766, 19.14616
675.8587, 19.42792
676.3408, 19.77464
676.8229, 19.86959
677.3051, 19.61543
677.7872, 19.29243
678.2693, 19.14404
678.7514, 19.15504
679.2335, 19.15089
679.7156, 19.06120
680.1978, 19.05244
680.6799, 19.23145
681.1620, 19.43833
681.6441, 19.54432
682.1262, 19.54786
682.6083, 19.50764
683.0905, 19.45537
683.5726, 19.39250
684.0547, 19.29861
684.5368, 19.17415
685.0189, 19.14804
685.5010, 19.28355
685.9832, 19.43438
686.4653, 19.48636
686.9474, 19.44785
687.4295, 19.37575
687.9116, 19.22104
688.3937, 19.10223
688.8759, 19.10812
689.3580, 19.13025
689.8401, 19.03092
690.3222, 18.82908
690.8043, 18.65882
691.2864, 18.60583
691.7686, 18.64466
692.2507, 18.73118
692.7328, 18.87936
693.2149, 18.98264
693.6970, 18.99447
694.1791, 19.00512
694.6613, 19.07862
695.1434, 19.19641
695.6255, 19.33222
696.1076, 19.54030
696.5897, 19.64609
697.0718, 19.48811
697.5540, 19.23248
698.0361, 19.06249
698.5182, 18.99680
699.0003, 18.99250
699.4824, 19.02557
699.9645, 19.08989
700.4467, 19.17591
700.9288, 19.29420
701.4109, 19.39843
701.8930, 19.55374
702.3751, 19.60657
702.8572, 19.35815
703.3394, 19.00184
703.8215, 18.89404
704.3036, 19.16767
704.7857, 19.44180
705.2678, 19.48702
705.7499, 19.40704
706.2321, 19.32008
706.7142, 19.24166
707.1963, 19.16442
707.6784, 19.07914
708.1605, 19.02419
708.6426, 19.08644
709.1248, 19.31159
709.6069, 19.49309
710.0890, 19.70047
710.5711, 19.77567
711.0532, 19.56131
711.5353, 19.23517
712.0175, 19.03137
712.4996, 18.99822
712.9817, 18.99956
713.4638, 18.91404
713.9459, 18.83373
714.4280, 18.93402
714.9102, 19.17705
715.3923, 19.34892
715.8744, 19.35663
716.3565, 19.27302
716.8386, 19.19670
717.3207, 19.12385
717.8029, 19.08990
718.2850, 19.21828
718.7671, 19.22805
719.2492, 18.87947
719.7313, 18.49649
720.2134, 18.41272
720.6956, 18.65582
721.1777, 18.99517
721.6598, 19.43180
722.1419, 19.79789
722.6240, 19.82318
723.1061, 19.57536
723.5883, 19.29992
724.0704, 19.06364
724.5525, 18.89450
725.0346, 18.82391
725.5167, 18.85061
725.9988, 18.91441
726.4810, 19.01842
726.9631, 19.15785
727.4452, 19.40616
727.9273, 19.62938
728.4094, 19.69874
728.8915, 19.64569
729.3737, 19.61334
729.8558, 19.67629
730.3379, 19.77260
730.8200, 19.84348
731.3021, 19.89460
731.7842, 19.95168
732.2664, 20.01823
732.7485, 20.04427
733.2306, 19.98664
733.7127, 19.86488
734.1948, 19.74772
734.6769, 19.54648
735.1591, 19.51697
735.6412, 19.85972
736.1233, 20.16755
736.6054, 20.17661
737.0875, 20.01566
737.5696, 19.95753
738.0518, 20.10769
738.5339, 20.24594
739.0160, 20.12739
739.4981, 19.90444
739.9802, 19.89664
740.4623, 20.09652
740.9445, 20.22404
741.4266, 20.12386
741.9087, 19.94994
742.3908, 19.99680
742.8729, 20.34932
743.3550, 20.55628
743.8372, 20.56683
744.3193, 20.48461
744.8014, 20.26477
745.2835, 20.00894
745.7656, 19.80898
746.2477, 19.68193
746.7299, 19.63804
747.2120, 19.76011
747.6941, 19.90996
748.1762, 19.89124
748.6583, 19.76324
749.1404, 19.73102
749.6226, 19.85156
750.1047, 19.99191
750.5868, 20.00636
751.0689, 19.91345
751.5510, 19.92526
752.0331, 20.12606
752.5153, 20.26908
752.9974, 20.29857
753.4795, 20.27287
753.9616, 20.16872
754.4437, 20.03592
754.9258, 20.02390
755.4080, 20.22499
755.8901, 20.46532
756.3722, 20.65883
756.8543, 20.80107
757.3364, 20.85831
757.8185, 20.84595
758.3007, 20.86310
758.7828, 20.97581
759.2649, 21.11357
759.7470, 21.11472
760.2291, 20.94686
760.7112, 20.78443
761.1934, 20.53336
761.6755, 20.44129
762.1576, 20.76299
762.6397, 21.24360
763.1218, 21.59572
763.6039, 21.80294
764.0861, 21.82768
764.5682, 21.49491
765.0503, 21.12461
765.5324, 20.92371
766.0145, 20.88667
766.4966, 21.01823
766.9788, 21.29914
767.4609, 21.59031
767.9430, 21.76235
768.4251, 21.81947
768.9072, 21.73745
769.3893, 21.45923
769.8715, 21.35833
770.3536, 21.63402
770.8357, 21.96001
771.3178, 21.96619
771.7999, 21.73688
772.2820, 21.71494
772.7642, 22.14113
773.2463, 22.48529
773.7284, 22.56368
774.2105, 22.53251
774.6926, 22.44901
775.1747, 22.38326
775.6569, 22.51659
776.1390, 22.96321
776.6211, 23.40938
777.1032, 23.36618
777.5853, 22.92162
778.0674, 22.52462
778.5496, 22.18372
779.0317, 22.13015
779.5138, 22.59401
779.9959, 23.23144
780.4780, 23.40726
780.9601, 22.95215
781.4423, 22.71719
781.9244, 22.86569
782.4065, 23.02516
782.8886, 23.05880
783.3707, 23.05490
783.8528, 23.10934
784.3350, 23.23482
784.8171, 23.39979
785.2992, 23.65859
785.7813, 23.86505
786.2634, 23.74956
786.7455, 23.41950
787.2277, 23.23119
787.7098, 23.25531
788.1919, 23.35881
788.6740, 23.44929
789.1561, 23.52053
789.6382, 23.53943
790.1204, 23.45041
790.6025, 23.44249
791.0846, 23.52387
791.5667, 23.69312
792.0488, 24.02231
792.5309, 24.41014
793.0131, 24.72285
793.4952, 24.94771
793.9773, 25.02604
794.4594, 24.73630
794.9415, 24.45139
795.4236, 24.56130
795.9058, 24.95523
796.3879, 25.40550
796.8700, 25.81706
797.3521, 26.03459
797.8342, 25.80478
798.3163, 25.28176
798.7985, 25.37054
799.2806, 26.22795
799.7627, 26.75746
800.2448, 26.55753
800.7269, 26.22314
801.2090, 26.29873
801.6912, 26.69347
802.1733, 26.88727
802.6554, 26.66746
803.1375, 26.58295
803.6196, 26.86239
804.1017, 27.19478
804.5839, 27.35945
805.0660, 27.39666
805.5481, 27.41498
806.0302, 27.45464
806.5123, 27.54186
806.9944, 27.77018
807.4766, 28.04742
807.9587, 28.10256
808.4408, 27.95214
808.9229, 27.89213
809.4050, 28.03844
809.8871, 28.25994
810.3693, 28.39832
810.8514, 28.45508
811.3335, 28.57475
811.8156, 28.86426
812.2977, 29.03736
812.7798, 28.90810
813.2620, 28.78369
813.7441, 29.00599
814.2262, 29.39539
814.7083, 29.37202
815.1904, 28.52995
815.6725, 27.89187
816.1547, 28.29565
816.6368, 29.02158
817.1189, 29.23708
817.6010, 29.00561
818.0831, 28.72397
818.5652, 28.56734
819.0474, 28.56943
819.5295, 28.84626
820.0116, 29.35035
820.4937, 29.64116
820.9758, 29.70096
821.4579, 29.63311
821.9401, 29.40278
822.4222, 29.17483
822.9043, 29.14696
823.3864, 29.30955
823.8685, 29.38499
824.3506, 29.38828
824.8328, 29.28879
825.3149, 28.98498
825.7970, 28.66299
826.2791, 28.42112
826.7612, 28.27600
827.2433, 28.25419
827.7255, 28.38210
828.2076, 28.49973
828.6897, 28.48827
829.1718, 28.37022
829.6539, 28.13222
830.1360, 27.81206
830.6182, 27.55312
831.1003, 27.41024
831.5824, 27.37840
832.0645, 27.49686
832.5466, 27.73126
833.0287, 27.60166
833.5109, 26.94854
833.9930, 26.41021
834.4751, 26.13471
834.9572, 25.99223
835.4393, 25.93715
835.9214, 25.93433
836.4036, 25.87887
836.8857, 25.74535
837.3678, 25.59516
837.8499, 25.44588
838.3320, 25.28300
838.8141, 25.09648
839.2963, 24.88970
839.7784, 24.66764
840.2605, 24.43243
840.7426, 24.18707
841.2247, 23.85544
841.7068, 23.55037
842.1890, 23.54600
842.6711, 23.79161
843.1532, 24.02608
843.6353, 24.18484
844.1174, 24.23454
844.5995, 24.13955
845.0817, 23.91745
845.5638, 23.61708
846.0459, 23.10355
846.5280, 22.90419
847.0101, 23.32733
847.4922, 23.71850
847.9744, 23.66531
848.4565, 23.40339
848.9386, 23.32127
849.4207, 23.49304
849.9028, 23.51745
850.3849, 23.13603
850.8671, 22.73970
851.3492, 22.50745
851.8313, 22.42970
852.3134, 22.55659
852.7955, 22.83442
853.2776, 23.02584
853.7598, 22.97604
854.2419, 22.74591
854.7240, 22.30652
855.2061, 21.75497
855.6882, 21.57401
856.1703, 21.81297
856.6525, 21.92523
857.1346, 21.56919
857.6167, 21.04271
858.0988, 20.91847
858.5809, 21.25019
859.0630, 21.65461
859.5452, 22.33107
860.0273, 22.72270
860.5094, 22.42092
860.9915, 21.95096
861.4736, 21.79350
861.9557, 21.90051
862.4379, 21.92958
862.9200, 21.72769
863.4021, 21.57183
863.8842, 21.59723
864.3663, 21.67647
864.8484, 21.73917
865.3306, 21.75409
865.8127, 21.67066
866.2948, 21.47082
866.7769, 21.24010
867.2590, 20.99856
867.7411, 20.81399
868.2233, 20.87681
868.7054, 21.14757
869.1875, 21.43628
869.6696, 21.69110
870.1517, 21.77222
870.6339, 21.50077
871.1160, 21.00030
871.5981, 20.85904
872.0802, 21.19995
872.5623, 21.46095
873.0444, 21.60399
873.5266, 21.63313
874.0087, 21.47409
874.4908, 21.23431
874.9729, 21.12179
875.4550, 21.16309
875.9371, 21.17894
876.4193, 21.09438
876.9014, 21.04133
877.3835, 21.13870
877.8656, 21.25273
878.3477, 21.19019
878.8298, 20.98942
879.3120, 20.89636
879.7941, 21.07030
880.2762, 21.29366
880.7583, 21.34840
881.2404, 21.31119
881.7225, 21.31266
882.2047, 21.35733
882.6868, 21.39166
883.1689, 21.39277
883.6510, 21.42041
884.1331, 21.60330
884.6152, 21.88546
885.0974, 21.75041
885.5795, 21.10784
886.0616, 20.72554
886.5437, 20.83874
887.0258, 21.12309
887.5079, 21.38449
887.9901, 21.58664
888.4722, 21.57490
888.9543, 21.11650
889.4364, 20.88958
889.9185, 21.15241
890.4006, 21.34338
890.8828, 21.15607
891.3649, 20.82460
891.8470, 20.64010
892.3291, 20.63060
892.8112, 20.63140
893.2933, 20.45796
893.7755, 20.40979
894.2576, 20.93410
894.7397, 21.52852
895.2218, 21.41858
895.7039, 20.74676
896.1860, 20.29206
896.6682, 20.43224
897.1503, 20.76587
897.6324, 20.77864
898.1145, 20.59757
898.5966, 20.64636
899.0787, 20.90168
899.5609, 21.00436
900.0430, 20.83128
900.5251, 20.63896
901.0072, 20.69217
901.4893, 20.91899
901.9714, 20.94296
902.4536, 20.66299
902.9357, 20.57411
903.4178, 20.88548
903.8999, 21.08817
904.3820, 20.79459
904.8641, 20.29513
905.3463, 20.13520
905.8284, 20.37885
906.3105, 20.42441
906.7926, 19.92794
907.2747, 19.61640
907.7568, 19.90464
908.2390, 20.31276
908.7211, 20.39421
909.2032, 20.21481
909.6853, 20.11164
910.1674, 20.22563
910.6495, 20.34093
911.1317, 20.29310
911.6138, 20.18804
912.0959, 20.18353
912.5780, 20.21453
913.0601, 20.05096
913.5422, 19.66746
914.0244, 19.39127
914.5065, 19.54176
914.9886, 19.91805
915.4707, 20.12466
915.9528, 20.17294
916.4349, 20.10491
916.9171, 19.92418
917.3992, 19.77655
917.8813, 19.74853
918.3634, 19.76558
918.8455, 19.68714
919.3276, 19.50018
919.8098, 19.46195
920.2919, 19.63954
920.7740, 19.80265
921.2561, 19.96506
921.7382, 20.00825
922.2203, 19.71708
922.7025, 19.22128
923.1846, 19.03119
923.6667, 19.28907
924.1488, 19.53824
924.6309, 19.75966
925.1130, 19.93817
925.5952, 20.09766
926.0773, 20.19327
926.5594, 20.15861
927.0415, 19.99663
927.5236, 19.78049
928.0057, 19.44965
928.4879, 19.20881
928.9700, 19.26391
929.4521, 19.43140
929.9342, 19.50168
930.4163, 19.48639
930.8984, 19.48444
931.3806, 19.53325
931.8627, 19.59761
932.3448, 19.64913
932.8269, 19.68776
933.3090, 19.68283
933.7911, 19.66073
934.2733, 19.79424
934.7554, 20.10003
935.2375, 20.24411
935.7196, 19.97597
936.2017, 19.53345
936.6838, 19.46672
937.1660, 19.80454
937.6481, 19.90948
938.1302, 19.73481
938.6123, 19.49665
939.0944, 19.18297
939.5765, 19.02007
940.0587, 19.33876
940.5408, 20.02702
941.0229, 20.24563
941.5050, 19.67330
941.9871, 19.22046
942.4692, 18.91467
942.9514, 18.73254
943.4335, 18.63391
943.9156, 18.67399
944.3977, 19.03223
944.8798, 19.70304
945.3619, 20.08886
945.8441, 19.86636
946.3262, 19.59618
946.8083, 19.40714
947.2904, 19.31168
947.7725, 19.35933
948.2546, 19.49550
948.7368, 19.61221
949.2189, 19.67751
949.7010, 19.71485
950.1831, 19.75284
950.6652, 19.75921
951.1473, 19.66836
951.6295, 19.53622
952.1116, 19.48031
952.5937, 19.49785
953.0758, 19.47718
953.5579, 19.35006
954.0400, 19.19522
954.5222, 19.07221
955.0043, 19.01651
955.4864, 19.21202
955.9685, 19.61209
956.4506, 19.84451
956.9327, 19.79817
957.4149, 19.65317
957.8970, 19.55969
958.3791, 19.50822
958.8612, 19.45651
959.3433, 19.39834
959.8254, 19.45930
960.3076, 19.69391
960.7897, 19.83223
961.2718, 19.73207
961.7539, 19.53414
962.2360, 19.39108
962.7181, 19.30680
963.2003, 19.39407
963.6824, 19.81164
964.1645, 20.07384
964.6466, 20.08969
965.1287, 19.99956
965.6108, 19.82637
966.0930, 19.61582
966.5751, 19.39986
967.0572, 19.16257
967.5393, 19.11233
968.0214, 19.38570
968.5035, 19.69581
968.9857, 20.07024
969.4678, 20.35796
969.9499, 20.38849
970.4320, 20.25805
970.9141, 20.19646
971.3962, 20.26668
971.8784, 20.31842
972.3605, 20.24675
972.8426, 20.17268
973.3247, 20.24368
973.8068, 20.32192
974.2889, 20.17248
974.7711, 19.84621
975.2532, 19.61784
975.7353, 19.61753
976.2174, 19.71813
976.6995, 19.86424
977.1816, 20.00040
977.6638, 20.02065
978.1459, 19.97052
978.6280, 19.95418
979.1101, 20.00228
979.5922, 20.13649
980.0743, 20.38899
980.5565, 20.65480
981.0386, 20.75231
981.5207, 20.71845
982.0028, 20.67425
982.4849, 20.62767
982.9670, 20.55867
983.4492, 20.46006
983.9313, 20.43012
984.4134, 20.59089
984.8955, 20.83728
985.3776, 20.79836
985.8597, 20.46285
986.3419, 20.21336
986.8240, 20.08958
987.3061, 19.97359
987.7882, 19.80034
988.2703, 19.65825
988.7524, 19.66623
989.2346, 19.80680
989.7167, 19.89473
990.1988, 19.91921
990.6809, 19.92660
991.1630, 19.93546
991.6451, 19.89341
992.1273, 19.69761
992.6094, 19.50566
993.0915, 19.59798
993.5736, 19.99940
994.0557, 20.21335
994.5378, 20.14755
995.0200, 20.02526
995.5021, 19.74316
995.9842, 19.54142
996.4663, 19.61167
996.9484, 19.81947
997.4305, 19.94743
997.9127, 19.97498
998.3948, 19.97802
998.8769, 19.96064
999.3590, 19.93126
999.8411, 19.85174
1000.323, 19.79833
1000.805, 19.87969
1001.287, 20.01815
1001.770, 20.04661
1002.252, 19.92530
1002.734, 19.77621
1003.216, 19.55033
1003.698, 19.42839
1004.180, 19.61897
1004.662, 19.89359
1005.144, 20.02570
1005.627, 20.01209
1006.109, 19.90271
1006.591, 19.70789
1007.073, 19.57103
1007.555, 19.63331
1008.037, 19.76000
1008.519, 19.91343
1009.001, 19.99478
1009.483, 19.72496
1009.966, 19.21916
1010.448, 18.99521
1010.930, 19.30874
1011.412, 19.72574
1011.894, 19.84065
1012.376, 19.76232
1012.858, 19.53579
1013.340, 19.28339
1013.823, 19.39224
1014.305, 19.84310
1014.787, 20.14681
1015.269, 20.01499
1015.751, 19.72889
1016.233, 19.68133
1016.715, 19.77708
1017.197, 19.76076
1017.679, 19.63845
1018.162, 19.39289
1018.644, 19.04532
1019.126, 18.89706
1019.608, 19.16775
1020.090, 19.60169
1020.572, 19.72376
1021.054, 19.59268
1021.536, 19.69732
1022.018, 20.02531
1022.501, 20.09336
1022.983, 19.77121
1023.465, 19.41726
1023.947, 19.29231
1024.429, 19.30541
1024.911, 19.22793
1025.393, 19.05276
1025.875, 19.22212
1026.358, 19.80773
1026.840, 20.11893
1027.322, 19.93736
1027.804, 19.61738
1028.286, 19.41601
1028.768, 19.29901
1029.250, 19.15376
1029.732, 18.94121
1030.214, 19.05942
1030.697, 19.66864
1031.179, 20.02737
1031.661, 19.83983
1032.143, 19.60216
1032.625, 19.75851
1033.107, 20.10924
1033.589, 20.05135
1034.071, 19.42994
1034.553, 19.10720
1035.036, 19.19692
1035.518, 19.34398
1036.000, 19.53256
1036.482, 19.63964
1036.964, 19.52681
1037.446, 19.27337
1037.928, 19.11120
1038.410, 19.04948
1038.893, 19.04927
1039.375, 19.19619
1039.857, 19.26512
1040.339, 19.06848
1040.821, 18.91804
1041.303, 19.14749
1041.785, 19.59220
1042.267, 19.76126
1042.750, 19.54382
1043.232, 19.42236
1043.714, 19.48138
1044.196, 19.52856
1044.678, 19.53079
1045.160, 19.49693
1045.642, 19.36951
1046.124, 19.22365
1046.606, 19.26924
1047.089, 19.59803
1047.571, 19.77350
1048.053, 19.67357
1048.535, 19.51864
1049.017, 19.24616
1049.499, 19.05276
1049.981, 19.19090
1050.463, 19.49323
1050.945, 19.55926
1051.428, 19.29672
1051.910, 19.11509
1052.392, 19.20646
1052.874, 19.23554
1053.356, 19.02853
1053.838, 18.78222
1054.320, 18.61244
1054.802, 18.53162
1055.285, 18.55058
1055.767, 18.67608
1056.249, 18.83169
1056.731, 19.08795
1057.213, 19.25057
1057.695, 19.16353
1058.177, 19.03628
1058.659, 19.03081
1059.141, 19.10512
1059.624, 19.16101
1060.106, 19.18145
1060.588, 19.20735
1061.070, 19.26098
1061.552, 19.31016
1062.034, 19.32168
1062.516, 19.34352
1062.998, 19.48283
1063.480, 19.62861
1063.963, 19.56255
1064.445, 19.26168
1064.927, 18.98459
1065.409, 18.77655
1065.891, 18.67658
1066.373, 18.82753
1066.855, 18.96915
1067.337, 18.79253
1067.820, 18.52367
1068.302, 18.59752
1068.784, 19.02468
1069.266, 19.29148
1069.748, 19.09889
1070.230, 18.89625
1070.712, 18.82544
1071.194, 18.87503
1071.677, 19.23718
1072.159, 19.59976
1072.641, 19.38452
1073.123, 18.66505
1073.605, 18.27329
1074.087, 18.67438
1074.569, 19.04913
1075.051, 18.94615
1075.533, 18.75627
1076.016, 18.76503
1076.498, 18.85345
1076.980, 18.81635
1077.462, 18.67927
1077.944, 18.66447
1078.426, 18.89770
1078.908, 19.07332
1079.390, 18.97805
1079.873, 18.85844
1080.355, 18.89414
1080.837, 18.98352
1081.319, 18.99434
1081.801, 18.94210
1082.283, 18.93086
1082.765, 19.00343
1083.247, 19.03489
1083.729, 18.80172
1084.212, 18.71002
1084.694, 19.24630
1085.176, 19.84040
1085.658, 19.82747
1086.140, 19.39459
1086.622, 19.12461
1087.104, 19.16365
1087.586, 19.15957
1088.068, 18.88084
1088.551, 18.62963
1089.033, 18.52299
1089.515, 18.53862
1089.997, 18.79153
1090.479, 19.09634
1090.961, 19.07354
1091.443, 18.67637
1091.925, 18.36331
1092.408, 18.43394
1092.890, 18.44544
1093.372, 18.00755
1093.854, 17.66530
1094.336, 17.95917
1094.818, 18.52761
1095.300, 18.82206
1095.782, 18.79580
1096.265, 18.72574
1096.747, 18.68493
1097.229, 18.62430
1097.711, 18.46979
1098.193, 18.35604
1098.675, 18.41825
1099.157, 18.52500
1099.639, 18.50366
1100.121, 18.37717
1100.604, 18.31670
1101.086, 18.40926
1101.568, 18.40803
1102.050, 18.06164
1102.532, 17.84235
1103.014, 18.01142
1103.496, 18.34983
1103.978, 18.76679
1104.460, 19.16391
1104.943, 19.30794
1105.425, 19.10771
1105.907, 19.00365
1106.389, 19.29239
1106.871, 19.38760
1107.353, 18.81997
1107.835, 18.30468
1108.317, 18.42505
1108.800, 18.89451
1109.282, 19.23816
1109.764, 19.42359
1110.246, 19.45380
1110.728, 19.20362
1111.210, 18.98952
1111.692, 18.88538
1112.174, 18.78937
1112.656, 18.56840
1113.139, 18.38308
1113.621, 18.52199
1114.103, 18.93557
1114.585, 19.06864
1115.067, 18.71113
1115.549, 18.44354
1116.031, 18.22425
1116.513, 18.16040
1116.995, 18.41628
1117.478, 18.70039
1117.960, 18.71652
1118.442, 18.56903
1118.924, 18.60682
1119.406, 18.90765
1119.888, 19.08288
1120.370, 19.07516
1120.852, 19.07157
1121.335, 19.19026
1121.817, 19.17086
1122.299, 18.76820
1122.781, 18.20148
1123.263, 17.84312
1123.745, 17.69336
1124.227, 17.84747
1124.709, 18.46006
1125.192, 18.81279
1125.674, 18.76484
1126.156, 18.59643
1126.638, 18.39884
1127.120, 18.23447
1127.602, 18.19326
1128.084, 18.23816
1128.566, 18.14610
1129.048, 17.87297
1129.531, 17.91832
1130.013, 18.36542
1130.495, 18.67645
1130.977, 18.67736
1131.459, 18.52394
1131.941, 18.32209
1132.423, 18.11742
1132.905, 18.01123
1133.387, 18.00001
1133.870, 18.01255
1134.352, 18.05120
1134.834, 18.21126
1135.316, 18.50846
1135.798, 18.78328
1136.280, 18.94946
1136.762, 19.04996
1137.244, 19.16960
1137.727, 19.23917
1138.209, 18.95898
1138.691, 18.43980
1139.173, 18.14073
1139.655, 18.09971
1140.137, 18.29029
1140.619, 18.67212
1141.101, 18.88744
1141.583, 18.60005
1142.066, 18.13751
1142.548, 18.00540
1143.030, 18.06492
1143.512, 18.04604
1143.994, 17.96917
1144.476, 17.91429
1144.958, 17.90766
1145.440, 17.98703
1145.922, 18.17822
1146.405, 18.35699
1146.887, 18.39463
1147.369, 18.37056
1147.851, 18.37370
1148.333, 18.37562
1148.815, 18.32388
1149.297, 18.23278
1149.779, 18.14062
1150.262, 18.06253
1150.744, 18.02189
1151.226, 18.03794
1151.708, 18.08668
1152.190, 18.19470
1152.672, 18.28692
1153.154, 18.29536
1153.636, 18.24916
1154.119, 18.16434
1154.601, 18.06913
1155.083, 18.05752
1155.565, 18.18201
1156.047, 18.29512
1156.529, 18.33302
1157.011, 18.36945
1157.493, 18.47532
1157.975, 18.55720
1158.458, 18.50684
1158.940, 18.38298
1159.422, 18.33306
1159.904, 18.38153
1160.386, 18.31869
1160.868, 18.01533
1161.350, 17.77041
1161.832, 17.48087
1162.314, 17.43458
1162.797, 17.93584
1163.279, 18.55793
1163.761, 18.84837
1164.243, 18.86874
1164.725, 18.91968
1165.207, 19.09587
1165.689, 18.92582
1166.171, 18.21191
1166.654, 17.75735
1167.136, 17.80784
1167.618, 17.99756
1168.100, 18.10049
1168.582, 18.17646
1169.064, 18.36155
1169.546, 18.61433
1170.028, 18.46127
1170.510, 17.88564
1170.993, 17.68091
1171.475, 17.93740
1171.957, 18.05298
1172.439, 17.79405
1172.921, 17.57438
1173.403, 17.79979
1173.885, 18.18737
1174.367, 18.14023
1174.849, 17.78946
1175.332, 17.52444
1175.814, 17.37130
1176.296, 17.43425
1176.778, 17.67499
1177.260, 17.76957
1177.742, 17.56426
1178.224, 17.39973
1178.706, 17.69249
1179.189, 18.10557
1179.671, 18.13614
1180.153, 18.05002
1180.635, 18.36182
1181.117, 18.84970
1181.599, 18.86619
1182.081, 18.37821
1182.563, 18.05875
1183.046, 18.30404
1183.528, 18.49701
1184.010, 18.07178
1184.492, 17.70481
1184.974, 17.98438
1185.456, 18.45244
1185.938, 18.63993
1186.420, 18.59686
1186.902, 18.54550
1187.385, 18.52191
1187.867, 18.48224
1188.349, 18.44685
1188.831, 18.35030
1189.313, 17.95053
1189.795, 17.76070
1190.277, 18.31369
1190.759, 18.95721
1191.241, 19.00732
1191.724, 18.59974
1192.206, 18.25924
1192.688, 17.97939
1193.170, 17.78786
1193.652, 17.67867
1194.134, 17.69062
1194.616, 17.86252
1195.098, 18.07063
1195.581, 18.27959
1196.063, 18.36874
1196.545, 18.11847
1197.027, 17.66214
1197.509, 17.62510
1197.991, 17.97599
1198.473, 18.21862
1198.955, 18.32599
1199.438, 18.39861
1199.920, 18.46129
1200.402, 18.42645
1200.884, 18.22210
1201.366, 18.04351
1201.848, 18.31414
1202.330, 18.67961
1202.812, 18.26607
1203.294, 17.52117
1203.776, 17.44160
1204.259, 17.89409
1204.741, 18.17071
1205.223, 18.08375
1205.705, 17.93506
1206.187, 17.84874
1206.669, 17.87369
1207.151, 18.25897
1207.633, 18.53436
1208.116, 18.15131
1208.598, 17.58737
1209.080, 17.39886
1209.562, 17.52399
1210.044, 17.67852
1210.526, 17.82144
1211.008, 17.87485
1211.490, 17.68363
1211.973, 17.61485
1212.455, 17.90940
1212.937, 18.12055
1213.419, 17.98713
1213.901, 17.75151
1214.383, 17.61626
1214.865, 17.58916
1215.347, 17.71969
1215.829, 18.05145
1216.312, 18.23833
1216.794, 18.26383
1217.276, 18.20749
1217.758, 18.06805
1218.240, 17.93822
1218.722, 17.85701
1219.204, 17.85155
1219.686, 17.97111
1220.168, 18.14492
1220.651, 18.20606
1221.133, 18.16207
1221.615, 17.98291
1222.097, 17.72632
1222.579, 17.61530
1223.061, 17.68302
1223.543, 17.85086
1224.025, 18.08051
1224.508, 18.31023
1224.990, 18.63131
1225.472, 18.74537
1225.954, 18.03181
1226.436, 17.22077
1226.918, 17.28045
1227.400, 17.78726
1227.882, 17.95541
1228.365, 17.73932
1228.847, 17.54685
1229.329, 17.46619
1229.811, 17.51827
1230.293, 17.83410
1230.775, 18.10911
1231.257, 18.31388
1231.739, 18.37106
1232.221, 18.11735
1232.703, 17.76884
1233.186, 17.57387
1233.668, 17.53125
1234.150, 17.66445
1234.632, 18.08036
1235.114, 18.21428
1235.596, 17.97958
1236.078, 17.87824
1236.560, 18.04976
1237.043, 18.18940
1237.525, 18.11476
1238.007, 17.96646
1238.489, 17.92281
1238.971, 17.95229
1239.453, 17.95627
1239.935, 17.96121
1240.417, 18.12541
1240.900, 18.36970
1241.382, 18.35127
1241.864, 18.05752
1242.346, 17.82000
1242.828, 17.79985
1243.310, 17.85277
1243.792, 17.95012
1244.274, 17.97037
1244.756, 17.61616
1245.239, 17.32876
1245.721, 17.75193
1246.203, 18.40529
1246.685, 18.47657
1247.167, 17.99819
1247.649, 17.60836
1248.131, 17.38032
1248.613, 17.35752
1249.095, 17.82595
1249.578, 18.06614
1250.060, 17.80579
1250.542, 17.53332
1251.024, 17.50037
1251.506, 17.55889
1251.988, 17.51202
1252.470, 17.42674
1252.952, 17.62413
1253.435, 18.11883
1253.917, 18.29761
1254.399, 18.15938
1254.881, 17.83363
1255.363, 17.37634
1255.845, 17.20991
1256.327, 17.52136
1256.809, 17.85692
1257.292, 17.76957
1257.774, 17.51694
1258.256, 17.36766
1258.738, 17.34466
1259.220, 17.57113
1259.702, 17.89503
1260.184, 18.06257
1260.666, 18.08175
1261.148, 18.11366
1261.630, 18.20268
1262.113, 18.19972
1262.595, 17.90493
1263.077, 17.72923
1263.559, 17.80972
1264.041, 18.00932
1264.523, 18.48242
1265.005, 18.82576
1265.487, 18.54229
1265.970, 17.97243
1266.452, 17.94140
1266.934, 18.46165
1267.416, 18.66132
1267.898, 18.49994
1268.380, 18.33103
1268.862, 18.19203
1269.344, 17.94784
1269.827, 17.55115
1270.309, 17.18740
1270.791, 16.98301
1271.273, 16.94634
1271.755, 17.19195
1272.237, 17.53773
1272.719, 17.61215
1273.201, 17.56080
1273.683, 17.66250
1274.166, 17.85811
1274.648, 17.97513
1275.130, 17.97044
1275.612, 17.83368
1276.094, 17.50730
1276.576, 17.28549
1277.058, 17.29432
1277.540, 17.41731
1278.022, 17.67929
1278.505, 17.96449
1278.987, 18.32523
1279.469, 18.55723
1279.951, 18.33763
1280.433, 17.81048
1280.915, 17.56654
1281.397, 17.62763
1281.879, 17.92834
1282.362, 18.53127
1282.844, 18.54322
1283.326, 17.80934
1283.808, 17.27947
1284.290, 17.34937
1284.772, 17.68352
1285.254, 18.00272
1285.736, 18.30797
##END=



