##NAMES=Metamunirite
##RRUFFID=R060624
##IDEAL CHEMISTRY=NaV^5+^O_3_
##LOCALITY=Big Gypsum Valley, San Miguel County, Colorado, USA
##OWNER=RRUFF
##SOURCE=Michael Scott
##DESCRIPTION=Tan colored divergent radial spray of bladed crystals
##STATUS=The identification of this mineral is confirmed by single-crystal X-ray diffraction and chemical analysis.
##URL=rruff.info/R060624
##MEASURED CHEMISTRY=(Na_0.98_Ca_0.02_)_Σ=1_(V^5+^_0.99_Al_0.01_)_Σ=1_O_3_
90.52570, 0.0000000E+00
91.00781, 37.78674
91.48993, 37.68303
91.97205, 37.64272
92.45416, 37.64655
92.93628, 37.71382
93.41840, 37.90472
93.90051, 38.26017
94.38263, 38.68613
94.86475, 39.04961
95.34686, 39.35072
95.82898, 39.60301
96.31110, 39.69759
96.79321, 39.67186
97.27533, 39.94521
97.75745, 40.65890
98.23956, 41.73087
98.72168, 42.84479
99.20380, 44.01276
99.68591, 45.15016
100.1680, 45.97567
100.6501, 46.28825
101.1323, 47.23964
101.6144, 49.19975
102.0965, 52.21556
102.5786, 55.64463
103.0607, 59.46389
103.5428, 63.73973
104.0250, 68.67540
104.5071, 74.24174
104.9892, 80.44679
105.4713, 87.21935
105.9534, 94.39827
106.4355, 102.4271
106.9177, 111.0337
107.3998, 120.4640
107.8819, 131.8351
108.3640, 145.2531
108.8461, 160.3903
109.3282, 177.3429
109.8104, 195.5169
110.2925, 215.7635
110.7746, 237.8653
111.2567, 261.7866
111.7388, 288.2711
112.2209, 317.0847
112.7031, 348.3545
113.1852, 382.5251
113.6673, 421.0639
114.1494, 460.9000
114.6315, 501.5331
115.1136, 543.2997
115.5958, 585.5976
116.0779, 628.1284
116.5600, 671.1680
117.0421, 714.8358
117.5242, 760.1516
118.0063, 805.8673
118.4885, 851.5082
118.9706, 896.7538
119.4527, 943.4004
119.9348, 993.5508
120.4169, 1045.550
120.8990, 1097.198
121.3812, 1146.908
121.8633, 1195.675
122.3454, 1243.744
122.8275, 1291.353
123.3096, 1338.683
123.7917, 1386.346
124.2739, 1434.025
124.7560, 1480.553
125.2381, 1524.901
125.7202, 1567.828
126.2023, 1609.375
126.6844, 1648.049
127.1666, 1687.822
127.6487, 1733.042
128.1308, 1784.011
128.6129, 1841.346
129.0950, 1907.146
129.5771, 1980.507
130.0593, 2058.543
130.5414, 2139.610
131.0235, 2224.414
131.5056, 2314.077
131.9877, 2399.717
132.4698, 2473.483
132.9520, 2545.521
133.4341, 2615.375
133.9162, 2665.820
134.3983, 2694.239
134.8804, 2700.423
135.3625, 2675.700
135.8447, 2618.646
136.3268, 2536.778
136.8089, 2434.276
137.2910, 2307.707
137.7731, 2179.389
138.2552, 2053.843
138.7374, 1930.309
139.2195, 1819.052
139.7016, 1719.793
140.1837, 1630.816
140.6658, 1550.251
141.1479, 1476.696
141.6301, 1412.258
142.1122, 1357.573
142.5943, 1313.416
143.0764, 1275.773
143.5585, 1244.531
144.0406, 1219.225
144.5228, 1197.542
145.0049, 1180.712
145.4870, 1166.088
145.9691, 1152.370
146.4512, 1138.392
146.9333, 1126.956
147.4155, 1118.697
147.8976, 1113.294
148.3797, 1108.436
148.8618, 1103.576
149.3439, 1099.593
149.8260, 1097.035
150.3082, 1096.170
150.7903, 1096.370
151.2724, 1097.877
151.7545, 1100.705
152.2366, 1103.385
152.7188, 1105.303
153.2009, 1107.285
153.6830, 1109.972
154.1651, 1113.420
154.6472, 1117.535
155.1293, 1122.465
155.6115, 1128.348
156.0936, 1133.950
156.5757, 1138.655
157.0578, 1143.140
157.5399, 1148.091
158.0220, 1155.026
158.5042, 1161.359
158.9863, 1165.744
159.4684, 1167.639
159.9505, 1170.028
160.4326, 1174.690
160.9147, 1180.279
161.3969, 1184.781
161.8790, 1186.821
162.3611, 1188.113
162.8432, 1189.553
163.3253, 1191.313
163.8074, 1192.998
164.2896, 1194.463
164.7717, 1195.699
165.2538, 1196.694
165.7359, 1196.182
166.2180, 1196.103
166.7001, 1198.058
167.1823, 1202.788
167.6644, 1208.430
168.1465, 1213.447
168.6286, 1218.348
169.1107, 1224.590
169.5928, 1232.287
170.0750, 1241.985
170.5571, 1254.396
171.0392, 1269.573
171.5213, 1287.393
172.0034, 1307.866
172.4855, 1331.025
172.9677, 1356.373
173.4498, 1382.531
173.9319, 1411.145
174.4140, 1444.655
174.8961, 1484.699
175.3782, 1528.793
175.8604, 1575.238
176.3425, 1624.360
176.8246, 1676.677
177.3067, 1733.343
177.7888, 1794.156
178.2709, 1857.611
178.7531, 1923.543
179.2352, 1992.555
179.7173, 2065.435
180.1994, 2142.460
180.6815, 2224.026
181.1636, 2308.543
181.6458, 2397.487
182.1279, 2492.411
182.6100, 2595.706
183.0921, 2705.035
183.5742, 2819.074
184.0563, 2935.867
184.5385, 3056.984
185.0206, 3180.924
185.5027, 3309.040
185.9848, 3441.761
186.4669, 3581.550
186.9490, 3726.148
187.4312, 3873.392
187.9133, 4020.208
188.3954, 4172.479
188.8775, 4334.235
189.3596, 4504.397
189.8417, 4681.599
190.3239, 4865.166
190.8060, 5055.411
191.2881, 5246.902
191.7702, 5438.571
192.2523, 5627.875
192.7344, 5814.432
193.2166, 5997.479
193.6987, 6173.367
194.1808, 6343.110
194.6629, 6505.873
195.1450, 6659.897
195.6271, 6805.015
196.1093, 6942.039
196.5914, 7072.820
197.0735, 7197.636
197.5556, 7312.841
198.0377, 7419.214
198.5198, 7517.723
199.0020, 7596.485
199.4841, 7657.125
199.9662, 7695.176
200.4483, 7706.375
200.9304, 7691.688
201.4125, 7644.518
201.8947, 7559.860
202.3768, 7436.689
202.8589, 7289.481
203.3410, 7117.531
203.8231, 6921.977
204.3052, 6704.302
204.7874, 6459.729
205.2695, 6208.979
205.7516, 5959.333
206.2337, 5710.119
206.7158, 5466.016
207.1979, 5225.655
207.6801, 4990.790
208.1622, 4768.717
208.6443, 4558.519
209.1264, 4359.659
209.6085, 4171.867
210.0906, 3995.064
210.5728, 3828.881
211.0549, 3674.937
211.5370, 3531.465
212.0191, 3398.902
212.5012, 3277.088
212.9833, 3163.927
213.4655, 3060.268
213.9476, 2966.778
214.4297, 2877.816
214.9118, 2792.031
215.3939, 2711.519
215.8760, 2639.478
216.3581, 2577.959
216.8403, 2521.881
217.3224, 2469.659
217.8045, 2420.867
218.2866, 2375.931
218.7687, 2335.200
219.2508, 2298.307
219.7330, 2265.408
220.2151, 2236.604
220.6972, 2211.556
221.1793, 2190.608
221.6614, 2174.225
222.1435, 2160.017
222.6257, 2147.415
223.1078, 2137.043
223.5899, 2130.605
224.0720, 2129.491
224.5541, 2130.122
225.0362, 2130.429
225.5184, 2128.438
226.0005, 2131.189
226.4826, 2139.618
226.9647, 2152.679
227.4468, 2167.924
227.9289, 2185.797
228.4111, 2205.121
228.8932, 2224.979
229.3753, 2243.483
229.8574, 2267.006
230.3395, 2296.254
230.8216, 2330.199
231.3038, 2366.657
231.7859, 2404.909
232.2680, 2446.367
232.7501, 2491.704
233.2322, 2541.310
233.7143, 2593.633
234.1965, 2649.077
234.6786, 2707.449
235.1607, 2768.801
235.6428, 2832.862
236.1249, 2900.207
236.6070, 2971.361
237.0892, 3047.821
237.5713, 3124.497
238.0534, 3200.130
238.5355, 3276.245
239.0176, 3356.533
239.4997, 3442.855
239.9819, 3532.361
240.4640, 3623.478
240.9461, 3718.040
241.4282, 3811.025
241.9103, 3901.456
242.3924, 3990.630
242.8746, 4081.464
243.3567, 4173.505
243.8388, 4267.949
244.3209, 4365.830
244.8030, 4466.908
245.2851, 4569.556
245.7673, 4673.628
246.2494, 4779.409
246.7315, 4887.578
247.2136, 4998.795
247.6957, 5111.437
248.1778, 5225.287
248.6600, 5339.452
249.1421, 5455.683
249.6242, 5577.111
250.1063, 5699.720
250.5884, 5816.388
251.0705, 5928.836
251.5527, 6032.784
252.0348, 6126.113
252.5169, 6210.171
252.9990, 6281.729
253.4811, 6342.396
253.9632, 6390.198
254.4454, 6421.268
254.9275, 6435.902
255.4096, 6433.713
255.8917, 6413.466
256.3738, 6373.575
256.8560, 6322.902
257.3381, 6259.536
257.8202, 6186.725
258.3023, 6107.069
258.7844, 6019.118
259.2665, 5929.408
259.7487, 5839.825
260.2308, 5751.180
260.7129, 5659.168
261.1950, 5560.955
261.6771, 5462.825
262.1592, 5373.759
262.6414, 5296.495
263.1235, 5223.245
263.6056, 5152.393
264.0877, 5083.114
264.5698, 5019.429
265.0519, 4961.375
265.5341, 4909.070
266.0162, 4861.941
266.4983, 4820.109
266.9804, 4783.961
267.4625, 4752.087
267.9446, 4724.844
268.4268, 4710.624
268.9089, 4713.008
269.3910, 4722.540
269.8731, 4728.439
270.3552, 4727.849
270.8373, 4735.016
271.3195, 4753.476
271.8016, 4782.676
272.2837, 4817.687
272.7658, 4859.448
273.2479, 4905.920
273.7300, 4955.891
274.2122, 5009.014
274.6943, 5066.583
275.1764, 5128.660
275.6585, 5195.134
276.1406, 5264.948
276.6227, 5337.652
277.1049, 5415.333
277.5870, 5501.226
278.0691, 5596.109
278.5512, 5690.791
279.0333, 5784.369
279.5154, 5876.504
279.9976, 5965.999
280.4797, 6053.146
280.9618, 6137.296
281.4439, 6221.306
281.9260, 6304.835
282.4081, 6381.070
282.8903, 6449.758
283.3724, 6509.923
283.8545, 6558.038
284.3366, 6593.572
284.8187, 6622.666
285.3008, 6651.091
285.7830, 6678.118
286.2651, 6691.532
286.7472, 6689.148
287.2293, 6675.182
287.7114, 6656.271
288.1935, 6632.394
288.6757, 6603.657
289.1578, 6571.122
289.6399, 6533.993
290.1220, 6489.923
290.6041, 6438.350
291.0862, 6380.425
291.5684, 6318.478
292.0505, 6251.877
292.5326, 6178.200
293.0147, 6099.009
293.4968, 6011.866
293.9789, 5906.263
294.4611, 5782.535
294.9432, 5643.177
295.4253, 5492.228
295.9074, 5328.167
296.3895, 5148.750
296.8716, 4946.146
297.3538, 4727.532
297.8359, 4503.568
298.3180, 4272.014
298.8001, 4042.741
299.2822, 3818.824
299.7643, 3600.844
300.2465, 3393.625
300.7286, 3198.503
301.2107, 3015.609
301.6928, 2842.069
302.1749, 2679.452
302.6570, 2528.152
303.1392, 2392.340
303.6213, 2268.659
304.1034, 2154.548
304.5855, 2048.022
305.0676, 1950.456
305.5497, 1861.047
306.0319, 1780.093
306.5140, 1704.531
306.9961, 1633.193
307.4782, 1566.971
307.9603, 1506.380
308.4424, 1453.053
308.9246, 1403.558
309.4067, 1355.625
309.8888, 1309.615
310.3709, 1265.639
310.8530, 1224.486
311.3351, 1185.508
311.8173, 1148.249
312.2994, 1112.143
312.7815, 1077.936
313.2636, 1046.910
313.7457, 1018.318
314.2278, 990.5928
314.7100, 963.0604
315.1921, 936.5446
315.6742, 911.5812
316.1563, 888.3909
316.6384, 866.1645
317.1205, 844.6811
317.6027, 824.3116
318.0848, 805.6533
318.5669, 790.1976
319.0490, 775.3143
319.5311, 759.7114
320.0132, 743.2625
320.4954, 727.7728
320.9775, 714.2382
321.4596, 701.7422
321.9417, 689.7220
322.4238, 678.2120
322.9059, 666.9921
323.3881, 655.8544
323.8702, 644.9319
324.3523, 634.6249
324.8344, 624.9919
325.3165, 616.0184
325.7986, 607.6052
326.2808, 599.6632
326.7629, 592.3903
327.2450, 586.2831
327.7271, 580.9891
328.2092, 575.0875
328.6913, 567.7323
329.1735, 560.5162
329.6556, 553.9606
330.1377, 548.3278
330.6198, 542.8499
331.1019, 537.4874
331.5840, 532.2984
332.0662, 527.2628
332.5483, 522.1719
333.0304, 517.5045
333.5125, 513.7665
333.9946, 511.3421
334.4767, 507.4000
334.9589, 500.9307
335.4410, 493.9776
335.9231, 489.3108
336.4052, 487.8519
336.8873, 486.3785
337.3694, 484.1715
337.8515, 481.2792
338.3336, 478.1963
338.8158, 474.8073
339.2979, 471.4790
339.7800, 468.5224
340.2621, 466.0143
340.7442, 463.5336
341.2263, 461.0099
341.7085, 458.5077
342.1906, 456.4820
342.6727, 455.0055
343.1548, 453.4479
343.6369, 451.2593
344.1190, 448.4979
344.6012, 445.7619
345.0833, 443.0151
345.5654, 440.5374
346.0475, 439.2373
346.5296, 439.0154
347.0117, 438.2267
347.4939, 435.2960
347.9760, 431.0643
348.4581, 428.2533
348.9402, 427.1151
349.4223, 426.7213
349.9044, 426.3007
350.3866, 425.7938
350.8687, 424.9963
351.3508, 423.7019
351.8329, 422.1150
352.3150, 420.4920
352.7971, 418.8289
353.2793, 417.2168
353.7614, 415.7398
354.2435, 414.3279
354.7256, 412.7907
355.2077, 410.6442
355.6898, 408.8967
356.1720, 408.8668
356.6541, 410.1664
357.1362, 411.1230
357.6183, 410.5921
358.1004, 409.3915
358.5826, 408.2065
359.0647, 407.1192
359.5468, 406.1755
360.0289, 405.2945
360.5110, 404.5797
360.9931, 404.2270
361.4753, 404.7299
361.9574, 405.2863
362.4395, 405.5190
362.9216, 405.3806
363.4037, 405.0012
363.8858, 404.3017
364.3680, 403.4321
364.8501, 402.5468
365.3322, 400.9745
365.8143, 400.1297
366.2964, 400.7491
366.7785, 402.7986
367.2607, 404.3215
367.7428, 404.7926
368.2249, 404.9306
368.7070, 405.1660
369.1891, 405.5875
369.6712, 405.9781
370.1534, 405.9491
370.6355, 405.8665
371.1176, 406.9433
371.5997, 409.9348
372.0818, 413.0993
372.5639, 415.7331
373.0461, 417.6072
373.5282, 419.7570
374.0103, 422.4418
374.4924, 425.1898
374.9745, 427.1670
375.4566, 428.1164
375.9388, 429.1579
376.4209, 430.7006
376.9030, 432.7132
377.3851, 434.3002
377.8672, 435.4708
378.3493, 436.2998
378.8315, 436.7901
379.3136, 436.9495
379.7957, 436.9941
380.2778, 436.8857
380.7599, 436.7783
381.2420, 437.0714
381.7242, 437.7592
382.2063, 438.5999
382.6884, 439.6703
383.1705, 440.7873
383.6526, 440.9601
384.1347, 439.7773
384.6169, 438.8876
385.0990, 440.5542
385.5811, 444.2974
386.0632, 448.5255
386.5453, 453.0073
387.0274, 457.3225
387.5096, 460.6303
387.9917, 462.9241
388.4738, 465.2282
388.9559, 468.1776
389.4380, 471.6031
389.9201, 475.3093
390.4023, 479.1425
390.8844, 483.3181
391.3665, 487.9765
391.8486, 493.1245
392.3307, 498.6191
392.8128, 505.0420
393.2950, 511.3549
393.7771, 516.7332
394.2592, 520.4647
394.7413, 524.7582
395.2234, 530.2961
395.7055, 536.7988
396.1877, 543.8378
396.6698, 551.9210
397.1519, 559.9432
397.6340, 567.2523
398.1161, 573.6014
398.5982, 581.3816
399.0804, 591.4670
399.5625, 602.6243
400.0446, 613.9465
400.5267, 624.8989
401.0088, 636.8769
401.4909, 649.8964
401.9731, 663.9873
402.4552, 679.0372
402.9373, 695.0069
403.4194, 712.0182
403.9015, 730.0519
404.3836, 748.9672
404.8658, 769.4579
405.3479, 791.2050
405.8300, 814.6642
406.3121, 840.4554
406.7942, 868.4086
407.2763, 899.7946
407.7585, 934.9045
408.2406, 973.9266
408.7227, 1016.424
409.2048, 1061.991
409.6869, 1112.505
410.1690, 1169.143
410.6512, 1231.615
411.1333, 1300.658
411.6154, 1375.783
412.0975, 1458.895
412.5796, 1554.314
413.0617, 1661.470
413.5439, 1778.716
414.0260, 1907.740
414.5081, 2046.727
414.9902, 2192.202
415.4723, 2344.849
415.9544, 2502.019
416.4366, 2660.743
416.9187, 2821.580
417.4008, 2984.668
417.8829, 3152.117
418.3650, 3321.507
418.8471, 3490.111
419.3293, 3658.399
419.8114, 3838.899
420.2935, 4031.594
420.7756, 4241.147
421.2577, 4465.374
421.7398, 4706.044
422.2220, 4964.148
422.7041, 5239.541
423.1862, 5534.273
423.6683, 5852.451
424.1504, 6205.500
424.6325, 6576.965
425.1147, 6962.229
425.5968, 7368.126
426.0789, 7771.357
426.5610, 8179.460
427.0431, 8578.354
427.5252, 8956.103
428.0074, 9324.480
428.4895, 9646.209
428.9716, 9922.244
429.4537, 10142.82
429.9358, 10280.94
430.4179, 10346.47
430.9001, 10295.71
431.3822, 10097.38
431.8643, 9750.598
432.3464, 9309.788
432.8285, 8763.653
433.3106, 8161.140
433.7928, 7541.070
434.2749, 6908.799
434.7570, 6308.392
435.2391, 5749.742
435.7212, 5234.157
436.2033, 4762.004
436.6855, 4337.192
437.1676, 3957.672
437.6497, 3630.193
438.1318, 3345.968
438.6139, 3093.619
439.0960, 2873.328
439.5782, 2677.182
440.0603, 2503.003
440.5424, 2347.309
441.0245, 2206.163
441.5066, 2079.871
441.9887, 1964.063
442.4709, 1857.038
442.9530, 1758.614
443.4351, 1666.745
443.9172, 1583.513
444.3993, 1505.473
444.8814, 1431.285
445.3636, 1358.980
445.8457, 1291.875
446.3278, 1231.800
446.8099, 1177.568
447.2920, 1124.566
447.7741, 1071.542
448.2563, 1020.632
448.7384, 973.4958
449.2205, 929.9039
449.7026, 888.0809
450.1847, 848.2797
450.6668, 810.5367
451.1490, 774.9260
451.6311, 741.1347
452.1132, 710.4737
452.5953, 683.2065
453.0774, 658.9078
453.5595, 634.8303
454.0417, 610.7267
454.5238, 588.3364
455.0059, 568.4553
455.4880, 551.0323
455.9701, 535.0534
456.4522, 520.6664
456.9344, 507.0953
457.4165, 493.2807
457.8986, 479.5233
458.3807, 467.1358
458.8628, 456.7285
459.3449, 447.4806
459.8271, 438.3839
460.3092, 429.5265
460.7913, 421.1145
461.2734, 413.5019
461.7555, 406.2789
462.2376, 398.8836
462.7198, 391.1490
463.2019, 384.0129
463.6840, 378.2783
464.1661, 373.3297
464.6482, 368.4227
465.1303, 363.3148
465.6125, 358.2701
466.0946, 353.3472
466.5767, 348.5109
467.0588, 343.8357
467.5409, 339.2536
468.0230, 334.8922
468.5052, 330.7846
468.9873, 326.8380
469.4694, 323.4135
469.9515, 320.6919
470.4336, 318.3521
470.9157, 315.9303
471.3979, 313.4327
471.8800, 310.8683
472.3621, 308.1393
472.8442, 305.3661
473.3263, 302.9645
473.8084, 300.9261
474.2906, 299.3156
474.7727, 298.5016
475.2548, 298.2473
475.7369, 297.2931
476.2190, 295.3695
476.7011, 293.2796
477.1833, 291.8913
477.6654, 291.0932
478.1475, 290.5860
478.6296, 290.5703
479.1117, 290.5602
479.5938, 289.9449
480.0760, 288.8111
480.5581, 287.7615
481.0402, 287.3597
481.5223, 287.0474
482.0044, 286.2635
482.4865, 284.5915
482.9687, 283.3374
483.4508, 283.2679
483.9329, 283.7967
484.4150, 284.0875
484.8971, 284.1205
485.3792, 283.7654
485.8614, 282.7637
486.3435, 281.1819
486.8256, 279.9881
487.3077, 279.3397
487.7898, 278.9075
488.2719, 278.4691
488.7541, 277.8625
489.2362, 277.9015
489.7183, 278.9297
490.2004, 280.1546
490.6825, 280.1512
491.1646, 278.7442
491.6468, 277.9356
492.1289, 278.5998
492.6110, 280.1216
493.0931, 280.6368
493.5752, 280.1574
494.0573, 279.5967
494.5395, 279.5349
495.0216, 279.8737
495.5037, 280.4517
495.9858, 281.2633
496.4679, 282.1800
496.9500, 283.2676
497.4322, 284.3463
497.9143, 285.0972
498.3964, 285.1059
498.8785, 285.0174
499.3606, 285.0993
499.8427, 285.3672
500.3249, 285.8718
500.8070, 286.8813
501.2891, 287.9406
501.7712, 288.7880
502.2533, 289.2964
502.7354, 289.8756
503.2176, 290.3091
503.6997, 290.9527
504.1818, 292.2101
504.6639, 294.4476
505.1460, 296.6336
505.6281, 298.7184
506.1103, 300.6316
506.5924, 301.9127
507.0745, 302.3569
507.5566, 302.8767
508.0387, 303.9724
508.5208, 305.6155
509.0030, 307.2393
509.4851, 308.8180
509.9672, 310.5177
510.4493, 312.5467
510.9314, 314.8519
511.4135, 317.2567
511.8957, 319.6837
512.3778, 322.2140
512.8599, 324.8104
513.3420, 327.5640
513.8242, 330.7197
514.3063, 334.9891
514.7884, 339.3575
515.2705, 342.9540
515.7526, 345.7054
516.2347, 348.3915
516.7169, 350.7120
517.1990, 353.4381
517.6811, 357.1924
518.1632, 363.3716
518.6453, 368.8056
519.1274, 371.9901
519.6096, 374.4677
520.0917, 379.1773
520.5738, 387.9050
521.0559, 395.8070
521.5380, 401.1549
522.0201, 404.1874
522.5023, 409.2882
522.9844, 416.9842
523.4665, 425.3409
523.9486, 432.8336
524.4307, 439.5658
524.9128, 447.0499
525.3950, 455.3419
525.8771, 464.3635
526.3592, 474.3405
526.8413, 484.9582
527.3234, 495.3766
527.8055, 504.3788
528.2877, 513.7307
528.7698, 525.9491
529.2519, 540.4730
529.7340, 555.3982
530.2161, 569.2543
530.6982, 583.3224
531.1804, 598.6512
531.6625, 615.0204
532.1446, 633.1016
532.6267, 652.7523
533.1088, 674.2862
533.5909, 697.6779
534.0731, 723.6822
534.5552, 750.9171
535.0373, 779.5314
535.5194, 809.1730
536.0015, 840.3817
536.4836, 872.3679
536.9658, 906.9698
537.4479, 944.2582
537.9300, 984.1160
538.4121, 1028.643
538.8942, 1077.948
539.3763, 1130.554
539.8585, 1185.202
540.3406, 1242.026
540.8227, 1301.765
541.3048, 1365.208
541.7869, 1431.157
542.2690, 1498.195
542.7512, 1566.783
543.2333, 1638.104
543.7154, 1713.316
544.1975, 1790.886
544.6796, 1868.839
545.1617, 1948.226
545.6439, 2030.554
546.1260, 2117.521
546.6081, 2207.011
547.0902, 2298.107
547.5723, 2389.693
548.0544, 2483.123
548.5366, 2581.101
549.0187, 2680.448
549.5008, 2778.827
549.9829, 2877.780
550.4650, 2973.146
550.9471, 3065.615
551.4293, 3153.604
551.9114, 3236.806
552.3935, 3316.580
552.8756, 3385.184
553.3577, 3439.488
553.8398, 3480.277
554.3220, 3513.263
554.8041, 3538.810
555.2862, 3547.437
555.7683, 3530.297
556.2504, 3491.470
556.7325, 3438.585
557.2147, 3372.645
557.6968, 3292.697
558.1789, 3194.947
558.6610, 3082.934
559.1431, 2962.935
559.6252, 2833.005
560.1074, 2700.194
560.5895, 2565.260
561.0716, 2428.856
561.5537, 2296.090
562.0358, 2163.890
562.5179, 2037.720
563.0001, 1920.068
563.4822, 1811.622
563.9643, 1709.008
564.4464, 1611.731
564.9285, 1520.866
565.4106, 1436.129
565.8928, 1357.141
566.3749, 1285.384
566.8570, 1220.776
567.3391, 1162.177
567.8212, 1108.266
568.3033, 1058.440
568.7855, 1011.971
569.2676, 968.2850
569.7497, 927.5120
570.2318, 889.1470
570.7139, 853.6443
571.1960, 819.7878
571.6782, 786.6599
572.1603, 755.5120
572.6424, 728.1257
573.1245, 704.5101
573.6066, 682.7152
574.0887, 662.2841
574.5709, 642.9578
575.0530, 624.3194
575.5351, 606.0076
576.0172, 588.5618
576.4993, 571.9734
576.9814, 556.2217
577.4636, 541.5599
577.9457, 528.0768
578.4278, 515.5162
578.9099, 504.1640
579.3920, 493.8135
579.8741, 483.5479
580.3563, 473.3712
580.8384, 463.8505
581.3205, 455.8184
581.8026, 448.6107
582.2847, 440.4865
582.7668, 431.3351
583.2490, 422.4488
583.7311, 414.8302
584.2131, 408.1815
584.6953, 402.0167
585.1774, 396.2134
585.6595, 391.0384
586.1416, 387.0322
586.6237, 383.6602
587.1058, 380.0445
587.5880, 375.5583
588.0701, 371.2799
588.5522, 367.4173
589.0343, 363.9498
589.5164, 360.8681
589.9985, 358.4849
590.4807, 355.9468
590.9628, 352.8311
591.4449, 349.1235
591.9270, 345.3841
592.4091, 341.5072
592.8912, 338.0372
593.3734, 335.5580
593.8555, 333.9284
594.3376, 332.6651
594.8197, 331.8205
595.3018, 330.8461
595.7839, 328.9973
596.2661, 326.6058
596.7482, 324.2978
597.2303, 322.0303
597.7124, 320.2109
598.1945, 319.3761
598.6766, 319.2142
599.1588, 318.8223
599.6409, 317.6561
600.1230, 316.4883
600.6051, 315.6374
601.0872, 315.1352
601.5693, 314.6248
602.0515, 314.4064
602.5336, 313.7733
603.0157, 311.9542
603.4978, 308.5150
603.9799, 306.7015
604.4620, 306.9159
604.9442, 307.8206
605.4263, 307.7367
605.9084, 306.8148
606.3905, 305.8990
606.8726, 305.0513
607.3547, 304.5435
607.8369, 305.0797
608.3190, 306.2399
608.8011, 306.9673
609.2832, 306.4247
609.7653, 305.5627
610.2474, 304.9157
610.7296, 304.4683
611.2117, 304.0230
611.6938, 303.5092
612.1759, 302.9865
612.6580, 302.4046
613.1401, 301.6214
613.6223, 301.4247
614.1044, 302.1721
614.5865, 303.0250
615.0686, 303.2036
615.5507, 302.6288
616.0328, 302.0658
616.5150, 301.5433
616.9971, 301.1848
617.4792, 301.4355
617.9613, 302.1037
618.4434, 302.2352
618.9255, 301.1707
619.4077, 299.8454
619.8898, 299.1967
620.3719, 299.1624
620.8540, 299.5265
621.3361, 300.8389
621.8182, 301.9539
622.3004, 302.0704
622.7825, 301.1698
623.2646, 300.4249
623.7467, 300.1283
624.2288, 299.9871
624.7109, 299.8304
625.1931, 299.5659
625.6752, 299.5929
626.1573, 299.9343
626.6394, 300.5154
627.1215, 301.5331
627.6036, 303.0042
628.0858, 303.3688
628.5679, 302.0894
629.0500, 300.3767
629.5321, 300.1336
630.0142, 301.0065
630.4963, 301.8782
630.9785, 302.2298
631.4606, 302.4798
631.9427, 303.0309
632.4248, 303.7926
632.9069, 304.4720
633.3890, 305.0633
633.8712, 305.4372
634.3533, 305.4881
634.8354, 305.1908
635.3175, 304.8679
635.7996, 304.2915
636.2817, 303.9615
636.7639, 304.3891
637.2460, 305.9934
637.7281, 305.9461
638.2102, 303.8078
638.6923, 301.2499
639.1744, 300.2545
639.6566, 300.5579
640.1387, 300.5431
640.6208, 299.8849
641.1029, 298.9281
641.5850, 298.2200
642.0671, 297.5003
642.5493, 296.2257
643.0314, 293.3118
643.5135, 290.6505
643.9956, 289.5432
644.4777, 289.5240
644.9598, 289.1068
645.4420, 287.2646
645.9241, 285.7157
646.4062, 285.1325
646.8883, 285.4619
647.3704, 285.3894
647.8525, 284.8908
648.3347, 284.0431
648.8168, 282.7569
649.2989, 281.0382
649.7810, 279.7268
650.2631, 278.8688
650.7452, 278.0731
651.2274, 276.8206
651.7095, 275.3895
652.1916, 274.3144
652.6737, 273.7051
653.1558, 273.4881
653.6379, 273.9531
654.1201, 274.6615
654.6022, 275.0389
655.0843, 274.8595
655.5664, 274.3960
656.0485, 273.3748
656.5306, 272.1477
657.0128, 271.5290
657.4949, 271.9521
657.9770, 272.1410
658.4591, 271.6276
658.9412, 270.6648
659.4233, 270.5162
659.9055, 271.2705
660.3876, 271.8650
660.8697, 271.5125
661.3518, 270.6144
661.8339, 270.0898
662.3160, 269.9427
662.7982, 270.1138
663.2803, 270.8470
663.7624, 271.7141
664.2445, 272.2120
664.7266, 272.1844
665.2087, 272.3965
665.6909, 273.3182
666.1730, 274.4592
666.6551, 275.4097
667.1372, 276.0460
667.6193, 276.6615
668.1014, 277.1487
668.5836, 277.7149
669.0657, 278.7101
669.5478, 280.1665
670.0299, 281.5752
670.5120, 282.8514
670.9941, 283.9957
671.4763, 285.1341
671.9584, 286.1718
672.4405, 286.7551
672.9226, 285.8121
673.4047, 285.1065
673.8868, 286.6554
674.3690, 289.8444
674.8511, 292.5344
675.3332, 293.2190
675.8153, 293.8638
676.2974, 295.4491
676.7795, 298.0570
677.2617, 300.2955
677.7438, 302.0619
678.2259, 303.6353
678.7080, 305.0497
679.1901, 306.2778
679.6722, 308.1597
680.1544, 310.8236
680.6365, 313.5234
681.1186, 315.2527
681.6007, 316.5190
682.0828, 318.7687
682.5649, 322.2881
683.0471, 326.2040
683.5292, 330.0371
684.0113, 333.6843
684.4934, 336.9314
684.9755, 339.6834
685.4576, 342.1421
685.9398, 343.9635
686.4219, 345.6603
686.9040, 348.0736
687.3861, 351.4333
687.8682, 355.0547
688.3503, 358.8260
688.8325, 362.8043
689.3146, 367.1620
689.7967, 371.8927
690.2788, 376.4264
690.7609, 380.2926
691.2430, 383.9513
691.7252, 388.4301
692.2073, 393.5927
692.6894, 398.6385
693.1715, 402.8158
693.6536, 406.9464
694.1357, 411.5440
694.6179, 416.6327
695.1000, 422.1033
695.5821, 428.4218
696.0642, 434.6516
696.5463, 440.0680
697.0284, 444.2867
697.5106, 450.4273
697.9927, 459.0545
698.4748, 468.3214
698.9569, 476.3166
699.4390, 483.3528
699.9211, 492.0016
700.4033, 502.6159
700.8854, 513.5502
701.3675, 522.8660
701.8496, 531.4968
702.3317, 540.8918
702.8138, 551.2574
703.2960, 562.5291
703.7781, 574.6075
704.2602, 587.5809
704.7423, 601.5555
705.2244, 616.8171
705.7065, 632.7344
706.1887, 649.1092
706.6708, 666.1115
707.1529, 684.8069
707.6350, 705.3544
708.1171, 726.4407
708.5992, 747.3719
709.0814, 769.0894
709.5635, 794.1898
710.0456, 822.4556
710.5277, 852.2283
711.0098, 881.8347
711.4919, 913.2077
711.9741, 947.9688
712.4562, 985.7161
712.9383, 1026.033
713.4204, 1068.377
713.9025, 1113.774
714.3846, 1162.896
714.8668, 1216.006
715.3489, 1270.862
715.8310, 1327.178
716.3131, 1386.694
716.7952, 1451.125
717.2773, 1519.846
717.7595, 1591.893
718.2416, 1666.965
718.7237, 1745.576
719.2058, 1827.578
719.6879, 1913.791
720.1700, 2003.986
720.6522, 2098.984
721.1343, 2196.918
721.6164, 2299.477
722.0985, 2403.556
722.5806, 2509.135
723.0627, 2615.074
723.5449, 2723.059
724.0270, 2835.040
724.5091, 2948.415
724.9912, 3061.578
725.4733, 3176.690
725.9554, 3287.052
726.4376, 3392.410
726.9197, 3493.329
727.4018, 3590.640
727.8839, 3682.905
728.3660, 3765.837
728.8481, 3840.334
729.3303, 3902.712
729.8124, 3950.187
730.2945, 3983.128
730.7766, 4001.596
731.2587, 4005.962
731.7408, 3995.733
732.2230, 3970.633
732.7051, 3930.728
733.1872, 3873.677
733.6693, 3797.323
734.1514, 3711.508
734.6335, 3618.037
735.1157, 3517.094
735.5978, 3407.187
736.0799, 3289.126
736.5620, 3169.565
737.0441, 3050.110
737.5262, 2932.054
738.0084, 2814.444
738.4905, 2697.908
738.9726, 2584.586
739.4547, 2475.675
739.9368, 2369.882
740.4189, 2265.918
740.9011, 2163.676
741.3832, 2067.810
741.8653, 1978.693
742.3474, 1893.767
742.8295, 1813.037
743.3116, 1736.078
743.7938, 1662.000
744.2759, 1590.768
744.7580, 1523.429
745.2401, 1461.992
745.7222, 1405.214
746.2043, 1350.846
746.6865, 1298.586
747.1686, 1248.740
747.6507, 1200.689
748.1328, 1155.100
748.6149, 1112.188
749.0970, 1073.009
749.5792, 1035.879
750.0613, 1000.752
750.5434, 967.5760
751.0255, 935.9293
751.5076, 906.0723
751.9897, 877.6414
752.4719, 850.3980
752.9540, 824.8796
753.4361, 801.0165
753.9182, 778.7803
754.4003, 757.5615
754.8824, 737.4629
755.3646, 718.4259
755.8467, 700.9248
756.3288, 684.3178
756.8109, 668.4910
757.2930, 653.2048
757.7751, 638.6238
758.2573, 624.5486
758.7394, 611.1740
759.2215, 598.9325
759.7036, 587.9803
760.1857, 576.0095
760.6678, 562.6257
761.1500, 549.3494
761.6321, 538.4175
762.1142, 529.3523
762.5963, 520.9166
763.0784, 513.0582
763.5605, 505.2599
764.0427, 495.8182
764.5248, 486.7355
765.0069, 480.5210
765.4890, 483.0817
765.9711, 481.2936
766.4532, 472.0018
766.9354, 459.5555
767.4175, 450.2945
767.8996, 444.7296
768.3817, 438.9091
768.8638, 431.9577
769.3459, 424.8477
769.8281, 419.2231
770.3102, 414.8160
770.7923, 410.9044
771.2744, 407.6403
771.7565, 404.1518
772.2386, 399.3219
772.7208, 393.9262
773.2029, 389.3154
773.6850, 386.7117
774.1671, 383.7564
774.6492, 379.9298
775.1313, 375.6511
775.6135, 371.7630
776.0956, 368.3118
776.5777, 365.1701
777.0598, 362.3999
777.5419, 359.7743
778.0240, 356.6732
778.5062, 353.3043
778.9883, 350.3105
779.4704, 348.5668
779.9525, 346.7361
780.4346, 343.8268
780.9167, 340.2261
781.3989, 336.8274
781.8810, 333.7451
782.3631, 330.9716
782.8452, 328.6132
783.3273, 326.5591
783.8094, 324.5805
784.2916, 322.7279
784.7737, 320.2582
785.2558, 316.3726
785.7379, 312.2628
786.2200, 310.6134
786.7021, 310.7485
787.1843, 310.4736
787.6664, 308.4053
788.1485, 305.9247
788.6306, 303.5444
789.1127, 301.3384
789.5948, 299.6505
790.0770, 299.0010
790.5591, 298.0613
791.0412, 296.2742
791.5233, 294.0495
792.0054, 293.1238
792.4875, 293.5392
792.9697, 293.4334
793.4518, 291.5181
793.9339, 289.0137
794.4160, 288.1256
794.8981, 288.3771
795.3802, 288.1839
795.8624, 286.4360
796.3445, 284.4229
796.8266, 282.5888
797.3087, 280.9929
797.7908, 279.7750
798.2729, 279.2998
798.7551, 278.5150
799.2372, 276.9966
799.7193, 274.9826
800.2014, 273.3197
800.6835, 271.9933
801.1656, 270.6738
801.6478, 269.1480
802.1299, 267.5960
802.6120, 266.1314
803.0941, 264.7938
803.5762, 263.6856
804.0583, 263.1849
804.5405, 262.5860
805.0226, 261.6185
805.5047, 260.3279
805.9868, 258.8556
806.4689, 257.1810
806.9510, 255.4053
807.4332, 253.5049
807.9153, 251.5670
808.3974, 249.9055
808.8795, 248.4930
809.3616, 247.1616
809.8438, 245.7357
810.3259, 244.4524
810.8080, 243.6639
811.2901, 243.2105
811.7722, 242.5381
812.2543, 241.2945
812.7365, 240.0615
813.2186, 239.0654
813.7007, 238.1723
814.1828, 236.8153
814.6649, 234.8931
815.1470, 233.2262
815.6292, 232.1096
816.1113, 231.4548
816.5934, 231.4575
817.0755, 231.8478
817.5576, 231.7386
818.0397, 229.9252
818.5219, 228.2840
819.0040, 228.0675
819.4861, 228.8204
819.9682, 229.0273
820.4503, 228.4418
820.9324, 227.5363
821.4146, 226.1730
821.8967, 224.7513
822.3788, 224.6154
822.8609, 225.6632
823.3430, 226.2652
823.8251, 225.6241
824.3073, 224.5152
824.7894, 223.6727
825.2715, 223.0913
825.7536, 222.7201
826.2357, 222.6141
826.7178, 222.6391
827.2000, 222.9117
827.6821, 223.2511
828.1642, 223.2662
828.6463, 222.8050
829.1284, 222.5737
829.6105, 222.7506
830.0927, 223.1648
830.5748, 223.6455
831.0569, 224.1184
831.5390, 224.2990
832.0211, 223.8621
832.5032, 223.4914
832.9854, 223.7155
833.4675, 224.3065
833.9496, 224.9173
834.4317, 225.8415
834.9138, 226.2302
835.3959, 225.7298
835.8781, 224.9511
836.3602, 224.8040
836.8423, 225.2898
837.3244, 226.0595
837.8065, 227.1027
838.2886, 228.2109
838.7708, 229.1740
839.2529, 230.0329
839.7350, 230.8786
840.2171, 231.8321
840.6992, 232.5763
841.1813, 232.6431
841.6635, 232.6658
842.1456, 233.4261
842.6277, 235.4570
843.1098, 236.4316
843.5919, 235.9515
844.0740, 235.1473
844.5562, 235.5705
845.0383, 236.7717
845.5204, 237.3140
846.0025, 236.8871
846.4846, 236.4612
846.9667, 236.9851
847.4489, 237.6970
847.9310, 237.7967
848.4131, 236.7338
848.8952, 236.3221
849.3773, 237.0450
849.8594, 237.7978
850.3416, 237.5689
850.8237, 236.3955
851.3058, 235.9464
851.7879, 236.3174
852.2700, 236.7546
852.7521, 236.5376
853.2343, 236.0812
853.7164, 235.8048
854.1985, 235.7529
854.6806, 236.0144
855.1627, 237.1575
855.6448, 238.1104
856.1270, 238.2070
856.6091, 237.4182
857.0912, 237.2792
857.5733, 237.8856
858.0554, 238.5972
858.5375, 238.9274
859.0197, 239.0970
859.5018, 239.7016
859.9839, 240.6570
860.4660, 241.4511
860.9481, 241.2723
861.4302, 241.3448
861.9124, 242.6482
862.3945, 245.0344
862.8766, 246.5430
863.3587, 246.5423
863.8408, 247.0951
864.3229, 249.0264
864.8051, 251.9239
865.2872, 254.3850
865.7693, 256.5719
866.2514, 259.3256
866.7335, 263.5213
867.2156, 267.9520
867.6978, 271.1291
868.1799, 273.8102
868.6620, 277.7921
869.1441, 283.7020
869.6262, 290.6783
870.1083, 298.6989
870.5905, 307.7729
871.0726, 317.6003
871.5547, 328.3164
872.0368, 340.6256
872.5189, 354.4666
873.0010, 370.5727
873.4832, 389.4493
873.9653, 411.5453
874.4474, 437.3500
874.9295, 467.1534
875.4116, 500.7176
875.8937, 539.4819
876.3759, 581.1644
876.8580, 623.6277
877.3401, 667.0260
877.8222, 710.0529
878.3043, 752.5278
878.7864, 795.5876
879.2686, 838.8597
879.7507, 884.6384
880.2328, 936.1142
880.7149, 993.3705
881.1970, 1060.280
881.6791, 1140.082
882.1613, 1229.298
882.6434, 1327.494
883.1255, 1435.150
883.6076, 1545.566
884.0897, 1660.158
884.5718, 1773.052
885.0540, 1882.057
885.5361, 1986.914
886.0182, 2087.996
886.5003, 2183.941
886.9824, 2257.192
887.4645, 2311.688
887.9467, 2327.118
888.4288, 2290.365
888.9109, 2200.215
889.3930, 2064.656
889.8751, 1869.332
890.3572, 1662.806
890.8394, 1454.619
891.3215, 1252.555
891.8036, 1078.346
892.2857, 932.8436
892.7678, 812.2269
893.2499, 719.9238
893.7321, 648.1447
894.2142, 594.5702
894.6963, 555.9263
895.1784, 526.8000
895.6605, 509.0224
896.1426, 496.3852
896.6248, 488.5857
897.1069, 485.3298
897.5890, 486.7805
898.0711, 492.6708
898.5532, 500.4416
899.0353, 509.8841
899.5175, 520.1768
899.9996, 531.0134
900.4817, 542.2139
900.9638, 553.3625
901.4459, 564.2814
901.9280, 575.8556
902.4102, 586.9742
902.8923, 600.2860
903.3744, 617.3574
903.8565, 638.3278
904.3386, 663.6865
904.8207, 693.1670
905.3029, 725.3137
905.7850, 759.9744
906.2671, 795.4232
906.7492, 830.2686
907.2313, 864.3072
907.7134, 898.2021
908.1956, 935.8840
908.6777, 969.3722
909.1598, 998.2830
909.6419, 1020.906
910.1240, 1029.945
910.6061, 1025.520
911.0883, 1003.838
911.5704, 958.7631
912.0525, 901.0059
912.5346, 837.8203
913.0167, 772.7135
913.4988, 713.2983
913.9810, 660.1324
914.4631, 615.9064
914.9452, 581.9415
915.4273, 556.1479
915.9094, 536.1735
916.3915, 522.2736
916.8737, 513.2416
917.3558, 509.2978
917.8379, 508.4582
918.3200, 509.4550
918.8021, 511.7029
919.2842, 514.2466
919.7664, 516.6876
920.2485, 520.3484
920.7306, 526.5515
921.2127, 533.3651
921.6948, 539.6740
922.1769, 545.4968
922.6591, 550.7305
923.1412, 555.3145
923.6233, 560.0684
924.1054, 565.4308
924.5875, 571.4421
925.0696, 578.0979
925.5518, 585.4807
926.0339, 594.0349
926.5160, 603.7912
926.9981, 614.8433
927.4802, 626.2928
927.9623, 639.0330
928.4445, 655.4637
928.9266, 675.4605
929.4087, 701.3401
929.8908, 732.7888
930.3729, 773.1710
930.8550, 823.7943
931.3372, 887.6125
931.8193, 968.6650
932.3014, 1068.838
932.7835, 1186.595
933.2656, 1330.564
933.7477, 1486.311
934.2299, 1645.843
934.7120, 1809.426
935.1941, 1966.659
935.6762, 2115.792
936.1583, 2264.944
936.6404, 2406.124
937.1226, 2558.226
937.6047, 2738.685
938.0868, 2949.515
938.5689, 3204.260
939.0510, 3506.105
939.5331, 3856.496
940.0153, 4265.794
940.4974, 4726.368
940.9795, 5199.534
941.4616, 5689.177
941.9437, 6179.731
942.4258, 6657.969
942.9080, 7133.688
943.3901, 7654.712
943.8722, 8170.163
944.3543, 8571.025
944.8364, 8955.482
945.3185, 9029.752
945.8007, 8728.714
946.2828, 8149.037
946.7649, 7347.337
947.2470, 6331.081
947.7291, 5378.063
948.2112, 4517.976
948.6934, 3773.830
949.1755, 3170.152
949.6576, 2684.965
950.1397, 2292.200
950.6218, 1995.536
951.1039, 1748.589
951.5861, 1552.328
952.0682, 1388.714
952.5503, 1252.650
953.0324, 1142.329
953.5145, 1047.005
953.9966, 966.7381
954.4788, 897.1920
954.9609, 837.8036
955.4430, 785.5935
955.9251, 739.1267
956.4072, 697.9432
956.8893, 661.0262
957.3715, 629.8702
957.8536, 600.2831
958.3357, 571.6829
958.8178, 545.0433
959.2999, 522.4780
959.7820, 503.4132
960.2642, 485.9193
960.7463, 469.5562
961.2284, 454.1385
961.7105, 439.2839
962.1926, 425.2832
962.6747, 412.2878
963.1569, 400.3251
963.6390, 389.0289
964.1211, 378.2233
964.6032, 368.3249
965.0853, 360.1821
965.5674, 353.1523
966.0496, 345.4432
966.5317, 337.3051
967.0138, 329.5752
967.4959, 322.6571
967.9780, 316.3831
968.4601, 311.0848
968.9423, 306.4024
969.4244, 301.7179
969.9065, 296.9433
970.3886, 292.3847
970.8707, 288.0506
971.3528, 283.9486
971.8350, 279.9330
972.3171, 276.1416
972.7992, 272.7912
973.2813, 269.9789
973.7634, 267.1859
974.2455, 264.3221
974.7277, 261.3073
975.2098, 258.0695
975.6919, 254.6022
976.1740, 251.3355
976.6561, 248.2698
977.1382, 245.3927
977.6204, 242.7864
978.1025, 240.2632
978.5846, 237.5728
979.0667, 234.7751
979.5488, 231.9897
980.0309, 229.1477
980.5131, 226.5682
980.9952, 224.4202
981.4773, 222.4302
981.9594, 220.2955
982.4415, 217.9763
982.9236, 214.9008
983.4058, 210.9092
983.8879, 206.8182
984.3700, 202.8404
984.8521, 199.4135
985.3342, 197.1610
985.8163, 196.5185
986.2985, 195.1470
986.7806, 192.7400
987.2627, 190.2613
987.7448, 188.2184
988.2269, 186.4642
988.7090, 184.4708
989.1912, 182.3347
989.6733, 180.4520
990.1554, 179.0659
990.6375, 177.9265
991.1196, 177.0746
991.6017, 176.3674
992.0839, 175.5701
992.5660, 174.6548
993.0481, 173.7747
993.5302, 172.9473
994.0123, 172.1343
994.4944, 171.3049
994.9766, 170.4494
995.4587, 169.3715
995.9408, 168.0050
996.4229, 167.3656
996.9050, 168.8388
997.3871, 169.9767
997.8693, 169.5587
998.3514, 167.9171
998.8335, 167.0697
999.3156, 166.9845
999.7977, 167.0764
1000.280, 167.2608
1000.762, 167.2846
1001.244, 166.8761
1001.726, 166.1572
1002.208, 165.3186
1002.690, 164.0882
1003.173, 163.3104
1003.655, 163.1288
1004.137, 163.1779
1004.619, 163.1377
1005.101, 163.0172
1005.583, 162.8103
1006.065, 162.5211
1006.547, 162.3134
1007.029, 162.6583
1007.512, 162.7526
1007.994, 161.6868
1008.476, 159.8843
1008.958, 159.4597
1009.440, 160.6976
1009.922, 161.5139
1010.404, 161.1950
1010.886, 160.3675
1011.369, 159.7269
1011.851, 159.2449
1012.333, 158.8854
1012.815, 158.7139
1013.297, 158.4884
1013.779, 158.2417
1014.261, 157.8488
1014.743, 157.2174
1015.225, 156.3500
1015.708, 155.2893
1016.190, 154.0515
1016.672, 152.8902
1017.154, 151.7528
1017.636, 150.9689
1018.118, 151.0982
1018.600, 151.7893
1019.082, 151.8455
1019.565, 150.8466
1020.047, 150.2178
1020.529, 150.2751
1021.011, 150.5403
1021.493, 150.1867
1021.975, 149.5821
1022.457, 149.6863
1022.939, 150.7899
1023.421, 151.4031
1023.904, 150.6521
1024.386, 149.4129
1024.868, 147.9576
1025.350, 146.3769
1025.832, 145.6161
1026.314, 145.6683
1026.796, 145.8287
1027.278, 145.8311
1027.760, 145.7198
1028.243, 145.5143
1028.725, 145.2363
1029.207, 144.9255
1029.689, 144.7945
1030.171, 144.2137
1030.653, 142.9762
1031.135, 141.7033
1031.617, 140.9626
1032.100, 140.6855
1032.582, 140.7178
1033.064, 141.0255
1033.546, 141.3450
1034.028, 141.6878
1034.510, 141.8479
1034.992, 141.6109
1035.474, 141.1369
1035.957, 140.9101
1036.439, 140.9476
1036.921, 140.8582
1037.403, 140.5058
1037.885, 140.1497
1038.367, 140.1786
1038.849, 140.3299
1039.331, 140.2456
1039.813, 139.7669
1040.296, 139.4696
1040.778, 139.4185
1041.260, 139.4862
1041.742, 139.7078
1042.224, 139.9572
1042.706, 139.5542
1043.188, 138.7374
1043.670, 138.4214
1044.152, 139.7665
1044.635, 140.8698
1045.117, 140.6303
1045.599, 139.8775
1046.081, 139.6927
1046.563, 140.1683
1047.045, 140.4662
1047.527, 140.5279
1048.009, 140.4884
1048.492, 140.2226
1048.974, 140.0909
1049.456, 140.6994
1049.938, 141.9739
1050.420, 142.6716
1050.902, 142.5381
1051.384, 142.0630
1051.866, 141.1115
1052.349, 140.2665
1052.831, 141.1913
1053.313, 143.1093
1053.795, 143.6857
1054.277, 141.9548
1054.759, 140.5144
1055.241, 141.0621
1055.723, 141.8653
1056.205, 141.7347
1056.688, 140.7013
1057.170, 140.0351
1057.652, 139.7350
1058.134, 139.6257
1058.616, 139.7508
1059.098, 139.8732
1059.580, 139.7600
1060.062, 139.4896
1060.544, 139.2048
1061.027, 138.9228
1061.509, 138.6411
1061.991, 138.3712
1062.473, 138.0722
1062.955, 137.6261
1063.437, 137.1467
1063.919, 136.9192
1064.401, 136.9320
1064.884, 136.9353
1065.366, 136.9718
1065.848, 136.7823
1066.330, 136.2480
1066.812, 135.4938
1067.294, 134.6449
1067.776, 133.7599
1068.258, 133.4615
1068.740, 133.9650
1069.223, 134.5956
1069.705, 134.9637
1070.187, 135.1206
1070.669, 135.0667
1071.151, 134.7989
1071.633, 134.5425
1072.115, 134.2831
1072.597, 134.0797
1073.079, 133.8800
1073.562, 133.8526
1074.044, 134.4747
1074.526, 135.4056
1075.008, 136.0363
1075.490, 136.2833
1075.972, 135.9304
1076.454, 134.5354
1076.936, 133.2992
1077.419, 133.3776
1077.901, 134.4465
1078.383, 135.0359
1078.865, 135.1660
1079.347, 135.1030
1079.829, 134.8028
1080.311, 134.5533
1080.793, 134.5842
1081.275, 134.7007
1081.758, 134.5223
1082.240, 134.0122
1082.722, 133.8965
1083.204, 134.2957
1083.686, 134.7694
1084.168, 134.9422
1084.650, 135.0039
1085.132, 135.2400
1085.615, 135.6272
1086.097, 135.4244
1086.579, 134.3269
1087.061, 133.5815
1087.543, 133.6356
1088.025, 134.0339
1088.507, 134.0713
1088.989, 133.9255
1089.471, 133.9506
1089.953, 134.3237
1090.436, 134.4834
1090.918, 134.1158
1091.400, 133.7756
1091.882, 133.8062
1092.364, 134.0831
1092.846, 133.9672
1093.328, 133.5512
1093.810, 133.2853
1094.293, 133.5776
1094.775, 133.7856
1095.257, 133.4201
1095.739, 132.9406
1096.221, 132.9026
1096.703, 133.3993
1097.185, 133.4133
1097.667, 132.9098
1098.150, 132.5222
1098.632, 132.8653
1099.114, 133.4033
1099.596, 133.8126
1100.078, 134.0315
1100.560, 133.8423
1101.042, 132.8794
1101.524, 132.7232
1102.006, 133.7989
1102.489, 134.9513
1102.971, 134.5519
1103.453, 133.5358
1103.935, 133.4632
1104.417, 134.4450
1104.899, 135.1631
1105.381, 135.3392
1105.863, 135.0984
1106.345, 134.2447
1106.828, 133.2710
1107.310, 133.4763
1107.792, 134.4584
1108.274, 134.9244
1108.756, 134.4561
1109.238, 134.0465
1109.720, 134.2821
1110.202, 134.6144
1110.685, 134.7397
1111.167, 134.6843
1111.649, 134.5544
1112.131, 134.3786
1112.613, 134.4152
1113.095, 134.5440
1113.577, 135.3170
1114.059, 138.0355
1114.542, 141.0894
1115.024, 142.5939
1115.506, 142.3642
1115.988, 141.2424
1116.470, 139.1196
1116.952, 137.1985
1117.434, 136.2914
1117.916, 136.0055
1118.398, 136.1591
1118.880, 136.5695
1119.363, 136.8012
1119.845, 136.7356
1120.327, 136.5842
1120.809, 136.2948
1121.291, 136.1295
1121.773, 136.4383
1122.255, 137.0113
1122.737, 137.5459
1123.220, 138.0079
1123.702, 138.3237
1124.184, 138.4014
1124.666, 138.3865
1125.148, 138.2387
1125.630, 138.1052
1126.112, 138.3109
1126.594, 138.7221
1127.077, 138.8824
1127.559, 138.7183
1128.041, 138.6254
1128.523, 138.6861
1129.005, 139.0241
1129.487, 139.8797
1129.969, 140.9373
1130.451, 141.0785
1130.933, 140.4364
1131.416, 140.0740
1131.898, 140.3454
1132.380, 140.6154
1132.862, 140.1770
1133.344, 139.7975
1133.826, 140.2559
1134.308, 141.4739
1134.790, 141.8243
1135.272, 141.2834
1135.755, 140.9342
1136.237, 141.3642
1136.719, 141.9040
1137.201, 141.7810
1137.683, 141.4670
1138.165, 141.6113
1138.647, 142.3608
1139.129, 143.1632
1139.612, 144.0960
1140.094, 144.5691
1140.576, 143.8944
1141.058, 142.8136
1141.540, 142.1927
1142.022, 141.9000
1142.504, 141.6467
1142.986, 141.2300
1143.469, 141.1575
1143.951, 141.4978
1144.433, 142.0089
1144.915, 142.8797
1145.397, 143.5857
1145.879, 142.6788
1146.361, 140.6347
1146.843, 139.4813
1147.325, 140.7367
1147.807, 141.7124
1148.290, 142.0880
1148.772, 142.0663
1149.254, 141.6532
1149.736, 141.0916
1150.218, 141.1976
1150.700, 141.9416
1151.182, 142.2604
1151.664, 141.1326
1152.147, 140.2404
1152.629, 140.1960
1153.111, 140.4818
1153.593, 140.0606
1154.075, 139.1244
1154.557, 138.4590
1155.039, 138.1961
1155.521, 137.9774
1156.004, 137.5731
1156.486, 137.2101
1156.968, 137.0235
1157.450, 136.9403
1157.932, 136.6500
1158.414, 136.2108
1158.896, 136.1287
1159.378, 136.6487
1159.860, 136.9373
1160.343, 136.2042
1160.825, 135.2444
1161.307, 134.6415
1161.789, 134.3366
1162.271, 133.7642
1162.753, 132.9422
1163.235, 132.2816
1163.717, 131.8910
1164.199, 131.7962
1164.682, 132.4250
1165.164, 133.0746
1165.646, 132.9051
1166.128, 131.8426
1166.610, 131.5744
1167.092, 132.1403
1167.574, 132.4305
1168.056, 131.7242
1168.539, 130.7743
1169.021, 130.1775
1169.503, 129.7986
1169.985, 129.4493
1170.467, 129.0883
1170.949, 128.9239
1171.431, 128.9890
1171.913, 128.9823
1172.396, 128.5699
1172.878, 128.1207
1173.360, 128.0838
1173.842, 128.2757
1174.324, 128.3375
1174.806, 128.2093
1175.288, 127.9966
1175.770, 127.6698
1176.252, 127.4215
1176.734, 127.6012
1177.217, 127.7953
1177.699, 127.2075
1178.181, 126.2091
1178.663, 125.9869
1179.145, 127.2423
1179.627, 127.8801
1180.109, 127.6755
1180.591, 127.1493
1181.074, 126.6161
1181.556, 126.1911
1182.038, 126.2018
1182.520, 126.5120
1183.002, 126.3889
1183.484, 125.2389
1183.966, 124.7635
1184.448, 125.3278
1184.931, 126.1289
1185.413, 126.2398
1185.895, 125.9890
1186.377, 125.8940
1186.859, 125.9688
1187.341, 125.9961
1187.823, 125.9774
1188.305, 125.8025
1188.787, 125.4069
1189.270, 124.9467
1189.752, 124.4290
1190.234, 124.0889
1190.716, 124.4838
1191.198, 125.6374
1191.680, 126.5552
1192.162, 127.1648
1192.644, 127.2200
1193.126, 126.4694
1193.609, 125.5173
1194.091, 125.3598
1194.573, 125.7078
1195.055, 126.1885
1195.537, 126.7761
1196.019, 126.7454
1196.501, 125.3862
1196.983, 124.4196
1197.466, 124.4348
1197.948, 124.9714
1198.430, 125.2948
1198.912, 125.4667
1199.394, 125.6212
1199.876, 125.7917
1200.358, 125.8336
1200.840, 125.5772
1201.323, 125.4531
1201.805, 125.6692
1202.287, 126.0364
1202.769, 126.2644
1203.251, 126.3192
1203.733, 126.1063
1204.215, 125.5626
1204.697, 124.9312
1205.179, 124.1626
1205.661, 123.4817
1206.144, 122.9597
1206.626, 122.6308
1207.108, 122.6475
1207.590, 122.9106
1208.072, 123.2500
1208.554, 123.7203
1209.036, 123.8683
1209.518, 123.4332
1210.001, 123.0999
1210.483, 123.3732
1210.965, 123.8294
1211.447, 123.1885
1211.929, 121.9734
1212.411, 121.3536
1212.893, 121.9459
1213.375, 122.4020
1213.858, 122.5180
1214.340, 122.5700
1214.822, 122.7254
1215.304, 122.9186
1215.786, 123.0063
1216.268, 123.0051
1216.750, 122.9320
1217.232, 122.6715
1217.714, 122.6461
1218.197, 123.0295
1218.679, 123.3247
1219.161, 123.2799
1219.643, 122.8856
1220.125, 121.6558
1220.607, 120.1174
1221.089, 119.5002
1221.571, 120.8147
1222.053, 121.9466
1222.536, 122.8777
1223.018, 123.3893
1223.500, 123.0268
1223.982, 122.3578
1224.464, 122.6529
1224.946, 123.5162
1225.428, 124.0470
1225.910, 123.7272
1226.393, 123.4527
1226.875, 123.1966
1227.357, 123.1108
1227.839, 123.6601
1228.321, 124.2277
1228.803, 123.3900
1229.285, 121.8152
1229.767, 121.0629
1230.250, 122.0141
1230.732, 122.8333
1231.214, 123.5417
1231.696, 123.9697
1232.178, 123.7240
1232.660, 123.3107
1233.142, 123.5789
1233.624, 124.2083
1234.106, 124.3997
1234.589, 123.7428
1235.071, 123.4752
1235.553, 123.6794
1236.035, 123.9859
1236.517, 124.0343
1236.999, 124.0908
1237.481, 124.7859
1237.963, 125.6553
1238.445, 125.5190
1238.928, 123.8155
1239.410, 122.9326
1239.892, 122.9955
1240.374, 123.3958
1240.856, 123.7411
1241.338, 124.1410
1241.820, 125.0520
1242.302, 125.9754
1242.785, 125.7578
1243.267, 123.9584
1243.749, 123.4158
1244.231, 124.2908
1244.713, 125.1326
1245.195, 124.5917
1245.677, 123.9200
1246.159, 124.1812
1246.641, 124.9118
1247.124, 125.2705
1247.606, 125.2486
1248.088, 124.7450
1248.570, 123.7767
1249.052, 123.2892
1249.534, 124.6320
1250.016, 125.8646
1250.498, 125.4397
1250.980, 124.4255
1251.463, 124.3086
1251.945, 125.0720
1252.427, 125.3920
1252.909, 125.2492
1253.391, 125.0441
1253.873, 124.9692
1254.355, 124.9519
1254.837, 125.0280
1255.320, 125.0892
1255.802, 124.8807
1256.284, 124.5122
1256.766, 124.9304
1257.248, 126.0138
1257.730, 126.6540
1258.212, 125.7168
1258.694, 125.0318
1259.177, 125.2182
1259.659, 125.6245
1260.141, 125.4295
1260.623, 124.9134
1261.105, 125.1657
1261.587, 126.0462
1262.069, 126.7286
1262.551, 126.7693
1263.033, 126.6848
1263.516, 126.4629
1263.998, 126.3197
1264.480, 126.5047
1264.962, 126.9039
1265.444, 127.5067
1265.926, 128.1312
1266.408, 128.1527
1266.890, 126.7306
1267.372, 125.9641
1267.855, 126.0507
1268.337, 126.5196
1268.819, 127.2467
1269.301, 127.9088
1269.783, 127.9065
1270.265, 127.4745
1270.747, 127.3255
1271.229, 127.8059
1271.712, 127.5642
1272.194, 126.4307
1272.676, 125.4069
1273.158, 125.4916
1273.640, 125.8254
1274.122, 125.5264
1274.604, 124.9207
1275.086, 124.7089
1275.568, 125.0058
1276.051, 124.9260
1276.533, 124.4407
1277.015, 124.0763
1277.497, 124.3028
1277.979, 124.6159
1278.461, 124.6721
1278.943, 124.6651
1279.425, 124.8724
1279.907, 125.2897
1280.390, 125.5623
1280.872, 125.6702
1281.354, 125.4969
1281.836, 124.5821
1282.318, 123.9009
1282.800, 123.9684
1283.282, 124.2203
1283.764, 124.2430
1284.247, 124.0406
1284.729, 123.4879
1285.211, 122.7124
1285.693, 122.1995
1286.175, 122.3614
1286.657, 122.4610
1287.139, 122.3044
1287.621, 122.2760
1288.104, 122.8247
1288.586, 123.6193
1289.068, 123.9798
1289.550, 124.0268
1290.032, 124.0506
1290.514, 124.3171
1290.996, 124.0482
1291.478, 123.0399
1291.960, 122.3546
1292.443, 122.9300
1292.925, 123.9094
1293.407, 124.5093
1293.889, 124.6785
1294.371, 124.1591
1294.853, 122.7392
1295.335, 122.1040
1295.817, 122.2651
1296.299, 122.6005
1296.782, 122.9636
1297.264, 123.1072
1297.746, 122.7008
1298.228, 122.0807
1298.710, 121.5476
1299.192, 121.1225
1299.674, 121.0297
1300.156, 121.2399
1300.639, 121.5775
1301.121, 122.1168
1301.603, 122.4546
1302.085, 122.1659
1302.567, 121.9050
1303.049, 121.9729
1303.531, 122.3488
##END=



