##NAMES=Metauranocircite-I
##RRUFFID=R050575
##IDEAL CHEMISTRY=Ba(U^6+^O_2_)_2_(PO_4_)_2_&#183;8H_2_O
##LOCALITY=Voightland, Saxony, Germany
##OWNER=RRUFF
##SOURCE=University of Arizona Mineral Museum
##DESCRIPTION=Yellow platy crystals with minor intergrown quartz
##STATUS=The identification of this mineral is confirmed by single-crystal X-ray diffraction and chemical analysis.
##URL=rruff.info/R050575
##MEASURED CHEMISTRY=(Ba_0.98_Ca_0.02_)_Σ=1_(U_1.00_O_2_)_2_(P_1.00_O_4_)_2_·6.13H_2_O
93.77539, 1075.686
94.25751, 1034.469
94.73962, 1053.809
95.22174, 1124.386
95.70386, 1212.721
96.18597, 1309.601
96.66809, 1414.685
97.15021, 1526.180
97.63232, 1643.545
98.11444, 1772.310
98.59656, 1916.927
99.07867, 2077.912
99.56079, 2256.644
100.0429, 2453.567
100.5250, 2667.775
101.0071, 2895.453
101.4893, 3131.643
101.9714, 3384.300
102.4535, 3664.894
102.9356, 3976.611
103.4177, 4312.993
103.8998, 4669.598
104.3820, 5056.981
104.8641, 5445.999
105.3462, 5844.674
105.8283, 6246.184
106.3104, 6633.634
106.7925, 6993.755
107.2747, 7350.607
107.7568, 7717.572
108.2389, 8126.685
108.7210, 8505.955
109.2031, 8836.521
109.6852, 9117.787
110.1674, 9416.407
110.6495, 9727.383
111.1316, 10060.79
111.6137, 10425.21
112.0958, 10810.72
112.5779, 11241.69
113.0601, 11731.58
113.5422, 12294.21
114.0243, 12869.80
114.5064, 13443.31
114.9885, 14024.82
115.4706, 14635.17
115.9528, 15315.30
116.4349, 15993.98
116.9170, 16630.67
117.3991, 17222.32
117.8812, 17800.84
118.3633, 18390.91
118.8455, 18976.30
119.3276, 19522.84
119.8097, 20019.56
120.2918, 20478.55
120.7739, 20904.72
121.2560, 21302.60
121.7382, 21668.63
122.2203, 21990.39
122.7024, 22275.46
123.1845, 22549.07
123.6666, 22829.28
124.1487, 23103.93
124.6309, 23361.03
125.1130, 23576.75
125.5951, 23788.96
126.0772, 24034.40
126.5593, 24311.27
127.0414, 24603.16
127.5236, 24900.92
128.0057, 25203.04
128.4878, 25513.23
128.9699, 25815.40
129.4520, 26131.36
129.9341, 26506.29
130.4162, 26942.02
130.8984, 27394.58
131.3805, 27818.46
131.8626, 28219.16
132.3447, 28627.84
132.8268, 29064.00
133.3089, 29519.05
133.7911, 29889.54
134.2732, 30085.36
134.7553, 30163.80
135.2374, 30261.56
135.7195, 30379.82
136.2016, 30475.88
136.6838, 30523.74
137.1659, 30524.61
137.6480, 30537.94
138.1301, 30571.24
138.6122, 30605.93
139.0943, 30607.34
139.5765, 30571.03
140.0586, 30522.17
140.5407, 30468.92
141.0228, 30408.05
141.5049, 30356.02
141.9870, 30312.71
142.4692, 30276.95
142.9513, 30246.65
143.4334, 30220.51
143.9155, 30200.07
144.3976, 30187.68
144.8797, 30190.76
145.3619, 30181.12
145.8440, 30150.40
146.3261, 30103.70
146.8082, 30071.03
147.2903, 30055.41
147.7724, 30049.41
148.2546, 30048.66
148.7367, 30054.86
149.2188, 30064.29
149.7009, 30080.45
150.1830, 30102.82
150.6651, 30115.57
151.1473, 30114.27
151.6294, 30106.89
152.1115, 30099.11
152.5936, 30085.40
153.0757, 30077.50
153.5578, 30082.79
154.0400, 30102.57
154.5221, 30106.40
155.0042, 30077.94
155.4863, 30038.76
155.9684, 30007.50
156.4505, 29990.17
156.9327, 29975.21
157.4148, 29959.65
157.8969, 29943.08
158.3790, 29926.05
158.8611, 29916.94
159.3432, 29904.43
159.8254, 29876.11
160.3075, 29811.61
160.7896, 29746.38
161.2717, 29692.22
161.7538, 29650.22
162.2359, 29622.03
162.7181, 29625.18
163.2002, 29639.95
163.6823, 29638.71
164.1644, 29588.77
164.6465, 29537.50
165.1286, 29511.96
165.6108, 29519.17
166.0929, 29535.34
166.5750, 29555.49
167.0571, 29575.57
167.5392, 29588.46
168.0213, 29585.75
168.5035, 29576.73
168.9856, 29567.94
169.4677, 29560.06
169.9498, 29551.57
170.4319, 29542.99
170.9140, 29532.93
171.3962, 29518.41
171.8783, 29491.63
172.3604, 29462.45
172.8425, 29440.97
173.3246, 29429.85
173.8067, 29425.38
174.2889, 29431.51
174.7710, 29443.99
175.2531, 29448.21
175.7352, 29429.75
176.2173, 29399.66
176.6994, 29372.46
177.1816, 29350.87
177.6637, 29333.28
178.1458, 29315.81
178.6279, 29299.45
179.1100, 29290.34
179.5921, 29302.41
180.0743, 29323.29
180.5564, 29328.16
181.0385, 29308.34
181.5206, 29274.89
182.0027, 29236.36
182.4848, 29194.10
182.9670, 29162.53
183.4491, 29157.78
183.9312, 29172.21
184.4133, 29185.40
184.8954, 29194.57
185.3775, 29198.32
185.8597, 29193.34
186.3418, 29179.73
186.8239, 29161.39
187.3060, 29140.36
187.7881, 29116.94
188.2702, 29093.30
188.7523, 29070.15
189.2345, 29047.09
189.7166, 29024.07
190.1987, 29001.44
190.6808, 28975.74
191.1629, 28935.80
191.6451, 28885.67
192.1272, 28857.28
192.6093, 28865.22
193.0914, 28897.97
193.5735, 28920.08
194.0556, 28931.50
194.5378, 28936.86
195.0199, 28937.46
195.5020, 28933.63
195.9841, 28934.95
196.4662, 28946.41
196.9483, 28963.96
197.4305, 28968.97
197.9126, 28958.35
198.3947, 28945.07
198.8768, 28940.54
199.3589, 28943.94
199.8410, 28956.12
200.3232, 28983.53
200.8053, 29019.95
201.2874, 29024.73
201.7695, 28988.82
202.2516, 28947.29
202.7337, 28941.81
203.2159, 28978.28
203.6980, 29004.07
204.1801, 29002.97
204.6622, 28978.69
205.1443, 28966.94
205.6264, 28973.77
206.1086, 28980.36
206.5907, 28963.61
207.0728, 28918.94
207.5549, 28878.07
208.0370, 28850.55
208.5191, 28835.38
209.0013, 28812.52
209.4834, 28778.18
209.9655, 28743.37
210.4476, 28718.86
210.9297, 28704.99
211.4118, 28702.22
211.8940, 28716.57
212.3761, 28747.37
212.8582, 28756.86
213.3403, 28739.12
213.8224, 28710.10
214.3045, 28685.86
214.7867, 28665.80
215.2688, 28652.19
215.7509, 28645.33
216.2330, 28645.17
216.7151, 28651.08
217.1972, 28662.18
217.6794, 28679.89
218.1615, 28708.19
218.6436, 28754.47
219.1257, 28791.18
219.6078, 28810.89
220.0899, 28813.53
220.5721, 28807.25
221.0542, 28786.70
221.5363, 28763.29
222.0184, 28750.08
222.5005, 28752.21
222.9826, 28751.98
223.4648, 28743.97
223.9469, 28727.93
224.4290, 28720.16
224.9111, 28721.92
225.3932, 28730.80
225.8753, 28746.50
226.3575, 28775.71
226.8396, 28797.33
227.3217, 28804.57
227.8038, 28797.42
228.2859, 28795.89
228.7680, 28802.36
229.2502, 28812.04
229.7323, 28820.04
230.2144, 28824.54
230.6965, 28832.08
231.1786, 28847.46
231.6607, 28870.72
232.1429, 28877.36
232.6250, 28855.70
233.1071, 28830.54
233.5892, 28826.08
234.0713, 28855.04
234.5534, 28878.88
235.0356, 28888.51
235.5177, 28884.43
235.9998, 28886.83
236.4819, 28895.45
236.9640, 28910.39
237.4461, 28933.46
237.9283, 28972.83
238.4104, 29003.18
238.8925, 29018.38
239.3746, 29019.02
239.8567, 29019.32
240.3388, 29015.47
240.8210, 29015.34
241.3031, 29025.54
241.7852, 29049.91
242.2673, 29076.88
242.7494, 29108.36
243.2315, 29143.04
243.7137, 29164.22
244.1958, 29166.58
244.6779, 29162.43
245.1600, 29159.85
245.6421, 29157.82
246.1242, 29159.98
246.6064, 29168.79
247.0885, 29182.92
247.5706, 29191.73
248.0527, 29188.74
248.5348, 29189.42
249.0169, 29206.93
249.4990, 29257.96
249.9812, 29288.19
250.4633, 29285.11
250.9454, 29257.15
251.4275, 29243.64
251.9096, 29246.85
252.3917, 29261.68
252.8739, 29287.05
253.3560, 29329.91
253.8381, 29366.57
254.3202, 29395.14
254.8023, 29416.43
255.2844, 29431.32
255.7666, 29431.99
256.2487, 29438.48
256.7308, 29464.73
257.2129, 29525.34
257.6950, 29563.88
258.1772, 29569.96
258.6593, 29555.36
259.1414, 29550.56
259.6235, 29554.06
260.1056, 29570.11
260.5877, 29606.53
261.0699, 29677.85
261.5520, 29720.52
262.0341, 29723.99
262.5162, 29704.92
262.9983, 29699.68
263.4804, 29715.24
263.9626, 29729.62
264.4447, 29732.15
264.9268, 29718.49
265.4089, 29712.94
265.8910, 29714.90
266.3731, 29725.93
266.8553, 29752.94
267.3374, 29804.84
267.8195, 29848.35
268.3016, 29867.07
268.7837, 29857.33
269.2658, 29859.38
269.7480, 29873.30
270.2301, 29899.10
270.7122, 29942.45
271.1943, 30011.89
271.6764, 30065.96
272.1585, 30085.62
272.6407, 30070.66
273.1228, 30061.38
273.6049, 30055.25
274.0870, 30058.27
274.5691, 30081.62
275.0512, 30129.61
275.5334, 30172.88
276.0155, 30201.14
276.4976, 30216.17
276.9797, 30241.87
277.4618, 30283.24
277.9439, 30321.87
278.4261, 30336.86
278.9081, 30326.22
279.3903, 30314.86
279.8724, 30307.41
280.3545, 30304.52
280.8366, 30307.47
281.3187, 30316.69
281.8008, 30332.04
282.2830, 30357.08
282.7651, 30392.30
283.2472, 30421.05
283.7293, 30440.21
284.2114, 30451.32
284.6935, 30456.92
285.1757, 30456.43
285.6578, 30455.21
286.1399, 30452.21
286.6220, 30448.43
287.1041, 30462.80
287.5862, 30502.50
288.0684, 30553.90
288.5505, 30586.25
289.0326, 30599.44
289.5147, 30613.02
289.9968, 30638.75
290.4789, 30675.33
290.9611, 30718.23
291.4432, 30771.12
291.9253, 30819.93
292.4074, 30835.77
292.8895, 30821.88
293.3716, 30810.00
293.8538, 30817.08
294.3359, 30839.19
294.8180, 30868.13
295.3001, 30905.83
295.7822, 30938.18
296.2643, 30942.40
296.7465, 30924.00
297.2286, 30907.76
297.7107, 30900.12
298.1928, 30903.16
298.6749, 30927.17
299.1570, 30973.64
299.6392, 31019.97
300.1213, 31037.35
300.6034, 31036.16
301.0855, 31042.70
301.5676, 31078.23
302.0497, 31119.58
302.5319, 31124.97
303.0140, 31096.77
303.4961, 31072.82
303.9782, 31089.51
304.4603, 31129.59
304.9424, 31163.66
305.4246, 31180.54
305.9067, 31190.47
306.3888, 31197.61
306.8709, 31204.15
307.3530, 31221.88
307.8351, 31276.29
308.3173, 31339.32
308.7994, 31374.42
309.2815, 31364.47
309.7636, 31345.91
310.2457, 31343.66
310.7278, 31355.38
311.2100, 31374.71
311.6921, 31404.03
312.1742, 31436.85
312.6563, 31466.74
313.1384, 31492.52
313.6205, 31518.83
314.1027, 31556.45
314.5848, 31596.26
315.0669, 31622.55
315.5490, 31607.39
316.0311, 31592.98
316.5132, 31607.31
316.9954, 31654.82
317.4775, 31706.27
317.9596, 31750.94
318.4417, 31791.31
318.9238, 31830.73
319.4059, 31867.08
319.8881, 31904.09
320.3702, 31947.20
320.8523, 31995.47
321.3344, 32029.57
321.8165, 32035.07
322.2986, 32028.42
322.7808, 32022.11
323.2629, 32009.22
323.7450, 32007.19
324.2271, 32026.04
324.7092, 32061.63
325.1913, 32092.38
325.6735, 32114.49
326.1556, 32132.44
326.6377, 32148.73
327.1198, 32165.49
327.6019, 32179.20
328.0840, 32181.30
328.5662, 32180.51
329.0483, 32198.77
329.5304, 32263.79
330.0125, 32321.44
330.4946, 32350.97
330.9767, 32335.54
331.4589, 32338.46
331.9410, 32368.01
332.4231, 32411.75
332.9052, 32453.62
333.3873, 32499.14
333.8694, 32533.60
334.3516, 32548.71
334.8337, 32542.13
335.3158, 32545.92
335.7979, 32559.18
336.2800, 32582.95
336.7621, 32620.32
337.2443, 32678.61
337.7264, 32731.51
338.2085, 32777.17
338.6906, 32814.40
339.1727, 32835.67
339.6548, 32835.72
340.1370, 32833.12
340.6191, 32840.89
341.1012, 32860.28
341.5833, 32882.91
342.0654, 32910.60
342.5475, 32938.55
343.0297, 32951.05
343.5118, 32945.18
343.9939, 32945.85
344.4760, 32971.00
344.9581, 33017.98
345.4402, 33057.39
345.9224, 33088.02
346.4045, 33110.49
346.8866, 33120.04
347.3687, 33118.07
347.8508, 33122.23
348.3329, 33141.39
348.8151, 33171.39
349.2972, 33204.01
349.7793, 33239.66
350.2614, 33269.23
350.7435, 33276.73
351.2256, 33270.18
351.7078, 33273.48
352.1899, 33298.14
352.6720, 33330.54
353.1541, 33351.63
353.6362, 33363.15
354.1183, 33374.14
354.6005, 33392.62
355.0826, 33413.80
355.5647, 33429.09
356.0468, 33432.92
356.5289, 33441.30
357.0110, 33469.73
357.4932, 33513.36
357.9753, 33561.10
358.4574, 33618.79
358.9395, 33671.04
359.4216, 33702.18
359.9037, 33709.40
360.3859, 33711.98
360.8680, 33717.82
361.3501, 33726.11
361.8322, 33735.80
362.3143, 33741.34
362.7964, 33752.64
363.2786, 33775.64
363.7607, 33809.49
364.2428, 33845.32
364.7249, 33888.02
365.2070, 33926.55
365.6891, 33953.11
366.1713, 33959.46
366.6534, 33962.47
367.1355, 33962.16
367.6176, 33960.48
368.0997, 33962.79
368.5818, 33972.60
369.0640, 33984.67
369.5461, 33997.30
370.0282, 34010.30
370.5103, 34026.11
370.9924, 34048.90
371.4745, 34073.57
371.9567, 34092.29
372.4388, 34093.51
372.9209, 34106.27
373.4030, 34140.94
373.8851, 34198.29
374.3672, 34244.61
374.8494, 34275.46
375.3315, 34301.04
375.8136, 34329.49
376.2957, 34362.67
376.7778, 34390.20
377.2599, 34407.39
377.7421, 34418.36
378.2242, 34438.43
378.7063, 34468.91
379.1884, 34499.93
379.6705, 34520.99
380.1526, 34531.97
380.6348, 34565.16
381.1169, 34628.77
381.5990, 34696.69
382.0811, 34729.35
382.5632, 34728.50
383.0453, 34722.68
383.5275, 34722.28
384.0096, 34726.23
384.4917, 34729.54
384.9738, 34732.55
385.4559, 34740.51
385.9380, 34766.45
386.4202, 34801.68
386.9023, 34823.10
387.3844, 34822.34
387.8665, 34810.11
388.3486, 34791.27
388.8307, 34769.55
389.3129, 34760.23
389.7950, 34780.07
390.2771, 34813.09
390.7592, 34840.75
391.2413, 34858.69
391.7234, 34879.06
392.2056, 34911.35
392.6877, 34950.74
393.1698, 34990.38
393.6519, 35040.67
394.1340, 35079.38
394.6161, 35087.62
395.0983, 35066.25
395.5804, 35049.50
396.0625, 35044.71
396.5446, 35052.45
397.0267, 35073.32
397.5089, 35118.15
397.9910, 35163.41
398.4731, 35210.11
398.9552, 35254.89
399.4373, 35287.73
399.9194, 35293.40
400.4016, 35299.50
400.8837, 35316.50
401.3658, 35349.25
401.8479, 35378.71
402.3300, 35412.29
402.8121, 35437.90
403.2942, 35437.05
403.7763, 35384.90
404.2585, 35354.66
404.7406, 35367.50
405.2227, 35418.81
405.7048, 35459.43
406.1869, 35487.17
406.6690, 35508.92
407.1512, 35526.96
407.6333, 35540.01
408.1154, 35562.54
408.5975, 35599.93
409.0796, 35641.80
409.5617, 35667.63
410.0439, 35676.89
410.5260, 35684.34
411.0081, 35695.96
411.4902, 35710.83
411.9723, 35725.38
412.4544, 35738.88
412.9366, 35755.46
413.4187, 35782.51
413.9008, 35816.40
414.3829, 35847.21
414.8650, 35875.07
415.3471, 35895.17
415.8293, 35896.00
416.3114, 35881.34
416.7935, 35868.80
417.2756, 35873.36
417.7577, 35884.25
418.2398, 35888.82
418.7220, 35883.59
419.2041, 35882.61
419.6862, 35906.50
420.1683, 35938.95
420.6504, 35954.06
421.1325, 35918.25
421.6147, 35886.50
422.0968, 35885.52
422.5789, 35915.09
423.0610, 35948.25
423.5431, 35982.80
424.0252, 36015.31
424.5074, 36043.64
424.9895, 36050.48
425.4716, 36073.46
425.9537, 36131.92
426.4358, 36206.42
426.9179, 36253.49
427.4001, 36248.26
427.8822, 36245.70
428.3643, 36265.61
428.8464, 36313.45
429.3285, 36340.90
429.8106, 36335.16
430.2928, 36325.89
430.7749, 36344.10
431.2570, 36395.66
431.7391, 36453.12
432.2212, 36519.75
432.7033, 36584.99
433.1855, 36608.84
433.6676, 36587.22
434.1497, 36560.13
434.6318, 36550.05
435.1139, 36555.14
435.5960, 36565.18
436.0782, 36580.32
436.5603, 36597.90
437.0424, 36611.61
437.5245, 36624.23
438.0066, 36646.40
438.4887, 36694.27
438.9709, 36744.13
439.4530, 36752.16
439.9351, 36725.75
440.4172, 36715.10
440.8993, 36783.16
441.3814, 36870.27
441.8636, 36906.61
442.3457, 36862.96
442.8278, 36818.79
443.3099, 36816.24
443.7920, 36844.17
444.2741, 36884.39
444.7563, 36957.79
445.2384, 37016.62
445.7205, 37032.47
446.2026, 37004.60
446.6847, 36988.48
447.1668, 37008.22
447.6490, 37034.30
448.1311, 37048.14
448.6132, 37027.04
449.0953, 37022.22
449.5774, 37040.00
450.0595, 37072.72
450.5417, 37104.39
451.0238, 37133.64
451.5059, 37163.81
451.9880, 37195.93
452.4701, 37230.34
452.9522, 37266.12
453.4344, 37305.10
453.9165, 37342.12
454.3986, 37370.10
454.8807, 37388.32
455.3628, 37416.70
455.8449, 37465.43
456.3271, 37515.77
456.8092, 37522.07
457.2913, 37487.63
457.7734, 37456.73
458.2555, 37450.18
458.7376, 37464.57
459.2198, 37498.43
459.7019, 37552.75
460.1840, 37606.23
460.6661, 37642.57
461.1482, 37665.48
461.6303, 37679.26
462.1125, 37679.81
462.5946, 37679.83
463.0767, 37685.45
463.5588, 37697.69
464.0409, 37719.14
464.5230, 37757.99
465.0052, 37800.54
465.4873, 37836.63
465.9694, 37862.43
466.4515, 37895.50
466.9336, 37949.81
467.4157, 38007.70
467.8979, 38052.51
468.3800, 38065.96
468.8621, 38084.88
469.3442, 38115.77
469.8263, 38154.88
470.3084, 38187.80
470.7906, 38210.14
471.2727, 38233.60
471.7548, 38265.68
472.2369, 38310.32
472.7190, 38339.80
473.2011, 38348.80
473.6833, 38355.15
474.1654, 38384.41
474.6475, 38438.16
475.1296, 38480.43
475.6117, 38500.34
476.0938, 38506.29
476.5760, 38514.27
477.0581, 38524.24
477.5402, 38541.02
478.0223, 38570.45
478.5044, 38607.39
478.9865, 38644.18
479.4687, 38680.47
479.9508, 38711.21
480.4329, 38723.62
480.9150, 38729.65
481.3971, 38747.96
481.8792, 38800.76
482.3614, 38851.11
482.8435, 38870.86
483.3256, 38869.43
483.8077, 38874.79
484.2898, 38908.98
484.7719, 38944.16
485.2541, 38963.28
485.7362, 38957.90
486.2183, 38965.71
486.7004, 39001.55
487.1825, 39047.23
487.6646, 39085.42
488.1468, 39103.01
488.6289, 39132.32
489.1110, 39184.79
489.5931, 39249.91
490.0752, 39288.64
490.5573, 39285.48
491.0395, 39294.58
491.5216, 39349.87
492.0037, 39453.61
492.4858, 39518.70
492.9679, 39539.75
493.4500, 39547.98
493.9322, 39582.82
494.4143, 39638.15
494.8964, 39667.91
495.3785, 39650.27
495.8606, 39623.93
496.3427, 39650.80
496.8249, 39720.58
497.3070, 39796.10
497.7891, 39864.08
498.2712, 39921.95
498.7533, 39964.75
499.2354, 39992.44
499.7176, 40011.11
500.1997, 40010.21
500.6818, 40009.34
501.1639, 40028.00
501.6460, 40089.13
502.1281, 40144.45
502.6103, 40178.57
503.0924, 40198.60
503.5745, 40218.38
504.0566, 40235.34
504.5387, 40257.61
505.0208, 40288.62
505.5030, 40328.85
505.9851, 40368.59
506.4672, 40407.80
506.9493, 40446.41
507.4314, 40488.19
507.9135, 40539.63
508.3957, 40558.87
508.8778, 40529.70
509.3599, 40488.65
509.8420, 40504.94
510.3241, 40577.02
510.8062, 40646.85
511.2884, 40688.79
511.7705, 40715.09
512.2526, 40757.94
512.7347, 40815.76
513.2168, 40868.41
513.6989, 40893.01
514.1810, 40906.61
514.6631, 40935.09
515.1453, 40985.31
515.6274, 41036.07
516.1095, 41074.55
516.5916, 41104.99
517.0737, 41132.95
517.5558, 41156.52
518.0380, 41181.95
518.5201, 41211.75
519.0022, 41245.39
519.4843, 41280.40
519.9664, 41320.29
520.4485, 41357.44
520.9307, 41387.53
521.4128, 41408.09
521.8949, 41431.74
522.3770, 41458.37
522.8591, 41487.93
523.3412, 41520.81
523.8234, 41556.67
524.3055, 41594.14
524.7876, 41632.51
525.2697, 41673.13
525.7518, 41719.16
526.2339, 41770.85
526.7161, 41823.87
527.1982, 41882.14
527.6803, 41939.50
528.1624, 41978.98
528.6445, 42001.21
529.1266, 42015.22
529.6088, 42022.31
530.0909, 42027.84
530.5730, 42039.38
531.0551, 42059.55
531.5372, 42082.54
532.0193, 42102.84
532.5015, 42124.05
532.9836, 42151.49
533.4657, 42194.60
533.9478, 42236.12
534.4299, 42275.13
534.9120, 42309.76
535.3942, 42327.76
535.8763, 42297.20
536.3584, 42280.04
536.8405, 42309.66
537.3226, 42407.79
537.8047, 42465.49
538.2869, 42467.34
538.7690, 42450.59
539.2511, 42458.18
539.7332, 42492.87
540.2153, 42526.68
540.6974, 42557.12
541.1796, 42580.37
541.6617, 42579.64
542.1438, 42558.27
542.6259, 42550.30
543.1080, 42586.16
543.5901, 42641.67
544.0723, 42672.33
544.5544, 42678.99
545.0365, 42692.74
545.5186, 42746.54
546.0007, 42812.96
546.4828, 42865.50
546.9650, 42900.61
547.4471, 42916.60
547.9292, 42884.38
548.4113, 42840.96
548.8934, 42837.40
549.3755, 42939.96
549.8577, 43020.43
550.3398, 43041.15
550.8219, 43015.27
551.3040, 43011.16
551.7861, 43036.71
552.2682, 43071.12
552.7504, 43109.41
553.2325, 43153.25
553.7146, 43174.69
554.1967, 43166.58
554.6788, 43157.16
555.1609, 43181.05
555.6431, 43233.00
556.1252, 43278.02
556.6073, 43312.04
557.0894, 43332.16
557.5715, 43323.30
558.0536, 43295.97
558.5358, 43280.38
559.0179, 43293.09
559.5000, 43322.63
559.9821, 43366.79
560.4642, 43422.45
560.9464, 43469.87
561.4285, 43493.04
561.9106, 43509.55
562.3927, 43530.67
562.8748, 43561.13
563.3569, 43583.48
563.8391, 43582.39
564.3212, 43578.59
564.8033, 43593.64
565.2854, 43652.78
565.7675, 43676.11
566.2496, 43638.82
566.7318, 43571.40
567.2139, 43559.10
567.6960, 43611.61
568.1781, 43652.37
568.6602, 43647.11
569.1423, 43607.95
569.6245, 43571.65
570.1066, 43538.45
570.5887, 43519.98
571.0708, 43538.32
571.5529, 43572.53
572.0350, 43584.36
572.5172, 43565.18
572.9993, 43546.84
573.4814, 43557.18
573.9635, 43579.30
574.4456, 43592.51
574.9277, 43577.34
575.4099, 43565.95
575.8920, 43573.74
576.3741, 43591.88
576.8562, 43596.25
577.3383, 43572.86
577.8204, 43549.70
578.3026, 43533.39
578.7847, 43524.35
579.2668, 43520.43
579.7489, 43527.14
580.2310, 43527.13
580.7131, 43499.83
581.1953, 43446.20
581.6774, 43424.98
582.1595, 43444.39
582.6416, 43474.58
583.1237, 43487.23
583.6058, 43481.77
584.0880, 43452.26
584.5701, 43381.93
585.0522, 43312.37
585.5343, 43292.45
586.0164, 43305.82
586.4985, 43313.26
586.9807, 43293.95
587.4628, 43267.32
587.9449, 43239.73
588.4270, 43212.17
588.9091, 43192.82
589.3912, 43208.85
589.8734, 43212.54
590.3555, 43176.70
590.8376, 43083.87
591.3197, 43011.80
591.8018, 42964.50
592.2839, 42933.14
592.7661, 42913.35
593.2482, 42907.43
593.7303, 42888.98
594.2124, 42850.96
594.6945, 42803.05
595.1766, 42752.71
595.6588, 42702.99
596.1409, 42671.25
596.6230, 42679.38
597.1051, 42699.45
597.5872, 42702.17
598.0693, 42687.27
598.5515, 42654.64
599.0336, 42582.53
599.5157, 42508.29
599.9978, 42458.27
600.4799, 42438.72
600.9620, 42424.72
601.4442, 42434.90
601.9263, 42433.06
602.4084, 42389.64
602.8905, 42263.95
603.3726, 42175.41
603.8547, 42143.75
604.3369, 42136.71
604.8190, 42102.52
605.3011, 42038.57
605.7832, 41966.14
606.2653, 41886.99
606.7474, 41808.42
607.2296, 41756.60
607.7117, 41727.69
608.1938, 41693.88
608.6759, 41626.98
609.1580, 41551.60
609.6401, 41506.20
610.1223, 41489.80
610.6044, 41468.27
611.0865, 41412.96
611.5686, 41349.28
612.0507, 41301.12
612.5328, 41285.14
613.0150, 41245.68
613.4971, 41144.49
613.9792, 41028.99
614.4613, 40948.20
614.9434, 40926.12
615.4255, 40891.01
615.9077, 40834.16
616.3898, 40762.71
616.8719, 40690.02
617.3540, 40615.77
617.8361, 40549.77
618.3182, 40500.54
618.8004, 40460.77
619.2825, 40412.49
619.7646, 40356.12
620.2467, 40299.03
620.7288, 40250.04
621.2109, 40199.84
621.6931, 40133.94
622.1752, 40050.05
622.6573, 39973.43
623.1394, 39920.19
623.6215, 39876.95
624.1036, 39834.95
624.5858, 39802.78
625.0679, 39750.46
625.5500, 39651.15
626.0321, 39544.74
626.5142, 39481.25
626.9963, 39482.79
627.4785, 39469.20
627.9606, 39429.68
628.4427, 39367.48
628.9248, 39282.23
629.4069, 39174.31
629.8890, 39074.27
630.3712, 39001.66
630.8533, 38940.98
631.3354, 38858.21
631.8175, 38757.18
632.2996, 38661.23
632.7817, 38584.87
633.2639, 38521.02
633.7460, 38465.79
634.2281, 38420.12
634.7102, 38370.21
635.1923, 38308.51
635.6744, 38242.58
636.1566, 38177.21
636.6387, 38110.55
637.1208, 38050.14
637.6029, 38002.30
638.0850, 37955.13
638.5671, 37892.99
639.0493, 37812.34
639.5314, 37733.20
640.0135, 37656.10
640.4956, 37586.16
640.9777, 37542.40
641.4598, 37518.98
641.9420, 37477.54
642.4241, 37389.05
642.9062, 37282.18
643.3883, 37183.46
643.8704, 37093.75
644.3525, 37018.21
644.8347, 36978.51
645.3168, 36937.96
645.7989, 36865.78
646.2810, 36755.72
646.7631, 36669.25
647.2452, 36636.20
647.7274, 36612.75
648.2095, 36576.55
648.6916, 36522.80
649.1737, 36466.27
649.6558, 36402.86
650.1379, 36342.67
650.6201, 36310.70
651.1022, 36302.18
651.5843, 36248.52
652.0664, 36125.97
652.5485, 35985.35
653.0306, 35897.89
653.5128, 35848.95
653.9949, 35804.83
654.4770, 35762.72
654.9591, 35711.60
655.4412, 35637.09
655.9233, 35547.55
656.4055, 35465.75
656.8876, 35407.83
657.3697, 35351.59
657.8518, 35291.18
658.3339, 35226.82
658.8160, 35153.20
659.2982, 35062.77
659.7803, 34976.91
660.2624, 34906.50
660.7445, 34851.17
661.2266, 34807.07
661.7087, 34776.13
662.1909, 34738.43
662.6730, 34670.91
663.1551, 34583.23
663.6372, 34494.59
664.1193, 34405.62
664.6014, 34326.65
665.0836, 34274.24
665.5657, 34232.52
666.0478, 34182.09
666.5299, 34111.21
667.0120, 34040.52
667.4941, 33975.41
667.9763, 33913.74
668.4584, 33852.20
668.9405, 33791.14
669.4226, 33728.75
669.9047, 33663.76
670.3868, 33598.11
670.8690, 33536.64
671.3511, 33478.77
671.8332, 33432.96
672.3153, 33420.89
672.7974, 33415.66
673.2795, 33343.04
673.7617, 33212.42
674.2438, 33090.97
674.7259, 33030.37
675.2080, 32993.48
675.6901, 32955.26
676.1722, 32914.15
676.6544, 32858.20
677.1365, 32760.78
677.6186, 32663.72
678.1007, 32598.82
678.5828, 32587.21
679.0649, 32547.75
679.5471, 32471.08
680.0292, 32380.52
680.5113, 32300.01
680.9934, 32228.70
681.4755, 32165.46
681.9576, 32110.12
682.4398, 32061.28
682.9219, 32024.32
683.4040, 31992.43
683.8861, 31949.37
684.3682, 31885.94
684.8503, 31813.78
685.3325, 31737.25
685.8146, 31657.79
686.2967, 31578.22
686.7788, 31483.58
687.2609, 31404.63
687.7430, 31360.11
688.2252, 31340.19
688.7073, 31305.88
689.1894, 31252.74
689.6715, 31194.46
690.1536, 31134.70
690.6357, 31074.03
691.1179, 31019.30
691.6000, 30970.61
692.0821, 30923.18
692.5642, 30874.63
693.0463, 30823.94
693.5284, 30769.00
694.0106, 30709.95
694.4927, 30647.50
694.9748, 30577.73
695.4569, 30508.31
695.9390, 30444.53
696.4211, 30387.66
696.9033, 30334.98
697.3854, 30290.57
697.8675, 30245.82
698.3496, 30191.24
698.8317, 30118.46
699.3138, 30063.77
699.7960, 30033.05
700.2781, 30013.18
700.7602, 29992.76
701.2423, 29969.54
701.7244, 29928.74
702.2065, 29863.01
702.6887, 29786.91
703.1708, 29716.75
703.6529, 29649.38
704.1350, 29579.32
704.6171, 29497.69
705.0992, 29420.83
705.5814, 29358.83
706.0635, 29307.22
706.5456, 29253.12
707.0277, 29193.83
707.5098, 29134.13
707.9919, 29071.56
708.4741, 29009.10
708.9562, 28965.77
709.4383, 28944.63
709.9204, 28918.63
710.4025, 28869.65
710.8846, 28806.27
711.3667, 28752.59
711.8488, 28707.40
712.3309, 28660.69
712.8130, 28597.81
713.2952, 28536.21
713.7773, 28498.90
714.2594, 28489.21
714.7415, 28455.40
715.2236, 28355.68
715.7057, 28249.72
716.1879, 28173.08
716.6700, 28132.01
717.1521, 28097.04
717.6342, 28072.76
718.1163, 28045.12
718.5984, 27996.13
719.0806, 27928.77
719.5627, 27874.83
720.0448, 27837.68
720.5269, 27807.12
721.0090, 27778.11
721.4911, 27745.92
721.9733, 27699.37
722.4554, 27625.89
722.9375, 27562.10
723.4196, 27537.55
723.9017, 27526.86
724.3839, 27497.11
724.8660, 27427.55
725.3481, 27363.51
725.8302, 27310.48
726.3123, 27262.61
726.7944, 27210.98
727.2766, 27155.77
727.7587, 27093.13
728.2408, 27018.66
728.7229, 26943.22
729.2050, 26888.80
729.6871, 26851.34
730.1693, 26817.37
730.6514, 26779.64
731.1335, 26743.66
731.6156, 26720.02
732.0977, 26701.90
732.5798, 26668.83
733.0620, 26588.12
733.5441, 26520.54
734.0262, 26489.29
734.5083, 26487.18
734.9904, 26468.42
735.4725, 26429.59
735.9547, 26383.77
736.4368, 26332.49
736.9189, 26279.35
737.4010, 26244.49
737.8831, 26226.22
738.3652, 26199.07
738.8474, 26136.21
739.3295, 26062.81
739.8116, 26003.70
740.2937, 25960.49
740.7758, 25923.54
741.2579, 25898.29
741.7401, 25871.22
742.2222, 25833.71
742.7043, 25784.41
743.1864, 25732.59
743.6685, 25674.84
744.1506, 25620.28
744.6328, 25576.31
745.1149, 25542.20
745.5970, 25510.57
746.0791, 25481.98
746.5612, 25450.20
747.0433, 25408.61
747.5255, 25360.55
748.0076, 25310.03
748.4897, 25256.19
748.9718, 25206.67
749.4539, 25172.45
749.9360, 25140.71
750.4182, 25100.00
750.9003, 25048.15
751.3824, 24988.14
751.8645, 24911.64
752.3466, 24837.03
752.8287, 24786.39
753.3109, 24759.55
753.7930, 24746.85
754.2751, 24752.49
754.7572, 24750.07
755.2393, 24693.43
755.7214, 24607.48
756.2036, 24540.41
756.6857, 24513.55
757.1678, 24494.55
757.6499, 24471.46
758.1320, 24444.00
758.6141, 24412.14
759.0963, 24370.37
759.5784, 24330.87
760.0605, 24292.89
760.5426, 24258.02
761.0247, 24230.40
761.5068, 24210.41
761.9890, 24188.38
762.4711, 24162.07
762.9532, 24132.01
763.4353, 24100.83
763.9174, 24067.12
764.3995, 24026.41
764.8817, 23965.49
765.3638, 23910.53
765.8459, 23885.52
766.3280, 23876.50
766.8101, 23851.83
767.2922, 23794.64
767.7744, 23736.99
768.2565, 23680.56
768.7386, 23628.67
769.2207, 23590.09
769.7028, 23565.84
770.1849, 23544.75
770.6671, 23526.19
771.1492, 23504.90
771.6313, 23468.16
772.1134, 23419.49
772.5955, 23371.49
773.0776, 23325.14
773.5598, 23285.99
774.0419, 23260.37
774.5240, 23245.38
775.0061, 23228.63
775.4882, 23208.56
775.9703, 23186.16
776.4525, 23164.35
776.9346, 23140.40
777.4167, 23097.54
777.8988, 23033.97
778.3809, 22975.81
778.8630, 22941.10
779.3452, 22917.63
779.8273, 22882.04
780.3094, 22836.60
780.7915, 22789.47
781.2736, 22734.87
781.7557, 22690.13
782.2379, 22675.19
782.7200, 22686.88
783.2021, 22675.96
783.6842, 22622.83
784.1663, 22570.63
784.6484, 22534.30
785.1306, 22512.16
785.6127, 22489.37
786.0948, 22465.77
786.5769, 22440.98
787.0590, 22409.89
787.5411, 22379.25
788.0233, 22370.10
788.5054, 22377.26
788.9875, 22367.98
789.4696, 22307.48
789.9517, 22240.10
790.4338, 22191.50
790.9160, 22163.54
791.3981, 22134.70
791.8802, 22102.34
792.3623, 22074.33
792.8444, 22056.57
793.3265, 22047.69
793.8087, 22034.49
794.2908, 22017.11
794.7729, 21996.76
795.2550, 21969.43
795.7371, 21942.68
796.2192, 21930.19
796.7014, 21930.70
797.1835, 21927.58
797.6656, 21912.16
798.1477, 21891.42
798.6298, 21864.79
799.1119, 21831.51
799.5941, 21813.46
800.0762, 21815.63
800.5583, 21820.26
801.0404, 21817.86
801.5225, 21809.27
802.0046, 21799.82
802.4868, 21789.61
802.9689, 21781.80
803.4510, 21779.22
803.9331, 21780.27
804.4152, 21788.46
804.8973, 21803.02
805.3795, 21804.76
805.8616, 21778.60
806.3437, 21747.29
806.8258, 21719.10
807.3079, 21694.50
807.7900, 21682.73
808.2722, 21687.49
808.7543, 21691.03
809.2364, 21683.41
809.7185, 21665.80
810.2006, 21642.15
810.6827, 21612.27
811.1649, 21574.89
811.6470, 21525.62
812.1291, 21470.66
812.6112, 21407.81
813.0933, 21337.65
813.5754, 21288.63
814.0576, 21281.74
814.5397, 21276.62
815.0218, 21257.35
815.5039, 21225.06
815.9860, 21201.28
816.4681, 21187.07
816.9503, 21169.19
817.4324, 21134.46
817.9145, 21092.84
818.3966, 21061.37
818.8787, 21040.01
819.3608, 21024.54
819.8430, 21016.32
820.3251, 21010.41
820.8072, 21004.03
821.2893, 20997.05
821.7714, 20991.35
822.2535, 20983.75
822.7357, 20983.69
823.2178, 20996.62
823.6999, 21019.74
824.1820, 21042.24
824.6641, 21064.01
825.1462, 21084.77
825.6284, 21099.68
826.1105, 21116.95
826.5926, 21150.43
827.0747, 21196.10
827.5568, 21232.61
828.0389, 21235.59
828.5211, 21248.77
829.0032, 21300.65
829.4853, 21378.29
829.9674, 21405.65
830.4495, 21377.02
830.9316, 21331.22
831.4138, 21286.22
831.8959, 21233.25
832.3780, 21154.33
832.8601, 21049.71
833.3422, 20919.75
833.8243, 20745.03
834.3065, 20563.59
834.7886, 20389.59
835.2707, 20224.46
835.7528, 20079.31
836.2349, 19952.69
836.7170, 19847.41
837.1992, 19770.79
837.6813, 19712.66
838.1634, 19639.62
838.6455, 19552.70
839.1276, 19477.40
839.6097, 19427.95
840.0919, 19389.21
840.5740, 19343.63
841.0561, 19295.16
841.5382, 19254.01
842.0203, 19227.47
842.5024, 19204.15
842.9846, 19183.03
843.4667, 19162.77
843.9488, 19141.67
844.4309, 19120.74
844.9130, 19093.85
845.3951, 19059.00
845.8773, 19019.81
846.3594, 18979.86
846.8415, 18940.47
847.3236, 18905.89
847.8057, 18880.88
848.2878, 18854.28
848.7700, 18812.60
849.2521, 18768.08
849.7342, 18738.82
850.2163, 18736.67
850.6984, 18731.59
851.1805, 18723.01
851.6627, 18709.37
852.1448, 18685.69
852.6269, 18653.45
853.1090, 18625.81
853.5911, 18605.36
854.0732, 18587.05
854.5554, 18573.60
855.0375, 18555.97
855.5196, 18519.40
856.0017, 18445.84
856.4838, 18390.91
856.9659, 18375.88
857.4481, 18374.33
857.9302, 18368.65
858.4123, 18359.43
858.8944, 18342.58
859.3765, 18317.59
859.8586, 18286.89
860.3408, 18247.05
860.8229, 18205.03
861.3050, 18174.95
861.7871, 18158.64
862.2692, 18145.47
862.7513, 18131.30
863.2335, 18117.44
863.7156, 18105.66
864.1977, 18097.07
864.6798, 18082.64
865.1619, 18061.85
865.6440, 18036.68
866.1262, 18002.76
866.6083, 17965.15
867.0904, 17949.82
867.5725, 17954.46
868.0546, 17955.81
868.5367, 17935.53
869.0189, 17908.75
869.5010, 17883.71
869.9831, 17860.96
870.4652, 17844.76
870.9473, 17837.51
871.4294, 17833.29
871.9116, 17834.46
872.3937, 17836.15
872.8758, 17815.26
873.3579, 17772.95
873.8400, 17726.99
874.3221, 17682.51
874.8043, 17642.21
875.2864, 17609.28
875.7685, 17583.16
876.2506, 17563.37
876.7327, 17564.49
877.2148, 17553.40
877.6970, 17515.06
878.1791, 17465.65
878.6612, 17440.36
879.1433, 17441.48
879.6254, 17444.39
880.1075, 17444.68
880.5897, 17440.85
881.0718, 17430.38
881.5539, 17414.33
882.0360, 17393.37
882.5181, 17357.60
883.0002, 17334.94
883.4824, 17354.82
883.9645, 17380.62
884.4466, 17369.10
884.9287, 17303.50
885.4108, 17260.80
885.8929, 17248.76
886.3751, 17247.80
886.8572, 17241.61
887.3393, 17229.25
887.8214, 17204.42
888.3035, 17164.74
888.7856, 17132.87
889.2678, 17137.36
889.7499, 17144.34
890.2320, 17124.27
890.7141, 17069.39
891.1962, 17033.93
891.6783, 17025.78
892.1605, 17018.86
892.6426, 16992.51
893.1247, 16953.81
893.6068, 16933.17
894.0889, 16928.70
894.5710, 16921.48
895.0532, 16890.97
895.5353, 16860.45
896.0174, 16848.97
896.4995, 16854.17
896.9816, 16852.28
897.4637, 16840.11
897.9459, 16822.70
898.4280, 16799.63
898.9101, 16773.54
899.3922, 16753.04
899.8743, 16737.61
900.3564, 16725.82
900.8386, 16721.57
901.3207, 16714.61
901.8028, 16693.46
902.2849, 16664.47
902.7670, 16638.44
903.2491, 16621.40
903.7313, 16603.24
904.2134, 16581.22
904.6955, 16560.13
905.1776, 16550.56
905.6597, 16550.89
906.1418, 16536.39
906.6240, 16500.46
907.1061, 16464.76
907.5882, 16454.84
908.0703, 16455.00
908.5524, 16446.69
909.0345, 16423.34
909.5167, 16402.39
909.9988, 16386.59
910.4809, 16373.16
910.9630, 16361.81
911.4451, 16352.70
911.9272, 16334.18
912.4094, 16305.81
912.8915, 16281.30
913.3736, 16278.37
913.8557, 16279.86
914.3378, 16262.02
914.8199, 16227.36
915.3021, 16204.44
915.7842, 16221.50
916.2663, 16228.42
916.7484, 16205.85
917.2305, 16162.57
917.7126, 16130.73
918.1948, 16110.43
918.6769, 16098.60
919.1590, 16099.74
919.6411, 16100.86
920.1232, 16083.51
920.6053, 16054.43
921.0875, 16027.08
921.5696, 16004.38
922.0517, 15985.76
922.5338, 15971.33
923.0159, 15960.29
923.4980, 15953.71
923.9802, 15952.27
924.4623, 15943.11
924.9444, 15924.46
925.4265, 15900.48
925.9086, 15872.94
926.3907, 15843.81
926.8729, 15813.76
927.3550, 15780.86
927.8371, 15759.47
928.3192, 15768.14
928.8013, 15775.75
929.2834, 15764.03
929.7656, 15733.06
930.2477, 15717.39
930.7298, 15717.34
931.2119, 15719.53
931.6940, 15721.55
932.1761, 15716.51
932.6583, 15690.06
933.1404, 15647.51
933.6225, 15611.19
934.1046, 15591.30
934.5867, 15575.56
935.0688, 15561.78
935.5510, 15549.81
936.0331, 15541.76
936.5152, 15537.96
936.9973, 15526.08
937.4794, 15501.00
937.9615, 15473.04
938.4437, 15452.92
938.9258, 15438.70
939.4079, 15428.03
939.8900, 15422.22
940.3721, 15415.47
940.8542, 15405.76
941.3364, 15395.15
941.8185, 15384.57
942.3006, 15373.66
942.7827, 15364.69
943.2648, 15357.54
943.7469, 15348.30
944.2291, 15337.62
944.7112, 15320.55
945.1933, 15284.52
945.6754, 15231.50
946.1575, 15195.77
946.6396, 15203.46
947.1218, 15207.97
947.6039, 15195.24
948.0860, 15170.02
948.5681, 15146.57
949.0502, 15125.46
949.5323, 15112.35
950.0145, 15114.45
950.4966, 15118.07
950.9787, 15112.70
951.4608, 15098.99
951.9429, 15077.99
952.4250, 15034.75
952.9072, 15005.82
953.3893, 14994.85
953.8714, 14994.68
954.3535, 15000.75
954.8356, 15011.39
955.3177, 15016.17
955.7999, 15013.97
956.2820, 15006.82
956.7641, 14993.90
957.2462, 14978.54
957.7283, 14963.95
958.2104, 14950.57
958.6925, 14933.70
959.1746, 14909.50
959.6567, 14890.08
960.1389, 14883.74
960.6210, 14884.85
961.1031, 14869.81
961.5852, 14843.38
962.0673, 14827.98
962.5494, 14852.26
963.0316, 14871.85
963.5137, 14847.95
963.9958, 14806.02
964.4779, 14797.08
964.9600, 14838.10
965.4421, 14870.56
965.9243, 14887.98
966.4064, 14896.72
966.8885, 14900.97
967.3706, 14903.33
967.8527, 14910.85
968.3348, 14924.74
968.8170, 14939.89
969.2991, 14946.49
969.7812, 14959.55
970.2633, 14994.79
970.7454, 15052.55
971.2275, 15082.81
971.7097, 15081.68
972.1918, 15077.69
972.6739, 15083.85
973.1560, 15097.92
973.6381, 15121.13
974.1202, 15149.17
974.6024, 15169.94
975.0845, 15180.57
975.5666, 15180.90
976.0487, 15169.64
976.5308, 15149.23
977.0129, 15122.02
977.4951, 15088.28
977.9772, 15048.63
978.4593, 15002.63
978.9414, 14955.43
979.4235, 14907.97
979.9056, 14864.23
980.3878, 14827.77
980.8699, 14799.19
981.3520, 14782.83
981.8341, 14795.06
982.3162, 14796.26
982.7983, 14761.95
983.2805, 14701.42
983.7626, 14665.47
984.2447, 14652.44
984.7268, 14648.51
985.2089, 14658.46
985.6910, 14662.87
986.1732, 14635.38
986.6553, 14594.02
987.1374, 14578.99
987.6195, 14606.34
988.1016, 14631.34
988.5837, 14650.86
989.0659, 14664.28
989.5480, 14666.59
990.0301, 14662.36
990.5122, 14666.17
990.9943, 14680.40
991.4764, 14692.04
991.9586, 14687.72
992.4407, 14683.63
992.9228, 14691.19
993.4049, 14709.84
993.8870, 14730.36
994.3691, 14754.92
994.8513, 14765.65
995.3334, 14746.35
995.8155, 14717.60
996.2976, 14711.07
996.7797, 14720.22
997.2618, 14730.20
997.7440, 14735.40
998.2261, 14741.49
998.7082, 14749.43
999.1903, 14758.55
999.6724, 14770.33
1000.155, 14784.20
1000.637, 14788.55
1001.119, 14782.24
1001.601, 14766.87
1002.083, 14745.98
1002.565, 14714.75
1003.047, 14663.14
1003.529, 14591.58
1004.011, 14528.72
1004.494, 14477.28
1004.976, 14433.79
1005.458, 14399.24
1005.940, 14370.53
1006.422, 14337.64
1006.904, 14304.13
1007.386, 14284.36
1007.868, 14288.66
1008.351, 14297.18
1008.833, 14304.74
1009.315, 14308.69
1009.797, 14306.07
1010.279, 14294.86
1010.761, 14284.92
1011.243, 14276.38
1011.725, 14268.85
1012.207, 14273.87
1012.690, 14272.96
1013.172, 14231.97
1013.654, 14155.61
1014.136, 14084.43
1014.618, 14033.08
1015.100, 13989.00
1015.582, 13951.68
1016.064, 13918.14
1016.547, 13882.07
1017.029, 13843.70
1017.511, 13801.85
1017.993, 13754.12
1018.475, 13711.40
1018.957, 13684.53
1019.439, 13665.74
1019.921, 13647.24
1020.403, 13627.38
1020.886, 13611.68
1021.368, 13600.48
1021.850, 13592.56
1022.332, 13591.66
1022.814, 13591.67
1023.296, 13576.09
1023.778, 13548.17
1024.260, 13519.87
1024.743, 13488.00
1025.225, 13467.17
1025.707, 13475.11
1026.189, 13488.71
1026.671, 13470.58
1027.153, 13419.17
1027.635, 13378.67
1028.117, 13354.34
1028.599, 13343.39
1029.082, 13357.96
1029.564, 13374.61
1030.046, 13363.75
1030.528, 13320.11
1031.010, 13298.11
1031.492, 13311.49
1031.974, 13324.29
1032.456, 13323.23
1032.938, 13311.86
1033.421, 13296.25
1033.903, 13277.85
1034.385, 13261.95
1034.867, 13253.62
1035.349, 13242.04
1035.831, 13212.23
1036.313, 13183.66
1036.795, 13179.47
1037.278, 13206.46
1037.760, 13210.25
1038.242, 13188.48
1038.724, 13164.44
1039.206, 13155.42
1039.688, 13154.93
1040.170, 13164.93
1040.652, 13179.65
1041.135, 13170.58
1041.617, 13104.59
1042.099, 13061.90
1042.581, 13062.41
1043.063, 13084.58
1043.545, 13093.70
1044.027, 13092.43
1044.509, 13088.07
1044.991, 13080.90
1045.474, 13077.51
1045.956, 13091.97
1046.438, 13102.23
1046.920, 13087.32
1047.402, 13048.34
1047.884, 13037.59
1048.366, 13057.13
1048.848, 13074.88
1049.330, 13074.87
1049.813, 13065.77
1050.295, 13053.49
1050.777, 13040.57
1051.259, 13031.73
1051.741, 13033.65
1052.223, 13031.99
1052.705, 13027.22
1053.187, 13017.55
1053.670, 12995.99
1054.152, 12968.37
1054.634, 12958.41
1055.116, 12965.66
1055.598, 12969.97
1056.080, 12954.01
1056.562, 12939.06
1057.044, 12936.58
1057.526, 12942.33
1058.009, 12947.03
1058.491, 12950.83
1058.973, 12949.19
1059.455, 12940.07
1059.937, 12928.97
1060.419, 12922.63
1060.901, 12916.82
1061.383, 12905.49
1061.865, 12885.69
1062.348, 12872.48
1062.830, 12866.76
1063.312, 12866.80
1063.794, 12873.07
1064.276, 12883.64
1064.758, 12894.50
1065.240, 12905.37
1065.722, 12915.26
1066.205, 12932.26
1066.687, 12936.58
1067.169, 12912.41
1067.651, 12881.03
1068.133, 12859.90
1068.615, 12849.09
1069.097, 12851.28
1069.579, 12866.56
1070.062, 12878.87
1070.544, 12871.11
1071.026, 12860.07
1071.508, 12858.21
1071.990, 12864.63
1072.472, 12872.92
1072.954, 12887.12
1073.436, 12888.89
1073.918, 12872.58
1074.401, 12849.42
1074.883, 12827.26
1075.365, 12811.02
1075.847, 12811.48
1076.329, 12832.80
1076.811, 12849.64
1077.293, 12853.57
1077.775, 12853.60
1078.257, 12850.27
1078.740, 12846.84
1079.222, 12859.58
1079.704, 12884.40
1080.186, 12901.37
1080.668, 12898.93
1081.150, 12894.08
1081.632, 12895.48
1082.114, 12899.83
1082.596, 12904.66
1083.079, 12911.34
1083.561, 12907.18
1084.043, 12891.14
1084.525, 12876.54
1085.007, 12876.91
1085.489, 12880.26
1085.971, 12870.33
1086.453, 12852.80
1086.936, 12847.07
1087.418, 12864.24
1087.900, 12875.78
1088.382, 12878.96
1088.864, 12875.08
1089.346, 12862.06
1089.828, 12844.63
1090.310, 12830.99
1090.792, 12822.26
1091.275, 12820.99
1091.757, 12840.88
1092.239, 12853.03
1092.721, 12842.33
1093.203, 12820.53
1093.685, 12824.11
1094.167, 12848.67
1094.649, 12867.41
1095.131, 12871.48
1095.614, 12872.67
1096.096, 12876.16
1096.578, 12882.15
1097.060, 12893.12
1097.542, 12909.35
1098.024, 12910.55
1098.506, 12895.12
1098.988, 12883.43
1099.471, 12891.42
1099.953, 12902.70
1100.435, 12895.52
1100.917, 12879.61
1101.399, 12872.35
1101.881, 12882.00
1102.363, 12892.62
1102.845, 12905.38
1103.328, 12916.11
1103.810, 12922.28
1104.292, 12923.58
1104.774, 12915.15
1105.256, 12899.84
1105.738, 12892.36
1106.220, 12909.16
1106.702, 12919.82
1107.184, 12914.08
1107.667, 12903.15
1108.149, 12906.68
1108.631, 12921.07
1109.113, 12928.60
1109.595, 12926.98
1110.077, 12920.04
1110.559, 12900.20
1111.041, 12885.45
1111.523, 12889.39
1112.006, 12906.98
1112.488, 12918.96
1112.970, 12925.30
1113.452, 12929.76
1113.934, 12933.75
1114.416, 12934.88
1114.898, 12926.04
1115.380, 12916.07
1115.863, 12916.33
1116.345, 12930.07
1116.827, 12935.72
1117.309, 12931.90
1117.791, 12926.60
1118.273, 12923.28
1118.755, 12921.56
1119.237, 12921.78
1119.719, 12923.00
1120.202, 12923.24
1120.684, 12918.10
1121.166, 12919.39
1121.648, 12929.06
1122.130, 12941.87
1122.612, 12957.50
1123.094, 12972.05
1123.576, 12970.50
1124.058, 12956.49
1124.541, 12947.15
1125.023, 12956.97
1125.505, 12963.31
1125.987, 12959.33
1126.469, 12950.79
1126.951, 12944.43
1127.433, 12940.09
1127.915, 12937.64
1128.398, 12936.98
1128.880, 12935.72
1129.362, 12933.68
1129.844, 12929.15
1130.326, 12917.53
1130.808, 12903.75
1131.290, 12903.03
1131.772, 12915.56
1132.255, 12920.28
1132.737, 12911.80
1133.219, 12901.46
1133.701, 12895.28
1134.183, 12894.69
1134.665, 12904.30
1135.147, 12923.58
1135.629, 12933.95
1136.111, 12934.44
1136.594, 12930.64
1137.076, 12922.01
1137.558, 12914.85
1138.040, 12919.18
1138.522, 12928.81
1139.004, 12935.22
1139.486, 12934.62
1139.968, 12937.75
1140.450, 12946.06
1140.933, 12953.92
1141.415, 12959.53
1141.897, 12961.84
1142.379, 12956.91
1142.861, 12947.62
1143.343, 12940.18
1143.825, 12940.13
1144.307, 12937.19
1144.790, 12930.70
1145.272, 12921.90
1145.754, 12907.92
1146.236, 12893.24
1146.718, 12894.87
1147.200, 12909.64
1147.682, 12922.03
1148.164, 12922.52
1148.646, 12921.98
1149.129, 12921.53
1149.611, 12922.54
1150.093, 12927.99
1150.575, 12936.60
1151.057, 12942.51
1151.539, 12945.13
1152.021, 12944.19
1152.503, 12931.17
1152.985, 12924.30
1153.468, 12937.36
1153.950, 12959.58
1154.432, 12970.47
1154.914, 12970.45
1155.396, 12961.39
1155.878, 12942.65
1156.360, 12927.52
1156.842, 12923.60
1157.325, 12929.00
1157.807, 12950.54
1158.289, 12980.89
1158.771, 12986.18
1159.253, 12965.11
1159.735, 12952.68
1160.217, 12959.27
1160.699, 12971.70
1161.182, 12980.80
1161.664, 12987.24
1162.146, 12991.65
1162.628, 12994.12
1163.110, 12992.90
1163.592, 12987.32
1164.074, 12983.98
1164.556, 12986.29
1165.038, 12990.73
1165.521, 12996.12
1166.003, 12999.90
1166.485, 12997.83
1166.967, 12987.55
1167.449, 12977.94
1167.931, 12967.04
1168.413, 12966.29
1168.895, 12989.22
1169.377, 13018.78
1169.860, 13030.31
1170.342, 13029.98
1170.824, 13029.10
1171.306, 13036.94
1171.788, 13027.49
1172.270, 12992.17
1172.752, 12964.35
1173.234, 12977.80
1173.717, 13010.30
1174.199, 13024.47
1174.681, 13023.95
1175.163, 13020.41
1175.645, 13013.07
1176.127, 13009.75
1176.609, 13012.18
1177.091, 13016.07
1177.573, 13015.79
1178.056, 13014.46
1178.538, 13021.85
1179.020, 13035.60
1179.502, 13041.91
1179.984, 13025.64
1180.466, 13016.70
1180.948, 13021.87
1181.430, 13031.78
1181.912, 13035.38
1182.395, 13034.20
1182.877, 13030.28
1183.359, 13024.32
1183.841, 13022.04
1184.323, 13020.81
1184.805, 13032.48
1185.287, 13068.27
1185.769, 13106.80
1186.252, 13105.15
1186.734, 13076.40
1187.216, 13060.87
1187.698, 13064.20
1188.180, 13064.73
1188.662, 13044.55
1189.144, 13030.13
1189.626, 13030.30
1190.109, 13041.79
1190.591, 13064.88
1191.073, 13093.17
1191.555, 13099.31
1192.037, 13074.58
1192.519, 13052.66
1193.001, 13047.69
1193.483, 13051.87
1193.965, 13065.34
1194.448, 13082.75
1194.930, 13083.00
1195.412, 13071.03
1195.894, 13067.69
1196.376, 13080.48
1196.858, 13095.56
1197.340, 13110.24
1197.822, 13121.32
1198.304, 13127.90
1198.787, 13129.46
1199.269, 13119.15
1199.751, 13100.38
1200.233, 13089.75
1200.715, 13095.56
1201.197, 13103.86
1201.679, 13111.36
1202.161, 13115.75
1202.644, 13114.17
1203.126, 13107.88
1203.608, 13106.69
1204.090, 13109.50
1204.572, 13110.77
1205.054, 13108.83
1205.536, 13103.66
1206.018, 13087.32
1206.500, 13074.90
1206.983, 13081.48
1207.465, 13104.60
1207.947, 13114.04
1208.429, 13111.69
1208.911, 13109.50
1209.393, 13121.38
1209.875, 13124.76
1210.357, 13094.20
1210.839, 13063.82
1211.322, 13068.24
1211.804, 13104.34
1212.286, 13119.91
1212.768, 13116.68
1213.250, 13110.29
1213.732, 13102.79
1214.214, 13101.79
1214.696, 13115.15
1215.179, 13132.59
1215.661, 13146.37
1216.143, 13155.82
1216.625, 13148.16
1217.107, 13125.70
1217.589, 13113.22
1218.071, 13132.22
1218.553, 13154.87
1219.036, 13178.83
1219.518, 13193.48
1220.000, 13177.69
1220.482, 13137.35
1220.964, 13121.47
1221.446, 13130.83
1221.928, 13142.29
1222.410, 13142.02
1222.892, 13142.47
1223.375, 13149.23
1223.857, 13157.79
1224.339, 13160.68
1224.821, 13159.49
1225.303, 13166.51
1225.785, 13181.52
1226.267, 13188.26
1226.749, 13172.27
1227.231, 13153.41
1227.714, 13136.04
1228.196, 13122.65
1228.678, 13119.35
1229.160, 13123.68
1229.642, 13125.47
1230.124, 13123.89
1230.606, 13122.79
1231.088, 13123.37
1231.571, 13125.47
1232.053, 13128.65
1232.535, 13133.12
1233.017, 13141.66
1233.499, 13151.47
1233.981, 13153.80
1234.463, 13147.66
1234.945, 13137.76
1235.427, 13120.71
1235.910, 13107.66
1236.392, 13102.00
1236.874, 13101.43
1237.356, 13102.64
1237.838, 13105.73
1238.320, 13110.87
1238.802, 13118.22
1239.284, 13126.87
1239.766, 13142.43
1240.249, 13149.53
1240.731, 13140.32
1241.213, 13127.72
1241.695, 13134.99
1242.177, 13154.58
1242.659, 13172.63
1243.141, 13187.01
1243.623, 13194.22
1244.106, 13186.86
1244.588, 13185.73
1245.070, 13199.07
1245.552, 13215.10
1246.034, 13210.68
1246.516, 13197.90
1246.998, 13200.81
1247.480, 13224.14
1247.963, 13230.01
1248.445, 13207.75
1248.927, 13189.25
1249.409, 13184.06
1249.891, 13186.93
1250.373, 13195.78
1250.855, 13205.14
1251.337, 13207.59
1251.819, 13201.82
1252.302, 13192.73
1252.784, 13179.97
1253.266, 13166.33
1253.748, 13150.17
1254.230, 13140.81
1254.712, 13157.96
1255.194, 13182.56
1255.676, 13190.68
1256.158, 13179.08
1256.641, 13178.01
1257.123, 13188.93
1257.605, 13197.41
1258.087, 13197.91
1258.569, 13197.31
1259.051, 13203.63
1259.533, 13211.56
1260.015, 13215.55
1260.498, 13215.85
1260.980, 13215.87
1261.462, 13215.65
1261.944, 13220.41
1262.426, 13233.84
1262.908, 13245.23
1263.390, 13241.61
1263.872, 13236.14
1264.354, 13241.19
1264.837, 13254.09
1265.319, 13256.38
1265.801, 13249.20
1266.283, 13245.22
1266.765, 13250.47
1267.247, 13249.84
1267.729, 13220.70
1268.211, 13197.19
1268.693, 13203.67
1269.176, 13230.05
1269.658, 13236.35
1270.140, 13227.56
1270.622, 13226.09
1271.104, 13241.54
1271.586, 13249.19
1272.068, 13227.84
1272.550, 13208.58
1273.033, 13203.82
1273.515, 13210.01
1273.997, 13223.61
1274.479, 13239.57
1274.961, 13242.48
1275.443, 13224.35
1275.925, 13215.48
1276.407, 13223.50
1276.890, 13236.90
1277.372, 13253.70
1277.854, 13269.20
1278.336, 13273.61
1278.818, 13271.27
1279.300, 13269.57
1279.782, 13270.02
1280.264, 13270.67
1280.746, 13271.67
1281.229, 13272.49
1281.711, 13273.06
1282.193, 13273.68
1282.675, 13272.94
1283.157, 13273.75
1283.639, 13282.28
1284.121, 13300.06
1284.603, 13305.22
1285.085, 13296.44
1285.568, 13286.56
1286.050, 13278.00
1286.532, 13274.84
1287.014, 13284.00
1287.496, 13297.64
1287.978, 13308.13
1288.460, 13315.92
1288.942, 13329.06
1289.425, 13346.91
1289.907, 13360.67
1290.389, 13367.73
1290.871, 13369.71
1291.353, 13361.77
1291.835, 13355.26
1292.317, 13358.31
1292.799, 13367.49
1293.281, 13370.20
1293.764, 13367.90
1294.246, 13364.75
1294.728, 13360.28
1295.210, 13363.53
1295.692, 13388.44
1296.174, 13409.49
1296.656, 13417.28
1297.138, 13415.99
1297.620, 13411.02
1298.103, 13404.65
1298.585, 13400.88
1299.067, 13400.16
1299.549, 13406.35
1300.031, 13425.03
1300.513, 13441.24
1300.995, 13446.59
1301.477, 13444.50
1301.960, 13440.71
1302.442, 13438.70
1302.924, 13442.21
1303.406, 13451.66
1303.888, 13466.61
1304.370, 13485.72
1304.852, 13498.10
1305.334, 13485.84
##END=



