##NAMES=Metauranocircite II
##RRUFFID=R070721
##IDEAL CHEMISTRY=Ba(UO_2_)_2_(PO_4_)_2_&#183;6H_2_O
##LOCALITY=Streuberg Quarry, Bergen, Falkenstein, Voigtland, Saxony, Germany
##OWNER=RRUFF
##SOURCE=James Shigley
##DESCRIPTION=Yellow platy crystals
##STATUS=The identification of this mineral has been confirmed by single-crystal X-ray diffraction.
##URL=rruff.info/R070721
93.77539, 834.3651
94.25751, 803.0493
94.73962, 818.0631
95.22174, 872.1049
95.70386, 938.9559
96.18597, 1012.339
96.66809, 1091.100
97.15021, 1170.274
97.63232, 1248.834
98.11444, 1334.019
98.59656, 1433.456
99.07867, 1547.535
99.56079, 1675.181
100.0429, 1814.599
100.5250, 1965.047
101.0071, 2131.021
101.4893, 2310.926
101.9714, 2506.759
102.4535, 2717.866
102.9356, 2945.425
103.4177, 3189.234
103.8998, 3447.614
104.3820, 3726.583
104.8641, 4011.686
105.3462, 4309.033
105.8283, 4613.672
106.3104, 4914.985
106.7925, 5209.182
107.2747, 5501.330
107.7568, 5791.321
108.2389, 6090.681
108.7210, 6376.308
109.2031, 6640.508
109.6852, 6883.976
110.1674, 7136.636
110.6495, 7390.730
111.1316, 7659.891
111.6137, 7955.792
112.0958, 8281.550
112.5779, 8634.999
113.0601, 9014.880
113.5422, 9423.174
114.0243, 9865.688
114.5064, 10356.94
114.9885, 10877.25
115.4706, 11409.18
115.9528, 11963.00
116.4349, 12513.96
116.9170, 13041.57
117.3991, 13545.00
117.8812, 14048.33
118.3633, 14579.08
118.8455, 15116.18
119.3276, 15616.16
119.8097, 16056.65
120.2918, 16463.43
120.7739, 16851.60
121.2560, 17228.45
121.7382, 17585.53
122.2203, 17917.96
122.7024, 18226.41
123.1845, 18513.00
123.6666, 18770.10
124.1487, 19007.83
124.6309, 19241.25
125.1130, 19465.15
125.5951, 19689.88
126.0772, 19925.26
126.5593, 20170.67
127.0414, 20420.69
127.5236, 20661.30
128.0057, 20902.19
128.4878, 21171.86
128.9699, 21489.49
129.4520, 21833.35
129.9341, 22158.33
130.4162, 22463.08
130.8984, 22779.81
131.3805, 23149.11
131.8626, 23563.04
132.3447, 23981.78
132.8268, 24393.14
133.3089, 24797.60
133.7911, 25135.81
134.2732, 25332.29
134.7553, 25432.95
135.2374, 25548.39
135.7195, 25679.65
136.2016, 25796.95
136.6838, 25885.03
137.1659, 25944.41
137.6480, 26003.85
138.1301, 26068.50
138.6122, 26126.96
139.0943, 26156.52
139.5765, 26152.46
140.0586, 26141.41
140.5407, 26136.21
141.0228, 26138.75
141.5049, 26136.91
141.9870, 26132.32
142.4692, 26121.82
142.9513, 26094.87
143.4334, 26043.72
143.9155, 25989.73
144.3976, 25941.23
144.8797, 25892.81
145.3619, 25862.27
145.8440, 25855.58
146.3261, 25867.98
146.8082, 25877.12
147.2903, 25881.24
147.7724, 25883.83
148.2546, 25886.82
148.7367, 25887.45
149.2188, 25892.67
149.7009, 25901.35
150.1830, 25913.89
150.6651, 25938.29
151.1473, 25993.90
151.6294, 26049.82
152.1115, 26083.63
152.5936, 26090.41
153.0757, 26081.85
153.5578, 26045.46
154.0400, 25978.39
154.5221, 25944.12
155.0042, 25970.47
155.4863, 26018.42
155.9684, 26053.88
156.4505, 26074.94
156.9327, 26080.56
157.4148, 26062.86
157.8969, 26017.61
158.3790, 25983.72
158.8611, 25984.66
159.3432, 25994.97
159.8254, 25986.54
160.3075, 25929.91
160.7896, 25873.32
161.2717, 25837.54
161.7538, 25828.23
162.2359, 25819.83
162.7181, 25801.65
163.2002, 25780.37
163.6823, 25765.04
164.1644, 25768.73
164.6465, 25772.56
165.1286, 25763.32
165.6108, 25734.94
166.0929, 25711.48
166.5750, 25706.63
167.0571, 25713.94
167.5392, 25721.99
168.0213, 25731.52
168.5035, 25735.50
168.9856, 25724.63
169.4677, 25690.56
169.9498, 25661.46
170.4319, 25657.88
170.9140, 25673.46
171.3962, 25693.79
171.8783, 25724.79
172.3604, 25750.79
172.8425, 25753.54
173.3246, 25724.03
173.8067, 25685.44
174.2889, 25655.56
174.7710, 25633.16
175.2531, 25614.12
175.7352, 25593.36
176.2173, 25575.64
176.6994, 25568.82
177.1816, 25577.98
177.6637, 25592.02
178.1458, 25596.88
178.6279, 25594.62
179.1100, 25595.45
179.5921, 25611.30
180.0743, 25634.35
180.5564, 25648.65
181.0385, 25648.21
181.5206, 25641.10
182.0027, 25642.68
182.4848, 25650.98
182.9670, 25649.93
183.4491, 25616.07
183.9312, 25561.95
184.4133, 25525.09
184.8954, 25518.92
185.3775, 25527.91
185.8597, 25525.68
186.3418, 25512.33
186.8239, 25493.83
187.3060, 25470.89
187.7881, 25445.57
188.2702, 25429.00
188.7523, 25428.87
189.2345, 25435.65
189.7166, 25423.39
190.1987, 25391.25
190.6808, 25358.46
191.1629, 25345.49
191.6451, 25350.03
192.1272, 25349.30
192.6093, 25333.44
193.0914, 25311.07
193.5735, 25313.17
194.0556, 25343.29
194.5378, 25375.08
195.0199, 25377.82
195.5020, 25353.10
195.9841, 25338.75
196.4662, 25348.48
196.9483, 25374.97
197.4305, 25384.22
197.9126, 25371.68
198.3947, 25358.72
198.8768, 25367.97
199.3589, 25399.53
199.8410, 25435.61
200.3232, 25475.88
200.8053, 25516.79
201.2874, 25538.20
201.7695, 25536.85
202.2516, 25524.34
202.7337, 25509.51
203.2159, 25491.66
203.6980, 25480.27
204.1801, 25480.55
204.6622, 25491.07
205.1443, 25495.59
205.6264, 25494.42
206.1086, 25487.98
206.5907, 25475.36
207.0728, 25455.68
207.5549, 25436.56
208.0370, 25419.65
208.5191, 25405.03
209.0013, 25392.51
209.4834, 25382.15
209.9655, 25373.91
210.4476, 25369.21
210.9297, 25370.42
211.4118, 25366.60
211.8940, 25353.42
212.3761, 25331.40
212.8582, 25314.30
213.3403, 25300.77
213.8224, 25294.87
214.3045, 25303.30
214.7867, 25331.61
215.2688, 25357.94
215.7509, 25376.89
216.2330, 25388.30
216.7151, 25400.06
217.1972, 25408.57
217.6794, 25421.77
218.1615, 25452.12
218.6436, 25512.32
219.1257, 25555.17
219.6078, 25563.98
220.0899, 25538.43
220.5721, 25524.47
221.0542, 25524.85
221.5363, 25532.94
222.0184, 25543.40
222.5005, 25559.77
222.9826, 25569.81
223.4648, 25566.68
223.9469, 25550.06
224.4290, 25551.62
224.9111, 25581.71
225.3932, 25618.40
225.8753, 25639.24
226.3575, 25635.96
226.8396, 25634.79
227.3217, 25641.68
227.8038, 25656.91
228.2859, 25670.10
228.7680, 25680.17
229.2502, 25689.65
229.7323, 25701.25
230.2144, 25717.60
230.6965, 25731.14
231.1786, 25739.50
231.6607, 25742.76
232.1429, 25748.72
232.6250, 25757.65
233.1071, 25769.08
233.5892, 25782.65
234.0713, 25799.07
234.5534, 25815.99
235.0356, 25831.21
235.5177, 25844.83
235.9998, 25869.08
236.4819, 25917.98
236.9640, 25961.95
237.4461, 25970.08
237.9283, 25906.99
238.4104, 25879.45
238.8925, 25918.75
239.3746, 26020.22
239.8567, 26081.11
240.3388, 26081.68
240.8210, 26065.18
241.3031, 26064.12
241.7852, 26082.48
242.2673, 26108.36
242.7494, 26143.73
243.2315, 26187.32
243.7137, 26223.66
244.1958, 26255.57
244.6779, 26277.37
245.1600, 26282.51
245.6421, 26257.89
246.1242, 26244.21
246.6064, 26248.34
247.0885, 26267.97
247.5706, 26287.75
248.0527, 26309.55
248.5348, 26329.28
249.0169, 26343.46
249.4990, 26348.80
249.9812, 26357.14
250.4633, 26370.58
250.9454, 26388.16
251.4275, 26404.47
251.9096, 26417.57
252.3917, 26432.32
252.8739, 26451.86
253.3560, 26479.07
253.8381, 26503.15
254.3202, 26517.86
254.8023, 26529.36
255.2844, 26562.36
255.7666, 26628.34
256.2487, 26695.96
256.7308, 26749.33
257.2129, 26788.41
257.6950, 26811.77
258.1772, 26811.73
258.6593, 26798.25
259.1414, 26799.10
259.6235, 26820.03
260.1056, 26844.73
260.5877, 26866.52
261.0699, 26884.43
261.5520, 26900.99
262.0341, 26913.13
262.5162, 26925.89
262.9983, 26954.42
263.4804, 27010.94
263.9626, 27055.80
264.4447, 27065.64
264.9268, 27025.89
265.4089, 27020.97
265.8910, 27065.42
266.3731, 27131.20
266.8553, 27169.32
267.3374, 27171.18
267.8195, 27169.08
268.3016, 27173.92
268.7837, 27186.48
269.2658, 27199.61
269.7480, 27209.81
270.2301, 27225.59
270.7122, 27263.40
271.1943, 27330.94
271.6764, 27390.99
272.1585, 27428.82
272.6407, 27444.25
273.1228, 27457.68
273.6049, 27465.57
274.0870, 27476.58
274.5691, 27503.67
275.0512, 27549.99
275.5334, 27593.43
276.0155, 27626.14
276.4976, 27649.47
276.9797, 27682.94
277.4618, 27731.89
277.9439, 27776.52
278.4261, 27790.66
278.9081, 27770.35
279.3903, 27763.38
279.8724, 27786.76
280.3545, 27831.94
280.8366, 27857.44
281.3187, 27860.55
281.8008, 27858.02
282.2830, 27860.92
282.7651, 27869.33
283.2472, 27890.93
283.7293, 27933.47
284.2114, 27985.83
284.6935, 28007.67
285.1757, 27995.27
285.6578, 27987.54
286.1399, 28019.94
286.6220, 28088.66
287.1041, 28142.69
287.5862, 28171.12
288.0684, 28187.81
288.5505, 28224.07
289.0326, 28279.95
289.5147, 28332.58
289.9968, 28364.00
290.4789, 28378.20
290.9611, 28398.49
291.4432, 28428.13
291.9253, 28461.11
292.4074, 28489.09
292.8895, 28512.28
293.3716, 28530.60
293.8538, 28539.54
294.3359, 28543.45
294.8180, 28558.43
295.3001, 28586.93
295.7822, 28617.65
296.2643, 28635.35
296.7465, 28642.67
297.2286, 28651.51
297.7107, 28668.33
298.1928, 28690.47
298.6749, 28713.17
299.1570, 28736.86
299.6392, 28758.64
300.1213, 28768.95
300.6034, 28774.39
301.0855, 28792.25
301.5676, 28843.34
302.0497, 28901.50
302.5319, 28919.83
303.0140, 28901.02
303.4961, 28886.50
303.9782, 28912.70
304.4603, 28964.70
304.9424, 29018.61
305.4246, 29070.57
305.9067, 29117.03
306.3888, 29150.93
306.8709, 29173.85
307.3530, 29194.89
307.8351, 29223.24
308.3173, 29251.35
308.7994, 29267.39
309.2815, 29261.12
309.7636, 29259.14
310.2457, 29289.70
310.7278, 29342.76
311.2100, 29390.29
311.6921, 29415.54
312.1742, 29430.56
312.6563, 29442.23
313.1384, 29448.96
313.6205, 29464.34
314.1027, 29508.18
314.5848, 29565.36
315.0669, 29609.68
315.5490, 29614.19
316.0311, 29614.90
316.5132, 29634.97
316.9954, 29678.04
317.4775, 29721.14
317.9596, 29748.34
318.4417, 29771.55
318.9238, 29804.59
319.4059, 29857.70
319.8881, 29914.91
320.3702, 29975.25
320.8523, 30037.68
321.3344, 30083.14
321.8165, 30090.51
322.2986, 30086.68
322.7808, 30092.18
323.2629, 30113.17
323.7450, 30141.67
324.2271, 30188.12
324.7092, 30245.66
325.1913, 30280.51
325.6735, 30262.42
326.1556, 30239.74
326.6377, 30237.41
327.1198, 30274.71
327.6019, 30308.58
328.0840, 30332.91
328.5662, 30352.42
329.0483, 30379.44
329.5304, 30427.91
330.0125, 30470.65
330.4946, 30495.22
330.9767, 30486.77
331.4589, 30501.84
331.9410, 30559.51
332.4231, 30631.59
332.9052, 30678.31
333.3873, 30683.54
333.8694, 30687.44
334.3516, 30696.60
334.8337, 30710.25
335.3158, 30736.79
335.7979, 30781.34
336.2800, 30831.79
336.7621, 30876.09
337.2443, 30911.98
337.7264, 30948.77
338.2085, 30991.64
338.6906, 31037.24
339.1727, 31064.41
339.6548, 31065.86
340.1370, 31067.02
340.6191, 31087.26
341.1012, 31129.09
341.5833, 31171.49
342.0654, 31214.96
342.5475, 31255.29
343.0297, 31278.39
343.5118, 31281.57
343.9939, 31287.22
344.4760, 31310.76
344.9581, 31350.04
345.4402, 31378.84
345.9224, 31393.71
346.4045, 31405.29
346.8866, 31429.13
347.3687, 31464.30
347.8508, 31498.92
348.3329, 31527.54
348.8151, 31552.32
349.2972, 31579.46
349.7793, 31609.00
350.2614, 31639.68
350.7435, 31667.76
351.2256, 31695.45
351.7078, 31731.15
352.1899, 31784.35
352.6720, 31838.21
353.1541, 31864.60
353.6362, 31867.97
354.1183, 31873.41
354.6005, 31909.36
355.0826, 31954.45
355.5647, 31973.03
356.0468, 31946.87
356.5289, 31925.44
357.0110, 31958.76
357.4932, 32029.96
357.9753, 32099.77
358.4574, 32156.41
358.9395, 32198.69
359.4216, 32219.34
359.9037, 32215.57
360.3859, 32214.49
360.8680, 32232.77
361.3501, 32262.06
361.8322, 32292.15
362.3143, 32322.33
362.7964, 32349.77
363.2786, 32374.43
363.7607, 32395.85
364.2428, 32410.56
364.7249, 32406.21
365.2070, 32401.28
365.6891, 32408.69
366.1713, 32442.52
366.6534, 32474.23
367.1355, 32499.62
367.6176, 32519.36
368.0997, 32534.78
368.5818, 32541.62
369.0640, 32548.56
369.5461, 32557.50
370.0282, 32563.60
370.5103, 32586.01
370.9924, 32646.98
371.4745, 32715.51
371.9567, 32747.84
372.4388, 32704.77
372.9209, 32683.79
373.4030, 32713.38
373.8851, 32795.14
374.3672, 32856.34
374.8494, 32888.49
375.3315, 32911.63
375.8136, 32941.82
376.2957, 32981.85
376.7778, 33017.53
377.2599, 33043.98
377.7421, 33065.14
378.2242, 33093.77
378.7063, 33129.13
379.1884, 33171.66
379.6705, 33227.46
380.1526, 33297.09
380.6348, 33347.02
381.1169, 33375.66
381.5990, 33385.78
382.0811, 33372.07
382.5632, 33336.91
383.0453, 33313.23
383.5275, 33321.73
384.0096, 33351.01
384.4917, 33365.98
384.9738, 33366.72
385.4559, 33367.37
385.9380, 33381.18
386.4202, 33405.15
386.9023, 33433.36
387.3844, 33471.92
387.8665, 33503.36
388.3486, 33491.81
388.8307, 33449.24
389.3129, 33423.88
389.7950, 33455.29
390.2771, 33513.71
390.7592, 33569.73
391.2413, 33620.48
391.7234, 33661.48
392.2056, 33682.96
392.6877, 33692.91
393.1698, 33704.24
393.6519, 33712.72
394.1340, 33731.61
394.6161, 33780.26
395.0983, 33857.16
395.5804, 33910.19
396.0625, 33897.58
396.5446, 33866.94
397.0267, 33854.06
397.5089, 33876.81
397.9910, 33905.00
398.4731, 33935.41
398.9552, 33967.64
399.4373, 34000.48
399.9194, 34040.17
400.4016, 34074.71
400.8837, 34097.24
401.3658, 34100.13
401.8479, 34115.28
402.3300, 34157.70
402.8121, 34202.96
403.2942, 34218.80
403.7763, 34182.32
404.2585, 34161.25
404.7406, 34176.37
405.2227, 34222.83
405.7048, 34244.82
406.1869, 34232.19
406.6690, 34217.93
407.1512, 34229.14
407.6333, 34270.16
408.1154, 34300.09
408.5975, 34313.13
409.0796, 34316.26
409.5617, 34322.18
410.0439, 34330.71
410.5260, 34341.27
411.0081, 34349.29
411.4902, 34357.75
411.9723, 34382.66
412.4544, 34425.02
412.9366, 34473.98
413.4187, 34527.45
413.9008, 34580.33
414.3829, 34615.62
414.8650, 34618.27
415.3471, 34613.54
415.8293, 34645.01
416.3114, 34703.04
416.7935, 34740.83
417.2756, 34707.41
417.7577, 34650.10
418.2398, 34621.26
418.7220, 34633.93
419.2041, 34652.33
419.6862, 34656.12
420.1683, 34652.14
420.6504, 34650.54
421.1325, 34649.35
421.6147, 34657.22
422.0968, 34684.18
422.5789, 34729.49
423.0610, 34765.78
423.5431, 34774.61
424.0252, 34779.20
424.5074, 34794.93
424.9895, 34833.39
425.4716, 34869.20
425.9537, 34897.47
426.4358, 34921.55
426.9179, 34949.39
427.4001, 34981.18
427.8822, 35015.72
428.3643, 35055.12
428.8464, 35101.80
429.3285, 35132.63
429.8106, 35139.23
430.2928, 35141.00
430.7749, 35159.70
431.2570, 35201.20
431.7391, 35235.50
432.2212, 35258.23
432.7033, 35270.29
433.1855, 35270.75
433.6676, 35258.13
434.1497, 35247.65
434.6318, 35249.18
435.1139, 35261.27
435.5960, 35274.14
436.0782, 35286.78
436.5603, 35303.80
437.0424, 35338.01
437.5245, 35382.80
438.0066, 35414.88
438.4887, 35420.93
438.9709, 35413.54
439.4530, 35402.63
439.9351, 35390.30
440.4172, 35390.50
440.8993, 35426.07
441.3814, 35472.70
441.8636, 35502.81
442.3457, 35506.41
442.8278, 35508.90
443.3099, 35521.15
443.7920, 35542.63
444.2741, 35572.66
444.7563, 35636.13
445.2384, 35684.49
445.7205, 35687.76
446.2026, 35645.19
446.6847, 35618.00
447.1668, 35625.54
447.6490, 35647.37
448.1311, 35670.96
448.6132, 35704.40
449.0953, 35726.97
449.5774, 35730.54
450.0595, 35724.86
450.5417, 35730.89
451.0238, 35751.87
451.5059, 35778.99
451.9880, 35812.66
452.4701, 35853.93
452.9522, 35880.70
453.4344, 35888.48
453.9165, 35893.07
454.3986, 35911.52
454.8807, 35944.78
455.3628, 35970.41
455.8449, 35983.91
456.3271, 35989.59
456.8092, 35994.06
457.2913, 35997.63
457.7734, 36004.64
458.2555, 36020.25
458.7376, 36040.51
459.2198, 36056.29
459.7019, 36067.10
460.1840, 36078.83
460.6661, 36098.38
461.1482, 36122.41
461.6303, 36144.60
462.1125, 36159.63
462.5946, 36177.59
463.0767, 36207.25
463.5588, 36246.20
464.0409, 36286.61
464.5230, 36337.98
465.0052, 36379.11
465.4873, 36388.65
465.9694, 36355.54
466.4515, 36342.37
466.9336, 36378.91
467.4157, 36435.00
467.8979, 36482.23
468.3800, 36510.07
468.8621, 36536.84
469.3442, 36566.16
469.8263, 36595.73
470.3084, 36616.31
470.7906, 36620.57
471.2727, 36627.56
471.7548, 36646.79
472.2369, 36681.31
472.7190, 36713.00
473.2011, 36743.85
473.6833, 36770.27
474.1654, 36785.96
474.6475, 36790.46
475.1296, 36796.69
475.6117, 36807.23
476.0938, 36820.99
476.5760, 36831.43
477.0581, 36839.23
477.5402, 36858.10
478.0223, 36909.57
478.5044, 36974.44
478.9865, 37011.72
479.4687, 37016.50
479.9508, 37016.25
480.4329, 37036.13
480.9150, 37066.62
481.3971, 37093.58
481.8792, 37113.53
482.3614, 37128.52
482.8435, 37136.84
483.3256, 37141.29
483.8077, 37149.48
484.2898, 37168.90
484.7719, 37189.88
485.2541, 37207.09
485.7362, 37218.36
486.2183, 37232.93
486.7004, 37252.85
487.1825, 37275.77
487.6646, 37299.71
488.1468, 37325.81
488.6289, 37348.43
489.1110, 37358.93
489.5931, 37365.79
490.0752, 37405.02
490.5573, 37493.71
491.0395, 37572.23
491.5216, 37608.99
492.0037, 37602.99
492.4858, 37613.30
492.9679, 37641.47
493.4500, 37680.14
493.9322, 37728.47
494.4143, 37783.46
494.8964, 37819.45
495.3785, 37822.45
495.8606, 37819.45
496.3427, 37858.61
496.8249, 37929.21
497.3070, 37992.29
497.7891, 38024.01
498.2712, 38037.30
498.7533, 38037.87
499.2354, 38025.97
499.7176, 38025.15
500.1997, 38054.32
500.6818, 38098.88
501.1639, 38146.43
501.6460, 38207.36
502.1281, 38253.02
502.6103, 38261.20
503.0924, 38250.21
503.5745, 38258.45
504.0566, 38316.91
504.5387, 38369.25
505.0208, 38399.00
505.5030, 38405.12
505.9851, 38416.91
506.4672, 38436.46
506.9493, 38458.95
507.4314, 38480.85
507.9135, 38501.79
508.3957, 38524.14
508.8778, 38548.85
509.3599, 38573.02
509.8420, 38587.04
510.3241, 38591.01
510.8062, 38607.90
511.2884, 38652.70
511.7705, 38713.04
512.2526, 38758.80
512.7347, 38790.98
513.2168, 38818.62
513.6989, 38842.33
514.1810, 38867.87
514.6631, 38907.40
515.1453, 38967.02
515.6274, 39019.98
516.1095, 39039.91
516.5916, 39045.23
517.0737, 39060.47
517.5558, 39108.37
518.0380, 39152.98
518.5201, 39174.04
519.0022, 39178.36
519.4843, 39199.05
519.9664, 39267.46
520.4485, 39329.75
520.9307, 39360.37
521.4128, 39347.18
521.8949, 39352.84
522.3770, 39384.24
522.8591, 39426.54
523.3412, 39465.04
523.8234, 39496.51
524.3055, 39536.70
524.7876, 39591.65
525.2697, 39652.50
525.7518, 39695.16
526.2339, 39720.04
526.7161, 39747.23
527.1982, 39793.49
527.6803, 39848.51
528.1624, 39878.04
528.6445, 39883.29
529.1266, 39898.69
529.6088, 39970.87
530.0909, 40063.80
530.5730, 40124.35
531.0551, 40135.71
531.5372, 40132.43
532.0193, 40122.75
532.5015, 40115.30
532.9836, 40123.65
533.4657, 40173.97
533.9478, 40218.07
534.4299, 40228.96
534.9120, 40211.92
535.3942, 40222.34
535.8763, 40292.04
536.3584, 40363.84
536.8405, 40415.15
537.3226, 40444.37
537.8047, 40457.82
538.2869, 40446.79
538.7690, 40432.90
539.2511, 40443.97
539.7332, 40483.06
540.2153, 40516.95
540.6974, 40538.27
541.1796, 40552.89
541.6617, 40573.46
542.1438, 40599.26
542.6259, 40623.80
543.1080, 40634.34
543.5901, 40644.75
544.0723, 40685.04
544.5544, 40753.27
545.0365, 40816.45
545.5186, 40841.41
546.0007, 40853.18
546.4828, 40882.22
546.9650, 40949.35
547.4471, 40994.87
547.9292, 40964.72
548.4113, 40907.04
548.8934, 40888.30
549.3755, 40959.84
549.8577, 41028.75
550.3398, 41073.29
550.8219, 41099.20
551.3040, 41136.28
551.7861, 41192.17
552.2682, 41247.73
552.7504, 41295.46
553.2325, 41335.16
553.7146, 41366.48
554.1967, 41387.70
554.6788, 41405.07
555.1609, 41424.25
555.6431, 41444.96
556.1252, 41467.18
556.6073, 41490.80
557.0894, 41516.80
557.5715, 41552.51
558.0536, 41592.82
558.5358, 41622.40
559.0179, 41619.62
559.5000, 41613.70
559.9821, 41628.52
560.4642, 41662.60
560.9464, 41704.68
561.4285, 41766.02
561.9106, 41821.31
562.3927, 41849.14
562.8748, 41832.65
563.3569, 41832.89
563.8391, 41871.05
564.3212, 41920.16
564.8033, 41958.02
565.2854, 41986.41
565.7675, 41997.32
566.2496, 41981.11
566.7318, 41952.74
567.2139, 41953.48
567.6960, 41988.07
568.1781, 42021.63
568.6602, 42041.57
569.1423, 42050.52
569.6245, 42054.71
570.1066, 42054.64
570.5887, 42052.31
571.0708, 42042.32
571.5529, 42033.27
572.0350, 42041.11
572.5172, 42069.63
572.9993, 42102.58
573.4814, 42136.22
573.9635, 42164.02
574.4456, 42177.45
574.9277, 42149.60
575.4099, 42133.27
575.8920, 42155.70
576.3741, 42200.85
576.8562, 42224.64
577.3383, 42212.05
577.8204, 42191.09
578.3026, 42163.45
578.7847, 42130.19
579.2668, 42117.95
579.7489, 42134.61
580.2310, 42154.55
580.7131, 42155.79
581.1953, 42138.91
581.6774, 42145.20
582.1595, 42181.52
582.6416, 42220.68
583.1237, 42225.32
583.6058, 42205.43
584.0880, 42190.34
584.5701, 42191.01
585.0522, 42194.29
585.5343, 42190.09
586.0164, 42178.07
586.4985, 42158.06
586.9807, 42108.27
587.4628, 42069.55
587.9449, 42068.80
588.4270, 42105.23
588.9091, 42140.87
589.3912, 42199.70
589.8734, 42229.64
590.3555, 42196.55
590.8376, 42066.84
591.3197, 41991.89
591.8018, 41996.99
592.2839, 42023.38
592.7661, 42000.98
593.2482, 41922.01
593.7303, 41875.96
594.2124, 41884.19
594.6945, 41917.88
595.1766, 41931.64
595.6588, 41927.13
596.1409, 41913.76
596.6230, 41888.05
597.1051, 41860.54
597.5872, 41845.68
598.0693, 41841.54
598.5515, 41837.69
599.0336, 41831.55
599.5157, 41821.38
599.9978, 41803.50
600.4799, 41775.69
600.9620, 41754.04
601.4442, 41756.20
601.9263, 41757.11
602.4084, 41737.43
602.8905, 41685.35
603.3726, 41635.68
603.8547, 41592.57
604.3369, 41550.31
604.8190, 41496.06
605.3011, 41426.03
605.7832, 41373.43
606.2653, 41355.80
606.7474, 41354.29
607.2296, 41319.02
607.7117, 41254.52
608.1938, 41197.27
608.6759, 41179.59
609.1580, 41175.86
609.6401, 41150.45
610.1223, 41103.18
610.6044, 41057.19
611.0865, 41019.06
611.5686, 40991.06
612.0507, 40981.51
612.5328, 41009.82
613.0150, 41003.59
613.4971, 40913.79
613.9792, 40801.15
614.4613, 40729.15
614.9434, 40728.40
615.4255, 40706.39
615.9077, 40646.38
616.3898, 40567.07
616.8719, 40512.35
617.3540, 40485.29
617.8361, 40456.70
618.3182, 40417.89
618.8004, 40370.34
619.2825, 40315.02
619.7646, 40252.41
620.2467, 40190.89
620.7288, 40128.86
621.2109, 40073.79
621.6931, 40040.14
622.1752, 40028.19
622.6573, 40012.11
623.1394, 39974.75
623.6215, 39929.29
624.1036, 39885.29
624.5858, 39841.08
625.0679, 39804.13
625.5500, 39787.52
626.0321, 39771.34
626.5142, 39730.27
626.9963, 39649.28
627.4785, 39583.42
627.9606, 39547.32
628.4427, 39525.65
628.9248, 39481.20
629.4069, 39414.20
629.8890, 39340.30
630.3712, 39262.80
630.8533, 39184.39
631.3354, 39106.76
631.8175, 39031.43
632.2996, 38967.18
632.7817, 38931.87
633.2639, 38902.52
633.7460, 38856.45
634.2281, 38790.86
634.7102, 38727.18
635.1923, 38672.66
635.6744, 38623.19
636.1566, 38576.12
636.6387, 38536.15
637.1208, 38488.95
637.6029, 38428.32
638.0850, 38366.05
638.5671, 38322.21
639.0493, 38302.38
639.5314, 38263.62
640.0135, 38192.29
640.4956, 38106.23
640.9777, 38039.32
641.4598, 37989.35
641.9420, 37940.36
642.4241, 37883.46
642.9062, 37824.96
643.3883, 37769.24
643.8704, 37717.20
644.3525, 37673.42
644.8347, 37660.61
645.3168, 37640.20
645.7989, 37582.28
646.2810, 37481.04
646.7631, 37390.51
647.2452, 37319.99
647.7274, 37261.91
648.2095, 37214.15
648.6916, 37178.65
649.1737, 37145.16
649.6558, 37114.79
650.1379, 37082.26
650.6201, 37042.90
651.1022, 36995.98
651.5843, 36939.28
652.0664, 36869.96
652.5485, 36796.85
653.0306, 36733.39
653.5128, 36677.36
653.9949, 36623.42
654.4770, 36578.46
654.9591, 36527.55
655.4412, 36448.58
655.9233, 36355.09
656.4055, 36284.93
656.8876, 36294.73
657.3697, 36285.78
657.8518, 36209.40
658.3339, 36071.12
658.8160, 35970.98
659.2982, 35918.49
659.7803, 35885.52
660.2624, 35864.69
660.7445, 35855.48
661.2266, 35821.03
661.7087, 35758.73
662.1909, 35687.33
662.6730, 35623.77
663.1551, 35563.70
663.6372, 35493.36
664.1193, 35406.21
664.6014, 35330.69
665.0836, 35307.10
665.5657, 35300.30
666.0478, 35266.93
666.5299, 35168.36
667.0120, 35078.49
667.4941, 35022.80
667.9763, 34985.41
668.4584, 34936.75
668.9405, 34868.52
669.4226, 34804.45
669.9047, 34749.78
670.3868, 34702.38
670.8690, 34658.03
671.3511, 34616.94
671.8332, 34572.78
672.3153, 34520.59
672.7974, 34463.91
673.2795, 34412.17
673.7617, 34363.16
674.2438, 34302.63
674.7259, 34196.46
675.2080, 34092.27
675.6901, 34040.18
676.1722, 34048.11
676.6544, 34043.33
677.1365, 33996.93
677.6186, 33934.73
678.1007, 33873.51
678.5828, 33815.34
679.0649, 33753.65
679.5471, 33688.01
680.0292, 33620.59
680.5113, 33553.70
680.9934, 33486.49
681.4755, 33427.54
681.9576, 33377.84
682.4398, 33335.62
682.9219, 33305.52
683.4040, 33281.04
683.8861, 33246.41
684.3682, 33192.10
684.8503, 33131.01
685.3325, 33067.85
685.8146, 33004.53
686.2967, 32944.89
686.7788, 32887.24
687.2609, 32835.43
687.7430, 32796.65
688.2252, 32765.69
688.7073, 32721.22
689.1894, 32660.50
689.6715, 32590.92
690.1536, 32509.05
690.6357, 32419.59
691.1179, 32362.38
691.6000, 32338.28
692.0821, 32316.08
692.5642, 32273.61
693.0463, 32218.80
693.5284, 32162.37
694.0106, 32105.34
694.4927, 32052.34
694.9748, 32012.28
695.4569, 31974.30
695.9390, 31929.61
696.4211, 31876.63
696.9033, 31817.61
697.3854, 31738.45
697.8675, 31662.88
698.3496, 31611.09
698.8317, 31591.18
699.3138, 31567.64
699.7960, 31539.41
700.2781, 31505.23
700.7602, 31459.23
701.2423, 31403.90
701.7244, 31356.40
702.2065, 31323.35
702.6887, 31293.22
703.1708, 31261.38
703.6529, 31222.31
704.1350, 31165.58
704.6171, 31070.79
705.0992, 30975.63
705.5814, 30892.27
706.0635, 30820.20
706.5456, 30759.25
707.0277, 30716.22
707.5098, 30673.14
707.9919, 30624.25
708.4741, 30571.74
708.9562, 30527.75
709.4383, 30493.47
709.9204, 30459.19
710.4025, 30421.86
710.8846, 30379.81
711.3667, 30327.59
711.8488, 30266.13
712.3309, 30203.25
712.8130, 30136.58
713.2952, 30076.04
713.7773, 30034.75
714.2594, 30014.59
714.7415, 29984.89
715.2236, 29929.96
715.7057, 29868.56
716.1879, 29811.68
716.6700, 29759.36
717.1521, 29711.38
717.6342, 29666.49
718.1163, 29628.43
718.5984, 29606.93
719.0806, 29599.04
719.5627, 29573.82
720.0448, 29526.13
720.5269, 29471.26
721.0090, 29421.16
721.4911, 29374.64
721.9733, 29328.29
722.4554, 29279.81
722.9375, 29235.62
723.4196, 29209.84
723.9017, 29185.19
724.3839, 29138.71
724.8660, 29037.60
725.3481, 28959.88
725.8302, 28921.68
726.3123, 28901.50
726.7944, 28858.31
727.2766, 28789.55
727.7587, 28727.16
728.2408, 28681.06
728.7229, 28644.14
729.2050, 28607.22
729.6871, 28569.82
730.1693, 28530.32
730.6514, 28480.73
731.1335, 28434.85
731.6156, 28408.82
732.0977, 28394.96
732.5798, 28370.11
733.0620, 28310.29
733.5441, 28256.92
734.0262, 28225.05
734.5083, 28210.19
734.9904, 28184.59
735.4725, 28146.65
735.9547, 28100.97
736.4368, 28043.45
736.9189, 27980.45
737.4010, 27945.40
737.8831, 27935.68
738.3652, 27914.05
738.8474, 27838.71
739.3295, 27750.44
739.8116, 27694.15
740.2937, 27671.63
740.7758, 27648.22
741.2579, 27608.05
741.7401, 27565.89
742.2222, 27530.33
742.7043, 27502.74
743.1864, 27473.47
743.6685, 27444.46
744.1506, 27409.11
744.6328, 27357.81
745.1149, 27292.18
745.5970, 27239.48
746.0791, 27202.25
746.5612, 27168.84
747.0433, 27127.23
747.5255, 27083.38
748.0076, 27048.52
748.4897, 27026.62
748.9718, 27000.49
749.4539, 26960.67
749.9360, 26914.26
750.4182, 26867.31
750.9003, 26823.20
751.3824, 26771.97
751.8645, 26705.40
752.3466, 26641.80
752.8287, 26607.83
753.3109, 26603.88
753.7930, 26588.06
754.2751, 26553.70
754.7572, 26510.05
755.2393, 26462.31
755.7214, 26414.37
756.2036, 26372.91
756.6857, 26341.77
757.1678, 26314.44
757.6499, 26295.48
758.1320, 26275.43
758.6141, 26241.03
759.0963, 26158.98
759.5784, 26108.32
760.0605, 26109.88
760.5426, 26133.39
761.0247, 26120.68
761.5068, 26068.98
761.9890, 26023.89
762.4711, 25999.08
762.9532, 25980.67
763.4353, 25942.10
763.9174, 25892.59
764.3995, 25855.37
764.8817, 25856.38
765.3638, 25856.18
765.8459, 25833.00
766.3280, 25793.20
766.8101, 25751.58
767.2922, 25711.06
767.7744, 25668.68
768.2565, 25621.70
768.7386, 25573.57
769.2207, 25531.44
769.7028, 25495.27
770.1849, 25467.74
770.6671, 25455.24
771.1492, 25446.43
771.6313, 25419.46
772.1134, 25377.59
772.5955, 25332.43
773.0776, 25283.21
773.5598, 25238.26
774.0419, 25202.01
774.5240, 25173.91
775.0061, 25152.15
775.4882, 25148.64
775.9703, 25134.71
776.4525, 25101.05
776.9346, 25050.89
777.4167, 24999.92
777.8988, 24947.47
778.3809, 24901.67
778.8630, 24869.42
779.3452, 24845.17
779.8273, 24821.33
780.3094, 24797.11
780.7915, 24766.99
781.2736, 24717.82
781.7557, 24671.71
782.2379, 24645.21
782.7200, 24637.11
783.2021, 24622.79
783.6842, 24597.87
784.1663, 24570.33
784.6484, 24541.79
785.1306, 24512.67
785.6127, 24486.98
786.0948, 24465.00
786.5769, 24437.30
787.0590, 24387.06
787.5411, 24331.73
788.0233, 24311.07
788.5054, 24318.93
788.9875, 24315.83
789.4696, 24269.32
789.9517, 24215.13
790.4338, 24172.25
790.9160, 24142.07
791.3981, 24116.83
791.8802, 24101.20
792.3623, 24083.43
792.8444, 24058.58
793.3265, 24027.24
793.8087, 23990.67
794.2908, 23948.65
794.7729, 23918.40
795.2550, 23922.38
795.7371, 23939.61
796.2192, 23942.33
796.7014, 23930.56
797.1835, 23917.42
797.6656, 23913.30
798.1477, 23905.09
798.6298, 23881.89
799.1119, 23842.57
799.5941, 23812.17
800.0762, 23791.25
800.5583, 23776.51
801.0404, 23765.41
801.5225, 23758.37
802.0046, 23761.52
802.4868, 23774.31
802.9689, 23785.99
803.4510, 23789.91
803.9331, 23788.81
804.4152, 23789.71
804.8973, 23792.21
805.3795, 23778.39
805.8616, 23726.03
806.3437, 23672.27
806.8258, 23631.28
807.3079, 23603.60
807.7900, 23597.18
808.2722, 23618.63
808.7543, 23636.08
809.2364, 23629.59
809.7185, 23603.67
810.2006, 23568.47
810.6827, 23525.19
811.1649, 23485.23
811.6470, 23460.31
812.1291, 23437.57
812.6112, 23405.23
813.0933, 23362.69
813.5754, 23325.82
814.0576, 23306.90
814.5397, 23281.33
815.0218, 23232.58
815.5039, 23163.89
815.9860, 23139.61
816.4681, 23163.57
816.9503, 23184.10
817.4324, 23157.89
817.9145, 23111.38
818.3966, 23099.14
818.8787, 23115.48
819.3608, 23116.55
819.8430, 23057.58
820.3251, 22996.66
820.8072, 22966.53
821.2893, 22968.46
821.7714, 22971.87
822.2535, 22974.95
822.7357, 22982.42
823.2178, 22996.98
823.6999, 23016.97
824.1820, 23037.53
824.6641, 23058.26
825.1462, 23075.52
825.6284, 23085.89
826.1105, 23092.57
826.5926, 23094.42
827.0747, 23094.29
827.5568, 23105.18
828.0389, 23141.31
828.5211, 23179.74
829.0032, 23220.95
829.4853, 23260.05
829.9674, 23265.64
830.4495, 23233.06
830.9316, 23195.03
831.4138, 23171.64
831.8959, 23146.83
832.3780, 23078.65
832.8601, 22975.14
833.3422, 22867.96
833.8243, 22774.17
834.3065, 22680.51
834.7886, 22575.89
835.2707, 22463.62
835.7528, 22360.68
836.2349, 22259.25
836.7170, 22182.16
837.1992, 22143.98
837.6813, 22128.27
838.1634, 22085.48
838.6455, 22017.14
839.1276, 21951.49
839.6097, 21896.58
840.0919, 21853.59
840.5740, 21830.12
841.0561, 21819.13
841.5382, 21805.95
842.0203, 21782.25
842.5024, 21759.60
842.9846, 21745.77
843.4667, 21733.36
843.9488, 21707.82
844.4309, 21666.97
844.9130, 21621.81
845.3951, 21572.04
845.8773, 21525.27
846.3594, 21494.71
846.8415, 21477.40
847.3236, 21465.96
847.8057, 21459.81
848.2878, 21455.29
848.7700, 21454.32
849.2521, 21452.17
849.7342, 21441.70
850.2163, 21415.70
850.6984, 21393.20
851.1805, 21376.06
851.6627, 21361.51
852.1448, 21346.46
852.6269, 21330.84
853.1090, 21312.99
853.5911, 21291.90
854.0732, 21271.56
854.5554, 21258.33
855.0375, 21247.07
855.5196, 21230.47
856.0017, 21203.18
856.4838, 21180.22
856.9659, 21170.36
857.4481, 21161.00
857.9302, 21140.96
858.4123, 21107.94
858.8944, 21083.22
859.3765, 21068.85
859.8586, 21055.43
860.3408, 21031.34
860.8229, 21002.77
861.3050, 20982.36
861.7871, 20971.93
862.2692, 20960.30
862.7513, 20941.34
863.2335, 20919.70
863.7156, 20897.41
864.1977, 20874.47
864.6798, 20853.90
865.1619, 20834.51
865.6440, 20820.98
866.1262, 20823.93
866.6083, 20835.50
867.0904, 20820.80
867.5725, 20781.53
868.0546, 20742.62
868.5367, 20717.95
869.0189, 20700.41
869.5010, 20688.19
869.9831, 20680.10
870.4652, 20665.74
870.9473, 20635.93
871.4294, 20613.65
871.9116, 20610.60
872.3937, 20619.92
872.8758, 20611.50
873.3579, 20586.45
873.8400, 20560.33
874.3221, 20541.56
874.8043, 20525.14
875.2864, 20510.63
875.7685, 20494.64
876.2506, 20468.70
876.7327, 20419.48
877.2148, 20373.10
877.6970, 20330.31
878.1791, 20296.20
878.6612, 20286.27
879.1433, 20303.72
879.6254, 20309.42
880.1075, 20290.61
880.5897, 20265.27
881.0718, 20262.91
881.5539, 20271.00
882.0360, 20263.78
882.5181, 20215.14
883.0002, 20182.93
883.4824, 20203.09
883.9645, 20240.11
884.4466, 20255.48
884.9287, 20244.32
885.4108, 20226.03
885.8929, 20199.96
886.3751, 20172.11
886.8572, 20145.16
887.3393, 20122.32
887.8214, 20115.37
888.3035, 20127.85
888.7856, 20131.37
889.2678, 20097.97
889.7499, 20057.71
890.2320, 20034.29
890.7141, 20032.63
891.1962, 20029.97
891.6783, 20031.45
892.1605, 20020.44
892.6426, 19972.34
893.1247, 19902.65
893.6068, 19879.09
894.0889, 19897.71
894.5710, 19916.79
895.0532, 19912.70
895.5353, 19897.63
896.0174, 19871.36
896.4995, 19837.30
896.9816, 19825.22
897.4637, 19853.04
897.9459, 19869.64
898.4280, 19855.48
898.9101, 19822.50
899.3922, 19807.17
899.8743, 19806.84
900.3564, 19805.33
900.8386, 19797.40
901.3207, 19784.08
901.8028, 19758.39
902.2849, 19730.05
902.7670, 19715.97
903.2491, 19747.91
903.7313, 19754.80
904.2134, 19720.01
904.6955, 19671.39
905.1776, 19650.58
905.6597, 19655.33
906.1418, 19655.77
906.6240, 19646.81
907.1061, 19634.74
907.5882, 19626.53
908.0703, 19618.24
908.5524, 19603.59
909.0345, 19577.12
909.5167, 19560.03
909.9988, 19561.67
910.4809, 19565.00
910.9630, 19559.09
911.4451, 19543.74
911.9272, 19529.70
912.4094, 19516.94
912.8915, 19503.43
913.3736, 19482.00
913.8557, 19462.75
914.3378, 19460.48
914.8199, 19473.41
915.3021, 19482.90
915.7842, 19486.38
916.2663, 19481.31
916.7484, 19464.59
917.2305, 19439.37
917.7126, 19416.80
918.1948, 19396.96
918.6769, 19378.89
919.1590, 19362.49
919.6411, 19347.68
920.1232, 19335.09
920.6053, 19323.97
921.0875, 19312.86
921.5696, 19298.52
922.0517, 19287.97
922.5338, 19284.17
923.0159, 19282.91
923.4980, 19280.21
923.9802, 19276.33
924.4623, 19264.71
924.9444, 19243.53
925.4265, 19221.85
925.9086, 19213.96
926.3907, 19209.09
926.8729, 19189.73
927.3550, 19149.56
927.8371, 19118.41
928.3192, 19110.76
928.8013, 19109.28
929.2834, 19105.50
929.7656, 19099.33
930.2477, 19098.71
930.7298, 19103.74
931.2119, 19106.92
931.6940, 19108.73
932.1761, 19102.06
932.6583, 19065.82
933.1404, 19010.29
933.6225, 18977.52
934.1046, 19007.04
934.5867, 19030.86
935.0688, 19032.62
935.5510, 19017.65
936.0331, 18996.66
936.5152, 18969.64
936.9973, 18942.46
937.4794, 18914.54
937.9615, 18893.91
938.4437, 18898.23
938.9258, 18913.55
939.4079, 18918.43
939.8900, 18900.49
940.3721, 18885.61
940.8542, 18876.83
941.3364, 18872.24
941.8185, 18872.68
942.3006, 18878.11
942.7827, 18869.78
943.2648, 18845.79
943.7469, 18823.77
944.2291, 18824.95
944.7112, 18830.67
945.1933, 18820.17
945.6754, 18793.27
946.1575, 18767.12
946.6396, 18741.49
947.1218, 18724.47
947.6039, 18723.09
948.0860, 18731.44
948.5681, 18724.33
949.0502, 18703.34
949.5323, 18686.11
950.0145, 18685.03
950.4966, 18682.53
950.9787, 18651.78
951.4608, 18610.60
951.9429, 18588.39
952.4250, 18611.88
952.9072, 18625.00
953.3893, 18620.41
953.8714, 18611.06
954.3535, 18613.82
954.8356, 18626.09
955.3177, 18631.19
955.7999, 18627.40
956.2820, 18617.20
956.7641, 18596.38
957.2462, 18574.61
957.7283, 18560.18
958.2104, 18554.48
958.6925, 18551.98
959.1746, 18555.90
959.6567, 18555.71
960.1389, 18545.86
960.6210, 18529.22
961.1031, 18511.66
961.5852, 18494.93
962.0673, 18487.41
962.5494, 18502.85
963.0316, 18518.33
963.5137, 18510.91
963.9958, 18497.52
964.4779, 18513.61
964.9600, 18580.45
965.4421, 18619.66
965.9243, 18616.32
966.4064, 18601.06
966.8885, 18611.83
967.3706, 18640.52
967.8527, 18668.47
968.3348, 18692.46
968.8170, 18717.14
969.2991, 18740.51
969.7812, 18769.10
970.2633, 18811.38
970.7454, 18867.70
971.2275, 18903.30
971.7097, 18914.79
972.1918, 18928.06
972.6739, 18961.81
973.1560, 19002.12
973.6381, 19024.25
974.1202, 19032.76
974.6024, 19040.56
975.0845, 19060.31
975.5666, 19070.43
976.0487, 19064.39
976.5308, 19046.66
977.0129, 19021.94
977.4951, 18990.40
977.9772, 18954.74
978.4593, 18915.03
978.9414, 18874.29
979.4235, 18833.58
979.9056, 18794.37
980.3878, 18755.65
980.8699, 18716.09
981.3520, 18693.61
981.8341, 18710.92
982.3162, 18716.22
982.7983, 18679.83
983.2805, 18611.60
983.7626, 18563.36
984.2447, 18534.15
984.7268, 18516.59
985.2089, 18513.05
985.6910, 18513.20
986.1732, 18507.35
986.6553, 18500.11
987.1374, 18501.79
987.6195, 18515.04
988.1016, 18533.10
988.5837, 18557.79
989.0659, 18580.98
989.5480, 18586.25
990.0301, 18582.17
990.5122, 18597.16
990.9943, 18636.11
991.4764, 18668.72
991.9586, 18669.29
992.4407, 18665.08
992.9228, 18672.73
993.4049, 18692.08
993.8870, 18720.97
994.3691, 18762.20
994.8513, 18792.94
995.3334, 18796.67
995.8155, 18791.00
996.2976, 18804.80
996.7797, 18830.82
997.2618, 18853.04
997.7440, 18865.38
998.2261, 18873.68
998.7082, 18878.58
999.1903, 18880.58
999.6724, 18881.66
1000.155, 18881.46
1000.637, 18867.99
1001.119, 18839.46
1001.601, 18811.22
1002.083, 18806.65
1002.565, 18800.50
1003.047, 18768.29
1003.529, 18708.38
1004.011, 18640.46
1004.494, 18557.13
1004.976, 18486.83
1005.458, 18440.39
1005.940, 18413.19
1006.422, 18399.69
1006.904, 18397.01
1007.386, 18395.49
1007.868, 18391.87
1008.351, 18388.74
1008.833, 18385.39
1009.315, 18384.86
1009.797, 18392.22
1010.279, 18414.03
1010.761, 18414.73
1011.243, 18391.40
1011.725, 18363.22
1012.207, 18349.86
1012.690, 18339.40
1013.172, 18315.53
1013.654, 18278.10
1014.136, 18232.31
1014.618, 18167.32
1015.100, 18110.72
1015.582, 18072.86
1016.064, 18045.33
1016.547, 18007.00
1017.029, 17959.88
1017.511, 17919.48
1017.993, 17891.16
1018.475, 17866.38
1018.957, 17837.19
1019.439, 17808.25
1019.921, 17783.72
1020.403, 17763.29
1020.886, 17752.00
1021.368, 17751.51
1021.850, 17755.27
1022.332, 17765.12
1022.814, 17773.72
1023.296, 17760.30
1023.778, 17729.52
1024.260, 17698.53
1024.743, 17669.32
1025.225, 17648.07
1025.707, 17644.34
1026.189, 17644.96
1026.671, 17628.17
1027.153, 17592.97
1027.635, 17569.34
1028.117, 17562.03
1028.599, 17559.12
1029.082, 17552.20
1029.564, 17542.18
1030.046, 17525.44
1030.528, 17500.74
1031.010, 17497.72
1031.492, 17533.40
1031.974, 17556.57
1032.456, 17541.69
1032.938, 17506.39
1033.421, 17497.32
1033.903, 17506.73
1034.385, 17509.02
1034.867, 17492.43
1035.349, 17470.68
1035.831, 17438.81
1036.313, 17412.32
1036.795, 17410.43
1037.278, 17439.94
1037.760, 17447.43
1038.242, 17430.88
1038.724, 17409.39
1039.206, 17393.46
1039.688, 17384.17
1040.170, 17389.47
1040.652, 17404.80
1041.135, 17406.39
1041.617, 17375.79
1042.099, 17354.97
1042.581, 17353.38
1043.063, 17362.13
1043.545, 17367.77
1044.027, 17370.52
1044.509, 17369.67
1044.991, 17363.81
1045.474, 17361.85
1045.956, 17375.07
1046.438, 17388.46
1046.920, 17390.30
1047.402, 17380.84
1047.884, 17376.07
1048.366, 17376.41
1048.848, 17374.06
1049.330, 17360.43
1049.813, 17347.89
1050.295, 17356.68
1050.777, 17375.99
1051.259, 17385.71
1051.741, 17369.01
1052.223, 17361.66
1052.705, 17371.19
1053.187, 17378.19
1053.670, 17353.77
1054.152, 17311.49
1054.634, 17305.64
1055.116, 17335.47
1055.598, 17357.41
1056.080, 17340.91
1056.562, 17317.69
1057.044, 17299.79
1057.526, 17287.17
1058.009, 17278.58
1058.491, 17273.65
1058.973, 17281.81
1059.455, 17309.48
1059.937, 17333.17
1060.419, 17318.44
1060.901, 17291.84
1061.383, 17287.30
1061.865, 17318.25
1062.348, 17323.37
1062.830, 17287.08
1063.312, 17257.57
1063.794, 17261.05
1064.276, 17285.57
1064.758, 17306.34
1065.240, 17322.08
1065.722, 17328.43
1066.205, 17314.81
1066.687, 17303.45
1067.169, 17306.43
1067.651, 17309.89
1068.133, 17296.49
1068.615, 17265.89
1069.097, 17257.35
1069.579, 17272.39
1070.062, 17289.40
1070.544, 17287.30
1071.026, 17285.00
1071.508, 17300.82
1071.990, 17330.33
1072.472, 17350.46
1072.954, 17361.77
1073.436, 17359.21
1073.918, 17338.56
1074.401, 17313.40
1074.883, 17301.76
1075.365, 17297.63
1075.847, 17288.16
1076.329, 17269.35
1076.811, 17265.31
1077.293, 17298.61
1077.775, 17326.60
1078.257, 17328.04
1078.740, 17312.68
1079.222, 17318.42
1079.704, 17340.18
1080.186, 17352.88
1080.668, 17340.43
1081.150, 17328.37
1081.632, 17328.98
1082.114, 17338.90
1082.596, 17355.89
1083.079, 17382.96
1083.561, 17395.07
1084.043, 17390.99
1084.525, 17388.45
1085.007, 17407.33
1085.489, 17428.39
1085.971, 17430.79
1086.453, 17418.87
1086.936, 17406.20
1087.418, 17389.27
1087.900, 17386.34
1088.382, 17406.03
1088.864, 17424.85
1089.346, 17403.83
1089.828, 17363.42
1090.310, 17347.02
1090.792, 17359.04
1091.275, 17373.73
1091.757, 17391.19
1092.239, 17395.85
1092.721, 17371.97
1093.203, 17338.61
1093.685, 17362.40
1094.167, 17431.70
1094.649, 17471.97
1095.131, 17454.87
1095.614, 17431.96
1096.096, 17438.60
1096.578, 17454.68
1097.060, 17460.98
1097.542, 17456.02
1098.024, 17464.76
1098.506, 17488.50
1098.988, 17508.10
1099.471, 17510.82
1099.953, 17507.56
1100.435, 17507.10
1100.917, 17510.79
1101.399, 17521.59
1101.881, 17552.18
1102.363, 17566.39
1102.845, 17560.03
1103.328, 17548.22
1103.810, 17543.26
1104.292, 17542.70
1104.774, 17539.65
1105.256, 17535.40
1105.738, 17537.35
1106.220, 17562.19
1106.702, 17574.22
1107.184, 17559.69
1107.667, 17536.04
1108.149, 17531.18
1108.631, 17541.52
1109.113, 17548.62
1109.595, 17549.92
1110.077, 17554.29
1110.559, 17570.71
1111.041, 17588.68
1111.523, 17602.21
1112.006, 17611.89
1112.488, 17617.74
1112.970, 17619.53
1113.452, 17634.86
1113.934, 17675.75
1114.416, 17709.19
1114.898, 17690.97
1115.380, 17655.89
1115.863, 17643.54
1116.345, 17662.32
1116.827, 17665.37
1117.309, 17648.58
1117.791, 17635.83
1118.273, 17643.29
1118.755, 17657.01
1119.237, 17653.75
1119.719, 17642.01
1120.202, 17638.20
1120.684, 17655.17
1121.166, 17666.53
1121.648, 17671.19
1122.130, 17670.69
1122.612, 17665.33
1123.094, 17655.95
1123.576, 17640.20
1124.058, 17621.35
1124.541, 17614.02
1125.023, 17638.23
1125.505, 17656.95
1125.987, 17658.75
1126.469, 17653.40
1126.951, 17654.69
1127.433, 17660.79
1127.915, 17658.34
1128.398, 17646.39
1128.880, 17637.14
1129.362, 17641.48
1129.844, 17647.66
1130.326, 17646.79
1130.808, 17643.65
1131.290, 17653.17
1131.772, 17675.56
1132.255, 17692.87
1132.737, 17702.18
1133.219, 17702.86
1133.701, 17683.81
1134.183, 17664.27
1134.665, 17664.24
1135.147, 17684.10
1135.629, 17696.90
1136.111, 17701.15
1136.594, 17706.61
1137.076, 17716.27
1137.558, 17729.29
1138.040, 17752.35
1138.522, 17774.27
1139.004, 17777.15
1139.486, 17745.90
1139.968, 17735.84
1140.450, 17754.82
1140.933, 17773.17
1141.415, 17775.01
1141.897, 17765.75
1142.379, 17748.70
1142.861, 17729.90
1143.343, 17722.57
1143.825, 17746.05
1144.307, 17758.02
1144.790, 17752.52
1145.272, 17741.68
1145.754, 17734.76
1146.236, 17730.86
1146.718, 17723.01
1147.200, 17714.09
1147.682, 17717.40
1148.164, 17753.72
1148.646, 17783.39
1149.129, 17796.92
1149.611, 17800.40
1150.093, 17797.38
1150.575, 17790.12
1151.057, 17793.86
1151.539, 17809.07
1152.021, 17824.17
1152.503, 17840.05
1152.985, 17845.59
1153.468, 17829.68
1153.950, 17803.79
1154.432, 17790.45
1154.914, 17789.19
1155.396, 17787.58
1155.878, 17783.19
1156.360, 17785.61
1156.842, 17809.79
1157.325, 17836.56
1157.807, 17850.54
1158.289, 17854.66
1158.771, 17862.07
1159.253, 17872.61
1159.735, 17882.25
1160.217, 17890.22
1160.699, 17894.71
1161.182, 17886.74
1161.664, 17879.24
1162.146, 17891.49
1162.628, 17925.22
1163.110, 17924.71
1163.592, 17883.98
1164.074, 17858.97
1164.556, 17877.68
1165.038, 17910.68
1165.521, 17934.17
1166.003, 17946.09
1166.485, 17940.26
1166.967, 17908.74
1167.449, 17891.03
1167.931, 17888.53
1168.413, 17894.04
1168.895, 17910.23
1169.377, 17925.37
1169.860, 17917.00
1170.342, 17896.29
1170.824, 17883.71
1171.306, 17888.96
1171.788, 17893.34
1172.270, 17895.46
1172.752, 17900.34
1173.234, 17913.82
1173.717, 17931.32
1174.199, 17948.03
1174.681, 17962.16
1175.163, 17968.76
1175.645, 17955.16
1176.127, 17953.00
1176.609, 17970.78
1177.091, 17985.82
1177.573, 17964.74
1178.056, 17928.96
1178.538, 17930.81
1179.020, 17963.92
1179.502, 17984.10
1179.984, 17957.69
1180.466, 17943.83
1180.948, 17955.82
1181.430, 17975.69
1181.912, 17977.34
1182.395, 17969.70
1182.877, 17979.66
1183.359, 18007.25
1183.841, 18025.70
1184.323, 18012.58
1184.805, 18003.02
1185.287, 18005.72
1185.769, 18015.88
1186.252, 18027.14
1186.734, 18038.82
1187.216, 18050.31
1187.698, 18061.73
1188.180, 18066.58
1188.662, 18057.73
1189.144, 18046.25
1189.626, 18033.84
1190.109, 18023.50
1190.591, 18025.86
1191.073, 18036.51
1191.555, 18036.96
1192.037, 18021.30
1192.519, 18012.75
1193.001, 18026.93
1193.483, 18045.95
1193.965, 18063.02
1194.448, 18077.99
1194.930, 18091.77
1195.412, 18103.24
1195.894, 18108.07
1196.376, 18104.20
1196.858, 18096.67
1197.340, 18077.61
1197.822, 18066.88
1198.304, 18078.62
1198.787, 18106.70
1199.269, 18123.02
1199.751, 18128.76
1200.233, 18129.43
1200.715, 18125.96
1201.197, 18120.41
1201.679, 18104.91
1202.161, 18096.72
1202.644, 18111.06
1203.126, 18143.04
1203.608, 18160.54
1204.090, 18164.97
1204.572, 18165.05
1205.054, 18164.73
1205.536, 18160.17
1206.018, 18141.74
1206.500, 18125.27
1206.983, 18124.75
1207.465, 18138.55
1207.947, 18150.09
1208.429, 18159.13
1208.911, 18164.23
1209.393, 18163.44
1209.875, 18160.29
1210.357, 18154.08
1210.839, 18148.08
1211.322, 18144.29
1211.804, 18142.84
1212.286, 18149.35
1212.768, 18162.49
1213.250, 18172.51
1213.732, 18170.79
1214.214, 18168.66
1214.696, 18168.81
1215.179, 18172.33
1215.661, 18181.09
1216.143, 18194.69
1216.625, 18213.19
1217.107, 18235.21
1217.589, 18248.01
1218.071, 18235.24
1218.553, 18223.75
1219.036, 18224.41
1219.518, 18231.59
1220.000, 18239.90
1220.482, 18249.13
1220.964, 18258.04
1221.446, 18266.39
1221.928, 18274.14
1222.410, 18287.70
1222.892, 18291.53
1223.375, 18273.41
1223.857, 18249.04
1224.339, 18240.30
1224.821, 18244.88
1225.303, 18249.75
1225.785, 18254.31
1226.267, 18264.41
1226.749, 18305.14
1227.231, 18322.90
1227.714, 18292.23
1228.196, 18242.00
1228.678, 18213.98
1229.160, 18205.50
1229.642, 18210.32
1230.124, 18226.94
1230.606, 18239.90
1231.088, 18235.46
1231.571, 18233.84
1232.053, 18242.69
1232.535, 18255.02
1233.017, 18258.55
1233.499, 18255.75
1233.981, 18255.83
1234.463, 18259.54
1234.945, 18258.15
1235.427, 18244.24
1235.910, 18228.60
1236.392, 18211.45
1236.874, 18198.46
1237.356, 18202.99
1237.838, 18219.20
1238.320, 18232.15
1238.802, 18240.04
1239.284, 18250.07
1239.766, 18271.44
1240.249, 18284.71
1240.731, 18281.97
1241.213, 18274.18
1241.695, 18281.43
1242.177, 18296.85
1242.659, 18304.52
1243.141, 18301.42
1243.623, 18306.01
1244.106, 18328.11
1244.588, 18344.71
1245.070, 18348.38
1245.552, 18345.64
1246.034, 18346.57
1246.516, 18348.75
1246.998, 18348.46
1247.480, 18345.24
1247.963, 18338.81
1248.445, 18323.47
1248.927, 18323.98
1249.409, 18354.37
1249.891, 18387.60
1250.373, 18376.92
1250.855, 18348.12
1251.337, 18335.91
1251.819, 18346.72
1252.302, 18356.50
1252.784, 18366.02
1253.266, 18367.28
1253.748, 18354.58
1254.230, 18341.84
1254.712, 18348.13
1255.194, 18362.33
1255.676, 18371.69
1256.158, 18374.35
1256.641, 18380.57
1257.123, 18391.37
1257.605, 18393.39
1258.087, 18378.42
1258.569, 18365.90
1259.051, 18377.95
1259.533, 18400.72
1260.015, 18423.15
1260.498, 18444.13
1260.980, 18458.42
1261.462, 18466.01
1261.944, 18469.04
1262.426, 18468.10
1262.908, 18463.39
1263.390, 18446.62
1263.872, 18433.88
1264.354, 18443.03
1264.837, 18468.05
1265.319, 18468.10
1265.801, 18446.08
1266.283, 18431.34
1266.765, 18434.27
1267.247, 18438.63
1267.729, 18435.03
1268.211, 18429.23
1268.693, 18425.45
1269.176, 18422.61
1269.658, 18411.17
1270.140, 18396.06
1270.622, 18402.75
1271.104, 18447.02
1271.586, 18474.04
1272.068, 18438.24
1272.550, 18405.47
1273.033, 18404.41
1273.515, 18422.93
1273.997, 18431.54
1274.479, 18433.47
1274.961, 18437.12
1275.443, 18444.82
1275.925, 18450.57
1276.407, 18450.56
1276.890, 18452.98
1277.372, 18461.68
1277.854, 18473.12
1278.336, 18483.15
1278.818, 18490.55
1279.300, 18492.64
1279.782, 18487.92
1280.264, 18484.89
1280.746, 18485.41
1281.229, 18483.87
1281.711, 18478.31
1282.193, 18470.14
1282.675, 18451.34
1283.157, 18436.96
1283.639, 18454.03
1284.121, 18508.21
1284.603, 18523.93
1285.085, 18496.37
1285.568, 18475.87
1286.050, 18481.15
1286.532, 18491.93
1287.014, 18487.75
1287.496, 18480.31
1287.978, 18479.36
1288.460, 18484.74
1288.942, 18497.90
1289.425, 18518.17
1289.907, 18537.11
1290.389, 18552.65
1290.871, 18563.80
1291.353, 18569.68
1291.835, 18570.60
1292.317, 18565.54
1292.799, 18557.12
1293.281, 18554.66
1293.764, 18557.25
1294.246, 18559.75
1294.728, 18559.65
1295.210, 18566.61
1295.692, 18596.97
1296.174, 18619.14
1296.656, 18617.90
1297.138, 18606.56
1297.620, 18617.39
1298.103, 18638.21
1298.585, 18639.78
1299.067, 18613.05
1299.549, 18608.81
1300.031, 18643.90
1300.513, 18679.49
1300.995, 18699.81
1301.477, 18708.00
1301.960, 18716.45
1302.442, 18720.48
1302.924, 18704.98
1303.406, 18668.27
1303.888, 18674.58
1304.370, 18730.64
1304.852, 18760.14
1305.334, 18724.72
##END=



