##NAMES=Metaheinrichite
##RRUFFID=R060778
##IDEAL CHEMISTRY=Ba(U^6+^O_2_)_2_(As^5+^O_4_)_2_&#183;8H_2_O
##LOCALITY=Schmiedestoll, Wittichen, Schwarzwald, Germany
##OWNER=RRUFF
##SOURCE=Michael Scott
##DESCRIPTION=Pale green thin tabular crystals with rectangular outline
##STATUS=The identification of this mineral has been confirmed only by single crystal X-ray diffraction.
##URL=rruff.info/R060778
83.91797, 530.1370
84.40009, 531.0014
84.88220, 531.9350
85.36432, 532.7653
85.84644, 533.0916
86.32855, 530.5537
86.81067, 528.5658
87.29279, 530.1297
87.77490, 537.7991
88.25701, 546.4484
88.73913, 552.7062
89.22124, 556.7320
89.70336, 559.1539
90.18548, 559.2990
90.66759, 558.2493
91.14971, 557.7594
91.63183, 557.4669
92.11395, 558.4554
92.59606, 563.1058
93.07818, 571.7274
93.56030, 581.2281
94.04241, 588.8064
94.52453, 594.4476
95.00665, 598.3632
95.48875, 599.7207
95.97087, 599.1228
96.45299, 599.2772
96.93510, 600.0541
97.41722, 602.1498
97.89934, 606.4835
98.38145, 612.9492
98.86357, 622.7794
99.34569, 636.2543
99.82780, 653.3381
100.3099, 675.4344
100.7920, 701.3559
101.2742, 732.3504
101.7563, 775.2557
102.2384, 829.3375
102.7205, 897.3793
103.2026, 983.7935
103.6847, 1087.683
104.1668, 1210.591
104.6490, 1352.135
105.1311, 1514.501
105.6132, 1690.937
106.0953, 1879.638
106.5774, 2084.518
107.0595, 2312.785
107.5417, 2549.051
108.0238, 2824.392
108.5059, 3147.395
108.9880, 3517.045
109.4701, 3935.038
109.9522, 4381.583
110.4344, 4873.155
110.9165, 5446.805
111.3986, 6127.845
111.8807, 6880.026
112.3628, 7677.935
112.8449, 8534.440
113.3271, 9416.650
113.8092, 10341.13
114.2913, 11303.42
114.7734, 12258.10
115.2555, 13163.51
115.7376, 14062.21
116.2198, 14980.46
116.7019, 15927.94
117.1840, 16893.32
117.6661, 17876.34
118.1482, 18867.66
118.6303, 19902.42
119.1124, 20989.96
119.5946, 22126.35
120.0767, 23296.87
120.5588, 24526.58
121.0409, 25764.92
121.5230, 26989.86
122.0051, 28198.62
122.4873, 29372.76
122.9694, 30513.61
123.4515, 31610.05
123.9336, 32597.81
124.4157, 33410.09
124.8979, 34091.39
125.3800, 34709.15
125.8621, 35278.26
126.3442, 35797.05
126.8263, 36251.30
127.3084, 36638.63
127.7905, 37006.14
128.2727, 37409.50
128.7548, 37829.05
129.2369, 38193.99
129.7190, 38448.43
130.2011, 38628.57
130.6832, 38831.87
131.1654, 39061.09
131.6475, 39305.11
132.1296, 39546.45
132.6117, 39786.59
133.0938, 40041.79
133.5759, 40313.04
134.0581, 40602.58
134.5402, 40933.39
135.0223, 41319.31
135.5044, 41732.71
135.9865, 42094.03
136.4686, 42387.48
136.9508, 42706.98
137.4329, 43136.40
137.9150, 43691.66
138.3971, 44197.08
138.8792, 44624.69
139.3613, 44987.51
139.8434, 45359.68
140.3256, 45758.35
140.8077, 46142.71
141.2898, 46480.18
141.7719, 46752.32
142.2540, 47025.32
142.7361, 47317.53
143.2183, 47634.22
143.7004, 47901.76
144.1825, 48101.65
144.6646, 48266.48
145.1467, 48431.79
145.6288, 48609.19
146.1110, 48767.59
146.5931, 48894.42
147.0752, 48978.65
147.5573, 49063.30
148.0394, 49176.84
148.5215, 49281.48
149.0037, 49308.49
149.4858, 49155.83
149.9679, 49018.23
150.4500, 48962.48
150.9321, 49069.55
151.4142, 49141.16
151.8964, 49143.31
152.3785, 49106.84
152.8606, 49122.26
153.3427, 49253.18
153.8248, 49402.35
154.3069, 49523.90
154.7890, 49613.31
155.2712, 49682.43
155.7533, 49712.00
156.2354, 49712.06
156.7175, 49754.02
157.1996, 49867.85
157.6817, 50020.52
158.1639, 50187.17
158.6460, 50366.50
159.1281, 50551.12
159.6102, 50739.73
160.0923, 50930.17
160.5744, 51111.54
161.0566, 51277.93
161.5387, 51428.85
162.0208, 51564.15
162.5029, 51671.68
162.9850, 51768.25
163.4671, 51863.82
163.9493, 51959.42
164.4314, 52040.60
164.9135, 52102.86
165.3956, 52146.21
165.8777, 52170.83
166.3598, 52171.20
166.8420, 52159.10
167.3241, 52146.09
167.8062, 52139.42
168.2883, 52121.60
168.7704, 52070.95
169.2525, 52000.88
169.7346, 51942.22
170.2168, 51933.86
170.6989, 51938.36
171.1810, 51910.14
171.6631, 51815.50
172.1452, 51732.10
172.6273, 51737.09
173.1095, 51815.98
173.5916, 51906.04
174.0737, 51976.92
174.5558, 52030.84
175.0379, 52069.00
175.5201, 52084.47
176.0022, 52091.19
176.4843, 52099.54
176.9664, 52109.86
177.4485, 52132.00
177.9306, 52179.68
178.4128, 52244.70
178.8949, 52310.81
179.3770, 52376.14
179.8591, 52437.43
180.3412, 52486.75
180.8233, 52524.05
181.3055, 52560.38
181.7876, 52608.21
182.2697, 52664.50
182.7518, 52720.47
183.2339, 52773.54
183.7160, 52822.98
184.1982, 52864.15
184.6803, 52895.62
185.1624, 52924.05
185.6445, 52961.03
186.1266, 53003.74
186.6087, 53038.10
187.0908, 53052.60
187.5730, 53051.48
188.0551, 53056.06
188.5372, 53071.36
189.0193, 53079.52
189.5014, 53039.19
189.9835, 52952.46
190.4657, 52885.65
190.9478, 52893.47
191.4299, 52963.89
191.9120, 53004.29
192.3941, 53010.30
192.8762, 52981.06
193.3584, 52898.82
193.8405, 52761.00
194.3226, 52628.36
194.8047, 52548.05
195.2868, 52518.59
195.7689, 52475.50
196.2511, 52402.15
196.7332, 52320.42
197.2153, 52294.11
197.6974, 52329.75
198.1795, 52384.41
198.6616, 52439.70
199.1438, 52498.73
199.6259, 52517.27
200.1080, 52474.79
200.5901, 52391.20
201.0722, 52349.89
201.5543, 52358.86
202.0364, 52378.90
202.5186, 52366.60
203.0007, 52311.05
203.4828, 52296.49
203.9649, 52352.36
204.4470, 52462.98
204.9291, 52527.79
205.4113, 52537.23
205.8934, 52519.46
206.3755, 52494.81
206.8576, 52458.23
207.3397, 52434.25
207.8218, 52433.39
208.3040, 52454.18
208.7861, 52464.93
209.2682, 52473.15
209.7503, 52462.41
210.2324, 52402.39
210.7145, 52272.71
211.1967, 52174.93
211.6788, 52149.49
212.1609, 52202.36
212.6430, 52214.56
213.1251, 52173.18
213.6072, 52110.91
214.0894, 52062.69
214.5715, 52023.09
215.0536, 52013.32
215.5357, 52058.09
216.0178, 52173.01
216.4999, 52192.68
216.9820, 52065.60
217.4642, 51887.61
217.9463, 51801.46
218.4284, 51833.64
218.9105, 51895.96
219.3926, 51970.87
219.8747, 52069.25
220.3569, 52120.23
220.8390, 52111.77
221.3211, 52064.81
221.8032, 52009.98
222.2853, 51938.00
222.7674, 51880.54
223.2496, 51851.05
223.7317, 51855.26
224.2138, 51878.34
224.6959, 51945.03
225.1780, 52020.13
225.6601, 52027.48
226.1423, 51930.92
226.6244, 51828.62
227.1065, 51759.63
227.5886, 51732.82
228.0707, 51712.13
228.5528, 51697.96
229.0350, 51687.55
229.5171, 51674.03
229.9992, 51647.88
230.4813, 51630.29
230.9634, 51633.34
231.4455, 51675.36
231.9276, 51695.20
232.4098, 51684.41
232.8919, 51653.05
233.3740, 51629.25
233.8561, 51610.22
234.3382, 51603.41
234.8203, 51619.45
235.3025, 51694.65
235.7846, 51714.07
236.2667, 51656.43
236.7488, 51543.54
237.2309, 51447.84
237.7130, 51371.97
238.1952, 51312.32
238.6773, 51268.07
239.1594, 51241.96
239.6415, 51227.63
240.1236, 51230.17
240.6057, 51245.05
241.0879, 51254.66
241.5700, 51260.80
242.0521, 51259.54
242.5342, 51245.94
243.0163, 51205.78
243.4984, 51180.54
243.9806, 51165.87
244.4627, 51165.53
244.9448, 51205.61
245.4269, 51330.21
245.9090, 51432.80
246.3911, 51443.04
246.8732, 51288.27
247.3554, 51192.60
247.8375, 51186.43
248.3196, 51249.99
248.8017, 51298.97
249.2838, 51343.86
249.7659, 51359.39
250.2481, 51328.18
250.7302, 51232.00
251.2123, 51135.57
251.6944, 51047.06
252.1765, 50965.64
252.6586, 50872.61
253.1408, 50747.91
253.6229, 50645.79
254.1050, 50608.15
254.5871, 50680.73
255.0692, 50709.50
255.5513, 50663.43
256.0334, 50564.48
256.5156, 50511.97
256.9977, 50527.14
257.4798, 50555.53
257.9619, 50563.54
258.4440, 50543.30
258.9261, 50516.80
259.4083, 50475.89
259.8904, 50427.01
260.3725, 50408.54
260.8546, 50430.04
261.3367, 50461.86
261.8188, 50486.04
262.3010, 50501.13
262.7831, 50508.36
263.2652, 50501.42
263.7473, 50486.27
264.2294, 50494.45
264.7115, 50542.77
265.1937, 50580.84
265.6758, 50572.54
266.1579, 50506.45
266.6400, 50438.72
267.1221, 50374.96
267.6042, 50314.42
268.0864, 50250.59
268.5685, 50173.73
269.0506, 50117.38
269.5327, 50120.40
270.0148, 50209.80
270.4969, 50231.85
270.9791, 50151.17
271.4612, 50004.86
271.9433, 49921.62
272.4254, 49918.70
272.9075, 49930.40
273.3896, 49909.43
273.8718, 49846.88
274.3539, 49819.55
274.8360, 49845.39
275.3181, 49902.44
275.8002, 49928.74
276.2823, 49919.20
276.7645, 49895.98
277.2466, 49868.53
277.7287, 49835.44
278.2108, 49805.65
278.6929, 49778.46
279.1750, 49754.35
279.6572, 49735.65
280.1393, 49722.10
280.6214, 49710.78
281.1035, 49701.50
281.5856, 49693.85
282.0677, 49679.20
282.5499, 49654.22
283.0320, 49625.02
283.5141, 49610.33
283.9962, 49612.73
284.4783, 49603.18
284.9604, 49556.88
285.4425, 49477.34
285.9247, 49412.55
286.4068, 49367.51
286.8889, 49336.94
287.3710, 49314.96
287.8531, 49301.89
288.3352, 49290.96
288.8174, 49277.73
289.2995, 49263.21
289.7816, 49256.45
290.2637, 49262.14
290.7458, 49263.10
291.2279, 49233.41
291.7101, 49174.02
292.1922, 49098.88
292.6743, 48994.94
293.1564, 48878.87
293.6385, 48815.23
294.1206, 48815.88
294.6028, 48837.73
295.0849, 48841.65
295.5670, 48825.96
296.0491, 48778.14
296.5312, 48654.77
297.0133, 48501.64
297.4955, 48429.57
297.9776, 48452.43
298.4597, 48507.04
298.9418, 48535.16
299.4239, 48541.46
299.9060, 48538.19
300.3882, 48512.53
300.8703, 48485.36
301.3524, 48494.43
301.8345, 48540.88
302.3166, 48596.04
302.7987, 48636.90
303.2809, 48664.88
303.7630, 48686.09
304.2451, 48685.04
304.7272, 48684.21
305.2093, 48718.65
305.6914, 48788.28
306.1736, 48848.44
306.6557, 48862.47
307.1378, 48846.12
307.6199, 48824.93
308.1020, 48813.36
308.5841, 48799.40
309.0663, 48765.41
309.5484, 48714.58
310.0305, 48680.25
310.5126, 48719.67
310.9947, 48775.82
311.4768, 48781.06
311.9590, 48666.89
312.4411, 48540.79
312.9232, 48469.19
313.4053, 48445.55
313.8874, 48431.39
314.3695, 48409.23
314.8517, 48386.75
315.3337, 48371.94
315.8159, 48387.44
316.2980, 48386.16
316.7801, 48328.52
317.2622, 48231.60
317.7443, 48161.13
318.2264, 48121.61
318.7086, 48131.92
319.1907, 48216.42
319.6728, 48476.61
320.1549, 48661.86
320.6370, 48661.28
321.1191, 48529.64
321.6013, 48412.51
322.0834, 48365.68
322.5655, 48326.35
323.0476, 48258.33
323.5297, 48114.61
324.0118, 48023.50
324.4940, 48028.55
324.9761, 48094.95
325.4582, 48156.54
325.9403, 48231.91
326.4224, 48277.56
326.9045, 48273.14
327.3867, 48192.18
327.8688, 48125.20
328.3509, 48065.29
328.8330, 48022.65
329.3151, 48012.42
329.7972, 48081.43
330.2794, 48130.01
330.7615, 48130.18
331.2436, 48071.21
331.7257, 48022.53
332.2078, 47982.90
332.6899, 47955.00
333.1721, 47944.79
333.6542, 47971.44
334.1363, 47982.53
334.6184, 47963.89
335.1005, 47916.45
335.5826, 47875.84
336.0648, 47842.44
336.5469, 47815.79
337.0290, 47795.05
337.5111, 47780.06
337.9932, 47768.71
338.4753, 47759.73
338.9575, 47752.51
339.4396, 47747.85
339.9217, 47745.51
340.4038, 47743.11
340.8859, 47745.43
341.3680, 47755.24
341.8502, 47733.11
342.3323, 47665.48
342.8144, 47573.11
343.2965, 47511.72
343.7786, 47484.31
344.2607, 47463.21
344.7429, 47423.21
345.2250, 47370.69
345.7071, 47355.71
346.1892, 47390.07
346.6713, 47448.55
347.1534, 47498.77
347.6355, 47539.94
348.1176, 47568.03
348.5998, 47556.30
349.0819, 47528.35
349.5640, 47563.91
350.0461, 47675.97
350.5282, 47790.55
351.0103, 47816.14
351.4925, 47775.00
351.9746, 47734.59
352.4567, 47727.75
352.9388, 47736.54
353.4209, 47743.58
353.9030, 47748.84
354.3852, 47737.75
354.8673, 47678.79
355.3494, 47601.06
355.8315, 47550.33
356.3136, 47566.01
356.7957, 47597.89
357.2779, 47606.89
357.7600, 47596.75
358.2421, 47586.93
358.7242, 47601.75
359.2063, 47616.29
359.6884, 47604.45
360.1706, 47534.43
360.6527, 47471.94
361.1348, 47445.09
361.6169, 47449.05
362.0990, 47470.18
362.5811, 47523.41
363.0633, 47576.65
363.5454, 47611.96
364.0275, 47625.15
364.5096, 47621.69
364.9917, 47598.90
365.4738, 47560.54
365.9560, 47513.33
366.4381, 47420.48
366.9202, 47355.27
367.4023, 47350.45
367.8844, 47428.80
368.3665, 47491.38
368.8487, 47533.36
369.3308, 47559.10
369.8129, 47571.46
370.2950, 47550.04
370.7771, 47542.68
371.2592, 47562.39
371.7414, 47609.12
372.2235, 47651.76
372.7056, 47705.16
373.1877, 47736.16
373.6698, 47704.11
374.1519, 47559.57
374.6341, 47482.75
375.1162, 47511.73
375.5983, 47620.37
376.0804, 47711.76
376.5625, 47785.46
377.0446, 47839.41
377.5267, 47863.59
378.0089, 47854.54
378.4910, 47867.42
378.9731, 47915.14
379.4552, 47973.01
379.9373, 47995.22
380.4194, 47982.45
380.9016, 47952.00
381.3837, 47890.63
381.8658, 47813.76
382.3479, 47808.10
382.8300, 47884.89
383.3121, 47979.22
383.7943, 48000.93
384.2764, 47970.23
384.7585, 47966.79
385.2406, 48037.38
385.7227, 48142.87
386.2048, 48218.56
386.6870, 48264.45
387.1691, 48297.13
387.6512, 48321.78
388.1333, 48340.57
388.6154, 48357.84
389.0975, 48373.57
389.5797, 48386.64
390.0618, 48390.68
390.5439, 48389.77
391.0260, 48398.18
391.5081, 48444.98
391.9902, 48492.85
392.4724, 48512.47
392.9545, 48494.00
393.4366, 48466.68
393.9187, 48428.84
394.4008, 48395.28
394.8829, 48387.78
395.3651, 48448.82
395.8472, 48507.45
396.3293, 48533.24
396.8114, 48519.85
397.2935, 48505.64
397.7756, 48485.96
398.2578, 48471.99
398.7399, 48473.35
399.2220, 48484.96
399.7041, 48516.74
400.1862, 48587.20
400.6683, 48688.55
401.1505, 48743.43
401.6326, 48716.53
402.1147, 48682.24
402.5968, 48687.54
403.0789, 48765.81
403.5610, 48798.61
404.0432, 48753.20
404.5253, 48676.64
405.0074, 48690.55
405.4895, 48828.11
405.9716, 48955.92
406.4537, 49009.77
406.9359, 48988.08
407.4180, 48985.81
407.9001, 49005.40
408.3822, 49037.08
408.8643, 49070.17
409.3464, 49104.51
409.8285, 49141.77
410.3106, 49181.05
410.7928, 49223.98
411.2749, 49286.83
411.7570, 49369.93
412.2391, 49431.42
412.7212, 49400.58
413.2033, 49324.14
413.6855, 49321.45
414.1676, 49441.81
414.6497, 49590.99
415.1318, 49663.96
415.6139, 49677.40
416.0960, 49682.93
416.5782, 49689.65
417.0603, 49711.81
417.5424, 49775.58
418.0245, 49892.76
418.5066, 49987.56
418.9887, 49989.38
419.4709, 49951.23
419.9530, 49943.71
420.4351, 50044.33
420.9172, 50131.79
421.3993, 50143.70
421.8814, 50083.74
422.3636, 50043.17
422.8457, 50044.19
423.3278, 50072.69
423.8099, 50119.87
424.2920, 50241.21
424.7741, 50314.39
425.2563, 50302.70
425.7384, 50238.87
426.2205, 50213.27
426.7026, 50245.91
427.1847, 50290.07
427.6668, 50332.98
428.1490, 50379.14
428.6311, 50393.64
429.1132, 50347.98
429.5953, 50302.17
430.0774, 50349.61
430.5595, 50515.52
431.0417, 50643.59
431.5238, 50671.57
432.0059, 50630.18
432.4880, 50688.54
432.9701, 50861.67
433.4522, 51030.68
433.9344, 51099.64
434.4165, 51079.89
434.8986, 51036.36
435.3807, 50966.08
435.8628, 50905.67
436.3449, 50912.80
436.8271, 50979.71
437.3092, 51070.16
437.7913, 51183.70
438.2734, 51300.36
438.7555, 51392.03
439.2376, 51456.43
439.7197, 51505.99
440.2018, 51540.20
440.6840, 51567.01
441.1661, 51597.50
441.6482, 51637.82
442.1303, 51679.00
442.6124, 51712.50
443.0945, 51740.82
443.5767, 51776.92
444.0588, 51828.81
444.5409, 51887.86
445.0230, 51951.68
445.5051, 52032.96
445.9872, 52095.16
446.4694, 52117.18
446.9515, 52121.42
447.4336, 52144.46
447.9157, 52203.82
448.3978, 52264.57
448.8799, 52324.16
449.3621, 52384.98
449.8442, 52414.02
450.3263, 52387.57
450.8084, 52360.88
451.2905, 52386.00
451.7726, 52479.07
452.2548, 52551.60
452.7369, 52585.12
453.2190, 52595.41
453.7011, 52625.87
454.1832, 52677.47
454.6653, 52735.35
455.1475, 52785.18
455.6296, 52832.21
456.1117, 52920.50
456.5938, 53059.21
457.0759, 53190.54
457.5580, 53241.26
458.0402, 53229.45
458.5223, 53204.93
459.0044, 53161.07
459.4865, 53134.91
459.9686, 53181.71
460.4507, 53291.62
460.9329, 53409.85
461.4150, 53505.04
461.8971, 53588.49
462.3792, 53671.40
462.8613, 53756.82
463.3434, 53836.85
463.8256, 53913.93
464.3077, 53981.29
464.7898, 54028.87
465.2719, 54046.56
465.7540, 54049.73
466.2361, 54018.58
466.7183, 53945.57
467.2004, 53956.19
467.6825, 54136.63
468.1646, 54346.32
468.6467, 54498.78
469.1288, 54565.84
469.6110, 54620.81
470.0930, 54664.94
470.5752, 54699.02
471.0573, 54723.36
471.5394, 54730.51
472.0215, 54745.42
472.5036, 54775.68
472.9857, 54820.96
473.4679, 54895.80
473.9500, 55008.20
474.4321, 55116.44
474.9142, 55169.54
475.3963, 55175.47
475.8784, 55181.46
476.3606, 55200.10
476.8427, 55227.73
477.3248, 55259.33
477.8069, 55296.11
478.2890, 55337.36
478.7711, 55388.26
479.2533, 55442.88
479.7354, 55490.88
480.2175, 55529.20
480.6996, 55575.82
481.1817, 55638.94
481.6638, 55716.79
482.1460, 55807.17
482.6281, 55891.93
483.1102, 56000.66
483.5923, 56160.37
484.0744, 56359.57
484.5565, 56529.92
485.0387, 56653.98
485.5208, 56742.00
486.0029, 56794.32
486.4850, 56784.93
486.9671, 56793.90
487.4492, 56831.52
487.9314, 56882.45
488.4135, 56926.32
488.8956, 56965.84
489.3777, 56996.73
489.8598, 57016.77
490.3419, 57029.64
490.8241, 57053.51
491.3062, 57090.84
491.7883, 57137.00
492.2704, 57184.83
492.7525, 57236.84
493.2346, 57324.19
493.7168, 57461.77
494.1989, 57593.52
494.6810, 57619.77
495.1631, 57566.96
495.6452, 57532.39
496.1273, 57563.81
496.6095, 57634.68
497.0916, 57723.49
497.5737, 57827.50
498.0558, 57927.20
498.5379, 58008.79
499.0201, 58081.45
499.5022, 58153.85
499.9843, 58237.09
500.4664, 58306.78
500.9485, 58328.67
501.4306, 58335.65
501.9127, 58385.72
502.3948, 58535.41
502.8770, 58684.40
503.3591, 58805.30
503.8412, 58896.47
504.3233, 58979.16
504.8054, 59048.04
505.2875, 59110.58
505.7697, 59170.44
506.2518, 59224.64
506.7339, 59281.97
507.2160, 59339.57
507.6981, 59402.85
508.1802, 59486.84
508.6624, 59592.96
509.1445, 59700.94
509.6266, 59809.05
510.1087, 59913.08
510.5908, 59994.48
511.0729, 60053.77
511.5551, 60107.34
512.0372, 60165.25
512.5193, 60229.25
513.0014, 60300.66
513.4835, 60380.06
513.9656, 60468.70
514.4478, 60568.45
514.9299, 60677.60
515.4120, 60792.75
515.8941, 60919.05
516.3762, 61043.71
516.8583, 61167.63
517.3405, 61290.45
517.8226, 61375.91
518.3047, 61346.04
518.7868, 61320.86
519.2689, 61381.58
519.7510, 61626.55
520.2332, 61815.39
520.7153, 61930.57
521.1974, 61995.00
521.6795, 62042.29
522.1616, 62060.97
522.6437, 62096.38
523.1259, 62170.08
523.6080, 62275.94
524.0901, 62356.43
524.5722, 62409.26
525.0543, 62454.42
525.5364, 62498.14
526.0186, 62546.02
526.5007, 62627.61
526.9828, 62751.84
527.4649, 62889.50
527.9470, 63028.10
528.4291, 63151.86
528.9113, 63229.66
529.3934, 63192.15
529.8755, 63143.11
530.3576, 63180.67
530.8397, 63292.57
531.3218, 63377.05
531.8040, 63353.48
532.2861, 63309.18
532.7682, 63305.48
533.2503, 63375.50
533.7324, 63433.95
534.2145, 63447.72
534.6967, 63453.78
535.1788, 63503.73
535.6609, 63644.11
536.1430, 63755.11
536.6251, 63806.73
537.1072, 63809.88
537.5894, 63814.28
538.0715, 63810.28
538.5536, 63839.72
539.0357, 63943.39
539.5178, 64115.23
539.9999, 64258.87
540.4821, 64362.27
540.9642, 64462.22
541.4463, 64619.14
541.9284, 64809.64
542.4105, 64960.91
542.8926, 65033.00
543.3748, 65074.60
543.8569, 65138.66
544.3390, 65215.59
544.8211, 65276.05
545.3032, 65256.00
545.7853, 65250.13
546.2675, 65343.64
546.7495, 65562.13
547.2316, 65738.72
547.7137, 65801.04
548.1959, 65816.52
548.6780, 65843.61
549.1601, 65908.23
549.6422, 65956.35
550.1243, 65968.09
550.6064, 65967.32
551.0886, 66013.46
551.5707, 66118.97
552.0528, 66241.11
552.5349, 66371.30
553.0170, 66507.27
553.4991, 66625.65
553.9813, 66728.45
554.4634, 66798.69
554.9455, 66799.88
555.4276, 66753.14
555.9097, 66731.55
556.3918, 66745.23
556.8740, 66790.16
557.3561, 66887.95
557.8382, 67013.49
558.3203, 67114.47
558.8024, 67156.21
559.2845, 67177.93
559.7667, 67188.77
560.2488, 67194.93
560.7309, 67231.82
561.2130, 67332.41
561.6951, 67449.66
562.1772, 67559.77
562.6594, 67655.65
563.1415, 67755.67
563.6236, 67862.87
564.1057, 67968.43
564.5878, 68064.55
565.0699, 68148.61
565.5521, 68222.23
566.0342, 68278.57
566.5163, 68328.58
566.9984, 68410.92
567.4805, 68527.15
567.9626, 68637.83
568.4448, 68708.00
568.9269, 68759.10
569.4090, 68876.05
569.8911, 69058.85
570.3732, 69206.53
570.8553, 69185.73
571.3375, 69094.28
571.8196, 69071.02
572.3017, 69169.41
572.7838, 69281.30
573.2659, 69356.18
573.7480, 69403.86
574.2302, 69442.11
574.7123, 69462.73
575.1944, 69487.33
575.6765, 69511.30
576.1586, 69539.26
576.6407, 69616.41
577.1229, 69796.85
577.6050, 69958.23
578.0871, 70038.51
578.5692, 70025.71
579.0513, 70001.44
579.5334, 69952.11
580.0156, 69927.59
580.4977, 70003.98
580.9798, 70170.38
581.4619, 70321.97
581.9440, 70434.74
582.4261, 70522.27
582.9083, 70582.46
583.3904, 70627.27
583.8725, 70700.33
584.3546, 70883.56
584.8367, 71058.34
585.3188, 71095.31
585.8010, 70998.94
586.2831, 70954.38
586.7652, 71105.38
587.2473, 71289.84
587.7294, 71392.52
588.2115, 71318.34
588.6937, 71327.64
589.1758, 71493.10
589.6579, 71710.02
590.1400, 71850.35
590.6221, 71894.17
591.1042, 71910.96
591.5864, 71900.00
592.0685, 71878.20
592.5506, 71904.23
593.0327, 71980.98
593.5148, 72060.13
593.9969, 72118.05
594.4791, 72159.07
594.9612, 72187.76
595.4433, 72204.81
595.9254, 72233.98
596.4075, 72293.87
596.8896, 72377.66
597.3718, 72481.45
597.8539, 72619.58
598.3360, 72740.83
598.8181, 72810.60
599.3002, 72851.09
599.7823, 72895.16
600.2645, 72907.24
600.7466, 72973.11
601.2287, 73155.49
601.7108, 73414.17
602.1929, 73545.91
602.6750, 73471.27
603.1572, 73422.31
603.6393, 73522.97
604.1214, 73771.88
604.6035, 73931.69
605.0856, 73992.94
605.5677, 74011.37
606.0499, 74010.83
606.5320, 74008.35
607.0141, 74072.34
607.4962, 74229.13
607.9783, 74402.01
608.4604, 74515.23
608.9425, 74587.50
609.4246, 74650.80
609.9067, 74702.89
610.3889, 74763.93
610.8710, 74865.79
611.3531, 74991.99
611.8352, 75067.52
612.3173, 75013.06
612.7994, 74968.29
613.2816, 74988.44
613.7637, 75083.99
614.2458, 75181.97
614.7279, 75289.91
615.2100, 75390.80
615.6921, 75471.33
616.1743, 75532.64
616.6564, 75573.23
617.1385, 75584.50
617.6206, 75601.94
618.1027, 75696.95
618.5848, 75844.38
619.0670, 75956.99
619.5491, 75973.34
620.0312, 75970.77
620.5133, 76011.91
620.9954, 76094.11
621.4775, 76210.43
621.9597, 76424.13
622.4418, 76612.02
622.9239, 76694.20
623.4060, 76652.89
623.8881, 76638.25
624.3702, 76680.56
624.8524, 76740.41
625.3345, 76797.84
625.8166, 76856.52
626.2987, 76902.13
626.7808, 76933.08
627.2629, 76955.06
627.7451, 76971.62
628.2272, 76983.73
628.7093, 77009.64
629.1914, 77065.47
629.6735, 77121.77
630.1556, 77120.34
630.6378, 77076.18
631.1199, 77036.80
631.6020, 77026.21
632.0841, 77031.88
632.5662, 77041.33
633.0483, 77056.16
633.5305, 77093.25
634.0126, 77175.50
634.4947, 77268.75
634.9768, 77359.76
635.4589, 77463.26
635.9410, 77513.93
636.4232, 77482.09
636.9053, 77427.65
637.3874, 77403.97
637.8695, 77410.45
638.3516, 77450.95
638.8337, 77536.60
639.3159, 77634.70
639.7980, 77688.34
640.2801, 77703.33
640.7622, 77714.23
641.2443, 77743.69
641.7264, 77770.88
642.2086, 77749.78
642.6907, 77698.99
643.1728, 77691.98
643.6549, 77827.79
644.1370, 77972.24
644.6191, 78042.70
645.1013, 78025.05
645.5834, 78003.97
646.0655, 77955.95
646.5476, 77936.88
647.0297, 77982.90
647.5118, 78117.06
647.9940, 78248.02
648.4761, 78370.62
648.9582, 78491.19
649.4403, 78630.11
649.9224, 78781.62
650.4045, 78900.70
650.8867, 78974.45
651.3688, 79012.98
651.8509, 79024.88
652.3330, 79014.66
652.8151, 78995.99
653.2972, 78970.75
653.7794, 78946.59
654.2615, 78928.32
654.7436, 78917.90
655.2257, 78918.52
655.7078, 78957.90
656.1899, 78988.33
656.6721, 78979.90
657.1542, 78921.75
657.6363, 78891.10
658.1184, 78899.22
658.6005, 78915.23
659.0826, 78910.48
659.5648, 78882.34
660.0469, 78870.42
660.5290, 78883.63
661.0111, 78893.16
661.4932, 78853.95
661.9753, 78781.19
662.4575, 78715.12
662.9396, 78662.02
663.4217, 78634.88
663.9038, 78670.69
664.3859, 78743.10
664.8680, 78788.48
665.3502, 78753.95
665.8323, 78720.38
666.3144, 78717.60
666.7965, 78744.45
667.2786, 78769.17
667.7607, 78779.82
668.2429, 78798.94
668.7250, 78842.68
669.2071, 78909.57
669.6892, 78924.91
670.1713, 78879.04
670.6534, 78812.74
671.1355, 78746.99
671.6176, 78688.71
672.0997, 78681.23
672.5818, 78745.63
673.0640, 78778.54
673.5461, 78651.59
674.0282, 78454.40
674.5103, 78307.71
674.9924, 78298.01
675.4745, 78285.77
675.9567, 78212.64
676.4388, 78114.09
676.9209, 78065.90
677.4030, 78117.12
677.8851, 78147.33
678.3672, 78123.83
678.8494, 78061.30
679.3315, 78013.59
679.8136, 77975.34
680.2957, 77974.21
680.7778, 78042.99
681.2599, 78153.43
681.7421, 78236.73
682.2242, 78290.54
682.7063, 78302.05
683.1884, 78207.46
683.6705, 78095.48
684.1526, 78066.02
684.6348, 78146.31
685.1169, 78220.55
685.5990, 78263.32
686.0811, 78275.22
686.5632, 78255.41
687.0453, 78194.10
687.5275, 78126.88
688.0096, 78050.42
688.4917, 77977.71
688.9738, 77926.99
689.4559, 77900.79
689.9380, 77873.72
690.4202, 77837.27
690.9023, 77800.33
691.3844, 77773.88
691.8665, 77758.77
692.3486, 77759.83
692.8307, 77818.70
693.3129, 77859.28
693.7950, 77799.30
694.2771, 77660.65
694.7592, 77546.34
695.2413, 77489.64
695.7234, 77461.67
696.2056, 77465.92
696.6877, 77504.92
697.1698, 77499.03
697.6519, 77442.76
698.1340, 77356.70
698.6161, 77240.27
699.0983, 77096.62
699.5804, 77004.31
700.0625, 76973.13
700.5446, 76949.92
701.0267, 76878.14
701.5089, 76779.01
701.9910, 76688.56
702.4731, 76611.38
702.9552, 76551.48
703.4373, 76525.38
703.9194, 76511.81
704.4016, 76484.19
704.8837, 76400.80
705.3658, 76346.28
705.8479, 76354.77
706.3300, 76386.16
706.8121, 76359.29
707.2943, 76251.48
707.7764, 76161.41
708.2585, 76118.43
708.7406, 76106.62
709.2227, 76089.39
709.7048, 76066.86
710.1870, 76033.88
710.6691, 75982.05
711.1512, 75923.17
711.6333, 75875.69
712.1154, 75835.84
712.5975, 75776.84
713.0797, 75634.98
713.5618, 75511.58
714.0439, 75476.71
714.5260, 75554.82
715.0081, 75597.45
715.4902, 75587.87
715.9724, 75559.03
716.4545, 75529.87
716.9366, 75499.52
717.4187, 75465.40
717.9008, 75426.08
718.3829, 75385.48
718.8651, 75352.60
719.3472, 75321.33
719.8293, 75267.48
720.3114, 75175.45
720.7935, 75103.21
721.2756, 75118.94
721.7578, 75173.34
722.2399, 75203.09
722.7220, 75166.34
723.2041, 75134.86
723.6862, 75142.23
724.1683, 75153.83
724.6505, 75101.92
725.1326, 74958.71
725.6147, 74837.22
726.0968, 74769.52
726.5789, 74734.44
727.0610, 74679.48
727.5432, 74606.92
728.0253, 74537.08
728.5074, 74507.65
728.9895, 74468.66
729.4716, 74334.08
729.9537, 74128.67
730.4359, 73967.45
730.9180, 73935.88
731.4001, 73929.95
731.8822, 73906.41
732.3643, 73861.94
732.8464, 73800.39
733.3285, 73703.91
733.8106, 73616.56
734.2927, 73564.62
734.7748, 73548.20
735.2570, 73527.02
735.7391, 73501.34
736.2212, 73461.72
736.7033, 73386.39
737.1854, 73294.80
737.6675, 73232.66
738.1497, 73212.54
738.6318, 73173.55
739.1139, 73051.23
739.5960, 72908.39
740.0781, 72805.63
740.5602, 72780.78
741.0424, 72754.55
741.5245, 72708.73
742.0066, 72671.02
742.4887, 72683.34
742.9708, 72759.79
743.4529, 72795.95
743.9351, 72768.40
744.4172, 72707.16
744.8993, 72646.38
745.3814, 72588.21
745.8635, 72548.50
746.3456, 72548.73
746.8278, 72538.61
747.3099, 72462.52
747.7920, 72346.17
748.2741, 72244.13
748.7562, 72205.29
749.2383, 72148.32
749.7205, 72055.35
750.2026, 71933.23
750.6847, 71793.71
751.1668, 71625.30
751.6489, 71490.70
752.1310, 71433.66
752.6132, 71419.32
753.0953, 71307.46
753.5774, 71108.59
754.0595, 70937.42
754.5416, 70870.73
755.0237, 70851.73
755.5059, 70833.23
755.9880, 70809.77
756.4701, 70767.35
756.9522, 70675.94
757.4343, 70580.87
757.9164, 70512.75
758.3986, 70476.27
758.8807, 70389.14
759.3628, 70230.38
759.8449, 70071.77
760.3270, 69986.56
760.8091, 69962.06
761.2913, 69835.24
761.7734, 69600.70
762.2555, 69385.16
762.7376, 69321.82
763.2197, 69331.63
763.7018, 69312.23
764.1840, 69245.13
764.6661, 69174.21
765.1482, 69102.71
765.6303, 69044.05
766.1124, 69010.52
766.5945, 69011.17
767.0767, 69010.18
767.5588, 69011.23
768.0409, 68996.83
768.5230, 68939.22
769.0051, 68840.36
769.4872, 68735.47
769.9694, 68619.66
770.4515, 68529.35
770.9336, 68540.52
771.4157, 68596.20
771.8978, 68602.93
772.3799, 68522.02
772.8621, 68408.84
773.3442, 68254.88
773.8263, 68093.14
774.3084, 67977.07
774.7905, 67951.60
775.2726, 67889.02
775.7548, 67764.84
776.2369, 67609.75
776.7190, 67476.34
777.2011, 67365.16
777.6832, 67293.42
778.1653, 67293.06
778.6475, 67289.72
779.1296, 67148.68
779.6117, 66931.38
780.0938, 66778.70
780.5759, 66830.89
781.0580, 66873.64
781.5402, 66800.62
782.0223, 66650.76
782.5044, 66566.34
782.9865, 66585.16
783.4686, 66593.25
783.9507, 66567.34
784.4329, 66505.30
784.9150, 66371.32
785.3971, 66172.52
785.8792, 66021.23
786.3613, 66021.73
786.8434, 66067.86
787.3256, 66018.12
787.8077, 65898.84
788.2898, 65807.39
788.7719, 65818.86
789.2540, 65835.99
789.7361, 65808.70
790.2183, 65742.79
790.7004, 65702.80
791.1825, 65689.46
791.6646, 65697.81
792.1467, 65742.34
792.6288, 65803.85
793.1110, 65774.66
793.5930, 65660.96
794.0751, 65573.28
794.5573, 65614.01
795.0394, 65699.93
795.5215, 65753.48
796.0036, 65771.36
796.4857, 65759.85
796.9678, 65671.23
797.4500, 65603.45
797.9321, 65616.44
798.4142, 65715.90
798.8963, 65764.40
799.3784, 65752.37
799.8605, 65723.00
800.3427, 65691.63
800.8248, 65665.11
801.3069, 65670.95
801.7890, 65709.20
802.2711, 65766.12
802.7532, 65845.16
803.2354, 65927.63
803.7175, 65995.97
804.1996, 66045.68
804.6817, 66102.13
805.1638, 66185.37
805.6459, 66263.34
806.1281, 66322.31
806.6102, 66362.76
807.0923, 66375.63
807.5744, 66356.16
808.0565, 66335.48
808.5386, 66372.84
809.0208, 66423.12
809.5029, 66367.43
809.9850, 66194.52
810.4671, 65985.13
810.9492, 65786.90
811.4313, 65578.87
811.9135, 65346.88
812.3956, 65090.13
812.8777, 64795.74
813.3598, 64424.47
813.8419, 64065.64
814.3240, 63791.57
814.8062, 63608.82
815.2883, 63388.36
815.7704, 63123.93
816.2525, 62864.82
816.7346, 62668.38
817.2167, 62503.79
817.6989, 62328.12
818.1810, 62138.30
818.6631, 61923.89
819.1452, 61643.19
819.6273, 61359.85
820.1094, 61133.10
820.5916, 60987.91
821.0737, 60818.30
821.5558, 60628.18
822.0379, 60409.61
822.5200, 60132.99
823.0021, 59816.13
823.4843, 59560.10
823.9664, 59376.47
824.4485, 59234.67
824.9306, 59159.77
825.4127, 59084.63
825.8948, 58917.47
826.3770, 58606.27
826.8591, 58343.63
827.3412, 58209.91
827.8233, 58113.66
828.3054, 58001.22
828.7875, 57869.00
829.2697, 57733.61
829.7518, 57596.94
830.2339, 57444.92
830.7160, 57246.94
831.1981, 57023.55
831.6802, 56822.54
832.1624, 56650.45
832.6445, 56483.25
833.1266, 56294.10
833.6087, 56111.00
834.0908, 55958.78
834.5729, 55852.16
835.0551, 55748.63
835.5372, 55640.63
836.0193, 55548.41
836.5014, 55503.08
836.9835, 55500.37
837.4656, 55451.71
837.9478, 55352.23
838.4299, 55216.43
838.9120, 55011.56
839.3941, 54798.89
839.8762, 54668.71
840.3583, 54650.27
840.8405, 54605.88
841.3226, 54447.07
841.8047, 54281.86
842.2868, 54185.05
842.7689, 54177.15
843.2510, 54134.81
843.7332, 54055.80
844.2153, 53947.59
844.6974, 53780.74
845.1795, 53592.23
845.6616, 53511.38
846.1437, 53547.54
846.6259, 53560.25
847.1080, 53417.02
847.5901, 53239.05
848.0722, 53121.94
848.5543, 53092.59
849.0364, 53062.32
849.5186, 53056.02
850.0007, 53006.76
850.4828, 52846.64
850.9649, 52582.55
851.4470, 52407.12
851.9291, 52324.37
852.4113, 52255.88
852.8934, 52153.52
853.3755, 52025.23
853.8576, 51858.91
854.3397, 51655.97
854.8218, 51505.83
855.3040, 51484.86
855.7860, 51482.00
856.2681, 51441.41
856.7502, 51361.95
857.2324, 51291.42
857.7145, 51227.66
858.1966, 51183.44
858.6787, 51186.59
859.1608, 51208.56
859.6429, 51187.39
860.1251, 51123.55
860.6072, 51034.93
861.0893, 50904.59
861.5714, 50774.76
862.0535, 50669.04
862.5356, 50590.02
863.0178, 50516.23
863.4999, 50458.34
863.9820, 50383.64
864.4641, 50273.18
864.9462, 50137.34
865.4283, 50020.98
865.9105, 49923.85
866.3926, 49837.93
866.8747, 49785.54
867.3568, 49722.41
867.8389, 49586.48
868.3210, 49401.89
868.8032, 49272.19
869.2853, 49276.87
869.7674, 49280.86
870.2495, 49262.05
870.7316, 49218.80
871.2137, 49133.89
871.6959, 49006.70
872.1780, 48889.05
872.6601, 48813.53
873.1422, 48745.64
873.6243, 48611.15
874.1064, 48444.49
874.5886, 48332.92
875.0707, 48370.54
875.5528, 48398.93
876.0349, 48357.96
876.5170, 48275.89
876.9991, 48205.92
877.4813, 48149.20
877.9634, 48101.31
878.4455, 48070.63
878.9276, 48030.59
879.4097, 47907.75
879.8918, 47740.57
880.3740, 47632.64
880.8561, 47660.19
881.3382, 47685.98
881.8203, 47633.26
882.3024, 47539.80
882.7845, 47459.02
883.2667, 47392.48
883.7488, 47345.05
884.2309, 47323.39
884.7130, 47308.40
885.1951, 47282.37
885.6772, 47241.73
886.1594, 47163.18
886.6415, 47034.73
887.1236, 46910.45
887.6057, 46845.24
888.0878, 46800.09
888.5699, 46733.03
889.0521, 46615.87
889.5342, 46524.77
890.0163, 46466.20
890.4984, 46428.87
890.9805, 46411.17
891.4626, 46410.49
891.9448, 46380.77
892.4269, 46317.50
892.9090, 46258.13
893.3911, 46237.60
893.8732, 46233.80
894.3553, 46233.34
894.8375, 46236.89
895.3196, 46195.71
895.8017, 46044.11
896.2838, 45902.12
896.7659, 45833.15
897.2480, 45834.34
897.7302, 45787.28
898.2123, 45692.20
898.6944, 45582.08
899.1765, 45475.94
899.6586, 45372.40
900.1407, 45275.09
900.6229, 45182.56
901.1050, 45085.43
901.5871, 44968.30
902.0692, 44860.56
902.5513, 44772.11
903.0334, 44700.01
903.5156, 44630.24
903.9977, 44562.13
904.4798, 44492.31
904.9619, 44418.05
905.4440, 44341.07
905.9261, 44267.64
906.4083, 44193.78
906.8904, 44109.10
907.3725, 43997.30
907.8546, 43887.82
908.3367, 43789.35
908.8188, 43699.38
909.3010, 43620.51
909.7831, 43559.04
910.2652, 43477.47
910.7473, 43363.13
911.2294, 43244.96
911.7115, 43173.60
912.1937, 43128.02
912.6758, 43054.53
913.1579, 42923.02
913.6400, 42810.16
914.1221, 42762.23
914.6042, 42744.38
915.0864, 42724.93
915.5685, 42713.36
916.0506, 42669.05
916.5327, 42587.31
917.0148, 42489.46
917.4969, 42387.43
917.9790, 42286.29
918.4611, 42192.55
918.9432, 42107.46
919.4254, 42049.90
919.9075, 42049.07
920.3896, 42066.05
920.8717, 42083.84
921.3538, 42102.66
921.8359, 42074.57
922.3181, 41982.02
922.8002, 41891.02
923.2823, 41833.53
923.7644, 41802.11
924.2465, 41782.37
924.7286, 41771.46
925.2108, 41761.46
925.6929, 41751.26
926.1750, 41736.48
926.6571, 41717.77
927.1392, 41692.41
927.6213, 41652.05
928.1035, 41595.32
928.5856, 41532.35
929.0677, 41467.05
929.5498, 41396.59
930.0319, 41311.64
930.5140, 41216.18
930.9962, 41118.21
931.4783, 41017.88
931.9604, 40921.66
932.4425, 40841.47
932.9246, 40762.50
933.4067, 40657.70
933.8889, 40487.23
934.3710, 40391.95
934.8531, 40396.61
935.3352, 40430.20
935.8173, 40416.24
936.2994, 40366.89
936.7816, 40318.58
937.2637, 40275.27
937.7458, 40225.68
938.2279, 40167.21
938.7100, 40095.75
939.1921, 39998.26
939.6743, 39869.85
940.1564, 39783.25
940.6385, 39747.41
941.1206, 39730.81
941.6027, 39738.89
942.0848, 39746.54
942.5670, 39654.27
943.0491, 39484.06
943.5312, 39339.08
944.0133, 39300.01
944.4954, 39278.20
944.9775, 39233.04
945.4597, 39168.12
945.9418, 39104.46
946.4239, 39045.22
946.9060, 38975.63
947.3881, 38885.85
947.8702, 38795.98
948.3524, 38753.86
948.8345, 38739.18
949.3166, 38697.48
949.7987, 38596.47
950.2808, 38499.81
950.7629, 38436.77
951.2451, 38396.05
951.7272, 38367.07
952.2093, 38357.86
952.6914, 38324.05
953.1735, 38254.90
953.6556, 38196.08
954.1378, 38222.41
954.6199, 38280.72
955.1020, 38259.14
955.5841, 38149.51
956.0662, 38039.84
956.5483, 37961.10
957.0305, 37905.96
957.5126, 37879.95
957.9947, 37879.09
958.4768, 37853.80
958.9589, 37802.67
959.4410, 37739.29
959.9232, 37661.77
960.4053, 37583.13
960.8874, 37520.34
961.3695, 37472.22
961.8516, 37436.86
962.3337, 37429.75
962.8159, 37414.07
963.2980, 37372.40
963.7801, 37321.09
964.2622, 37291.82
964.7443, 37289.14
965.2264, 37242.67
965.7086, 37134.80
966.1907, 37013.41
966.6728, 36911.24
967.1549, 36835.88
967.6370, 36810.25
968.1191, 36858.97
968.6013, 36868.98
969.0834, 36792.09
969.5655, 36698.82
970.0476, 36618.96
970.5297, 36553.83
971.0118, 36534.29
971.4940, 36559.55
971.9761, 36568.09
972.4582, 36504.19
972.9403, 36417.10
973.4224, 36346.94
973.9045, 36292.23
974.3867, 36237.45
974.8688, 36163.23
975.3509, 36116.38
975.8330, 36117.38
976.3151, 36138.61
976.7972, 36121.95
977.2794, 36071.65
977.7615, 36001.72
978.2436, 35898.66
978.7257, 35824.96
979.2078, 35871.69
979.6899, 35949.28
980.1720, 35950.77
980.6541, 35820.52
981.1362, 35737.67
981.6183, 35721.05
982.1005, 35703.35
982.5826, 35607.60
983.0647, 35469.81
983.5468, 35404.75
984.0289, 35412.09
984.5110, 35419.50
984.9932, 35396.26
985.4753, 35353.21
985.9574, 35280.66
986.4395, 35190.95
986.9216, 35144.52
987.4037, 35154.25
987.8859, 35135.17
988.3680, 35051.16
988.8501, 34940.47
989.3322, 34851.70
989.8143, 34782.81
990.2964, 34731.34
990.7786, 34716.09
991.2607, 34686.75
991.7428, 34627.79
992.2249, 34553.76
992.7070, 34465.83
993.1891, 34360.78
993.6713, 34322.49
994.1534, 34358.92
994.6355, 34391.98
995.1176, 34325.47
995.5997, 34241.61
996.0818, 34244.34
996.5640, 34335.62
997.0461, 34370.67
997.5282, 34303.50
998.0103, 34219.39
998.4924, 34134.14
998.9745, 34057.98
999.4567, 34031.81
999.9388, 34045.39
1000.421, 34049.66
1000.903, 34022.44
1001.385, 33984.79
1001.867, 33949.43
1002.349, 33912.06
1002.831, 33867.28
1003.314, 33816.03
1003.796, 33750.72
1004.278, 33663.87
1004.760, 33585.00
1005.242, 33548.88
1005.724, 33539.84
1006.206, 33528.63
1006.688, 33512.98
1007.171, 33490.00
1007.653, 33464.59
1008.135, 33424.54
1008.617, 33358.18
1009.099, 33273.55
1009.581, 33203.27
1010.063, 33146.17
1010.545, 33125.00
1011.027, 33168.75
1011.510, 33215.21
1011.992, 33192.04
1012.474, 33121.57
1012.956, 33039.94
1013.438, 32930.77
1013.920, 32847.57
1014.402, 32792.09
1014.884, 32763.25
1015.367, 32775.91
1015.849, 32818.32
1016.331, 32826.87
1016.813, 32798.23
1017.295, 32746.36
1017.777, 32649.86
1018.259, 32562.14
1018.741, 32533.32
1019.223, 32553.25
1019.706, 32531.76
1020.188, 32457.16
1020.670, 32387.98
1021.152, 32341.96
1021.634, 32312.45
1022.116, 32299.73
1022.598, 32292.92
1023.080, 32266.74
1023.563, 32180.33
1024.045, 32137.34
1024.527, 32210.78
1025.009, 32290.45
1025.491, 32282.94
1025.973, 32187.52
1026.455, 32089.90
1026.937, 31991.61
1027.419, 31924.96
1027.901, 31957.47
1028.384, 31997.78
1028.866, 31954.28
1029.348, 31840.41
1029.830, 31767.05
1030.312, 31757.28
1030.794, 31757.04
1031.276, 31765.15
1031.758, 31759.81
1032.241, 31686.54
1032.723, 31569.34
1033.205, 31461.52
1033.687, 31370.32
1034.169, 31314.97
1034.651, 31343.31
1035.133, 31379.71
1035.615, 31360.75
1036.098, 31278.28
1036.580, 31246.78
1037.062, 31267.49
1037.544, 31288.06
1038.026, 31265.82
1038.508, 31229.79
1038.990, 31215.75
1039.472, 31214.25
1039.954, 31191.78
1040.437, 31130.96
1040.919, 31067.84
1041.401, 31005.77
1041.883, 30946.80
1042.365, 30895.08
1042.847, 30849.04
1043.329, 30798.95
1043.811, 30742.42
1044.293, 30694.52
1044.776, 30682.09
1045.258, 30666.06
1045.740, 30615.49
1046.222, 30532.42
1046.704, 30472.48
1047.186, 30437.47
1047.668, 30402.12
1048.150, 30345.68
1048.633, 30290.21
1049.115, 30267.56
1049.597, 30265.86
1050.079, 30261.48
1050.561, 30232.78
1051.043, 30227.40
1051.525, 30259.55
1052.007, 30296.09
1052.490, 30301.22
1052.972, 30279.71
1053.454, 30247.26
1053.936, 30204.87
1054.418, 30155.93
1054.900, 30084.30
1055.382, 30023.80
1055.864, 29997.21
1056.346, 29996.44
1056.828, 29996.78
1057.311, 29998.95
1057.793, 29987.36
1058.275, 29955.69
1058.757, 29912.21
1059.239, 29864.37
1059.721, 29812.24
1060.203, 29755.92
1060.685, 29696.26
1061.168, 29633.31
1061.650, 29569.42
1062.132, 29501.68
1062.614, 29414.35
1063.096, 29323.41
1063.578, 29300.65
1064.060, 29334.19
1064.542, 29357.21
1065.025, 29342.60
1065.507, 29301.65
1065.989, 29214.09
1066.471, 29115.40
1066.953, 29068.98
1067.435, 29077.94
1067.917, 29078.84
1068.399, 29063.96
1068.881, 29030.69
1069.364, 28947.03
1069.846, 28862.54
1070.328, 28838.37
1070.810, 28887.42
1071.292, 28893.02
1071.774, 28834.14
1072.256, 28775.33
1072.738, 28744.29
1073.220, 28726.64
1073.703, 28686.84
1074.185, 28636.29
1074.667, 28607.07
1075.149, 28638.63
1075.631, 28643.03
1076.113, 28573.75
1076.595, 28490.71
1077.077, 28445.20
1077.559, 28436.66
1078.042, 28424.60
1078.524, 28408.36
1079.006, 28372.75
1079.488, 28266.97
1079.970, 28177.17
1080.452, 28192.66
1080.934, 28277.11
1081.416, 28278.29
1081.899, 28167.61
1082.381, 28090.38
1082.863, 28076.86
1083.345, 28088.37
1083.827, 28075.15
1084.309, 28055.94
1084.791, 28062.32
1085.273, 28103.94
1085.755, 28128.65
1086.238, 28133.24
1086.720, 28109.26
1087.202, 28041.54
1087.684, 27949.24
1088.166, 27891.63
1088.648, 27863.93
1089.130, 27843.93
1089.612, 27827.48
1090.094, 27810.82
1090.577, 27795.32
1091.059, 27777.77
1091.541, 27751.30
1092.023, 27713.67
1092.505, 27707.85
1092.987, 27735.98
1093.469, 27745.74
1093.951, 27671.54
1094.434, 27584.22
1094.916, 27543.47
1095.398, 27542.29
1095.880, 27543.85
1096.362, 27544.75
1096.844, 27549.40
1097.326, 27559.57
1097.808, 27569.93
1098.291, 27589.53
1098.773, 27598.51
1099.255, 27553.01
1099.737, 27441.40
1100.219, 27347.32
1100.701, 27291.42
1101.183, 27259.69
1101.665, 27255.71
1102.147, 27267.53
1102.630, 27248.19
1103.112, 27207.55
1103.594, 27187.61
1104.076, 27226.90
1104.558, 27243.36
1105.040, 27166.99
1105.522, 27069.73
1106.004, 27020.91
1106.486, 27026.03
1106.969, 27007.35
1107.451, 26964.80
1107.933, 26921.82
1108.415, 26896.68
1108.897, 26876.69
1109.379, 26856.50
1109.861, 26833.46
1110.343, 26798.70
1110.826, 26744.27
1111.308, 26710.43
1111.790, 26708.44
1112.272, 26704.22
1112.754, 26643.29
1113.236, 26564.77
1113.718, 26534.94
1114.200, 26557.66
1114.682, 26553.18
1115.165, 26477.39
1115.647, 26418.68
1116.129, 26405.96
1116.611, 26419.18
1117.093, 26428.58
1117.575, 26427.46
1118.057, 26390.05
1118.539, 26293.32
1119.021, 26218.75
1119.504, 26222.42
1119.986, 26239.05
1120.468, 26230.95
1120.950, 26201.29
1121.432, 26179.12
1121.914, 26164.17
1122.396, 26148.09
1122.878, 26129.00
1123.361, 26105.77
1123.843, 26078.75
1124.325, 26046.70
1124.807, 26005.45
1125.289, 25950.19
1125.771, 25911.50
1126.253, 25889.74
1126.735, 25888.02
1127.218, 25926.28
1127.700, 25971.15
1128.182, 25978.33
1128.664, 25958.83
1129.146, 25976.85
1129.628, 26065.65
1130.110, 26103.20
1130.592, 26061.91
1131.074, 25986.64
1131.557, 25914.09
1132.039, 25854.80
1132.521, 25833.79
1133.003, 25854.87
1133.485, 25875.50
1133.967, 25894.33
1134.449, 25902.80
1134.931, 25904.29
1135.413, 25888.93
1135.896, 25816.34
1136.378, 25708.90
1136.860, 25627.30
1137.342, 25598.49
1137.824, 25570.79
1138.306, 25511.07
1138.788, 25460.89
1139.270, 25448.73
1139.752, 25467.91
1140.235, 25459.44
1140.717, 25429.31
1141.199, 25421.34
1141.681, 25492.63
1142.163, 25547.76
1142.645, 25522.05
1143.127, 25460.53
1143.609, 25418.47
1144.092, 25397.14
1144.574, 25386.87
1145.056, 25388.61
1145.538, 25366.81
1146.020, 25261.68
1146.502, 25155.20
1146.984, 25123.33
1147.466, 25145.54
1147.948, 25147.20
1148.431, 25122.30
1148.913, 25103.82
1149.395, 25096.85
1149.877, 25090.53
1150.359, 25062.92
1150.841, 25035.61
1151.323, 25036.63
1151.805, 25066.19
1152.287, 25082.95
1152.770, 25081.02
1153.252, 25072.18
1153.734, 25056.68
1154.216, 25040.44
1154.698, 25033.95
1155.180, 25033.04
1155.662, 25033.81
1156.144, 25039.08
1156.627, 25028.04
1157.109, 24991.87
1157.591, 24956.16
1158.073, 24931.21
1158.555, 24916.65
1159.037, 24917.95
1159.519, 24927.41
1160.001, 24926.16
1160.484, 24912.71
1160.966, 24874.51
1161.448, 24778.95
1161.930, 24699.32
1162.412, 24700.86
1162.894, 24762.78
1163.376, 24780.31
1163.858, 24760.49
1164.340, 24737.50
1164.823, 24737.25
1165.305, 24725.35
1165.787, 24684.14
1166.269, 24633.97
1166.751, 24593.00
1167.233, 24562.29
1167.715, 24560.50
1168.197, 24586.28
1168.679, 24592.22
1169.162, 24524.69
1169.644, 24454.42
1170.126, 24401.06
1170.608, 24376.68
1171.090, 24430.24
1171.572, 24557.63
1172.054, 24607.70
1172.536, 24553.41
1173.019, 24487.69
1173.501, 24466.03
1173.983, 24472.32
1174.465, 24512.17
1174.947, 24570.93
1175.429, 24591.79
1175.911, 24573.55
1176.393, 24542.96
1176.875, 24503.08
1177.358, 24471.61
1177.840, 24477.20
1178.322, 24491.96
1178.804, 24488.31
1179.286, 24465.01
1179.768, 24441.29
1180.250, 24417.37
1180.732, 24392.48
1181.214, 24359.22
1181.697, 24339.42
1182.179, 24375.57
1182.661, 24429.60
1183.143, 24446.54
1183.625, 24408.46
1184.107, 24395.73
1184.589, 24412.68
1185.071, 24426.51
1185.554, 24412.12
1186.036, 24391.30
1186.518, 24402.60
1187.000, 24424.81
1187.482, 24415.19
1187.964, 24344.38
1188.446, 24299.50
1188.928, 24285.90
1189.411, 24278.46
1189.893, 24261.69
1190.375, 24236.91
1190.857, 24193.32
1191.339, 24143.59
1191.821, 24127.55
1192.303, 24175.84
1192.785, 24206.78
1193.267, 24212.64
1193.750, 24204.75
1194.232, 24186.36
1194.714, 24166.05
1195.196, 24155.92
1195.678, 24155.93
1196.160, 24163.26
1196.642, 24187.35
1197.124, 24198.25
1197.606, 24191.59
1198.089, 24169.57
1198.571, 24121.20
1199.053, 24066.31
1199.535, 24039.08
1200.017, 24042.76
1200.499, 24056.33
1200.981, 24090.94
1201.463, 24102.34
1201.945, 24069.80
1202.428, 24029.11
1202.910, 24055.35
1203.392, 24107.88
1203.874, 24104.28
1204.356, 24023.50
1204.838, 23970.72
1205.320, 23968.52
1205.802, 23986.96
1206.285, 24023.07
1206.767, 24062.65
1207.249, 24069.26
1207.731, 24059.93
1208.213, 24073.19
1208.695, 24130.18
1209.177, 24156.45
1209.659, 24129.50
1210.141, 24096.94
1210.624, 24080.05
1211.106, 24073.68
1211.588, 24057.60
1212.070, 24043.99
1212.552, 24066.49
1213.034, 24173.34
1213.516, 24214.12
1213.998, 24144.23
1214.480, 24067.86
1214.963, 24050.04
1215.445, 24071.71
1215.927, 24094.85
1216.409, 24115.29
1216.891, 24121.85
1217.373, 24113.56
1217.855, 24082.26
1218.337, 24010.79
1218.820, 23952.46
1219.302, 23969.12
1219.784, 24023.12
1220.266, 24000.83
1220.748, 23930.41
1221.230, 23902.46
1221.712, 24006.41
1222.194, 24064.90
1222.677, 24042.49
1223.159, 24012.19
1223.641, 24059.21
1224.123, 24143.08
1224.605, 24180.22
1225.087, 24173.53
1225.569, 24148.54
1226.051, 24083.02
1226.533, 24047.74
1227.016, 24058.87
1227.498, 24083.36
1227.980, 24084.14
1228.462, 24072.00
1228.944, 24071.37
1229.426, 24079.88
1229.908, 24071.35
1230.390, 24006.39
1230.872, 23984.08
1231.355, 24029.55
1231.837, 24096.61
1232.319, 24129.50
1232.801, 24141.79
1233.283, 24150.59
1233.765, 24158.53
1234.247, 24178.55
1234.729, 24224.48
1235.212, 24253.47
1235.694, 24252.49
1236.176, 24241.92
1236.658, 24250.79
1237.140, 24267.50
1237.622, 24276.90
1238.104, 24276.68
1238.586, 24263.02
1239.068, 24225.02
1239.551, 24210.29
1240.033, 24240.53
1240.515, 24274.08
1240.997, 24242.83
1241.479, 24186.49
1241.961, 24161.93
1242.443, 24178.87
1242.925, 24177.75
1243.407, 24144.01
1243.890, 24142.75
1244.372, 24205.54
1244.854, 24277.66
1245.336, 24283.76
1245.818, 24255.64
1246.300, 24221.79
1246.782, 24182.01
1247.264, 24193.06
1247.747, 24263.97
1248.229, 24331.29
1248.711, 24373.34
1249.193, 24398.31
1249.675, 24420.40
1250.157, 24429.60
1250.639, 24409.79
1251.121, 24359.95
1251.604, 24308.93
1252.086, 24255.79
1252.568, 24226.12
1253.050, 24235.52
1253.532, 24263.03
1254.014, 24311.13
1254.496, 24351.80
1254.978, 24342.50
1255.460, 24280.88
1255.943, 24261.03
1256.425, 24282.35
1256.907, 24319.84
1257.389, 24370.99
1257.871, 24417.65
1258.353, 24446.76
1258.835, 24462.30
1259.317, 24469.55
1259.799, 24468.53
1260.281, 24455.12
1260.764, 24431.17
1261.246, 24415.73
1261.728, 24426.77
1262.210, 24435.85
1262.692, 24435.66
1263.174, 24420.25
1263.656, 24373.45
1264.138, 24302.63
1264.621, 24302.04
1265.103, 24361.19
1265.585, 24417.12
1266.067, 24441.51
1266.549, 24454.72
1267.031, 24447.43
1267.513, 24448.43
1267.995, 24484.66
1268.478, 24547.68
1268.960, 24598.78
1269.442, 24638.42
1269.924, 24670.43
1270.406, 24690.36
1270.888, 24709.23
1271.370, 24728.52
1271.852, 24745.16
1272.334, 24752.34
1272.817, 24755.39
1273.299, 24770.12
1273.781, 24794.98
1274.263, 24825.71
1274.745, 24873.45
1275.227, 24906.55
1275.709, 24919.87
1276.191, 24931.39
1276.673, 24972.61
1277.156, 25013.38
1277.638, 24987.92
1278.120, 24919.79
1278.602, 24872.86
1279.084, 24866.13
1279.566, 24871.00
1280.048, 24889.86
1280.530, 24905.48
1281.013, 24884.06
1281.495, 24868.30
1281.977, 24921.96
1282.459, 25016.00
1282.941, 25081.09
1283.423, 25114.19
1283.905, 25104.88
1284.387, 25048.28
1284.870, 25005.76
1285.352, 25029.69
1285.834, 25079.91
1286.316, 25149.51
1286.798, 25213.86
1287.280, 25228.77
1287.762, 25190.85
1288.244, 25167.99
1288.726, 25163.44
1289.208, 25171.98
1289.691, 25207.24
1290.173, 25236.11
1290.655, 25232.44
1291.137, 25221.28
1291.619, 25231.66
1292.101, 25258.79
1292.583, 25282.41
1293.065, 25306.10
1293.548, 25323.00
1294.030, 25321.81
1294.512, 25317.31
1294.994, 25307.81
1295.476, 25304.34
1295.958, 25317.64
1296.440, 25341.95
1296.922, 25380.19
1297.405, 25471.22
1297.887, 25568.74
1298.369, 25555.78
1298.851, 25544.80
1299.333, 25537.33
1299.815, 25543.45
1300.297, 25570.76
1300.779, 25619.25
##END=



