##NAMES=Metamunirite
##RRUFFID=R060624
##IDEAL CHEMISTRY=NaV^5+^O_3_
##LOCALITY=Big Gypsum Valley, San Miguel County, Colorado, USA
##OWNER=RRUFF
##SOURCE=Michael Scott
##DESCRIPTION=Tan colored divergent radial spray of bladed crystals
##STATUS=The identification of this mineral is confirmed by single-crystal X-ray diffraction and chemical analysis.
##URL=rruff.info/R060624
##MEASURED CHEMISTRY=(Na_0.98_Ca_0.02_)_Σ=1_(V^5+^_0.99_Al_0.01_)_Σ=1_O_3_
93.30109, 0.0000000E+00
93.78320, 363.7052
94.26532, 360.5661
94.74744, 361.7554
95.22955, 366.4014
95.71167, 373.4163
96.19379, 379.2169
96.67590, 384.4724
97.15802, 389.2165
97.64014, 392.9708
98.12225, 396.2719
98.60437, 400.1957
99.08649, 405.3234
99.56860, 411.1883
100.0507, 416.8567
100.5328, 421.5609
101.0150, 426.2631
101.4971, 431.8004
101.9792, 438.2759
102.4613, 444.7527
102.9434, 450.3857
103.4255, 456.0685
103.9077, 462.5213
104.3898, 469.9902
104.8719, 478.2354
105.3540, 486.8262
105.8361, 495.8980
106.3182, 505.1605
106.8004, 514.0784
107.2825, 523.2417
107.7646, 533.4138
108.2467, 545.1233
108.7288, 558.2238
109.2109, 570.8342
109.6931, 581.3145
110.1752, 593.0133
110.6573, 606.5428
111.1394, 622.0145
111.6215, 639.4249
112.1036, 658.6204
112.5858, 679.9073
113.0679, 703.3470
113.5500, 729.6069
114.0321, 757.1701
114.5142, 785.1924
114.9964, 813.5358
115.4785, 842.0500
115.9606, 870.8972
116.4427, 900.0367
116.9248, 927.4460
117.4069, 952.6745
117.8891, 975.7834
118.3712, 997.1780
118.8533, 1016.832
119.3354, 1034.493
119.8175, 1050.005
120.2996, 1063.566
120.7818, 1076.333
121.2639, 1089.357
121.7460, 1102.689
122.2281, 1114.790
122.7102, 1124.527
123.1923, 1133.413
123.6745, 1141.852
124.1566, 1150.004
124.6387, 1158.126
125.1208, 1166.630
125.6029, 1175.505
126.0850, 1184.840
126.5672, 1193.561
127.0493, 1203.170
127.5314, 1214.703
128.0135, 1228.649
128.4956, 1244.767
128.9777, 1262.814
129.4599, 1281.743
129.9420, 1303.981
130.4241, 1330.793
130.9062, 1360.943
131.3883, 1393.248
131.8704, 1427.662
132.3526, 1463.245
132.8347, 1495.054
133.3168, 1528.613
133.7989, 1554.426
134.2810, 1571.722
134.7632, 1579.301
135.2453, 1571.618
135.7274, 1543.473
136.2095, 1495.119
136.6916, 1436.747
137.1737, 1363.825
137.6559, 1283.815
138.1380, 1201.206
138.6201, 1114.310
139.1022, 1032.344
139.5843, 960.5862
140.0664, 896.8421
140.5486, 840.8959
141.0307, 793.7889
141.5128, 754.0547
141.9949, 718.2109
142.4770, 686.3387
142.9591, 658.7791
143.4413, 635.4158
143.9234, 615.8251
144.4055, 599.1805
144.8876, 585.2754
145.3697, 574.1376
145.8518, 564.2547
146.3340, 556.3856
146.8161, 549.2491
147.2982, 542.5519
147.7803, 536.2814
148.2624, 530.5283
148.7445, 525.2678
149.2267, 520.3260
149.7088, 516.9899
150.1909, 515.9216
150.6730, 515.5209
151.1551, 514.8376
151.6372, 513.7751
152.1194, 512.9521
152.6015, 513.2127
153.0836, 515.2371
153.5657, 516.5223
154.0478, 516.1465
154.5299, 515.4690
155.0121, 515.9413
155.4942, 517.9667
155.9763, 520.7098
156.4584, 523.0827
156.9405, 525.1471
157.4226, 526.7550
157.9048, 527.0785
158.3869, 526.9427
158.8690, 528.2708
159.3511, 532.0645
159.8332, 536.7442
160.3153, 540.4556
160.7975, 543.2162
161.2796, 545.5036
161.7617, 547.5366
162.2438, 549.3306
162.7259, 550.8959
163.2081, 551.8939
163.6902, 552.9621
164.1723, 554.6981
164.6544, 557.1656
165.1365, 559.6765
165.6186, 561.4256
166.1008, 562.2021
166.5829, 563.1448
167.0650, 563.8406
167.5471, 565.1375
168.0292, 567.6270
168.5113, 571.4534
168.9935, 576.3143
169.4756, 581.6152
169.9577, 586.8282
170.4398, 593.7641
170.9219, 602.4327
171.4040, 612.5554
171.8862, 623.7925
172.3683, 636.0377
172.8504, 649.5571
173.3325, 665.1522
173.8146, 683.4332
174.2967, 703.2838
174.7789, 724.9517
175.2610, 748.0861
175.7431, 771.9402
176.2252, 796.3404
176.7073, 821.7225
177.1894, 849.5834
177.6716, 880.5954
178.1537, 912.9679
178.6358, 946.6609
179.1179, 981.5788
179.6000, 1017.987
180.0821, 1055.804
180.5643, 1095.279
181.0464, 1136.803
181.5285, 1180.135
182.0106, 1225.840
182.4927, 1274.979
182.9748, 1327.075
183.4570, 1380.078
183.9391, 1433.325
184.4212, 1486.753
184.9033, 1539.467
185.3854, 1590.731
185.8675, 1642.486
186.3497, 1696.249
186.8318, 1752.044
187.3139, 1809.128
187.7960, 1867.738
188.2781, 1927.448
188.7602, 1987.040
189.2424, 2045.872
189.7245, 2105.962
190.2066, 2170.166
190.6887, 2239.312
191.1708, 2310.145
191.6530, 2382.624
192.1351, 2455.712
192.6172, 2529.127
193.0993, 2602.743
193.5814, 2675.384
194.0635, 2743.790
194.5457, 2806.472
195.0278, 2867.313
195.5099, 2929.437
195.9920, 2989.514
196.4741, 3044.513
196.9562, 3093.103
197.4384, 3135.610
197.9205, 3173.257
198.4026, 3204.679
198.8847, 3231.959
199.3668, 3260.699
199.8489, 3284.126
200.3311, 3295.008
200.8132, 3289.697
201.2953, 3269.268
201.7774, 3238.065
202.2595, 3195.498
202.7416, 3141.187
203.2238, 3071.993
203.7059, 2991.376
204.1880, 2902.407
204.6701, 2806.742
205.1522, 2705.250
205.6343, 2601.886
206.1165, 2492.351
206.5986, 2384.618
207.0807, 2279.195
207.5628, 2176.733
208.0449, 2078.176
208.5270, 1984.073
209.0092, 1894.343
209.4913, 1810.325
209.9734, 1732.306
210.4555, 1658.088
210.9376, 1586.191
211.4197, 1517.495
211.9019, 1453.896
212.3840, 1397.330
212.8661, 1346.972
213.3482, 1299.258
213.8303, 1253.916
214.3124, 1211.539
214.7946, 1173.053
215.2767, 1138.167
215.7588, 1106.351
216.2409, 1077.563
216.7230, 1051.887
217.2052, 1027.961
217.6873, 1005.873
218.1694, 985.6733
218.6515, 967.6841
219.1336, 951.7994
219.6157, 937.0712
220.0979, 922.4617
220.5800, 909.4351
221.0621, 899.7242
221.5442, 893.9550
222.0263, 889.7516
222.5084, 884.5980
222.9906, 878.2556
223.4727, 873.3472
223.9548, 871.4479
224.4369, 870.9725
224.9190, 870.6993
225.4011, 870.3691
225.8833, 870.9460
226.3654, 873.5881
226.8475, 878.4387
227.3296, 884.6472
227.8117, 892.6314
228.2938, 901.5563
228.7760, 910.7542
229.2581, 920.1654
229.7402, 930.3946
230.2223, 942.2414
230.7044, 955.8746
231.1865, 970.8123
231.6687, 986.7227
232.1508, 1003.950
232.6329, 1022.742
233.1150, 1043.224
233.5971, 1065.217
234.0792, 1088.587
234.5614, 1113.525
235.0435, 1139.524
235.5256, 1166.556
236.0077, 1194.487
236.4898, 1223.428
236.9719, 1253.172
237.4541, 1283.333
237.9362, 1313.391
238.4183, 1343.088
238.9004, 1372.916
239.3825, 1402.408
239.8646, 1432.155
240.3468, 1462.687
240.8289, 1494.025
241.3110, 1525.008
241.7931, 1554.477
242.2752, 1581.135
242.7573, 1609.648
243.2395, 1640.266
243.7216, 1672.147
244.2037, 1704.755
244.6858, 1737.975
245.1679, 1772.189
245.6501, 1807.900
246.1322, 1845.490
246.6143, 1883.190
247.0964, 1921.971
247.5785, 1960.283
248.0606, 1996.116
248.5428, 2029.690
249.0249, 2064.610
249.5070, 2104.904
249.9891, 2152.088
250.4712, 2194.442
250.9533, 2231.777
251.4355, 2264.954
251.9176, 2294.444
252.3997, 2320.385
252.8818, 2343.445
253.3639, 2364.753
253.8460, 2383.686
254.3282, 2394.942
254.8103, 2397.668
255.2924, 2393.744
255.7745, 2383.708
256.2566, 2367.790
256.7387, 2347.111
257.2209, 2321.941
257.7030, 2292.123
258.1851, 2259.991
258.6672, 2223.613
259.1493, 2186.612
259.6314, 2151.218
260.1136, 2117.383
260.5957, 2084.345
261.0778, 2050.747
261.5599, 2018.058
262.0420, 1989.007
262.5241, 1964.003
263.0063, 1942.168
263.4884, 1923.226
263.9705, 1907.055
264.4526, 1892.536
264.9347, 1879.041
265.4168, 1867.317
265.8990, 1858.159
266.3811, 1851.669
266.8632, 1847.355
267.3453, 1844.341
267.8274, 1842.864
268.3095, 1845.045
268.7917, 1852.910
269.2738, 1864.027
269.7559, 1874.267
270.2380, 1883.124
270.7201, 1893.600
271.2022, 1908.067
271.6844, 1926.131
272.1665, 1945.398
272.6486, 1965.196
273.1307, 1986.216
273.6128, 2008.860
274.0949, 2033.260
274.5771, 2058.844
275.0592, 2085.082
275.5413, 2112.233
276.0234, 2141.679
276.5055, 2175.246
276.9876, 2209.216
277.4698, 2240.393
277.9519, 2269.249
278.4340, 2298.506
278.9161, 2331.791
279.3982, 2367.362
279.8803, 2397.845
280.3625, 2421.219
280.8446, 2441.355
281.3267, 2460.349
281.8088, 2478.271
282.2909, 2495.515
282.7730, 2513.526
283.2552, 2530.892
283.7373, 2542.792
284.2194, 2548.203
284.7015, 2549.568
285.1836, 2549.344
285.6658, 2546.253
286.1479, 2538.146
286.6300, 2524.035
287.1121, 2504.400
287.5942, 2479.799
288.0764, 2448.894
288.5585, 2415.906
289.0406, 2382.751
289.5227, 2348.468
290.0048, 2312.168
290.4869, 2273.067
290.9691, 2232.108
291.4512, 2190.470
291.9333, 2148.080
292.4154, 2105.478
292.8975, 2065.226
293.3796, 2023.566
293.8618, 1977.578
294.3439, 1926.502
294.8260, 1871.970
295.3081, 1816.302
295.7902, 1760.126
296.2723, 1700.219
296.7545, 1634.256
297.2366, 1565.524
297.7187, 1495.137
298.2008, 1423.546
298.6829, 1351.593
299.1650, 1280.057
299.6472, 1208.360
300.1293, 1140.841
300.6114, 1079.772
301.0935, 1021.951
301.5756, 965.8056
302.0577, 911.8427
302.5399, 861.0622
303.0220, 814.4863
303.5041, 772.1707
303.9862, 733.5760
304.4683, 700.0290
304.9504, 669.1141
305.4326, 640.3438
305.9147, 613.3592
306.3968, 587.4919
306.8789, 562.1041
307.3610, 537.6390
307.8431, 516.7244
308.3253, 501.4496
308.8074, 486.6794
309.2895, 470.6528
309.7716, 454.2935
310.2537, 438.9594
310.7358, 425.2111
311.2180, 412.5172
311.7001, 399.7421
312.1822, 386.2451
312.6643, 373.9186
313.1464, 363.5391
313.6285, 354.0066
314.1107, 344.3910
314.5928, 334.4465
315.0749, 324.5632
315.5570, 315.3477
316.0391, 306.8981
316.5212, 298.7927
317.0034, 290.6772
317.4855, 283.0797
317.9676, 276.4407
318.4497, 270.7361
318.9318, 265.5497
319.4139, 260.6919
319.8961, 256.2718
320.3782, 251.1769
320.8603, 244.0235
321.3424, 237.5367
321.8245, 233.0843
322.3066, 230.1788
322.7888, 227.4582
323.2709, 223.9745
323.7530, 219.8385
324.2351, 215.9609
324.7172, 212.2730
325.1993, 208.9766
325.6815, 206.3547
326.1636, 204.0385
326.6457, 201.4302
327.1278, 198.1820
327.6099, 194.6626
328.0920, 191.7557
328.5742, 189.6258
329.0563, 187.7822
329.5384, 186.5113
330.0205, 185.2182
330.5026, 183.2158
330.9847, 180.3058
331.4669, 177.2586
331.9490, 175.3109
332.4311, 174.8299
332.9132, 173.8346
333.3953, 171.1387
333.8774, 168.5079
334.3596, 167.1638
334.8417, 167.0417
335.3238, 166.9726
335.8059, 165.8073
336.2880, 163.5280
336.7701, 161.3431
337.2523, 159.0150
337.7344, 157.1220
338.2165, 156.1463
338.6986, 155.7859
339.1807, 155.3163
339.6628, 154.1985
340.1450, 152.6580
340.6271, 151.5966
341.1092, 151.3509
341.5913, 150.9359
342.0735, 149.7722
342.5556, 148.3149
343.0377, 147.1534
343.5198, 146.5691
344.0019, 146.1712
344.4840, 145.2196
344.9662, 143.4942
345.4483, 142.1558
345.9304, 141.9448
346.4125, 142.0372
346.8946, 141.8995
347.3767, 141.4437
347.8589, 140.8699
348.3410, 140.3938
348.8231, 140.0073
349.3052, 139.4478
349.7873, 138.4782
350.2694, 137.5545
350.7516, 137.0854
351.2337, 136.9629
351.7158, 136.7290
352.1979, 136.0083
352.6800, 134.9554
353.1621, 134.0821
353.6443, 133.4264
354.1264, 132.8866
354.6085, 132.5249
355.0906, 132.2132
355.5727, 131.7240
356.0548, 130.8763
356.5370, 129.9483
357.0191, 129.3119
357.5012, 128.9866
357.9833, 128.7716
358.4654, 128.5942
358.9475, 128.4943
359.4297, 128.5696
359.9118, 128.8854
360.3939, 129.1078
360.8760, 128.9134
361.3581, 128.3835
361.8402, 127.9164
362.3224, 127.5772
362.8045, 127.3745
363.2866, 127.4447
363.7687, 127.7442
364.2508, 127.7643
364.7329, 126.9871
365.2151, 125.9013
365.6972, 125.3914
366.1793, 125.6033
366.6614, 125.9427
367.1435, 126.0085
367.6256, 125.8475
368.1078, 125.6044
368.5899, 125.0876
369.0720, 124.6682
369.5541, 124.7009
370.0362, 125.1357
370.5183, 125.6472
371.0005, 126.1023
371.4826, 126.5284
371.9647, 127.0032
372.4468, 127.5764
372.9289, 128.0682
373.4110, 128.3332
373.8932, 128.4826
374.3753, 128.7140
374.8574, 129.0807
375.3395, 129.5231
375.8216, 130.0057
376.3037, 130.5502
376.7859, 130.9111
377.2680, 131.0366
377.7501, 130.9867
378.2322, 130.6204
378.7143, 130.0174
379.1964, 129.7672
379.6786, 130.4563
380.1607, 131.9379
380.6428, 132.5539
381.1249, 131.6331
381.6070, 130.7224
382.0891, 130.3388
382.5713, 130.3521
383.0534, 130.4552
383.5355, 130.5057
384.0176, 130.6656
384.4997, 131.3195
384.9818, 133.2050
385.4640, 134.3609
385.9461, 134.0509
386.4282, 133.4242
386.9103, 133.5149
387.3924, 134.4360
387.8745, 135.5689
388.3567, 136.1988
388.8388, 136.1696
389.3209, 136.7981
389.8030, 138.5915
390.2851, 140.4156
390.7672, 141.9316
391.2494, 143.1416
391.7315, 144.0800
392.2136, 144.7407
392.6957, 145.2466
393.1778, 146.0613
393.6599, 147.3347
394.1421, 148.7394
394.6242, 150.2431
395.1063, 151.8607
395.5884, 153.5877
396.0706, 155.4323
396.5527, 157.3906
397.0348, 159.4999
397.5169, 161.7958
397.9990, 164.0525
398.4811, 166.0042
398.9633, 168.1430
399.4454, 170.6118
399.9275, 173.4347
400.4096, 176.6539
400.8917, 180.3205
401.3738, 184.3777
401.8560, 188.6005
402.3381, 193.0506
402.8202, 197.5485
403.3023, 201.7060
403.7844, 206.0513
404.2665, 211.0945
404.7487, 216.9776
405.2308, 223.6844
405.7129, 231.1602
406.1950, 239.4515
406.6771, 248.4161
407.1592, 257.4902
407.6414, 267.8806
408.1235, 280.3634
408.6056, 294.8131
409.0877, 310.4877
409.5698, 326.2592
410.0519, 342.9747
410.5341, 362.9019
411.0162, 386.2643
411.4983, 411.8622
411.9804, 438.6281
412.4625, 467.2978
412.9446, 499.2858
413.4268, 535.9823
413.9089, 574.0422
414.3910, 611.0169
414.8731, 647.0049
415.3552, 682.6393
415.8373, 718.4454
416.3195, 753.4022
416.8016, 785.4767
417.2837, 814.5589
417.7658, 844.1132
418.2479, 874.4047
418.7300, 905.9561
419.2122, 939.0341
419.6943, 973.7654
420.1764, 1011.706
420.6585, 1054.079
421.1406, 1100.977
421.6227, 1149.464
422.1049, 1198.401
422.5870, 1250.441
423.0691, 1307.060
423.5512, 1367.365
424.0333, 1430.241
424.5154, 1494.928
424.9976, 1561.787
425.4797, 1630.900
425.9618, 1702.373
426.4439, 1776.246
426.9260, 1857.212
427.4081, 1937.212
427.8903, 2013.791
428.3724, 2084.957
428.8545, 2147.159
429.3366, 2198.955
429.8187, 2240.020
430.3008, 2257.635
430.7830, 2249.855
431.2651, 2217.621
431.7472, 2156.711
432.2293, 2072.632
432.7114, 1968.847
433.1935, 1847.316
433.6757, 1715.641
434.1578, 1585.394
434.6399, 1455.204
435.1220, 1332.467
435.6041, 1217.249
436.0862, 1111.241
436.5684, 1015.318
437.0505, 929.8134
437.5326, 854.7137
438.0147, 791.6891
438.4968, 739.0447
438.9789, 691.2680
439.4611, 649.0709
439.9432, 610.1416
440.4253, 573.4144
440.9074, 539.2216
441.3895, 508.5060
441.8716, 481.5505
442.3538, 456.9200
442.8359, 433.7301
443.3180, 411.8188
443.8001, 391.4193
444.2822, 372.5684
444.7643, 355.0691
445.2465, 338.9776
445.7286, 323.9834
446.2107, 309.6472
446.6928, 295.9261
447.1749, 282.7250
447.6570, 269.9684
448.1392, 257.7011
448.6213, 246.1148
449.1034, 235.4165
449.5855, 225.4675
450.0677, 215.8095
450.5498, 206.0241
451.0319, 197.2940
451.5140, 190.6355
451.9961, 184.8894
452.4782, 178.5341
452.9604, 171.3156
453.4425, 164.3040
453.9246, 158.6632
454.4067, 154.5576
454.8888, 150.1370
455.3709, 144.7889
455.8531, 139.8689
456.3352, 135.9595
456.8173, 132.8033
457.2994, 129.9281
457.7815, 127.1295
458.2636, 124.4405
458.7458, 121.9435
459.2279, 119.8124
459.7100, 117.4974
460.1921, 114.4851
460.6742, 111.7207
461.1563, 109.9380
461.6385, 108.9679
462.1206, 108.0490
462.6027, 106.5547
463.0848, 104.6309
463.5669, 103.0231
464.0490, 101.7584
464.5312, 100.7876
465.0133, 100.4687
465.4954, 100.2293
465.9775, 99.44531
466.4596, 97.94698
466.9417, 96.20632
467.4239, 94.45618
467.9060, 92.76657
468.3881, 91.68423
468.8702, 91.56837
469.3523, 91.51747
469.8344, 90.58627
470.3166, 89.08077
470.7987, 87.89962
471.2808, 87.53385
471.7629, 87.37569
472.2450, 86.83181
472.7271, 85.99184
473.2093, 85.35104
473.6914, 85.17933
474.1735, 85.20007
474.6556, 84.82119
475.1377, 83.87376
475.6198, 83.16238
476.1020, 82.97120
476.5841, 82.95072
477.0662, 82.76399
477.5483, 82.41315
478.0304, 82.15627
478.5125, 82.22561
478.9947, 82.55445
479.4768, 82.55420
479.9589, 81.97258
480.4410, 81.35945
480.9231, 80.65771
481.4052, 80.02196
481.8874, 79.63238
482.3695, 79.51902
482.8516, 79.55221
483.3337, 79.60880
483.8158, 79.70756
484.2979, 79.66370
484.7801, 79.29782
485.2622, 78.99069
485.7443, 78.88545
486.2264, 78.92175
486.7085, 78.98915
487.1906, 79.03341
487.6728, 79.12194
488.1549, 79.33313
488.6370, 79.66482
489.1191, 80.24097
489.6012, 81.57775
490.0833, 82.58963
490.5655, 82.08205
491.0476, 80.28728
491.5297, 78.81211
492.0118, 78.51717
492.4939, 78.76743
492.9760, 78.73695
493.4582, 78.42848
493.9403, 78.31547
494.4224, 78.69987
494.9045, 79.37998
495.3866, 79.85350
495.8687, 80.13380
496.3509, 80.24008
496.8330, 79.90218
497.3151, 79.54823
497.7972, 79.78137
498.2793, 80.58567
498.7614, 81.29996
499.2436, 81.31309
499.7257, 80.67955
500.2078, 80.40551
500.6899, 80.86311
501.1720, 81.23104
501.6541, 81.16640
502.1363, 81.05319
502.6184, 81.43934
503.1005, 82.41134
503.5826, 83.40984
504.0647, 83.63439
504.5468, 82.96726
505.0290, 82.72302
505.5111, 83.17166
505.9932, 83.73123
506.4753, 84.29935
506.9575, 84.78757
507.4396, 84.99337
507.9217, 84.74342
508.4038, 84.52180
508.8859, 85.00860
509.3680, 86.16512
509.8502, 87.30383
510.3323, 88.38976
510.8144, 89.23621
511.2965, 89.43415
511.7786, 89.13381
512.2607, 89.21940
512.7429, 90.19530
513.2250, 91.41499
513.7071, 92.42102
514.1892, 93.20538
514.6713, 93.76696
515.1534, 94.05671
515.6356, 94.27425
516.1177, 94.81693
516.5998, 95.82372
517.0819, 96.88558
517.5640, 97.98000
518.0461, 99.13782
518.5283, 100.4841
519.0104, 101.9303
519.4925, 103.1432
519.9746, 103.8554
520.4567, 104.3098
520.9388, 105.4941
521.4210, 108.1395
521.9031, 110.1328
522.3852, 110.6353
522.8673, 110.9394
523.3494, 111.9238
523.8315, 113.6331
524.3137, 115.6334
524.7958, 117.6555
525.2779, 119.6891
525.7600, 121.5885
526.2421, 123.2268
526.7242, 125.1960
527.2064, 127.9556
527.6885, 131.0942
528.1706, 134.0734
528.6527, 136.7916
529.1348, 139.6771
529.6169, 142.7949
530.0991, 146.2879
530.5812, 150.5216
531.0633, 155.5298
531.5454, 160.7551
532.0275, 165.8000
532.5096, 170.7178
532.9918, 175.7657
533.4739, 180.5615
533.9560, 185.9065
534.4381, 192.0842
534.9202, 198.8266
535.4023, 205.7279
535.8845, 212.7576
536.3666, 220.4386
536.8487, 229.2612
537.3308, 239.2376
537.8129, 249.7589
538.2950, 261.1335
538.7772, 272.7145
539.2593, 283.9751
539.7414, 295.5268
540.2235, 308.2438
540.7056, 322.2838
541.1877, 336.5422
541.6699, 349.6735
542.1520, 361.8925
542.6341, 374.9334
543.1162, 388.9512
543.5983, 403.6444
544.0804, 419.1561
544.5626, 435.0775
545.0447, 450.6494
545.5268, 465.5444
546.0089, 480.4467
546.4910, 495.6735
546.9731, 511.2955
547.4553, 527.2529
547.9374, 543.6710
548.4195, 560.7313
548.9016, 578.8705
549.3837, 598.2017
549.8658, 616.0813
550.3480, 631.7382
550.8301, 647.2306
551.3122, 663.8742
551.7943, 680.2771
552.2764, 694.7233
552.7585, 706.7467
553.2407, 717.2055
553.7228, 727.5087
554.2049, 737.8821
554.6870, 743.9340
555.1691, 745.2408
555.6512, 742.4251
556.1334, 735.7701
556.6155, 725.6731
557.0976, 712.4398
557.5797, 696.0677
558.0618, 677.2135
558.5439, 656.3190
559.0261, 633.4559
559.5082, 608.1324
559.9903, 579.9999
560.4724, 551.1310
560.9545, 522.6927
561.4366, 494.9124
561.9188, 468.0136
562.4009, 441.8833
562.8830, 416.9493
563.3651, 392.9820
563.8472, 370.3650
564.3293, 349.6537
564.8115, 330.9241
565.2936, 313.7198
565.7757, 297.6639
566.2578, 282.6990
566.7399, 268.6206
567.2220, 255.1736
567.7042, 243.0262
568.1863, 232.9883
568.6684, 223.9575
569.1505, 214.7183
569.6326, 205.1227
570.1147, 196.1988
570.5969, 189.3732
571.0790, 184.2814
571.5611, 178.5968
572.0432, 171.9410
572.5253, 165.6737
573.0074, 160.5421
573.4896, 156.2368
573.9717, 152.2870
574.4538, 148.7452
574.9359, 145.3433
575.4180, 142.0424
575.9001, 138.7666
576.3823, 135.3701
576.8644, 131.8432
577.3465, 128.3514
577.8286, 124.9442
578.3107, 121.7123
578.7928, 119.1083
579.2750, 117.8564
579.7571, 116.2881
580.2392, 114.1052
580.7213, 111.7473
581.2034, 109.4436
581.6855, 107.2898
582.1677, 105.3373
582.6498, 103.6214
583.1319, 102.1575
583.6140, 101.1184
584.0961, 100.6878
584.5782, 100.0309
585.0604, 98.67213
585.5425, 97.18457
586.0246, 96.10642
586.5067, 95.41254
586.9889, 94.63268
587.4710, 93.37638
587.9531, 92.05058
588.4352, 91.18453
588.9174, 90.71878
589.3995, 90.20857
589.8816, 89.42779
590.3637, 88.62620
590.8458, 88.28631
591.3279, 88.75590
591.8101, 88.66847
592.2922, 87.48417
592.7743, 86.28340
593.2564, 85.61826
593.7385, 85.37119
594.2206, 85.32803
594.7028, 85.39663
595.1849, 85.34061
595.6670, 84.59969
596.1491, 83.00305
596.6312, 82.01589
597.1133, 82.02927
597.5955, 82.28873
598.0776, 81.98959
598.5597, 81.68554
599.0418, 82.72105
599.5239, 86.34660
600.0060, 89.33215
600.4882, 88.42535
600.9703, 84.99857
601.4524, 82.30871
601.9345, 80.98093
602.4166, 80.39319
602.8987, 80.10526
603.3809, 80.10062
603.8630, 80.16147
604.3451, 80.17074
604.8272, 80.38351
605.3093, 81.15634
605.7914, 81.96265
606.2736, 82.20451
606.7557, 81.87230
607.2378, 81.49921
607.7199, 81.59782
608.2020, 82.00725
608.6841, 81.84480
609.1663, 80.82722
609.6484, 80.05995
610.1305, 80.10567
610.6126, 80.37370
611.0947, 80.32281
611.5768, 79.95106
612.0590, 79.69250
612.5411, 79.79689
613.0232, 80.06273
613.5053, 80.31335
613.9874, 80.53114
614.4695, 80.66023
614.9517, 80.66640
615.4338, 80.62781
615.9159, 80.69788
616.3980, 80.99354
616.8801, 80.97523
617.3622, 80.22553
617.8444, 79.63972
618.3265, 79.74522
618.8086, 80.21817
619.2907, 80.50206
619.7728, 80.39773
620.2549, 80.21667
620.7371, 80.45780
621.2192, 81.09115
621.7013, 81.30260
622.1834, 80.87940
622.6655, 80.42667
623.1476, 80.28130
623.6298, 80.33669
624.1119, 80.43184
624.5940, 80.55167
625.0761, 80.71432
625.5582, 81.16192
626.0403, 81.52910
626.5225, 81.12891
627.0046, 80.05620
627.4867, 79.25182
627.9688, 79.34163
628.4509, 80.07567
628.9330, 80.65734
629.4152, 81.15932
629.8973, 81.35477
630.3794, 81.08172
630.8615, 80.68953
631.3436, 80.27109
631.8257, 79.90077
632.3079, 79.67951
632.7900, 79.63390
633.2721, 79.81673
633.7542, 80.49870
634.2363, 81.58778
634.7184, 82.18665
635.2006, 82.04638
635.6827, 81.60990
636.1648, 81.15506
636.6469, 80.71387
637.1290, 80.47781
637.6111, 80.77229
638.0933, 80.87868
638.5754, 80.48429
639.0575, 79.82534
639.5396, 79.02596
640.0217, 78.19710
640.5038, 77.65751
640.9860, 77.72198
641.4681, 78.23425
641.9502, 78.41058
642.4323, 78.12956
642.9144, 77.81454
643.3965, 77.44106
643.8787, 77.15257
644.3608, 77.09830
644.8429, 77.23724
645.3250, 77.35378
645.8071, 77.38737
646.2892, 77.33331
646.7714, 77.11430
647.2535, 76.79764
647.7356, 76.66846
648.2177, 76.83045
648.6998, 76.92110
649.1819, 76.47803
649.6641, 75.45667
650.1462, 74.81702
650.6283, 74.82298
651.1104, 74.85912
651.5925, 74.79646
652.0746, 74.71189
652.5568, 74.71623
653.0389, 74.80602
653.5210, 74.85045
654.0031, 74.73528
654.4852, 74.49985
654.9673, 74.19754
655.4495, 73.80496
655.9316, 73.62364
656.4137, 73.82985
656.8958, 74.19849
657.3779, 74.45790
657.8600, 74.61266
658.3422, 74.72805
658.8243, 74.74379
659.3064, 74.79231
659.7885, 75.05596
660.2706, 75.36704
660.7527, 75.37054
661.2349, 74.99889
661.7170, 74.64908
662.1991, 74.82771
662.6812, 75.50111
663.1633, 75.81784
663.6454, 75.51494
664.1276, 75.37907
664.6097, 75.94953
665.0918, 76.61050
665.5739, 76.72480
666.0560, 76.27945
666.5381, 75.98413
667.0203, 76.24597
667.5024, 76.74812
667.9845, 77.22092
668.4666, 77.64531
668.9487, 78.00498
669.4308, 78.29275
669.9130, 78.51201
670.3951, 78.66194
670.8772, 78.73320
671.3593, 78.81461
671.8414, 78.88211
672.3235, 78.99165
672.8057, 79.04752
673.2878, 79.21467
673.7699, 79.74810
674.2520, 80.64687
674.7341, 81.52840
675.2162, 81.99760
675.6984, 82.28630
676.1805, 82.92870
676.6626, 83.91224
677.1447, 84.78554
677.6268, 85.36142
678.1089, 85.80717
678.5911, 86.39207
679.0732, 87.19652
679.5553, 87.63313
680.0374, 87.14371
680.5195, 86.93777
681.0016, 87.65707
681.4838, 88.82700
681.9659, 89.89224
682.4480, 90.69801
682.9301, 91.33469
683.4122, 91.78751
683.8943, 92.15738
684.3765, 92.95238
684.8586, 94.26771
685.3407, 95.39957
685.8228, 95.97776
686.3049, 96.41310
686.7870, 97.24616
687.2692, 98.45755
687.7513, 99.67332
688.2334, 100.8200
688.7155, 101.9762
689.1976, 103.2290
689.6797, 104.4953
690.1619, 105.5804
690.6440, 106.4768
691.1261, 107.5048
691.6082, 109.0715
692.0903, 111.0474
692.5724, 112.4267
693.0546, 112.9212
693.5367, 113.6424
694.0188, 114.8503
694.5009, 116.4640
694.9830, 118.5701
695.4651, 121.0774
695.9473, 123.3258
696.4294, 124.8657
696.9116, 126.3460
697.3937, 128.0583
697.8758, 130.0713
698.3579, 132.6402
698.8400, 135.7582
699.3221, 138.8967
699.8043, 141.5034
700.2864, 143.6789
700.7685, 146.1764
701.2506, 148.9771
701.7327, 152.1373
702.2148, 156.0666
702.6970, 160.0080
703.1791, 163.2835
703.6612, 166.0833
704.1433, 169.3125
704.6254, 173.2700
705.1075, 177.7662
705.5897, 182.6673
706.0718, 187.9760
706.5539, 193.6017
707.0360, 199.5643
707.5181, 206.0442
708.0002, 213.2939
708.4824, 221.1472
708.9645, 228.7796
709.4466, 235.8235
709.9287, 243.4280
710.4108, 251.3493
710.8929, 260.1613
711.3751, 270.2334
711.8572, 281.5029
712.3393, 293.5941
712.8214, 306.4520
713.3035, 320.0138
713.7856, 334.2992
714.2678, 349.1841
714.7499, 364.5161
715.2320, 380.2256
715.7141, 397.1010
716.1962, 415.6371
716.6783, 435.5005
717.1605, 455.6669
717.6426, 476.1007
718.1247, 496.7692
718.6068, 516.6860
719.0889, 537.7532
719.5710, 561.3577
720.0532, 586.6358
720.5353, 612.0330
721.0174, 637.0041
721.4995, 662.7310
721.9816, 690.7602
722.4637, 720.1329
722.9459, 749.1818
723.4280, 777.8367
723.9101, 806.1280
724.3922, 834.2723
724.8743, 862.3614
725.3564, 890.5513
725.8386, 919.2916
726.3207, 946.7891
726.8028, 973.2045
727.2849, 998.5241
727.7670, 1023.821
728.2491, 1047.593
728.7313, 1068.156
729.2134, 1085.340
729.6955, 1099.566
730.1776, 1111.322
730.6597, 1120.265
731.1418, 1126.550
731.6240, 1129.777
732.1061, 1127.621
732.5882, 1119.179
733.0703, 1105.730
733.5524, 1088.667
734.0345, 1067.973
734.5167, 1044.179
734.9988, 1015.943
735.4809, 986.1424
735.9630, 954.7380
736.4451, 922.5215
736.9272, 889.6346
737.4094, 856.4788
737.8915, 823.4860
738.3736, 790.8452
738.8557, 758.8742
739.3378, 727.6033
739.8199, 697.0732
740.3021, 666.7042
740.7842, 636.3944
741.2663, 607.7986
741.7484, 582.2645
742.2305, 559.3174
742.7126, 536.9053
743.1948, 514.7814
743.6769, 493.6423
744.1590, 473.5888
744.6411, 454.4780
745.1232, 436.4944
745.6053, 419.4524
746.0875, 402.9732
746.5696, 387.0373
747.0517, 371.6177
747.5338, 356.7035
748.0159, 342.4537
748.4980, 329.4613
748.9802, 317.5971
749.4623, 306.0177
749.9444, 294.1022
750.4265, 282.6351
750.9086, 273.1515
751.3907, 266.2069
751.8729, 258.6155
752.3550, 249.3237
752.8371, 240.6941
753.3192, 233.8345
753.8013, 227.7533
754.2834, 221.3769
754.7656, 214.5466
755.2477, 207.8783
755.7298, 201.5460
756.2119, 195.5588
756.6940, 189.8622
757.1761, 184.5256
757.6583, 179.8309
758.1404, 175.8119
758.6225, 171.9505
759.1046, 167.6278
759.5867, 163.0337
760.0688, 159.4083
760.5510, 157.2706
761.0331, 154.7630
761.5152, 151.0958
761.9973, 147.3955
762.4794, 144.5970
762.9615, 142.4407
763.4437, 140.0555
763.9258, 137.0502
764.4079, 134.1781
764.8900, 131.8761
765.3721, 129.8635
765.8542, 127.8783
766.3364, 125.8715
766.8185, 123.6353
767.3006, 121.0000
767.7827, 118.8082
768.2648, 119.3106
768.7469, 122.7054
769.2291, 122.8311
769.7112, 118.0447
770.1933, 113.7158
770.6754, 112.9518
771.1575, 113.8136
771.6396, 112.9882
772.1218, 110.2478
772.6039, 107.6111
773.0860, 104.8621
773.5681, 102.8715
774.0502, 102.4808
774.5323, 102.9599
775.0145, 103.6750
775.4966, 104.2634
775.9787, 103.8744
776.4608, 101.4563
776.9429, 97.90272
777.4250, 95.23732
777.9072, 93.45437
778.3893, 92.23564
778.8714, 91.59721
779.3535, 91.17903
779.8356, 90.72588
780.3177, 90.22340
780.7999, 89.58154
781.2820, 88.73026
781.7641, 87.83699
782.2462, 86.78028
782.7283, 85.79892
783.2104, 84.78123
783.6926, 84.01226
784.1747, 83.98664
784.6568, 84.87611
785.1389, 86.54337
785.6210, 90.55257
786.1031, 94.60964
786.5853, 93.12428
787.0674, 86.62983
787.5495, 81.02645
788.0316, 78.88191
788.5137, 78.75371
788.9958, 78.73960
789.4780, 78.85928
789.9601, 78.79436
790.4422, 78.28008
790.9243, 78.01183
791.4064, 78.61390
791.8885, 79.15809
792.3707, 78.75024
792.8528, 77.53095
793.3349, 76.49722
793.8170, 76.11140
794.2991, 75.80147
794.7813, 75.08830
795.2634, 74.29646
795.7455, 73.90713
796.2276, 73.92504
796.7097, 74.09618
797.1918, 74.29448
797.6740, 74.35491
798.1561, 73.88890
798.6382, 72.87392
799.1203, 71.87512
799.6024, 70.80457
800.0845, 70.09084
800.5667, 70.03690
801.0488, 70.39610
801.5309, 70.85951
802.0130, 71.54846
802.4951, 71.63724
802.9772, 70.54674
803.4594, 69.42532
803.9415, 68.73675
804.4236, 68.30409
804.9057, 67.91580
805.3878, 67.53394
805.8699, 67.23686
806.3521, 67.13863
806.8342, 67.06684
807.3163, 66.76487
807.7985, 66.26054
808.2806, 65.59145
808.7627, 64.75948
809.2448, 64.10944
809.7269, 63.92006
810.2090, 64.03384
810.6912, 63.96018
811.1733, 63.59412
811.6554, 63.29354
812.1375, 63.25430
812.6196, 63.05023
813.1017, 62.29861
813.5839, 61.39993
814.0660, 60.97827
814.5481, 61.13461
815.0302, 61.10121
815.5123, 60.17268
815.9944, 59.29100
816.4766, 59.47762
816.9587, 60.16880
817.4408, 60.23181
817.9229, 59.48466
818.4050, 58.67419
818.8871, 58.43593
819.3693, 58.54683
819.8514, 58.36562
820.3335, 57.87404
820.8156, 57.54234
821.2977, 57.45893
821.7798, 57.50204
822.2620, 57.65294
822.7441, 57.84231
823.2262, 57.85560
823.7083, 57.58100
824.1904, 57.39048
824.6725, 57.39829
825.1547, 57.37575
825.6368, 57.20998
826.1189, 56.95713
826.6010, 56.64014
827.0831, 56.28716
827.5652, 56.08162
828.0474, 56.28752
828.5295, 56.58976
829.0116, 56.56799
829.4937, 56.34229
829.9758, 56.22142
830.4579, 56.26955
830.9401, 56.38686
831.4222, 56.50806
831.9043, 56.61052
832.3864, 56.61303
832.8685, 56.48949
833.3506, 56.39225
833.8328, 56.31604
834.3149, 56.30035
834.7970, 56.41888
835.2791, 56.58767
835.7612, 56.67976
836.2433, 56.71128
836.7255, 56.57258
837.2076, 55.89503
837.6897, 55.43882
838.1718, 55.74743
838.6539, 56.38379
839.1360, 56.87424
839.6182, 57.11466
840.1003, 57.15393
840.5824, 56.95233
841.0645, 56.68970
841.5466, 56.61209
842.0287, 56.67873
842.5109, 56.74783
842.9930, 56.80345
843.4751, 56.98677
843.9572, 57.42242
844.4393, 57.87801
844.9214, 57.74641
845.4036, 56.76551
845.8857, 56.57921
846.3678, 57.66702
846.8499, 58.70311
847.3320, 59.33001
847.8141, 59.57887
848.2963, 59.37711
848.7784, 58.75258
849.2605, 58.20825
849.7426, 57.71216
850.2247, 57.46905
850.7068, 57.76914
851.1890, 58.20971
851.6711, 58.34874
852.1532, 58.24203
852.6353, 58.25902
853.1174, 58.60456
853.5995, 58.93520
854.0817, 58.78290
854.5638, 58.32710
855.0459, 58.10575
855.5280, 58.10689
856.0101, 57.77875
856.4922, 56.84056
856.9744, 56.05381
857.4565, 56.52259
857.9386, 58.17641
858.4207, 58.89619
858.9028, 58.11137
859.3849, 57.78456
859.8671, 58.67182
860.3492, 59.70528
860.8313, 60.17637
861.3134, 60.17714
861.7955, 59.89075
862.2776, 59.06848
862.7598, 58.58265
863.2419, 58.88142
863.7240, 59.37045
864.2061, 59.65579
864.6882, 59.84581
865.1703, 60.19188
865.6525, 60.74864
866.1346, 61.33103
866.6167, 61.72888
867.0988, 62.12164
867.5809, 62.69904
868.0630, 63.51064
868.5452, 64.87678
869.0273, 66.82413
869.5094, 68.55433
869.9915, 69.41785
870.4736, 69.88756
870.9557, 71.19214
871.4379, 73.43189
871.9200, 75.95076
872.4021, 78.62331
872.8842, 81.81828
873.3663, 85.84509
873.8484, 90.37650
874.3306, 94.89818
874.8127, 99.40291
875.2948, 104.1603
875.7769, 109.3239
876.2590, 114.5405
876.7411, 119.8159
877.2233, 124.9755
877.7054, 129.7560
878.1875, 134.2527
878.6696, 138.7578
879.1517, 143.2593
879.6339, 148.2302
880.1160, 153.9790
880.5981, 160.4462
881.0802, 167.4841
881.5623, 175.2148
882.0444, 184.0968
882.5266, 194.2521
883.0087, 205.6081
883.4908, 218.1479
883.9729, 231.7566
884.4550, 245.9321
884.9371, 260.6553
885.4193, 275.6253
885.9014, 291.2099
886.3835, 305.7694
886.8656, 319.1974
887.3477, 329.9672
887.8298, 334.0528
888.3120, 331.1087
888.7941, 322.3072
889.2762, 306.2388
889.7583, 286.0159
890.2404, 259.4686
890.7225, 231.3196
891.2047, 205.3216
891.6868, 182.0623
892.1689, 162.1194
892.6510, 145.9539
893.1331, 132.7995
893.6152, 122.6389
894.0974, 114.9518
894.5795, 109.5895
895.0616, 106.1278
895.5437, 103.8061
896.0258, 102.2862
896.5079, 101.6414
896.9901, 102.1618
897.4722, 103.5389
897.9543, 105.1677
898.4364, 106.9993
898.9185, 108.9738
899.4006, 111.0667
899.8828, 112.8675
900.3649, 113.9334
900.8470, 114.5776
901.3291, 115.9969
901.8112, 118.3331
902.2933, 120.7107
902.7755, 122.9532
903.2576, 125.4763
903.7397, 128.4657
904.2218, 131.8581
904.7039, 135.5072
905.1860, 139.3472
905.6682, 143.8764
906.1503, 149.1075
906.6324, 155.0142
907.1145, 162.0063
907.5966, 169.3444
908.0787, 176.9113
908.5609, 184.2915
909.0430, 190.7416
909.5251, 196.3576
910.0072, 199.7064
910.4893, 200.2565
910.9714, 197.8654
911.4536, 191.6353
911.9357, 182.5684
912.4178, 172.0752
912.8999, 160.7945
913.3820, 149.8825
913.8641, 140.0197
914.3463, 131.5080
914.8284, 125.0532
915.3105, 120.4831
915.7926, 117.1102
916.2748, 114.8433
916.7569, 113.2423
917.2390, 112.0856
917.7211, 111.3807
918.2032, 111.1054
918.6854, 111.2541
919.1675, 112.1383
919.6496, 114.0113
920.1317, 115.8314
920.6138, 117.3378
921.0959, 118.7235
921.5781, 120.1007
922.0602, 121.4971
922.5423, 123.0495
923.0244, 124.8165
923.5065, 126.6372
923.9886, 128.4066
924.4708, 130.3404
924.9529, 132.4189
925.4350, 134.7827
925.9171, 137.5969
926.3992, 140.8637
926.8813, 144.4662
927.3635, 147.9737
927.8456, 152.2627
928.3277, 157.6807
928.8098, 164.2529
929.2919, 171.5871
929.7740, 180.1394
930.2562, 190.8947
930.7383, 204.2111
931.2204, 220.9872
931.7025, 242.5419
932.1846, 267.9424
932.6667, 296.4338
933.1489, 327.1832
933.6310, 357.5341
934.1131, 386.6683
934.5952, 412.6781
935.0773, 433.8090
935.5594, 452.1161
936.0416, 471.0578
936.5237, 490.6293
937.0058, 514.5113
937.4879, 542.8209
937.9700, 575.6690
938.4521, 613.1270
938.9343, 655.1663
939.4164, 701.9337
939.8985, 753.4443
940.3806, 809.9714
940.8627, 870.1716
941.3448, 937.7496
941.8270, 1011.950
942.3091, 1094.934
942.7912, 1192.866
943.2733, 1297.275
943.7554, 1400.578
944.2375, 1505.914
944.7197, 1578.150
945.2018, 1624.887
945.6839, 1620.287
946.1660, 1540.606
946.6481, 1416.791
947.1302, 1258.993
947.6124, 1082.950
948.0945, 919.0383
948.5766, 775.0764
949.0587, 653.0449
949.5408, 556.5299
950.0229, 478.8534
950.5051, 415.8444
950.9872, 364.8413
951.4693, 322.8458
951.9514, 288.2250
952.4335, 259.5959
952.9156, 236.3536
953.3978, 217.2497
953.8799, 201.1310
954.3620, 187.6001
954.8441, 175.7462
955.3262, 165.3959
955.8083, 155.9727
956.2905, 147.2477
956.7726, 139.2803
957.2547, 132.0519
957.7368, 125.6511
958.2189, 120.5023
958.7010, 116.6660
959.1832, 112.5482
959.6653, 107.7297
960.1474, 103.4244
960.6295, 100.4348
961.1116, 98.12113
961.5938, 95.25823
962.0759, 91.72385
962.5580, 88.77524
963.0401, 86.59399
963.5222, 84.64906
964.0043, 83.01131
964.4865, 81.35232
964.9686, 79.17516
965.4507, 76.81092
965.9328, 75.36179
966.4149, 75.36063
966.8970, 74.83481
967.3792, 73.19493
967.8613, 71.57710
968.3434, 70.27246
968.8255, 69.27092
969.3076, 68.65034
969.7897, 68.32549
970.2719, 67.97441
970.7540, 67.60317
971.2361, 66.98573
971.7182, 65.82352
972.2003, 64.57301
972.6824, 63.51607
973.1646, 62.65988
973.6467, 62.01670
974.1288, 61.55595
974.6109, 61.10017
975.0930, 60.61300
975.5751, 59.97837
976.0573, 58.94035
976.5394, 57.76852
977.0215, 56.93227
977.5036, 56.33830
977.9857, 55.46944
978.4678, 54.17153
978.9500, 53.10988
979.4321, 53.20777
979.9142, 53.71111
980.3963, 52.90271
980.8784, 51.18520
981.3605, 50.03253
981.8427, 49.62928
982.3248, 49.43897
982.8069, 49.18479
983.2890, 48.85059
983.7711, 48.44279
984.2532, 47.93427
984.7354, 47.01196
985.2175, 45.65602
985.6996, 44.62912
986.1817, 44.12518
986.6638, 43.75463
987.1459, 43.26674
987.6281, 42.67959
988.1102, 41.97503
988.5923, 41.06684
989.0744, 40.72618
989.5565, 41.17537
990.0386, 41.54325
990.5208, 41.63194
991.0029, 41.47895
991.4850, 41.00257
991.9671, 40.33872
992.4492, 40.03934
992.9313, 40.41973
993.4135, 40.40291
993.8956, 39.58722
994.3777, 38.91526
994.8598, 38.67992
995.3419, 38.71547
995.8240, 38.99128
996.3062, 39.43565
996.7883, 39.65355
997.2704, 39.34684
997.7525, 39.29075
998.2346, 39.90873
998.7167, 40.44033
999.1989, 40.53197
999.6810, 40.31005
1000.163, 39.84483
1000.645, 39.19960
1001.127, 38.71424
1001.609, 38.60476
1002.092, 38.48187
1002.574, 38.03735
1003.056, 37.66524
1003.538, 37.74355
1004.020, 38.08847
1004.502, 38.43252
1004.984, 38.69251
1005.466, 38.75817
1005.948, 38.44719
1006.431, 38.09798
1006.913, 37.87458
1007.395, 37.81161
1007.877, 38.11265
1008.359, 38.57861
1008.841, 38.68789
1009.323, 38.31673
1009.805, 37.96489
1010.288, 38.13859
1010.770, 38.39019
1011.252, 38.09450
1011.734, 37.52385
1012.216, 37.20860
1012.698, 37.12351
1013.180, 36.85613
1013.662, 36.25479
1014.144, 35.76453
1014.627, 35.99408
1015.109, 36.50814
1015.591, 36.34259
1016.073, 35.71794
1016.555, 35.33233
1017.037, 35.27317
1017.519, 35.37895
1018.001, 35.57232
1018.484, 35.73120
1018.966, 35.68297
1019.448, 35.47547
1019.930, 35.20855
1020.412, 34.91334
1020.894, 34.93338
1021.376, 35.32119
1021.858, 35.63980
1022.340, 35.63470
1022.823, 35.45343
1023.305, 35.33434
1023.787, 35.26005
1024.269, 34.99119
1024.751, 34.50357
1025.233, 34.33368
1025.715, 34.63240
1026.197, 34.95028
1026.680, 35.03058
1027.162, 34.86993
1027.644, 34.38254
1028.126, 33.55131
1028.608, 33.26759
1029.090, 33.70885
1029.572, 33.79013
1030.054, 33.10384
1030.536, 32.56519
1031.019, 32.87629
1031.501, 33.64371
1031.983, 34.02821
1032.465, 33.98036
1032.947, 33.91534
1033.429, 33.84441
1033.911, 33.72223
1034.393, 33.51725
1034.875, 33.28592
1035.358, 32.99773
1035.840, 32.76221
1036.322, 32.88751
1036.804, 33.51759
1037.286, 33.80546
1037.768, 33.52015
1038.250, 33.30773
1038.732, 33.32033
1039.215, 33.43198
1039.697, 33.69545
1040.179, 33.94827
1040.661, 33.70205
1041.143, 32.68378
1041.625, 32.17912
1042.107, 32.60894
1042.589, 32.97458
1043.072, 32.93645
1043.554, 32.91179
1044.036, 33.32732
1044.518, 33.94742
1045.000, 34.16460
1045.482, 33.83011
1045.964, 33.61743
1046.446, 33.65862
1046.928, 33.70826
1047.411, 33.73589
1047.893, 33.72133
1048.375, 33.57632
1048.857, 33.39457
1049.339, 33.41174
1049.821, 33.69387
1050.303, 33.94400
1050.785, 34.18190
1051.267, 34.29572
1051.750, 34.26478
1052.232, 34.08172
1052.714, 33.55130
1053.196, 32.91252
1053.678, 32.70839
1054.160, 33.07097
1054.642, 33.49434
1055.124, 34.18195
1055.607, 34.49212
1056.089, 33.86160
1056.571, 33.05156
1057.053, 32.68279
1057.535, 32.62604
1058.017, 32.47518
1058.499, 32.13425
1058.981, 31.98952
1059.464, 32.32892
1059.946, 32.66520
1060.428, 32.82080
1060.910, 32.87403
1061.392, 32.85283
1061.874, 32.79961
1062.356, 32.83220
1062.838, 32.98352
1063.320, 32.90903
1063.802, 32.18066
1064.285, 31.59619
1064.767, 31.65483
1065.249, 31.87683
1065.731, 31.90962
1066.213, 31.76716
1066.695, 31.50443
1067.177, 31.13872
1067.659, 30.88096
1068.142, 30.87684
1068.624, 30.92010
1069.106, 30.83448
1069.588, 30.83050
1070.070, 31.22588
1070.552, 31.77793
1071.034, 32.04365
1071.516, 31.94541
1071.999, 31.73139
1072.481, 31.33367
1072.963, 31.06749
1073.445, 31.14673
1073.927, 31.35054
1074.409, 31.56750
1074.891, 31.74566
1075.373, 31.81962
1075.855, 31.78605
1076.338, 31.72264
1076.820, 31.64269
1077.302, 31.56836
1077.784, 31.47701
1078.266, 31.42898
1078.748, 31.52695
1079.230, 31.67097
1079.712, 31.71033
1080.194, 31.63175
1080.677, 31.51049
1081.159, 31.32439
1081.641, 31.21025
1082.123, 31.28112
1082.605, 31.39811
1083.087, 31.51655
1083.569, 31.58334
1084.052, 31.55658
1084.534, 31.42096
1085.016, 31.10962
1085.498, 30.45304
1085.980, 30.05536
1086.462, 30.37219
1086.944, 30.82218
1087.426, 31.11017
1087.908, 31.25828
1088.391, 31.29728
1088.873, 31.24653
1089.355, 31.13329
1089.837, 30.95216
1090.319, 30.76814
1090.801, 30.48332
1091.283, 30.34973
1091.765, 30.73980
1092.247, 31.16651
1092.730, 31.02129
1093.212, 30.50019
1093.694, 30.26525
1094.176, 30.51448
1094.658, 30.67054
1095.140, 30.35612
1095.622, 30.12581
1096.104, 30.31494
1096.587, 30.61831
1097.069, 30.87399
1097.551, 30.99805
1098.033, 30.76923
1098.515, 30.12780
1098.997, 29.82443
1099.479, 30.39912
1099.961, 30.90086
1100.443, 30.97801
1100.926, 30.90425
1101.408, 30.78477
1101.890, 30.69039
1102.372, 30.75233
1102.854, 30.96972
1103.336, 31.06620
1103.818, 30.88506
1104.300, 30.71883
1104.782, 30.73359
1105.265, 30.66355
1105.747, 30.14045
1106.229, 29.59602
1106.711, 29.69116
1107.193, 30.34194
1107.675, 30.67540
1108.157, 30.33639
1108.639, 30.15483
1109.122, 30.28567
1109.604, 30.52766
1110.086, 31.02704
1110.568, 31.41970
1111.050, 31.22586
1111.532, 30.62180
1112.014, 30.32124
1112.496, 30.51428
1112.979, 30.57433
1113.461, 30.22043
1113.943, 30.08500
1114.425, 30.62365
1114.907, 31.12103
1115.389, 30.94484
1115.871, 30.40630
1116.353, 30.22563
1116.835, 30.48487
1117.318, 30.61149
1117.800, 30.48889
1118.282, 30.45230
1118.764, 30.61183
1119.246, 30.77885
1119.728, 30.89240
1120.210, 30.90995
1120.692, 30.73565
1121.174, 30.37472
1121.657, 30.11796
1122.139, 29.94875
1122.621, 29.93056
1123.103, 30.09270
1123.585, 30.37018
1124.067, 30.82793
1124.549, 31.20387
1125.031, 31.16857
1125.514, 30.81978
1125.996, 30.58449
1126.478, 30.42494
1126.960, 30.68824
1127.442, 31.57865
1127.924, 31.90318
1128.406, 31.14117
1128.888, 30.39055
1129.370, 30.56644
1129.853, 31.26642
1130.335, 31.55123
1130.817, 31.42282
1131.299, 31.39171
1131.781, 31.47031
1132.263, 31.27373
1132.745, 30.68943
1133.227, 30.51730
1133.709, 31.28648
1134.192, 32.16994
1134.674, 31.84654
1135.156, 30.70710
1135.638, 30.43830
1136.120, 30.91705
1136.602, 31.19044
1137.084, 31.16007
1137.566, 31.05194
1138.049, 30.95888
1138.531, 30.94781
1139.013, 31.10867
1139.495, 31.32676
1139.977, 31.29202
1140.459, 31.15472
1140.941, 31.45953
1141.423, 32.07476
1141.906, 32.38660
1142.388, 32.26336
1142.870, 31.98722
1143.352, 31.71843
1143.834, 31.47144
1144.316, 31.22106
1144.798, 31.03352
1145.280, 30.94721
1145.762, 31.02855
1146.245, 31.69717
1146.727, 32.66798
1147.209, 32.70602
1147.691, 31.34650
1148.173, 30.17276
1148.655, 30.71423
1149.137, 31.58002
1149.619, 31.59486
1150.101, 31.22757
1150.584, 30.88381
1151.066, 30.64600
1151.548, 30.56746
1152.030, 30.64525
1152.512, 30.79992
1152.994, 31.13975
1153.476, 31.25305
1153.958, 30.72959
1154.441, 30.14230
1154.923, 29.75853
1155.405, 29.61464
1155.887, 29.80317
1156.369, 30.24313
1156.851, 30.70522
1157.333, 31.25033
1157.815, 31.40771
1158.297, 30.74879
1158.780, 30.13266
1159.262, 29.85287
1159.744, 29.68789
1160.226, 29.40232
1160.708, 29.14804
1161.190, 29.29895
1161.672, 29.90059
1162.154, 30.18604
1162.636, 29.94586
1163.119, 29.77878
1163.601, 29.71245
1164.083, 29.76298
1164.565, 30.05853
1165.047, 30.29083
1165.529, 30.09119
1166.011, 29.58045
1166.493, 29.24554
1166.976, 29.10789
1167.458, 29.04350
1167.940, 29.06697
1168.422, 29.08839
1168.904, 29.08250
1169.386, 29.10208
1169.868, 29.19679
1170.350, 29.27095
1170.833, 29.11433
1171.315, 28.80859
1171.797, 28.97879
1172.279, 29.54229
1172.761, 29.42401
1173.243, 28.57054
1173.725, 28.01002
1174.207, 28.13441
1174.689, 28.48467
1175.172, 28.67093
1175.654, 28.75151
1176.136, 28.84742
1176.618, 28.90490
1177.100, 28.66443
1177.582, 28.30315
1178.064, 28.44534
1178.546, 29.06826
1179.028, 29.43492
1179.511, 29.17554
1179.993, 28.76015
1180.475, 28.58181
1180.957, 28.44979
1181.439, 28.01982
1181.921, 27.63943
1182.403, 27.92436
1182.885, 28.56487
1183.368, 28.75992
1183.850, 28.38974
1184.332, 28.19910
1184.814, 28.69479
1185.296, 29.05410
1185.778, 28.77230
1186.260, 28.44855
1186.742, 28.54454
1187.224, 28.71035
1187.707, 28.40131
1188.189, 27.81508
1188.671, 27.76254
1189.153, 28.51661
1189.635, 29.03200
1190.117, 29.21935
1190.599, 29.20035
1191.081, 28.87194
1191.564, 28.50164
1192.046, 28.13312
1192.528, 27.91989
1193.010, 28.12829
1193.492, 28.69464
1193.974, 29.10219
1194.456, 29.36444
1194.938, 29.35833
1195.421, 29.02326
1195.903, 28.74218
1196.385, 28.63643
1196.867, 28.54708
1197.349, 28.33851
1197.831, 28.15122
1198.313, 28.30549
1198.795, 28.69611
1199.277, 28.77323
1199.760, 28.60565
1200.242, 28.54519
1200.724, 28.62595
1201.206, 28.76601
1201.688, 28.91932
1202.170, 28.92242
1202.652, 28.55558
1203.134, 28.19386
1203.616, 28.49670
1204.099, 28.95909
1204.581, 28.74755
1205.063, 28.19254
1205.545, 27.97533
1206.027, 28.12039
1206.509, 28.25668
1206.991, 28.25222
1207.473, 28.22664
1207.956, 28.21948
1208.438, 28.23850
1208.920, 28.32483
1209.402, 28.40178
1209.884, 28.37976
1210.366, 28.32428
1210.848, 28.37143
1211.330, 28.50808
1211.813, 28.51665
1212.295, 28.32300
1212.777, 28.10288
1213.259, 27.83407
1213.741, 27.58062
1214.223, 27.33088
1214.705, 27.14021
1215.187, 27.02496
1215.669, 27.02563
1216.151, 27.25097
1216.634, 27.67887
1217.116, 27.92138
1217.598, 27.96700
1218.080, 27.95850
1218.562, 27.90912
1219.044, 27.78086
1219.526, 27.55619
1220.008, 27.38516
1220.491, 27.39301
1220.973, 27.50439
1221.455, 27.59916
1221.937, 27.69157
1222.419, 27.86613
1222.901, 28.05634
1223.383, 28.01247
1223.865, 27.79703
1224.348, 27.76812
1224.830, 28.03553
1225.312, 28.32444
1225.794, 28.50456
1226.276, 28.53642
1226.758, 28.20466
1227.240, 27.90115
1227.722, 28.17330
1228.204, 28.55238
1228.687, 28.25292
1229.169, 27.48480
1229.651, 27.18839
1230.133, 27.63898
1230.615, 27.95711
1231.097, 27.79398
1231.579, 27.77523
1232.061, 28.20065
1232.543, 28.56825
1233.026, 28.63309
1233.508, 28.55099
1233.990, 28.48138
1234.472, 28.41875
1234.954, 28.34578
1235.436, 28.26839
1235.918, 28.09950
1236.400, 27.81102
1236.883, 27.76919
1237.365, 28.06058
1237.847, 28.33983
1238.329, 28.42617
1238.811, 28.38281
1239.293, 28.24577
1239.775, 28.09459
1240.257, 28.21161
1240.740, 28.39082
1241.222, 27.93285
1241.704, 27.16151
1242.186, 27.12791
1242.668, 27.84888
1243.150, 28.42205
1243.632, 28.45446
1244.114, 28.33551
1244.596, 28.23691
1245.078, 28.18061
1245.561, 28.20762
1246.043, 28.25580
1246.525, 28.28091
1247.007, 28.28687
1247.489, 28.31962
1247.971, 28.35711
1248.453, 28.22079
1248.935, 27.67910
1249.418, 27.51143
1249.900, 27.91257
1250.382, 28.34068
1250.864, 28.79469
1251.346, 29.00104
1251.828, 28.72540
1252.310, 28.30999
1252.792, 28.20811
1253.275, 28.35288
1253.757, 28.49084
1254.239, 28.61824
1254.721, 28.67579
1255.203, 28.66854
1255.685, 28.66729
1256.167, 28.68185
1256.649, 28.65022
1257.131, 28.53946
1257.614, 28.39538
1258.096, 28.27628
1258.578, 28.12990
1259.060, 27.72610
1259.542, 27.39989
1260.024, 27.76112
1260.506, 28.41063
1260.988, 28.57270
1261.470, 28.27481
1261.953, 28.16627
1262.435, 28.48440
1262.917, 28.67430
1263.399, 28.38703
1263.881, 28.25834
1264.363, 28.57393
1264.845, 28.95690
1265.327, 29.32831
1265.810, 29.54431
1266.292, 29.40788
1266.774, 28.99772
1267.256, 28.58261
1267.738, 28.13305
1268.220, 28.06129
1268.702, 28.38230
1269.184, 28.59211
1269.667, 28.60207
1270.149, 28.62602
1270.631, 28.76066
1271.113, 28.79064
1271.595, 28.45798
1272.077, 28.04117
1272.559, 27.93922
1273.041, 28.03424
1273.523, 28.27765
1274.005, 28.51466
1274.488, 28.42923
1274.970, 28.11050
1275.452, 27.91829
1275.934, 27.94973
1276.416, 28.06768
1276.898, 28.35378
1277.380, 28.51827
1277.862, 28.41191
1278.345, 28.25504
1278.827, 28.00802
1279.309, 27.90650
1279.791, 28.24340
1280.273, 28.79017
1280.755, 29.04473
1281.237, 29.00889
1281.719, 28.79526
1282.202, 28.37656
1282.684, 28.22988
1283.166, 28.39907
1283.648, 28.33198
1284.130, 27.87106
1284.612, 27.63718
1285.094, 28.08291
1285.576, 28.71442
1286.058, 28.94501
1286.541, 28.94921
1287.023, 28.93484
##END=



