##NAMES=Meyerhofferite
##RRUFFID=R050671
##IDEAL CHEMISTRY=CaB_3_O_3_(OH)_5_&#183;H_2_O
##LOCALITY=Inyo County, California, USA
##OWNER=RRUFF
##SOURCE=University of Arizona Mineral Museum
##DESCRIPTION=Colorless prismatic single crystals
##STATUS=The identification of this mineral has been confirmed by X-ray diffraction and chemical analysis
##URL=rruff.info/R050671
##MEASURED CHEMISTRY=Ca_1.00_B_3_O_3_(OH)_5_Â·H_2_O ; B not measured but estimated by charge balance
89.78156, 0.0000000E+00
90.26367, 37.51664
90.74579, 37.40923
91.22791, 37.41087
91.71002, 37.51849
92.19214, 37.71125
92.67426, 36.57523
93.15638, 35.32352
93.63850, 37.44867
94.12061, 47.84716
94.60273, 61.44147
95.08485, 65.07015
95.56696, 57.74159
96.04908, 46.93700
96.53120, 40.98173
97.01331, 39.80054
97.49543, 39.81404
97.97755, 39.77423
98.45966, 39.69324
98.94178, 39.84438
99.42390, 40.31861
99.90602, 40.89553
100.3881, 41.12980
100.8703, 40.94166
101.3524, 40.69447
101.8345, 40.57053
102.3166, 40.59748
102.7987, 40.63380
103.2808, 40.66649
103.7630, 40.70213
104.2451, 40.74819
104.7272, 40.72457
105.2093, 40.81823
105.6914, 41.14677
106.1735, 41.69006
106.6557, 42.51561
107.1378, 43.82440
107.6199, 45.65799
108.1020, 46.86905
108.5841, 45.83693
109.0662, 45.04560
109.5484, 46.70578
110.0305, 55.13592
110.5126, 61.75093
110.9947, 64.29000
111.4768, 61.55552
111.9590, 60.33624
112.4411, 61.54627
112.9232, 64.52921
113.4053, 68.40189
113.8874, 73.39127
114.3695, 78.95351
114.8517, 84.78996
115.3338, 90.67522
115.8159, 97.29861
116.2980, 104.6268
116.7801, 112.8956
117.2622, 122.5143
117.7444, 133.0142
118.2265, 145.3566
118.7086, 160.5406
119.1907, 181.2549
119.6728, 201.3463
120.1549, 215.9093
120.6371, 226.3911
121.1192, 238.7144
121.6013, 256.5915
122.0834, 277.9078
122.5655, 300.3160
123.0476, 323.6561
123.5298, 347.3259
124.0119, 371.3149
124.4940, 395.5283
124.9761, 418.7270
125.4582, 439.6189
125.9404, 458.6424
126.4225, 476.4594
126.9046, 493.0424
127.3867, 508.6624
127.8688, 523.2855
128.3509, 536.7722
128.8331, 550.6230
129.3152, 566.1092
129.7973, 583.3197
130.2794, 602.2470
130.7615, 622.8035
131.2436, 645.0790
131.7258, 668.8710
132.2079, 693.9371
132.6900, 721.2092
133.1721, 753.2003
133.6542, 789.8326
134.1364, 826.8535
134.6185, 862.1451
135.1006, 895.9332
135.5827, 930.0652
136.0648, 965.0931
136.5469, 1000.416
137.0291, 1035.906
137.5112, 1072.402
137.9933, 1104.570
138.4754, 1128.779
138.9575, 1143.990
139.4396, 1156.226
139.9218, 1165.448
140.4039, 1172.153
140.8860, 1178.225
141.3681, 1182.956
141.8502, 1188.254
142.3323, 1195.383
142.8145, 1204.515
143.2966, 1215.236
143.7787, 1227.316
144.2608, 1240.872
144.7429, 1256.326
145.2250, 1274.498
145.7072, 1294.025
146.1893, 1313.614
146.6714, 1332.261
147.1535, 1352.438
147.6356, 1374.783
148.1178, 1399.514
148.5999, 1424.338
149.0820, 1448.773
149.5641, 1473.417
150.0462, 1498.732
150.5283, 1525.283
151.0105, 1551.620
151.4926, 1562.851
151.9747, 1570.026
152.4568, 1579.282
152.9389, 1593.462
153.4210, 1609.080
153.9032, 1621.469
154.3853, 1626.280
154.8674, 1631.117
155.3495, 1638.453
155.8316, 1649.497
156.3137, 1660.676
156.7959, 1671.696
157.2780, 1682.459
157.7601, 1692.732
158.2422, 1702.201
158.7243, 1711.445
159.2065, 1720.814
159.6886, 1730.298
160.1707, 1739.939
160.6528, 1750.042
161.1349, 1760.323
161.6170, 1770.053
162.0992, 1779.473
162.5813, 1787.957
163.0634, 1795.198
163.5455, 1801.896
164.0276, 1806.339
164.5097, 1806.254
164.9919, 1802.779
165.4740, 1800.329
165.9561, 1800.379
166.4382, 1802.721
166.9203, 1807.186
167.4024, 1814.246
167.8846, 1822.874
168.3667, 1832.334
168.8488, 1842.739
169.3309, 1854.858
169.8130, 1870.587
170.2952, 1887.939
170.7773, 1904.199
171.2594, 1917.148
171.7415, 1929.780
172.2236, 1945.303
172.7057, 1963.503
173.1879, 1981.500
173.6700, 1997.703
174.1521, 2012.182
174.6342, 2025.143
175.1163, 2037.101
175.5984, 2047.501
176.0806, 2055.970
176.5627, 2062.579
177.0448, 2066.236
177.5269, 2064.863
178.0090, 2059.725
178.4911, 2053.763
178.9733, 2047.339
179.4554, 2041.208
179.9375, 2036.064
180.4196, 2031.856
180.9017, 2029.742
181.3838, 2031.618
181.8660, 2036.832
182.3481, 2043.130
182.8302, 2048.749
183.3123, 2054.791
183.7944, 2064.235
184.2766, 2077.643
184.7587, 2092.412
185.2408, 2106.501
185.7229, 2119.663
186.2050, 2131.097
186.6871, 2140.746
187.1693, 2148.416
187.6514, 2153.371
188.1335, 2156.094
188.6156, 2154.754
189.0977, 2146.520
189.5798, 2131.486
190.0620, 2111.642
190.5441, 2086.190
191.0262, 2055.825
191.5083, 2025.211
191.9904, 1993.472
192.4725, 1962.861
192.9547, 1936.613
193.4368, 1914.497
193.9189, 1896.689
194.4010, 1884.387
194.8831, 1877.289
195.3652, 1870.472
195.8474, 1863.404
196.3295, 1856.843
196.8116, 1852.368
197.2937, 1850.084
197.7758, 1848.962
198.2579, 1848.381
198.7401, 1848.319
199.2222, 1849.565
199.7043, 1852.400
200.1864, 1856.245
200.6685, 1860.238
201.1507, 1864.604
201.6328, 1867.858
202.1149, 1868.807
202.5970, 1867.229
203.0791, 1865.651
203.5612, 1864.591
204.0434, 1863.448
204.5255, 1860.327
205.0076, 1854.795
205.4897, 1848.835
205.9718, 1843.638
206.4539, 1839.323
206.9361, 1835.018
207.4182, 1830.248
207.9003, 1825.646
208.3824, 1823.345
208.8645, 1823.945
209.3466, 1825.300
209.8288, 1826.007
210.3109, 1825.744
210.7930, 1826.352
211.2751, 1828.398
211.7572, 1831.325
212.2393, 1832.807
212.7215, 1831.919
213.2036, 1831.550
213.6857, 1833.797
214.1678, 1839.559
214.6499, 1844.841
215.1320, 1849.095
215.6142, 1852.648
216.0963, 1856.890
216.5784, 1861.981
217.0605, 1867.387
217.5426, 1872.804
218.0247, 1878.172
218.5069, 1883.515
218.9890, 1888.642
219.4711, 1893.745
219.9532, 1899.837
220.4353, 1907.267
220.9175, 1915.225
221.3996, 1923.432
221.8817, 1932.092
222.3638, 1940.381
222.8459, 1948.424
223.3280, 1956.097
223.8102, 1962.083
224.2923, 1965.961
224.7744, 1968.946
225.2565, 1971.988
225.7386, 1976.045
226.2207, 1977.892
226.7029, 1977.755
227.1850, 1975.240
227.6671, 1967.923
228.1492, 1953.469
228.6313, 1937.534
229.1134, 1923.423
229.5956, 1911.160
230.0777, 1900.447
230.5598, 1891.433
231.0419, 1883.960
231.5240, 1876.917
232.0062, 1869.894
232.4883, 1863.900
232.9704, 1859.708
233.4525, 1858.248
233.9346, 1856.611
234.4167, 1854.629
234.8989, 1852.327
235.3810, 1849.805
235.8631, 1846.858
236.3452, 1843.881
236.8273, 1841.082
237.3094, 1838.615
237.7916, 1835.886
238.2737, 1832.531
238.7558, 1828.828
239.2379, 1825.928
239.7200, 1823.924
240.2021, 1822.557
240.6843, 1821.752
241.1664, 1821.853
241.6485, 1821.767
242.1306, 1821.408
242.6127, 1820.852
243.0948, 1820.345
243.5770, 1819.877
244.0591, 1819.551
244.5412, 1819.446
245.0233, 1819.652
245.5054, 1819.979
245.9876, 1820.454
246.4697, 1821.077
246.9518, 1821.859
247.4339, 1822.984
247.9160, 1824.005
248.3981, 1824.562
248.8803, 1824.036
249.3624, 1824.506
249.8445, 1826.239
250.3266, 1828.889
250.8087, 1831.644
251.2908, 1834.715
251.7730, 1837.428
252.2551, 1839.441
252.7372, 1840.653
253.2193, 1841.357
253.7014, 1841.371
254.1835, 1840.939
254.6657, 1840.673
255.1478, 1840.847
255.6299, 1840.712
256.1120, 1839.773
256.5941, 1837.477
257.0763, 1836.328
257.5584, 1836.918
258.0405, 1838.300
258.5226, 1838.440
259.0047, 1836.667
259.4868, 1835.082
259.9690, 1834.732
260.4511, 1836.159
260.9332, 1836.172
261.4153, 1833.898
261.8974, 1830.973
262.3795, 1830.380
262.8617, 1833.032
263.3438, 1835.777
263.8259, 1837.474
264.3080, 1837.886
264.7901, 1838.940
265.2722, 1841.068
265.7544, 1843.302
266.2365, 1843.937
266.7186, 1842.240
267.2007, 1841.207
267.6828, 1842.191
268.1649, 1845.415
268.6471, 1846.821
269.1292, 1845.968
269.6113, 1844.052
270.0934, 1842.347
270.5755, 1840.700
271.0576, 1839.816
271.5398, 1839.940
272.0219, 1841.059
272.5040, 1842.806
272.9861, 1845.444
273.4682, 1848.094
273.9503, 1849.711
274.4325, 1850.071
274.9146, 1850.585
275.3967, 1851.709
275.8788, 1853.312
276.3610, 1854.109
276.8431, 1853.794
277.3252, 1853.579
277.8073, 1854.966
278.2894, 1858.182
278.7715, 1860.396
279.2537, 1860.640
279.7358, 1859.588
280.2179, 1860.340
280.7000, 1863.299
281.1821, 1866.342
281.6642, 1867.626
282.1464, 1867.145
282.6285, 1866.655
283.1106, 1866.166
283.5927, 1866.059
284.0748, 1867.781
284.5569, 1871.526
285.0391, 1875.232
285.5212, 1876.899
286.0033, 1876.777
286.4854, 1878.237
286.9675, 1882.039
287.4496, 1887.033
287.9318, 1891.187
288.4139, 1894.515
288.8960, 1897.018
289.3781, 1898.348
289.8602, 1898.781
290.3423, 1899.746
290.8245, 1901.476
291.3066, 1903.553
291.7887, 1905.458
292.2708, 1907.194
292.7529, 1908.567
293.2350, 1908.981
293.7172, 1908.925
294.1993, 1909.944
294.6814, 1912.209
295.1635, 1915.101
295.6456, 1918.051
296.1277, 1921.004
296.6099, 1923.719
297.0920, 1925.837
297.5741, 1927.633
298.0562, 1929.716
298.5383, 1932.102
299.0204, 1934.349
299.5026, 1935.680
299.9847, 1936.479
300.4668, 1937.825
300.9489, 1940.728
301.4311, 1944.117
301.9132, 1946.465
302.3953, 1947.826
302.8774, 1948.648
303.3595, 1949.034
303.8416, 1949.197
304.3238, 1949.554
304.8059, 1950.634
305.2880, 1951.581
305.7701, 1950.837
306.2522, 1948.769
306.7343, 1947.685
307.2165, 1950.127
307.6986, 1954.070
308.1807, 1956.813
308.6628, 1956.847
309.1449, 1956.920
309.6270, 1959.180
310.1092, 1963.244
310.5913, 1967.856
311.0734, 1973.297
311.5555, 1978.450
312.0376, 1982.025
312.5197, 1983.182
313.0019, 1984.392
313.4840, 1987.148
313.9661, 1990.988
314.4482, 1994.983
314.9303, 1997.877
315.4124, 2001.446
315.8946, 2007.305
316.3767, 2016.305
316.8588, 2024.399
317.3409, 2028.949
317.8230, 2031.960
318.3051, 2036.045
318.7873, 2042.958
319.2694, 2050.348
319.7515, 2057.099
320.2336, 2063.061
320.7157, 2069.729
321.1978, 2077.676
321.6800, 2086.371
322.1621, 2095.304
322.6442, 2104.752
323.1263, 2114.013
323.6084, 2122.333
324.0905, 2129.862
324.5727, 2138.991
325.0548, 2151.296
325.5369, 2164.437
326.0190, 2176.982
326.5012, 2188.596
326.9833, 2199.965
327.4654, 2210.882
327.9475, 2221.515
328.4296, 2232.331
328.9117, 2243.056
329.3939, 2254.195
329.8760, 2266.077
330.3581, 2279.284
330.8402, 2292.183
331.3223, 2305.285
331.8044, 2317.946
332.2866, 2328.830
332.7687, 2336.906
333.2508, 2344.447
333.7329, 2352.358
334.2150, 2361.034
334.6971, 2368.199
335.1793, 2374.136
335.6614, 2378.383
336.1435, 2380.249
336.6256, 2379.527
337.1077, 2377.038
337.5898, 2372.367
338.0720, 2365.704
338.5541, 2361.477
339.0362, 2360.374
339.5183, 2360.268
340.0004, 2359.491
340.4825, 2358.098
340.9647, 2355.692
341.4468, 2351.800
341.9289, 2347.090
342.4110, 2344.125
342.8931, 2343.272
343.3752, 2341.744
343.8574, 2337.794
344.3395, 2331.391
344.8216, 2322.932
345.3037, 2312.005
345.7858, 2299.797
346.2679, 2288.666
346.7501, 2278.385
347.2322, 2267.296
347.7143, 2253.497
348.1964, 2238.031
348.6785, 2224.025
349.1607, 2211.419
349.6428, 2200.329
350.1249, 2190.485
350.6070, 2182.068
351.0891, 2175.490
351.5713, 2172.206
352.0534, 2170.362
352.5355, 2166.716
353.0176, 2161.424
353.4997, 2156.885
353.9818, 2154.847
354.4640, 2154.842
354.9461, 2156.319
355.4282, 2160.127
355.9103, 2164.077
356.3924, 2165.370
356.8745, 2164.861
357.3567, 2165.872
357.8388, 2171.599
358.3209, 2178.926
358.8030, 2185.072
359.2851, 2188.945
359.7672, 2193.134
360.2494, 2199.192
360.7315, 2206.548
361.2136, 2214.044
361.6957, 2221.568
362.1778, 2228.921
362.6599, 2236.020
363.1421, 2242.854
363.6242, 2249.356
364.1063, 2255.005
364.5884, 2260.509
365.0705, 2266.545
365.5526, 2274.245
366.0348, 2281.386
366.5169, 2287.242
366.9990, 2291.866
367.4811, 2296.514
367.9632, 2301.199
368.4453, 2306.007
368.9275, 2310.956
369.4096, 2315.751
369.8917, 2321.036
370.3738, 2326.664
370.8559, 2332.821
371.3380, 2339.885
371.8202, 2347.940
372.3023, 2356.912
372.7844, 2367.007
373.2665, 2378.752
373.7487, 2389.250
374.2308, 2398.016
374.7129, 2406.045
375.1950, 2414.690
375.6771, 2423.915
376.1592, 2434.126
376.6414, 2446.240
377.1235, 2459.814
377.6056, 2470.564
378.0877, 2478.187
378.5698, 2484.353
379.0519, 2491.252
379.5341, 2498.865
380.0162, 2503.184
380.4983, 2502.935
380.9804, 2499.688
381.4625, 2497.219
381.9446, 2495.453
382.4268, 2492.398
382.9089, 2485.816
383.3910, 2476.871
383.8731, 2469.214
384.3552, 2463.278
384.8373, 2458.042
385.3195, 2452.198
385.8016, 2446.068
386.2837, 2440.509
386.7658, 2435.722
387.2479, 2431.872
387.7300, 2428.973
388.2122, 2427.066
388.6943, 2426.565
389.1764, 2428.362
389.6585, 2431.557
390.1406, 2434.895
390.6227, 2437.279
391.1049, 2440.780
391.5870, 2447.821
392.0691, 2457.262
392.5512, 2465.671
393.0333, 2470.391
393.5154, 2474.333
393.9976, 2479.969
394.4797, 2488.915
394.9618, 2495.089
395.4439, 2495.329
395.9260, 2492.037
396.4081, 2488.419
396.8903, 2486.414
397.3724, 2482.882
397.8545, 2477.101
398.3366, 2469.047
398.8188, 2458.784
399.3009, 2445.854
399.7830, 2430.999
400.2651, 2414.528
400.7472, 2393.481
401.2293, 2375.307
401.7115, 2361.586
402.1936, 2350.758
402.6757, 2338.002
403.1578, 2322.177
403.6399, 2306.285
404.1220, 2291.617
404.6042, 2278.138
405.0863, 2265.512
405.5684, 2253.809
406.0505, 2243.049
406.5326, 2233.397
407.0147, 2224.870
407.4969, 2217.165
407.9790, 2210.292
408.4611, 2204.117
408.9432, 2198.083
409.4253, 2192.226
409.9074, 2186.593
410.3896, 2180.831
410.8717, 2175.194
411.3538, 2170.845
411.8359, 2168.109
412.3180, 2166.439
412.8001, 2165.699
413.2823, 2165.584
413.7644, 2164.820
414.2465, 2161.217
414.7286, 2157.235
415.2107, 2156.534
415.6928, 2159.351
416.1750, 2162.769
416.6571, 2165.208
417.1392, 2166.693
417.6213, 2167.267
418.1034, 2165.383
418.5855, 2164.249
419.0677, 2166.533
419.5498, 2171.375
420.0319, 2175.461
420.5140, 2176.491
420.9961, 2177.080
421.4782, 2178.868
421.9604, 2182.464
422.4425, 2186.218
422.9246, 2190.021
423.4067, 2193.676
423.8889, 2196.967
424.3710, 2199.611
424.8531, 2202.129
425.3352, 2204.544
425.8173, 2206.859
426.2994, 2209.175
426.7816, 2210.676
427.2637, 2212.991
427.7458, 2217.462
428.2279, 2225.697
428.7100, 2232.333
429.1921, 2236.944
429.6743, 2239.799
430.1564, 2241.033
430.6385, 2240.237
431.1206, 2239.419
431.6027, 2239.769
432.0848, 2241.177
432.5670, 2240.830
433.0491, 2238.537
433.5312, 2235.265
434.0133, 2232.135
434.4954, 2229.010
434.9775, 2224.829
435.4597, 2219.104
435.9418, 2212.523
436.4239, 2206.231
436.9060, 2200.262
437.3881, 2194.423
437.8702, 2189.134
438.3524, 2183.705
438.8345, 2176.739
439.3166, 2167.800
439.7987, 2159.180
440.2808, 2152.473
440.7629, 2147.276
441.2451, 2143.034
441.7272, 2140.454
442.2093, 2137.920
442.6914, 2134.415
443.1735, 2130.092
443.6556, 2126.036
444.1378, 2122.628
444.6199, 2119.639
445.1020, 2116.938
445.5841, 2114.372
446.0662, 2112.447
446.5483, 2111.668
447.0305, 2111.528
447.5126, 2111.158
447.9947, 2110.257
448.4768, 2109.465
448.9590, 2108.538
449.4411, 2107.431
449.9232, 2108.414
450.4053, 2112.570
450.8874, 2117.207
451.3695, 2120.092
451.8517, 2120.634
452.3338, 2122.110
452.8159, 2125.134
453.2980, 2128.784
453.7801, 2130.719
454.2622, 2130.715
454.7444, 2131.969
455.2265, 2136.701
455.7086, 2143.983
456.1907, 2149.658
456.6728, 2153.737
457.1549, 2157.038
457.6371, 2159.819
458.1192, 2162.496
458.6013, 2166.307
459.0834, 2171.988
459.5655, 2178.033
460.0476, 2182.815
460.5298, 2186.612
461.0119, 2190.015
461.4940, 2192.597
461.9761, 2195.506
462.4582, 2199.600
462.9403, 2205.007
463.4225, 2211.336
463.9046, 2219.486
464.3867, 2228.037
464.8688, 2235.453
465.3509, 2239.771
465.8330, 2244.847
466.3152, 2251.583
466.7973, 2259.698
467.2794, 2268.114
467.7615, 2277.548
468.2436, 2286.621
468.7257, 2294.728
469.2079, 2301.363
469.6900, 2309.068
470.1721, 2318.941
470.6542, 2328.587
471.1363, 2335.302
471.6184, 2338.454
472.1006, 2341.293
472.5827, 2344.860
473.0648, 2348.192
473.5469, 2347.804
474.0291, 2343.439
474.5112, 2338.504
474.9933, 2334.961
475.4754, 2332.506
475.9575, 2329.356
476.4396, 2325.233
476.9218, 2322.140
477.4039, 2322.800
477.8860, 2326.126
478.3681, 2329.528
478.8502, 2331.491
479.3323, 2334.012
479.8145, 2339.349
480.2966, 2347.036
480.7787, 2355.120
481.2608, 2363.170
481.7429, 2370.958
482.2250, 2377.872
482.7072, 2383.432
483.1893, 2390.509
483.6714, 2400.642
484.1535, 2412.572
484.6356, 2425.012
485.1177, 2438.523
485.5999, 2451.823
486.0820, 2464.171
486.5641, 2476.040
487.0462, 2489.580
487.5283, 2505.512
488.0104, 2522.300
488.4926, 2540.200
488.9747, 2559.774
489.4568, 2575.694
489.9389, 2586.742
490.4210, 2596.106
490.9031, 2608.613
491.3853, 2624.881
491.8674, 2635.027
492.3495, 2637.144
492.8316, 2631.710
493.3137, 2619.388
493.7958, 2600.238
494.2780, 2575.261
494.7601, 2542.987
495.2422, 2505.852
495.7243, 2467.858
496.2064, 2428.552
496.6885, 2392.574
497.1707, 2363.083
497.6528, 2338.491
498.1349, 2316.556
498.6170, 2296.468
499.0992, 2278.795
499.5813, 2263.903
500.0634, 2251.531
500.5455, 2240.848
501.0276, 2232.410
501.5097, 2224.905
501.9919, 2217.669
502.4740, 2210.607
502.9561, 2204.569
503.4382, 2199.850
503.9203, 2195.948
504.4024, 2192.458
504.8846, 2189.027
505.3667, 2186.995
505.8488, 2187.331
506.3309, 2188.591
506.8130, 2187.300
507.2951, 2182.823
507.7773, 2178.698
508.2594, 2176.297
508.7415, 2175.399
509.2236, 2174.635
509.7057, 2174.001
510.1878, 2173.610
510.6700, 2173.589
511.1521, 2173.891
511.6342, 2174.474
512.1163, 2175.458
512.5984, 2176.267
513.0806, 2176.025
513.5627, 2175.162
514.0448, 2174.577
514.5269, 2175.300
515.0090, 2175.888
515.4911, 2175.357
515.9733, 2173.766
516.4554, 2171.732
516.9375, 2167.896
517.4196, 2164.804
517.9017, 2164.162
518.3839, 2167.236
518.8660, 2170.091
519.3481, 2173.602
519.8302, 2176.064
520.3123, 2175.242
520.7944, 2168.058
521.2766, 2163.365
521.7587, 2163.453
522.2408, 2166.934
522.7229, 2168.173
523.2050, 2166.666
523.6871, 2164.940
524.1693, 2164.409
524.6514, 2164.985
525.1335, 2165.121
525.6156, 2164.773
526.0977, 2164.349
526.5798, 2164.128
527.0620, 2164.142
527.5441, 2164.507
528.0262, 2165.263
528.5083, 2166.279
528.9904, 2167.477
529.4725, 2168.788
529.9547, 2170.077
530.4368, 2171.066
530.9189, 2172.100
531.4010, 2173.675
531.8831, 2175.765
532.3652, 2176.955
532.8474, 2175.626
533.3295, 2174.056
533.8116, 2173.747
534.2937, 2176.045
534.7758, 2177.621
535.2579, 2177.966
535.7401, 2177.805
536.2222, 2178.252
536.7043, 2179.839
537.1864, 2180.868
537.6685, 2180.773
538.1506, 2179.922
538.6328, 2180.000
539.1149, 2181.146
539.5970, 2182.539
540.0791, 2183.459
540.5612, 2184.157
541.0433, 2186.034
541.5255, 2189.258
542.0076, 2192.354
542.4897, 2193.552
542.9718, 2193.591
543.4539, 2193.957
543.9360, 2194.995
544.4182, 2196.500
544.9003, 2198.220
545.3824, 2200.251
545.8645, 2202.829
546.3466, 2206.938
546.8287, 2210.781
547.3109, 2213.449
547.7930, 2214.855
548.2751, 2215.963
548.7572, 2216.172
549.2393, 2216.714
549.7214, 2218.370
550.2036, 2222.092
550.6857, 2224.780
551.1678, 2226.027
551.6499, 2226.715
552.1320, 2228.143
552.6141, 2230.502
553.0963, 2232.502
553.5784, 2233.733
554.0605, 2234.546
554.5426, 2235.779
555.0247, 2237.429
555.5068, 2239.394
555.9890, 2241.408
556.4711, 2243.737
556.9532, 2247.283
557.4353, 2252.054
557.9174, 2256.206
558.3995, 2257.648
558.8817, 2257.973
559.3638, 2258.913
559.8459, 2261.021
560.3281, 2263.441
560.8102, 2266.295
561.2923, 2269.129
561.7744, 2271.205
562.2565, 2271.676
562.7386, 2272.167
563.2208, 2272.801
563.7029, 2273.668
564.1850, 2275.525
564.6671, 2278.946
565.1492, 2282.330
565.6313, 2284.785
566.1135, 2286.187
566.5956, 2288.195
567.0777, 2290.973
567.5598, 2293.718
568.0419, 2296.066
568.5240, 2297.787
569.0062, 2297.492
569.4883, 2294.235
569.9704, 2290.478
570.4525, 2290.271
570.9346, 2292.153
571.4167, 2292.377
571.8989, 2286.904
572.3810, 2281.115
572.8631, 2279.281
573.3452, 2280.855
573.8273, 2281.657
574.3094, 2279.412
574.7916, 2276.553
575.2737, 2274.061
575.7558, 2271.446
576.2379, 2271.235
576.7200, 2275.149
577.2021, 2280.065
577.6843, 2283.136
578.1664, 2283.489
578.6485, 2284.414
579.1306, 2286.115
579.6127, 2288.683
580.0948, 2292.886
580.5770, 2298.702
581.0591, 2303.665
581.5412, 2305.800
582.0233, 2306.950
582.5054, 2311.986
582.9875, 2320.320
583.4697, 2328.026
583.9518, 2330.627
584.4339, 2332.091
584.9160, 2337.002
585.3981, 2346.157
585.8802, 2355.976
586.3624, 2364.744
586.8445, 2373.308
587.3266, 2382.433
587.8087, 2391.243
588.2908, 2401.973
588.7729, 2414.672
589.2551, 2429.515
589.7372, 2446.996
590.2193, 2467.597
590.7014, 2489.920
591.1835, 2513.249
591.6656, 2537.888
592.1478, 2564.928
592.6299, 2594.016
593.1120, 2626.130
593.5941, 2663.444
594.0762, 2704.329
594.5583, 2742.750
595.0405, 2778.112
595.5226, 2813.003
596.0047, 2849.115
596.4868, 2886.174
596.9689, 2924.288
597.4510, 2963.293
597.9332, 3003.868
598.4153, 3046.888
598.8974, 3091.424
599.3795, 3137.435
599.8616, 3185.274
600.3438, 3234.378
600.8259, 3283.110
601.3080, 3332.597
601.7901, 3386.791
602.2722, 3446.800
602.7543, 3508.938
603.2365, 3573.435
603.7186, 3639.637
604.2007, 3702.743
604.6828, 3762.007
605.1649, 3818.622
605.6470, 3876.281
606.1292, 3932.183
606.6113, 3978.635
607.0934, 4014.747
607.5755, 4036.398
608.0576, 4041.126
608.5398, 4027.587
609.0219, 3993.424
609.5040, 3936.592
609.9861, 3860.447
610.4683, 3760.854
610.9504, 3644.188
611.4325, 3522.253
611.9146, 3389.532
612.3967, 3262.655
612.8788, 3143.377
613.3610, 3032.879
613.8431, 2935.329
614.3252, 2853.240
614.8073, 2781.100
615.2894, 2714.832
615.7715, 2654.606
616.2537, 2602.712
616.7358, 2559.598
617.2179, 2523.013
617.7000, 2492.508
618.1821, 2467.149
618.6642, 2444.530
619.1464, 2423.915
619.6285, 2405.458
620.1106, 2389.300
620.5927, 2375.302
621.0748, 2363.298
621.5569, 2354.493
622.0391, 2346.219
622.5212, 2336.777
623.0033, 2326.826
623.4854, 2318.363
623.9675, 2313.189
624.4496, 2308.147
624.9318, 2302.255
625.4139, 2295.571
625.8960, 2289.516
626.3781, 2284.009
626.8602, 2279.536
627.3423, 2276.544
627.8245, 2275.008
628.3066, 2274.353
628.7887, 2274.724
629.2708, 2274.821
629.7529, 2272.734
630.2350, 2269.356
630.7172, 2266.759
631.1993, 2265.538
631.6814, 2264.664
632.1635, 2263.425
632.6456, 2261.923
633.1277, 2260.319
633.6099, 2258.223
634.0920, 2256.499
634.5741, 2255.739
635.0562, 2255.644
635.5383, 2255.012
636.0204, 2253.847
636.5026, 2252.170
636.9847, 2249.827
637.4668, 2246.919
637.9489, 2244.521
638.4310, 2242.705
638.9131, 2241.128
639.3953, 2239.289
639.8774, 2237.429
640.3595, 2237.094
640.8416, 2238.475
641.3237, 2239.400
641.8058, 2236.721
642.2880, 2232.675
642.7701, 2230.630
643.2522, 2231.894
643.7343, 2233.530
644.2164, 2233.679
644.6985, 2233.420
645.1807, 2234.192
645.6628, 2239.069
646.1449, 2241.503
646.6270, 2239.531
647.1091, 2234.828
647.5912, 2231.630
648.0734, 2230.170
648.5555, 2229.557
649.0376, 2229.781
649.5197, 2230.583
650.0018, 2230.689
650.4839, 2230.114
650.9661, 2229.620
651.4482, 2229.841
651.9303, 2230.422
652.4124, 2230.517
652.8945, 2230.123
653.3766, 2230.331
653.8588, 2232.348
654.3409, 2234.994
654.8230, 2237.353
655.3051, 2239.296
655.7872, 2240.836
656.2693, 2242.118
656.7515, 2242.883
657.2336, 2242.785
657.7158, 2241.000
658.1979, 2240.149
658.6800, 2240.731
659.1621, 2241.916
659.6442, 2242.211
660.1263, 2241.579
660.6085, 2240.870
661.0906, 2240.121
661.5727, 2239.665
662.0548, 2240.495
662.5369, 2242.240
663.0190, 2243.513
663.5012, 2243.586
663.9833, 2242.929
664.4654, 2241.742
664.9475, 2240.130
665.4296, 2238.510
665.9117, 2237.041
666.3939, 2235.667
666.8760, 2234.183
667.3581, 2232.405
667.8402, 2231.962
668.3223, 2233.171
668.8044, 2235.260
669.2866, 2238.368
669.7687, 2242.662
670.2508, 2243.559
670.7329, 2240.257
671.2150, 2235.876
671.6971, 2233.409
672.1793, 2232.579
672.6614, 2232.950
673.1435, 2234.835
673.6256, 2236.665
674.1077, 2236.884
674.5898, 2236.296
675.0720, 2236.160
675.5541, 2236.846
676.0362, 2238.067
676.5183, 2240.543
677.0004, 2243.509
677.4825, 2244.885
677.9647, 2244.215
678.4468, 2242.796
678.9289, 2240.351
679.4110, 2237.540
679.8931, 2237.769
680.3752, 2241.209
680.8574, 2245.185
681.3395, 2248.692
681.8216, 2251.516
682.3037, 2252.789
682.7858, 2252.608
683.2679, 2252.292
683.7501, 2252.441
684.2322, 2252.993
684.7143, 2253.781
685.1964, 2254.663
685.6785, 2256.414
686.1606, 2260.288
686.6428, 2264.332
687.1249, 2267.091
687.6070, 2267.538
688.0891, 2269.165
688.5712, 2272.479
689.0533, 2276.217
689.5355, 2278.856
690.0176, 2280.474
690.4997, 2281.759
690.9818, 2282.692
691.4639, 2283.841
691.9460, 2286.313
692.4282, 2289.543
692.9103, 2292.221
693.3924, 2292.946
693.8745, 2294.013
694.3566, 2296.828
694.8387, 2300.936
695.3209, 2305.289
695.8030, 2310.690
696.2851, 2315.011
696.7672, 2317.316
697.2493, 2318.084
697.7314, 2319.832
698.2136, 2322.833
698.6957, 2325.892
699.1778, 2328.554
699.6599, 2330.868
700.1420, 2333.131
700.6241, 2335.337
701.1063, 2336.919
701.5884, 2336.936
702.0705, 2336.421
702.5526, 2336.614
703.0347, 2337.611
703.5168, 2338.952
703.9990, 2341.074
704.4811, 2342.984
704.9632, 2343.785
705.4453, 2342.613
705.9274, 2342.633
706.4095, 2344.555
706.8917, 2346.876
707.3738, 2348.163
707.8560, 2348.205
708.3381, 2349.107
708.8202, 2351.153
709.3023, 2353.660
709.7844, 2356.227
710.2665, 2358.567
710.7487, 2359.605
711.2308, 2358.274
711.7129, 2357.638
712.1950, 2361.370
712.6771, 2367.042
713.1592, 2370.996
713.6414, 2369.374
714.1235, 2369.040
714.6056, 2372.399
715.0877, 2377.874
715.5698, 2382.450
716.0519, 2386.026
716.5341, 2388.794
717.0162, 2390.387
717.4983, 2391.448
717.9804, 2394.081
718.4625, 2398.167
718.9446, 2401.840
719.4268, 2403.912
719.9089, 2405.239
720.3910, 2406.672
720.8731, 2408.289
721.3552, 2410.482
721.8373, 2413.788
722.3195, 2417.432
722.8016, 2421.492
723.2837, 2425.909
723.7658, 2428.568
724.2479, 2428.478
724.7300, 2427.948
725.2122, 2428.308
725.6943, 2429.603
726.1764, 2428.608
726.6585, 2424.993
727.1406, 2421.064
727.6227, 2418.813
728.1049, 2417.524
728.5870, 2415.844
729.0691, 2413.678
729.5512, 2410.402
730.0333, 2404.359
730.5154, 2397.657
730.9976, 2392.553
731.4797, 2390.039
731.9618, 2387.039
732.4439, 2382.381
732.9260, 2377.516
733.4081, 2373.515
733.8903, 2370.651
734.3724, 2368.035
734.8545, 2365.970
735.3366, 2363.420
735.8187, 2358.127
736.3008, 2350.938
736.7830, 2345.933
737.2651, 2344.294
737.7472, 2343.879
738.2293, 2342.760
738.7114, 2341.427
739.1935, 2340.645
739.6757, 2341.875
740.1578, 2342.085
740.6399, 2339.207
741.1220, 2335.101
741.6041, 2333.046
742.0862, 2334.139
742.5684, 2334.742
743.0505, 2334.058
743.5326, 2332.756
744.0147, 2332.781
744.4968, 2333.948
744.9789, 2333.773
745.4611, 2330.414
745.9432, 2326.407
746.4253, 2325.642
746.9074, 2326.945
747.3895, 2327.264
747.8716, 2324.059
748.3538, 2320.859
748.8359, 2319.676
749.3180, 2320.007
749.8001, 2318.848
750.2822, 2314.208
750.7643, 2311.601
751.2465, 2313.612
751.7286, 2318.927
752.2107, 2320.838
752.6928, 2319.305
753.1749, 2317.321
753.6570, 2316.636
754.1392, 2316.517
754.6213, 2315.510
755.1034, 2313.801
755.5855, 2312.608
756.0676, 2312.833
756.5498, 2313.494
757.0319, 2314.353
757.5140, 2315.364
757.9962, 2315.033
758.4783, 2312.018
758.9604, 2309.452
759.4425, 2309.139
759.9246, 2310.972
760.4067, 2310.581
760.8889, 2307.741
761.3710, 2304.693
761.8531, 2303.165
762.3352, 2302.581
762.8173, 2302.138
763.2994, 2301.776
763.7816, 2300.764
764.2637, 2297.829
764.7458, 2294.712
765.2279, 2292.847
765.7100, 2292.665
766.1921, 2292.337
766.6743, 2291.888
767.1564, 2291.164
767.6385, 2290.283
768.1206, 2289.382
768.6027, 2286.355
769.0848, 2280.730
769.5670, 2275.571
770.0491, 2274.133
770.5312, 2275.001
771.0133, 2275.411
771.4954, 2274.984
771.9775, 2274.494
772.4597, 2273.965
772.9418, 2273.853
773.4239, 2274.716
773.9060, 2277.455
774.3881, 2279.037
774.8702, 2279.389
775.3524, 2278.580
775.8345, 2276.203
776.3166, 2272.039
776.7987, 2269.382
777.2808, 2268.590
777.7629, 2268.709
778.2451, 2269.041
778.7272, 2269.472
779.2093, 2269.762
779.6914, 2269.845
780.1735, 2269.849
780.6556, 2269.724
781.1378, 2269.613
781.6199, 2269.653
782.1020, 2269.870
782.5841, 2270.194
783.0662, 2270.583
783.5483, 2271.081
784.0305, 2271.752
784.5126, 2272.597
784.9947, 2273.550
785.4768, 2274.691
785.9589, 2275.522
786.4410, 2275.405
786.9232, 2274.587
787.4053, 2273.415
787.8874, 2271.750
788.3695, 2270.372
788.8516, 2269.109
789.3337, 2268.569
789.8159, 2269.575
790.2980, 2274.221
790.7801, 2276.543
791.2622, 2275.413
791.7443, 2273.177
792.2264, 2273.148
792.7086, 2275.167
793.1907, 2276.532
793.6728, 2276.809
794.1549, 2276.345
794.6370, 2274.934
795.1191, 2273.224
795.6013, 2272.284
796.0834, 2272.615
796.5655, 2273.353
797.0476, 2275.058
797.5297, 2276.611
798.0118, 2276.495
798.4940, 2273.171
798.9761, 2271.937
799.4582, 2273.770
799.9403, 2276.689
800.4224, 2277.981
800.9045, 2277.904
801.3867, 2278.116
801.8688, 2279.033
802.3509, 2279.965
802.8330, 2280.062
803.3151, 2279.791
803.7972, 2279.710
804.2794, 2279.051
804.7615, 2280.094
805.2436, 2285.780
805.7258, 2292.019
806.2079, 2294.105
806.6900, 2290.632
807.1721, 2288.703
807.6542, 2289.401
808.1364, 2290.824
808.6185, 2290.292
809.1006, 2288.399
809.5827, 2286.972
810.0648, 2286.581
810.5469, 2286.142
811.0291, 2284.194
811.5112, 2282.036
811.9933, 2281.173
812.4754, 2282.857
812.9575, 2284.440
813.4396, 2286.018
813.9218, 2287.239
814.4039, 2287.582
814.8860, 2286.998
815.3681, 2286.571
815.8502, 2286.493
816.3323, 2286.348
816.8145, 2285.683
817.2966, 2284.615
817.7787, 2283.171
818.2608, 2281.074
818.7429, 2279.620
819.2250, 2279.372
819.7072, 2280.102
820.1893, 2281.809
820.6714, 2286.077
821.1535, 2287.466
821.6356, 2284.757
822.1177, 2281.321
822.5999, 2281.098
823.0820, 2283.580
823.5641, 2285.493
824.0462, 2286.446
824.5283, 2286.862
825.0104, 2286.669
825.4926, 2286.357
825.9747, 2286.435
826.4568, 2286.932
826.9389, 2287.990
827.4210, 2290.598
827.9031, 2293.002
828.3853, 2293.828
828.8674, 2292.515
829.3495, 2292.511
829.8316, 2294.120
830.3137, 2295.826
830.7958, 2295.783
831.2780, 2294.836
831.7601, 2294.993
832.2422, 2296.532
832.7243, 2297.866
833.2064, 2297.701
833.6885, 2297.177
834.1707, 2297.198
834.6528, 2298.060
835.1349, 2298.853
835.6170, 2300.023
836.0991, 2300.402
836.5812, 2298.462
837.0634, 2294.494
837.5455, 2293.300
838.0276, 2294.909
838.5097, 2297.175
838.9918, 2298.851
839.4739, 2300.028
839.9561, 2300.630
840.4382, 2300.660
840.9203, 2300.769
841.4024, 2301.526
841.8845, 2302.030
842.3666, 2301.977
842.8488, 2301.368
843.3309, 2299.742
843.8130, 2296.816
844.2951, 2294.555
844.7772, 2294.749
845.2593, 2296.269
845.7415, 2296.297
846.2236, 2295.140
846.7057, 2294.345
847.1878, 2295.760
847.6699, 2296.905
848.1520, 2295.745
848.6342, 2292.673
849.1163, 2291.438
849.5984, 2292.922
850.0805, 2294.642
850.5626, 2295.850
851.0447, 2296.637
851.5269, 2297.242
852.0090, 2297.664
852.4911, 2298.004
852.9732, 2298.167
853.4553, 2298.370
853.9374, 2298.538
854.4196, 2298.891
854.9017, 2299.998
855.3839, 2303.335
855.8660, 2305.769
856.3481, 2306.542
856.8302, 2306.155
857.3123, 2305.716
857.7944, 2305.252
858.2766, 2304.246
858.7587, 2302.104
859.2408, 2300.395
859.7229, 2302.291
860.2050, 2306.231
860.6871, 2308.962
861.1693, 2308.708
861.6514, 2308.234
862.1335, 2308.262
862.6156, 2308.819
863.0977, 2309.984
863.5798, 2312.261
864.0620, 2313.532
864.5441, 2313.215
865.0262, 2312.829
865.5083, 2314.811
865.9904, 2318.317
866.4725, 2320.615
866.9547, 2321.015
867.4368, 2321.384
867.9189, 2322.481
868.4010, 2324.491
868.8831, 2327.686
869.3652, 2332.688
869.8474, 2337.570
870.3295, 2342.630
870.8116, 2347.083
871.2937, 2350.194
871.7758, 2352.061
872.2579, 2353.442
872.7401, 2354.394
873.2222, 2355.229
873.7043, 2356.085
874.1864, 2357.040
874.6685, 2358.279
875.1506, 2359.825
875.6328, 2361.058
876.1149, 2360.421
876.5970, 2361.031
877.0791, 2364.767
877.5612, 2371.111
878.0433, 2374.476
878.5255, 2374.762
879.0076, 2374.571
879.4897, 2375.597
879.9718, 2376.888
880.4539, 2377.190
880.9360, 2376.614
881.4182, 2375.519
881.9003, 2372.804
882.3824, 2370.991
882.8645, 2372.120
883.3466, 2374.578
883.8287, 2374.012
884.3109, 2369.851
884.7930, 2365.757
885.2751, 2362.723
885.7572, 2360.109
886.2393, 2356.698
886.7214, 2352.840
887.2036, 2349.490
887.6857, 2347.214
888.1678, 2345.100
888.6499, 2343.285
889.1320, 2341.169
889.6141, 2337.825
890.0963, 2332.444
890.5784, 2328.238
891.0605, 2325.566
891.5426, 2323.743
892.0247, 2321.937
892.5068, 2320.285
892.9890, 2319.196
893.4711, 2318.778
893.9532, 2318.698
894.4353, 2319.210
894.9174, 2319.652
895.3995, 2319.377
895.8817, 2318.077
896.3638, 2317.171
896.8459, 2316.664
897.3280, 2316.517
897.8101, 2316.602
898.2922, 2316.982
898.7744, 2318.283
899.2565, 2320.401
899.7386, 2322.437
900.2207, 2324.365
900.7028, 2325.497
901.1849, 2324.810
901.6671, 2322.605
902.1492, 2321.207
902.6313, 2321.191
903.1134, 2321.474
903.5955, 2321.993
904.0776, 2322.504
904.5598, 2322.528
905.0419, 2322.014
905.5240, 2320.249
906.0062, 2315.892
906.4883, 2312.017
906.9704, 2311.667
907.4525, 2313.605
907.9346, 2315.829
908.4167, 2318.918
908.8989, 2320.722
909.3810, 2320.863
909.8631, 2319.960
910.3452, 2318.313
910.8273, 2316.030
911.3094, 2314.875
911.7916, 2315.030
912.2737, 2316.477
912.7558, 2321.090
913.2379, 2325.895
913.7200, 2326.968
914.2021, 2322.665
914.6843, 2320.831
915.1664, 2325.198
915.6485, 2329.048
916.1306, 2328.050
916.6127, 2322.674
917.0948, 2321.730
917.5770, 2325.201
918.0591, 2327.942
918.5412, 2325.139
919.0233, 2321.055
919.5054, 2320.696
919.9875, 2323.198
920.4697, 2324.485
920.9518, 2321.774
921.4339, 2319.693
921.9160, 2319.179
922.3981, 2319.933
922.8802, 2321.767
923.3624, 2324.586
923.8445, 2325.968
924.3266, 2324.732
924.8087, 2322.972
925.2908, 2323.272
925.7729, 2324.463
926.2551, 2324.800
926.7372, 2323.277
927.2193, 2321.893
927.7014, 2320.563
928.1835, 2319.845
928.6656, 2320.905
929.1478, 2323.768
929.6299, 2323.455
930.1120, 2319.516
930.5941, 2316.533
931.0762, 2320.319
931.5583, 2325.969
932.0405, 2327.473
932.5226, 2324.344
933.0047, 2323.370
933.4868, 2328.164
933.9689, 2332.748
934.4510, 2334.892
934.9332, 2335.111
935.4153, 2335.863
935.8974, 2337.119
936.3795, 2338.772
936.8616, 2341.044
937.3438, 2343.311
937.8259, 2344.848
938.3080, 2345.917
938.7901, 2347.018
939.2722, 2348.318
939.7543, 2349.601
940.2365, 2350.691
940.7186, 2351.925
941.2007, 2354.125
941.6828, 2357.137
942.1649, 2358.814
942.6470, 2358.785
943.1292, 2358.302
943.6113, 2357.849
944.0934, 2357.949
944.5755, 2359.370
945.0576, 2362.550
945.5397, 2365.127
946.0219, 2366.975
946.5040, 2368.153
946.9861, 2368.379
947.4682, 2367.940
947.9503, 2368.810
948.4324, 2370.811
948.9146, 2372.399
949.3967, 2372.216
949.8788, 2371.700
950.3609, 2371.614
950.8430, 2372.042
951.3251, 2373.275
951.8073, 2376.046
952.2894, 2378.161
952.7715, 2379.136
953.2536, 2379.590
953.7357, 2380.680
954.2179, 2382.170
954.7000, 2382.896
955.1821, 2382.392
955.6642, 2382.271
956.1464, 2384.345
956.6285, 2386.880
957.1106, 2387.953
957.5927, 2386.633
958.0748, 2387.946
958.5569, 2392.945
959.0391, 2397.698
959.5212, 2399.730
960.0033, 2399.477
960.4854, 2397.202
960.9675, 2393.402
961.4496, 2390.988
961.9318, 2393.185
962.4139, 2395.393
962.8960, 2394.833
963.3781, 2392.570
963.8602, 2391.808
964.3423, 2393.187
964.8245, 2393.388
965.3066, 2391.514
965.7887, 2388.977
966.2708, 2387.364
966.7529, 2386.705
967.2350, 2387.399
967.7172, 2390.217
968.1993, 2391.983
968.6814, 2390.399
969.1635, 2388.241
969.6456, 2387.380
970.1277, 2387.891
970.6099, 2388.413
971.0920, 2388.877
971.5741, 2389.771
972.0562, 2391.953
972.5383, 2394.345
973.0204, 2395.403
973.5026, 2395.387
973.9847, 2395.564
974.4668, 2396.176
974.9489, 2397.275
975.4310, 2399.158
975.9131, 2401.325
976.3953, 2402.692
976.8774, 2403.342
977.3595, 2404.084
977.8416, 2405.066
978.3237, 2406.388
978.8058, 2408.984
979.2880, 2411.539
979.7701, 2412.394
980.2522, 2410.438
980.7343, 2409.709
981.2164, 2410.462
981.6985, 2412.197
982.1807, 2414.921
982.6628, 2418.357
983.1449, 2421.576
983.6270, 2424.469
984.1091, 2426.450
984.5912, 2425.608
985.0734, 2425.326
985.5555, 2428.454
986.0376, 2433.454
986.5197, 2435.910
987.0018, 2434.472
987.4839, 2435.047
987.9661, 2438.782
988.4482, 2444.174
988.9303, 2450.159
989.4124, 2456.027
989.8945, 2460.112
990.3766, 2461.896
990.8588, 2463.684
991.3409, 2466.601
991.8230, 2469.687
992.3051, 2472.264
992.7872, 2474.350
993.2693, 2477.598
993.7515, 2482.056
994.2336, 2486.064
994.7157, 2488.303
995.1978, 2489.919
995.6799, 2492.004
996.1620, 2494.520
996.6442, 2497.397
997.1263, 2501.923
997.6084, 2504.727
998.0905, 2504.915
998.5726, 2503.991
999.0547, 2503.820
999.5369, 2504.280
1000.019, 2505.196
1000.501, 2506.692
1000.983, 2506.063
1001.465, 2499.667
1001.947, 2491.711
1002.430, 2485.216
1002.912, 2480.407
1003.394, 2476.631
1003.876, 2474.406
1004.358, 2471.396
1004.840, 2466.209
1005.322, 2460.221
1005.804, 2456.291
1006.287, 2453.672
1006.769, 2450.361
1007.251, 2444.682
1007.733, 2439.716
1008.215, 2436.853
1008.697, 2434.739
1009.179, 2432.227
1009.661, 2429.305
1010.143, 2425.940
1010.626, 2422.026
1011.108, 2418.518
1011.590, 2416.297
1012.072, 2414.726
1012.554, 2413.502
1013.036, 2412.463
1013.518, 2410.527
1014.000, 2406.536
1014.483, 2403.448
1014.965, 2402.199
1015.447, 2401.994
1015.929, 2401.322
1016.411, 2400.272
1016.893, 2399.034
1017.375, 2397.465
1017.857, 2396.372
1018.339, 2396.703
1018.822, 2397.391
1019.304, 2397.409
1019.786, 2396.577
1020.268, 2396.260
1020.750, 2396.496
1021.232, 2396.843
1021.714, 2396.950
1022.196, 2397.014
1022.679, 2397.695
1023.161, 2398.605
1023.643, 2398.637
1024.125, 2395.066
1024.607, 2393.874
1025.089, 2396.617
1025.571, 2401.388
1026.053, 2406.477
1026.535, 2411.496
1027.018, 2413.312
1027.500, 2411.422
1027.982, 2409.050
1028.464, 2408.839
1028.946, 2409.019
1029.428, 2407.656
1029.910, 2404.749
1030.392, 2404.778
1030.875, 2408.821
1031.357, 2411.740
1031.839, 2411.283
1032.321, 2409.327
1032.803, 2408.214
1033.285, 2408.327
1033.767, 2410.802
1034.249, 2418.007
1034.731, 2423.446
1035.214, 2424.705
1035.696, 2424.490
1036.178, 2424.552
1036.660, 2424.902
1037.142, 2425.534
1037.624, 2426.436
1038.106, 2427.219
1038.588, 2427.664
1039.071, 2427.872
1039.553, 2427.702
1040.035, 2427.372
1040.517, 2427.597
1040.999, 2428.652
1041.481, 2429.458
1041.963, 2429.622
1042.445, 2430.143
1042.927, 2433.002
1043.410, 2436.976
1043.892, 2439.530
1044.374, 2440.166
1044.856, 2440.997
1045.338, 2444.052
1045.820, 2446.004
1046.302, 2444.771
1046.784, 2441.238
1047.266, 2440.453
1047.749, 2442.137
1048.231, 2443.259
1048.713, 2442.410
1049.195, 2440.927
1049.677, 2439.874
1050.159, 2438.842
1050.641, 2437.099
1051.123, 2433.685
1051.606, 2432.470
1052.088, 2433.990
1052.570, 2435.886
1053.052, 2436.798
1053.534, 2436.656
1054.016, 2434.742
1054.498, 2431.492
1054.980, 2428.871
1055.463, 2428.212
1055.945, 2427.503
1056.427, 2425.858
1056.909, 2424.275
1057.391, 2424.966
1057.873, 2427.520
1058.355, 2428.424
1058.837, 2427.012
1059.319, 2425.428
1059.802, 2425.247
1060.284, 2425.645
1060.766, 2426.308
1061.248, 2427.148
1061.730, 2426.923
1062.212, 2425.321
1062.694, 2424.477
1063.176, 2425.586
1063.658, 2427.160
1064.141, 2426.581
1064.623, 2425.070
1065.105, 2424.757
1065.587, 2426.823
1066.069, 2428.726
1066.551, 2430.661
1067.033, 2431.574
1067.515, 2429.784
1067.998, 2426.151
1068.480, 2425.685
1068.962, 2427.966
1069.444, 2430.803
1069.926, 2434.091
1070.408, 2436.407
1070.890, 2436.584
1071.372, 2435.545
1071.854, 2434.478
1072.337, 2433.370
1072.819, 2433.100
1073.301, 2433.940
1073.783, 2434.309
1074.265, 2431.859
1074.747, 2428.871
1075.229, 2427.787
1075.711, 2428.652
1076.193, 2429.304
1076.676, 2430.104
1077.158, 2429.237
1077.640, 2425.602
1078.122, 2421.189
1078.604, 2419.694
1079.086, 2420.000
1079.568, 2419.629
1080.051, 2417.652
1080.533, 2416.558
1081.015, 2417.987
1081.497, 2419.756
1081.979, 2420.987
1082.461, 2421.670
1082.943, 2421.292
1083.425, 2420.082
1083.907, 2419.711
1084.390, 2421.853
1084.872, 2423.841
1085.354, 2423.874
1085.836, 2422.800
1086.318, 2421.617
1086.800, 2420.016
1087.282, 2419.911
1087.764, 2421.512
1088.246, 2422.987
1088.729, 2422.339
1089.211, 2421.130
1089.693, 2421.445
1090.175, 2422.836
1090.657, 2423.386
1091.139, 2422.230
1091.621, 2421.153
1092.103, 2420.307
1092.586, 2419.805
1093.068, 2420.042
1093.550, 2420.696
1094.032, 2421.055
1094.514, 2421.042
1094.996, 2420.783
1095.478, 2420.868
1095.960, 2419.981
1096.443, 2416.822
1096.925, 2412.843
1097.407, 2412.690
1097.889, 2415.885
1098.371, 2418.892
1098.853, 2420.681
1099.335, 2422.408
1099.817, 2425.855
1100.299, 2428.852
1100.781, 2429.288
1101.264, 2427.123
1101.746, 2424.664
1102.228, 2421.831
1102.710, 2419.601
1103.192, 2418.796
1103.674, 2418.423
1104.156, 2416.899
1104.638, 2415.208
1105.121, 2415.065
1105.603, 2418.584
1106.085, 2419.831
1106.567, 2418.132
1107.049, 2416.163
1107.531, 2416.260
1108.013, 2417.516
1108.495, 2417.917
1108.978, 2417.763
1109.460, 2418.369
1109.942, 2421.065
1110.424, 2423.393
1110.906, 2424.912
1111.388, 2425.867
1111.870, 2426.553
1112.352, 2426.935
1112.834, 2426.668
1113.317, 2425.749
1113.799, 2425.493
1114.281, 2427.685
1114.763, 2429.615
1115.245, 2429.644
1115.727, 2428.590
1116.209, 2428.606
1116.691, 2429.674
1117.173, 2430.402
1117.656, 2430.558
1118.138, 2430.181
1118.620, 2428.232
1119.102, 2426.618
1119.584, 2427.587
1120.066, 2431.069
1120.548, 2432.694
1121.030, 2432.116
1121.513, 2432.211
1121.995, 2434.698
1122.477, 2436.933
1122.959, 2434.399
1123.441, 2430.081
1123.923, 2428.377
1124.405, 2431.438
1124.887, 2432.918
1125.370, 2431.778
1125.852, 2431.762
1126.334, 2436.448
1126.816, 2442.775
1127.298, 2443.740
1127.780, 2441.205
1128.262, 2439.580
1128.744, 2441.595
1129.226, 2442.830
1129.709, 2442.424
1130.191, 2441.801
1130.673, 2442.315
1131.155, 2443.621
1131.637, 2444.227
1132.119, 2444.277
1132.601, 2444.847
1133.083, 2447.621
1133.566, 2449.548
1134.048, 2449.359
1134.530, 2448.060
1135.012, 2446.506
1135.494, 2444.856
1135.976, 2445.037
1136.458, 2447.214
1136.940, 2449.004
1137.422, 2448.352
1137.905, 2447.271
1138.387, 2447.154
1138.869, 2447.510
1139.351, 2446.860
1139.833, 2445.145
1140.315, 2444.199
1140.797, 2444.481
1141.279, 2444.707
1141.761, 2443.221
1142.244, 2441.557
1142.726, 2441.249
1143.208, 2442.243
1143.690, 2442.282
1144.172, 2440.965
1144.654, 2441.203
1145.136, 2444.370
1145.618, 2447.894
1146.101, 2448.003
1146.583, 2446.882
1147.065, 2447.528
1147.547, 2451.027
1148.029, 2452.271
1148.511, 2450.544
1148.993, 2448.670
1149.475, 2448.065
1149.958, 2447.751
1150.440, 2445.475
1150.922, 2442.503
1151.404, 2441.269
1151.886, 2443.620
1152.368, 2444.749
1152.850, 2444.140
1153.332, 2442.865
1153.814, 2441.281
1154.297, 2439.722
1154.779, 2439.288
1155.261, 2439.573
1155.743, 2439.426
1156.225, 2437.273
1156.707, 2436.407
1157.189, 2437.581
1157.671, 2439.380
1158.153, 2441.122
1158.636, 2442.458
1159.118, 2441.278
1159.600, 2438.142
1160.082, 2435.950
1160.564, 2436.201
1161.046, 2437.552
1161.528, 2440.290
1162.010, 2443.206
1162.493, 2444.793
1162.975, 2445.261
1163.457, 2446.253
1163.939, 2447.775
1164.421, 2448.668
1164.903, 2447.181
1165.385, 2446.140
1165.867, 2447.199
1166.349, 2449.183
1166.832, 2450.234
1167.314, 2450.404
1167.796, 2450.479
1168.278, 2450.544
1168.760, 2450.209
1169.242, 2447.838
1169.724, 2446.321
1170.206, 2448.176
1170.688, 2452.051
1171.171, 2455.203
1171.653, 2457.645
1172.135, 2457.329
1172.617, 2453.465
1173.099, 2450.329
1173.581, 2453.054
1174.063, 2456.561
1174.545, 2456.105
1175.028, 2452.813
1175.510, 2452.958
1175.992, 2456.774
1176.474, 2457.903
1176.956, 2454.002
1177.438, 2449.991
1177.920, 2450.983
1178.402, 2453.640
1178.885, 2454.985
1179.367, 2454.897
1179.849, 2454.619
1180.331, 2454.140
1180.813, 2453.559
1181.295, 2452.590
1181.777, 2452.434
1182.259, 2455.625
1182.741, 2459.552
1183.224, 2460.847
1183.706, 2458.895
1184.188, 2459.299
1184.670, 2462.523
1185.152, 2464.665
1185.634, 2463.086
1186.116, 2461.154
1186.598, 2462.838
1187.081, 2466.476
1187.563, 2470.069
1188.045, 2473.703
1188.527, 2475.194
1189.009, 2474.100
1189.491, 2473.259
1189.973, 2474.642
1190.455, 2476.565
1190.938, 2476.684
1191.420, 2476.014
1191.902, 2476.329
1192.384, 2478.680
1192.866, 2479.670
1193.348, 2479.083
1193.830, 2478.321
1194.312, 2478.027
1194.794, 2478.328
1195.276, 2479.931
1195.759, 2482.144
1196.241, 2483.452
1196.723, 2482.986
1197.205, 2483.239
1197.687, 2484.414
1198.169, 2485.449
1198.651, 2485.054
1199.133, 2484.333
1199.616, 2484.958
1200.098, 2486.423
1200.580, 2487.421
1201.062, 2487.351
1201.544, 2487.929
1202.026, 2489.547
1202.508, 2490.435
1202.990, 2487.667
1203.473, 2484.233
1203.955, 2484.492
1204.437, 2487.508
1204.919, 2489.902
1205.401, 2491.263
1205.883, 2491.926
1206.365, 2491.997
1206.847, 2491.091
1207.329, 2487.400
1207.812, 2483.542
1208.294, 2483.638
1208.776, 2486.759
1209.258, 2488.254
1209.740, 2486.533
1210.222, 2486.443
1210.704, 2489.040
1211.186, 2491.315
1211.668, 2489.552
1212.151, 2486.171
1212.633, 2483.673
1213.115, 2482.291
1213.597, 2482.633
1214.079, 2485.601
1214.561, 2487.036
1215.043, 2485.883
1215.525, 2485.070
1216.008, 2489.671
1216.490, 2495.058
1216.972, 2494.387
1217.454, 2488.468
1217.936, 2486.258
1218.418, 2489.492
1218.900, 2491.987
1219.382, 2492.685
1219.865, 2492.572
1220.347, 2492.848
1220.829, 2492.866
1221.311, 2491.163
1221.793, 2488.165
1222.275, 2487.860
1222.757, 2491.175
1223.239, 2494.010
1223.721, 2495.656
1224.203, 2496.366
1224.686, 2496.263
1225.168, 2495.500
1225.650, 2493.620
1226.132, 2490.946
1226.614, 2490.555
1227.096, 2493.016
1227.578, 2494.634
1228.061, 2494.446
1228.543, 2494.012
1229.025, 2494.525
1229.507, 2495.915
1229.989, 2498.817
1230.471, 2502.835
1230.953, 2504.591
1231.435, 2503.882
1231.917, 2502.543
1232.400, 2500.864
1232.882, 2499.236
1233.364, 2497.762
1233.846, 2496.700
1234.328, 2496.819
1234.810, 2497.712
1235.292, 2496.178
1235.774, 2492.024
1236.256, 2491.163
1236.739, 2495.759
1237.221, 2500.190
1237.703, 2499.407
1238.185, 2496.771
1238.667, 2494.709
1239.149, 2493.231
1239.631, 2491.773
1240.113, 2490.399
1240.596, 2490.285
1241.078, 2491.937
1241.560, 2493.581
1242.042, 2493.701
1242.524, 2493.467
1243.006, 2493.569
1243.488, 2493.952
1243.970, 2494.410
1244.453, 2494.947
1244.935, 2495.875
1245.417, 2497.392
1245.899, 2498.520
1246.381, 2497.883
1246.863, 2497.593
1247.345, 2499.177
1247.827, 2501.768
1248.309, 2502.320
1248.792, 2501.234
1249.274, 2499.965
1249.756, 2498.698
1250.238, 2498.433
1250.720, 2501.072
1251.202, 2503.154
1251.684, 2503.023
1252.166, 2501.573
1252.648, 2500.914
1253.131, 2500.876
1253.613, 2501.059
1254.095, 2501.441
1254.577, 2501.427
1255.059, 2500.441
1255.541, 2499.527
1256.023, 2498.965
1256.505, 2498.802
1256.988, 2499.418
1257.470, 2500.451
1257.952, 2501.230
1258.434, 2501.704
1258.916, 2501.379
1259.398, 2499.353
1259.880, 2498.700
1260.362, 2500.859
1260.844, 2504.154
1261.327, 2506.643
1261.809, 2508.020
1262.291, 2507.397
1262.773, 2504.389
1263.255, 2502.474
1263.737, 2501.713
1264.219, 2502.477
1264.701, 2505.305
1265.183, 2508.404
1265.666, 2508.842
1266.148, 2508.643
1266.630, 2510.387
1267.112, 2514.375
1267.594, 2517.953
1268.076, 2521.316
1268.558, 2522.437
1269.040, 2520.205
1269.523, 2517.564
1270.005, 2517.245
1270.487, 2517.977
1270.969, 2518.981
1271.451, 2520.052
1271.933, 2519.898
1272.415, 2518.579
1272.897, 2518.493
1273.380, 2520.561
1273.862, 2522.065
1274.344, 2520.282
1274.826, 2517.976
1275.308, 2516.822
1275.790, 2516.579
1276.272, 2516.355
1276.754, 2516.243
1277.236, 2516.809
1277.719, 2518.192
1278.201, 2520.003
1278.683, 2523.293
1279.165, 2525.343
1279.647, 2524.860
1280.129, 2522.826
1280.611, 2521.170
1281.093, 2519.702
1281.576, 2517.644
1282.058, 2514.806
1282.540, 2512.989
1283.022, 2513.131
1283.504, 2513.742
1283.986, 2514.604
1284.468, 2515.427
1284.950, 2515.282
1285.432, 2515.017
1285.915, 2516.385
1286.397, 2519.491
1286.879, 2521.458
1287.361, 2521.960
1287.843, 2521.465
1288.325, 2519.723
1288.807, 2518.411
1289.289, 2520.195
1289.771, 2522.875
1290.254, 2524.164
1290.736, 2524.021
1291.218, 2523.668
1291.700, 2522.991
1292.182, 2522.943
1292.664, 2523.667
1293.146, 2525.187
1293.628, 2528.516
1294.111, 2531.642
1294.593, 2533.437
1295.075, 2533.862
1295.557, 2532.038
1296.039, 2528.278
1296.521, 2525.957
1297.003, 2525.639
1297.485, 2526.736
1297.968, 2530.505
1298.450, 2532.651
1298.932, 2530.803
1299.414, 2528.035
1299.896, 2530.140
1300.378, 2535.034
1300.860, 2535.081
1301.342, 2530.422
1301.824, 2527.656
##END=



