##NAMES=Meyerhofferite
##RRUFFID=R050671
##IDEAL CHEMISTRY=CaB_3_O_3_(OH)_5_&#183;H_2_O
##LOCALITY=Inyo County, California, USA
##OWNER=RRUFF
##SOURCE=University of Arizona Mineral Museum
##DESCRIPTION=Colorless prismatic single crystals
##STATUS=The identification of this mineral has been confirmed by X-ray diffraction and chemical analysis
##URL=rruff.info/R050671
##MEASURED CHEMISTRY=Ca_1.00_B_3_O_3_(OH)_5_Â·H_2_O ; B not measured but estimated by charge balance
92.02539, 835.0153
92.50751, 828.2300
92.98962, 831.0692
93.47174, 837.0431
93.95386, 846.3928
94.43597, 853.2665
94.91809, 856.5978
95.40021, 857.6122
95.88232, 856.9792
96.36444, 854.7139
96.84656, 850.8321
97.32867, 846.0626
97.81078, 840.5039
98.29290, 833.9769
98.77502, 825.5637
99.25713, 813.5994
99.73925, 803.5754
100.2214, 796.0262
100.7035, 789.5757
101.1856, 783.5519
101.6677, 777.8144
102.1498, 772.6705
102.6320, 768.5263
103.1141, 765.5822
103.5962, 763.2347
104.0783, 761.5383
104.5604, 760.2892
105.0425, 759.3680
105.5247, 758.7639
106.0068, 758.2354
106.4889, 757.0011
106.9710, 754.7846
107.4531, 753.0871
107.9352, 752.6138
108.4173, 753.2264
108.8995, 754.2747
109.3816, 755.7100
109.8637, 757.3459
110.3458, 758.9149
110.8279, 760.3322
111.3100, 761.8876
111.7922, 764.0299
112.2743, 766.9583
112.7564, 769.7903
113.2385, 771.5046
113.7206, 773.3333
114.2027, 776.3470
114.6849, 781.0068
115.1670, 787.1553
115.6491, 794.1676
116.1312, 802.5429
116.6133, 811.4293
117.0954, 822.8674
117.5776, 834.4883
118.0597, 843.0035
118.5418, 846.1529
119.0239, 843.8875
119.5060, 838.2482
119.9881, 825.9798
120.4703, 814.0696
120.9524, 804.9050
121.4345, 798.6591
121.9166, 794.6667
122.3987, 792.6906
122.8808, 793.1483
123.3630, 793.1249
123.8451, 792.8729
124.3272, 792.0100
124.8093, 790.1252
125.2914, 787.1141
125.7735, 783.2897
126.2557, 778.4803
126.7378, 772.9229
127.2199, 767.8028
127.7020, 763.4348
128.1841, 759.8438
128.6662, 757.2787
129.1483, 756.2688
129.6305, 755.7719
130.1126, 754.8636
130.5947, 753.5878
131.0768, 752.4485
131.5589, 751.8729
132.0410, 751.8993
132.5232, 752.1984
133.0053, 752.7559
133.4874, 753.5778
133.9695, 754.5159
134.4516, 755.6068
134.9337, 757.2184
135.4159, 759.9290
135.8980, 764.0292
136.3801, 768.8975
136.8622, 775.7321
137.3443, 782.5585
137.8264, 787.7906
138.3086, 790.8240
138.7907, 792.0172
139.2728, 792.2596
139.7549, 792.9307
140.2370, 790.9118
140.7191, 784.2063
141.2013, 774.9333
141.6834, 766.0245
142.1655, 758.9658
142.6476, 753.5587
143.1297, 749.0146
143.6118, 745.3786
144.0939, 742.3329
144.5761, 739.8279
145.0582, 737.8446
145.5403, 736.2602
146.0224, 735.0055
146.5045, 734.1694
146.9866, 733.8035
147.4688, 734.3806
147.9509, 735.0453
148.4330, 734.7225
148.9151, 733.1918
149.3972, 732.0469
149.8793, 732.8223
150.3615, 734.4620
150.8436, 735.6811
151.3257, 735.7158
151.8078, 735.1917
152.2899, 735.5779
152.7720, 737.2883
153.2542, 739.2500
153.7363, 741.2909
154.2184, 743.2139
154.7005, 744.6901
155.1826, 745.3654
155.6647, 745.3544
156.1469, 745.8450
156.6290, 747.1487
157.1111, 748.7174
157.5932, 750.5530
158.0753, 752.5511
158.5574, 754.4570
159.0396, 755.9338
159.5217, 756.7879
160.0038, 759.0865
160.4859, 764.4402
160.9680, 769.5912
161.4501, 773.2162
161.9323, 775.2857
162.4144, 776.5071
162.8965, 777.6196
163.3786, 778.7708
163.8607, 778.8405
164.3428, 778.0223
164.8250, 776.1339
165.3071, 772.5866
165.7892, 767.3851
166.2713, 761.8126
166.7534, 757.3190
167.2355, 754.0102
167.7177, 751.2885
168.1998, 748.6143
168.6819, 746.6542
169.1640, 746.6191
169.6461, 749.0674
170.1282, 752.2883
170.6104, 753.9036
171.0925, 754.1116
171.5746, 754.9924
172.0567, 757.7156
172.5388, 761.7707
173.0209, 765.6841
173.5031, 769.1819
173.9852, 772.4741
174.4673, 775.8596
174.9494, 779.3093
175.4315, 782.6144
175.9136, 786.0705
176.3958, 789.6298
176.8779, 791.4926
177.3600, 790.3640
177.8421, 788.1734
178.3242, 785.8538
178.8063, 783.5012
179.2885, 781.0256
179.7706, 778.0335
180.2527, 774.1213
180.7348, 771.4955
181.2169, 770.8701
181.6990, 771.1050
182.1812, 771.7114
182.6633, 772.5905
183.1454, 773.8947
183.6275, 775.7590
184.1096, 777.8730
184.5917, 781.3903
185.0738, 786.9504
185.5560, 793.1851
186.0381, 799.5388
186.5202, 805.7172
187.0023, 811.2613
187.4844, 815.4005
187.9665, 818.3027
188.4487, 819.1132
188.9308, 817.4119
189.4129, 813.9490
189.8950, 809.2868
190.3771, 803.6413
190.8592, 797.0177
191.3414, 789.2576
191.8235, 779.3232
192.3056, 770.2685
192.7877, 762.6156
193.2698, 756.0042
193.7519, 749.9158
194.2341, 744.1524
194.7162, 738.8920
195.1983, 734.5615
195.6804, 730.9865
196.1625, 728.2878
196.6446, 726.7337
197.1268, 726.0784
197.6089, 725.8302
198.0910, 725.9559
198.5731, 726.2316
199.0552, 726.2555
199.5373, 725.9636
200.0195, 725.7819
200.5016, 725.9207
200.9837, 726.3605
201.4658, 727.0368
201.9479, 728.1424
202.4300, 729.2711
202.9122, 730.0521
203.3943, 730.4841
203.8764, 730.5363
204.3585, 730.3401
204.8406, 729.8952
205.3227, 728.5450
205.8048, 725.3398
206.2870, 721.7196
206.7691, 718.6503
207.2512, 716.2511
207.7333, 714.2258
208.2154, 712.3304
208.6975, 710.5759
209.1797, 708.8867
209.6618, 706.9727
210.1439, 705.3120
210.6260, 704.3702
211.1081, 704.1639
211.5902, 704.1225
212.0724, 703.4002
212.5545, 701.6057
213.0366, 700.3434
213.5187, 699.8002
214.0008, 699.7084
214.4829, 700.1107
214.9651, 700.9305
215.4472, 701.8121
215.9293, 702.1193
216.4114, 701.1131
216.8935, 701.1275
217.3756, 702.8206
217.8578, 704.8854
218.3399, 706.4689
218.8220, 707.3668
219.3041, 707.9101
219.7862, 708.5365
220.2683, 708.9130
220.7505, 710.1429
221.2326, 712.8965
221.7147, 715.9933
222.1968, 718.4475
222.6789, 720.0557
223.1610, 721.3997
223.6432, 723.3572
224.1253, 726.3891
224.6074, 729.1188
225.0895, 731.8419
225.5716, 734.1152
226.0537, 735.5273
226.5358, 735.9888
227.0180, 735.6794
227.5001, 734.8348
227.9822, 733.4861
228.4643, 731.3152
228.9464, 728.3096
229.4285, 724.4633
229.9107, 719.2547
230.3928, 712.5072
230.8749, 705.9274
231.3570, 701.9618
231.8391, 700.7938
232.3212, 699.9216
232.8034, 698.8386
233.2855, 697.9136
233.7676, 698.1019
234.2497, 699.8479
234.7318, 701.0927
235.2139, 698.6190
235.6961, 692.9536
236.1782, 688.2398
236.6603, 685.9175
237.1424, 685.0488
237.6245, 684.3005
238.1066, 683.5558
238.5888, 682.7513
239.0709, 681.8499
239.5530, 680.8489
240.0351, 679.6579
240.5172, 678.1132
240.9993, 676.3763
241.4815, 674.6728
241.9636, 672.8701
242.4457, 671.4725
242.9278, 671.0775
243.4099, 671.3342
243.8920, 671.5717
244.3742, 671.5345
244.8563, 671.2834
245.3384, 670.9367
245.8205, 670.4587
246.3026, 669.9667
246.7847, 669.2370
247.2668, 668.5687
247.7490, 668.5538
248.2311, 669.8734
248.7132, 671.8180
249.1953, 672.5339
249.6774, 671.3983
250.1595, 670.2692
250.6417, 670.0594
251.1238, 670.2883
251.6059, 670.3318
252.0880, 669.8531
252.5701, 669.0872
253.0522, 668.7288
253.5344, 669.3032
254.0165, 669.2135
254.4986, 667.5059
254.9807, 665.1778
255.4628, 663.3493
255.9449, 662.5654
256.4271, 662.3444
256.9092, 661.5165
257.3913, 659.6865
257.8734, 657.9926
258.3555, 656.5898
258.8376, 655.4415
259.3198, 654.5219
259.8019, 653.8262
260.2840, 653.3258
260.7661, 652.9774
261.2482, 652.8522
261.7303, 652.7488
262.2125, 652.7402
262.6946, 652.6780
263.1767, 652.4578
263.6588, 652.0394
264.1409, 651.4245
264.6230, 650.5491
265.1052, 649.0435
265.5873, 648.0192
266.0694, 647.9152
266.5515, 647.9686
267.0336, 647.5667
267.5157, 646.5995
267.9979, 645.4501
268.4800, 644.7062
268.9621, 644.6321
269.4442, 644.4107
269.9263, 644.1222
270.4084, 643.6681
270.8906, 642.9658
271.3727, 642.0187
271.8548, 640.8907
272.3369, 639.5864
272.8190, 637.8564
273.3011, 636.8815
273.7833, 637.1148
274.2654, 637.5723
274.7475, 637.8600
275.2296, 637.8746
275.7117, 637.5485
276.1938, 636.7284
276.6760, 635.2166
277.1581, 634.4854
277.6402, 635.1892
278.1223, 635.8785
278.6044, 635.7346
279.0865, 634.9235
279.5686, 634.2157
280.0508, 634.2937
280.5329, 635.1863
281.0150, 635.3621
281.4971, 634.3180
281.9792, 633.2174
282.4613, 632.5184
282.9435, 632.1075
283.4256, 631.6336
283.9077, 630.8549
284.3898, 629.8158
284.8719, 628.9854
285.3540, 628.3107
285.8362, 627.8508
286.3183, 627.7362
286.8004, 627.8357
287.2825, 627.9060
287.7646, 627.8123
288.2467, 627.6353
288.7289, 627.6644
289.2110, 628.1926
289.6931, 628.5552
290.1752, 628.5823
290.6573, 628.4044
291.1394, 628.2567
291.6216, 628.2449
292.1037, 628.1630
292.5858, 627.4972
293.0679, 625.5619
293.5500, 624.3883
294.0321, 624.7723
294.5143, 625.7609
294.9964, 626.2368
295.4785, 625.9030
295.9606, 625.3431
296.4427, 625.4618
296.9248, 626.7326
297.4070, 627.1721
297.8891, 625.8505
298.3712, 624.1833
298.8533, 623.4482
299.3354, 623.8245
299.8175, 624.6830
300.2997, 625.5095
300.7818, 626.3298
301.2639, 626.5599
301.7460, 625.7850
302.2281, 624.7567
302.7102, 623.7939
303.1924, 622.9871
303.6745, 622.6022
304.1566, 623.0150
304.6387, 624.1298
305.1208, 624.3196
305.6029, 622.7265
306.0851, 621.1325
306.5672, 620.5605
307.0493, 620.7643
307.5314, 620.8204
308.0135, 620.1243
308.4956, 618.9520
308.9778, 618.5507
309.4599, 619.9128
309.9420, 620.6882
310.4241, 619.4745
310.9062, 617.2010
311.3883, 615.7806
311.8705, 616.0978
312.3526, 617.3572
312.8347, 617.7630
313.3168, 616.9392
313.7989, 616.3157
314.2810, 616.1911
314.7632, 616.4171
315.2453, 616.8077
315.7274, 617.3137
316.2095, 617.9830
316.6916, 618.9935
317.1737, 620.5442
317.6559, 621.5145
318.1380, 621.4304
318.6201, 620.9573
319.1022, 620.5859
319.5843, 620.4066
320.0664, 620.5049
320.5485, 620.9899
321.0306, 621.9031
321.5128, 622.8931
321.9949, 624.0421
322.4770, 625.1998
322.9591, 626.2462
323.4412, 627.1992
323.9233, 628.1481
324.4055, 629.0710
324.8876, 630.0588
325.3697, 631.6295
325.8518, 634.1943
326.3339, 636.7980
326.8160, 639.0510
327.2982, 641.0833
327.7803, 643.2011
328.2624, 645.5438
328.7445, 648.0691
329.2266, 650.6868
329.7087, 653.3578
330.1909, 656.1710
330.6730, 659.3596
331.1551, 662.6165
331.6372, 665.3676
332.1193, 667.4348
332.6014, 669.5107
333.0836, 672.7375
333.5657, 677.8078
334.0478, 681.9151
334.5299, 684.4872
335.0120, 686.3588
335.4941, 688.1121
335.9763, 689.8419
336.4584, 691.5610
336.9405, 693.3673
337.4226, 695.3085
337.9047, 696.2707
338.3868, 695.8561
338.8690, 694.9747
339.3511, 693.8661
339.8332, 692.6542
340.3153, 691.5845
340.7974, 690.8222
341.2795, 690.3245
341.7617, 689.8378
342.2438, 688.9234
342.7259, 688.5284
343.2080, 689.6960
343.6901, 691.3214
344.1722, 691.8610
344.6544, 690.6904
345.1365, 688.0097
345.6186, 684.1879
346.1007, 678.1957
346.5828, 672.5359
347.0649, 667.4713
347.5471, 662.6371
348.0292, 657.7928
348.5113, 652.8895
348.9934, 647.7879
349.4755, 642.2859
349.9576, 635.9962
350.4398, 630.9527
350.9219, 627.6257
351.4040, 624.8887
351.8861, 622.3246
352.3682, 619.8766
352.8503, 617.5391
353.3325, 615.2707
353.8146, 613.1132
354.2967, 611.7498
354.7788, 611.9266
355.2609, 612.0360
355.7430, 611.6464
356.2252, 611.0114
356.7073, 610.4658
357.1894, 610.1677
357.6715, 610.1339
358.1536, 610.4193
358.6357, 611.2785
359.1179, 612.0986
359.5999, 612.7519
360.0821, 613.4314
360.5642, 614.3007
361.0463, 615.3922
361.5284, 616.6104
362.0105, 617.8762
362.4926, 619.2604
362.9748, 620.4237
363.4569, 621.1536
363.9390, 621.8796
364.4211, 622.8883
364.9032, 624.0702
365.3853, 625.0813
365.8675, 625.6493
366.3496, 625.8148
366.8317, 625.9609
367.3138, 625.9587
367.7959, 626.1080
368.2780, 626.2834
368.7602, 626.6984
369.2423, 627.7330
369.7244, 629.5702
370.2065, 631.7373
370.6886, 633.2354
371.1707, 633.6812
371.6529, 634.4154
372.1350, 635.7126
372.6171, 637.2741
373.0992, 638.8167
373.5813, 640.3467
374.0634, 642.2707
374.5456, 645.0294
375.0277, 648.6380
375.5098, 652.6319
375.9919, 657.4716
376.4740, 662.1854
376.9561, 666.4735
377.4383, 670.3124
377.9204, 673.6319
378.4025, 676.3528
378.8846, 678.5730
379.3667, 680.6426
379.8488, 682.7328
380.3310, 684.2061
380.8131, 684.8847
381.2952, 684.8030
381.7773, 683.8672
382.2594, 682.0067
382.7415, 679.5021
383.2237, 676.6436
383.7058, 673.4260
384.1879, 669.7527
384.6700, 665.3738
385.1521, 660.7318
385.6342, 655.9401
386.1164, 651.0905
386.5985, 646.9307
387.0806, 644.1279
387.5627, 642.3290
388.0448, 640.7103
388.5269, 639.2224
389.0091, 637.8867
389.4912, 636.6339
389.9733, 635.5468
390.4554, 634.8562
390.9375, 634.4425
391.4196, 634.5973
391.9018, 635.7239
392.3839, 637.7592
392.8660, 640.0842
393.3481, 642.4420
393.8302, 644.9440
394.3123, 647.9515
394.7945, 651.8431
395.2766, 655.0242
395.7587, 656.6987
396.2408, 657.2922
396.7229, 657.4709
397.2050, 657.3781
397.6872, 656.9247
398.1693, 656.0808
398.6514, 654.8287
399.1335, 652.7133
399.6156, 649.0358
400.0977, 645.0084
400.5798, 641.8530
401.0620, 639.2629
401.5441, 635.6486
402.0262, 629.8562
402.5083, 622.3926
402.9904, 615.9435
403.4725, 610.9921
403.9547, 606.2772
404.4368, 601.2391
404.9189, 596.4265
405.4010, 592.8792
405.8831, 590.8668
406.3652, 589.1887
406.8474, 585.9919
407.3295, 580.4249
407.8116, 575.8647
408.2937, 572.9091
408.7758, 570.3163
409.2579, 567.2783
409.7401, 563.9358
410.2222, 560.9637
410.7043, 558.8688
411.1864, 557.5544
411.6685, 556.0880
412.1506, 554.4517
412.6328, 552.6702
413.1149, 550.3807
413.5970, 548.1153
414.0791, 546.4835
414.5612, 545.6844
415.0433, 545.3788
415.5255, 545.1137
416.0076, 544.9642
416.4897, 544.5878
416.9718, 543.9903
417.4539, 543.1307
417.9360, 541.7757
418.4182, 540.0806
418.9003, 538.5207
419.3824, 537.2833
419.8645, 536.4626
420.3466, 536.6303
420.8287, 538.3930
421.3109, 539.8703
421.7930, 540.0706
422.2751, 539.6902
422.7572, 539.4201
423.2393, 539.4181
423.7214, 539.6951
424.2036, 540.3198
424.6857, 541.2827
425.1678, 542.4218
425.6499, 544.0698
426.1320, 545.3964
426.6141, 545.3591
427.0963, 544.1630
427.5784, 543.4214
428.0605, 544.1545
428.5426, 545.6169
429.0247, 546.5803
429.5068, 546.9504
429.9890, 547.5180
430.4711, 548.8671
430.9532, 550.7857
431.4353, 552.5075
431.9174, 554.1666
432.3995, 555.4283
432.8817, 556.2518
433.3638, 556.5392
433.8459, 555.9070
434.3280, 554.1500
434.8101, 552.0085
435.2922, 550.6035
435.7744, 550.2913
436.2565, 549.1650
436.7386, 546.6696
437.2207, 543.7274
437.7028, 540.9409
438.1849, 538.3122
438.6671, 535.5662
439.1492, 532.4966
439.6313, 529.1805
440.1134, 526.1473
440.5955, 523.4597
441.0776, 520.9850
441.5598, 518.6713
442.0418, 516.5977
442.5240, 514.9323
443.0061, 513.6956
443.4882, 512.6556
443.9703, 511.5093
444.4524, 510.1918
444.9345, 509.0756
445.4167, 508.3015
445.8988, 507.5991
446.3809, 506.8192
446.8630, 506.0515
447.3451, 505.5087
447.8272, 505.3649
448.3094, 505.3997
448.7915, 505.0576
449.2736, 504.2635
449.7557, 503.2929
450.2378, 501.6548
450.7199, 500.2281
451.2021, 499.8809
451.6842, 500.6351
452.1663, 501.3929
452.6484, 501.1815
453.1305, 500.2210
453.6126, 499.4853
454.0948, 499.0846
454.5769, 498.8025
455.0590, 498.5474
455.5411, 498.3081
456.0232, 498.0680
456.5053, 497.8668
456.9875, 497.6113
457.4696, 497.0830
457.9517, 496.3882
458.4338, 495.9657
458.9159, 495.9096
459.3980, 496.2965
459.8802, 497.6612
460.3623, 500.2399
460.8444, 501.5353
461.3265, 499.6641
461.8086, 497.2967
462.2907, 497.0390
462.7729, 498.8052
463.2550, 500.7930
463.7371, 501.8190
464.2192, 502.0313
464.7013, 502.3166
465.1834, 502.6761
465.6656, 503.0999
466.1477, 503.5002
466.6298, 504.0134
467.1119, 504.7386
467.5940, 505.7221
468.0761, 507.0397
468.5583, 508.8456
469.0404, 511.2799
469.5225, 513.3927
470.0046, 515.0219
470.4867, 516.4908
470.9688, 517.7943
471.4510, 519.0164
471.9331, 520.3090
472.4152, 521.7672
472.8973, 523.1815
473.3794, 524.1851
473.8615, 524.7769
474.3437, 524.9559
474.8258, 524.8159
475.3079, 524.1304
475.7900, 522.4906
476.2721, 520.0634
476.7542, 517.6736
477.2364, 515.8321
477.7185, 514.3935
478.2006, 512.8790
478.6827, 511.1815
479.1648, 510.1192
479.6469, 510.4792
480.1291, 511.6077
480.6112, 512.2376
481.0933, 512.0770
481.5754, 512.0969
482.0575, 512.6210
482.5396, 513.6998
483.0217, 515.5551
483.5038, 518.2552
483.9860, 521.2566
484.4681, 524.0847
484.9502, 526.7231
485.4323, 529.4304
485.9144, 531.9877
486.3965, 534.8262
486.8787, 537.7917
487.3608, 541.2435
487.8429, 545.9037
488.3250, 552.0712
488.8071, 559.1678
489.2892, 566.1171
489.7714, 572.7936
490.2535, 579.7712
490.7356, 588.0031
491.2177, 595.5909
491.6998, 601.8594
492.1819, 606.6526
492.6641, 609.9724
493.1462, 611.9026
493.6283, 612.1370
494.1104, 609.7288
494.5925, 604.4731
495.0746, 597.1432
495.5568, 586.4609
496.0389, 574.7999
496.5210, 563.4915
497.0031, 552.7527
497.4852, 542.4955
497.9673, 532.5872
498.4495, 523.1958
498.9316, 514.8434
499.4137, 507.5560
499.8958, 501.2455
500.3779, 496.0290
500.8600, 491.6971
501.3422, 487.7540
501.8243, 484.1429
502.3064, 480.9604
502.7885, 478.3193
503.2706, 476.1016
503.7527, 474.0313
504.2349, 472.0544
504.7170, 470.3791
505.1991, 469.3064
505.6812, 468.8776
506.1633, 468.0252
506.6454, 466.2848
507.1276, 464.6880
507.6097, 463.5954
508.0918, 462.8962
508.5739, 462.5155
509.0560, 462.4043
509.5381, 462.2780
510.0203, 461.5897
510.5024, 459.9782
510.9845, 459.0462
511.4666, 459.6929
511.9487, 460.1308
512.4308, 459.4098
512.9130, 457.9896
513.3951, 456.8130
513.8772, 456.3409
514.3593, 456.3885
514.8414, 456.7704
515.3235, 457.5792
515.8057, 458.0360
516.2878, 458.0729
516.7699, 457.5453
517.2520, 456.0872
517.7341, 453.8610
518.2162, 452.0032
518.6984, 451.1240
519.1805, 450.7867
519.6626, 450.4639
520.1447, 450.1522
520.6268, 449.9771
521.1089, 450.0006
521.5911, 450.1958
522.0732, 450.6374
522.5553, 451.7262
523.0374, 451.9238
523.5195, 450.1617
524.0016, 447.9719
524.4838, 446.8174
524.9659, 446.6501
525.4480, 446.3929
525.9301, 445.2145
526.4122, 443.3937
526.8943, 442.3752
527.3765, 443.0707
527.8586, 443.2892
528.3407, 442.2280
528.8228, 441.0695
529.3049, 440.9665
529.7870, 441.9078
530.2692, 442.8517
530.7513, 442.8956
531.2334, 442.1576
531.7155, 441.2533
532.1976, 440.0111
532.6797, 439.0150
533.1619, 438.7177
533.6440, 438.6977
534.1261, 438.4562
534.6082, 437.8616
535.0903, 437.5438
535.5724, 438.2468
536.0546, 439.4507
536.5367, 440.0260
537.0188, 439.8124
537.5009, 439.2606
537.9830, 438.5714
538.4651, 437.8183
538.9473, 437.3974
539.4294, 437.5621
539.9115, 437.7012
540.3936, 437.5150
540.8757, 437.2686
541.3578, 437.4422
541.8400, 438.0546
542.3221, 438.4808
542.8042, 438.0038
543.2863, 436.6015
543.7684, 435.6852
544.2505, 435.6217
544.7326, 435.6421
545.2147, 435.6899
545.6968, 435.7088
546.1790, 435.6547
546.6611, 435.5159
547.1432, 435.2927
547.6253, 434.9165
548.1074, 434.4140
548.5895, 434.1184
549.0717, 434.1012
549.5538, 434.1667
550.0359, 434.2521
550.5180, 434.3322
551.0001, 434.3385
551.4822, 434.1793
551.9644, 434.1401
552.4465, 434.3931
552.9286, 434.8931
553.4107, 435.6602
553.8928, 436.7070
554.3749, 437.6200
554.8571, 438.0223
555.3392, 437.9206
555.8213, 437.6905
556.3034, 436.9748
556.7855, 436.5796
557.2676, 436.8349
557.7498, 437.4621
558.2319, 438.2596
558.7140, 439.1171
559.1961, 439.7628
559.6782, 439.7813
560.1603, 439.1581
560.6425, 439.2348
561.1246, 440.8433
561.6067, 441.9199
562.0888, 441.3917
562.5709, 440.2794
563.0530, 439.7653
563.5352, 440.1450
564.0173, 440.7448
564.4994, 441.0593
564.9815, 441.1363
565.4636, 441.0468
565.9457, 440.7281
566.4279, 440.6129
566.9100, 441.0009
567.3921, 441.8392
567.8742, 442.8765
568.3563, 444.5421
568.8384, 445.6940
569.3206, 445.7174
569.8027, 445.1296
570.2848, 444.5194
570.7669, 443.9919
571.2490, 443.3769
571.7311, 442.5284
572.2133, 441.4598
572.6954, 440.3576
573.1775, 439.1177
573.6596, 437.9855
574.1417, 437.0911
574.6238, 436.2421
575.1060, 435.2139
575.5881, 434.0132
576.0702, 432.8985
576.5523, 431.9619
577.0344, 431.2919
577.5165, 431.4502
577.9987, 432.7518
578.4808, 433.4747
578.9629, 432.4641
579.4450, 430.7484
579.9271, 429.6446
580.4092, 429.1503
580.8914, 429.4332
581.3735, 431.3628
581.8556, 433.5978
582.3377, 434.4162
582.8198, 433.9525
583.3019, 433.6278
583.7841, 434.2352
584.2662, 435.5970
584.7483, 437.2619
585.2304, 439.9216
585.7125, 441.7152
586.1946, 441.8143
586.6768, 441.8403
587.1589, 442.8819
587.6410, 444.7198
588.1231, 446.4966
588.6052, 447.6757
589.0873, 448.6312
589.5695, 450.2126
590.0516, 452.5334
590.5337, 454.6172
591.0158, 455.7818
591.4979, 457.2762
591.9800, 460.2682
592.4622, 464.4515
592.9443, 468.5803
593.4264, 472.3461
593.9085, 475.8469
594.3906, 478.8576
594.8727, 481.6236
595.3549, 484.7822
595.8370, 488.5098
596.3191, 492.8664
596.8012, 497.9885
597.2833, 503.9667
597.7654, 510.1850
598.2476, 516.3101
598.7297, 523.0127
599.2118, 530.2076
599.6939, 538.2548
600.1760, 547.5636
600.6581, 558.2815
601.1403, 570.2725
601.6224, 583.4794
602.1045, 597.9404
602.5866, 613.4519
603.0687, 630.0042
603.5508, 647.4933
604.0330, 665.4227
604.5151, 684.4590
604.9972, 705.5920
605.4793, 729.4540
605.9614, 753.2307
606.4435, 776.2886
606.9257, 798.1952
607.4078, 819.3342
607.8899, 839.2150
608.3720, 854.8682
608.8541, 864.7090
609.3362, 868.3063
609.8184, 864.2257
610.3005, 850.5634
610.7826, 831.3052
611.2647, 804.7990
611.7468, 774.4127
612.2289, 740.3209
612.7111, 704.2015
613.1932, 668.9810
613.6753, 635.9309
614.1574, 605.7779
614.6395, 580.1006
615.1216, 558.9933
615.6038, 539.1926
616.0859, 519.3926
616.5680, 501.6884
617.0501, 488.3770
617.5322, 478.5153
618.0143, 469.3338
618.4965, 460.0285
618.9786, 451.5419
619.4607, 444.6180
619.9428, 438.8729
620.4249, 433.5394
620.9070, 428.4419
621.3892, 423.9472
621.8713, 420.4133
622.3534, 417.8276
622.8355, 416.1394
623.3176, 416.9966
623.7997, 416.6035
624.2819, 413.7676
624.7640, 409.8974
625.2461, 405.8354
625.7282, 401.9404
626.2103, 398.8523
626.6924, 397.4036
627.1745, 397.0079
627.6566, 396.2196
628.1387, 395.0041
628.6208, 393.8659
629.1030, 392.9756
629.5851, 392.2666
630.0672, 391.7671
630.5493, 391.5253
631.0314, 390.8440
631.5135, 388.9449
631.9957, 387.2155
632.4778, 386.6482
632.9599, 386.8955
633.4420, 387.2706
633.9241, 387.4933
634.4063, 387.4633
634.8884, 386.9659
635.3705, 385.9106
635.8526, 385.1508
636.3347, 385.1882
636.8168, 384.8040
637.2990, 383.1248
637.7811, 381.0570
638.2632, 379.6918
638.7453, 379.2718
639.2274, 379.2194
639.7095, 379.4107
640.1917, 379.6107
640.6738, 379.3451
641.1559, 378.5987
641.6380, 377.7100
642.1201, 376.8131
642.6022, 375.9742
643.0844, 375.3686
643.5665, 375.3287
644.0486, 374.8120
644.5307, 373.2277
645.0128, 371.7426
645.4949, 370.9529
645.9771, 370.7601
646.4592, 370.9514
646.9413, 371.4466
647.4234, 371.9554
647.9055, 372.1278
648.3876, 371.9615
648.8698, 371.2470
649.3519, 369.6090
649.8340, 368.2527
650.3161, 368.2707
650.7982, 368.9937
651.2803, 369.0507
651.7625, 368.0783
652.2446, 367.1424
652.7267, 366.7510
653.2088, 366.5485
653.6909, 366.0320
654.1730, 365.2763
654.6552, 364.8962
655.1373, 365.3208
655.6194, 366.1040
656.1015, 365.9787
656.5836, 364.3203
657.0657, 363.3742
657.5479, 364.1505
658.0300, 364.8079
658.5121, 364.3198
658.9942, 363.1749
659.4763, 362.4181
659.9584, 362.4542
660.4406, 362.7515
660.9227, 363.0747
661.4048, 363.2647
661.8869, 362.7210
662.3690, 361.3407
662.8511, 360.1096
663.3333, 359.7557
663.8154, 360.0732
664.2975, 360.2025
664.7796, 360.1005
665.2617, 359.8636
665.7438, 359.3109
666.2260, 358.7826
666.7081, 358.5414
667.1902, 358.5229
667.6723, 358.5449
668.1544, 358.5430
668.6365, 358.4012
669.1187, 357.8497
669.6008, 356.9118
670.0829, 356.1176
670.5650, 355.5690
671.0471, 355.0853
671.5292, 354.2901
672.0114, 353.4876
672.4935, 353.7587
672.9756, 356.1507
673.4577, 357.8038
673.9398, 357.5135
674.4219, 356.3391
674.9041, 355.0495
675.3862, 353.8488
675.8683, 352.8648
676.3504, 352.1689
676.8325, 351.7511
677.3146, 351.6733
677.7968, 352.0663
678.2789, 352.0878
678.7610, 350.8581
679.2431, 350.2878
679.7252, 352.4683
680.2073, 355.9067
680.6895, 357.4218
681.1716, 355.7479
681.6537, 353.6367
682.1358, 352.2689
682.6179, 351.6160
683.1000, 351.9452
683.5822, 353.0924
684.0643, 354.0208
684.5464, 354.0251
685.0285, 353.4582
685.5106, 353.3682
685.9927, 354.1204
686.4749, 354.4914
686.9570, 354.2366
687.4391, 353.7885
687.9212, 353.1407
688.4033, 352.4767
688.8854, 352.1097
689.3676, 352.1680
689.8497, 352.4221
690.3318, 352.7601
690.8139, 353.1345
691.2960, 353.3840
691.7781, 353.5054
692.2603, 353.8122
692.7424, 354.5644
693.2245, 355.5082
693.7066, 355.9593
694.1887, 355.4873
694.6708, 355.3858
695.1530, 355.8876
695.6351, 356.4865
696.1172, 357.0387
696.5993, 357.4901
697.0814, 357.7501
697.5635, 357.7788
698.0457, 357.7756
698.5278, 357.9920
699.0099, 358.3379
699.4920, 358.4073
699.9741, 358.1379
700.4562, 358.2569
700.9384, 359.2819
701.4205, 360.7583
701.9026, 361.7357
702.3847, 362.0797
702.8668, 362.2449
703.3489, 362.1490
703.8311, 361.9705
704.3132, 361.8489
704.7953, 361.6872
705.2774, 361.2208
705.7595, 360.3995
706.2416, 359.6773
706.7238, 359.6432
707.2059, 360.1388
707.6880, 360.4924
708.1701, 360.6914
708.6522, 360.7023
709.1343, 360.3185
709.6164, 359.9675
710.0985, 360.5072
710.5806, 362.1527
711.0627, 363.0592
711.5449, 362.8225
712.0270, 362.1279
712.5091, 360.8740
712.9912, 359.5521
713.4733, 358.8054
713.9554, 358.7741
714.4376, 359.1582
714.9197, 359.7973
715.4018, 360.5807
715.8839, 361.1396
716.3660, 361.5021
716.8481, 361.3699
717.3303, 360.3722
717.8124, 359.2251
718.2945, 358.7404
718.7766, 358.8790
719.2587, 359.1694
719.7408, 359.3326
720.2230, 359.9273
720.7051, 361.6844
721.1872, 363.6997
721.6693, 364.8913
722.1514, 365.1597
722.6335, 365.1117
723.1157, 365.1571
723.5978, 365.2946
724.0799, 365.5168
724.5620, 365.8224
725.0441, 366.2499
725.5262, 366.8737
726.0084, 367.5023
726.4905, 368.0588
726.9726, 368.4951
727.4547, 368.6269
727.9368, 368.6476
728.4189, 368.0476
728.9011, 366.1153
729.3832, 363.9046
729.8653, 362.3657
730.3474, 361.5135
730.8295, 361.1408
731.3116, 361.2128
731.7938, 361.0280
732.2759, 359.0156
732.7580, 355.1411
733.2401, 352.1188
733.7222, 350.3575
734.2043, 348.9462
734.6865, 347.4120
735.1686, 345.8682
735.6507, 344.5803
736.1328, 343.6620
736.6149, 342.6228
737.0970, 341.0506
737.5792, 339.6096
738.0613, 338.9142
738.5434, 338.6543
739.0255, 338.1241
739.5076, 337.0918
739.9897, 336.0514
740.4719, 335.7171
740.9540, 335.9425
741.4361, 335.6073
741.9182, 334.5973
742.4003, 333.6215
742.8824, 333.0195
743.3646, 332.4823
743.8467, 331.4010
744.3288, 329.7499
744.8109, 328.8930
745.2930, 329.8117
745.7751, 330.5280
746.2573, 330.0780
746.7394, 329.0816
747.2215, 328.2373
747.7036, 327.6766
748.1857, 327.1648
748.6678, 326.4512
749.1500, 325.8014
749.6321, 326.1059
750.1142, 327.3641
750.5963, 327.6671
751.0784, 326.4134
751.5605, 324.7971
752.0427, 323.6722
752.5248, 322.9919
753.0069, 322.4486
753.4890, 322.1517
753.9711, 321.8097
754.4532, 321.1978
754.9354, 320.6906
755.4175, 320.7460
755.8996, 321.0977
756.3817, 321.1093
756.8638, 320.5014
757.3459, 319.6277
757.8281, 318.8468
758.3102, 318.1474
758.7923, 317.5159
759.2744, 316.9525
759.7565, 316.3927
760.2386, 315.8021
760.7208, 315.2027
761.2029, 314.6293
761.6850, 314.0795
762.1671, 313.5663
762.6492, 313.1459
763.1313, 312.6971
763.6135, 312.1018
764.0956, 311.5093
764.5777, 311.1110
765.0598, 310.9131
765.5419, 310.7180
766.0240, 310.3581
766.5062, 309.9636
766.9883, 309.7723
767.4704, 309.7178
767.9525, 309.5547
768.4346, 309.2263
768.9167, 308.6879
769.3989, 307.8670
769.8810, 306.8180
770.3631, 305.9068
770.8452, 305.0722
771.3273, 304.4852
771.8094, 304.4221
772.2916, 304.3373
772.7737, 303.8360
773.2558, 303.1182
773.7379, 302.6631
774.2200, 302.6832
774.7021, 302.6348
775.1843, 302.0532
775.6664, 301.2574
776.1485, 300.6240
776.6306, 300.1865
777.1127, 299.9798
777.5948, 300.0267
778.0770, 300.0632
778.5591, 299.6480
779.0412, 298.7491
779.5233, 298.0660
780.0054, 297.5912
780.4875, 297.3543
780.9697, 297.5140
781.4518, 297.8101
781.9339, 298.0771
782.4160, 298.2913
782.8981, 298.2233
783.3802, 297.6890
783.8624, 297.0092
784.3445, 296.1733
784.8266, 295.3789
785.3087, 294.8788
785.7908, 294.6917
786.2729, 294.7310
786.7551, 294.9800
787.2372, 295.2575
787.7193, 295.0535
788.2014, 294.3791
788.6835, 294.3240
789.1656, 295.2352
789.6478, 295.9424
790.1299, 295.6262
790.6120, 294.6934
791.0941, 294.0811
791.5762, 293.7516
792.0583, 293.8290
792.5404, 294.6617
793.0225, 295.5312
793.5046, 296.3232
793.9868, 296.8442
794.4689, 296.7608
794.9510, 296.0660
795.4331, 295.3139
795.9152, 295.0894
796.3973, 294.9457
796.8795, 293.8758
797.3616, 292.1400
797.8437, 291.1784
798.3258, 291.3705
798.8079, 291.6931
799.2900, 291.2070
799.7722, 290.0997
800.2543, 289.4542
800.7364, 289.5324
801.2185, 289.5284
801.7006, 289.4297
802.1827, 289.1865
802.6649, 288.5827
803.1470, 287.8709
803.6291, 287.5110
804.1112, 287.6199
804.5933, 287.9479
805.0754, 288.6823
805.5576, 289.3339
806.0397, 289.3105
806.5218, 288.8109
807.0039, 288.2607
807.4860, 287.8413
807.9681, 287.7861
808.4503, 288.5315
808.9324, 289.8200
809.4145, 290.1075
809.8966, 289.1883
810.3787, 288.5671
810.8608, 288.7242
811.3430, 289.0841
811.8251, 289.1814
812.3072, 289.0312
812.7893, 288.7843
813.2714, 288.1463
813.7535, 287.8485
814.2357, 288.5492
814.7178, 289.1109
815.1999, 288.4675
815.6820, 287.1354
816.1641, 286.2177
816.6462, 286.0985
817.1284, 286.4298
817.6105, 287.3176
818.0926, 288.2668
818.5747, 288.0853
819.0568, 286.9415
819.5389, 286.0944
820.0211, 285.9913
820.5032, 286.1826
820.9853, 286.1465
821.4674, 285.9115
821.9495, 285.9865
822.4316, 286.8267
822.9138, 286.9694
823.3959, 285.5990
823.8780, 284.0107
824.3601, 283.0098
824.8422, 282.4606
825.3243, 282.0107
825.8065, 281.6758
826.2886, 281.2591
826.7707, 280.5303
827.2528, 279.8166
827.7349, 279.3308
828.2170, 279.1158
828.6992, 279.3127
829.1813, 279.9364
829.6634, 280.5236
830.1455, 280.5118
830.6276, 280.0794
831.1097, 279.8129
831.5919, 279.7114
832.0740, 279.6562
832.5561, 279.6193
833.0382, 279.6017
833.5203, 279.6272
834.0024, 279.6721
834.4846, 279.5504
834.9667, 278.9294
835.4488, 278.6907
835.9309, 279.3492
836.4130, 279.8850
836.8951, 279.5611
837.3773, 278.8138
837.8594, 278.5602
838.3415, 279.0934
838.8236, 279.3000
839.3057, 277.9728
839.7878, 276.5926
840.2700, 276.9261
840.7521, 278.2679
841.2342, 279.0206
841.7163, 278.7597
842.1984, 278.0043
842.6805, 277.1417
843.1627, 276.2661
843.6448, 275.6653
844.1269, 275.3462
844.6090, 275.2290
845.0911, 275.3933
845.5732, 275.4359
846.0554, 275.0573
846.5375, 274.3656
847.0196, 273.6297
847.5017, 272.5662
847.9838, 272.1328
848.4659, 273.0449
848.9481, 273.7291
849.4302, 273.3841
849.9123, 272.5963
850.3944, 272.0353
850.8765, 271.8017
851.3586, 271.7151
851.8408, 271.8648
852.3229, 271.9442
852.8050, 271.5794
853.2871, 271.0105
853.7692, 270.6219
854.2513, 270.4729
854.7335, 270.5276
855.2156, 270.8014
855.6977, 271.0015
856.1798, 270.4194
856.6619, 269.0930
857.1440, 268.2170
857.6262, 267.8454
858.1083, 268.0324
858.5904, 269.0884
859.0725, 270.2536
859.5546, 270.4135
860.0367, 269.4675
860.5189, 268.7008
861.0010, 268.0453
861.4831, 267.6587
861.9652, 267.6093
862.4473, 267.8003
862.9294, 268.2807
863.4116, 268.9342
863.8937, 269.5014
864.3758, 269.9498
864.8579, 270.1555
865.3400, 269.8220
865.8221, 269.3654
866.3043, 269.2711
866.7864, 269.4640
867.2685, 269.7172
867.7506, 269.9321
868.2327, 269.9786
868.7148, 269.6219
869.1970, 269.0536
869.6791, 268.9507
870.1612, 269.3130
870.6433, 269.7737
871.1254, 270.3072
871.6075, 270.6931
872.0897, 270.7510
872.5718, 270.5390
873.0539, 270.2044
873.5360, 269.4201
874.0181, 269.2645
874.5002, 270.2554
874.9823, 271.2895
875.4644, 271.8527
875.9465, 272.3711
876.4286, 273.6369
876.9108, 275.6087
877.3929, 276.7273
877.8750, 275.9016
878.3571, 274.7381
878.8392, 273.7799
879.3214, 273.1988
879.8035, 273.3989
880.2856, 274.1761
880.7677, 274.8859
881.2498, 275.2262
881.7319, 275.1450
882.2141, 274.3667
882.6962, 273.1460
883.1783, 272.1636
883.6604, 271.4645
884.1425, 271.2563
884.6246, 271.6442
885.1068, 272.2904
885.5889, 272.9181
886.0710, 273.4435
886.5531, 273.0993
887.0352, 271.4865
887.5173, 270.2111
887.9995, 269.9848
888.4816, 269.4033
888.9637, 267.1369
889.4458, 264.0411
889.9279, 261.8307
890.4100, 260.6918
890.8922, 259.8093
891.3743, 259.1523
891.8564, 258.6235
892.3385, 258.2801
892.8206, 257.9784
893.3027, 257.5199
893.7849, 256.9286
894.2670, 256.4655
894.7491, 256.3739
895.2312, 256.2073
895.7133, 255.3993
896.1954, 254.3255
896.6776, 253.6125
897.1597, 253.2523
897.6418, 252.9175
898.1239, 252.4707
898.6060, 252.0396
899.0881, 251.7722
899.5703, 251.6615
900.0524, 251.8061
900.5345, 252.2467
901.0166, 251.9986
901.4987, 250.6322
901.9808, 249.3376
902.4630, 249.1636
902.9451, 249.7321
903.4272, 249.6866
903.9093, 248.6064
904.3914, 247.8886
904.8735, 247.7823
905.3557, 247.7308
905.8378, 247.3273
906.3199, 247.0168
906.8020, 247.5113
907.2841, 248.7562
907.7662, 249.4662
908.2484, 248.9901
908.7305, 248.3627
909.2126, 248.0308
909.6947, 247.7049
910.1768, 246.9370
910.6589, 245.9634
911.1411, 245.4536
911.6232, 245.6699
912.1053, 245.9793
912.5874, 245.8267
913.0695, 245.4326
913.5516, 245.0119
914.0338, 244.6534
914.5159, 244.6867
914.9980, 245.1413
915.4801, 245.5178
915.9622, 245.4058
916.4443, 245.0209
916.9265, 244.9079
917.4086, 245.0656
917.8907, 245.0661
918.3728, 244.8770
918.8549, 244.5158
919.3370, 243.9251
919.8192, 243.3018
920.3013, 242.9274
920.7834, 242.8067
921.2655, 242.6609
921.7476, 242.5946
922.2297, 242.3225
922.7119, 241.4871
923.1940, 240.7527
923.6761, 240.6762
924.1582, 240.9303
924.6403, 240.7706
925.1224, 239.9697
925.6046, 239.4675
926.0867, 239.7341
926.5688, 240.0866
927.0509, 240.1618
927.5330, 240.1229
928.0151, 240.2438
928.4973, 240.4824
928.9794, 240.4829
929.4615, 239.9632
929.9436, 239.4619
930.4257, 239.4238
930.9078, 239.7112
931.3900, 240.3122
931.8721, 241.0444
932.3542, 241.3665
932.8363, 241.1196
933.3184, 240.7402
933.8005, 240.7297
934.2827, 240.8296
934.7648, 240.1552
935.2469, 238.8308
935.7290, 238.0648
936.2111, 238.0634
936.6932, 238.4320
937.1754, 239.0305
937.6575, 239.5518
938.1396, 239.3191
938.6217, 238.2141
939.1038, 237.9481
939.5859, 239.0046
940.0681, 239.5636
940.5502, 238.7961
941.0323, 237.9122
941.5144, 238.0227
941.9965, 238.8669
942.4786, 239.3414
942.9608, 239.3205
943.4429, 239.2124
943.9250, 239.0537
944.4071, 238.7868
944.8892, 238.2018
945.3713, 237.6178
945.8535, 237.4568
946.3356, 237.6962
946.8177, 237.8691
947.2998, 237.6079
947.7819, 237.5842
948.2640, 238.4673
948.7462, 239.4409
949.2283, 239.6602
949.7104, 239.3729
950.1925, 239.2901
950.6746, 239.5986
951.1567, 239.7463
951.6389, 238.9416
952.1210, 238.0638
952.6031, 238.3951
953.0852, 239.4783
953.5673, 240.4694
954.0494, 241.1711
954.5316, 241.4237
955.0137, 241.1328
955.4958, 240.5650
955.9779, 240.0313
956.4600, 239.5504
956.9421, 239.2244
957.4242, 239.0496
957.9063, 238.9580
958.3884, 238.9298
958.8705, 239.0085
959.3527, 239.2482
959.8348, 239.5786
960.3169, 239.7573
960.7990, 239.7160
961.2811, 239.9549
961.7632, 240.6954
962.2454, 241.1067
962.7275, 240.7869
963.2096, 240.1411
963.6917, 239.5828
964.1738, 239.1025
964.6559, 238.5682
965.1381, 237.9529
965.6202, 237.3340
966.1023, 236.4062
966.5844, 235.8281
967.0665, 236.2297
967.5486, 236.9583
968.0308, 237.0685
968.5129, 236.5089
968.9950, 236.1781
969.4771, 236.8035
969.9592, 236.9645
970.4413, 235.6686
970.9235, 234.1821
971.4056, 233.5503
971.8877, 233.5255
972.3698, 233.4100
972.8519, 233.0176
973.3340, 232.8171
973.8162, 233.3162
974.2983, 233.8603
974.7804, 233.8974
975.2625, 233.6482
975.7446, 233.3974
976.2267, 233.1884
976.7089, 232.9358
977.1910, 232.5911
977.6731, 232.3809
978.1552, 232.8328
978.6373, 233.4065
979.1194, 232.8339
979.6016, 231.5796
980.0837, 231.2297
980.5658, 232.0447
981.0479, 233.1272
981.5300, 233.8898
982.0121, 234.4297
982.4943, 234.9049
982.9764, 235.2993
983.4585, 235.5350
983.9406, 235.6068
984.4227, 235.4296
984.9048, 234.9512
985.3870, 234.5381
985.8691, 234.5369
986.3512, 234.8359
986.8333, 235.0705
987.3154, 235.2213
987.7975, 235.4210
988.2797, 235.6011
988.7618, 236.2046
989.2439, 237.6388
989.7260, 239.0771
990.2081, 239.4947
990.6902, 239.0166
991.1724, 238.8211
991.6545, 238.8569
992.1366, 239.3376
992.6187, 240.7693
993.1008, 241.8939
993.5829, 241.6652
994.0651, 241.1369
994.5472, 242.0419
995.0293, 244.4182
995.5114, 245.7487
995.9935, 244.7491
996.4756, 244.5339
996.9578, 246.3694
997.4399, 248.1651
997.9220, 248.6127
998.4041, 248.3190
998.8862, 248.3386
999.3683, 248.7986
999.8505, 248.8828
1000.333, 248.1411
1000.815, 247.3201
1001.297, 246.4793
1001.779, 245.8676
1002.261, 246.0426
1002.743, 246.5003
1003.225, 246.1574
1003.707, 244.7409
1004.190, 243.2843
1004.672, 242.2600
1005.154, 241.4169
1005.636, 240.7072
1006.118, 239.9884
1006.600, 239.0519
1007.082, 237.9501
1007.564, 236.8797
1008.046, 235.9075
1008.529, 234.9566
1009.011, 233.7602
1009.493, 232.7412
1009.975, 232.7788
1010.457, 233.1533
1010.939, 232.4214
1011.421, 230.6548
1011.903, 228.9650
1012.385, 227.8942
1012.868, 227.2263
1013.350, 226.5530
1013.832, 226.2262
1014.314, 227.4846
1014.796, 229.5872
1015.278, 230.1914
1015.760, 229.0415
1016.242, 227.5485
1016.725, 226.5257
1017.207, 225.7894
1017.689, 225.0831
1018.171, 224.4389
1018.653, 224.1160
1019.135, 224.0259
1019.617, 223.4581
1020.099, 222.2761
1020.581, 221.1203
1021.064, 220.4163
1021.546, 220.0610
1022.028, 219.9134
1022.510, 219.9561
1022.992, 220.0181
1023.474, 220.1015
1023.956, 219.9496
1024.438, 219.4611
1024.921, 219.1160
1025.403, 219.3139
1025.885, 219.7886
1026.367, 219.9283
1026.849, 219.7211
1027.331, 219.2888
1027.813, 218.5363
1028.295, 218.0836
1028.777, 218.0945
1029.260, 218.4889
1029.742, 219.2907
1030.224, 220.3101
1030.706, 221.0173
1031.188, 221.4247
1031.670, 221.4365
1032.152, 220.9419
1032.634, 220.3506
1033.116, 219.6624
1033.599, 219.1205
1034.081, 218.8920
1034.563, 218.9862
1035.045, 219.4740
1035.527, 220.5369
1036.009, 221.3869
1036.491, 222.1431
1036.973, 222.4232
1037.456, 221.6621
1037.938, 220.9800
1038.420, 221.5759
1038.902, 222.9471
1039.384, 223.3234
1039.866, 222.1295
1040.348, 221.5591
1040.830, 222.0420
1041.313, 222.5371
1041.795, 222.7707
1042.277, 222.9272
1042.759, 223.1120
1043.241, 223.3396
1043.723, 223.6902
1044.205, 224.3370
1044.687, 224.6205
1045.169, 224.3031
1045.651, 223.8923
1046.134, 223.4319
1046.616, 223.0141
1047.098, 222.6158
1047.580, 222.3281
1048.062, 222.4883
1048.544, 223.4051
1049.026, 223.7855
1049.508, 223.3044
1049.991, 222.4651
1050.473, 221.1283
1050.955, 219.7728
1051.437, 218.6877
1051.919, 217.9144
1052.401, 217.5511
1052.883, 217.7690
1053.365, 217.7012
1053.848, 216.6507
1054.330, 215.9460
1054.812, 216.5632
1055.294, 217.3312
1055.776, 217.1127
1056.258, 216.2405
1056.740, 215.6400
1057.222, 215.4610
1057.704, 215.6392
1058.187, 216.6331
1058.669, 217.3693
1059.151, 217.4209
1059.633, 216.9899
1060.115, 215.8843
1060.597, 214.5490
1061.079, 213.9903
1061.561, 214.4885
1062.043, 214.7776
1062.526, 214.4799
1063.008, 213.8136
1063.490, 212.2207
1063.972, 210.8836
1064.454, 210.9341
1064.936, 212.0230
1065.418, 213.5844
1065.900, 215.5195
1066.383, 216.4292
1066.865, 214.6504
1067.347, 213.1763
1067.829, 214.3288
1068.311, 215.5343
1068.793, 214.0589
1069.275, 211.1302
1069.757, 209.2622
1070.240, 208.9377
1070.722, 209.0768
1071.204, 209.6308
1071.686, 210.0254
1072.168, 210.0189
1072.650, 209.7192
1073.132, 209.0550
1073.614, 208.2333
1074.096, 207.5411
1074.578, 207.0367
1075.061, 206.6802
1075.543, 206.4872
1076.025, 206.3875
1076.507, 206.3478
1076.989, 206.3855
1077.471, 206.6157
1077.953, 206.8790
1078.435, 206.8770
1078.918, 206.6255
1079.400, 206.5206
1079.882, 206.8569
1080.364, 207.0538
1080.846, 206.6980
1081.328, 206.2468
1081.810, 205.9947
1082.292, 205.8802
1082.774, 205.8404
1083.257, 205.8324
1083.739, 205.7362
1084.221, 205.4695
1084.703, 205.2415
1085.185, 205.5031
1085.667, 205.4420
1086.149, 203.8798
1086.631, 202.1511
1087.114, 201.9805
1087.596, 203.1226
1088.078, 204.1306
1088.560, 204.5714
1089.042, 204.9473
1089.524, 205.5614
1090.006, 206.0624
1090.488, 206.3775
1090.970, 206.3756
1091.453, 205.6779
1091.935, 204.6044
1092.417, 203.9986
1092.899, 204.0988
1093.381, 204.1496
1093.863, 203.9892
1094.345, 203.5667
1094.827, 202.6490
1095.309, 201.6513
1095.792, 200.7817
1096.274, 200.1538
1096.756, 200.0429
1097.238, 200.4898
1097.720, 200.6489
1098.202, 200.0517
1098.684, 199.4143
1099.166, 198.8575
1099.649, 198.4643
1100.131, 198.3427
1100.613, 198.3928
1101.095, 198.4496
1101.577, 198.5073
1102.059, 198.7228
1102.541, 199.3643
1103.023, 199.7858
1103.505, 199.7425
1103.988, 199.5487
1104.470, 198.9961
1104.952, 198.6463
1105.434, 199.6789
1105.916, 201.6270
1106.398, 201.7891
1106.880, 198.0659
1107.362, 196.6057
1107.844, 200.9569
1108.327, 204.4053
1108.809, 203.8166
1109.291, 201.8156
1109.773, 200.4634
1110.255, 199.7044
1110.737, 199.1260
1111.219, 198.7987
1111.701, 198.2760
1112.184, 197.3828
1112.666, 196.4978
1113.148, 195.4668
1113.630, 194.7041
1114.112, 194.5963
1114.594, 194.9001
1115.076, 195.2327
1115.558, 195.6240
1116.041, 195.7136
1116.523, 194.6268
1117.005, 194.7905
1117.487, 197.7667
1117.969, 200.1610
1118.451, 200.2299
1118.933, 198.9650
1119.415, 197.3029
1119.897, 195.3647
1120.380, 194.4761
1120.862, 195.0833
1121.344, 195.6612
1121.826, 196.2070
1122.308, 196.6353
1122.790, 197.0088
1123.272, 197.0776
1123.754, 196.5077
1124.236, 195.5080
1124.719, 194.7214
1125.201, 194.0354
1125.683, 194.3157
1126.165, 195.9973
1126.647, 196.9092
1127.129, 196.3449
1127.611, 195.5412
1128.093, 195.3020
1128.576, 195.4541
1129.058, 195.7489
1129.540, 196.1615
1130.022, 196.0824
1130.504, 195.4593
1130.986, 194.9915
1131.468, 194.8075
1131.950, 194.4740
1132.432, 193.7391
1132.915, 193.0637
1133.397, 193.0520
1133.879, 193.4923
1134.361, 193.5532
1134.843, 193.2964
1135.325, 193.5857
1135.807, 194.4355
1136.289, 194.9573
1136.771, 194.8664
1137.254, 194.4533
1137.736, 193.9078
1138.218, 193.3929
1138.700, 193.2485
1139.182, 193.3734
1139.664, 193.3805
1140.146, 193.3358
1140.628, 193.7398
1141.111, 194.5490
1141.593, 194.8026
1142.075, 193.9865
1142.557, 192.8955
1143.039, 192.4659
1143.521, 192.3163
1144.003, 191.7043
1144.485, 190.9289
1144.968, 190.5394
1145.450, 190.5833
1145.932, 191.0869
1146.414, 191.9857
1146.896, 192.7199
1147.378, 192.9805
1147.860, 192.7431
1148.342, 191.5776
1148.824, 190.2419
1149.307, 189.5660
1149.789, 189.4196
1150.271, 189.6901
1150.753, 190.1580
1151.235, 190.1060
1151.717, 189.0875
1152.199, 188.2760
1152.681, 188.6324
1153.163, 189.0778
1153.646, 188.7750
1154.128, 188.2969
1154.610, 188.3388
1155.092, 188.7040
1155.574, 188.8083
1156.056, 188.5350
1156.538, 188.2399
1157.020, 188.0562
1157.503, 187.8191
1157.985, 187.1591
1158.467, 186.7848
1158.949, 187.5600
1159.431, 188.5801
1159.913, 188.4751
1160.395, 187.3795
1160.877, 186.8730
1161.359, 187.5829
1161.842, 187.7790
1162.324, 186.9285
1162.806, 186.3504
1163.288, 186.4966
1163.770, 186.9141
1164.252, 187.4571
1164.734, 187.8902
1165.216, 187.5947
1165.698, 186.4787
1166.181, 185.8860
1166.663, 185.8791
1167.145, 186.2386
1167.627, 187.0752
1168.109, 187.7796
1168.591, 188.0714
1169.073, 188.0931
1169.555, 188.0211
1170.037, 187.8044
1170.520, 187.0774
1171.002, 185.8721
1171.484, 185.5425
1171.966, 186.1217
1172.448, 186.4349
1172.930, 186.1768
1173.412, 186.0766
1173.894, 186.6503
1174.377, 187.3832
1174.859, 187.4670
1175.341, 187.1281
1175.823, 187.0829
1176.305, 187.1371
1176.787, 186.5134
1177.269, 185.3503
1177.751, 184.6560
1178.234, 184.7634
1178.716, 185.1060
1179.198, 185.2793
1179.680, 185.4227
1180.162, 185.7629
1180.644, 186.1024
1181.126, 186.2028
1181.608, 186.1091
1182.090, 185.9417
1182.573, 185.6945
1183.055, 185.1813
1183.537, 184.2565
1184.019, 183.6328
1184.501, 183.9026
1184.983, 184.3031
1185.465, 184.4957
1185.947, 184.5540
1186.429, 184.3999
1186.912, 184.2355
1187.394, 184.6046
1187.876, 185.4974
1188.358, 185.6121
1188.840, 183.7182
1189.322, 182.6715
1189.804, 183.1772
1190.286, 184.0427
1190.769, 185.3208
1191.251, 186.2794
1191.733, 186.1204
1192.215, 185.2549
1192.697, 184.7629
1193.179, 184.7097
1193.661, 184.4562
1194.143, 183.9001
1194.625, 183.5317
1195.108, 183.4289
1195.590, 183.5247
1196.072, 183.8276
1196.554, 184.1664
1197.036, 184.3750
1197.518, 184.4092
1198.000, 183.9786
1198.482, 183.1822
1198.964, 182.9930
1199.447, 183.3628
1199.929, 183.5428
1200.411, 183.3667
1200.893, 183.0527
1201.375, 182.7225
1201.857, 182.3977
1202.339, 181.8923
1202.821, 181.5959
1203.304, 182.2490
1203.786, 183.5068
1204.268, 185.3197
1204.750, 187.0480
1205.232, 186.9971
1205.714, 185.0681
1206.196, 183.3447
1206.678, 182.9928
1207.161, 182.7370
1207.643, 181.6369
1208.125, 180.5399
1208.607, 179.9536
1209.089, 179.7423
1209.571, 179.9915
1210.053, 180.4008
1210.535, 180.2581
1211.017, 179.4232
1211.500, 178.8685
1211.982, 178.6992
1212.464, 178.8722
1212.946, 179.9033
1213.428, 180.5676
1213.910, 180.0881
1214.392, 179.4433
1214.874, 179.6605
1215.356, 180.3766
1215.839, 180.4620
1216.321, 179.8421
1216.803, 179.2661
1217.285, 178.7087
1217.767, 178.3798
1218.249, 178.3266
1218.731, 178.4374
1219.213, 178.6762
1219.696, 178.9140
1220.178, 179.0430
1220.660, 178.9898
1221.142, 178.3523
1221.624, 177.4352
1222.106, 177.3685
1222.588, 177.9630
1223.070, 178.3546
1223.552, 178.4387
1224.035, 178.6901
1224.517, 179.3314
1224.999, 180.0151
1225.481, 180.3908
1225.963, 180.7408
1226.445, 181.5551
1226.927, 182.2595
1227.409, 182.1894
1227.891, 181.5889
1228.374, 180.8604
1228.856, 180.0868
1229.338, 179.2431
1229.820, 178.2544
1230.302, 177.4366
1230.784, 176.9098
1231.266, 176.4983
1231.748, 176.0870
1232.231, 175.8479
1232.713, 175.8913
1233.195, 176.1702
1233.677, 176.7519
1234.159, 177.5392
1234.641, 177.5670
1235.123, 176.5802
1235.605, 176.0368
1236.088, 176.0041
1236.570, 176.3756
1237.052, 177.1834
1237.534, 177.8102
1238.016, 177.8525
1238.498, 177.5665
1238.980, 177.2605
1239.462, 176.9609
1239.944, 176.7614
1240.427, 176.6176
1240.909, 176.3733
1241.391, 176.0609
1241.873, 175.8495
1242.355, 175.7527
1242.837, 175.5529
1243.319, 175.0892
1243.801, 174.8359
1244.283, 175.4821
1244.766, 176.0870
1245.248, 175.7050
1245.730, 175.1367
1246.212, 175.2943
1246.694, 175.8063
1247.176, 175.9378
1247.658, 175.6331
1248.140, 175.2891
1248.622, 174.8436
1249.105, 174.6181
1249.587, 174.8930
1250.069, 174.9428
1250.551, 174.4613
1251.033, 173.9391
1251.515, 173.5801
1251.997, 173.5256
1252.479, 174.0295
1252.962, 175.0013
1253.444, 176.1814
1253.926, 177.5434
1254.408, 177.2193
1254.890, 175.2532
1255.372, 173.8136
1255.854, 173.4267
1256.336, 173.5086
1256.818, 173.7427
1257.301, 173.8373
1257.783, 173.3284
1258.265, 172.6653
1258.747, 172.3839
1259.229, 172.3980
1259.711, 172.7633
1260.193, 173.2447
1260.675, 173.4242
1261.157, 173.2952
1261.640, 173.1794
1262.122, 173.1991
1262.604, 173.1100
1263.086, 172.4542
1263.568, 172.2149
1264.050, 173.2395
1264.532, 174.1528
1265.014, 173.9622
1265.497, 173.4152
1265.979, 173.4102
1266.461, 173.7639
1266.943, 173.6722
1267.425, 173.0491
1267.907, 172.6084
1268.389, 172.3492
1268.871, 172.3853
1269.354, 172.7470
1269.836, 172.7456
1270.318, 172.0611
1270.800, 171.2219
1271.282, 170.6173
1271.764, 170.5369
1272.246, 172.0456
1272.728, 173.9912
1273.210, 174.1845
1273.693, 173.3371
1274.175, 172.7945
1274.657, 172.6742
1275.139, 172.6976
1275.621, 172.7592
1276.103, 172.4389
1276.585, 171.0957
1277.067, 170.1124
1277.549, 170.3068
1278.032, 170.5006
1278.514, 169.6695
1278.996, 169.0633
1279.478, 170.2340
1279.960, 172.0232
1280.442, 171.9007
1280.924, 169.9787
1281.406, 170.3080
1281.889, 173.4080
1282.371, 174.5877
1282.853, 173.4277
1283.335, 172.1975
1283.817, 171.5411
1284.299, 171.1822
1284.781, 170.9498
1285.263, 170.8111
1285.745, 170.7188
1286.228, 170.6704
##END=



