##NAMES=Microcline
##RRUFFID=R050150
##IDEAL CHEMISTRY=KAlSi_3_O_8_
##LOCALITY=Crystal Peak area, Park/Teller Counties, Colorado, USA
##OWNER=RRUFF
##SOURCE=Dave Bunk Minerals
##DESCRIPTION=Pale blue prismatic crystals
##STATUS=The identification of this mineral has been confirmed by X-ray diffraction and chemical analysis
##URL=rruff.info/R050150
##MEASURED CHEMISTRY=(K_0.95_Na_0.05_)_Î£=1_Al_1.00_Si_3.00_O_8_
93.46680, 8844.295
93.94891, 8711.358
94.43103, 8735.188
94.91315, 8855.968
95.39526, 8960.885
95.87738, 9026.044
96.35950, 9068.875
96.84161, 9096.480
97.32373, 9120.753
97.80585, 9132.158
98.28796, 9124.412
98.77008, 9093.521
99.25220, 9059.738
99.73431, 9053.592
100.2164, 9088.873
100.6985, 9093.801
101.1807, 9066.876
101.6628, 9032.141
102.1449, 9010.099
102.6270, 9010.969
103.1091, 9029.961
103.5912, 9044.043
104.0734, 9040.928
104.5555, 9043.567
105.0376, 9061.216
105.5197, 9087.662
106.0018, 9109.254
106.4839, 9112.943
106.9661, 9093.686
107.4482, 9091.154
107.9303, 9111.188
108.4124, 9136.609
108.8945, 9158.068
109.3766, 9174.123
109.8588, 9188.471
110.3409, 9205.971
110.8230, 9227.354
111.3051, 9244.563
111.7872, 9252.572
112.2693, 9256.511
112.7515, 9264.094
113.2336, 9277.061
113.7157, 9294.386
114.1978, 9315.994
114.6799, 9341.792
115.1620, 9366.322
115.6442, 9385.044
116.1263, 9398.261
116.6084, 9411.913
117.0905, 9427.810
117.5726, 9444.363
118.0547, 9459.582
118.5369, 9472.985
119.0190, 9488.003
119.5011, 9510.422
119.9832, 9543.980
120.4653, 9575.764
120.9474, 9606.947
121.4296, 9634.354
121.9117, 9654.021
122.3938, 9664.158
122.8759, 9667.839
123.3580, 9675.318
123.8401, 9688.975
124.3223, 9704.336
124.8044, 9721.164
125.2865, 9739.404
125.7686, 9759.880
126.2507, 9783.958
126.7328, 9810.767
127.2150, 9827.939
127.6971, 9831.522
128.1792, 9832.100
128.6613, 9832.719
129.1434, 9833.877
129.6255, 9836.159
130.1077, 9839.227
130.5898, 9844.020
131.0719, 9854.247
131.5540, 9873.021
132.0361, 9895.930
132.5182, 9917.840
133.0004, 9937.706
133.4825, 9960.023
133.9646, 9992.799
134.4467, 10031.54
134.9288, 10065.23
135.4109, 10084.93
135.8931, 10095.16
136.3752, 10112.36
136.8573, 10140.27
137.3394, 10171.89
137.8215, 10206.12
138.3036, 10241.14
138.7858, 10271.70
139.2679, 10293.24
139.7500, 10305.00
140.2321, 10313.64
140.7142, 10317.47
141.1963, 10319.45
141.6785, 10318.22
142.1606, 10315.11
142.6427, 10314.45
143.1248, 10321.64
143.6069, 10338.51
144.0890, 10360.65
144.5712, 10393.53
145.0533, 10427.04
145.5354, 10454.24
146.0175, 10473.12
146.4996, 10487.08
146.9817, 10501.80
147.4639, 10513.68
147.9460, 10532.86
148.4281, 10568.48
148.9102, 10609.14
149.3923, 10638.87
149.8744, 10650.30
150.3566, 10652.37
150.8387, 10666.62
151.3208, 10695.82
151.8029, 10726.13
152.2850, 10752.57
152.7671, 10776.09
153.2493, 10799.38
153.7314, 10823.92
154.2135, 10848.46
154.6956, 10872.11
155.1777, 10896.21
155.6598, 10915.90
156.1420, 10925.33
156.6241, 10923.97
157.1062, 10921.83
157.5883, 10927.13
158.0704, 10931.32
158.5525, 10925.22
159.0347, 10904.74
159.5168, 10878.45
159.9989, 10859.87
160.4810, 10852.55
160.9631, 10844.52
161.4452, 10831.29
161.9274, 10816.29
162.4095, 10802.31
162.8916, 10790.59
163.3737, 10781.18
163.8558, 10774.54
164.3379, 10774.32
164.8201, 10772.27
165.3022, 10763.32
165.7843, 10752.71
166.2664, 10747.71
166.7485, 10752.96
167.2306, 10767.11
167.7128, 10778.38
168.1949, 10782.07
168.6770, 10787.97
169.1591, 10799.43
169.6412, 10814.85
170.1233, 10831.67
170.6055, 10848.92
171.0876, 10866.30
171.5697, 10872.54
172.0518, 10852.47
172.5339, 10837.54
173.0160, 10845.73
173.4982, 10874.19
173.9803, 10906.58
174.4624, 10932.13
174.9445, 10949.69
175.4266, 10961.32
175.9087, 10958.62
176.3909, 10955.70
176.8730, 10965.30
177.3551, 10988.43
177.8372, 11015.37
178.3193, 11041.22
178.8014, 11065.09
179.2836, 11082.96
179.7657, 11089.74
180.2478, 11091.51
180.7299, 11097.67
181.2120, 11109.52
181.6941, 11122.59
182.1763, 11134.14
182.6584, 11144.61
183.1405, 11154.58
183.6226, 11163.60
184.1047, 11172.21
184.5868, 11182.80
185.0690, 11197.56
185.5511, 11210.67
186.0332, 11218.29
186.5153, 11222.50
186.9974, 11227.19
187.4795, 11234.14
187.9617, 11243.52
188.4438, 11257.61
188.9259, 11282.97
189.4080, 11306.58
189.8901, 11324.90
190.3722, 11338.26
190.8544, 11347.90
191.3365, 11353.97
191.8186, 11356.06
192.3007, 11361.91
192.7828, 11371.91
193.2649, 11385.48
193.7471, 11404.23
194.2292, 11426.86
194.7113, 11450.40
195.1934, 11471.83
195.6755, 11490.67
196.1576, 11511.28
196.6398, 11536.80
197.1219, 11560.95
197.6040, 11582.15
198.0861, 11599.44
198.5682, 11610.95
199.0503, 11613.82
199.5325, 11605.80
200.0146, 11601.33
200.4967, 11599.74
200.9788, 11601.54
201.4609, 11607.54
201.9430, 11617.63
202.4252, 11630.44
202.9073, 11645.63
203.3894, 11663.53
203.8715, 11678.26
204.3536, 11686.22
204.8357, 11692.88
205.3179, 11703.86
205.8000, 11720.10
206.2821, 11737.76
206.7642, 11753.40
207.2463, 11767.44
207.7284, 11781.64
208.2106, 11798.24
208.6927, 11814.63
209.1748, 11825.53
209.6569, 11828.64
210.1390, 11833.35
210.6211, 11851.93
211.1033, 11879.03
211.5854, 11901.31
212.0675, 11910.05
212.5496, 11911.05
213.0317, 11917.90
213.5138, 11933.39
213.9960, 11949.91
214.4781, 11962.24
214.9602, 11971.88
215.4423, 11981.90
215.9244, 11995.06
216.4065, 12009.96
216.8886, 12019.81
217.3708, 12018.15
217.8529, 12021.63
218.3350, 12041.43
218.8171, 12070.86
219.2992, 12097.39
219.7813, 12112.83
220.2635, 12118.67
220.7456, 12124.07
221.2277, 12123.16
221.7098, 12129.78
222.1919, 12155.13
222.6740, 12190.15
223.1562, 12219.09
223.6383, 12229.72
224.1204, 12223.96
224.6025, 12225.09
225.0846, 12236.29
225.5667, 12252.17
226.0489, 12276.07
226.5310, 12303.61
227.0131, 12327.31
227.4952, 12341.68
227.9773, 12347.34
228.4594, 12355.86
228.9416, 12367.63
229.4237, 12381.90
229.9058, 12402.34
230.3879, 12425.00
230.8700, 12441.61
231.3521, 12445.49
231.8343, 12438.18
232.3164, 12445.17
232.7985, 12480.67
233.2806, 12513.80
233.7627, 12533.91
234.2448, 12545.55
234.7270, 12560.30
235.2091, 12586.69
235.6912, 12622.12
236.1733, 12640.68
236.6554, 12622.93
237.1375, 12612.76
237.6197, 12628.33
238.1018, 12662.19
238.5839, 12697.21
239.0660, 12723.88
239.5481, 12743.42
240.0302, 12762.81
240.5124, 12782.78
240.9945, 12801.86
241.4766, 12817.99
241.9587, 12832.60
242.4408, 12850.20
242.9229, 12874.78
243.4051, 12902.24
243.8872, 12918.61
244.3693, 12913.24
244.8514, 12913.39
245.3335, 12935.77
245.8156, 12973.90
246.2978, 13007.44
246.7799, 13026.03
247.2620, 13036.36
247.7441, 13054.09
248.2262, 13082.09
248.7083, 13109.96
249.1905, 13131.90
249.6726, 13149.22
250.1547, 13167.19
250.6368, 13188.69
251.1189, 13210.70
251.6010, 13226.76
252.0832, 13234.55
252.5653, 13247.63
253.0474, 13280.06
253.5295, 13326.39
254.0116, 13361.84
254.4937, 13373.92
254.9759, 13379.05
255.4580, 13397.29
255.9401, 13429.04
256.4222, 13461.20
256.9043, 13487.58
257.3864, 13508.10
257.8686, 13521.10
258.3507, 13521.02
258.8328, 13519.85
259.3149, 13527.11
259.7970, 13542.33
260.2791, 13561.98
260.7613, 13583.47
261.2434, 13607.20
261.7255, 13637.55
262.2076, 13683.28
262.6897, 13724.08
263.1718, 13745.40
263.6540, 13750.99
264.1361, 13754.32
264.6182, 13762.96
265.1003, 13776.36
265.5824, 13792.11
266.0645, 13813.19
266.5467, 13832.13
267.0288, 13843.71
267.5109, 13850.65
267.9930, 13858.82
268.4751, 13872.00
268.9572, 13889.32
269.4394, 13906.45
269.9215, 13921.41
270.4036, 13939.73
270.8857, 13968.37
271.3678, 14000.51
271.8499, 14024.70
272.3321, 14032.60
272.8142, 14030.03
273.2963, 14036.88
273.7784, 14055.26
274.2605, 14080.50
274.7426, 14116.61
275.2248, 14155.75
275.7069, 14187.17
276.1890, 14205.21
276.6711, 14215.72
277.1532, 14233.69
277.6353, 14262.30
278.1175, 14293.05
278.5996, 14327.48
279.0817, 14361.28
279.5638, 14389.94
280.0459, 14411.93
280.5280, 14429.83
281.0102, 14448.25
281.4923, 14465.81
281.9744, 14487.17
282.4565, 14517.78
282.9386, 14548.78
283.4207, 14572.38
283.9029, 14586.94
284.3850, 14597.85
284.8671, 14614.30
285.3492, 14641.91
285.8313, 14660.76
286.3134, 14672.77
286.7956, 14675.34
287.2777, 14661.93
287.7598, 14634.40
288.2419, 14604.34
288.7240, 14584.44
289.2061, 14575.34
289.6883, 14575.22
290.1704, 14595.18
290.6525, 14613.51
291.1346, 14616.94
291.6167, 14607.94
292.0988, 14599.25
292.5810, 14603.35
293.0631, 14621.68
293.5452, 14636.95
294.0273, 14644.81
294.5094, 14653.95
294.9915, 14667.94
295.4737, 14685.62
295.9558, 14703.92
296.4379, 14720.64
296.9200, 14735.94
297.4021, 14751.52
297.8842, 14768.83
298.3664, 14784.97
298.8485, 14798.42
299.3306, 14810.51
299.8127, 14823.90
300.2948, 14840.30
300.7769, 14857.86
301.2591, 14868.41
301.7412, 14852.99
302.2233, 14854.11
302.7054, 14892.21
303.1875, 14941.97
303.6696, 14973.87
304.1518, 14976.03
304.6339, 14961.70
305.1160, 14959.77
305.5981, 14982.27
306.0802, 14999.84
306.5623, 15002.60
307.0445, 15006.03
307.5266, 15026.38
308.0087, 15066.00
308.4908, 15110.54
308.9729, 15138.18
309.4550, 15136.50
309.9372, 15149.41
310.4193, 15190.39
310.9014, 15232.84
311.3835, 15259.56
311.8656, 15270.32
312.3477, 15276.09
312.8299, 15288.16
313.3120, 15308.58
313.7941, 15322.14
314.2762, 15314.85
314.7583, 15315.20
315.2404, 15337.04
315.7226, 15376.47
316.2047, 15423.31
316.6868, 15471.46
317.1689, 15519.90
317.6510, 15552.65
318.1331, 15557.86
318.6153, 15560.42
319.0974, 15558.96
319.5795, 15559.31
320.0616, 15571.28
320.5437, 15600.44
321.0258, 15640.47
321.5080, 15670.61
321.9901, 15677.15
322.4722, 15690.27
322.9543, 15719.15
323.4364, 15751.68
323.9185, 15773.95
324.4007, 15781.72
324.8828, 15784.66
325.3649, 15800.07
325.8470, 15838.65
326.3291, 15869.96
326.8112, 15889.68
327.2934, 15906.78
327.7755, 15929.93
328.2576, 15958.78
328.7397, 15984.03
329.2218, 15993.41
329.7039, 15980.08
330.1861, 15984.98
330.6682, 16027.55
331.1503, 16067.34
331.6324, 16081.72
332.1145, 16077.80
332.5966, 16078.37
333.0788, 16102.07
333.5609, 16146.84
334.0430, 16177.51
334.5251, 16171.42
335.0072, 16175.40
335.4893, 16207.36
335.9715, 16252.80
336.4536, 16290.39
336.9357, 16308.90
337.4178, 16314.51
337.8999, 16325.10
338.3820, 16343.50
338.8642, 16363.23
339.3463, 16383.28
339.8284, 16404.60
340.3105, 16428.98
340.7926, 16456.65
341.2747, 16484.56
341.7568, 16507.37
342.2390, 16520.82
342.7211, 16539.76
343.2032, 16569.61
343.6853, 16599.63
344.1674, 16622.96
344.6495, 16640.18
345.1317, 16656.69
345.6138, 16677.10
346.0959, 16701.43
346.5780, 16729.58
347.0601, 16775.15
347.5422, 16811.04
348.0244, 16821.18
348.5065, 16817.16
348.9886, 16820.03
349.4707, 16843.13
349.9528, 16881.73
350.4349, 16916.86
350.9171, 16951.16
351.3992, 16977.48
351.8813, 16988.51
352.3634, 16994.89
352.8455, 17007.13
353.3276, 17028.88
353.8098, 17056.07
354.2919, 17082.22
354.7740, 17107.09
355.2561, 17131.49
355.7382, 17155.05
356.2203, 17178.54
356.7025, 17200.96
357.1846, 17223.00
357.6667, 17247.89
358.1488, 17282.23
358.6309, 17326.61
359.1130, 17359.15
359.5952, 17370.08
360.0773, 17379.20
360.5594, 17393.40
361.0415, 17412.02
361.5236, 17433.21
362.0057, 17456.85
362.4879, 17481.63
362.9700, 17503.14
363.4521, 17518.26
363.9342, 17536.90
364.4163, 17568.60
364.8984, 17602.60
365.3806, 17626.73
365.8627, 17636.66
366.3448, 17641.11
366.8269, 17648.35
367.3090, 17657.52
367.7911, 17678.38
368.2733, 17727.70
368.7554, 17777.68
369.2375, 17803.99
369.7196, 17807.46
370.2017, 17812.82
370.6838, 17843.75
371.1660, 17893.46
371.6481, 17927.51
372.1302, 17936.41
372.6123, 17941.95
373.0944, 17961.08
373.5765, 17988.10
374.0587, 18010.47
374.5408, 18020.27
375.0229, 18024.89
375.5050, 18032.41
375.9871, 18041.88
376.4692, 18062.81
376.9514, 18110.70
377.4335, 18167.60
377.9156, 18206.99
378.3977, 18222.99
378.8798, 18230.83
379.3619, 18236.90
379.8441, 18242.79
380.3262, 18255.74
380.8083, 18278.75
381.2904, 18308.10
381.7725, 18341.76
382.2546, 18379.52
382.7368, 18412.74
383.2189, 18435.08
383.7010, 18452.93
384.1831, 18475.90
384.6652, 18505.40
385.1473, 18534.65
385.6295, 18558.46
386.1116, 18577.28
386.5937, 18596.72
387.0758, 18615.17
387.5579, 18635.84
388.0400, 18661.11
388.5222, 18690.27
389.0043, 18722.02
389.4864, 18756.56
389.9685, 18791.69
390.4506, 18821.19
390.9327, 18843.00
391.4149, 18865.45
391.8970, 18891.17
392.3791, 18918.02
392.8612, 18942.92
393.3433, 18965.25
393.8254, 18987.67
394.3076, 19013.08
394.7897, 19042.18
395.2718, 19071.23
395.7539, 19099.74
396.2360, 19128.73
396.7181, 19159.23
397.2003, 19190.63
397.6824, 19220.32
398.1645, 19246.41
398.6466, 19270.13
399.1287, 19298.86
399.6108, 19339.82
400.0930, 19376.90
400.5751, 19406.70
401.0572, 19432.76
401.5393, 19460.35
402.0214, 19490.59
402.5035, 19518.55
402.9857, 19535.46
403.4678, 19533.85
403.9499, 19543.15
404.4320, 19571.13
404.9141, 19601.52
405.3962, 19624.06
405.8784, 19641.60
406.3605, 19664.87
406.8426, 19703.04
407.3247, 19753.41
407.8068, 19795.19
408.2889, 19825.80
408.7711, 19850.09
409.2532, 19860.96
409.7353, 19870.29
410.2174, 19892.26
410.6995, 19931.79
411.1816, 19978.62
411.6638, 20018.18
412.1459, 20048.73
412.6280, 20080.38
413.1101, 20117.75
413.5922, 20153.35
414.0743, 20182.90
414.5565, 20206.65
415.0386, 20227.17
415.5207, 20242.22
416.0028, 20255.20
416.4849, 20280.55
416.9670, 20324.41
417.4492, 20365.48
417.9313, 20391.25
418.4134, 20408.23
418.8955, 20422.58
419.3776, 20433.23
419.8597, 20447.79
420.3419, 20473.75
420.8240, 20510.62
421.3061, 20556.09
421.7882, 20617.29
422.2703, 20675.87
422.7524, 20704.93
423.2346, 20705.75
423.7167, 20712.26
424.1988, 20740.73
424.6809, 20779.96
425.1630, 20815.77
425.6451, 20846.62
426.1273, 20875.65
426.6094, 20902.68
427.0915, 20929.78
427.5736, 20966.06
428.0557, 21027.70
428.5378, 21080.93
429.0200, 21103.67
429.5021, 21107.93
429.9842, 21117.81
430.4663, 21142.08
430.9484, 21174.90
431.4305, 21207.11
431.9127, 21238.72
432.3948, 21269.63
432.8769, 21291.46
433.3590, 21318.84
433.8411, 21366.71
434.3232, 21431.69
434.8054, 21498.35
435.2875, 21555.86
435.7696, 21603.59
436.2517, 21635.98
436.7338, 21633.04
437.2159, 21637.70
437.6981, 21657.92
438.1802, 21688.02
438.6623, 21721.79
439.1444, 21757.04
439.6265, 21795.12
440.1086, 21840.56
440.5908, 21899.90
441.0729, 21945.03
441.5550, 21970.30
442.0371, 21986.84
442.5192, 21988.36
443.0013, 21984.48
443.4835, 21997.68
443.9656, 22047.33
444.4477, 22119.70
444.9298, 22168.66
445.4119, 22186.20
445.8940, 22201.45
446.3762, 22221.05
446.8583, 22244.38
447.3404, 22271.26
447.8225, 22301.63
448.3046, 22334.79
448.7867, 22370.29
449.2689, 22407.91
449.7510, 22447.14
450.2331, 22488.00
450.7152, 22529.87
451.1973, 22574.35
451.6794, 22619.51
452.1616, 22660.29
452.6437, 22691.74
453.1258, 22720.78
453.6079, 22756.21
454.0900, 22796.35
454.5721, 22828.76
455.0543, 22845.60
455.5364, 22855.09
456.0185, 22873.58
456.5006, 22900.82
456.9827, 22933.72
457.4648, 22978.66
457.9470, 23024.97
458.4291, 23060.07
458.9112, 23083.17
459.3933, 23104.32
459.8754, 23132.33
460.3575, 23167.00
460.8397, 23196.43
461.3218, 23215.49
461.8039, 23236.59
462.2860, 23260.73
462.7681, 23289.80
463.2502, 23329.32
463.7324, 23380.46
464.2145, 23432.36
464.6966, 23465.41
465.1787, 23467.12
465.6608, 23487.38
466.1429, 23541.71
466.6251, 23598.21
467.1072, 23640.58
467.5893, 23673.55
468.0714, 23711.91
468.5535, 23766.66
469.0356, 23829.46
469.5178, 23874.06
469.9999, 23890.78
470.4820, 23915.06
470.9641, 23966.24
471.4462, 24021.88
471.9283, 24065.29
472.4105, 24094.56
472.8926, 24118.78
473.3747, 24141.95
473.8568, 24165.45
474.3389, 24196.14
474.8210, 24238.60
475.3032, 24276.23
475.7853, 24293.77
476.2674, 24299.37
476.7495, 24307.47
477.2316, 24317.90
477.7137, 24334.95
478.1959, 24363.64
478.6780, 24401.34
479.1601, 24443.63
479.6422, 24490.87
480.1243, 24533.83
480.6064, 24557.04
481.0886, 24556.06
481.5707, 24565.56
482.0528, 24588.25
482.5349, 24620.94
483.0170, 24672.26
483.4991, 24732.83
483.9813, 24774.01
484.4634, 24777.75
484.9455, 24760.53
485.4276, 24772.40
485.9097, 24852.95
486.3918, 24904.86
486.8740, 24899.27
487.3561, 24886.70
487.8382, 24906.52
488.3203, 24959.16
488.8024, 25018.85
489.2845, 25065.00
489.7667, 25098.82
490.2488, 25131.81
490.7309, 25162.94
491.2130, 25195.39
491.6951, 25228.68
492.1772, 25264.32
492.6594, 25304.53
493.1415, 25349.78
493.6236, 25396.53
494.1057, 25438.52
494.5878, 25477.30
495.0699, 25526.74
495.5521, 25594.44
496.0342, 25660.63
496.5163, 25708.03
496.9984, 25742.83
497.4805, 25777.34
497.9626, 25812.23
498.4448, 25850.05
498.9269, 25891.32
499.4090, 25936.70
499.8911, 25992.36
500.3732, 26063.93
500.8553, 26134.76
501.3375, 26177.31
501.8196, 26182.99
502.3017, 26205.82
502.7838, 26260.76
503.2659, 26323.85
503.7480, 26381.53
504.2302, 26433.64
504.7123, 26485.07
505.1944, 26538.83
505.6765, 26593.01
506.1586, 26642.22
506.6407, 26686.95
507.1228, 26725.84
507.6049, 26753.30
508.0871, 26780.20
508.5692, 26811.78
509.0513, 26849.67
509.5334, 26896.79
510.0155, 26960.33
510.4977, 27033.14
510.9798, 27074.60
511.4619, 27067.87
511.9440, 27068.11
512.4261, 27101.02
512.9083, 27144.02
513.3904, 27181.71
513.8725, 27211.64
514.3546, 27226.68
514.8367, 27205.66
515.3188, 27166.37
515.8010, 27165.91
516.2831, 27217.21
516.7652, 27268.30
517.2473, 27281.38
517.7294, 27266.64
518.2115, 27260.19
518.6937, 27262.57
519.1758, 27274.17
519.6579, 27300.50
520.1400, 27334.53
520.6221, 27363.83
521.1042, 27385.64
521.5864, 27407.51
522.0685, 27438.30
522.5506, 27479.35
523.0327, 27514.96
523.5148, 27539.01
523.9969, 27565.83
524.4791, 27602.88
524.9612, 27644.36
525.4433, 27681.45
525.9254, 27710.96
526.4075, 27738.07
526.8896, 27769.23
527.3718, 27804.12
527.8539, 27844.58
528.3360, 27898.62
528.8181, 27949.03
529.3002, 27984.42
529.7823, 28011.88
530.2645, 28046.98
530.7466, 28100.13
531.2287, 28152.31
531.7108, 28171.83
532.1929, 28161.59
532.6750, 28166.86
533.1572, 28202.10
533.6393, 28249.59
534.1214, 28293.22
534.6035, 28333.30
535.0856, 28372.29
535.5677, 28413.14
536.0499, 28451.00
536.5320, 28482.39
537.0141, 28508.03
537.4962, 28528.57
537.9783, 28543.10
538.4604, 28559.80
538.9426, 28594.12
539.4247, 28659.19
539.9068, 28708.59
540.3889, 28722.73
540.8710, 28740.70
541.3531, 28785.13
541.8353, 28850.10
542.3174, 28923.03
542.7995, 28998.70
543.2816, 29066.41
543.7637, 29095.48
544.2458, 29068.01
544.7280, 29061.85
545.2101, 29105.05
545.6922, 29157.17
546.1743, 29196.09
546.6564, 29224.89
547.1385, 29258.13
547.6207, 29310.66
548.1028, 29365.41
548.5849, 29388.11
549.0670, 29380.69
549.5491, 29393.52
550.0313, 29451.85
550.5134, 29528.01
550.9955, 29579.43
551.4776, 29605.56
551.9597, 29634.99
552.4418, 29669.32
552.9240, 29711.66
553.4061, 29770.42
553.8882, 29839.97
554.3703, 29902.75
554.8524, 29949.63
555.3345, 29986.80
555.8167, 30029.26
556.2988, 30084.49
556.7809, 30129.17
557.2630, 30146.61
557.7451, 30169.90
558.2272, 30224.72
558.7094, 30300.55
559.1915, 30368.35
559.6736, 30411.25
560.1557, 30438.97
560.6378, 30471.54
561.1199, 30509.79
561.6021, 30545.98
562.0842, 30571.30
562.5663, 30601.90
563.0484, 30658.54
563.5305, 30734.66
564.0126, 30795.45
564.4948, 30815.88
564.9769, 30824.54
565.4590, 30849.27
565.9411, 30887.97
566.4232, 30929.77
566.9053, 30970.61
567.3875, 31012.74
567.8696, 31059.69
568.3517, 31112.07
568.8338, 31168.61
569.3159, 31240.67
569.7980, 31305.42
570.2802, 31345.72
570.7623, 31370.39
571.2444, 31399.13
571.7265, 31440.82
572.2086, 31487.28
572.6907, 31519.25
573.1729, 31527.36
573.6550, 31560.05
574.1371, 31646.40
574.6192, 31729.04
575.1013, 31778.88
575.5834, 31806.74
576.0656, 31835.09
576.5477, 31871.65
577.0298, 31913.33
577.5119, 31959.79
577.9940, 32009.37
578.4761, 32052.71
578.9583, 32086.28
579.4404, 32117.98
579.9225, 32155.66
580.4046, 32199.07
580.8867, 32240.25
581.3688, 32275.19
581.8510, 32312.11
582.3331, 32355.39
582.8152, 32402.71
583.2973, 32452.47
583.7794, 32503.42
584.2615, 32552.71
584.7437, 32596.21
585.2258, 32633.49
585.7079, 32672.06
586.1900, 32708.61
586.6721, 32751.43
587.1542, 32811.28
587.6363, 32873.61
588.1184, 32918.46
588.6005, 32942.12
589.0826, 32967.16
589.5648, 33018.87
590.0469, 33089.06
590.5290, 33146.24
591.0111, 33186.81
591.4932, 33224.73
591.9753, 33265.51
592.4575, 33310.45
592.9396, 33363.27
593.4217, 33431.35
593.9038, 33488.95
594.3859, 33518.92
594.8680, 33540.13
595.3502, 33571.91
595.8323, 33614.99
596.3144, 33661.16
596.7965, 33704.79
597.2786, 33746.35
597.7607, 33786.38
598.2429, 33816.53
598.7250, 33861.59
599.2071, 33942.03
599.6892, 34019.76
600.1713, 34066.76
600.6534, 34089.08
601.1356, 34112.50
601.6177, 34152.34
602.0998, 34200.47
602.5819, 34240.16
603.0640, 34271.36
603.5461, 34317.42
604.0283, 34393.35
604.5104, 34472.13
604.9925, 34517.01
605.4746, 34532.95
605.9567, 34560.80
606.4388, 34619.93
606.9210, 34679.03
607.4031, 34711.52
607.8852, 34732.89
608.3673, 34777.63
608.8494, 34855.23
609.3315, 34939.64
609.8137, 34994.62
610.2958, 35015.57
610.7779, 35055.64
611.2600, 35141.32
611.7421, 35213.68
612.2242, 35249.38
612.7064, 35269.07
613.1885, 35292.52
613.6706, 35324.79
614.1527, 35368.04
614.6348, 35436.43
615.1169, 35516.49
615.5991, 35558.70
616.0812, 35554.49
616.5633, 35566.11
617.0454, 35634.43
617.5275, 35734.12
618.0096, 35808.77
618.4918, 35854.28
618.9739, 35894.15
619.4560, 35930.71
619.9381, 35965.98
620.4202, 35999.66
620.9023, 36033.46
621.3845, 36071.22
621.8666, 36114.96
622.3487, 36164.15
622.8308, 36216.29
623.3129, 36269.16
623.7950, 36332.51
624.2772, 36422.20
624.7593, 36507.01
625.2414, 36570.52
625.7235, 36618.79
626.2056, 36662.95
626.6877, 36703.73
627.1699, 36749.15
627.6520, 36815.13
628.1341, 36891.97
628.6162, 36942.08
629.0983, 36956.23
629.5804, 36971.70
630.0626, 37020.42
630.5447, 37097.30
631.0268, 37164.59
631.5089, 37216.21
631.9910, 37267.51
632.4731, 37328.30
632.9553, 37385.18
633.4374, 37415.78
633.9195, 37427.24
634.4016, 37456.16
634.8837, 37533.00
635.3658, 37639.02
635.8480, 37715.33
636.3301, 37756.15
636.8122, 37791.77
637.2943, 37820.19
637.7764, 37854.28
638.2585, 37909.41
638.7407, 37979.95
639.2228, 38040.88
639.7049, 38076.12
640.1870, 38107.73
640.6691, 38154.23
641.1512, 38209.73
641.6334, 38260.57
642.1155, 38302.94
642.5976, 38343.54
643.0797, 38389.15
643.5618, 38439.76
644.0439, 38489.79
644.5261, 38538.51
645.0082, 38587.37
645.4903, 38647.12
645.9724, 38699.79
646.4545, 38716.36
646.9366, 38702.39
647.4188, 38706.68
647.9009, 38776.22
648.3830, 38882.45
648.8651, 38961.35
649.3472, 39012.15
649.8293, 39059.46
650.3115, 39110.43
650.7936, 39162.93
651.2757, 39214.16
651.7578, 39264.32
652.2399, 39313.37
652.7220, 39360.48
653.2042, 39407.45
653.6863, 39455.67
654.1684, 39503.80
654.6505, 39548.19
655.1326, 39588.42
655.6147, 39631.18
656.0969, 39686.28
656.5790, 39752.22
657.0611, 39799.20
657.5432, 39808.25
658.0253, 39838.50
658.5074, 39931.75
658.9896, 40042.07
659.4717, 40133.35
659.9538, 40203.00
660.4359, 40260.77
660.9180, 40309.84
661.4001, 40349.86
661.8823, 40373.28
662.3644, 40386.39
662.8465, 40412.67
663.3286, 40461.51
663.8107, 40519.29
664.2928, 40566.31
664.7750, 40599.43
665.2571, 40643.84
665.7392, 40720.99
666.2213, 40784.36
666.7034, 40801.18
667.1855, 40810.89
667.6677, 40862.52
668.1498, 40962.66
668.6319, 41067.38
669.1140, 41147.93
669.5961, 41206.51
670.0782, 41242.02
670.5604, 41254.61
671.0425, 41273.17
671.5246, 41308.32
672.0067, 41356.50
672.4888, 41414.77
672.9709, 41487.04
673.4531, 41549.39
673.9352, 41584.21
674.4173, 41627.17
674.8994, 41704.45
675.3815, 41794.73
675.8636, 41866.01
676.3458, 41910.46
676.8279, 41950.47
677.3100, 42014.88
677.7921, 42096.72
678.2742, 42144.10
678.7563, 42143.96
679.2385, 42159.48
679.7206, 42223.46
680.2027, 42306.85
680.6848, 42371.71
681.1669, 42418.29
681.6490, 42467.82
682.1312, 42540.12
682.6133, 42602.91
683.0954, 42613.86
683.5775, 42603.70
684.0596, 42639.21
684.5417, 42738.61
685.0239, 42855.62
685.5060, 42938.91
685.9881, 42989.07
686.4702, 43033.14
686.9523, 43063.99
687.4344, 43102.11
687.9166, 43152.42
688.3987, 43212.86
688.8808, 43287.07
689.3629, 43373.21
689.8450, 43454.43
690.3271, 43524.16
690.8093, 43585.18
691.2914, 43634.14
691.7735, 43676.12
692.2556, 43724.30
692.7377, 43782.75
693.2198, 43847.60
693.7020, 43915.70
694.1841, 43986.70
694.6662, 44061.62
695.1483, 44150.86
695.6304, 44228.10
696.1125, 44283.04
696.5947, 44329.84
697.0768, 44378.51
697.5589, 44430.35
698.0410, 44484.45
698.5231, 44544.27
699.0052, 44602.37
699.4874, 44646.57
699.9695, 44680.62
700.4516, 44720.15
700.9337, 44768.89
701.4158, 44823.57
701.8979, 44881.77
702.3801, 44943.09
702.8622, 45001.25
703.3443, 45048.43
703.8264, 45102.29
704.3085, 45174.30
704.7906, 45245.35
705.2728, 45296.48
705.7549, 45332.26
706.2370, 45373.79
706.7191, 45432.03
707.2012, 45501.79
707.6833, 45577.66
708.1655, 45658.71
708.6476, 45741.87
709.1297, 45827.45
709.6118, 45911.32
710.0939, 45994.23
710.5760, 46072.46
711.0582, 46124.88
711.5403, 46120.82
712.0224, 46136.50
712.5045, 46180.71
712.9866, 46243.70
713.4688, 46333.87
713.9509, 46435.91
714.4330, 46512.75
714.9151, 46543.89
715.3972, 46562.34
715.8793, 46619.95
716.3615, 46707.60
716.8436, 46765.13
717.3257, 46780.08
717.8078, 46797.23
718.2899, 46841.78
718.7720, 46908.44
719.2542, 46986.07
719.7363, 47078.57
720.2184, 47170.39
720.7005, 47269.76
721.1826, 47358.29
721.6647, 47415.79
722.1469, 47456.88
722.6290, 47510.57
723.1111, 47586.92
723.5932, 47667.30
724.0753, 47730.66
724.5574, 47779.55
725.0396, 47825.23
725.5217, 47867.61
726.0038, 47908.90
726.4859, 47947.32
726.9680, 47988.16
727.4501, 48039.27
727.9323, 48101.52
728.4144, 48170.77
728.8965, 48265.06
729.3786, 48346.99
729.8607, 48385.62
730.3428, 48409.02
730.8250, 48456.76
731.3071, 48535.25
731.7892, 48619.08
732.2713, 48687.11
732.7534, 48742.75
733.2355, 48791.57
733.7177, 48832.71
734.1998, 48888.03
734.6819, 48969.63
735.1640, 49055.41
735.6461, 49120.08
736.1282, 49164.53
736.6104, 49220.19
737.0925, 49294.23
737.5746, 49369.53
738.0567, 49450.16
738.5388, 49523.74
739.0209, 49568.95
739.5031, 49594.68
739.9852, 49639.02
740.4673, 49728.95
740.9494, 49835.99
741.4315, 49908.68
741.9136, 49950.74
742.3958, 50006.62
742.8779, 50086.07
743.3600, 50164.14
743.8421, 50222.02
744.3242, 50266.59
744.8063, 50319.21
745.2885, 50371.33
745.7706, 50447.77
746.2527, 50592.65
746.7348, 50721.84
747.2169, 50769.08
747.6990, 50766.84
748.1812, 50773.97
748.6633, 50811.68
749.1454, 50878.17
749.6275, 50991.84
750.1096, 51131.95
750.5917, 51218.88
751.0739, 51248.81
751.5560, 51285.78
752.0381, 51362.12
752.5202, 51445.50
753.0023, 51483.02
753.4844, 51460.73
753.9666, 51482.48
754.4487, 51590.11
754.9308, 51686.31
755.4129, 51732.66
755.8950, 51761.82
756.3771, 51805.48
756.8593, 51867.59
757.3414, 51937.48
757.8235, 52013.99
758.3056, 52087.55
758.7877, 52135.43
759.2698, 52165.53
759.7520, 52218.02
760.2341, 52303.15
760.7162, 52390.90
761.1983, 52456.30
761.6804, 52505.13
762.1625, 52566.52
762.6447, 52647.36
763.1268, 52730.95
763.6089, 52825.59
764.0910, 52914.23
764.5731, 52984.54
765.0552, 53043.32
765.5374, 53105.06
766.0195, 53174.91
766.5016, 53241.76
766.9837, 53292.72
767.4658, 53337.09
767.9479, 53385.86
768.4301, 53441.63
768.9122, 53517.68
769.3943, 53621.51
769.8764, 53729.59
770.3585, 53803.84
770.8406, 53840.66
771.3228, 53881.71
771.8049, 53921.09
772.2870, 53974.94
772.7691, 54051.49
773.2512, 54141.18
773.7333, 54247.39
774.2155, 54364.20
774.6976, 54454.77
775.1797, 54482.63
775.6618, 54504.13
776.1439, 54557.97
776.6260, 54632.48
777.1082, 54713.66
777.5903, 54796.64
778.0724, 54873.70
778.5545, 54938.19
779.0366, 54996.43
779.5187, 55064.45
780.0009, 55143.17
780.4830, 55226.93
780.9651, 55317.25
781.4472, 55407.39
781.9293, 55496.96
782.4114, 55581.57
782.8936, 55648.17
783.3757, 55688.46
783.8578, 55740.95
784.3399, 55835.14
784.8220, 55924.57
785.3041, 55962.34
785.7863, 55977.98
786.2684, 56027.08
786.7505, 56124.33
787.2326, 56239.20
787.7147, 56349.78
788.1968, 56451.73
788.6790, 56526.25
789.1611, 56572.63
789.6432, 56622.49
790.1253, 56686.41
790.6074, 56750.24
791.0895, 56796.16
791.5717, 56827.47
792.0538, 56880.80
792.5359, 56980.62
793.0180, 57067.20
793.5001, 57131.17
793.9822, 57184.34
794.4644, 57220.65
794.9465, 57255.21
795.4286, 57324.10
795.9107, 57445.51
796.3928, 57568.16
796.8749, 57640.09
797.3571, 57684.80
797.8392, 57747.93
798.3213, 57829.38
798.8034, 57905.84
799.2855, 57966.97
799.7676, 58022.52
800.2498, 58087.21
800.7319, 58161.95
801.2140, 58225.18
801.6961, 58268.95
802.1782, 58315.75
802.6603, 58375.89
803.1425, 58437.73
803.6246, 58489.09
804.1067, 58533.39
804.5888, 58587.35
805.0709, 58658.76
805.5530, 58736.89
806.0352, 58803.07
806.5173, 58881.44
806.9994, 59018.99
807.4815, 59199.98
807.9636, 59360.99
808.4457, 59467.48
808.9279, 59534.93
809.4100, 59573.07
809.8921, 59586.07
810.3742, 59638.22
810.8563, 59740.27
811.3384, 59838.05
811.8206, 59908.01
812.3027, 59960.05
812.7848, 60006.07
813.2669, 60044.24
813.7490, 60086.01
814.2311, 60135.89
814.7133, 60183.13
815.1954, 60213.68
815.6775, 60248.43
816.1596, 60303.32
816.6417, 60380.89
817.1238, 60484.15
817.6060, 60627.43
818.0881, 60766.82
818.5702, 60856.37
819.0523, 60907.42
819.5344, 60931.25
820.0165, 60935.48
820.4987, 60963.23
820.9808, 61039.72
821.4629, 61140.51
821.9450, 61218.99
822.4271, 61269.89
822.9092, 61337.27
823.3914, 61426.68
823.8735, 61521.14
824.3556, 61615.05
824.8377, 61710.48
825.3198, 61814.21
825.8019, 61924.24
826.2841, 62014.87
826.7662, 62069.37
827.2483, 62118.02
827.7304, 62159.03
828.2125, 62211.32
828.6946, 62310.38
829.1768, 62442.05
829.6589, 62551.35
830.1410, 62606.68
830.6231, 62641.52
831.1052, 62693.96
831.5873, 62764.25
832.0695, 62857.81
832.5516, 62975.01
833.0337, 63096.94
833.5158, 63221.19
833.9979, 63323.70
834.4800, 63359.23
834.9622, 63315.09
835.4443, 63339.18
835.9264, 63493.74
836.4085, 63622.87
836.8906, 63669.82
837.3727, 63704.60
837.8549, 63792.25
838.3370, 63916.63
838.8191, 64006.00
839.3012, 64018.60
839.7833, 64037.86
840.2654, 64122.41
840.7476, 64228.91
841.2297, 64308.53
841.7118, 64366.13
842.1939, 64430.86
842.6760, 64515.05
843.1581, 64602.31
843.6403, 64670.06
844.1224, 64722.36
844.6045, 64776.99
845.0866, 64832.94
845.5687, 64905.50
846.0508, 65003.45
846.5330, 65105.32
847.0151, 65188.04
847.4972, 65253.82
847.9793, 65327.91
848.4614, 65439.80
848.9435, 65513.63
849.4257, 65507.95
849.9078, 65503.27
850.3899, 65543.05
850.8720, 65616.58
851.3541, 65703.70
851.8362, 65802.27
852.3184, 65896.64
852.8005, 65977.56
853.2826, 66051.55
853.7647, 66126.95
854.2468, 66200.49
854.7289, 66261.97
855.2111, 66309.85
855.6932, 66353.42
856.1753, 66396.45
856.6574, 66446.98
857.1395, 66535.88
857.6216, 66662.76
858.1038, 66762.22
858.5859, 66819.01
859.0680, 66873.18
859.5501, 66953.29
860.0322, 67044.23
860.5143, 67109.64
860.9965, 67138.77
861.4786, 67175.48
861.9607, 67216.85
862.4428, 67269.86
862.9249, 67344.55
863.4070, 67427.05
863.8892, 67502.32
864.3713, 67571.25
864.8534, 67646.31
865.3355, 67740.66
865.8176, 67831.95
866.2997, 67906.41
866.7819, 67968.58
867.2640, 68013.64
867.7461, 68050.31
868.2282, 68108.24
868.7103, 68202.02
869.1924, 68301.86
869.6746, 68363.30
870.1567, 68394.54
870.6388, 68437.73
871.1209, 68493.45
871.6030, 68559.14
872.0851, 68637.30
872.5673, 68713.98
873.0494, 68771.86
873.5315, 68814.30
874.0136, 68873.12
874.4957, 68959.89
874.9778, 69042.63
875.4600, 69108.01
875.9421, 69179.68
876.4242, 69284.95
876.9063, 69398.38
877.3884, 69469.41
877.8705, 69482.82
878.3527, 69512.69
878.8348, 69598.45
879.3169, 69693.87
879.7990, 69768.77
880.2811, 69832.77
880.7632, 69908.08
881.2454, 69992.28
881.7275, 70052.67
882.2096, 70056.72
882.6917, 70054.93
883.1738, 70132.95
883.6559, 70266.38
884.1381, 70372.90
884.6202, 70445.48
885.1023, 70512.45
885.5844, 70586.34
886.0665, 70671.38
886.5486, 70777.84
887.0308, 70906.54
887.5129, 71012.23
887.9950, 71092.89
888.4771, 71153.44
888.9592, 71179.41
889.4413, 71203.99
889.9235, 71254.47
890.4056, 71326.92
890.8877, 71406.73
891.3698, 71496.42
891.8519, 71588.35
892.3340, 71684.55
892.8162, 71779.86
893.2983, 71882.67
893.7804, 71977.77
894.2625, 72030.88
894.7446, 72042.02
895.2267, 72072.69
895.7089, 72192.61
896.1910, 72316.34
896.6731, 72343.02
897.1552, 72319.78
897.6373, 72325.95
898.1194, 72372.31
898.6016, 72438.30
899.0837, 72512.30
899.5658, 72596.85
900.0479, 72701.68
900.5300, 72822.44
901.0121, 72923.53
901.4943, 73002.22
901.9764, 73090.07
902.4585, 73203.55
902.9406, 73307.36
903.4227, 73358.28
903.9048, 73365.04
904.3870, 73405.54
904.8691, 73503.34
905.3512, 73587.13
905.8333, 73633.04
906.3154, 73686.08
906.7975, 73774.27
907.2797, 73880.05
907.7618, 73973.99
908.2439, 74051.08
908.7260, 74142.70
909.2081, 74273.95
909.6902, 74400.04
910.1724, 74501.66
910.6545, 74584.27
911.1366, 74650.39
911.6187, 74704.24
912.1008, 74750.46
912.5829, 74784.26
913.0651, 74843.31
913.5472, 75000.27
914.0293, 75186.07
914.5114, 75274.84
914.9935, 75284.70
915.4756, 75303.41
915.9578, 75360.41
916.4398, 75440.42
916.9219, 75534.41
917.4041, 75631.47
917.8862, 75683.79
918.3683, 75690.64
918.8504, 75759.48
919.3325, 75921.05
919.8146, 76057.43
920.2968, 76089.17
920.7789, 76076.38
921.2610, 76135.70
921.7431, 76282.80
922.2252, 76403.92
922.7073, 76493.38
923.1895, 76565.27
923.6716, 76596.07
924.1537, 76633.30
924.6358, 76727.79
925.1179, 76857.50
925.6000, 76949.08
926.0822, 76985.91
926.5643, 77004.24
927.0464, 76966.92
927.5285, 76962.26
928.0106, 77075.13
928.4927, 77239.58
928.9749, 77360.38
929.4570, 77424.54
929.9391, 77479.34
930.4212, 77545.90
930.9033, 77622.42
931.3854, 77718.42
931.8676, 77818.29
932.3497, 77898.98
932.8318, 77959.65
933.3139, 78000.83
933.7960, 78023.66
934.2781, 78050.87
934.7603, 78114.17
935.2424, 78201.60
935.7245, 78275.36
936.2066, 78335.76
936.6887, 78382.41
937.1708, 78412.79
937.6530, 78468.20
938.1351, 78584.67
938.6172, 78731.80
939.0993, 78828.36
939.5814, 78859.42
940.0635, 78926.95
940.5457, 79051.43
941.0278, 79161.15
941.5099, 79221.88
941.9920, 79271.63
942.4741, 79354.41
942.9562, 79465.09
943.4384, 79551.25
943.9205, 79602.04
944.4026, 79645.61
944.8847, 79657.70
945.3668, 79690.98
945.8489, 79794.13
946.3311, 79922.01
946.8132, 80008.52
947.2953, 80047.42
947.7774, 80092.67
948.2595, 80167.95
948.7416, 80248.13
949.2238, 80329.48
949.7059, 80402.36
950.1880, 80447.29
950.6701, 80476.91
951.1522, 80526.61
951.6343, 80609.54
952.1165, 80696.65
952.5986, 80761.52
953.0807, 80842.67
953.5628, 80896.30
954.0449, 80982.66
954.5270, 81054.08
955.0092, 81108.51
955.4913, 81163.71
955.9734, 81230.00
956.4555, 81308.16
956.9376, 81401.41
957.4197, 81507.60
957.9019, 81629.94
958.3840, 81766.51
958.8661, 81844.26
959.3482, 81833.79
959.8303, 81824.58
960.3124, 81905.15
960.7946, 82051.00
961.2767, 82165.52
961.7588, 82245.73
962.2409, 82310.19
962.7230, 82351.52
963.2051, 82399.63
963.6873, 82464.58
964.1694, 82546.96
964.6515, 82656.77
965.1336, 82794.08
965.6157, 82887.10
966.0978, 82879.80
966.5800, 82914.95
967.0621, 83044.04
967.5442, 83171.64
968.0263, 83242.58
968.5084, 83283.16
968.9905, 83338.73
969.4727, 83415.05
969.9548, 83474.64
970.4369, 83498.41
970.9190, 83518.44
971.4011, 83527.30
971.8832, 83554.92
972.3654, 83648.29
972.8475, 83778.86
973.3296, 83869.63
973.8117, 83893.38
974.2938, 83932.65
974.7759, 84055.29
975.2581, 84194.32
975.7402, 84301.77
976.2223, 84382.16
976.7044, 84439.31
977.1865, 84478.74
977.6686, 84508.47
978.1508, 84529.07
978.6329, 84566.45
979.1150, 84668.67
979.5971, 84796.01
980.0792, 84868.52
980.5613, 84901.86
981.0435, 84962.95
981.5256, 85064.89
982.0077, 85158.00
982.4898, 85200.02
982.9719, 85228.83
983.4540, 85325.96
983.9362, 85478.05
984.4183, 85612.06
984.9004, 85723.40
985.3825, 85803.77
985.8646, 85846.83
986.3467, 85898.66
986.8289, 86010.98
987.3110, 86163.51
987.7931, 86273.36
988.2752, 86334.61
988.7573, 86389.50
989.2394, 86429.13
989.7216, 86513.95
990.2037, 86692.64
990.6858, 86882.23
991.1679, 86970.23
991.6500, 86963.11
992.1321, 86988.51
992.6143, 87062.11
993.0964, 87132.07
993.5785, 87185.56
994.0606, 87247.98
994.5427, 87342.38
995.0248, 87447.42
995.5070, 87526.09
995.9891, 87575.58
996.4712, 87646.55
996.9533, 87764.66
997.4354, 87869.63
997.9175, 87954.63
998.3997, 88021.55
998.8818, 88050.55
999.3639, 88070.86
999.8460, 88137.66
1000.328, 88260.20
1000.810, 88372.11
1001.292, 88459.73
1001.774, 88529.77
1002.257, 88566.52
1002.739, 88601.72
1003.221, 88664.05
1003.703, 88745.92
1004.185, 88827.45
1004.667, 88903.78
1005.149, 88971.08
1005.631, 89019.02
1006.114, 89066.41
1006.596, 89117.16
1007.078, 89181.35
1007.560, 89286.46
1008.042, 89415.47
1008.524, 89514.64
1009.006, 89561.99
1009.488, 89605.46
1009.970, 89688.88
1010.453, 89782.81
1010.935, 89851.62
1011.417, 89908.11
1011.899, 89980.99
1012.381, 90068.96
1012.863, 90146.98
1013.345, 90201.83
1013.827, 90250.79
1014.310, 90305.41
1014.792, 90371.58
1015.274, 90475.58
1015.756, 90599.12
1016.238, 90684.38
1016.720, 90724.29
1017.202, 90755.43
1017.684, 90798.83
1018.166, 90856.24
1018.649, 90941.32
1019.131, 91041.85
1019.613, 91113.01
1020.095, 91156.88
1020.577, 91186.95
1021.059, 91208.00
1021.541, 91244.00
1022.023, 91312.39
1022.505, 91404.42
1022.988, 91521.86
1023.470, 91657.86
1023.952, 91701.20
1024.434, 91649.60
1024.916, 91625.33
1025.398, 91658.65
1025.880, 91743.32
1026.362, 91884.01
1026.845, 92046.09
1027.327, 92136.41
1027.809, 92146.44
1028.291, 92213.41
1028.773, 92351.39
1029.255, 92455.05
1029.737, 92480.54
1030.219, 92517.63
1030.702, 92647.16
1031.184, 92830.27
1031.666, 92960.09
1032.148, 93031.95
1032.630, 93068.23
1033.112, 93044.66
1033.594, 93057.15
1034.076, 93143.96
1034.558, 93252.09
1035.041, 93336.70
1035.523, 93410.98
1036.005, 93518.98
1036.487, 93680.72
1036.969, 93806.99
1037.451, 93889.64
1037.933, 93953.75
1038.415, 93996.67
1038.897, 94035.24
1039.380, 94085.09
1039.862, 94140.73
1040.344, 94181.66
1040.826, 94193.94
1041.308, 94231.63
1041.790, 94315.61
1042.272, 94394.23
1042.754, 94451.27
1043.237, 94500.88
1043.719, 94541.45
1044.201, 94584.08
1044.683, 94666.48
1045.165, 94813.55
1045.647, 94926.75
1046.129, 94999.23
1046.611, 95042.02
1047.094, 95004.60
1047.576, 94986.73
1048.058, 95088.92
1048.540, 95269.61
1049.022, 95415.17
1049.504, 95512.84
1049.986, 95591.91
1050.468, 95627.65
1050.950, 95681.99
1051.432, 95779.84
1051.915, 95898.20
1052.397, 96052.68
1052.879, 96204.86
1053.361, 96250.64
1053.843, 96144.64
1054.325, 96110.08
1054.807, 96261.59
1055.289, 96405.34
1055.772, 96463.32
1056.254, 96493.05
1056.736, 96524.30
1057.218, 96571.33
1057.700, 96670.83
1058.182, 96840.30
1058.664, 96951.58
1059.146, 96919.26
1059.629, 96888.30
1060.111, 96907.23
1060.593, 96959.99
1061.075, 97049.77
1061.557, 97156.36
1062.039, 97239.71
1062.521, 97291.62
1063.003, 97350.70
1063.485, 97436.38
1063.968, 97523.25
1064.450, 97614.17
1064.932, 97688.44
1065.414, 97708.79
1065.896, 97707.07
1066.378, 97744.89
1066.860, 97832.86
1067.342, 97924.78
1067.824, 98021.70
1068.307, 98094.70
1068.789, 98117.64
1069.271, 98125.11
1069.753, 98134.48
1070.235, 98153.74
1070.717, 98194.62
1071.199, 98257.42
1071.681, 98321.34
1072.164, 98365.23
1072.646, 98428.02
1073.128, 98568.30
1073.610, 98694.27
1074.092, 98702.52
1074.574, 98663.73
1075.056, 98695.85
1075.538, 98807.34
1076.021, 98917.48
1076.503, 98996.74
1076.985, 99066.24
1077.467, 99132.02
1077.949, 99196.55
1078.431, 99277.61
1078.913, 99349.38
1079.395, 99361.42
1079.877, 99324.73
1080.359, 99312.09
1080.842, 99347.73
1081.324, 99414.70
1081.806, 99529.52
1082.288, 99646.16
1082.770, 99748.89
1083.252, 99825.43
1083.734, 99841.26
1084.216, 99818.80
1084.698, 99842.52
1085.181, 99947.75
1085.663, 100054.5
1086.145, 100131.1
1086.627, 100192.2
1087.109, 100240.9
1087.591, 100282.6
1088.073, 100306.7
1088.555, 100331.0
1089.038, 100410.1
1089.520, 100566.9
1090.002, 100688.3
1090.484, 100708.2
1090.966, 100705.1
1091.448, 100700.8
1091.930, 100708.1
1092.412, 100733.0
1092.895, 100779.1
1093.377, 100870.0
1093.859, 101009.8
1094.341, 101086.7
1094.823, 100978.9
1095.305, 100910.1
1095.787, 101020.9
1096.269, 101157.8
1096.751, 101199.9
1097.234, 101188.2
1097.716, 101190.7
1098.198, 101219.5
1098.680, 101277.3
1099.162, 101408.5
1099.644, 101500.0
1100.126, 101468.9
1100.608, 101440.3
1101.090, 101507.2
1101.573, 101608.9
1102.055, 101660.9
1102.537, 101666.5
1103.019, 101693.7
1103.501, 101763.1
1103.983, 101838.2
1104.465, 101936.4
1104.947, 102006.4
1105.430, 101994.5
1105.912, 101967.2
1106.394, 101998.3
1106.876, 102069.8
1107.358, 102102.1
1107.840, 102057.8
1108.322, 102083.4
1108.804, 102293.4
1109.286, 102454.7
1109.769, 102469.2
1110.251, 102439.3
1110.733, 102409.9
1111.215, 102403.9
1111.697, 102475.4
1112.179, 102643.7
1112.661, 102755.5
1113.143, 102754.1
1113.625, 102762.7
1114.108, 102780.0
1114.590, 102831.5
1115.072, 102964.7
1115.554, 103118.2
1116.036, 103203.0
1116.518, 103219.7
1117.000, 103246.5
1117.482, 103283.3
1117.965, 103325.8
1118.447, 103373.0
1118.929, 103426.5
1119.411, 103498.1
1119.893, 103564.4
1120.375, 103595.0
1120.857, 103602.5
1121.339, 103642.6
1121.822, 103674.9
1122.304, 103700.3
1122.786, 103774.6
1123.268, 103787.7
1123.750, 103878.1
1124.232, 103978.9
1124.714, 104043.7
1125.196, 104082.6
1125.678, 104118.0
1126.161, 104151.6
1126.643, 104145.7
1127.125, 104074.2
1127.607, 104077.6
1128.089, 104198.8
1128.571, 104316.1
1129.053, 104356.1
1129.535, 104385.1
1130.017, 104505.8
1130.500, 104535.4
1130.982, 104581.7
1131.464, 104674.1
1131.946, 104675.2
1132.428, 104779.4
1132.910, 104887.6
1133.392, 104963.2
1133.874, 105025.7
1134.357, 105089.5
1134.839, 105163.5
1135.321, 105286.4
1135.803, 105448.4
1136.285, 105550.8
1136.767, 105593.1
1137.249, 105596.6
1137.731, 105568.5
1138.214, 105553.9
1138.696, 105580.8
1139.178, 105634.9
1139.660, 105704.3
1140.142, 105781.3
1140.624, 105828.2
1141.106, 105861.6
1141.588, 105962.6
1142.070, 106119.6
1142.552, 106215.6
1143.035, 106206.6
1143.517, 106164.4
1143.999, 106144.2
1144.481, 106146.4
1144.963, 106191.0
1145.445, 106248.5
1145.927, 106249.4
1146.409, 106219.1
1146.892, 106233.8
1147.374, 106305.7
1147.856, 106398.2
1148.338, 106499.7
1148.820, 106569.5
1149.302, 106534.4
1149.784, 106485.2
1150.266, 106513.1
1150.749, 106592.7
1151.231, 106712.8
1151.713, 106840.4
1152.195, 106882.0
1152.677, 106808.9
1153.159, 106783.5
1153.641, 106957.3
1154.123, 107122.2
1154.605, 107126.3
1155.088, 107104.2
1155.570, 107183.9
1156.052, 107311.4
1156.534, 107381.4
1157.016, 107390.2
1157.498, 107430.3
1157.980, 107539.6
1158.462, 107650.8
1158.944, 107743.3
1159.427, 107838.7
1159.909, 107972.8
1160.391, 108091.5
1160.873, 108126.7
1161.355, 108106.5
1161.837, 108120.8
1162.319, 108189.5
1162.801, 108217.7
1163.284, 108135.9
1163.766, 108128.4
1164.248, 108277.2
1164.730, 108421.4
1165.212, 108471.9
1165.694, 108477.9
1166.176, 108501.4
1166.658, 108542.1
1167.141, 108602.8
1167.623, 108700.3
1168.105, 108746.7
1168.587, 108727.7
1169.069, 108700.9
1169.551, 108681.7
1170.033, 108672.6
1170.515, 108675.9
1170.997, 108691.7
1171.479, 108723.5
1171.962, 108769.9
1172.444, 108808.9
1172.926, 108840.8
1173.408, 108847.9
1173.890, 108830.9
1174.372, 108873.8
1174.854, 109015.1
1175.336, 109166.9
1175.819, 109236.9
1176.301, 109250.9
1176.783, 109246.1
1177.265, 109232.2
1177.747, 109233.6
1178.229, 109250.7
1178.711, 109270.1
1179.193, 109295.3
1179.676, 109370.9
1180.158, 109529.3
1180.640, 109676.0
1181.122, 109717.1
1181.604, 109703.0
1182.086, 109656.3
1182.568, 109613.6
1183.050, 109634.3
1183.532, 109700.0
1184.015, 109756.3
1184.497, 109790.1
1184.979, 109823.8
1185.461, 109855.5
1185.943, 109910.0
1186.425, 110044.0
1186.907, 110154.7
1187.389, 110139.7
1187.871, 110088.6
1188.354, 110120.4
1188.836, 110214.7
1189.318, 110261.2
1189.800, 110221.9
1190.282, 110226.5
1190.764, 110337.4
1191.246, 110418.2
1191.728, 110411.3
1192.211, 110410.9
1192.693, 110485.9
1193.175, 110576.3
1193.657, 110589.6
1194.139, 110539.1
1194.621, 110557.8
1195.103, 110670.5
1195.585, 110739.7
1196.068, 110748.4
1196.550, 110773.3
1197.032, 110841.1
1197.514, 110907.2
1197.996, 110939.6
1198.478, 110948.2
1198.960, 110949.0
1199.442, 110941.9
1199.924, 110927.7
1200.406, 110903.9
1200.889, 110818.9
1201.371, 110690.1
1201.853, 110683.9
1202.335, 110852.8
1202.817, 111068.1
1203.299, 111252.3
1203.781, 111352.5
1204.263, 111231.6
1204.746, 111033.2
1205.228, 110965.0
1205.710, 110990.8
1206.192, 111029.8
1206.674, 111074.8
1207.156, 111172.3
1207.638, 111337.2
1208.120, 111443.4
1208.603, 111379.0
1209.085, 111289.5
1209.567, 111218.4
1210.049, 111186.8
1210.531, 111242.4
1211.013, 111327.6
1211.495, 111360.6
1211.977, 111348.1
1212.459, 111363.8
1212.942, 111445.6
1213.424, 111471.8
1213.906, 111370.0
1214.388, 111308.3
1214.870, 111337.3
1215.352, 111384.4
1215.834, 111417.5
1216.316, 111432.7
1216.798, 111414.3
1217.281, 111374.3
1217.763, 111418.4
1218.245, 111566.4
1218.727, 111618.6
1219.209, 111558.9
1219.691, 111483.3
1220.173, 111416.5
1220.655, 111383.4
1221.138, 111402.2
1221.620, 111454.8
1222.102, 111529.4
1222.584, 111608.2
1223.066, 111640.7
1223.548, 111639.9
1224.030, 111635.2
1224.512, 111631.6
1224.995, 111630.9
1225.477, 111634.2
1225.959, 111639.8
1226.441, 111640.9
1226.923, 111669.5
1227.405, 111791.8
1227.887, 111906.9
1228.369, 111910.1
1228.851, 111875.4
1229.333, 111891.6
1229.816, 111938.8
1230.298, 111958.0
1230.780, 111940.6
1231.262, 111916.1
1231.744, 111864.2
1232.226, 111850.6
1232.708, 111924.6
1233.190, 111985.4
1233.673, 111982.8
1234.155, 111977.5
1234.637, 112030.3
1235.119, 112100.1
1235.601, 112087.1
1236.083, 111991.9
1236.565, 112001.8
1237.047, 112135.7
1237.530, 112226.1
1238.012, 112254.5
1238.494, 112255.7
1238.976, 112240.5
1239.458, 112231.3
1239.940, 112246.7
1240.422, 112272.1
1240.904, 112277.5
1241.386, 112277.5
1241.869, 112318.2
1242.351, 112334.0
1242.833, 112363.1
1243.315, 112406.7
1243.797, 112430.7
1244.279, 112489.2
1244.761, 112532.8
1245.243, 112521.9
1245.725, 112520.9
1246.208, 112578.8
1246.690, 112653.8
1247.172, 112728.5
1247.654, 112795.7
1248.136, 112866.2
1248.618, 112918.9
1249.100, 112892.2
1249.582, 112774.0
1250.065, 112715.2
1250.547, 112785.4
1251.029, 112794.9
1251.511, 112688.4
1251.993, 112621.3
1252.475, 112653.6
1252.957, 112717.9
1253.439, 112771.6
1253.922, 112801.8
1254.404, 112775.2
1254.886, 112704.7
1255.368, 112683.2
1255.850, 112705.7
1256.332, 112726.1
1256.814, 112741.5
1257.296, 112772.6
1257.778, 112822.8
1258.260, 112863.1
1258.743, 112874.4
1259.225, 112875.3
1259.707, 112879.6
1260.189, 112890.4
1260.671, 112920.9
1261.153, 112952.8
1261.635, 112942.9
1262.117, 112924.3
1262.600, 112982.8
1263.082, 113114.0
1263.564, 113184.5
1264.046, 113108.8
1264.528, 113099.2
1265.010, 113269.7
1265.492, 113406.8
1265.974, 113436.6
1266.457, 113431.1
1266.939, 113420.2
1267.421, 113410.1
1267.903, 113411.6
1268.385, 113420.4
1268.867, 113404.1
1269.349, 113359.6
1269.831, 113357.5
1270.313, 113399.6
1270.796, 113492.5
1271.278, 113630.2
1271.760, 113680.4
1272.242, 113576.2
1272.724, 113475.6
1273.206, 113557.9
1273.688, 113692.3
1274.170, 113685.8
1274.652, 113627.0
1275.135, 113642.6
1275.617, 113692.8
1276.099, 113684.9
1276.581, 113634.1
1277.063, 113634.8
1277.545, 113714.5
1278.027, 113780.6
1278.509, 113799.0
1278.992, 113810.4
1279.474, 113851.3
1279.956, 113850.3
1280.438, 113745.7
1280.920, 113628.3
1281.402, 113567.4
1281.884, 113551.4
1282.366, 113556.8
1282.849, 113582.3
1283.331, 113646.9
1283.813, 113751.7
1284.295, 113799.9
1284.777, 113786.1
1285.259, 113775.6
1285.741, 113789.1
1286.223, 113809.2
1286.705, 113834.6
1287.188, 113868.9
##END=



