##NAMES=Miguelromeroite
##RRUFFID=R070064
##IDEAL CHEMISTRY=Mn^2+^_5_(As^5+^O_3_OH)_2_(As^5+^O_4_)_2_(H_2_O)_4_
##LOCALITY=Veta Negra mine, Pampa Larga Mining District, Tierra Amarilla, Chile
##OWNER=RRUFF
##SOURCE=Bob Jenkins
##DESCRIPTION=Sprays of pink thin prismatic crystals associated with siderite and cuproadamite
##STATUS=The identification of this mineral is confirmed by single-crystal X-ray diffraction and chemical analysis.
##URL=rruff.info/R070064
##MEASURED CHEMISTRY=(Mn^2+^_4.64_Ca_0.25_Zn_0.07_Mg_0.04_)_Σ=5_(As_1.00_O_3_OH)_2_(As_1.00_O_4_)_2_·3.98H_2_O; OH estimated by charge balance; H_2_O by difference
129.9881, 844.7950
130.4702, 893.6901
130.9524, 943.3358
131.4345, 993.5766
131.9166, 1044.180
132.3987, 1095.869
132.8808, 1154.906
133.3629, 1205.846
133.8451, 1236.017
134.3272, 1249.426
134.8093, 1262.519
135.2914, 1292.956
135.7735, 1339.800
136.2556, 1367.492
136.7378, 1352.923
137.2199, 1338.275
137.7020, 1343.103
138.1841, 1366.634
138.6662, 1398.996
139.1483, 1432.305
139.6305, 1466.611
140.1126, 1502.465
140.5947, 1536.461
141.0768, 1575.504
141.5589, 1623.282
142.0410, 1679.686
142.5232, 1741.580
143.0053, 1806.388
143.4874, 1875.121
143.9695, 1943.906
144.4516, 2012.991
144.9337, 2081.996
145.4159, 2150.786
145.8980, 2219.533
146.3801, 2287.939
146.8622, 2356.698
147.3443, 2428.716
147.8264, 2491.578
148.3086, 2548.941
148.7907, 2596.440
149.2728, 2630.025
149.7549, 2650.028
150.2370, 2660.583
150.7191, 2665.821
151.2013, 2660.821
151.6834, 2663.835
152.1655, 2683.399
152.6476, 2703.534
153.1297, 2715.092
153.6118, 2716.058
154.0940, 2708.434
154.5761, 2694.110
155.0582, 2669.328
155.5403, 2646.688
156.0224, 2625.102
156.5045, 2606.038
156.9867, 2591.253
157.4688, 2580.856
157.9509, 2572.294
158.4330, 2561.802
158.9151, 2546.167
159.3972, 2537.738
159.8794, 2544.356
160.3615, 2553.309
160.8436, 2551.924
161.3257, 2537.997
161.8078, 2521.307
162.2899, 2515.071
162.7721, 2524.674
163.2542, 2529.437
163.7363, 2522.121
164.2184, 2513.123
164.7005, 2512.898
165.1826, 2523.615
165.6648, 2539.800
166.1469, 2554.897
166.6290, 2568.577
167.1111, 2583.171
167.5932, 2597.328
168.0753, 2613.279
168.5575, 2634.691
169.0396, 2662.472
169.5217, 2691.737
170.0038, 2715.399
170.4859, 2732.733
170.9680, 2754.138
171.4502, 2781.849
171.9323, 2814.171
172.4144, 2852.018
172.8965, 2896.709
173.3786, 2938.048
173.8607, 2959.517
174.3429, 2962.273
174.8250, 2973.821
175.3071, 3006.629
175.7892, 3048.744
176.2713, 3085.650
176.7534, 3115.420
177.2356, 3138.501
177.7177, 3152.709
178.1998, 3159.453
178.6819, 3164.157
179.1640, 3160.583
179.6461, 3158.288
180.1283, 3172.416
180.6104, 3206.499
181.0925, 3249.151
181.5746, 3294.676
182.0567, 3341.679
182.5388, 3384.630
183.0210, 3423.397
183.5031, 3456.776
183.9852, 3481.666
184.4673, 3496.901
184.9494, 3508.014
185.4315, 3517.938
185.9137, 3527.019
186.3958, 3536.050
186.8779, 3549.867
187.3600, 3562.278
187.8421, 3561.582
188.3242, 3544.500
188.8064, 3525.161
189.2885, 3517.191
189.7706, 3514.091
190.2527, 3503.636
190.7348, 3479.453
191.2169, 3446.711
191.6991, 3411.635
192.1812, 3372.613
192.6633, 3337.566
193.1454, 3314.934
193.6275, 3299.133
194.1096, 3282.674
194.5918, 3262.984
195.0739, 3241.753
195.5560, 3220.792
196.0381, 3199.784
196.5202, 3180.601
197.0023, 3162.805
197.4845, 3147.847
197.9666, 3138.444
198.4487, 3136.473
198.9308, 3139.020
199.4129, 3141.703
199.8950, 3143.883
200.3772, 3149.336
200.8593, 3158.408
201.3414, 3172.480
201.8235, 3196.035
202.3056, 3234.154
202.7877, 3273.530
203.2699, 3295.575
203.7520, 3297.644
204.2341, 3299.761
204.7162, 3306.797
205.1983, 3318.942
205.6804, 3338.480
206.1626, 3367.478
206.6447, 3397.716
207.1268, 3418.618
207.6089, 3428.951
208.0910, 3441.960
208.5731, 3464.544
209.0553, 3489.695
209.5374, 3512.622
210.0195, 3532.620
210.5016, 3549.070
210.9837, 3558.101
211.4658, 3559.052
211.9480, 3567.325
212.4301, 3586.016
212.9122, 3614.587
213.3943, 3656.068
213.8764, 3710.616
214.3585, 3764.630
214.8407, 3805.688
215.3228, 3834.233
215.8049, 3861.735
216.2870, 3886.516
216.7691, 3914.370
217.2512, 3953.996
217.7334, 4003.158
218.2155, 4044.794
218.6976, 4062.365
219.1797, 4058.460
219.6618, 4057.025
220.1439, 4062.164
220.6261, 4067.542
221.1082, 4070.111
221.5903, 4069.795
222.0724, 4066.544
222.5545, 4060.809
223.0366, 4052.229
223.5188, 4037.675
224.0009, 4010.442
224.4830, 3988.209
224.9651, 3981.471
225.4472, 3986.463
225.9293, 3995.271
226.4115, 4007.417
226.8936, 4019.919
227.3757, 4022.208
227.8578, 4007.632
228.3399, 3997.591
228.8220, 4007.116
229.3041, 4027.118
229.7863, 4044.101
230.2684, 4051.670
230.7505, 4054.451
231.2326, 4061.590
231.7147, 4075.027
232.1968, 4086.202
232.6790, 4090.212
233.1611, 4090.183
233.6432, 4089.977
234.1253, 4092.615
234.6074, 4091.365
235.0895, 4075.113
235.5717, 4041.733
236.0538, 4009.449
236.5359, 3993.457
237.0180, 3976.643
237.5001, 3940.330
237.9822, 3879.247
238.4644, 3811.321
238.9465, 3752.858
239.4286, 3703.884
239.9107, 3658.629
240.3928, 3619.338
240.8749, 3580.347
241.3571, 3533.332
241.8392, 3477.428
242.3213, 3427.487
242.8034, 3402.559
243.2855, 3396.449
243.7676, 3370.405
244.2498, 3304.625
244.7319, 3234.414
245.2140, 3192.380
245.6961, 3175.441
246.1782, 3160.979
246.6603, 3135.404
247.1425, 3103.486
247.6246, 3079.200
248.1067, 3066.255
248.5888, 3055.282
249.0709, 3038.155
249.5530, 3016.823
250.0352, 2996.504
250.5173, 2976.216
250.9994, 2959.152
251.4815, 2951.310
251.9636, 2954.022
252.4457, 2959.804
252.9279, 2965.858
253.4100, 2971.244
253.8921, 2973.450
254.3742, 2966.974
254.8563, 2961.427
255.3384, 2968.548
255.8206, 2988.108
256.3027, 3006.503
256.7848, 3015.569
257.2669, 3019.616
257.7490, 3029.079
258.2311, 3050.083
258.7133, 3066.281
259.1954, 3064.267
259.6775, 3047.633
260.1596, 3030.975
260.6417, 3018.286
261.1238, 3009.961
261.6060, 3007.884
262.0881, 3014.502
262.5702, 3017.034
263.0523, 3006.287
263.5344, 2988.524
264.0165, 2975.959
264.4987, 2971.841
264.9808, 2972.412
265.4629, 2974.823
265.9450, 2979.663
266.4271, 2979.249
266.9092, 2968.264
267.3914, 2953.265
267.8735, 2941.331
268.3556, 2933.377
268.8377, 2926.677
269.3198, 2917.713
269.8019, 2906.610
270.2841, 2902.817
270.7662, 2910.451
271.2483, 2922.054
271.7304, 2932.831
272.2125, 2942.983
272.6946, 2955.594
273.1768, 2974.097
273.6589, 2996.654
274.1410, 3009.893
274.6231, 3000.038
275.1052, 2997.400
275.5873, 3015.643
276.0695, 3048.272
276.5516, 3082.937
277.0337, 3114.309
277.5158, 3143.075
277.9979, 3170.840
278.4800, 3193.636
278.9622, 3221.186
279.4443, 3257.894
279.9264, 3298.052
280.4085, 3336.461
280.8906, 3371.497
281.3727, 3402.857
281.8549, 3429.553
282.3370, 3446.502
282.8191, 3471.798
283.3012, 3517.087
283.7833, 3560.723
284.2654, 3587.457
284.7476, 3597.730
285.2297, 3603.285
285.7118, 3614.594
286.1939, 3632.069
286.6760, 3650.978
287.1581, 3669.172
287.6403, 3690.992
288.1224, 3723.706
288.6045, 3760.702
289.0866, 3788.329
289.5687, 3797.038
290.0508, 3792.466
290.5330, 3801.147
291.0151, 3834.221
291.4972, 3866.389
291.9793, 3890.355
292.4614, 3913.305
292.9435, 3945.500
293.4257, 3990.446
293.9078, 4037.458
294.3899, 4065.159
294.8720, 4063.251
295.3541, 4070.052
295.8362, 4092.542
296.3184, 4121.679
296.8005, 4157.777
297.2826, 4197.977
297.7647, 4230.665
298.2468, 4242.898
298.7289, 4233.838
299.2111, 4220.693
299.6932, 4203.208
300.1753, 4181.496
300.6574, 4153.137
301.1395, 4120.800
301.6216, 4090.832
302.1038, 4068.621
302.5859, 4050.726
303.0680, 4027.667
303.5501, 3999.569
304.0322, 3965.891
304.5143, 3926.004
304.9964, 3880.794
305.4785, 3828.287
305.9607, 3764.540
306.4428, 3702.527
306.9249, 3658.988
307.4070, 3634.152
307.8891, 3610.040
308.3712, 3580.848
308.8534, 3550.183
309.3355, 3522.643
309.8176, 3498.474
310.2997, 3474.766
310.7818, 3445.215
311.2639, 3414.825
311.7461, 3396.862
312.2282, 3394.762
312.7103, 3401.824
313.1924, 3415.614
313.6745, 3434.789
314.1566, 3449.511
314.6388, 3454.577
315.1209, 3456.342
315.6030, 3458.972
316.0851, 3463.114
316.5672, 3473.023
317.0493, 3493.301
317.5315, 3521.621
318.0136, 3544.910
318.4957, 3552.929
318.9778, 3567.224
319.4599, 3604.865
319.9420, 3653.906
320.4242, 3688.570
320.9063, 3697.107
321.3884, 3693.654
321.8705, 3706.182
322.3526, 3739.739
322.8347, 3781.355
323.3169, 3835.458
323.7990, 3894.218
324.2811, 3950.863
324.7632, 4004.652
325.2453, 4059.237
325.7274, 4118.534
326.2096, 4182.955
326.6917, 4249.299
327.1738, 4313.882
327.6559, 4384.167
328.1380, 4466.493
328.6201, 4556.448
329.1023, 4647.264
329.5844, 4735.348
330.0665, 4819.455
330.5486, 4892.274
331.0307, 4952.907
331.5128, 5002.479
331.9950, 5045.715
332.4771, 5076.903
332.9592, 5085.787
333.4413, 5070.846
333.9234, 5047.680
334.4055, 5037.289
334.8877, 5042.137
335.3698, 5044.626
335.8519, 5028.891
336.3340, 5024.300
336.8161, 5048.350
337.2982, 5097.257
337.7804, 5155.148
338.2625, 5212.580
338.7446, 5270.738
339.2267, 5335.942
339.7088, 5413.513
340.1909, 5484.332
340.6731, 5542.345
341.1552, 5586.864
341.6373, 5614.464
342.1194, 5623.341
342.6015, 5617.378
343.0836, 5598.552
343.5658, 5567.214
344.0479, 5525.606
344.5300, 5467.630
345.0121, 5407.874
345.4942, 5366.585
345.9763, 5345.012
346.4585, 5327.041
346.9406, 5294.217
347.4227, 5266.587
347.9048, 5278.728
348.3869, 5336.139
348.8690, 5404.376
349.3512, 5453.200
349.8333, 5482.525
350.3154, 5523.721
350.7975, 5577.838
351.2796, 5642.374
351.7617, 5720.917
352.2439, 5808.990
352.7260, 5897.125
353.2081, 5980.207
353.6902, 6059.784
354.1723, 6138.697
354.6544, 6202.730
355.1366, 6284.837
355.6187, 6393.044
356.1008, 6514.400
356.5829, 6638.932
357.0650, 6764.318
357.5471, 6894.252
358.0293, 7036.521
358.5114, 7194.765
358.9935, 7332.536
359.4756, 7438.607
359.9577, 7533.924
360.4398, 7629.162
360.9220, 7716.722
361.4041, 7785.346
361.8862, 7830.240
362.3683, 7847.799
362.8504, 7825.668
363.3326, 7753.913
363.8147, 7669.264
364.2968, 7577.034
364.7789, 7477.079
365.2610, 7364.644
365.7431, 7239.964
366.2253, 7116.707
366.7074, 7001.486
367.1895, 6895.991
367.6716, 6807.511
368.1537, 6732.343
368.6358, 6684.622
369.1180, 6682.306
369.6001, 6715.707
370.0822, 6765.034
370.5643, 6820.719
371.0464, 6892.811
371.5285, 7000.005
372.0107, 7137.749
372.4928, 7270.568
372.9749, 7377.938
373.4570, 7474.178
373.9391, 7594.507
374.4212, 7738.668
374.9034, 7899.031
375.3855, 8085.294
375.8676, 8280.896
376.3497, 8471.331
376.8318, 8652.728
377.3139, 8816.039
377.7961, 8953.485
378.2782, 9062.502
378.7603, 9156.616
379.2424, 9246.582
379.7245, 9313.654
380.2066, 9347.580
380.6888, 9354.175
381.1709, 9345.075
381.6530, 9326.517
382.1351, 9293.699
382.6172, 9233.278
383.0993, 9133.573
383.5815, 9027.653
384.0636, 8933.410
384.5457, 8823.966
385.0278, 8671.884
385.5099, 8480.149
385.9920, 8283.627
386.4742, 8111.345
386.9563, 7961.189
387.4384, 7812.629
387.9205, 7661.604
388.4026, 7518.378
388.8847, 7383.527
389.3669, 7259.974
389.8490, 7154.735
390.3311, 7069.998
390.8132, 7001.448
391.2953, 6945.509
391.7774, 6901.986
392.2596, 6871.056
392.7417, 6852.718
393.2238, 6847.292
393.7059, 6859.573
394.1880, 6889.575
394.6701, 6917.805
395.1523, 6938.167
395.6344, 6955.296
396.1165, 6974.349
396.5986, 6995.213
397.0807, 7014.084
397.5628, 7029.300
398.0450, 7040.050
398.5271, 7040.543
399.0092, 7020.335
399.4913, 7004.130
399.9734, 6994.722
400.4555, 6992.587
400.9377, 7001.076
401.4197, 7020.080
401.9019, 7040.959
402.3840, 7053.365
402.8661, 7057.754
403.3482, 7051.150
403.8303, 7022.652
404.3124, 6993.744
404.7946, 6979.863
405.2767, 6970.408
405.7588, 6944.568
406.2409, 6890.598
406.7230, 6814.816
407.2051, 6725.713
407.6873, 6617.824
408.1694, 6520.675
408.6515, 6453.189
409.1336, 6391.874
409.6157, 6317.854
410.0978, 6229.727
410.5800, 6138.086
411.0621, 6043.732
411.5442, 5951.099
412.0263, 5866.679
412.5084, 5790.922
412.9905, 5729.987
413.4727, 5694.634
413.9548, 5678.854
414.4369, 5650.147
414.9190, 5587.219
415.4011, 5536.146
415.8832, 5519.330
416.3654, 5526.328
416.8475, 5540.099
417.3296, 5555.503
417.8117, 5575.345
418.2938, 5604.217
418.7759, 5645.369
419.2581, 5683.948
419.7402, 5710.071
420.2223, 5743.722
420.7044, 5791.948
421.1865, 5855.250
421.6686, 5936.278
422.1508, 6038.722
422.6329, 6150.403
423.1150, 6234.871
423.5971, 6274.323
424.0792, 6331.826
424.5613, 6433.927
425.0435, 6545.499
425.5256, 6638.929
426.0077, 6715.347
426.4898, 6800.470
426.9719, 6928.578
427.4540, 7079.479
427.9362, 7187.353
428.4183, 7240.916
428.9004, 7296.475
429.3825, 7386.444
429.8646, 7500.450
430.3467, 7617.159
430.8289, 7745.760
431.3110, 7856.549
431.7931, 7926.625
432.2752, 7970.670
432.7573, 8017.479
433.2394, 8074.088
433.7216, 8120.358
434.2037, 8132.405
434.6858, 8105.414
435.1679, 8083.018
435.6500, 8069.458
436.1321, 8055.512
436.6143, 8046.703
437.0964, 8032.923
437.5785, 7995.003
438.0606, 7924.601
438.5427, 7837.056
439.0248, 7763.506
439.5070, 7712.276
439.9891, 7649.352
440.4712, 7554.331
440.9533, 7462.905
441.4354, 7388.973
441.9175, 7333.171
442.3997, 7293.720
442.8818, 7278.563
443.3639, 7271.966
443.8460, 7237.984
444.3281, 7173.126
444.8102, 7114.978
445.2924, 7080.067
445.7745, 7057.393
446.2566, 7031.988
446.7387, 7004.555
447.2208, 6970.894
447.7029, 6923.776
448.1851, 6872.545
448.6672, 6833.450
449.1493, 6806.085
449.6314, 6769.546
450.1135, 6708.908
450.5956, 6626.839
451.0778, 6537.452
451.5599, 6431.590
452.0420, 6331.093
452.5241, 6245.782
453.0062, 6163.569
453.4883, 6069.848
453.9705, 5962.955
454.4526, 5855.321
454.9347, 5760.919
455.4168, 5680.287
455.8989, 5594.923
456.3810, 5503.348
456.8632, 5408.125
457.3453, 5302.853
457.8274, 5197.795
458.3095, 5107.743
458.7916, 5038.436
459.2737, 4974.166
459.7559, 4894.106
460.2380, 4803.747
460.7201, 4728.173
461.2022, 4671.415
461.6843, 4632.534
462.1664, 4619.710
462.6486, 4628.764
463.1307, 4626.802
463.6128, 4600.026
464.0949, 4572.387
464.5770, 4556.766
465.0591, 4550.311
465.5413, 4545.982
466.0234, 4541.149
466.5055, 4539.260
466.9876, 4544.891
467.4697, 4555.484
467.9518, 4582.670
468.4340, 4640.470
468.9161, 4698.757
469.3982, 4744.526
469.8803, 4781.091
470.3624, 4816.574
470.8445, 4855.159
471.3267, 4894.865
471.8088, 4931.820
472.2909, 4965.678
472.7730, 4999.859
473.2551, 5035.183
473.7372, 5070.799
474.2194, 5112.584
474.7015, 5156.919
475.1836, 5182.448
475.6657, 5172.064
476.1478, 5145.796
476.6299, 5123.940
477.1121, 5105.409
477.5942, 5083.965
478.0763, 5058.521
478.5584, 5024.513
479.0405, 4972.668
479.5226, 4893.656
480.0048, 4815.464
480.4869, 4738.909
480.9690, 4662.831
481.4511, 4593.615
481.9332, 4524.582
482.4153, 4438.344
482.8975, 4321.443
483.3796, 4187.637
483.8617, 4074.493
484.3438, 3987.399
484.8259, 3907.789
485.3080, 3841.613
485.7902, 3775.765
486.2723, 3697.284
486.7544, 3609.328
487.2365, 3531.740
487.7186, 3480.794
488.2007, 3444.976
488.6829, 3408.206
489.1650, 3370.352
489.6471, 3328.145
490.1292, 3278.578
490.6113, 3225.218
491.0934, 3173.996
491.5756, 3121.976
492.0577, 3080.269
492.5398, 3053.293
493.0219, 3035.063
493.5040, 3025.305
493.9861, 3020.627
494.4683, 3011.719
494.9504, 2992.273
495.4325, 2966.394
495.9146, 2948.797
496.3967, 2946.131
496.8788, 2937.708
497.3610, 2910.994
497.8431, 2886.671
498.3252, 2880.620
498.8073, 2890.282
499.2894, 2899.925
499.7715, 2900.963
500.2536, 2895.524
500.7357, 2885.044
501.2179, 2869.278
501.7000, 2859.334
502.1821, 2861.967
502.6642, 2869.729
503.1463, 2870.701
503.6284, 2864.604
504.1106, 2856.223
504.5927, 2843.019
505.0748, 2830.614
505.5569, 2825.586
506.0390, 2825.565
506.5211, 2821.266
507.0033, 2807.055
507.4854, 2788.243
507.9675, 2778.883
508.4496, 2785.677
508.9317, 2787.342
509.4138, 2783.750
509.8960, 2774.307
510.3781, 2753.525
510.8602, 2726.112
511.3423, 2705.091
511.8244, 2700.052
512.3066, 2701.448
512.7887, 2695.505
513.2708, 2682.241
513.7529, 2661.615
514.2350, 2629.772
514.7172, 2596.677
515.1993, 2576.260
515.6814, 2568.213
516.1635, 2559.708
516.6456, 2548.820
517.1277, 2537.259
517.6099, 2528.353
518.0920, 2519.432
518.5741, 2501.796
519.0562, 2471.780
519.5383, 2441.260
520.0204, 2431.862
520.5026, 2451.636
520.9847, 2464.594
521.4668, 2469.686
521.9489, 2468.342
522.4310, 2457.865
522.9131, 2441.910
523.3953, 2425.290
523.8774, 2408.396
524.3595, 2396.489
524.8416, 2402.304
525.3237, 2420.352
525.8058, 2419.541
526.2880, 2390.052
526.7701, 2356.725
527.2522, 2341.454
527.7343, 2343.599
528.2164, 2344.382
528.6985, 2342.593
529.1807, 2349.951
529.6628, 2352.313
530.1449, 2349.945
530.6270, 2328.682
531.1091, 2331.818
531.5912, 2325.176
532.0734, 2318.132
532.5555, 2324.702
533.0376, 2306.188
533.5197, 2312.542
534.0018, 2308.969
534.4839, 2309.940
534.9661, 2286.085
535.4482, 2277.338
535.9303, 2264.459
536.4124, 2252.633
536.8945, 2244.341
537.3766, 2239.754
537.8588, 2241.734
538.3409, 2250.038
538.8230, 2254.196
539.3051, 2246.996
539.7872, 2232.664
540.2693, 2223.771
540.7515, 2226.075
541.2336, 2224.000
541.7157, 2212.490
542.1978, 2200.012
542.6799, 2191.818
543.1620, 2188.068
543.6442, 2187.807
544.1263, 2191.353
544.6084, 2195.271
545.0905, 2189.614
545.5726, 2171.873
546.0547, 2161.005
546.5369, 2165.368
547.0190, 2172.026
547.5011, 2166.904
547.9832, 2153.556
548.4653, 2148.793
548.9474, 2166.173
549.4296, 2185.104
549.9116, 2191.340
550.3937, 2187.787
550.8759, 2179.029
551.3580, 2166.538
551.8401, 2155.526
552.3222, 2152.621
552.8043, 2158.615
553.2864, 2164.917
553.7686, 2174.455
554.2507, 2180.890
554.7328, 2181.218
555.2149, 2178.498
555.6970, 2176.267
556.1791, 2175.340
556.6613, 2173.857
557.1434, 2168.648
557.6255, 2161.666
558.1076, 2159.597
558.5897, 2163.249
559.0718, 2167.110
559.5540, 2168.178
560.0361, 2167.611
560.5182, 2169.010
561.0003, 2175.442
561.4824, 2175.929
561.9645, 2163.370
562.4467, 2148.667
562.9288, 2137.493
563.4109, 2131.624
563.8930, 2134.060
564.3751, 2147.132
564.8572, 2165.358
565.3394, 2177.755
565.8215, 2184.579
566.3036, 2183.570
566.7857, 2165.732
567.2678, 2150.627
567.7499, 2154.670
568.2321, 2171.011
568.7142, 2181.240
569.1963, 2178.253
569.6784, 2171.448
570.1605, 2166.594
570.6426, 2162.684
571.1248, 2156.366
571.6069, 2147.273
572.0890, 2141.684
572.5711, 2146.713
573.0532, 2161.208
573.5353, 2166.517
574.0175, 2155.481
574.4996, 2144.902
574.9817, 2134.402
575.4638, 2126.959
575.9459, 2129.302
576.4280, 2139.137
576.9102, 2141.522
577.3923, 2111.495
577.8744, 2122.273
578.3565, 2128.053
578.8386, 2129.104
579.3207, 2111.260
579.8029, 2117.815
580.2850, 2114.592
580.7671, 2110.968
581.2492, 2120.957
581.7313, 2105.861
582.2134, 2115.634
582.6956, 2115.480
583.1777, 2119.869
583.6598, 2114.420
584.1419, 2112.010
584.6240, 2119.441
585.1061, 2121.423
585.5883, 2103.771
586.0704, 2125.095
586.5525, 2130.854
587.0346, 2114.816
587.5167, 2101.466
587.9988, 2104.455
588.4810, 2115.680
588.9631, 2122.712
589.4452, 2125.573
589.9273, 2123.171
590.4094, 2105.414
590.8915, 2089.796
591.3737, 2097.833
591.8558, 2122.309
592.3379, 2138.005
592.8200, 2132.167
593.3021, 2115.514
593.7842, 2108.772
594.2664, 2115.165
594.7485, 2117.398
595.2306, 2108.144
595.7127, 2103.575
596.1948, 2116.822
596.6769, 2137.550
597.1591, 2147.536
597.6412, 2140.241
598.1233, 2130.971
598.6054, 2131.208
599.0875, 2135.234
599.5696, 2131.750
600.0518, 2120.784
600.5339, 2114.219
601.0160, 2120.848
601.4981, 2135.446
601.9802, 2141.041
602.4623, 2132.187
602.9445, 2124.565
603.4266, 2114.531
603.9087, 2109.671
604.3908, 2120.400
604.8729, 2138.968
605.3550, 2146.173
605.8372, 2130.007
606.3193, 2111.737
606.8014, 2119.935
607.2835, 2144.593
607.7656, 2150.981
608.2477, 2132.243
608.7299, 2111.651
609.2120, 2107.091
609.6941, 2115.933
610.1762, 2122.662
610.6583, 2126.592
611.1404, 2129.307
611.6226, 2131.563
612.1047, 2132.080
612.5868, 2128.699
613.0689, 2122.620
613.5510, 2117.159
614.0331, 2113.395
614.5153, 2112.881
614.9974, 2119.177
615.4795, 2131.580
615.9616, 2144.925
616.4437, 2159.096
616.9258, 2170.296
617.4080, 2174.877
617.8901, 2173.225
618.3722, 2170.000
618.8543, 2163.812
619.3364, 2158.025
619.8185, 2148.849
620.3007, 2135.531
620.7828, 2149.420
621.2649, 2158.311
621.7470, 2162.472
622.2291, 2147.738
622.7112, 2157.403
623.1934, 2157.291
623.6755, 2156.777
624.1576, 2169.876
624.6397, 2157.891
625.1218, 2170.775
625.6039, 2173.730
626.0861, 2181.231
626.5682, 2178.892
627.0503, 2179.592
627.5324, 2190.134
628.0145, 2195.226
628.4966, 2191.755
628.9788, 2199.544
629.4609, 2192.663
629.9430, 2197.891
630.4251, 2198.189
630.9072, 2197.087
631.3893, 2205.709
631.8715, 2225.506
632.3536, 2238.361
632.8357, 2238.050
633.3178, 2233.994
633.7999, 2235.864
634.2820, 2241.959
634.7642, 2241.980
635.2463, 2226.350
635.7284, 2215.452
636.2105, 2220.414
636.6926, 2231.225
637.1747, 2237.105
637.6569, 2236.958
638.1390, 2235.018
638.6211, 2233.765
639.1032, 2234.068
639.5853, 2240.011
640.0674, 2252.959
640.5496, 2259.358
641.0317, 2253.551
641.5138, 2245.438
641.9959, 2243.041
642.4780, 2245.541
642.9601, 2249.627
643.4423, 2257.651
643.9244, 2264.019
644.4065, 2266.638
644.8886, 2266.783
645.3707, 2264.856
645.8528, 2261.615
646.3350, 2258.762
646.8171, 2257.059
647.2992, 2257.544
647.7813, 2263.963
648.2634, 2277.014
648.7455, 2287.506
649.2277, 2293.153
649.7098, 2297.365
650.1919, 2305.685
650.6740, 2314.953
651.1561, 2312.881
651.6382, 2284.562
652.1204, 2266.167
652.6025, 2277.307
653.0846, 2296.600
653.5667, 2301.659
654.0488, 2294.524
654.5309, 2292.858
655.0131, 2308.319
655.4952, 2330.580
655.9773, 2339.759
656.4594, 2335.639
656.9415, 2326.983
657.4236, 2310.041
657.9058, 2300.999
658.3879, 2316.222
658.8700, 2347.684
659.3521, 2366.572
659.8342, 2367.607
660.3163, 2366.551
660.7985, 2364.276
661.2806, 2363.010
661.7627, 2367.413
662.2448, 2374.173
662.7269, 2373.749
663.2090, 2360.983
663.6912, 2345.705
664.1733, 2342.271
664.6554, 2349.693
665.1375, 2357.930
665.6196, 2366.518
666.1017, 2374.616
666.5839, 2382.798
667.0660, 2389.562
667.5481, 2390.744
668.0302, 2384.468
668.5123, 2378.109
668.9944, 2366.585
669.4766, 2360.680
669.9587, 2371.564
670.4408, 2390.929
670.9229, 2404.569
671.4050, 2407.732
671.8871, 2405.031
672.3693, 2399.409
672.8514, 2391.941
673.3335, 2385.489
673.8156, 2380.121
674.2977, 2377.782
674.7798, 2379.274
675.2620, 2384.455
675.7441, 2393.611
676.2262, 2408.211
676.7083, 2420.827
677.1904, 2434.938
677.6725, 2443.169
678.1547, 2440.796
678.6368, 2432.547
679.1189, 2422.280
679.6010, 2411.402
680.0831, 2402.995
680.5652, 2401.608
681.0474, 2402.816
681.5295, 2397.270
682.0116, 2387.037
682.4937, 2385.121
682.9758, 2396.382
683.4579, 2408.007
683.9401, 2403.546
684.4222, 2383.400
684.9043, 2382.029
685.3864, 2421.517
685.8685, 2446.425
686.3506, 2437.497
686.8328, 2420.982
687.3149, 2416.210
687.7970, 2422.655
688.2791, 2430.442
688.7612, 2438.831
689.2433, 2442.718
689.7255, 2431.063
690.2076, 2413.873
690.6897, 2412.055
691.1718, 2427.738
691.6539, 2447.095
692.1360, 2460.040
692.6182, 2468.067
693.1003, 2476.327
693.5824, 2486.186
694.0645, 2490.908
694.5466, 2484.569
695.0287, 2479.581
695.5109, 2483.367
695.9930, 2493.623
696.4751, 2506.723
696.9572, 2524.470
697.4393, 2538.797
697.9214, 2544.266
698.4036, 2546.658
698.8857, 2554.557
699.3678, 2564.046
699.8499, 2559.796
700.3320, 2534.951
700.8141, 2509.898
701.2963, 2517.868
701.7784, 2556.011
702.2605, 2584.116
702.7426, 2601.069
703.2247, 2608.054
703.7068, 2599.126
704.1890, 2587.259
704.6711, 2595.602
705.1532, 2629.073
705.6353, 2654.233
706.1174, 2661.750
706.5995, 2669.909
707.0817, 2690.670
707.5638, 2713.384
708.0459, 2724.616
708.5280, 2722.760
709.0101, 2715.830
709.4922, 2703.267
709.9744, 2694.658
710.4565, 2712.620
710.9386, 2751.244
711.4207, 2777.180
711.9028, 2781.523
712.3849, 2782.234
712.8671, 2795.759
713.3492, 2820.113
713.8313, 2840.763
714.3134, 2853.419
714.7955, 2870.063
715.2776, 2899.035
715.7598, 2925.194
716.2419, 2935.487
716.7240, 2936.679
717.2061, 2946.404
717.6882, 2972.893
718.1703, 2999.060
718.6525, 3010.665
719.1346, 3018.806
719.6167, 3039.626
720.0988, 3071.147
720.5809, 3099.557
721.0630, 3117.929
721.5452, 3134.772
722.0273, 3166.969
722.5094, 3215.531
722.9915, 3247.760
723.4736, 3257.838
723.9557, 3268.806
724.4379, 3289.146
724.9200, 3316.278
725.4021, 3349.498
725.8842, 3389.833
726.3663, 3421.821
726.8484, 3432.879
727.3306, 3448.049
727.8127, 3479.664
728.2948, 3519.493
728.7769, 3559.904
729.2590, 3598.689
729.7411, 3634.162
730.2233, 3663.503
730.7054, 3691.271
731.1875, 3725.185
731.6696, 3763.942
732.1517, 3798.779
732.6339, 3827.687
733.1160, 3865.974
733.5981, 3928.178
734.0802, 4004.949
734.5623, 4057.974
735.0444, 4069.874
735.5266, 4097.384
736.0087, 4152.061
736.4908, 4213.348
736.9729, 4282.030
737.4550, 4347.754
737.9371, 4389.168
738.4193, 4395.589
738.9014, 4415.535
739.3835, 4482.042
739.8656, 4560.548
740.3477, 4618.778
740.8298, 4664.678
741.3120, 4718.070
741.7941, 4785.657
742.2762, 4865.116
742.7583, 4960.522
743.2404, 5064.087
743.7225, 5139.656
744.2047, 5185.486
744.6868, 5233.900
745.1689, 5293.809
745.6510, 5359.218
746.1331, 5423.621
746.6152, 5487.759
747.0973, 5557.526
747.5794, 5634.821
748.0615, 5714.733
748.5436, 5799.251
749.0258, 5884.375
749.5079, 5967.637
749.9900, 5954.384
750.4721, 6091.563
750.9542, 6206.252
751.4363, 6299.647
751.9185, 6308.047
752.4006, 6426.210
752.8827, 6500.383
753.3648, 6572.751
753.8469, 6706.379
754.3290, 6727.114
754.8112, 6892.121
755.2933, 6980.023
755.7754, 7084.053
756.2575, 7173.446
756.7396, 7243.760
757.2217, 7317.141
757.7039, 7406.730
758.1860, 7494.101
758.6681, 7554.487
759.1502, 7588.072
759.6323, 7641.416
760.1144, 7735.601
760.5966, 7821.327
761.0787, 7884.518
761.5608, 7938.812
762.0429, 7991.354
762.5250, 8044.945
763.0071, 8104.328
763.4893, 8174.092
763.9714, 8240.952
764.4535, 8287.593
764.9356, 8325.402
765.4177, 8377.088
765.8998, 8441.227
766.3820, 8500.644
766.8641, 8547.199
767.3462, 8586.829
767.8283, 8627.515
768.3104, 8669.021
768.7925, 8714.187
769.2747, 8759.710
769.7568, 8819.479
770.2389, 8906.783
770.7210, 8999.512
771.2031, 9079.231
771.6852, 9145.244
772.1674, 9189.665
772.6495, 9178.526
773.1316, 9190.786
773.6137, 9247.809
774.0958, 9332.216
774.5779, 9440.006
775.0601, 9561.816
775.5422, 9679.072
776.0243, 9784.005
776.5064, 9886.757
776.9885, 9994.644
777.4706, 10106.93
777.9528, 10223.24
778.4349, 10342.25
778.9170, 10460.91
779.3991, 10576.90
779.8812, 10697.22
780.3633, 10832.04
780.8455, 10979.65
781.3276, 11122.26
781.8097, 11258.52
782.2918, 11391.90
782.7739, 11520.07
783.2560, 11650.05
783.7382, 11786.44
784.2203, 11929.76
784.7024, 12085.96
785.1845, 12287.63
785.6666, 12455.00
786.1487, 12558.13
786.6309, 12644.49
787.1130, 12724.34
787.5951, 12817.21
788.0772, 12961.57
788.5593, 13175.18
789.0414, 13391.83
789.5236, 13574.60
790.0057, 13727.53
790.4878, 13838.36
790.9699, 13923.71
791.4520, 14027.57
791.9341, 14162.84
792.4163, 14309.09
792.8984, 14448.06
793.3805, 14580.47
793.8626, 14714.02
794.3447, 14849.55
794.8268, 14963.26
795.3090, 15039.40
795.7911, 15131.66
796.2732, 15295.43
796.7553, 15500.47
797.2374, 15633.42
797.7195, 15638.94
798.2017, 15679.32
798.6838, 15798.92
799.1659, 15901.16
799.6480, 15944.89
800.1301, 15949.68
800.6122, 15939.13
801.0944, 15916.86
801.5765, 15891.04
802.0586, 15880.21
802.5407, 15851.37
803.0228, 15787.30
803.5049, 15687.37
803.9871, 15538.25
804.4692, 15349.21
804.9513, 15165.41
805.4334, 15018.00
805.9155, 14882.00
806.3976, 14720.34
806.8798, 14535.06
807.3619, 14331.80
807.8440, 14111.41
808.3261, 13884.13
808.8082, 13652.65
809.2903, 13426.94
809.7725, 13224.98
810.2546, 13047.09
810.7367, 12886.81
811.2188, 12754.22
811.7009, 12617.71
812.1830, 12466.20
812.6652, 12308.86
813.1473, 12138.66
813.6294, 11964.38
814.1115, 11837.39
814.5936, 11792.77
815.0757, 11753.82
815.5579, 11707.99
816.0400, 11659.20
816.5221, 11601.96
817.0042, 11546.05
817.4863, 11506.64
817.9684, 11487.79
818.4506, 11496.29
818.9327, 11557.04
819.4148, 11632.91
819.8969, 11670.36
820.3790, 11685.58
820.8611, 11723.21
821.3433, 11793.58
821.8254, 11875.99
822.3075, 11952.20
822.7896, 12027.75
823.2717, 12122.49
823.7538, 12235.34
824.2360, 12333.04
824.7181, 12407.85
825.2002, 12490.49
825.6823, 12603.91
826.1644, 12730.30
826.6465, 12831.90
827.1287, 12901.83
827.6108, 12977.81
828.0929, 13060.91
828.5750, 13149.34
829.0571, 13247.90
829.5392, 13347.89
830.0214, 13447.96
830.5035, 13545.17
830.9856, 13616.68
831.4677, 13635.74
831.9498, 13658.48
832.4319, 13718.40
832.9141, 13774.24
833.3962, 13788.79
833.8783, 13772.15
834.3604, 13758.83
834.8425, 13761.32
835.3246, 13736.89
835.8068, 13633.71
836.2889, 13496.93
836.7710, 13403.45
837.2531, 13325.24
837.7352, 13177.94
838.2173, 12945.21
838.6995, 12681.30
839.1816, 12427.53
839.6637, 12185.27
840.1458, 11960.38
840.6279, 11752.05
841.1100, 11537.75
841.5922, 11311.06
842.0743, 11102.36
842.5564, 10922.55
843.0385, 10777.81
843.5206, 10683.38
844.0027, 10649.48
844.4849, 10583.01
844.9670, 10433.68
845.4491, 10344.04
845.9312, 10374.34
846.4133, 10455.97
846.8954, 10539.30
847.3776, 10624.50
847.8597, 10710.50
848.3418, 10786.24
848.8239, 10881.70
849.3060, 11004.08
849.7881, 11145.71
850.2703, 11305.12
850.7524, 11478.83
851.2345, 11665.95
851.7166, 11865.62
852.1987, 12058.21
852.6808, 12227.39
853.1630, 12389.71
853.6451, 12558.25
854.1272, 12731.10
854.6093, 12909.57
855.0914, 13091.34
855.5735, 13269.99
856.0557, 13441.29
856.5378, 13611.18
857.0199, 13783.73
857.5020, 13962.42
857.9841, 14159.31
858.4662, 14373.50
858.9484, 14587.31
859.4305, 14793.14
859.9126, 15008.02
860.3947, 15250.84
860.8768, 15518.11
861.3589, 15795.36
861.8411, 16083.84
862.3232, 16375.30
862.8053, 16668.27
863.2874, 16966.70
863.7695, 17281.69
864.2516, 17599.24
864.7338, 17890.84
865.2159, 18156.08
865.6980, 18397.95
866.1801, 18592.95
866.6622, 18794.04
867.1443, 19045.30
867.6265, 19284.79
868.1086, 19457.58
868.5907, 19567.15
869.0728, 19647.67
869.5549, 19718.42
870.0370, 19740.20
870.5192, 19708.34
871.0013, 19616.15
871.4834, 19439.43
871.9655, 19205.53
872.4476, 18963.38
872.9297, 18723.92
873.4119, 18465.36
873.8940, 18156.91
874.3761, 17835.82
874.8582, 17545.82
875.3403, 17262.36
875.8224, 16929.31
876.3046, 16553.28
876.7867, 16196.80
877.2688, 15895.44
877.7509, 15632.92
878.2330, 15390.19
878.7151, 15168.58
879.1973, 14969.07
879.6794, 14792.66
880.1615, 14637.75
880.6436, 14504.30
881.1257, 14415.15
881.6078, 14395.74
882.0900, 14433.83
882.5721, 14481.18
883.0542, 14535.65
883.5363, 14626.38
884.0184, 14756.30
884.5005, 14928.04
884.9827, 15145.76
885.4648, 15401.55
885.9469, 15681.37
886.4290, 15986.79
886.9111, 16309.93
887.3932, 16650.25
887.8754, 17012.37
888.3575, 17403.47
888.8396, 17810.02
889.3217, 18241.47
889.8038, 18678.94
890.2859, 19066.53
890.7681, 19411.60
891.2502, 19686.98
891.7323, 19873.85
892.2144, 20007.63
892.6965, 20139.52
893.1786, 20203.66
893.6608, 20125.37
894.1429, 19902.65
894.6250, 19584.04
895.1071, 19183.13
895.5892, 18694.85
896.0714, 18093.59
896.5535, 17424.05
897.0356, 16696.10
897.5177, 15937.26
897.9998, 15186.29
898.4819, 14452.25
898.9641, 13735.64
899.4462, 13035.16
899.9283, 12352.44
900.4104, 11674.04
900.8925, 11021.08
901.3746, 10432.35
901.8568, 9909.631
902.3389, 9433.364
902.8210, 8996.043
903.3031, 8591.456
903.7852, 8211.737
904.2673, 7859.264
904.7495, 7546.412
905.2316, 7269.261
905.7137, 7012.900
906.1958, 6772.625
906.6779, 6553.238
907.1600, 6359.787
907.6422, 6189.550
908.1243, 6037.061
908.6064, 5901.716
909.0885, 5782.778
909.5706, 5680.982
910.0527, 5587.564
910.5349, 5500.507
911.0170, 5414.092
911.4991, 5320.294
911.9812, 5220.885
912.4633, 5135.206
912.9454, 5063.047
913.4276, 5005.356
913.9097, 4971.122
914.3918, 4931.023
914.8739, 4866.681
915.3560, 4787.744
915.8381, 4709.844
916.3203, 4630.921
916.8024, 4567.698
917.2845, 4529.321
917.7666, 4492.073
918.2487, 4461.745
918.7308, 4421.411
919.2130, 4345.833
919.6951, 4252.798
920.1772, 4193.676
920.6593, 4191.181
921.1414, 4164.514
921.6235, 4077.179
922.1057, 3997.547
922.5878, 3956.254
923.0699, 3931.490
923.5520, 3906.030
924.0341, 3875.969
924.5162, 3835.191
924.9984, 3779.517
925.4805, 3717.787
925.9626, 3642.693
926.4447, 3572.865
926.9268, 3524.972
927.4089, 3489.375
927.8911, 3454.004
928.3732, 3415.329
928.8553, 3368.465
929.3374, 3302.706
929.8195, 3240.305
930.3016, 3202.380
930.7838, 3172.295
931.2659, 3128.118
931.7480, 3076.173
932.2301, 3038.174
932.7122, 3019.935
933.1943, 2996.835
933.6765, 2941.926
934.1586, 2879.287
934.6407, 2839.268
935.1228, 2811.181
935.6049, 2773.951
936.0870, 2728.077
936.5692, 2689.052
937.0513, 2663.989
937.5334, 2644.108
938.0155, 2620.182
938.4976, 2593.863
938.9797, 2567.010
939.4619, 2540.811
939.9440, 2521.744
940.4261, 2509.446
940.9082, 2489.684
941.3903, 2452.470
941.8724, 2410.504
942.3546, 2384.902
942.8367, 2371.890
943.3188, 2354.646
943.8009, 2333.193
944.2830, 2311.063
944.7651, 2289.228
945.2472, 2268.861
945.7293, 2251.089
946.2114, 2235.249
946.6935, 2219.368
947.1757, 2203.532
947.6578, 2194.041
948.1399, 2191.963
948.6220, 2180.821
949.1041, 2153.114
949.5862, 2125.464
950.0684, 2115.854
950.5505, 2119.355
951.0326, 2115.432
951.5147, 2103.391
951.9968, 2087.834
952.4789, 2067.492
952.9611, 2050.247
953.4432, 2039.477
953.9253, 2033.505
954.4074, 2031.282
954.8895, 2032.108
955.3716, 2028.122
955.8538, 2018.010
956.3359, 2007.280
956.8180, 1995.196
957.3001, 1985.953
957.7822, 1983.715
958.2643, 1982.732
958.7465, 1972.596
959.2286, 1952.705
959.7107, 1945.563
960.1928, 1962.530
960.6749, 1967.479
961.1570, 1946.772
961.6392, 1926.395
962.1213, 1922.348
962.6034, 1927.305
963.0855, 1928.196
963.5676, 1924.138
964.0497, 1922.200
964.5319, 1925.361
965.0140, 1926.037
965.4961, 1919.997
965.9782, 1914.354
966.4603, 1915.039
966.9424, 1918.815
967.4246, 1919.566
967.9067, 1917.802
968.3888, 1910.358
968.8709, 1886.517
969.3530, 1871.413
969.8351, 1878.177
970.3173, 1888.492
970.7994, 1889.873
971.2815, 1884.456
971.7636, 1877.719
972.2457, 1868.682
972.7278, 1864.172
973.2100, 1870.265
973.6921, 1874.193
974.1742, 1873.917
974.6563, 1867.972
975.1384, 1852.006
975.6205, 1829.696
976.1027, 1811.086
976.5848, 1796.858
977.0669, 1788.810
977.5490, 1790.005
978.0311, 1794.105
978.5132, 1801.114
978.9954, 1807.766
979.4775, 1813.256
979.9596, 1815.719
980.4417, 1808.711
980.9238, 1785.894
981.4059, 1770.313
981.8881, 1775.206
982.3702, 1780.974
982.8523, 1776.370
983.3344, 1768.836
983.8165, 1771.037
984.2986, 1778.332
984.7808, 1768.950
985.2629, 1727.827
985.7450, 1699.405
986.2271, 1710.474
986.7092, 1725.957
987.1913, 1724.435
987.6735, 1717.440
988.1556, 1721.419
988.6377, 1734.025
989.1198, 1738.905
989.6019, 1728.886
990.0840, 1717.729
990.5662, 1711.244
991.0483, 1705.082
991.5304, 1692.292
992.0125, 1681.051
992.4946, 1686.128
992.9767, 1703.474
993.4589, 1710.037
993.9410, 1694.474
994.4231, 1679.154
994.9052, 1671.423
995.3873, 1670.054
995.8694, 1679.583
996.3516, 1691.586
996.8337, 1696.872
997.3158, 1694.398
997.7979, 1685.407
998.2800, 1666.123
998.7621, 1652.600
999.2443, 1659.071
999.7264, 1666.450
1000.208, 1659.972
1000.691, 1647.441
1001.173, 1638.293
1001.655, 1633.815
1002.137, 1633.023
1002.619, 1637.776
1003.101, 1639.644
1003.583, 1628.535
1004.065, 1619.811
1004.548, 1631.392
1005.030, 1647.084
1005.512, 1641.274
1005.994, 1617.897
1006.476, 1606.384
1006.958, 1621.601
1007.440, 1634.178
1007.922, 1628.067
1008.404, 1617.709
1008.887, 1611.592
1009.369, 1607.498
1009.851, 1601.474
1010.333, 1594.064
1010.815, 1589.155
1011.297, 1588.089
1011.779, 1589.112
1012.261, 1595.877
1012.744, 1599.562
1013.226, 1594.003
1013.708, 1582.771
1014.190, 1566.859
1014.672, 1549.379
1015.154, 1538.570
1015.636, 1537.403
1016.118, 1540.884
1016.600, 1550.254
1017.083, 1560.086
1017.565, 1571.184
1018.047, 1578.295
1018.529, 1572.785
1019.011, 1558.500
1019.493, 1549.823
1019.975, 1552.381
1020.457, 1551.596
1020.940, 1537.373
1021.422, 1525.170
1021.904, 1525.195
1022.386, 1528.648
1022.868, 1525.068
1023.350, 1517.561
1023.832, 1518.772
1024.314, 1535.040
1024.797, 1541.013
1025.279, 1515.879
1025.761, 1497.360
1026.243, 1511.064
1026.725, 1528.488
1027.207, 1520.567
1027.689, 1497.528
1028.171, 1488.862
1028.653, 1502.483
1029.135, 1507.508
1029.618, 1486.142
1030.100, 1471.612
1030.582, 1477.490
1031.064, 1490.479
1031.546, 1503.891
1032.028, 1516.073
1032.510, 1526.591
1032.992, 1536.806
1033.475, 1533.863
1033.957, 1499.652
1034.439, 1476.140
1034.921, 1481.036
1035.403, 1488.856
1035.885, 1479.996
1036.367, 1465.503
1036.849, 1467.500
1037.332, 1488.800
1037.814, 1497.358
1038.296, 1480.586
1038.778, 1469.433
1039.260, 1469.104
1039.742, 1471.905
1040.224, 1475.750
1040.706, 1479.425
1041.188, 1480.603
1041.671, 1479.390
1042.153, 1481.576
1042.635, 1493.384
1043.117, 1494.965
1043.599, 1478.195
1044.081, 1462.849
1044.563, 1455.357
1045.045, 1455.618
1045.527, 1466.189
1046.010, 1484.597
1046.492, 1493.248
1046.974, 1489.874
1047.456, 1483.448
1047.938, 1473.039
1048.420, 1462.509
1048.902, 1451.332
1049.384, 1445.586
1049.866, 1453.818
1050.349, 1469.858
1050.831, 1470.590
1051.313, 1453.324
1051.795, 1437.437
1052.277, 1422.051
1052.759, 1414.766
1053.241, 1418.490
1053.723, 1427.901
1054.206, 1440.265
1054.688, 1452.191
1055.170, 1456.134
1055.652, 1452.161
1056.134, 1442.605
1056.616, 1427.226
1057.098, 1419.522
1057.580, 1422.675
1058.063, 1423.112
1058.545, 1411.435
1059.027, 1399.989
1059.509, 1412.483
1059.991, 1440.923
1060.473, 1447.236
1060.955, 1434.930
1061.437, 1425.805
1061.919, 1423.101
1062.401, 1421.652
1062.884, 1419.026
1063.366, 1420.085
1063.848, 1433.523
1064.330, 1450.599
1064.812, 1451.613
1065.294, 1441.120
1065.776, 1429.659
1066.258, 1418.992
1066.741, 1408.908
1067.223, 1400.046
1067.705, 1397.009
1068.187, 1411.951
1068.669, 1421.893
1069.151, 1427.106
1069.633, 1413.425
1070.115, 1424.141
1070.598, 1425.088
1071.080, 1425.626
1071.562, 1439.777
1072.044, 1428.843
1072.526, 1442.779
1073.008, 1446.787
1073.490, 1455.338
1073.972, 1442.512
1074.454, 1431.355
1074.937, 1415.917
1075.419, 1409.901
1075.901, 1411.596
1076.383, 1407.374
1076.865, 1390.905
1077.347, 1380.508
1077.829, 1390.404
1078.311, 1401.761
1078.793, 1404.532
1079.276, 1403.827
1079.758, 1403.917
1080.240, 1404.760
1080.722, 1407.044
1081.204, 1411.524
1081.686, 1406.344
1082.168, 1374.214
1082.650, 1353.586
1083.133, 1360.111
1083.615, 1373.188
1084.097, 1382.095
1084.579, 1389.628
1085.061, 1403.830
1085.543, 1423.757
1086.025, 1426.187
1086.507, 1400.060
1086.990, 1377.481
1087.472, 1352.873
1087.954, 1344.554
1088.436, 1368.961
1088.918, 1396.634
1089.400, 1398.960
1089.882, 1383.032
1090.364, 1373.065
1090.846, 1369.843
1091.328, 1368.725
1091.811, 1370.629
1092.293, 1368.840
1092.775, 1360.192
1093.257, 1356.661
1093.739, 1367.610
1094.221, 1382.881
1094.703, 1384.795
1095.185, 1375.033
1095.668, 1363.275
1096.150, 1350.098
1096.632, 1342.358
1097.114, 1341.067
1097.596, 1347.520
1098.078, 1362.155
1098.560, 1374.599
1099.042, 1373.086
1099.525, 1364.396
1100.007, 1358.938
1100.489, 1357.623
1100.971, 1366.869
1101.453, 1381.962
1101.935, 1385.956
1102.417, 1376.411
1102.899, 1368.115
1103.381, 1370.869
1103.864, 1374.259
1104.346, 1365.009
1104.828, 1354.382
1105.310, 1358.280
1105.792, 1366.925
1106.274, 1363.359
1106.756, 1349.792
1107.238, 1340.569
1107.720, 1340.450
1108.203, 1340.804
1108.685, 1336.358
1109.167, 1333.019
1109.649, 1335.104
1110.131, 1338.017
1110.613, 1335.634
1111.095, 1332.602
1111.577, 1339.446
1112.060, 1356.544
1112.542, 1366.134
1113.024, 1360.408
1113.506, 1355.755
1113.988, 1355.253
1114.470, 1353.799
1114.952, 1350.760
1115.434, 1344.434
1115.917, 1329.034
1116.399, 1310.647
1116.881, 1311.845
1117.363, 1338.464
1117.845, 1353.823
1118.327, 1356.854
1118.809, 1351.580
1119.291, 1336.657
1119.773, 1324.258
1120.255, 1322.196
1120.738, 1324.928
1121.220, 1324.189
1121.702, 1320.983
1122.184, 1320.817
1122.666, 1322.893
1123.148, 1319.948
1123.630, 1312.018
1124.112, 1303.710
1124.595, 1297.219
1125.077, 1300.684
1125.559, 1324.184
1126.041, 1348.830
1126.523, 1344.079
1127.005, 1325.281
1127.487, 1315.750
1127.969, 1314.083
1128.452, 1316.519
1128.934, 1320.769
1129.416, 1322.174
1129.898, 1318.603
1130.380, 1315.551
1130.862, 1318.978
1131.344, 1321.021
1131.826, 1311.700
1132.308, 1303.158
1132.791, 1309.734
1133.273, 1323.878
1133.755, 1330.738
1134.237, 1328.859
1134.719, 1328.912
1135.201, 1338.654
1135.683, 1341.162
1136.165, 1325.586
1136.647, 1314.410
1137.130, 1321.856
1137.612, 1329.267
1138.094, 1316.547
1138.576, 1294.041
1139.058, 1291.234
1139.540, 1310.969
1140.022, 1326.631
1140.504, 1340.095
1140.987, 1336.764
1141.469, 1310.763
1141.951, 1291.330
1142.433, 1294.252
1142.915, 1302.228
1143.397, 1292.643
1143.879, 1275.295
1144.361, 1282.526
1144.844, 1306.294
1145.326, 1312.077
1145.808, 1301.504
1146.290, 1290.471
1146.772, 1284.037
1147.254, 1284.562
1147.736, 1293.991
1148.218, 1306.329
1148.700, 1318.402
1149.182, 1327.543
1149.665, 1330.944
1150.147, 1329.688
1150.629, 1322.075
1151.111, 1312.113
1151.593, 1309.287
1152.075, 1315.168
1152.557, 1318.488
1153.039, 1315.999
1153.522, 1309.015
1154.004, 1291.267
1154.486, 1277.072
1154.968, 1272.591
1155.450, 1276.299
1155.932, 1293.015
1156.414, 1315.456
1156.896, 1319.695
1157.379, 1300.169
1157.861, 1291.922
1158.343, 1299.299
1158.825, 1303.636
1159.307, 1301.142
1159.789, 1298.197
1160.271, 1298.039
1160.753, 1299.002
1161.235, 1299.681
1161.718, 1298.905
1162.200, 1289.808
1162.682, 1275.709
1163.164, 1277.034
1163.646, 1290.670
1164.128, 1294.775
1164.610, 1285.937
1165.092, 1278.555
1165.574, 1280.585
1166.057, 1286.064
1166.539, 1293.361
1167.021, 1296.877
1167.503, 1284.903
1167.985, 1270.364
1168.467, 1269.190
1168.949, 1278.116
1169.431, 1290.476
1169.914, 1303.625
1170.396, 1308.110
1170.878, 1293.767
1171.360, 1285.684
1171.842, 1298.852
1172.324, 1307.072
1172.806, 1294.999
1173.288, 1279.415
1173.771, 1273.062
1174.253, 1271.800
1174.735, 1266.945
1175.217, 1258.424
1175.699, 1252.113
1176.181, 1247.701
1176.663, 1247.615
1177.145, 1252.159
1177.627, 1261.790
1178.109, 1277.091
1178.592, 1290.329
1179.074, 1295.074
1179.556, 1292.914
1180.038, 1282.604
1180.520, 1269.493
1181.002, 1268.403
1181.484, 1274.636
1181.966, 1275.977
1182.449, 1272.447
1182.931, 1271.798
1183.413, 1276.316
1183.895, 1278.481
1184.377, 1270.387
1184.859, 1264.322
1185.341, 1269.203
1185.823, 1276.513
1186.306, 1284.225
1186.788, 1288.007
1187.270, 1280.137
1187.752, 1264.392
1188.234, 1254.618
1188.716, 1251.688
1189.198, 1254.284
1189.680, 1266.474
1190.162, 1274.202
1190.645, 1274.561
1191.127, 1273.439
1191.609, 1273.423
1192.091, 1272.747
1192.573, 1268.750
1193.055, 1264.599
1193.537, 1270.655
1194.019, 1284.077
1194.501, 1291.454
1194.984, 1292.698
1195.466, 1288.330
1195.948, 1279.269
1196.430, 1266.426
1196.912, 1250.699
1197.394, 1243.913
1197.876, 1263.828
1198.358, 1282.693
1198.841, 1274.052
1199.323, 1258.378
1199.805, 1250.968
1200.287, 1250.053
1200.769, 1253.645
1201.251, 1259.849
1201.733, 1263.156
1202.215, 1261.390
1202.698, 1263.346
1203.180, 1274.999
1203.662, 1279.253
1204.144, 1271.381
1204.626, 1261.065
1205.108, 1251.158
1205.590, 1244.931
1206.072, 1246.948
1206.554, 1253.086
1207.036, 1250.885
1207.519, 1242.113
1208.001, 1236.849
1208.483, 1236.121
1208.965, 1248.957
1209.447, 1271.837
1209.929, 1279.955
1210.411, 1264.312
1210.893, 1245.286
1211.376, 1234.841
1211.858, 1232.639
1212.340, 1246.108
1212.822, 1259.667
1213.304, 1255.409
1213.786, 1246.676
1214.268, 1252.645
1214.750, 1268.939
1215.233, 1278.684
1215.715, 1280.036
1216.197, 1273.668
1216.679, 1251.384
1217.161, 1239.738
1217.643, 1243.801
1218.125, 1252.273
1218.607, 1262.935
1219.089, 1268.942
1219.572, 1263.747
1220.054, 1251.517
1220.536, 1236.314
1221.018, 1222.042
1221.500, 1230.412
1221.982, 1252.469
1222.464, 1256.762
1222.946, 1245.275
1223.428, 1240.336
1223.911, 1247.442
1224.393, 1252.322
1224.875, 1246.478
1225.357, 1238.388
1225.839, 1228.496
1226.321, 1223.756
1226.803, 1233.511
1227.285, 1245.524
1227.768, 1250.170
1228.250, 1248.348
1228.732, 1239.518
1229.214, 1225.080
1229.696, 1227.761
1230.178, 1255.147
1230.660, 1268.584
1231.142, 1264.801
1231.625, 1258.523
1232.107, 1253.023
1232.589, 1254.364
1233.071, 1266.858
1233.553, 1277.509
1234.035, 1267.637
1234.517, 1249.602
##END=



