##NAMES=Miguelromeroite
##RRUFFID=R070064
##IDEAL CHEMISTRY=Mn^2+^_5_(As^5+^O_3_OH)_2_(As^5+^O_4_)_2_(H_2_O)_4_
##LOCALITY=Veta Negra mine, Pampa Larga Mining District, Tierra Amarilla, Chile
##OWNER=RRUFF
##SOURCE=Bob Jenkins
##DESCRIPTION=Sprays of pink thin prismatic crystals associated with siderite and cuproadamite
##STATUS=The identification of this mineral is confirmed by single-crystal X-ray diffraction and chemical analysis.
##URL=rruff.info/R070064
##MEASURED CHEMISTRY=(Mn^2+^_4.64_Ca_0.25_Zn_0.07_Mg_0.04_)_Σ=5_(As_1.00_O_3_OH)_2_(As_1.00_O_4_)_2_·3.98H_2_O; OH estimated by charge balance; H_2_O by difference
125.5937, 1530.859
126.0758, 1612.436
126.5579, 1696.952
127.0400, 1783.480
127.5221, 1871.344
128.0043, 1960.519
128.4864, 2052.785
128.9685, 2153.906
129.4506, 2262.702
129.9327, 2370.920
130.4148, 2473.290
130.8969, 2571.419
131.3791, 2670.236
131.8612, 2769.369
132.3433, 2870.057
132.8254, 2974.547
133.3075, 3083.102
133.7896, 3193.326
134.2718, 3300.893
134.7539, 3406.104
135.2360, 3517.438
135.7181, 3636.800
136.2002, 3762.684
136.6823, 3878.950
137.1645, 3982.066
137.6466, 4084.246
138.1287, 4202.024
138.6108, 4340.513
139.0929, 4478.140
139.5750, 4611.944
140.0572, 4742.765
140.5393, 4854.544
141.0214, 4939.992
141.5035, 5011.875
141.9856, 5097.487
142.4677, 5209.092
142.9499, 5312.347
143.4320, 5392.600
143.9141, 5451.487
144.3962, 5483.311
144.8783, 5459.544
145.3604, 5405.533
145.8425, 5431.400
146.3247, 5656.822
146.8068, 5851.546
147.2889, 5877.151
147.7710, 5571.205
148.2531, 5311.839
148.7352, 5139.005
149.2174, 5052.784
149.6995, 4981.917
150.1816, 4921.601
150.6637, 4878.762
151.1458, 4859.802
151.6279, 4894.025
152.1101, 4923.978
152.5922, 4936.138
153.0743, 4925.064
153.5564, 4919.909
154.0385, 4926.527
154.5206, 4940.040
155.0028, 4953.794
155.4849, 4977.421
155.9670, 4992.450
156.4491, 4992.531
156.9312, 4977.385
157.4133, 4946.196
157.8955, 4889.649
158.3776, 4816.504
158.8597, 4746.038
159.3418, 4684.780
159.8239, 4628.484
160.3060, 4573.833
160.7882, 4517.505
161.2703, 4466.016
161.7524, 4421.540
162.2345, 4383.900
162.7166, 4352.192
163.1987, 4320.432
163.6808, 4296.804
164.1630, 4288.414
164.6451, 4309.326
165.1272, 4336.891
165.6093, 4357.512
166.0914, 4371.192
166.5735, 4389.248
167.0557, 4416.849
167.5378, 4453.373
168.0199, 4497.390
168.5020, 4554.261
168.9841, 4615.224
169.4662, 4672.291
169.9484, 4723.428
170.4305, 4776.778
170.9126, 4839.936
171.3947, 4910.331
171.8768, 4980.802
172.3589, 5051.270
172.8411, 5118.898
173.3232, 5181.343
173.8053, 5238.047
174.2874, 5290.241
174.7695, 5338.627
175.2516, 5383.233
175.7338, 5423.379
176.2159, 5451.461
176.6980, 5475.374
177.1801, 5509.763
177.6622, 5560.920
178.1443, 5619.777
178.6264, 5675.280
179.1086, 5727.974
179.5907, 5781.621
180.0728, 5842.235
180.5549, 5906.395
181.0370, 5966.124
181.5191, 6017.911
182.0013, 6063.772
182.4834, 6109.080
182.9655, 6153.816
183.4476, 6191.290
183.9297, 6210.667
184.4118, 6214.804
184.8940, 6217.780
185.3761, 6229.307
185.8582, 6243.995
186.3403, 6242.373
186.8224, 6222.165
187.3046, 6195.528
187.7867, 6182.160
188.2688, 6180.569
188.7509, 6167.167
189.2330, 6126.569
189.7151, 6062.960
190.1973, 5997.967
190.6794, 5932.057
191.1615, 5867.119
191.6436, 5804.735
192.1257, 5744.902
192.6078, 5689.311
193.0900, 5636.270
193.5721, 5586.330
194.0542, 5545.526
194.5363, 5515.225
195.0184, 5493.430
195.5005, 5475.391
195.9826, 5460.475
196.4648, 5453.271
196.9469, 5459.790
197.4290, 5480.391
197.9111, 5498.805
198.3932, 5508.845
198.8753, 5516.049
199.3575, 5544.014
199.8396, 5596.688
200.3217, 5656.753
200.8038, 5709.396
201.2859, 5754.181
201.7680, 5796.888
202.2502, 5837.513
202.7323, 5876.756
203.2144, 5924.288
203.6965, 5984.454
204.1786, 6043.676
204.6607, 6083.181
205.1429, 6097.319
205.6250, 6119.221
206.1071, 6161.014
206.5892, 6222.737
207.0713, 6270.545
207.5534, 6298.803
208.0356, 6321.518
208.5177, 6357.757
208.9998, 6410.082
209.4819, 6466.451
209.9640, 6521.765
210.4461, 6574.787
210.9282, 6640.152
211.4104, 6725.559
211.8925, 6816.193
212.3746, 6885.050
212.8567, 6923.292
213.3388, 6959.744
213.8209, 7005.694
214.3031, 7063.573
214.7852, 7123.633
215.2673, 7190.983
215.7494, 7257.046
216.2315, 7298.707
216.7136, 7302.966
217.1958, 7307.351
217.6779, 7334.158
218.1600, 7400.793
218.6421, 7436.379
219.1242, 7426.472
219.6063, 7387.029
220.0885, 7368.942
220.5706, 7380.778
221.0527, 7400.391
221.5348, 7416.833
222.0169, 7429.866
222.4990, 7440.028
222.9812, 7447.614
223.4633, 7452.370
223.9454, 7450.753
224.4275, 7433.438
224.9096, 7422.439
225.3917, 7434.718
225.8739, 7486.724
226.3560, 7524.926
226.8381, 7537.614
227.3202, 7528.733
227.8023, 7536.332
228.2844, 7568.278
228.7665, 7607.620
229.2487, 7642.985
229.7308, 7681.822
230.2129, 7701.706
230.6950, 7696.152
231.1771, 7665.980
231.6592, 7631.855
232.1414, 7597.023
232.6235, 7554.938
233.1056, 7496.815
233.5877, 7400.620
234.0698, 7329.789
234.5519, 7313.554
235.0341, 7356.459
235.5162, 7329.802
235.9983, 7203.821
236.4804, 7034.423
236.9625, 6876.268
237.4446, 6731.841
237.9268, 6598.002
238.4089, 6475.593
238.8910, 6366.972
239.3731, 6253.130
239.8552, 6126.081
240.3373, 6000.190
240.8195, 5893.440
241.3016, 5817.729
241.7837, 5742.239
242.2658, 5657.308
242.7479, 5559.178
243.2300, 5475.045
243.7122, 5410.144
244.1943, 5355.460
244.6764, 5298.604
245.1585, 5237.958
245.6406, 5178.825
246.1227, 5120.688
246.6048, 5060.621
247.0870, 5016.417
247.5691, 4994.662
248.0512, 4984.550
248.5333, 4968.830
249.0154, 4943.005
249.4975, 4919.548
249.9797, 4902.722
250.4618, 4894.500
250.9439, 4884.923
251.4260, 4871.674
251.9081, 4858.497
252.3902, 4852.088
252.8724, 4855.572
253.3545, 4860.424
253.8366, 4863.809
254.3187, 4865.351
254.8008, 4866.592
255.2829, 4866.397
255.7651, 4866.556
256.2472, 4871.665
256.7293, 4886.601
257.2114, 4897.565
257.6935, 4898.609
258.1756, 4886.792
258.6577, 4874.482
259.1399, 4859.840
259.6220, 4845.744
260.1041, 4839.426
260.5862, 4846.689
261.0683, 4850.138
261.5504, 4840.361
262.0326, 4811.070
262.5147, 4791.248
262.9968, 4783.963
263.4789, 4784.391
263.9610, 4782.101
264.4431, 4775.947
264.9253, 4769.601
265.4074, 4763.230
265.8895, 4754.596
266.3716, 4755.977
266.8537, 4771.211
267.3358, 4793.958
267.8180, 4809.954
268.3001, 4817.187
268.7822, 4822.664
269.2643, 4829.073
269.7464, 4836.033
270.2285, 4844.635
270.7107, 4852.696
271.1928, 4864.197
271.6749, 4889.582
272.1570, 4932.130
272.6391, 4978.697
273.1212, 5024.464
273.6034, 5070.109
274.0855, 5108.749
274.5676, 5137.165
275.0497, 5161.384
275.5318, 5194.541
276.0139, 5237.838
276.4961, 5286.319
276.9782, 5338.853
277.4603, 5396.065
277.9424, 5450.378
278.4245, 5499.067
278.9066, 5548.240
279.3888, 5615.812
279.8709, 5706.511
280.3530, 5788.696
280.8351, 5837.990
281.3172, 5854.435
281.7993, 5887.602
282.2815, 5943.810
282.7636, 6012.884
283.2457, 6074.878
283.7278, 6129.129
284.2099, 6185.352
284.6920, 6252.531
285.1741, 6329.475
285.6563, 6394.839
286.1384, 6444.485
286.6205, 6489.026
287.1026, 6548.897
287.5847, 6623.982
288.0668, 6700.746
288.5490, 6772.477
289.0311, 6839.655
289.5132, 6903.982
289.9953, 6962.724
290.4774, 7022.659
290.9595, 7093.896
291.4417, 7175.853
291.9238, 7262.223
292.4059, 7352.938
292.8880, 7445.312
293.3701, 7530.519
293.8522, 7608.107
294.3344, 7675.748
294.8165, 7728.045
295.2986, 7766.891
295.7807, 7801.891
296.2628, 7844.423
296.7449, 7886.774
297.2271, 7910.232
297.7092, 7912.441
298.1913, 7900.303
298.6734, 7881.896
299.1555, 7855.873
299.6376, 7818.221
300.1198, 7765.241
300.6019, 7699.270
301.0840, 7622.241
301.5661, 7532.897
302.0482, 7441.306
302.5303, 7358.163
303.0125, 7280.381
303.4946, 7197.674
303.9767, 7106.230
304.4588, 7007.187
304.9409, 6897.626
305.4230, 6776.692
305.9052, 6663.710
306.3873, 6578.769
306.8694, 6513.834
307.3515, 6455.598
307.8336, 6396.621
308.3157, 6342.308
308.7979, 6298.495
309.2800, 6265.733
309.7621, 6239.824
310.2442, 6222.648
310.7263, 6209.727
311.2084, 6194.413
311.6906, 6166.030
312.1727, 6140.452
312.6548, 6128.277
313.1369, 6130.051
313.6190, 6138.110
314.1011, 6147.784
314.5833, 6161.747
315.0654, 6182.970
315.5475, 6220.566
316.0296, 6258.921
316.5117, 6285.820
316.9938, 6301.326
317.4760, 6330.225
317.9580, 6397.625
318.4402, 6475.325
318.9223, 6537.506
319.4044, 6560.412
319.8865, 6584.512
320.3686, 6604.916
320.8507, 6625.121
321.3329, 6699.802
321.8150, 6915.992
322.2971, 7149.763
322.7792, 7311.367
323.2613, 7299.906
323.7434, 7308.731
324.2256, 7370.816
324.7077, 7482.917
325.1898, 7616.498
325.6719, 7792.717
326.1540, 7972.498
326.6361, 8133.770
327.1183, 8238.476
327.6004, 8368.900
328.0825, 8542.567
328.5646, 8749.963
329.0467, 8940.471
329.5288, 9110.543
330.0110, 9268.607
330.4931, 9420.649
330.9752, 9575.805
331.4573, 9708.889
331.9394, 9810.064
332.4215, 9890.531
332.9037, 9983.699
333.3858, 10091.81
333.8679, 10207.90
334.3500, 10330.73
334.8321, 10460.25
335.3142, 10592.84
335.7964, 10727.87
336.2785, 10866.21
336.7606, 11014.43
337.2427, 11177.58
337.7248, 11338.99
338.2069, 11491.30
338.6891, 11632.78
339.1712, 11781.64
339.6533, 11948.69
340.1354, 12103.67
340.6175, 12199.02
341.0996, 12233.80
341.5818, 12221.17
342.0639, 12159.59
342.5460, 12052.22
343.0281, 11915.51
343.5102, 11742.68
343.9923, 11569.12
344.4745, 11442.64
344.9566, 11360.23
345.4387, 11289.05
345.9208, 11212.48
346.4029, 11140.11
346.8850, 11103.59
347.3672, 11103.11
347.8493, 11131.56
348.3314, 11190.40
348.8135, 11274.46
349.2956, 11363.56
349.7777, 11446.25
350.2599, 11534.32
350.7419, 11649.56
351.2241, 11790.25
351.7062, 11940.59
352.1883, 12086.16
352.6704, 12234.21
353.1525, 12395.47
353.6346, 12573.32
354.1168, 12761.33
354.5989, 12950.49
355.0810, 13144.21
355.5631, 13348.78
356.0452, 13584.23
356.5273, 13825.22
357.0095, 14045.75
357.4916, 14237.69
357.9737, 14417.06
358.4558, 14603.88
358.9379, 14787.30
359.4200, 14943.31
359.9022, 15047.34
360.3843, 15130.81
360.8664, 15213.17
361.3485, 15300.01
361.8306, 15375.03
362.3127, 15452.29
362.7949, 15510.70
363.2770, 15519.67
363.7591, 15431.69
364.2412, 15328.73
364.7233, 15233.40
365.2054, 15145.29
365.6876, 15076.55
366.1697, 15015.17
366.6518, 14979.00
367.1339, 14986.29
367.6160, 15020.33
368.0981, 15117.37
368.5803, 15294.91
369.0624, 15554.63
369.5445, 15828.67
370.0266, 16107.76
370.5087, 16407.88
370.9908, 16739.10
371.4730, 17089.43
371.9551, 17491.55
372.4372, 17984.89
372.9193, 18538.70
373.4014, 18983.53
373.8835, 19274.63
374.3657, 19540.37
374.8478, 19858.03
375.3299, 20252.18
375.8120, 20595.56
376.2941, 20875.22
376.7762, 21111.37
377.2584, 21349.23
377.7405, 21598.11
378.2226, 21810.37
378.7047, 21968.98
379.1868, 22073.29
379.6689, 22134.72
380.1511, 22152.86
380.6332, 22128.04
381.1153, 22058.94
381.5974, 21944.99
382.0795, 21794.42
382.5616, 21612.27
383.0438, 21394.41
383.5259, 21116.79
384.0080, 20778.74
384.4901, 20414.67
384.9722, 20028.85
385.4543, 19641.70
385.9364, 19282.80
386.4185, 18982.10
386.9007, 18700.86
387.3828, 18394.30
387.8649, 18065.58
388.3470, 17727.89
388.8291, 17360.64
389.3112, 16998.49
389.7934, 16690.83
390.2755, 16454.29
390.7576, 16258.39
391.2397, 16088.74
391.7218, 15944.94
392.2039, 15823.68
392.6861, 15738.78
393.1682, 15665.04
393.6503, 15586.98
394.1324, 15499.20
394.6145, 15417.94
395.0966, 15341.81
395.5788, 15276.42
396.0609, 15229.74
396.5430, 15228.85
397.0251, 15222.31
397.5072, 15191.32
397.9893, 15130.71
398.4715, 15080.12
398.9536, 15049.75
399.4357, 15024.36
399.9178, 14992.86
400.3999, 14966.21
400.8820, 14916.06
401.3642, 14829.91
401.8463, 14714.58
402.3284, 14612.13
402.8105, 14528.91
403.2926, 14448.38
403.7747, 14361.71
404.2569, 14269.33
404.7390, 14170.75
405.2211, 14069.99
405.7032, 13959.19
406.1853, 13810.63
406.6674, 13619.23
407.1496, 13423.43
407.6317, 13235.78
408.1138, 13058.53
408.5959, 12903.15
409.0780, 12773.64
409.5602, 12650.12
410.0423, 12502.18
410.5244, 12335.94
411.0065, 12191.13
411.4886, 12089.85
411.9707, 12016.16
412.4529, 11933.00
412.9350, 11840.53
413.4171, 11768.29
413.8992, 11757.60
414.3813, 11777.16
414.8634, 11771.68
415.3456, 11700.19
415.8277, 11638.82
416.3098, 11659.95
416.7919, 11746.11
417.2740, 11841.01
417.7561, 11915.09
418.2382, 11985.08
418.7203, 12056.15
419.2025, 12120.61
419.6846, 12215.89
420.1667, 12386.14
420.6488, 12589.90
421.1309, 12769.58
421.6130, 12867.03
422.0952, 12974.58
422.5773, 13122.81
423.0594, 13315.95
423.5415, 13518.24
424.0236, 13741.77
424.5057, 13963.75
424.9879, 14163.06
425.4700, 14303.85
425.9521, 14473.10
426.4342, 14689.84
426.9163, 14942.80
427.3984, 15177.51
427.8806, 15393.64
428.3627, 15596.30
428.8448, 15789.68
429.3269, 15975.57
429.8090, 16141.19
430.2911, 16280.96
430.7733, 16407.73
431.2554, 16545.20
431.7375, 16694.02
432.2196, 16837.42
432.7017, 16971.98
433.1838, 17095.67
433.6660, 17191.47
434.1481, 17258.19
434.6302, 17314.04
435.1123, 17382.12
435.5944, 17454.79
436.0765, 17506.99
436.5587, 17525.05
437.0408, 17527.42
437.5229, 17537.09
438.0050, 17552.18
438.4871, 17563.78
438.9692, 17561.01
439.4514, 17554.45
439.9335, 17554.96
440.4156, 17564.88
440.8977, 17580.21
441.3798, 17604.22
441.8619, 17631.15
442.3441, 17651.51
442.8262, 17666.08
443.3083, 17669.70
443.7904, 17657.33
444.2725, 17627.99
444.7546, 17596.76
445.2368, 17602.36
445.7189, 17587.65
446.2010, 17507.63
446.6831, 17282.83
447.1652, 17086.52
447.6473, 16944.32
448.1295, 16841.12
448.6116, 16718.67
449.0937, 16585.19
449.5758, 16417.94
450.0579, 16201.79
450.5400, 15923.83
451.0221, 15644.94
451.5042, 15365.45
451.9864, 15089.03
452.4685, 14821.86
452.9506, 14565.46
453.4327, 14316.65
453.9148, 14082.43
454.3969, 13853.08
454.8791, 13590.98
455.3612, 13292.81
455.8433, 13002.17
456.3254, 12763.66
456.8075, 12563.30
457.2896, 12372.57
457.7718, 12182.01
458.2539, 11999.36
458.7360, 11820.42
459.2181, 11652.55
459.7002, 11516.95
460.1823, 11447.55
460.6645, 11400.35
461.1466, 11329.81
461.6287, 11227.41
462.1108, 11144.20
462.5929, 11110.69
463.0750, 11107.94
463.5572, 11114.44
464.0393, 11118.61
464.5214, 11137.18
465.0035, 11172.58
465.4856, 11225.59
465.9677, 11299.37
466.4499, 11407.26
466.9320, 11525.45
467.4141, 11644.39
467.8962, 11763.83
468.3783, 11882.72
468.8604, 11998.83
469.3426, 12115.01
469.8247, 12240.61
470.3068, 12378.15
470.7889, 12517.51
471.2710, 12661.48
471.7531, 12807.61
472.2353, 12922.75
472.7174, 13003.23
473.1995, 13068.58
473.6816, 13144.92
474.1637, 13227.94
474.6458, 13272.79
475.1280, 13267.34
475.6101, 13228.80
476.0922, 13185.87
476.5743, 13135.04
477.0564, 13060.42
477.5385, 12960.84
478.0207, 12828.57
478.5028, 12645.00
478.9849, 12407.07
479.4670, 12150.74
479.9491, 11886.90
480.4312, 11622.74
480.9134, 11370.58
481.3955, 11153.50
481.8776, 10926.35
482.3597, 10664.60
482.8418, 10376.44
483.3239, 10099.28
483.8060, 9844.127
484.2881, 9598.643
484.7703, 9360.862
485.2524, 9121.557
485.7345, 8904.622
486.2166, 8719.394
486.6987, 8551.992
487.1808, 8381.837
487.6630, 8203.092
488.1451, 8032.918
488.6272, 7875.735
489.1093, 7731.658
489.5914, 7595.470
490.0735, 7467.227
490.5557, 7350.755
491.0378, 7253.471
491.5199, 7173.889
492.0020, 7096.551
492.4841, 7020.346
492.9662, 6946.257
493.4484, 6878.025
493.9305, 6813.565
494.4126, 6746.905
494.8947, 6663.770
495.3768, 6582.085
495.8589, 6529.523
496.3411, 6504.762
496.8232, 6480.380
497.3053, 6434.323
497.7874, 6380.973
498.2695, 6334.808
498.7516, 6297.357
499.2338, 6270.924
499.7159, 6269.004
500.1980, 6278.314
500.6801, 6271.732
501.1622, 6220.712
501.6443, 6173.817
502.1265, 6153.244
502.6086, 6166.277
503.0907, 6156.722
503.5728, 6106.298
504.0549, 6049.424
504.5370, 6013.941
505.0192, 6010.649
505.5013, 5999.882
505.9834, 5977.541
506.4655, 5945.928
506.9476, 5910.000
507.4297, 5869.176
507.9119, 5825.750
508.3940, 5775.657
508.8761, 5722.669
509.3582, 5688.619
509.8403, 5675.172
510.3224, 5662.941
510.8046, 5631.475
511.2867, 5587.163
511.7688, 5542.785
512.2509, 5499.454
512.7330, 5462.493
513.2151, 5440.694
513.6973, 5430.071
514.1794, 5419.231
514.6615, 5405.513
515.1436, 5387.540
515.6257, 5364.479
516.1078, 5335.972
516.5900, 5302.850
517.0721, 5256.957
517.5542, 5210.410
518.0363, 5173.914
518.5184, 5156.667
519.0005, 5139.746
519.4827, 5121.010
519.9648, 5101.610
520.4469, 5086.684
520.9290, 5079.098
521.4111, 5069.796
521.8932, 5055.127
522.3754, 5034.868
522.8575, 5011.741
523.3396, 4985.083
523.8217, 4957.330
524.3038, 4928.062
524.7859, 4898.868
525.2681, 4879.332
525.7502, 4874.808
526.2323, 4875.974
526.7144, 4870.088
527.1965, 4857.615
527.6786, 4840.846
528.1608, 4815.575
528.6429, 4789.818
529.1250, 4772.758
529.6071, 4765.162
530.0892, 4759.777
530.5714, 4756.771
531.0535, 4752.079
531.5356, 4741.792
532.0176, 4716.250
532.4998, 4695.111
532.9819, 4680.921
533.4640, 4673.795
533.9461, 4674.246
534.4282, 4697.659
534.9103, 4709.473
535.3925, 4694.003
535.8746, 4646.809
536.3567, 4619.501
536.8388, 4617.355
537.3209, 4624.929
537.8030, 4629.419
538.2852, 4630.764
538.7673, 4630.181
539.2494, 4627.314
539.7315, 4623.514
540.2136, 4622.656
540.6957, 4623.852
541.1779, 4621.486
541.6600, 4602.480
542.1421, 4582.770
542.6242, 4592.584
543.1063, 4631.095
543.5884, 4663.028
544.0706, 4657.525
544.5527, 4637.225
545.0348, 4624.229
545.5169, 4626.063
545.9990, 4630.750
546.4811, 4636.820
546.9633, 4642.712
547.4454, 4645.524
547.9275, 4634.417
548.4096, 4631.532
548.8917, 4646.861
549.3738, 4679.607
549.8560, 4696.963
550.3381, 4691.285
550.8202, 4682.571
551.3023, 4684.470
551.7844, 4698.547
552.2665, 4710.752
552.7487, 4721.155
553.2308, 4727.575
553.7129, 4721.469
554.1950, 4705.464
554.6771, 4700.135
555.1592, 4717.814
555.6414, 4746.330
556.1235, 4769.069
556.6056, 4786.285
557.0877, 4798.658
557.5698, 4807.107
558.0519, 4810.625
558.5341, 4806.266
559.0162, 4791.400
559.4983, 4779.783
559.9804, 4774.632
560.4625, 4776.402
560.9446, 4785.619
561.4268, 4819.314
561.9089, 4840.258
562.3910, 4838.078
562.8731, 4819.222
563.3552, 4805.474
563.8373, 4794.892
564.3195, 4793.438
564.8016, 4808.966
565.2837, 4842.374
565.7658, 4852.712
566.2479, 4836.737
566.7300, 4810.700
567.2122, 4785.954
567.6943, 4763.806
568.1764, 4752.598
568.6585, 4756.450
569.1406, 4765.040
569.6227, 4768.701
570.1049, 4766.970
570.5870, 4758.567
571.0691, 4738.316
571.5512, 4714.871
572.0333, 4691.597
572.5154, 4669.161
572.9976, 4654.979
573.4797, 4658.466
573.9618, 4666.185
574.4439, 4670.271
574.9260, 4669.907
575.4081, 4665.425
575.8903, 4656.078
576.3724, 4643.164
576.8545, 4627.562
577.3366, 4606.994
577.8187, 4589.013
578.3008, 4573.761
578.7830, 4562.655
579.2651, 4563.547
579.7472, 4577.338
580.2293, 4589.134
580.7114, 4587.194
581.1935, 4576.847
581.6757, 4576.559
582.1578, 4587.535
582.6399, 4592.990
583.1220, 4565.294
583.6041, 4527.376
584.0862, 4513.252
584.5684, 4545.455
585.0505, 4577.313
585.5326, 4580.493
586.0147, 4567.067
586.4968, 4559.726
586.9789, 4571.823
587.4611, 4583.027
587.9432, 4585.342
588.4253, 4579.519
588.9074, 4581.877
589.3895, 4600.478
589.8716, 4615.406
590.3538, 4612.203
590.8359, 4586.634
591.3180, 4573.013
591.8001, 4572.746
592.2822, 4581.839
592.7643, 4601.748
593.2465, 4629.264
593.7286, 4644.102
594.2107, 4636.289
594.6928, 4620.141
595.1749, 4610.481
595.6570, 4607.445
596.1392, 4611.466
596.6213, 4629.481
597.1034, 4649.508
597.5854, 4663.267
598.0676, 4670.257
598.5497, 4676.205
599.0318, 4683.696
599.5139, 4690.272
599.9960, 4693.908
600.4781, 4689.409
600.9603, 4691.973
601.4424, 4707.461
601.9245, 4725.615
602.4066, 4729.829
602.8887, 4716.207
603.3708, 4706.679
603.8530, 4707.532
604.3351, 4714.980
604.8172, 4718.457
605.2993, 4718.200
605.7814, 4718.377
606.2635, 4716.811
606.7457, 4718.974
607.2278, 4739.007
607.7099, 4777.491
608.1920, 4810.376
608.6741, 4817.630
609.1563, 4813.307
609.6384, 4811.111
610.1205, 4814.952
610.6026, 4819.245
611.0847, 4823.704
611.5668, 4827.423
612.0490, 4828.873
612.5311, 4825.570
613.0132, 4823.280
613.4953, 4820.279
613.9774, 4818.911
614.4595, 4833.055
614.9417, 4867.126
615.4238, 4899.534
615.9059, 4918.158
616.3880, 4924.833
616.8701, 4932.059
617.3522, 4940.192
617.8344, 4943.791
618.3165, 4931.735
618.7986, 4913.453
619.2807, 4906.933
619.7628, 4920.622
620.2449, 4933.126
620.7271, 4924.025
621.2092, 4906.159
621.6913, 4898.998
622.1734, 4910.964
622.6555, 4931.375
623.1376, 4961.419
623.6198, 4998.897
624.1019, 5034.031
624.5840, 5074.667
625.0661, 5100.188
625.5482, 5096.046
626.0303, 5061.579
626.5125, 5049.333
626.9946, 5063.070
627.4767, 5082.395
627.9588, 5084.279
628.4409, 5075.343
628.9230, 5084.630
629.4052, 5119.592
629.8873, 5158.993
630.3694, 5183.210
630.8515, 5196.074
631.3336, 5204.764
631.8157, 5209.854
632.2979, 5213.491
632.7800, 5216.970
633.2621, 5219.854
633.7442, 5220.588
634.2263, 5212.638
634.7084, 5208.979
635.1906, 5213.968
635.6727, 5227.745
636.1548, 5244.765
636.6369, 5268.625
637.1190, 5288.339
637.6011, 5292.129
638.0833, 5280.772
638.5654, 5278.732
639.0475, 5288.162
639.5296, 5303.882
640.0117, 5319.868
640.4938, 5337.394
640.9760, 5361.579
641.4581, 5400.147
641.9402, 5434.268
642.4223, 5445.801
642.9044, 5441.879
643.3865, 5438.387
643.8687, 5443.325
644.3508, 5447.375
644.8329, 5443.213
645.3150, 5431.752
645.7971, 5433.719
646.2792, 5454.955
646.7614, 5481.758
647.2435, 5512.428
647.7256, 5549.244
648.2077, 5558.474
648.6898, 5533.007
649.1719, 5506.353
649.6541, 5515.592
650.1362, 5552.379
650.6183, 5585.188
651.1004, 5610.558
651.5825, 5625.139
652.0646, 5614.286
652.5468, 5592.140
653.0289, 5583.518
653.5110, 5611.015
653.9931, 5640.494
654.4752, 5659.552
654.9573, 5669.598
655.4395, 5676.472
655.9216, 5675.224
656.4037, 5677.370
656.8858, 5687.389
657.3679, 5705.113
657.8500, 5719.353
658.3322, 5729.060
658.8143, 5738.465
659.2964, 5751.767
659.7785, 5767.971
660.2606, 5778.484
660.7427, 5782.021
661.2249, 5786.535
661.7070, 5806.511
662.1891, 5831.436
662.6712, 5841.054
663.1533, 5818.750
663.6354, 5803.362
664.1175, 5824.150
664.5996, 5865.139
665.0817, 5899.492
665.5638, 5918.652
666.0460, 5934.019
666.5281, 5950.195
667.0102, 5964.739
667.4923, 5965.410
667.9744, 5945.385
668.4565, 5929.250
668.9387, 5926.806
669.4208, 5936.911
669.9029, 5952.655
670.3850, 5974.048
670.8671, 6000.871
671.3492, 6044.320
671.8314, 6089.542
672.3135, 6108.753
672.7956, 6096.736
673.2777, 6078.536
673.7598, 6063.045
674.2419, 6053.177
674.7241, 6051.995
675.2062, 6062.291
675.6883, 6078.614
676.1704, 6110.580
676.6525, 6143.713
677.1346, 6154.099
677.6168, 6126.135
678.0989, 6118.310
678.5810, 6149.736
679.0631, 6203.177
679.5452, 6230.912
680.0273, 6233.528
680.5095, 6231.464
680.9916, 6229.934
681.4737, 6232.600
681.9558, 6250.247
682.4379, 6280.342
682.9200, 6304.792
683.4022, 6299.000
683.8843, 6293.214
684.3664, 6315.011
684.8485, 6376.249
685.3306, 6416.629
685.8127, 6403.322
686.2949, 6381.926
686.7770, 6381.668
687.2591, 6409.504
687.7412, 6439.555
688.2233, 6473.509
688.7054, 6505.651
689.1876, 6525.903
689.6697, 6535.931
690.1518, 6549.056
690.6339, 6568.602
691.1160, 6592.557
691.5981, 6620.964
692.0803, 6651.802
692.5624, 6680.311
693.0445, 6706.138
693.5266, 6727.350
694.0087, 6739.521
694.4908, 6745.000
694.9730, 6756.402
695.4551, 6770.192
695.9372, 6796.695
696.4193, 6844.254
696.9014, 6912.495
697.3835, 6964.589
697.8657, 6997.752
698.3478, 7026.456
698.8299, 7060.146
699.3120, 7098.189
699.7941, 7138.978
700.2762, 7183.158
700.7584, 7221.529
701.2405, 7237.896
701.7226, 7246.847
702.2047, 7267.214
702.6868, 7305.254
703.1689, 7349.575
703.6511, 7408.128
704.1332, 7466.029
704.6153, 7503.022
705.0974, 7491.904
705.5795, 7502.659
706.0616, 7547.614
706.5438, 7613.898
707.0259, 7678.727
707.5080, 7743.356
707.9901, 7793.618
708.4722, 7818.634
708.9543, 7832.485
709.4365, 7863.153
709.9186, 7908.570
710.4007, 7958.145
710.8828, 7998.685
711.3649, 8046.589
711.8470, 8124.993
712.3292, 8229.881
712.8113, 8314.843
713.2934, 8339.818
713.7755, 8364.067
714.2576, 8417.621
714.7397, 8504.121
715.2219, 8587.051
715.7040, 8665.642
716.1861, 8740.574
716.6682, 8812.623
717.1503, 8881.104
717.6324, 8941.894
718.1146, 8992.227
718.5967, 9048.989
719.0788, 9135.764
719.5609, 9239.106
720.0430, 9336.544
720.5251, 9422.637
721.0073, 9501.287
721.4894, 9568.602
721.9715, 9631.076
722.4536, 9695.676
722.9357, 9751.130
723.4178, 9827.530
723.9000, 9933.389
724.3821, 10058.65
724.8642, 10180.25
725.3463, 10298.54
725.8284, 10409.35
726.3105, 10506.70
726.7927, 10600.12
727.2748, 10712.87
727.7569, 10841.66
728.2390, 10966.48
728.7211, 11072.73
729.2032, 11173.58
729.6853, 11276.07
730.1674, 11381.18
730.6495, 11494.10
731.1317, 11615.34
731.6138, 11746.01
732.0959, 11887.40
732.5780, 12040.26
733.0601, 12196.51
733.5422, 12360.33
734.0244, 12517.24
734.5065, 12657.90
734.9886, 12783.86
735.4707, 12907.11
735.9528, 13027.54
736.4349, 13154.15
736.9171, 13295.51
737.3992, 13448.65
737.8813, 13607.90
738.3634, 13774.13
738.8455, 13944.80
739.3276, 14115.75
739.8098, 14293.50
740.2919, 14486.42
740.7740, 14701.53
741.2561, 14920.67
741.7382, 15147.35
742.2203, 15370.90
742.7025, 15564.21
743.1846, 15728.40
743.6667, 15896.21
744.1488, 16069.93
744.6309, 16263.44
745.1130, 16513.90
745.5952, 16797.75
746.0773, 17052.24
746.5594, 17209.14
747.0415, 17368.90
747.5236, 17586.04
748.0057, 17850.60
748.4879, 18120.50
748.9700, 18410.31
749.4521, 18682.76
749.9342, 18922.96
750.4163, 19137.58
750.8984, 19356.50
751.3806, 19575.28
751.8627, 19819.37
752.3448, 20122.46
752.8269, 20456.93
753.3090, 20735.75
753.7911, 20967.43
754.2733, 21196.87
754.7554, 21444.47
755.2375, 21709.94
755.7196, 22006.08
756.2017, 22336.05
756.6838, 22646.82
757.1660, 22914.97
757.6481, 23167.85
758.1302, 23411.30
758.6123, 23639.26
759.0944, 23892.24
759.5765, 24172.31
760.0587, 24462.57
760.5408, 24745.23
761.0229, 25019.89
761.5050, 25294.92
761.9871, 25567.68
762.4692, 25856.57
762.9514, 26201.47
763.4335, 26559.38
763.9156, 26875.74
764.3977, 27096.96
764.8798, 27346.61
765.3619, 27656.53
765.8441, 28000.65
766.3262, 28359.11
766.8083, 28738.46
767.2904, 29106.13
767.7725, 29453.67
768.2546, 29797.79
768.7368, 30148.76
769.2189, 30509.61
769.7010, 30885.26
770.1831, 31270.51
770.6652, 31683.28
771.1473, 32161.01
771.6295, 32675.90
772.1116, 33169.55
772.5937, 33557.18
773.0758, 34006.81
773.5579, 34581.02
774.0400, 35236.41
774.5222, 35872.26
775.0043, 36475.07
775.4864, 37105.05
775.9685, 37778.75
776.4506, 38491.11
776.9327, 39265.72
777.4149, 40086.39
777.8970, 40902.32
778.3791, 41655.73
778.8612, 42416.58
779.3433, 43248.65
779.8254, 44140.96
780.3076, 45053.82
780.7897, 45964.47
781.2718, 46915.51
781.7539, 47936.13
782.2360, 49020.34
782.7181, 50067.24
783.2003, 51079.11
783.6824, 52079.69
784.1645, 53062.03
784.6466, 54046.23
785.1287, 55088.14
785.6108, 56178.72
786.0930, 57314.91
786.5751, 58542.31
787.0572, 59780.89
787.5393, 60960.25
788.0214, 62071.14
788.5035, 63187.32
788.9857, 64355.35
789.4678, 65503.74
789.9499, 66619.77
790.4320, 67696.46
790.9141, 68712.38
791.3962, 69642.08
791.8784, 70547.52
792.3605, 71474.25
792.8426, 72398.49
793.3247, 73278.61
793.8068, 74104.68
794.2889, 74872.33
794.7711, 75587.22
795.2531, 76225.54
795.7352, 76758.71
796.2173, 77165.74
796.6995, 77535.40
797.1816, 77921.03
797.6637, 78227.70
798.1458, 78401.45
798.6279, 78442.12
799.1100, 78326.45
799.5922, 78045.52
800.0743, 77659.01
800.5564, 77260.88
801.0385, 76797.80
801.5206, 76140.66
802.0027, 75254.73
802.4849, 74282.38
802.9670, 73310.37
803.4491, 72293.89
803.9312, 71188.01
804.4133, 69934.05
804.8954, 68683.51
805.3776, 67437.13
805.8597, 66196.89
806.3418, 64969.17
806.8239, 63763.50
807.3060, 62602.98
807.7881, 61492.70
808.2703, 60417.58
808.7524, 59354.10
809.2345, 58316.10
809.7166, 57319.41
810.1987, 56369.87
810.6808, 55484.82
811.1630, 54674.74
811.6451, 53936.78
812.1272, 53253.94
812.6093, 52613.68
813.0914, 52050.84
813.5735, 51571.72
814.0557, 51161.02
814.5378, 50812.55
815.0199, 50519.95
815.5020, 50262.64
815.9841, 50036.29
816.4662, 49838.45
816.9484, 49644.67
817.4305, 49484.16
817.9126, 49404.69
818.3947, 49456.16
818.8768, 49527.60
819.3589, 49592.09
819.8411, 49667.28
820.3232, 49767.22
820.8053, 49882.61
821.2874, 50073.77
821.7695, 50366.46
822.2516, 50690.50
822.7338, 50926.57
823.2159, 51114.16
823.6980, 51373.69
824.1801, 51775.99
824.6622, 52173.28
825.1443, 52447.46
825.6265, 52664.96
826.1086, 52916.99
826.5907, 53267.22
827.0728, 53591.92
827.5549, 53878.59
828.0370, 54146.92
828.5192, 54426.54
829.0013, 54721.09
829.4834, 55017.07
829.9655, 55328.83
830.4476, 55604.49
830.9297, 55764.37
831.4119, 55849.39
831.8940, 55937.93
832.3761, 56091.08
832.8582, 56192.03
833.3403, 56240.14
833.8224, 56188.58
834.3046, 55975.72
834.7867, 55553.27
835.2688, 55108.70
835.7509, 54683.33
836.2330, 54192.64
836.7151, 53466.80
837.1973, 52558.37
837.6794, 51638.57
838.1615, 50764.46
838.6436, 49871.85
839.1257, 48852.40
839.6078, 47800.72
840.0900, 46838.95
840.5721, 46023.64
841.0542, 45285.79
841.5363, 44617.42
842.0184, 44027.79
842.5005, 43524.40
842.9827, 43105.87
843.4648, 42797.00
843.9469, 42607.26
844.4290, 42508.54
844.9111, 42463.00
845.3932, 42484.15
845.8754, 42600.43
846.3575, 42832.36
846.8396, 43130.64
847.3217, 43499.21
847.8038, 43914.00
848.2859, 44337.19
848.7681, 44734.38
849.2502, 45225.48
849.7323, 45839.09
850.2144, 46500.80
850.6965, 47115.70
851.1786, 47696.78
851.6608, 48311.44
852.1429, 48970.75
852.6250, 49615.48
853.1071, 50199.21
853.5892, 50739.51
854.0714, 51242.31
854.5535, 51659.81
855.0356, 52150.71
855.5177, 52775.71
855.9998, 53420.09
856.4819, 53974.39
856.9641, 54434.66
857.4462, 54975.55
857.9283, 55624.61
858.4104, 56294.00
858.8925, 56890.33
859.3746, 57460.27
859.8568, 58080.82
860.3389, 58783.83
860.8210, 59473.47
861.3030, 60093.26
861.7852, 60707.57
862.2673, 61382.14
862.7494, 62141.39
863.2315, 62849.30
863.7136, 63493.04
864.1957, 64088.78
864.6779, 64642.90
865.1600, 65154.07
865.6421, 65591.87
866.1242, 65956.50
866.6063, 66302.70
867.0884, 66713.76
867.5706, 67084.19
868.0527, 67334.88
868.5348, 67447.85
869.0169, 67452.72
869.4990, 67334.18
869.9811, 67134.91
870.4633, 66860.25
870.9454, 66516.46
871.4275, 66182.63
871.9096, 65858.13
872.3917, 65517.17
872.8738, 65133.80
873.3560, 64734.19
873.8381, 64337.30
874.3202, 63943.59
874.8023, 63569.45
875.2844, 63156.38
875.7665, 62822.73
876.2487, 62605.46
876.7308, 62504.46
877.2129, 62517.18
877.6950, 62643.32
878.1771, 62889.83
878.6592, 63239.87
879.1414, 63721.52
879.6235, 64375.74
880.1056, 65197.49
880.5877, 66164.00
881.0698, 67260.46
881.5519, 68507.07
882.0341, 69943.27
882.5162, 71530.09
882.9983, 73200.31
883.4804, 74954.37
883.9625, 76791.85
884.4446, 78721.66
884.9268, 80724.81
885.4089, 82796.70
885.8910, 84895.01
886.3731, 87005.66
886.8552, 89219.41
887.3373, 91331.39
887.8195, 93293.70
888.3016, 95064.29
888.7837, 96618.27
889.2658, 97956.55
889.7479, 99110.62
890.2300, 100111.1
890.7122, 100850.7
891.1943, 101211.8
891.6764, 101146.9
892.1585, 100450.8
892.6406, 98996.22
893.1227, 97041.05
893.6049, 94770.00
894.0870, 92145.86
894.5691, 89167.89
895.0512, 85697.34
895.5333, 81998.00
896.0154, 78009.19
896.4976, 73924.34
896.9797, 70005.77
897.4618, 66205.90
897.9439, 62556.06
898.4260, 59002.13
898.9081, 55633.65
899.3903, 52467.07
899.8724, 49520.02
900.3545, 46763.29
900.8366, 44203.54
901.3187, 41858.97
901.8008, 39690.66
902.2830, 37707.82
902.7651, 35899.84
903.2472, 34275.64
903.7293, 32791.91
904.2114, 31432.83
904.6935, 30189.50
905.1757, 29046.97
905.6578, 27995.38
906.1399, 27049.37
906.6220, 26207.09
907.1041, 25426.38
907.5862, 24691.53
908.0684, 24013.15
908.5505, 23399.88
909.0326, 22849.94
909.5147, 22307.13
909.9968, 21765.47
910.4789, 21264.12
910.9611, 20827.95
911.4432, 20438.47
911.9253, 20089.06
912.4074, 19768.12
912.8895, 19430.74
913.3716, 19014.08
913.8538, 18634.55
914.3359, 18343.89
914.8180, 18103.36
915.3001, 17822.08
915.7822, 17493.27
916.2643, 17184.74
916.7465, 16920.64
917.2286, 16674.43
917.7107, 16412.69
918.1928, 16142.62
918.6749, 15877.38
919.1570, 15618.41
919.6392, 15368.32
920.1213, 15137.45
920.6034, 14912.85
921.0855, 14681.60
921.5676, 14443.89
922.0497, 14207.55
922.5319, 13971.92
923.0140, 13742.38
923.4961, 13525.41
923.9782, 13321.35
924.4603, 13133.17
924.9424, 12963.50
925.4246, 12785.52
925.9067, 12573.21
926.3888, 12363.64
926.8708, 12181.05
927.3530, 12028.40
927.8351, 11871.61
928.3172, 11709.97
928.7993, 11541.18
929.2814, 11348.12
929.7635, 11150.88
930.2457, 10992.21
930.7278, 10866.74
931.2099, 10754.09
931.6920, 10658.69
932.1741, 10556.37
932.6563, 10433.92
933.1384, 10295.29
933.6205, 10153.75
934.1026, 10007.21
934.5847, 9860.531
935.0668, 9708.797
935.5490, 9567.811
936.0311, 9475.101
936.5132, 9412.054
936.9953, 9338.816
937.4774, 9225.241
937.9595, 9119.650
938.4417, 9050.616
938.9238, 8991.533
939.4059, 8907.093
939.8880, 8789.145
940.3701, 8690.953
940.8522, 8620.327
941.3344, 8558.622
941.8165, 8483.568
942.2986, 8403.681
942.7807, 8333.820
943.2628, 8276.926
943.7449, 8223.845
944.2271, 8171.522
944.7092, 8120.883
945.1913, 8073.442
945.6734, 8029.609
946.1555, 7978.050
946.6376, 7918.059
947.1198, 7860.399
947.6019, 7813.823
948.0840, 7772.413
948.5661, 7726.284
949.0482, 7676.470
949.5303, 7628.038
950.0125, 7586.504
950.4946, 7543.172
950.9767, 7491.189
951.4588, 7436.810
951.9409, 7398.384
952.4230, 7376.785
952.9052, 7358.605
953.3873, 7341.448
953.8694, 7323.051
954.3515, 7300.203
954.8336, 7273.991
955.3157, 7245.885
955.7979, 7217.068
956.2800, 7184.661
956.7621, 7141.671
957.2442, 7100.759
957.7263, 7075.070
958.2084, 7065.014
958.6906, 7058.214
959.1727, 7054.818
959.6548, 7044.459
960.1369, 7009.387
960.6190, 6967.796
961.1011, 6940.214
961.5833, 6928.548
962.0654, 6920.063
962.5475, 6917.351
963.0296, 6910.072
963.5117, 6891.920
963.9938, 6866.291
964.4760, 6852.017
964.9581, 6848.063
965.4402, 6844.130
965.9223, 6835.554
966.4044, 6824.386
966.8865, 6810.629
967.3687, 6795.823
967.8508, 6783.567
968.3329, 6773.170
968.8150, 6767.330
969.2971, 6766.456
969.7792, 6769.800
970.2614, 6780.285
970.7435, 6794.800
971.2256, 6800.244
971.7077, 6794.444
972.1898, 6778.563
972.6719, 6745.262
973.1541, 6708.187
973.6362, 6679.718
974.1183, 6663.610
974.6004, 6641.546
975.0825, 6609.844
975.5646, 6581.761
976.0468, 6572.094
976.5289, 6570.893
977.0110, 6546.399
977.4931, 6502.313
977.9752, 6457.900
978.4573, 6418.807
978.9395, 6386.402
979.4216, 6365.793
979.9037, 6352.308
980.3858, 6331.202
980.8679, 6298.027
981.3500, 6283.680
981.8322, 6301.855
982.3143, 6323.352
982.7964, 6302.373
983.2785, 6256.188
983.7606, 6214.957
984.2427, 6183.415
984.7249, 6163.664
985.2070, 6171.217
985.6891, 6178.388
986.1712, 6164.127
986.6533, 6126.033
987.1354, 6101.481
987.6176, 6091.157
988.0997, 6082.938
988.5818, 6065.207
989.0639, 6046.948
989.5460, 6039.866
990.0281, 6042.274
990.5103, 6040.996
990.9924, 6028.601
991.4745, 6018.939
991.9566, 6017.338
992.4387, 6018.257
992.9208, 6007.001
993.4029, 5985.331
993.8850, 5964.696
994.3671, 5948.986
994.8492, 5933.508
995.3314, 5908.616
995.8135, 5884.871
996.2956, 5875.688
996.7777, 5890.040
997.2598, 5898.803
997.7419, 5902.322
998.2241, 5899.470
998.7062, 5885.840
999.1883, 5865.998
999.6704, 5852.410
1000.153, 5844.851
1000.635, 5835.146
1001.117, 5809.237
1001.599, 5790.504
1002.081, 5802.057
1002.563, 5829.356
1003.045, 5817.216
1003.527, 5760.613
1004.009, 5709.883
1004.492, 5677.376
1004.974, 5661.296
1005.456, 5669.638
1005.938, 5688.983
1006.420, 5697.794
1006.902, 5685.387
1007.384, 5672.212
1007.866, 5660.863
1008.349, 5649.968
1008.831, 5635.700
1009.313, 5619.126
1009.795, 5620.460
1010.277, 5639.333
1010.759, 5650.131
1011.241, 5629.168
1011.723, 5598.213
1012.205, 5567.025
1012.688, 5538.735
1013.170, 5526.927
1013.652, 5539.461
1014.134, 5547.759
1014.616, 5544.153
1015.098, 5533.232
1015.580, 5522.934
1016.062, 5512.057
1016.544, 5496.572
1017.027, 5472.092
1017.509, 5452.091
1017.991, 5443.060
1018.473, 5440.666
1018.955, 5442.933
1019.437, 5451.401
1019.919, 5448.754
1020.401, 5433.778
1020.884, 5424.544
1021.366, 5446.765
1021.848, 5473.005
1022.330, 5469.209
1022.812, 5440.375
1023.294, 5415.050
1023.776, 5399.263
1024.258, 5388.679
1024.740, 5384.782
1025.223, 5383.241
1025.705, 5368.997
1026.187, 5348.685
1026.669, 5355.390
1027.151, 5405.664
1027.633, 5448.082
1028.115, 5445.653
1028.597, 5423.233
1029.079, 5402.330
1029.562, 5385.026
1030.044, 5355.397
1030.526, 5307.866
1031.008, 5278.362
1031.490, 5310.975
1031.972, 5363.926
1032.454, 5363.223
1032.936, 5325.462
1033.419, 5303.958
1033.901, 5338.544
1034.383, 5363.504
1034.865, 5363.865
1035.347, 5351.899
1035.829, 5347.529
1036.311, 5349.283
1036.793, 5344.495
1037.276, 5330.654
1037.758, 5315.407
1038.240, 5300.913
1038.722, 5290.301
1039.204, 5286.512
1039.686, 5290.105
1040.168, 5298.889
1040.650, 5316.823
1041.132, 5324.852
1041.615, 5310.794
1042.097, 5284.980
1042.579, 5260.866
1043.061, 5241.138
1043.543, 5231.606
1044.025, 5245.145
1044.507, 5254.845
1044.989, 5253.972
1045.471, 5248.584
1045.954, 5245.144
1046.436, 5243.457
1046.918, 5238.898
1047.400, 5231.185
1047.882, 5219.626
1048.364, 5192.506
1048.846, 5170.539
1049.328, 5176.701
1049.811, 5208.543
1050.293, 5222.677
1050.775, 5214.246
1051.257, 5199.675
1051.739, 5179.262
1052.221, 5163.217
1052.703, 5176.891
1053.185, 5206.151
1053.667, 5222.308
1054.150, 5211.943
1054.632, 5201.554
1055.114, 5194.236
1055.596, 5193.507
1056.078, 5205.217
1056.560, 5228.647
1057.042, 5239.590
1057.524, 5238.499
1058.006, 5235.052
1058.489, 5238.984
1058.971, 5239.249
1059.453, 5221.122
1059.935, 5193.665
1060.417, 5182.653
1060.899, 5191.860
1061.381, 5210.278
1061.863, 5240.256
1062.346, 5265.133
1062.828, 5258.941
1063.310, 5235.478
1063.792, 5215.202
1064.274, 5200.467
1064.756, 5194.750
1065.238, 5212.133
1065.720, 5223.475
1066.203, 5215.562
1066.685, 5194.125
1067.167, 5181.286
1067.649, 5176.502
1068.131, 5177.429
1068.613, 5185.356
1069.095, 5194.995
1069.577, 5205.096
1070.059, 5213.987
1070.542, 5220.733
1071.024, 5227.512
1071.506, 5220.716
1071.988, 5197.814
1072.470, 5177.523
1072.952, 5180.424
1073.434, 5191.864
1073.916, 5194.686
1074.398, 5189.138
1074.881, 5180.144
1075.363, 5161.432
1075.845, 5149.683
1076.327, 5144.814
1076.809, 5117.269
1077.291, 5143.229
1077.773, 5156.486
1078.255, 5157.720
1078.738, 5110.917
1079.220, 5126.143
1079.702, 5116.512
1080.184, 5105.863
1080.666, 5129.816
1081.148, 5090.006
1081.630, 5113.412
1082.112, 5111.582
1082.594, 5121.302
1083.077, 5106.007
1083.559, 5098.443
1084.041, 5115.895
1084.523, 5119.496
1085.005, 5101.328
1085.487, 5111.782
1085.969, 5101.984
1086.451, 5113.625
1086.933, 5127.275
1087.416, 5142.077
1087.898, 5153.700
1088.380, 5148.176
1088.862, 5129.371
1089.344, 5122.313
1089.826, 5160.076
1090.308, 5178.534
1090.790, 5153.771
1091.272, 5111.643
1091.755, 5100.483
1092.237, 5114.496
1092.719, 5122.590
1093.201, 5117.856
1093.683, 5116.772
1094.165, 5140.980
1094.647, 5163.310
1095.129, 5161.598
1095.612, 5138.256
1096.094, 5118.128
1096.576, 5100.320
1097.058, 5103.195
1097.540, 5150.618
1098.022, 5195.576
1098.504, 5169.261
1098.986, 5112.388
1099.469, 5086.456
1099.951, 5125.670
1100.433, 5143.061
1100.915, 5134.397
1101.397, 5116.732
1101.879, 5095.749
1102.361, 5078.577
1102.843, 5082.765
1103.325, 5104.461
1103.807, 5126.157
1104.290, 5149.435
1104.772, 5159.662
1105.254, 5148.907
1105.736, 5130.639
1106.218, 5124.213
1106.700, 5128.231
1107.182, 5140.687
1107.664, 5162.016
1108.147, 5169.961
1108.629, 5130.603
1109.111, 5091.845
1109.593, 5085.290
1110.075, 5104.355
1110.557, 5125.295
1111.039, 5148.215
1111.521, 5157.745
1112.004, 5143.937
1112.486, 5128.451
1112.968, 5135.404
1113.450, 5150.984
1113.932, 5159.563
1114.414, 5158.930
1114.896, 5151.857
1115.378, 5135.592
1115.860, 5124.355
1116.343, 5130.035
1116.825, 5143.099
1117.307, 5149.575
1117.789, 5150.635
1118.271, 5149.031
1118.753, 5143.750
1119.235, 5138.454
1119.717, 5133.747
1120.199, 5128.552
1120.682, 5119.769
1121.164, 5109.915
1121.646, 5107.835
1122.128, 5113.055
1122.610, 5117.686
1123.092, 5112.431
1123.574, 5113.012
1124.056, 5127.888
1124.539, 5148.829
1125.021, 5161.268
1125.503, 5165.592
1125.985, 5163.469
1126.467, 5154.341
1126.949, 5146.574
1127.431, 5144.078
1127.913, 5147.107
1128.396, 5160.292
1128.878, 5180.611
1129.360, 5186.653
1129.842, 5177.964
1130.324, 5161.982
1130.806, 5136.317
1131.288, 5115.381
1131.770, 5119.407
1132.252, 5134.636
1132.734, 5143.879
1133.217, 5142.802
1133.699, 5144.519
1134.181, 5148.464
1134.663, 5157.704
1135.145, 5181.195
1135.627, 5205.692
1136.109, 5209.763
1136.591, 5199.241
1137.074, 5187.576
1137.556, 5164.785
1138.038, 5166.717
1138.520, 5208.082
1139.002, 5246.091
1139.484, 5225.621
1139.966, 5173.402
1140.448, 5157.154
1140.931, 5174.320
1141.413, 5189.392
1141.895, 5188.467
1142.377, 5181.432
1142.859, 5165.973
1143.341, 5151.811
1143.823, 5158.897
1144.305, 5181.722
1144.787, 5195.288
1145.270, 5195.913
1145.752, 5198.128
1146.234, 5221.069
1146.716, 5235.539
1147.198, 5222.213
1147.680, 5191.450
1148.162, 5179.637
1148.644, 5185.436
1149.126, 5193.479
1149.609, 5201.328
1150.091, 5203.923
1150.573, 5192.601
1151.055, 5178.060
1151.537, 5167.935
1152.019, 5162.252
1152.501, 5170.489
1152.983, 5193.371
1153.466, 5207.608
1153.948, 5195.446
1154.430, 5181.054
1154.912, 5192.268
1155.394, 5212.870
1155.876, 5218.933
1156.358, 5203.684
1156.840, 5191.543
1157.322, 5181.428
1157.805, 5180.885
1158.287, 5204.580
1158.769, 5233.496
1159.251, 5243.429
1159.733, 5239.932
1160.215, 5238.425
1160.697, 5249.694
1161.179, 5241.049
1161.661, 5204.170
1162.144, 5168.909
1162.626, 5167.878
1163.108, 5186.029
1163.590, 5201.851
1164.072, 5214.573
1164.554, 5227.939
1165.036, 5251.467
1165.518, 5259.221
1166.000, 5241.399
1166.483, 5217.513
1166.965, 5217.674
1167.447, 5231.445
1167.929, 5237.774
1168.411, 5233.826
1168.893, 5226.316
1169.375, 5213.498
1169.857, 5201.735
1170.340, 5189.992
1170.822, 5183.489
1171.304, 5203.339
1171.786, 5237.307
1172.268, 5246.414
1172.750, 5215.255
1173.232, 5195.343
1173.714, 5221.556
1174.197, 5248.669
1174.679, 5256.667
1175.161, 5249.472
1175.643, 5235.699
1176.125, 5219.242
1176.607, 5218.472
1177.089, 5251.706
1177.571, 5273.908
1178.053, 5253.801
1178.536, 5225.184
1179.018, 5209.034
1179.500, 5204.854
1179.982, 5207.702
1180.464, 5217.458
1180.946, 5233.861
1181.428, 5267.028
1181.910, 5293.751
1182.392, 5299.983
1182.875, 5295.938
1183.357, 5292.404
1183.839, 5289.504
1184.321, 5272.758
1184.803, 5243.280
1185.285, 5225.278
1185.767, 5247.767
1186.249, 5271.716
1186.732, 5272.706
1187.214, 5261.485
1187.696, 5253.611
1188.178, 5249.083
1188.660, 5247.910
1189.142, 5250.092
1189.624, 5255.650
1190.106, 5271.753
1190.589, 5284.241
1191.071, 5279.448
1191.553, 5264.255
1192.035, 5253.834
1192.517, 5247.518
1192.999, 5262.382
1193.481, 5304.232
1193.963, 5335.393
1194.445, 5306.831
1194.927, 5269.274
1195.410, 5267.950
1195.892, 5295.441
1196.374, 5304.898
1196.856, 5293.869
1197.338, 5296.693
1197.820, 5324.610
1198.302, 5350.100
1198.784, 5343.684
1199.267, 5324.853
1199.749, 5309.148
1200.231, 5297.817
1200.713, 5292.307
1201.195, 5292.334
1201.677, 5303.803
1202.159, 5333.168
1202.641, 5361.417
1203.124, 5371.077
1203.606, 5367.607
1204.088, 5351.445
1204.570, 5321.910
1205.052, 5310.831
1205.534, 5319.319
1206.016, 5335.821
1206.498, 5362.062
1206.980, 5382.169
1207.463, 5375.766
1207.945, 5355.567
1208.427, 5336.027
1208.909, 5316.820
1209.391, 5309.666
1209.873, 5315.342
1210.355, 5325.865
1210.837, 5337.394
1211.319, 5351.037
1211.802, 5373.754
1212.284, 5396.619
1212.766, 5405.271
1213.248, 5396.254
1213.730, 5384.559
1214.212, 5369.354
1214.694, 5359.902
1215.176, 5363.287
1215.659, 5374.435
1216.141, 5396.816
1216.623, 5420.661
1217.105, 5425.545
1217.587, 5402.007
1218.069, 5398.213
1218.551, 5417.773
1219.033, 5433.275
1219.516, 5413.953
1219.998, 5389.245
1220.480, 5389.417
1220.962, 5404.337
1221.444, 5406.929
1221.926, 5392.389
1222.408, 5385.865
1222.890, 5389.851
1223.372, 5394.923
1223.854, 5393.770
1224.337, 5389.753
1224.819, 5382.393
1225.301, 5375.071
1225.783, 5377.404
1226.265, 5391.246
1226.747, 5404.721
1227.229, 5416.926
1227.711, 5425.439
1228.193, 5424.267
1228.676, 5421.906
1229.158, 5427.384
1229.640, 5437.680
1230.122, 5438.974
1230.604, 5429.515
1231.086, 5432.118
1231.568, 5451.979
1232.050, 5468.205
1232.533, 5455.813
1233.015, 5438.833
1233.497, 5438.437
1233.979, 5449.831
1234.461, 5452.340
1234.943, 5445.649
1235.425, 5441.209
1235.907, 5440.932
1236.390, 5445.467
1236.872, 5466.440
1237.354, 5482.544
1237.836, 5469.192
1238.318, 5437.781
1238.800, 5431.446
1239.282, 5449.081
1239.764, 5463.518
1240.246, 5468.545
1240.729, 5468.529
1241.211, 5460.724
1241.693, 5454.909
1242.175, 5461.446
1242.657, 5474.919
1243.139, 5465.494
1243.621, 5437.200
1244.103, 5431.419
1244.585, 5464.699
1245.068, 5493.813
1245.550, 5478.684
1246.032, 5464.847
1246.514, 5484.915
1246.996, 5526.605
1247.478, 5540.443
1247.960, 5529.419
1248.442, 5506.270
1248.925, 5466.579
1249.407, 5444.489
1249.889, 5476.471
1250.371, 5510.208
1250.853, 5516.670
1251.335, 5504.021
1251.817, 5503.198
1252.299, 5510.217
1252.781, 5509.866
1253.264, 5493.699
1253.746, 5482.529
1254.228, 5487.825
1254.710, 5493.878
1255.192, 5491.181
1255.674, 5485.091
1256.156, 5496.033
1256.638, 5517.021
1257.120, 5528.534
1257.603, 5518.974
1258.085, 5516.947
1258.567, 5533.665
1259.049, 5546.167
1259.531, 5539.242
1260.013, 5522.158
1260.495, 5511.103
1260.977, 5507.554
1261.460, 5516.143
1261.942, 5547.074
1262.424, 5566.342
1262.906, 5568.860
1263.388, 5568.254
1263.870, 5573.562
1264.352, 5578.849
1264.834, 5570.042
1265.317, 5502.509
1265.799, 5532.317
1266.281, 5549.421
1266.763, 5554.503
1267.245, 5511.554
1267.727, 5530.626
1268.209, 5524.843
1268.691, 5518.042
1269.173, 5545.843
1269.656, 5509.881
1270.138, 5537.134
1270.620, 5539.152
1271.102, 5552.720
1271.584, 5541.278
1272.066, 5537.562
1272.548, 5558.861
1273.030, 5566.309
1273.512, 5551.988
1273.995, 5583.902
1274.477, 5595.919
1274.959, 5605.440
1275.441, 5609.798
1275.923, 5609.013
1276.405, 5602.718
1276.887, 5584.143
1277.369, 5568.619
1277.852, 5562.771
1278.334, 5566.144
1278.816, 5580.971
1279.298, 5606.302
1279.780, 5620.226
1280.262, 5624.503
1280.744, 5629.647
1281.226, 5661.690
1281.708, 5664.126
1282.191, 5579.280
1282.673, 5504.083
1283.155, 5531.596
1283.637, 5631.726
1284.119, 5664.203
1284.601, 5644.053
1285.083, 5624.001
1285.565, 5624.971
1286.047, 5628.709
1286.530, 5635.146
1287.012, 5638.961
1287.494, 5629.619
1287.976, 5617.959
1288.458, 5636.779
1288.940, 5671.946
1289.422, 5688.929
1289.904, 5665.704
1290.386, 5641.938
1290.869, 5613.767
1291.351, 5600.082
1291.833, 5631.978
1292.315, 5671.347
1292.797, 5658.188
1293.279, 5620.624
1293.761, 5616.555
1294.243, 5663.832
1294.726, 5688.296
1295.208, 5688.759
1295.690, 5683.530
1296.172, 5679.868
1296.654, 5679.826
1297.136, 5690.672
1297.618, 5702.596
1298.100, 5702.079
1298.583, 5687.969
1299.065, 5676.372
1299.547, 5667.798
1300.029, 5667.461
1300.511, 5687.230
1300.993, 5704.089
1301.475, 5703.799
1301.957, 5699.234
1302.439, 5699.189
1302.922, 5703.307
1303.404, 5712.649
1303.886, 5724.528
1304.368, 5728.129
1304.850, 5703.027
1305.332, 5698.015
1305.814, 5731.931
1306.296, 5761.600
1306.778, 5748.500
1307.261, 5714.394
1307.743, 5709.188
1308.225, 5721.856
1308.707, 5727.350
1309.189, 5711.606
1309.671, 5704.610
1310.153, 5708.510
##END=



