##NAMES=Milarite
##RRUFFID=R070464
##IDEAL CHEMISTRY=KCa_2_(Be_2_AlSi_12_O_30_)&#183;H_2_O
##LOCALITY=Rössing Mine, Arandis, Swakopmund District, Namibia
##OWNER=RRUFF
##SOURCE=Michael Scott
##DESCRIPTION=Fragments from a pale yellow green hexagonal prism
##STATUS=The identification of this mineral has been confirmed by X-ray diffraction and chemical analysis
##URL=rruff.info/R070464
##MEASURED CHEMISTRY=(K_1.11_Na_0.21_)_Σ=1.32_Ca_2.00_(Be_2.36_Al_0.64_)_Σ=3_Si_12.00_O_30_·H_2_O; H_2_O assumed ideal from stoichiometry; BeO estimated by difference
141.6486, 7955.371
142.1307, 8202.620
142.6128, 8460.462
143.0949, 8722.853
143.5770, 8991.134
144.0591, 9269.233
144.5413, 9548.813
145.0234, 9853.684
145.5055, 10205.44
145.9876, 10579.59
146.4697, 10938.42
146.9518, 11268.29
147.4340, 11589.17
147.9161, 11951.11
148.3982, 12381.72
148.8803, 12774.58
149.3624, 13087.97
149.8445, 13349.43
150.3267, 13612.70
150.8088, 13902.01
151.2909, 14191.32
151.7730, 14436.66
152.2551, 14644.00
152.7372, 14810.95
153.2194, 14917.31
153.7015, 14980.30
154.1836, 15047.85
154.6657, 15142.77
155.1478, 15238.00
155.6299, 15288.40
156.1121, 15288.33
156.5942, 15275.19
157.0763, 15246.51
157.5584, 15214.19
158.0405, 15230.60
158.5226, 15335.82
159.0048, 15474.17
159.4869, 15564.51
159.9690, 15598.15
160.4511, 15626.47
160.9332, 15679.89
161.4153, 15721.56
161.8975, 15676.91
162.3796, 15601.56
162.8617, 15515.89
163.3438, 15450.33
163.8259, 15412.19
164.3080, 15356.06
164.7902, 15248.97
165.2723, 15094.28
165.7544, 14917.92
166.2365, 14701.88
166.7186, 14490.81
167.2007, 14325.97
167.6829, 14211.96
168.1650, 14118.08
168.6471, 14027.55
169.1292, 13940.67
169.6113, 13840.92
170.0934, 13716.65
170.5756, 13585.89
171.0577, 13457.39
171.5398, 13332.27
172.0219, 13217.97
172.5040, 13124.43
172.9861, 13052.16
173.4683, 12980.65
173.9504, 12903.39
174.4325, 12825.99
174.9146, 12750.41
175.3967, 12676.44
175.8788, 12607.54
176.3610, 12547.63
176.8431, 12496.97
177.3252, 12446.89
177.8073, 12394.27
178.2894, 12342.34
178.7715, 12288.24
179.2537, 12232.73
179.7358, 12187.07
180.2179, 12171.93
180.7000, 12194.51
181.1821, 12191.28
181.6642, 12129.11
182.1464, 12056.81
182.6285, 11996.03
183.1106, 11949.30
183.5927, 11908.49
184.0748, 11863.22
184.5569, 11810.86
185.0391, 11772.11
185.5212, 11770.18
186.0033, 11766.33
186.4854, 11735.07
186.9675, 11679.34
187.4496, 11627.81
187.9318, 11617.91
188.4139, 11661.53
188.8960, 11673.68
189.3781, 11610.84
189.8602, 11548.20
190.3423, 11520.59
190.8245, 11525.83
191.3066, 11537.38
191.7887, 11522.91
192.2708, 11473.83
192.7529, 11458.73
193.2350, 11541.66
193.7172, 11604.65
194.1993, 11583.99
194.6814, 11495.23
195.1635, 11403.69
195.6456, 11370.27
196.1277, 11400.62
196.6099, 11426.20
197.0920, 11455.04
197.5741, 11471.51
198.0562, 11467.42
198.5383, 11445.73
199.0204, 11414.70
199.5026, 11378.05
199.9847, 11335.16
200.4668, 11305.51
200.9489, 11305.16
201.4310, 11304.26
201.9131, 11294.98
202.3953, 11278.47
202.8774, 11258.89
203.3595, 11238.56
203.8416, 11217.56
204.3237, 11200.19
204.8058, 11181.04
205.2880, 11171.88
205.7701, 11190.86
206.2522, 11221.07
206.7343, 11231.03
207.2164, 11195.54
207.6985, 11121.19
208.1807, 11067.38
208.6628, 11042.11
209.1449, 11030.86
209.6270, 11044.56
210.1091, 11067.21
210.5912, 11073.46
211.0734, 11045.61
211.5555, 10993.48
212.0376, 10965.25
212.5197, 10982.52
213.0018, 10997.75
213.4839, 10998.98
213.9661, 10994.04
214.4482, 10993.72
214.9303, 11003.66
215.4124, 11020.20
215.8945, 11031.38
216.3766, 11035.66
216.8587, 11036.35
217.3409, 11034.58
217.8230, 11029.83
218.3051, 11019.24
218.7872, 11001.60
219.2693, 10983.06
219.7514, 10977.94
220.2336, 10993.45
220.7157, 11010.55
221.1978, 11027.34
221.6799, 11044.45
222.1620, 11064.07
222.6441, 11086.63
223.1263, 11107.56
223.6084, 11117.87
224.0905, 11111.40
224.5726, 11108.20
225.0547, 11107.61
225.5368, 11111.58
226.0190, 11125.64
226.5011, 11149.12
226.9832, 11171.48
227.4653, 11177.04
227.9474, 11159.66
228.4296, 11144.29
228.9117, 11136.42
229.3938, 11126.87
229.8759, 11106.90
230.3580, 11078.05
230.8401, 11051.90
231.3223, 11044.13
231.8044, 11060.83
232.2865, 11062.46
232.7686, 11036.13
233.2507, 11005.11
233.7328, 10977.38
234.2150, 10952.62
234.6971, 10926.09
235.1792, 10890.54
235.6613, 10845.52
236.1434, 10817.53
236.6255, 10826.25
237.1077, 10832.29
237.5898, 10815.86
238.0719, 10787.19
238.5540, 10769.51
239.0361, 10783.06
239.5182, 10820.28
240.0004, 10831.90
240.4825, 10793.21
240.9646, 10762.37
241.4467, 10767.59
241.9288, 10788.21
242.4109, 10792.09
242.8931, 10758.60
243.3752, 10705.65
243.8573, 10685.81
244.3394, 10718.60
244.8215, 10746.96
245.3036, 10754.08
245.7858, 10750.51
246.2679, 10745.30
246.7500, 10741.22
247.2321, 10739.77
247.7142, 10745.58
248.1963, 10763.03
248.6785, 10773.45
249.1606, 10769.53
249.6427, 10758.90
250.1248, 10744.41
250.6069, 10726.79
251.0890, 10710.88
251.5712, 10700.96
252.0533, 10696.72
252.5354, 10701.29
253.0175, 10723.01
253.4996, 10748.09
253.9817, 10767.50
254.4639, 10780.98
254.9460, 10794.78
255.4281, 10818.87
255.9102, 10851.74
256.3923, 10866.12
256.8745, 10837.82
257.3566, 10818.41
257.8387, 10843.08
258.3208, 10904.04
258.8029, 10971.17
259.2850, 11031.16
259.7672, 11084.23
260.2493, 11128.57
260.7314, 11159.06
261.2135, 11191.78
261.6956, 11237.97
262.1777, 11292.94
262.6599, 11348.90
263.1420, 11402.24
263.6241, 11455.09
264.1062, 11508.69
264.5883, 11561.41
265.0704, 11624.38
265.5526, 11713.67
266.0347, 11814.10
266.5168, 11903.56
266.9989, 11971.99
267.4810, 12037.71
267.9631, 12118.60
268.4453, 12214.07
268.9274, 12312.35
269.4095, 12414.38
269.8916, 12512.73
270.3737, 12596.16
270.8558, 12659.24
271.3380, 12724.75
271.8201, 12814.61
272.3022, 12919.19
272.7843, 13002.66
273.2664, 13047.03
273.7485, 13082.96
274.2307, 13155.88
274.7128, 13265.86
275.1949, 13376.47
275.6770, 13478.55
276.1591, 13573.63
276.6412, 13658.45
277.1234, 13731.12
277.6055, 13808.98
278.0876, 13913.28
278.5697, 14044.15
279.0518, 14168.27
279.5339, 14265.25
280.0161, 14367.45
280.4982, 14500.49
280.9803, 14665.28
281.4624, 14853.78
281.9445, 15065.79
282.4266, 15298.43
282.9088, 15519.33
283.3909, 15698.61
283.8730, 15897.66
284.3551, 16159.97
284.8372, 16462.75
285.3193, 16763.81
285.8015, 17043.82
286.2836, 17296.18
286.7657, 17492.36
287.2478, 17622.27
287.7299, 17714.69
288.2120, 17795.22
288.6942, 17830.30
289.1763, 17779.60
289.6584, 17630.66
290.1405, 17399.05
290.6226, 17105.40
291.1047, 16735.13
291.5869, 16324.45
292.0690, 15849.34
292.5511, 15356.50
293.0332, 14857.20
293.5153, 14364.13
293.9974, 13903.68
294.4796, 13508.22
294.9617, 13184.46
295.4438, 12862.36
295.9259, 12516.32
296.4080, 12196.04
296.8901, 11917.76
297.3723, 11679.35
297.8544, 11479.59
298.3365, 11319.94
298.8186, 11192.54
299.3007, 11056.53
299.7828, 10889.72
300.2650, 10746.84
300.7471, 10644.07
301.2292, 10565.57
301.7113, 10499.36
302.1934, 10441.04
302.6755, 10382.48
303.1577, 10303.30
303.6398, 10187.29
304.1219, 10102.52
304.6040, 10083.08
305.0861, 10080.47
305.5682, 10068.47
306.0504, 10043.38
306.5325, 10013.45
307.0146, 9980.882
307.4967, 9946.351
307.9788, 9932.999
308.4609, 9967.679
308.9431, 9990.813
309.4252, 9958.937
309.9073, 9888.603
310.3894, 9826.600
310.8715, 9800.768
311.3536, 9798.210
311.8358, 9789.907
312.3179, 9772.444
312.8000, 9761.742
313.2821, 9772.822
313.7642, 9794.628
314.2463, 9811.160
314.7285, 9815.071
315.2106, 9820.177
315.6927, 9844.173
316.1748, 9883.817
316.6569, 9913.369
317.1390, 9921.858
317.6212, 9917.341
318.1033, 9909.286
318.5854, 9893.388
319.0675, 9892.533
319.5496, 9927.077
320.0317, 9979.242
320.5139, 10017.06
320.9960, 10032.63
321.4781, 10046.19
321.9602, 10082.14
322.4423, 10143.49
322.9244, 10190.95
323.4066, 10213.45
323.8887, 10228.31
324.3708, 10252.20
324.8529, 10281.79
325.3350, 10296.81
325.8171, 10280.37
326.2993, 10238.04
326.7814, 10214.45
327.2635, 10239.20
327.7456, 10245.24
328.2277, 10205.52
328.7098, 10141.13
329.1920, 10081.91
329.6741, 10039.53
330.1562, 10004.30
330.6383, 9956.808
331.1204, 9884.338
331.6025, 9822.333
332.0847, 9774.021
332.5668, 9732.332
333.0489, 9690.786
333.5310, 9650.096
334.0131, 9616.789
334.4952, 9601.200
334.9774, 9605.126
335.4595, 9589.130
335.9416, 9522.079
336.4237, 9468.101
336.9058, 9460.006
337.3879, 9475.599
337.8701, 9475.042
338.3522, 9434.323
338.8343, 9372.690
339.3164, 9336.684
339.7985, 9335.305
340.2806, 9332.836
340.7627, 9306.380
341.2448, 9281.354
341.7270, 9287.542
342.2091, 9331.786
342.6912, 9368.338
343.1733, 9341.845
343.6554, 9262.872
344.1375, 9215.811
344.6197, 9227.160
345.1018, 9252.646
345.5839, 9258.818
346.0660, 9247.369
346.5481, 9222.400
347.0302, 9166.521
347.5124, 9107.278
347.9945, 9085.037
348.4766, 9101.603
348.9587, 9125.246
349.4408, 9142.894
349.9229, 9151.051
350.4051, 9141.085
350.8872, 9091.504
351.3693, 9051.932
351.8514, 9052.182
352.3335, 9076.546
352.8156, 9094.572
353.2978, 9095.778
353.7799, 9086.372
354.2620, 9075.669
354.7441, 9062.261
355.2262, 9050.924
355.7083, 9045.749
356.1905, 9039.606
356.6726, 9024.431
357.1547, 9001.852
357.6368, 8983.311
358.1189, 8981.152
358.6010, 8994.521
359.0832, 8981.062
359.5653, 8896.390
360.0474, 8833.365
360.5295, 8825.320
361.0116, 8845.531
361.4937, 8858.270
361.9759, 8848.365
362.4580, 8826.084
362.9401, 8807.667
363.4222, 8788.882
363.9043, 8787.131
364.3864, 8817.856
364.8686, 8855.875
365.3507, 8891.618
365.8328, 8922.327
366.3149, 8944.794
366.7970, 8952.084
367.2791, 8947.639
367.7613, 8949.000
368.2434, 8956.804
368.7255, 8969.532
369.2076, 8988.319
369.6897, 9010.962
370.1718, 9035.403
370.6540, 9066.259
371.1361, 9091.590
371.6182, 9089.872
372.1003, 9067.017
372.5824, 9066.413
373.0645, 9109.809
373.5467, 9173.817
374.0288, 9217.774
374.5109, 9236.793
374.9930, 9267.514
375.4751, 9337.547
375.9572, 9414.585
376.4394, 9453.690
376.9215, 9452.467
377.4036, 9454.882
377.8857, 9500.212
378.3678, 9588.643
378.8499, 9662.033
379.3321, 9716.894
379.8142, 9763.313
380.2963, 9799.803
380.7784, 9831.003
381.2605, 9866.402
381.7426, 9910.022
382.2248, 9950.547
382.7069, 9963.905
383.1890, 9939.658
383.6711, 9908.758
384.1532, 9870.653
384.6353, 9828.296
385.1175, 9786.972
385.5996, 9744.174
386.0817, 9688.696
386.5638, 9603.247
387.0459, 9496.092
387.5280, 9424.405
388.0102, 9405.735
388.4923, 9390.072
388.9744, 9364.239
389.4565, 9326.989
389.9386, 9272.977
390.4207, 9196.322
390.9029, 9117.440
391.3850, 9058.729
391.8671, 9017.595
392.3492, 8973.353
392.8313, 8915.833
393.3134, 8862.777
393.7956, 8838.570
394.2777, 8840.552
394.7598, 8843.835
395.2419, 8851.304
395.7240, 8851.284
396.2061, 8827.881
396.6883, 8783.189
397.1704, 8735.437
397.6525, 8694.563
398.1346, 8660.904
398.6167, 8635.764
399.0988, 8624.650
399.5810, 8614.043
400.0631, 8604.365
400.5452, 8592.985
401.0273, 8576.543
401.5094, 8554.372
401.9915, 8528.584
402.4737, 8499.446
402.9558, 8463.612
403.4379, 8443.432
403.9200, 8452.505
404.4021, 8463.577
404.8842, 8474.234
405.3664, 8479.395
405.8485, 8469.065
406.3306, 8434.871
406.8127, 8391.641
407.2948, 8373.080
407.7769, 8385.662
408.2591, 8394.376
408.7412, 8388.615
409.2233, 8376.680
409.7054, 8363.534
410.1875, 8349.629
410.6696, 8337.689
411.1518, 8333.144
411.6339, 8330.815
412.1160, 8315.415
412.5981, 8283.471
413.0802, 8260.419
413.5623, 8269.369
414.0445, 8302.396
414.5266, 8319.716
415.0087, 8312.778
415.4908, 8300.461
415.9729, 8286.836
416.4550, 8273.967
416.9372, 8264.823
417.4193, 8260.280
417.9014, 8261.267
418.3835, 8270.301
418.8656, 8292.454
419.3477, 8304.782
419.8299, 8292.768
420.3120, 8286.377
420.7941, 8303.832
421.2762, 8338.166
421.7583, 8372.923
422.2404, 8399.070
422.7226, 8417.562
423.2047, 8431.062
423.6868, 8438.761
424.1689, 8443.443
424.6510, 8439.652
425.1331, 8437.450
425.6153, 8445.961
426.0974, 8465.109
426.5795, 8484.089
427.0616, 8492.338
427.5437, 8494.467
428.0258, 8505.579
428.5080, 8528.349
428.9901, 8551.728
429.4722, 8568.149
429.9543, 8580.317
430.4364, 8595.038
430.9185, 8613.146
431.4007, 8633.028
431.8828, 8656.620
432.3649, 8680.776
432.8470, 8699.722
433.3291, 8711.845
433.8112, 8718.765
434.2934, 8722.016
434.7755, 8721.007
435.2576, 8718.729
435.7397, 8702.053
436.2218, 8697.489
436.7039, 8726.763
437.1861, 8775.175
437.6682, 8815.831
438.1503, 8835.256
438.6324, 8839.999
439.1145, 8842.146
439.5966, 8838.723
440.0788, 8841.625
440.5609, 8847.132
441.0430, 8863.933
441.5251, 8906.311
442.0072, 8967.822
442.4893, 9021.139
442.9715, 9046.688
443.4536, 9053.801
443.9357, 9057.226
444.4178, 9054.389
444.8999, 9070.480
445.3820, 9128.251
445.8642, 9205.807
446.3463, 9260.396
446.8284, 9287.218
447.3105, 9307.743
447.7926, 9316.722
448.2747, 9329.925
448.7569, 9373.767
449.2390, 9449.698
449.7211, 9531.191
450.2032, 9596.780
450.6853, 9646.636
451.1674, 9689.482
451.6496, 9721.002
452.1317, 9751.646
452.6138, 9784.210
453.0959, 9816.718
453.5780, 9841.888
454.0602, 9859.413
454.5423, 9884.885
455.0244, 9944.752
455.5065, 10044.19
455.9886, 10123.76
456.4707, 10168.47
456.9529, 10211.59
457.4350, 10273.10
457.9171, 10343.33
458.3992, 10404.41
458.8813, 10447.63
459.3634, 10484.65
459.8456, 10518.90
460.3277, 10554.38
460.8098, 10617.58
461.2919, 10720.34
461.7740, 10840.89
462.2561, 10952.50
462.7383, 11054.50
463.2204, 11162.78
463.7025, 11270.75
464.1846, 11392.25
464.6667, 11535.61
465.1488, 11700.13
465.6310, 11883.18
466.1131, 12084.22
466.5952, 12297.89
467.0773, 12509.61
467.5594, 12700.70
468.0415, 12929.42
468.5237, 13230.00
469.0058, 13534.62
469.4879, 13788.83
469.9700, 14012.03
470.4521, 14272.82
470.9342, 14626.44
471.4164, 15034.54
471.8985, 15393.19
472.3806, 15686.97
472.8627, 16027.61
473.3448, 16478.81
473.8269, 16971.90
474.3091, 17412.81
474.7912, 17795.18
475.2733, 18188.82
475.7554, 18652.52
476.2375, 19120.62
476.7196, 19519.91
477.2018, 19845.57
477.6839, 20117.65
478.1660, 20353.31
478.6481, 20541.40
479.1302, 20639.06
479.6123, 20643.90
480.0945, 20553.16
480.5766, 20355.94
481.0587, 20069.69
481.5408, 19701.54
482.0229, 19255.36
482.5050, 18738.25
482.9872, 18142.47
483.4693, 17481.31
483.9514, 16823.12
484.4335, 16166.39
484.9156, 15522.35
485.3977, 14876.04
485.8799, 14251.60
486.3620, 13677.45
486.8441, 13159.19
487.3262, 12673.82
487.8083, 12208.33
488.2904, 11768.38
488.7726, 11368.21
489.2547, 11009.11
489.7368, 10687.04
490.2189, 10402.84
490.7010, 10153.47
491.1831, 9916.194
491.6653, 9674.050
492.1474, 9464.179
492.6295, 9315.718
493.1116, 9189.102
493.5937, 9040.560
494.0758, 8868.711
494.5580, 8706.028
495.0401, 8584.172
495.5222, 8499.625
496.0043, 8422.200
496.4864, 8356.235
496.9685, 8289.059
497.4507, 8208.248
497.9328, 8129.398
498.4149, 8070.519
498.8970, 8034.895
499.3791, 8003.189
499.8612, 7962.805
500.3434, 7916.423
500.8255, 7867.977
501.3076, 7817.558
501.7897, 7771.489
502.2718, 7734.635
502.7539, 7705.521
503.2361, 7677.567
503.7182, 7653.107
504.2003, 7626.486
504.6824, 7589.094
505.1645, 7553.688
505.6466, 7536.230
506.1288, 7536.179
506.6109, 7537.431
507.0930, 7525.580
507.5751, 7502.595
508.0572, 7482.979
508.5393, 7464.449
509.0215, 7454.140
509.5036, 7457.014
509.9857, 7466.443
510.4678, 7480.079
510.9499, 7497.140
511.4320, 7507.743
511.9142, 7500.360
512.3963, 7483.746
512.8784, 7475.031
513.3605, 7475.253
513.8427, 7477.352
514.3248, 7474.258
514.8069, 7472.396
515.2890, 7493.899
515.7711, 7556.730
516.2532, 7607.410
516.7354, 7631.338
517.2175, 7646.453
517.6996, 7660.022
518.1817, 7677.825
518.6638, 7714.148
519.1459, 7783.186
519.6281, 7871.693
520.1102, 7927.525
520.5923, 7929.937
521.0744, 7952.562
521.5565, 8032.317
522.0386, 8123.463
522.5208, 8190.925
523.0029, 8235.946
523.4850, 8289.390
523.9671, 8369.382
524.4492, 8464.468
524.9313, 8560.154
525.4135, 8656.725
525.8956, 8758.543
526.3777, 8869.211
526.8598, 8983.255
527.3419, 9092.190
527.8240, 9203.451
528.3062, 9288.630
528.7883, 9315.981
529.2704, 9347.498
529.7525, 9427.814
530.2346, 9539.818
530.7167, 9642.790
531.1989, 9717.031
531.6810, 9768.679
532.1631, 9810.102
532.6452, 9842.742
533.1273, 9854.286
533.6094, 9838.050
534.0916, 9806.036
534.5737, 9765.266
535.0558, 9716.539
535.5379, 9662.456
536.0200, 9608.638
536.5021, 9544.057
536.9843, 9453.144
537.4664, 9346.764
537.9485, 9248.222
538.4306, 9164.775
538.9127, 9088.611
539.3948, 9010.695
539.8770, 8929.567
540.3591, 8861.384
540.8412, 8820.870
541.3233, 8775.995
541.8054, 8717.056
542.2875, 8651.103
542.7697, 8583.841
543.2518, 8517.613
543.7339, 8458.372
544.2160, 8419.558
544.6981, 8394.224
545.1802, 8347.221
545.6624, 8272.279
546.1445, 8197.053
546.6266, 8133.368
547.1087, 8081.702
547.5908, 8042.597
548.0729, 8022.237
548.5551, 7998.872
549.0372, 7970.886
549.5193, 7934.074
550.0014, 7871.557
550.4835, 7792.295
550.9656, 7737.011
551.4478, 7735.594
551.9299, 7770.246
552.4120, 7782.627
552.8941, 7767.559
553.3762, 7742.987
553.8583, 7694.449
554.3405, 7650.944
554.8226, 7635.442
555.3047, 7641.754
555.7868, 7642.114
556.2689, 7618.379
556.7510, 7588.546
557.2332, 7571.487
557.7153, 7565.450
558.1974, 7567.342
558.6795, 7578.870
559.1616, 7582.620
559.6437, 7554.299
560.1259, 7487.070
560.6080, 7434.057
561.0901, 7411.349
561.5722, 7381.896
562.0543, 7324.422
562.5364, 7257.630
563.0186, 7205.777
563.5007, 7175.480
563.9828, 7154.727
564.4649, 7135.507
564.9470, 7116.139
565.4291, 7083.253
565.9113, 7032.605
566.3934, 6982.179
566.8755, 6941.173
567.3576, 6906.664
567.8397, 6872.304
568.3218, 6838.555
568.8040, 6803.491
569.2861, 6760.630
569.7682, 6720.734
570.2503, 6698.860
570.7324, 6690.417
571.2145, 6677.620
571.6967, 6650.183
572.1788, 6609.728
572.6609, 6555.728
573.1430, 6475.318
573.6251, 6422.686
574.1072, 6423.881
574.5894, 6433.960
575.0715, 6432.160
575.5536, 6419.776
576.0357, 6401.610
576.5178, 6376.336
576.9999, 6350.514
577.4821, 6326.266
577.9642, 6305.996
578.4463, 6299.112
578.9284, 6307.724
579.4105, 6316.853
579.8926, 6312.471
580.3748, 6295.136
580.8569, 6276.441
581.3390, 6256.294
581.8211, 6234.687
582.3032, 6207.021
582.7853, 6181.127
583.2675, 6166.110
583.7496, 6161.238
584.2317, 6155.626
584.7138, 6139.160
585.1959, 6117.976
585.6780, 6103.470
586.1602, 6095.653
586.6422, 6098.341
587.1243, 6117.174
587.6064, 6139.265
588.0886, 6147.096
588.5707, 6138.564
589.0528, 6125.559
589.5349, 6104.615
590.0170, 6083.080
590.4991, 6066.135
590.9813, 6050.351
591.4634, 6025.606
591.9455, 5990.273
592.4276, 5962.618
592.9097, 5977.230
593.3918, 6028.521
593.8740, 6029.645
594.3561, 5958.685
594.8382, 5900.865
595.3203, 5907.440
595.8024, 5945.417
596.2845, 5955.482
596.7667, 5928.212
597.2488, 5910.887
597.7309, 5923.576
598.2130, 5946.726
598.6951, 5972.990
599.1772, 5994.996
599.6594, 5992.841
600.1415, 5955.708
600.6236, 5905.333
601.1057, 5884.511
601.5878, 5900.513
602.0699, 5908.062
602.5521, 5901.960
603.0342, 5891.973
603.5163, 5880.690
603.9984, 5869.844
604.4805, 5862.449
604.9626, 5859.856
605.4448, 5858.655
605.9269, 5858.515
606.4090, 5857.814
606.8911, 5856.346
607.3732, 5852.921
607.8553, 5840.092
608.3375, 5811.371
608.8196, 5774.292
609.3017, 5752.542
609.7838, 5753.972
610.2659, 5753.149
610.7480, 5750.140
611.2302, 5742.944
611.7123, 5724.808
612.1944, 5702.042
612.6765, 5690.041
613.1586, 5697.629
613.6407, 5710.035
614.1229, 5714.943
614.6050, 5714.935
615.0871, 5717.076
615.5692, 5722.416
616.0513, 5724.365
616.5334, 5717.490
617.0156, 5702.957
617.4977, 5686.876
617.9798, 5661.150
618.4619, 5646.823
618.9440, 5655.721
619.4261, 5666.568
619.9083, 5666.951
620.3904, 5656.741
620.8725, 5639.068
621.3546, 5610.524
621.8367, 5583.535
622.3188, 5573.590
622.8010, 5578.120
623.2831, 5589.491
623.7652, 5606.811
624.2473, 5622.806
624.7294, 5631.420
625.2115, 5632.889
625.6937, 5630.305
626.1758, 5620.263
626.6579, 5610.617
627.1400, 5598.217
627.6221, 5589.471
628.1042, 5592.225
628.5864, 5604.102
629.0685, 5614.218
629.5506, 5615.829
630.0327, 5613.402
630.5148, 5612.941
630.9969, 5614.277
631.4791, 5617.336
631.9612, 5622.917
632.4433, 5625.391
632.9254, 5617.859
633.4075, 5601.021
633.8896, 5591.511
634.3718, 5594.972
634.8539, 5597.940
635.3360, 5599.605
635.8181, 5599.180
636.3002, 5593.770
636.7823, 5585.052
637.2645, 5580.037
637.7466, 5584.446
638.2287, 5593.167
638.7108, 5596.989
639.1929, 5596.855
639.6750, 5601.556
640.1572, 5614.593
640.6393, 5626.565
641.1214, 5627.661
641.6035, 5618.286
642.0856, 5612.346
642.5677, 5614.905
643.0499, 5613.886
643.5320, 5600.030
644.0141, 5587.195
644.4962, 5588.606
644.9783, 5603.396
645.4604, 5621.753
645.9426, 5641.019
646.4247, 5655.638
646.9068, 5651.099
647.3889, 5631.280
647.8710, 5623.897
648.3531, 5636.746
648.8353, 5656.925
649.3174, 5675.648
649.7995, 5692.043
650.2816, 5693.115
650.7637, 5659.182
651.2458, 5636.739
651.7280, 5643.914
652.2101, 5655.002
652.6922, 5649.030
653.1743, 5627.081
653.6564, 5602.691
654.1385, 5581.809
654.6207, 5564.890
655.1028, 5556.202
655.5849, 5552.906
656.0670, 5539.670
656.5491, 5512.529
657.0313, 5484.396
657.5134, 5467.128
657.9955, 5458.535
658.4776, 5442.242
658.9597, 5404.456
659.4418, 5378.280
659.9240, 5372.759
660.4061, 5372.951
660.8882, 5369.853
661.3703, 5363.453
661.8524, 5357.357
662.3345, 5354.327
662.8167, 5349.662
663.2988, 5335.897
663.7809, 5316.565
664.2630, 5302.136
664.7451, 5294.333
665.2272, 5287.657
665.7094, 5277.840
666.1915, 5266.245
666.6736, 5258.516
667.1557, 5257.123
667.6378, 5255.042
668.1199, 5259.895
668.6021, 5256.342
669.0842, 5226.564
669.5663, 5183.706
670.0484, 5156.734
670.5305, 5158.727
671.0126, 5167.030
671.4948, 5163.777
671.9769, 5155.042
672.4590, 5153.733
672.9411, 5159.635
673.4232, 5158.289
673.9053, 5139.382
674.3875, 5114.481
674.8696, 5114.181
675.3517, 5154.221
675.8338, 5170.940
676.3159, 5143.979
676.7980, 5117.018
677.2802, 5114.107
677.7623, 5121.369
678.2444, 5115.776
678.7265, 5090.626
679.2086, 5066.952
679.6907, 5056.862
680.1729, 5052.191
680.6550, 5043.275
681.1371, 5031.630
681.6192, 5024.619
682.1013, 5025.507
682.5834, 5030.240
683.0656, 5032.297
683.5477, 5031.224
684.0298, 5036.169
684.5119, 5054.486
684.9940, 5061.312
685.4761, 5031.401
685.9583, 4993.635
686.4404, 4991.223
686.9225, 5029.106
687.4046, 5054.592
687.8867, 5050.067
688.3688, 5035.434
688.8510, 5016.550
689.3331, 4998.328
689.8152, 4989.483
690.2973, 4991.167
690.7794, 4992.918
691.2615, 4983.244
691.7437, 4965.776
692.2258, 4954.422
692.7079, 4949.497
693.1900, 4947.853
693.6721, 4950.183
694.1542, 4952.453
694.6364, 4949.315
695.1185, 4940.661
695.6006, 4936.498
696.0827, 4939.274
696.5648, 4943.330
697.0469, 4951.205
697.5291, 4956.979
698.0112, 4952.378
698.4933, 4939.596
698.9754, 4931.239
699.4575, 4938.752
699.9396, 4946.562
700.4218, 4927.144
700.9039, 4888.939
701.3860, 4866.825
701.8681, 4867.379
702.3502, 4871.447
702.8323, 4864.314
703.3145, 4849.648
703.7966, 4842.764
704.2787, 4850.693
704.7608, 4852.873
705.2429, 4840.753
705.7250, 4830.679
706.2072, 4832.986
706.6893, 4842.427
707.1714, 4849.277
707.6535, 4851.724
708.1356, 4848.664
708.6177, 4834.855
709.0999, 4818.003
709.5820, 4808.158
710.0641, 4804.460
710.5462, 4801.027
711.0283, 4795.150
711.5104, 4787.799
711.9926, 4779.018
712.4747, 4768.370
712.9568, 4766.707
713.4389, 4777.896
713.9210, 4788.443
714.4031, 4795.788
714.8853, 4797.531
715.3674, 4788.038
715.8495, 4766.279
716.3316, 4750.065
716.8137, 4747.761
717.2958, 4745.009
717.7780, 4729.971
718.2601, 4713.147
718.7422, 4710.615
719.2243, 4723.088
719.7064, 4735.098
720.1885, 4734.494
720.6707, 4726.470
721.1528, 4720.651
721.6349, 4716.824
722.1170, 4713.762
722.5991, 4711.595
723.0812, 4707.442
723.5634, 4698.562
724.0455, 4685.619
724.5276, 4672.174
725.0097, 4646.835
725.4918, 4640.406
725.9739, 4677.527
726.4561, 4710.318
726.9382, 4707.790
727.4203, 4681.356
727.9024, 4656.245
728.3845, 4637.983
728.8666, 4628.189
729.3488, 4634.115
729.8309, 4645.132
730.3130, 4647.105
730.7951, 4641.216
731.2772, 4636.292
731.7593, 4636.314
732.2415, 4638.134
732.7236, 4638.600
733.2057, 4637.679
733.6878, 4625.434
734.1699, 4594.936
734.6520, 4577.759
735.1342, 4594.844
735.6163, 4621.537
736.0984, 4622.446
736.5805, 4596.093
737.0626, 4576.409
737.5447, 4567.043
738.0269, 4562.379
738.5090, 4561.787
738.9911, 4564.210
739.4732, 4569.458
739.9553, 4576.894
740.4374, 4584.933
740.9196, 4593.650
741.4017, 4600.732
741.8838, 4604.297
742.3659, 4603.780
742.8480, 4595.593
743.3301, 4579.558
743.8123, 4563.571
744.2944, 4552.542
744.7765, 4546.537
745.2586, 4547.145
745.7407, 4559.478
746.2228, 4561.437
746.7050, 4544.150
747.1871, 4527.894
747.6692, 4522.883
748.1513, 4524.410
748.6334, 4526.966
749.1155, 4530.753
749.5977, 4531.631
750.0798, 4524.408
750.5619, 4517.934
751.0440, 4521.258
751.5261, 4528.080
752.0082, 4527.542
752.4904, 4517.528
752.9725, 4504.403
753.4546, 4490.501
753.9367, 4479.826
754.4188, 4484.003
754.9009, 4501.416
755.3831, 4517.934
755.8652, 4530.775
756.3473, 4537.404
756.8294, 4534.135
757.3115, 4523.384
757.7936, 4518.494
758.2758, 4522.398
758.7579, 4526.310
759.2400, 4535.815
759.7221, 4538.761
760.2042, 4520.994
760.6863, 4494.583
761.1685, 4484.110
761.6506, 4498.047
762.1327, 4510.542
762.6148, 4506.218
763.0969, 4499.601
763.5790, 4505.777
764.0612, 4519.346
764.5433, 4528.646
765.0254, 4529.598
765.5075, 4522.759
765.9896, 4502.333
766.4717, 4476.850
766.9539, 4478.949
767.4360, 4507.591
767.9181, 4526.705
768.4002, 4526.262
768.8823, 4513.533
769.3644, 4491.479
769.8466, 4463.137
770.3287, 4455.225
770.8108, 4483.961
771.2929, 4504.960
771.7750, 4517.660
772.2571, 4518.978
772.7393, 4500.748
773.2214, 4471.034
773.7035, 4445.940
774.1856, 4428.258
774.6677, 4416.754
775.1498, 4417.121
775.6320, 4417.995
776.1141, 4408.020
776.5962, 4390.511
777.0783, 4371.957
777.5604, 4355.060
778.0425, 4344.037
778.5247, 4347.348
779.0068, 4358.331
779.4889, 4354.807
779.9710, 4337.895
780.4531, 4327.518
780.9352, 4330.010
781.4174, 4334.427
781.8995, 4330.721
782.3816, 4320.012
782.8637, 4308.785
783.3458, 4294.747
783.8279, 4285.088
784.3101, 4281.738
784.7922, 4281.721
785.2743, 4283.955
785.7564, 4288.275
786.2385, 4296.918
786.7206, 4314.787
787.2028, 4318.393
787.6849, 4281.629
788.1670, 4245.265
788.6491, 4247.500
789.1312, 4268.079
789.6133, 4267.056
790.0955, 4236.416
790.5776, 4205.406
791.0597, 4200.365
791.5418, 4209.578
792.0239, 4213.056
792.5060, 4211.454
792.9882, 4207.238
793.4703, 4200.949
793.9524, 4193.968
794.4345, 4187.586
794.9166, 4181.008
795.3987, 4169.879
795.8809, 4150.101
796.3630, 4141.803
796.8451, 4150.721
797.3272, 4163.875
797.8093, 4179.023
798.2914, 4192.222
798.7736, 4196.616
799.2557, 4191.313
799.7378, 4181.864
800.2199, 4161.580
800.7020, 4145.778
801.1841, 4145.441
801.6663, 4150.572
802.1484, 4149.396
802.6305, 4141.104
803.1126, 4132.618
803.5947, 4126.662
804.0768, 4123.670
804.5590, 4127.710
805.0411, 4133.699
805.5232, 4129.617
806.0053, 4116.125
806.4874, 4106.376
806.9695, 4108.213
807.4517, 4113.240
807.9338, 4103.998
808.4159, 4081.392
808.8980, 4070.887
809.3801, 4073.730
809.8622, 4087.167
810.3444, 4117.040
810.8265, 4142.906
811.3086, 4133.388
811.7907, 4086.207
812.2728, 4069.192
812.7549, 4115.188
813.2371, 4144.496
813.7192, 4140.588
814.2013, 4123.263
814.6834, 4097.193
815.1655, 4069.078
815.6476, 4054.884
816.1298, 4060.656
816.6119, 4073.779
817.0940, 4097.586
817.5761, 4119.001
818.0582, 4124.735
818.5403, 4119.934
819.0225, 4114.786
819.5046, 4112.748
819.9867, 4114.167
820.4688, 4122.633
820.9509, 4132.681
821.4330, 4133.822
821.9152, 4127.571
822.3973, 4116.240
822.8794, 4101.067
823.3615, 4094.924
823.8436, 4108.104
824.3257, 4136.976
824.8079, 4175.315
825.2900, 4226.446
825.7721, 4260.352
826.2542, 4268.993
826.7363, 4276.019
827.2184, 4292.343
827.7006, 4314.411
828.1827, 4336.730
828.6648, 4359.129
829.1469, 4382.468
829.6290, 4410.044
830.1111, 4434.249
830.5933, 4451.273
831.0754, 4465.811
831.5575, 4484.185
832.0396, 4504.208
832.5217, 4516.445
833.0038, 4519.238
833.4860, 4511.133
833.9681, 4492.607
834.4502, 4461.783
834.9323, 4410.391
835.4144, 4346.291
835.8965, 4286.472
836.3787, 4237.119
836.8608, 4193.893
837.3429, 4154.437
837.8250, 4117.739
838.3071, 4080.670
838.7892, 4044.292
839.2714, 4012.094
839.7535, 3984.958
840.2356, 3968.904
840.7177, 3970.944
841.1998, 3982.484
841.6819, 3977.545
842.1641, 3954.409
842.6462, 3930.010
843.1283, 3903.438
843.6104, 3882.923
844.0925, 3873.457
844.5746, 3871.047
845.0568, 3869.635
845.5389, 3869.354
846.0210, 3868.797
846.5031, 3868.490
846.9852, 3867.033
847.4673, 3861.067
847.9495, 3856.400
848.4316, 3860.901
848.9137, 3870.886
849.3958, 3872.330
849.8779, 3856.880
850.3600, 3844.338
850.8422, 3847.744
851.3243, 3851.271
851.8064, 3840.081
852.2885, 3820.966
852.7706, 3807.182
853.2527, 3802.200
853.7349, 3799.948
854.2170, 3793.818
854.6991, 3789.831
855.1812, 3803.345
855.6633, 3822.661
856.1454, 3817.350
856.6276, 3786.351
857.1097, 3756.144
857.5918, 3743.095
858.0739, 3743.027
858.5560, 3754.349
859.0381, 3774.053
859.5203, 3776.381
860.0024, 3759.486
860.4845, 3744.851
860.9666, 3741.086
861.4487, 3741.681
861.9308, 3739.212
862.4130, 3733.804
862.8951, 3725.861
863.3772, 3710.837
863.8593, 3707.807
864.3414, 3730.526
864.8235, 3748.948
865.3057, 3739.495
865.7878, 3712.613
866.2699, 3695.779
866.7520, 3693.722
867.2341, 3687.177
867.7162, 3661.004
868.1984, 3647.859
868.6805, 3671.729
869.1626, 3705.370
869.6447, 3721.312
870.1268, 3718.929
870.6089, 3712.485
871.0911, 3707.006
871.5732, 3697.646
872.0553, 3674.432
872.5374, 3652.640
873.0195, 3649.725
873.5016, 3659.409
873.9838, 3665.183
874.4659, 3661.630
874.9480, 3657.173
875.4301, 3660.396
875.9122, 3665.278
876.3943, 3662.268
876.8765, 3654.721
877.3586, 3653.019
877.8407, 3657.453
878.3228, 3654.993
878.8049, 3635.271
879.2870, 3612.043
879.7692, 3614.189
880.2513, 3635.682
880.7334, 3641.602
881.2155, 3630.239
881.6976, 3619.050
882.1797, 3614.813
882.6619, 3613.568
883.1440, 3610.742
883.6261, 3606.709
884.1082, 3604.744
884.5903, 3605.832
885.0724, 3603.538
885.5546, 3593.356
886.0367, 3588.830
886.5188, 3602.312
887.0009, 3624.017
887.4830, 3632.380
887.9651, 3624.989
888.4473, 3613.462
888.9294, 3592.986
889.4115, 3574.979
889.8936, 3558.120
890.3757, 3548.068
890.8578, 3555.365
891.3400, 3574.881
891.8221, 3582.182
892.3042, 3565.952
892.7863, 3552.242
893.2684, 3548.545
893.7505, 3546.704
894.2327, 3543.250
894.7148, 3537.702
895.1969, 3527.645
895.6790, 3513.446
896.1611, 3505.591
896.6432, 3515.282
897.1254, 3525.737
897.6075, 3527.361
898.0896, 3522.854
898.5717, 3513.097
899.0538, 3500.434
899.5359, 3488.409
900.0181, 3478.111
900.5002, 3475.026
900.9823, 3488.994
901.4644, 3509.990
901.9465, 3526.644
902.4286, 3537.378
902.9108, 3538.092
903.3929, 3528.730
903.8750, 3513.626
904.3571, 3494.058
904.8392, 3477.336
905.3214, 3482.171
905.8035, 3501.265
906.2856, 3498.796
906.7677, 3474.500
907.2498, 3457.516
907.7319, 3459.197
908.2141, 3471.642
908.6962, 3488.558
909.1783, 3506.542
909.6604, 3506.747
910.1425, 3487.742
910.6246, 3468.715
911.1068, 3451.357
911.5889, 3439.287
912.0710, 3435.281
912.5531, 3436.619
913.0352, 3438.872
913.5173, 3442.355
913.9995, 3443.620
914.4816, 3443.703
914.9637, 3438.489
915.4458, 3423.497
915.9279, 3407.954
916.4100, 3398.697
916.8922, 3395.000
917.3743, 3394.119
917.8564, 3395.026
918.3385, 3401.049
918.8206, 3423.424
919.3027, 3437.058
919.7849, 3427.673
920.2670, 3410.454
920.7491, 3401.907
921.2312, 3401.136
921.7133, 3395.121
922.1954, 3374.513
922.6776, 3359.531
923.1597, 3357.695
923.6418, 3358.892
924.1239, 3355.011
924.6060, 3350.851
925.0881, 3356.910
925.5703, 3374.438
926.0524, 3385.703
926.5345, 3377.340
927.0166, 3369.052
927.4987, 3374.860
927.9808, 3382.544
928.4630, 3378.292
928.9451, 3365.369
929.4272, 3354.519
929.9093, 3349.301
930.3914, 3346.769
930.8735, 3346.417
931.3557, 3346.500
931.8378, 3343.615
932.3199, 3340.920
932.8020, 3347.380
933.2841, 3360.139
933.7662, 3362.139
934.2484, 3342.404
934.7305, 3320.651
935.2126, 3319.567
935.6947, 3328.122
936.1768, 3329.501
936.6589, 3325.079
937.1411, 3321.470
937.6232, 3320.133
938.1053, 3316.855
938.5874, 3306.787
939.0695, 3297.912
939.5516, 3304.460
940.0338, 3322.494
940.5159, 3347.652
940.9980, 3374.900
941.4801, 3375.138
941.9622, 3338.376
942.4443, 3298.662
942.9265, 3292.904
943.4086, 3308.746
943.8907, 3311.787
944.3728, 3303.462
944.8549, 3294.264
945.3370, 3285.652
945.8192, 3287.078
946.3013, 3304.629
946.7834, 3323.016
947.2655, 3318.668
947.7476, 3295.433
948.2297, 3282.304
948.7119, 3279.852
949.1940, 3276.614
949.6761, 3270.042
950.1582, 3266.568
950.6403, 3271.695
951.1224, 3278.506
951.6046, 3271.938
952.0867, 3251.033
952.5688, 3237.791
953.0509, 3232.827
953.5330, 3233.605
954.0151, 3241.252
954.4973, 3249.892
954.9794, 3255.465
955.4615, 3258.020
955.9436, 3256.969
956.4257, 3250.244
956.9078, 3249.316
957.3900, 3258.965
957.8721, 3262.057
958.3542, 3248.810
958.8363, 3234.124
959.3184, 3231.341
959.8005, 3239.027
960.2827, 3250.847
960.7648, 3271.937
961.2469, 3285.886
961.7290, 3292.581
962.2111, 3291.877
962.6932, 3277.093
963.1754, 3261.128
963.6575, 3260.658
964.1396, 3273.745
964.6217, 3278.270
965.1038, 3265.413
965.5859, 3258.463
966.0681, 3265.125
966.5502, 3269.533
967.0323, 3263.841
967.5144, 3253.235
967.9965, 3243.368
968.4786, 3234.313
968.9608, 3226.318
969.4429, 3209.577
969.9250, 3208.482
970.4071, 3244.612
970.8892, 3276.749
971.3713, 3282.082
971.8535, 3270.161
972.3356, 3251.435
972.8177, 3226.083
973.2998, 3214.698
973.7819, 3231.891
974.2640, 3246.684
974.7462, 3254.786
975.2283, 3255.758
975.7104, 3245.141
976.1925, 3228.896
976.6746, 3215.961
977.1567, 3207.244
977.6389, 3205.233
978.1210, 3216.968
978.6031, 3226.846
979.0852, 3228.111
979.5673, 3227.138
980.0494, 3227.793
980.5316, 3230.398
981.0137, 3236.590
981.4958, 3247.954
981.9779, 3250.879
982.4600, 3228.924
982.9421, 3213.854
983.4243, 3227.032
983.9064, 3245.915
984.3885, 3251.978
984.8706, 3246.781
985.3527, 3236.635
985.8348, 3221.314
986.3170, 3212.091
986.7991, 3217.460
987.2812, 3224.271
987.7633, 3222.401
988.2454, 3221.634
988.7275, 3235.253
989.2097, 3258.043
989.6918, 3275.231
990.1739, 3283.969
990.6560, 3281.161
991.1381, 3249.246
991.6202, 3224.614
992.1024, 3237.406
992.5845, 3260.882
993.0666, 3264.896
993.5487, 3253.005
994.0308, 3246.156
994.5129, 3250.990
994.9951, 3258.137
995.4772, 3265.101
995.9593, 3271.345
996.4414, 3275.816
996.9235, 3279.986
997.4056, 3285.284
997.8878, 3291.856
998.3699, 3299.319
998.8520, 3307.323
999.3341, 3317.274
999.8162, 3334.651
1000.298, 3348.783
1000.780, 3352.836
1001.263, 3349.827
1001.745, 3342.077
1002.227, 3330.886
1002.709, 3316.601
1003.191, 3295.483
1003.673, 3287.221
1004.155, 3313.789
1004.637, 3342.067
1005.120, 3351.944
1005.602, 3350.389
1006.084, 3346.001
1006.566, 3339.324
1007.048, 3324.841
1007.530, 3295.010
1008.012, 3279.668
1008.494, 3313.499
1008.976, 3342.276
1009.459, 3322.625
1009.941, 3284.677
1010.423, 3260.636
1010.905, 3253.318
1011.387, 3257.815
1011.869, 3278.861
1012.351, 3287.724
1012.833, 3258.799
1013.315, 3229.425
1013.798, 3222.105
1014.280, 3226.639
1014.762, 3236.143
1015.244, 3245.578
1015.726, 3242.879
1016.208, 3220.891
1016.690, 3201.260
1017.172, 3193.409
1017.655, 3188.764
1018.137, 3187.555
1018.619, 3183.360
1019.101, 3166.017
1019.583, 3139.773
1020.065, 3120.459
1020.547, 3113.405
1021.029, 3106.917
1021.511, 3095.838
1021.994, 3086.081
1022.476, 3081.685
1022.958, 3079.093
1023.440, 3072.473
1023.922, 3064.718
1024.404, 3068.816
1024.886, 3095.429
1025.368, 3099.604
1025.851, 3038.001
1026.333, 2991.707
1026.815, 3014.370
1027.297, 3049.114
1027.779, 3039.914
1028.261, 3000.864
1028.743, 2979.398
1029.225, 2985.789
1029.708, 2993.531
1030.190, 3003.523
1030.672, 3006.782
1031.154, 2993.052
1031.636, 2978.205
1032.118, 2978.257
1032.600, 2986.128
1033.082, 2982.270
1033.564, 2961.154
1034.047, 2947.733
1034.529, 2950.285
1035.011, 2952.367
1035.493, 2944.865
1035.975, 2940.936
1036.457, 2957.819
1036.939, 2982.084
1037.421, 2983.934
1037.903, 2958.167
1038.386, 2936.595
1038.868, 2915.303
1039.350, 2904.657
1039.832, 2913.608
1040.314, 2924.790
1040.796, 2930.856
1041.278, 2931.242
1041.760, 2922.105
1042.243, 2901.650
1042.725, 2896.758
1043.207, 2922.971
1043.689, 2930.989
1044.171, 2900.170
1044.653, 2876.438
1045.135, 2889.612
1045.617, 2915.777
1046.099, 2919.668
1046.582, 2902.120
1047.064, 2888.581
1047.546, 2878.523
1048.028, 2874.540
1048.510, 2878.214
1048.992, 2884.785
1049.474, 2893.723
1049.956, 2900.980
1050.438, 2900.748
1050.921, 2894.694
1051.403, 2894.479
1051.885, 2902.031
1052.367, 2900.537
1052.849, 2885.902
1053.331, 2880.418
1053.813, 2894.429
1054.295, 2911.673
1054.778, 2916.039
1055.260, 2910.328
1055.742, 2900.479
1056.224, 2886.545
1056.706, 2890.948
1057.188, 2915.105
1057.670, 2925.665
1058.152, 2912.084
1058.635, 2891.188
1059.117, 2875.363
1059.599, 2866.260
1060.081, 2870.599
1060.563, 2885.099
1061.045, 2889.704
1061.527, 2886.307
1062.009, 2894.806
1062.491, 2918.573
1062.974, 2941.308
1063.456, 2952.926
1063.938, 2956.872
1064.420, 2956.707
1064.902, 2953.382
1065.384, 2947.716
1065.866, 2941.079
1066.348, 2936.665
1066.830, 2935.438
1067.313, 2939.404
1067.795, 2949.561
1068.277, 2960.818
1068.759, 2968.914
1069.241, 2974.423
1069.723, 2976.907
1070.205, 2978.049
1070.687, 2981.570
1071.170, 2986.396
1071.652, 2987.051
1072.134, 2982.213
1072.616, 2980.423
1073.098, 2992.421
1073.580, 3003.542
1074.062, 3002.301
1074.544, 2993.609
1075.026, 2973.754
1075.509, 2954.198
1075.991, 2958.793
1076.473, 2988.875
1076.955, 3014.851
1077.437, 3024.054
1077.919, 3027.284
1078.401, 3026.847
1078.883, 3024.976
1079.365, 3023.967
1079.848, 3021.937
1080.330, 3014.609
1080.812, 3003.409
1081.294, 2996.819
1081.776, 2997.744
1082.258, 3000.221
1082.740, 3005.295
1083.222, 3008.998
1083.704, 3012.429
1084.187, 3011.626
1084.669, 2999.650
1085.151, 2980.969
1085.633, 2969.255
1086.115, 2966.022
1086.597, 2964.239
1087.079, 2966.896
1087.561, 2964.652
1088.044, 2948.622
1088.526, 2939.929
1089.008, 2957.162
1089.490, 2982.773
1089.972, 2985.405
1090.454, 2965.464
1090.936, 2954.161
1091.418, 2953.134
1091.901, 2952.006
1092.383, 2948.437
1092.865, 2952.068
1093.347, 2969.140
1093.829, 2985.388
1094.311, 2982.250
1094.793, 2968.075
1095.275, 2978.416
1095.757, 3009.411
1096.240, 3005.977
1096.722, 2968.123
1097.204, 2951.327
1097.686, 2971.378
1098.168, 2998.229
1098.650, 3009.727
1099.132, 3013.143
1099.614, 3015.523
1100.096, 3020.874
1100.579, 3042.465
1101.061, 3074.735
1101.543, 3101.762
1102.025, 3120.985
1102.507, 3136.996
1102.989, 3151.981
1103.471, 3165.774
1103.953, 3176.375
1104.436, 3187.723
1104.918, 3201.679
1105.400, 3220.678
1105.882, 3249.359
1106.364, 3285.427
1106.846, 3324.834
1107.328, 3365.815
1107.810, 3401.025
1108.292, 3417.161
1108.775, 3440.890
1109.257, 3491.296
1109.739, 3546.061
1110.221, 3589.961
1110.703, 3628.715
1111.185, 3668.955
1111.667, 3712.183
1112.149, 3762.492
1112.631, 3819.641
1113.114, 3886.270
1113.596, 3971.621
1114.078, 4054.475
1114.560, 4120.479
1115.042, 4192.059
1115.524, 4290.405
1116.006, 4403.640
1116.488, 4501.446
1116.971, 4580.411
1117.453, 4678.476
1117.935, 4804.475
1118.417, 4913.988
1118.899, 4996.290
1119.381, 5077.664
1119.863, 5171.955
1120.345, 5270.802
1120.828, 5363.780
1121.310, 5452.635
1121.792, 5550.729
1122.274, 5655.302
1122.756, 5730.189
1123.238, 5775.401
1123.720, 5817.138
1124.202, 5862.807
1124.684, 5892.678
1125.167, 5890.646
1125.649, 5874.997
1126.131, 5881.453
1126.613, 5885.340
1127.095, 5839.157
1127.577, 5756.205
1128.059, 5662.101
1128.541, 5563.084
1129.023, 5464.408
1129.506, 5368.247
1129.988, 5258.009
1130.470, 5098.820
1130.952, 4950.799
1131.434, 4872.189
1131.916, 4807.617
1132.398, 4702.696
1132.880, 4575.582
1133.363, 4462.740
1133.845, 4368.035
1134.327, 4275.097
1134.809, 4176.685
1135.291, 4085.521
1135.773, 4005.377
1136.255, 3929.804
1136.737, 3853.572
1137.219, 3783.774
1137.702, 3728.120
1138.184, 3682.663
1138.666, 3637.802
1139.148, 3593.803
1139.630, 3548.587
1140.112, 3501.858
1140.594, 3454.730
1141.076, 3406.483
1141.558, 3363.832
1142.041, 3330.141
1142.523, 3304.107
1143.005, 3284.250
1143.487, 3269.818
1143.969, 3262.585
1144.451, 3258.734
1144.933, 3233.224
1145.415, 3189.581
1145.898, 3156.423
1146.380, 3140.562
1146.862, 3130.514
1147.344, 3119.300
1147.826, 3108.382
1148.308, 3100.417
1148.790, 3092.687
1149.272, 3083.048
1149.755, 3070.577
1150.237, 3052.664
1150.719, 3031.232
1151.201, 3010.891
1151.683, 2992.910
1152.165, 2976.611
1152.647, 2963.475
1153.129, 2949.472
1153.611, 2933.745
1154.094, 2916.000
1154.576, 2890.274
1155.058, 2866.453
1155.540, 2858.439
1156.022, 2863.623
1156.504, 2866.823
1156.986, 2874.150
1157.468, 2856.500
1157.950, 2795.019
1158.433, 2759.729
1158.915, 2772.457
1159.397, 2793.034
1159.879, 2799.092
1160.361, 2794.472
1160.843, 2784.643
1161.325, 2769.343
1161.807, 2741.559
1162.290, 2705.120
1162.772, 2696.622
1163.254, 2714.169
1163.736, 2722.624
1164.218, 2712.151
1164.700, 2696.319
1165.182, 2682.896
1165.664, 2676.074
1166.146, 2689.563
1166.629, 2704.599
1167.111, 2693.639
1167.593, 2670.573
1168.075, 2654.193
1168.557, 2646.344
1169.039, 2645.162
1169.521, 2649.975
1170.003, 2650.641
1170.485, 2636.479
1170.968, 2627.529
1171.450, 2637.047
1171.932, 2645.164
1172.414, 2640.653
1172.896, 2629.436
1173.378, 2617.614
1173.860, 2605.024
1174.342, 2590.304
1174.825, 2571.747
1175.307, 2560.532
1175.789, 2559.279
1176.271, 2553.492
1176.753, 2538.893
1177.235, 2530.856
1177.717, 2538.632
1178.199, 2547.549
1178.682, 2538.923
1179.164, 2520.217
1179.646, 2511.350
1180.128, 2508.826
1180.610, 2501.617
1181.092, 2490.376
1181.574, 2479.496
1182.056, 2470.038
1182.538, 2461.442
1183.021, 2453.387
1183.503, 2445.954
1183.985, 2438.390
1184.467, 2432.398
1184.949, 2431.673
1185.431, 2430.953
1185.913, 2423.198
1186.395, 2412.739
1186.877, 2407.342
1187.360, 2407.713
1187.842, 2410.182
1188.324, 2420.385
1188.806, 2421.329
1189.288, 2409.974
1189.770, 2393.727
1190.252, 2369.696
1190.734, 2352.425
1191.217, 2354.914
1191.699, 2364.228
1192.181, 2355.763
1192.663, 2333.658
1193.145, 2328.482
1193.627, 2337.531
1194.109, 2332.577
1194.591, 2313.211
1195.073, 2295.855
1195.556, 2286.288
1196.038, 2287.701
1196.520, 2304.923
1197.002, 2319.975
1197.484, 2306.744
1197.966, 2288.730
1198.448, 2297.082
1198.930, 2311.542
1199.412, 2300.654
1199.895, 2274.336
1200.377, 2261.766
1200.859, 2267.718
1201.341, 2272.344
1201.823, 2268.689
1202.305, 2267.033
1202.787, 2273.160
1203.269, 2275.091
1203.752, 2268.180
1204.234, 2257.197
1204.716, 2244.613
1205.198, 2232.178
1205.680, 2223.211
1206.162, 2217.751
1206.644, 2217.106
1207.126, 2220.950
1207.609, 2221.649
1208.091, 2218.717
1208.573, 2216.502
1209.055, 2216.280
1209.537, 2213.648
1210.019, 2203.720
1210.501, 2198.337
1210.983, 2221.395
1211.465, 2245.671
1211.948, 2235.822
1212.430, 2211.824
1212.912, 2199.380
1213.394, 2197.073
1213.876, 2194.451
1214.358, 2189.639
1214.840, 2186.509
1215.322, 2185.419
1215.804, 2186.921
1216.287, 2191.723
1216.769, 2198.455
1217.251, 2209.389
1217.733, 2217.514
1218.215, 2217.914
1218.697, 2211.104
1219.179, 2194.256
1219.661, 2171.588
1220.144, 2180.559
1220.626, 2215.734
1221.108, 2229.941
1221.590, 2221.188
1222.072, 2203.775
1222.554, 2183.927
1223.036, 2172.025
1223.518, 2175.554
1224.000, 2181.902
1224.483, 2179.929
1224.965, 2175.267
1225.447, 2165.589
1225.929, 2162.226
1226.411, 2180.740
1226.893, 2212.534
1227.375, 2247.274
1227.857, 2281.519
1228.339, 2288.024
1228.822, 2244.723
1229.304, 2217.181
1229.786, 2210.259
1230.268, 2207.411
1230.750, 2205.982
1231.232, 2203.777
1231.714, 2199.223
1232.196, 2194.595
1232.679, 2193.431
1233.161, 2193.803
1233.643, 2188.612
1234.125, 2180.930
1234.607, 2181.974
1235.089, 2188.405
1235.571, 2186.900
1236.053, 2177.910
1236.536, 2176.005
1237.018, 2187.638
1237.500, 2197.487
1237.982, 2193.624
1238.464, 2190.602
1238.946, 2198.531
1239.428, 2205.458
1239.910, 2200.816
1240.392, 2193.380
1240.875, 2195.047
1241.357, 2201.798
1241.839, 2200.417
1242.321, 2189.926
1242.803, 2182.120
1243.285, 2176.966
1243.767, 2176.824
1244.249, 2181.771
1244.731, 2177.992
1245.214, 2160.787
1245.696, 2151.864
1246.178, 2171.303
1246.660, 2194.968
1247.142, 2194.715
1247.624, 2180.260
1248.106, 2152.544
1248.588, 2126.054
1249.071, 2121.043
1249.553, 2131.701
1250.035, 2144.309
1250.517, 2156.087
1250.999, 2159.560
1251.481, 2141.061
1251.963, 2138.396
1252.445, 2165.875
1252.927, 2178.060
1253.410, 2158.296
1253.892, 2139.228
1254.374, 2142.130
##END=



