##NAMES=Millerite
##RRUFFID=R070323
##IDEAL CHEMISTRY=NiS
##LOCALITY=Keokuk area, Lee County, Iowa, USA
##OWNER=RRUFF
##SOURCE=James Shigley
##DESCRIPTION=Bronze colored metallic fibers associated with chalcopyrite and quartz
##STATUS=The identification of this mineral is confirmed by single-crystal X-ray diffraction and chemical analysis.
##URL=rruff.info/R070323
##MEASURED CHEMISTRY=(Ni_0.97_Fe_0.02_Co_0.01_)_Î£=1_S_1.00_
155.9293, 1095.494
156.4115, 1093.717
156.8936, 1095.898
157.3757, 1101.202
157.8578, 1106.726
158.3399, 1112.618
158.8221, 1117.888
159.3042, 1121.945
159.7863, 1123.569
160.2684, 1125.009
160.7505, 1127.338
161.2326, 1130.374
161.7148, 1132.534
162.1969, 1133.470
162.6790, 1133.089
163.1611, 1131.310
163.6432, 1110.227
164.1253, 1135.314
164.6075, 1150.313
165.0896, 1155.768
165.5717, 1123.090
166.0538, 1139.652
166.5359, 1136.481
167.0180, 1132.501
167.5002, 1155.994
167.9823, 1128.862
168.4644, 1152.142
168.9465, 1146.635
169.4286, 1143.591
169.9107, 1157.620
170.3929, 1180.788
170.8750, 1196.734
171.3571, 1190.387
171.8392, 1175.305
172.3213, 1165.895
172.8034, 1164.772
173.2856, 1166.939
173.7677, 1168.763
174.2498, 1170.310
174.7319, 1171.772
175.2140, 1171.798
175.6961, 1172.137
176.1783, 1176.902
176.6604, 1190.084
177.1425, 1201.952
177.6246, 1195.000
178.1067, 1172.472
178.5888, 1155.010
179.0710, 1164.984
179.5531, 1191.182
180.0352, 1208.321
180.5173, 1207.456
180.9994, 1197.541
181.4815, 1191.477
181.9637, 1189.194
182.4458, 1190.145
182.9279, 1196.844
183.4100, 1207.197
183.8921, 1212.793
184.3742, 1206.579
184.8564, 1196.118
185.3385, 1203.478
185.8206, 1230.262
186.3027, 1256.139
186.7848, 1256.659
187.2669, 1235.114
187.7491, 1216.696
188.2312, 1210.315
188.7133, 1213.882
189.1954, 1222.044
189.6775, 1236.121
190.1596, 1248.603
190.6418, 1245.917
191.1239, 1228.615
191.6060, 1218.358
192.0881, 1228.810
192.5702, 1256.897
193.0524, 1275.547
193.5345, 1283.828
194.0166, 1285.063
194.4987, 1282.177
194.9808, 1274.816
195.4629, 1268.667
195.9451, 1267.509
196.4272, 1271.188
196.9093, 1271.823
197.3914, 1267.893
197.8735, 1262.924
198.3556, 1265.317
198.8378, 1276.579
199.3199, 1285.609
199.8020, 1284.330
200.2841, 1271.754
200.7662, 1263.708
201.2483, 1261.117
201.7305, 1263.524
202.2126, 1271.568
202.6947, 1287.171
203.1768, 1301.248
203.6589, 1308.182
204.1410, 1307.263
204.6232, 1303.413
205.1053, 1295.902
205.5874, 1286.236
206.0695, 1278.793
206.5516, 1272.920
207.0337, 1270.989
207.5159, 1276.540
207.9980, 1291.964
208.4801, 1303.021
208.9622, 1307.740
209.4443, 1306.765
209.9264, 1302.209
210.4086, 1291.957
210.8907, 1282.347
211.3728, 1278.938
211.8549, 1283.646
212.3370, 1288.185
212.8191, 1292.531
213.3013, 1296.094
213.7834, 1292.541
214.2655, 1277.016
214.7476, 1262.165
215.2297, 1260.574
215.7118, 1278.224
216.1940, 1292.252
216.6761, 1296.891
217.1582, 1292.809
217.6403, 1295.360
218.1224, 1308.203
218.6045, 1322.745
219.0867, 1329.932
219.5688, 1325.628
220.0509, 1323.794
220.5330, 1328.635
221.0151, 1340.459
221.4972, 1346.711
221.9794, 1344.262
222.4615, 1339.800
222.9436, 1340.830
223.4257, 1350.241
223.9078, 1359.317
224.3899, 1366.109
224.8721, 1370.604
225.3542, 1374.197
225.8363, 1377.097
226.3184, 1378.931
226.8005, 1379.162
227.2827, 1377.143
227.7648, 1374.713
228.2469, 1372.121
228.7290, 1369.250
229.2111, 1366.801
229.6932, 1362.911
230.1754, 1360.974
230.6575, 1366.354
231.1396, 1384.163
231.6217, 1400.130
232.1038, 1409.464
232.5859, 1410.266
233.0681, 1414.788
233.5502, 1424.481
234.0323, 1436.809
234.5144, 1448.279
234.9965, 1458.237
235.4786, 1468.309
235.9608, 1479.071
236.4429, 1490.553
236.9250, 1502.242
237.4071, 1515.764
237.8892, 1528.384
238.3713, 1534.683
238.8535, 1528.342
239.3356, 1526.290
239.8177, 1534.742
240.2998, 1556.747
240.7819, 1577.643
241.2640, 1596.866
241.7462, 1615.644
242.2283, 1636.680
242.7104, 1662.668
243.1925, 1686.535
243.6746, 1706.637
244.1567, 1724.114
244.6389, 1733.543
245.1210, 1732.146
245.6031, 1724.390
246.0852, 1718.967
246.5673, 1721.039
247.0494, 1716.553
247.5316, 1698.737
248.0137, 1661.841
248.4958, 1631.039
248.9779, 1608.268
249.4600, 1590.676
249.9421, 1573.159
250.4243, 1553.495
250.9064, 1537.672
251.3885, 1528.689
251.8706, 1529.099
252.3527, 1527.692
252.8348, 1523.563
253.3170, 1518.190
253.7991, 1514.883
254.2812, 1515.835
254.7633, 1514.696
255.2454, 1508.167
255.7275, 1493.893
256.2097, 1483.217
256.6918, 1476.865
257.1739, 1473.727
257.6560, 1471.792
258.1381, 1471.061
258.6202, 1471.566
259.1024, 1474.027
259.5845, 1479.686
260.0666, 1481.661
260.5487, 1478.112
261.0308, 1472.271
261.5129, 1470.233
261.9951, 1473.464
262.4772, 1477.025
262.9593, 1478.379
263.4414, 1476.326
263.9235, 1478.309
264.4056, 1486.124
264.8878, 1496.335
265.3699, 1502.627
265.8520, 1503.521
266.3341, 1504.888
266.8162, 1509.795
267.2983, 1519.268
267.7805, 1525.183
268.2626, 1526.555
268.7447, 1525.392
269.2268, 1524.927
269.7089, 1525.192
270.1910, 1526.032
270.6732, 1527.216
271.1553, 1528.626
271.6374, 1531.506
272.1195, 1535.803
272.6016, 1541.663
273.0837, 1549.988
273.5659, 1561.613
274.0480, 1571.615
274.5301, 1577.326
275.0122, 1578.495
275.4943, 1581.524
275.9764, 1586.120
276.4586, 1593.123
276.9407, 1606.207
277.4228, 1626.487
277.9049, 1641.805
278.3870, 1644.252
278.8691, 1634.686
279.3513, 1634.132
279.8334, 1644.721
280.3155, 1658.846
280.7976, 1665.223
281.2798, 1663.383
281.7619, 1663.523
282.2440, 1670.355
282.7261, 1682.915
283.2082, 1694.449
283.6903, 1705.246
284.1725, 1713.944
284.6546, 1719.058
285.1367, 1720.558
285.6188, 1718.488
286.1009, 1709.822
286.5830, 1697.297
287.0652, 1693.996
287.5473, 1700.991
288.0294, 1710.959
288.5115, 1714.354
288.9936, 1712.368
289.4757, 1714.829
289.9579, 1728.027
290.4400, 1747.294
290.9221, 1760.363
291.4042, 1767.065
291.8863, 1769.660
292.3684, 1766.416
292.8506, 1759.690
293.3327, 1760.115
293.8148, 1776.118
294.2969, 1798.406
294.7790, 1807.189
295.2611, 1802.460
295.7433, 1796.572
296.2254, 1801.243
296.7075, 1813.454
297.1896, 1824.668
297.6717, 1833.382
298.1538, 1839.278
298.6360, 1841.262
299.1181, 1839.508
299.6002, 1835.888
300.0823, 1830.719
300.5644, 1824.800
301.0465, 1819.879
301.5287, 1817.773
302.0108, 1815.147
302.4929, 1807.857
302.9750, 1796.384
303.4571, 1783.921
303.9392, 1774.746
304.4214, 1765.178
304.9035, 1748.744
305.3856, 1719.365
305.8677, 1690.681
306.3498, 1676.394
306.8319, 1673.684
307.3141, 1672.357
307.7962, 1667.471
308.2783, 1660.640
308.7604, 1653.510
309.2425, 1647.075
309.7246, 1639.221
310.2068, 1627.279
310.6889, 1612.662
311.1710, 1598.913
311.6531, 1587.734
312.1352, 1578.064
312.6173, 1568.752
313.0995, 1558.738
313.5816, 1551.961
314.0637, 1553.699
314.5458, 1559.740
315.0279, 1562.166
315.5100, 1554.930
315.9922, 1545.555
316.4743, 1536.398
316.9564, 1526.056
317.4385, 1522.942
317.9206, 1537.766
318.4027, 1559.684
318.8849, 1573.536
319.3670, 1571.242
319.8491, 1563.725
320.3312, 1552.026
320.8133, 1534.166
321.2954, 1524.949
321.7776, 1535.852
322.2597, 1553.402
322.7418, 1563.240
323.2239, 1550.297
323.7060, 1542.438
324.1881, 1549.462
324.6703, 1573.321
325.1524, 1590.327
325.6345, 1597.361
326.1166, 1597.526
326.5987, 1593.262
327.0808, 1575.635
327.5630, 1564.178
328.0451, 1563.533
328.5272, 1573.098
329.0093, 1579.971
329.4914, 1584.470
329.9735, 1585.869
330.4557, 1583.066
330.9378, 1571.068
331.4199, 1563.479
331.9020, 1561.089
332.3841, 1563.836
332.8662, 1572.453
333.3484, 1591.405
333.8305, 1609.328
334.3126, 1619.514
334.7947, 1618.964
335.2768, 1619.352
335.7589, 1620.440
336.2411, 1623.230
336.7232, 1632.211
337.2053, 1650.873
337.6874, 1665.315
338.1695, 1664.069
338.6516, 1643.241
339.1338, 1644.224
339.6159, 1675.129
340.0980, 1716.216
340.5801, 1730.494
341.0622, 1715.020
341.5443, 1701.258
342.0265, 1701.929
342.5086, 1715.908
342.9907, 1735.978
343.4728, 1764.353
343.9549, 1789.443
344.4370, 1790.355
344.9192, 1770.181
345.4013, 1758.974
345.8834, 1772.128
346.3655, 1800.557
346.8476, 1821.062
347.3297, 1833.496
347.8119, 1840.764
348.2940, 1843.320
348.7761, 1842.462
349.2582, 1842.171
349.7403, 1844.484
350.2225, 1846.957
350.7046, 1845.136
351.1867, 1839.578
351.6688, 1834.701
352.1509, 1836.448
352.6331, 1840.199
353.1152, 1839.060
353.5973, 1831.222
354.0794, 1818.663
354.5615, 1797.592
355.0436, 1772.057
355.5258, 1754.377
356.0079, 1758.036
356.4900, 1768.788
356.9721, 1773.888
357.4542, 1769.828
357.9363, 1765.378
358.4185, 1765.786
358.9006, 1769.093
359.3827, 1771.914
359.8648, 1768.514
360.3469, 1767.785
360.8290, 1777.433
361.3112, 1800.456
361.7933, 1816.458
362.2754, 1809.195
362.7575, 1795.354
363.2396, 1793.062
363.7217, 1817.689
364.2039, 1843.007
364.6860, 1864.355
365.1681, 1881.588
365.6502, 1891.355
366.1323, 1885.343
366.6144, 1876.661
367.0966, 1874.372
367.5787, 1886.525
368.0608, 1895.549
368.5429, 1898.680
369.0250, 1897.301
369.5071, 1898.634
369.9893, 1905.646
370.4714, 1911.911
370.9535, 1914.068
371.4356, 1909.863
371.9177, 1906.893
372.3998, 1906.797
372.8820, 1907.181
373.3641, 1902.807
373.8462, 1893.221
374.3283, 1880.112
374.8104, 1863.623
375.2925, 1843.302
375.7747, 1822.884
376.2568, 1801.708
376.7389, 1781.396
377.2210, 1765.128
377.7031, 1753.240
378.1852, 1740.272
378.6674, 1721.942
379.1495, 1701.292
379.6316, 1691.752
380.1137, 1694.105
380.5958, 1701.211
381.0779, 1710.477
381.5601, 1720.215
382.0422, 1720.741
382.5243, 1706.901
383.0064, 1686.761
383.4885, 1673.232
383.9706, 1665.616
384.4528, 1659.711
384.9349, 1652.801
385.4170, 1645.626
385.8991, 1638.789
386.3812, 1631.728
386.8633, 1626.933
387.3455, 1630.820
387.8276, 1638.941
388.3097, 1641.130
388.7918, 1621.269
389.2739, 1600.425
389.7560, 1598.693
390.2382, 1619.292
390.7203, 1638.541
391.2024, 1642.125
391.6845, 1637.840
392.1666, 1634.691
392.6487, 1638.411
393.1309, 1641.194
393.6130, 1636.066
394.0951, 1624.405
394.5772, 1622.440
395.0593, 1650.096
395.5414, 1678.764
396.0236, 1690.246
396.5057, 1661.045
396.9878, 1639.480
397.4699, 1632.422
397.9520, 1636.581
398.4341, 1641.823
398.9163, 1654.166
399.3984, 1661.269
399.8805, 1656.811
400.3626, 1633.595
400.8447, 1620.785
401.3268, 1623.851
401.8090, 1633.298
402.2911, 1634.839
402.7732, 1624.110
403.2553, 1617.105
403.7374, 1620.058
404.2195, 1632.080
404.7017, 1635.283
405.1838, 1626.436
405.6659, 1617.513
406.1480, 1622.769
406.6301, 1642.564
407.1122, 1652.755
407.5944, 1645.953
408.0765, 1630.204
408.5586, 1626.977
409.0407, 1635.966
409.5228, 1641.840
410.0049, 1626.598
410.4871, 1600.221
410.9692, 1593.478
411.4513, 1612.831
411.9334, 1638.328
412.4155, 1647.047
412.8976, 1643.476
413.3798, 1640.358
413.8619, 1646.371
414.3440, 1654.143
414.8261, 1654.806
415.3082, 1648.213
415.7903, 1642.310
416.2725, 1644.843
416.7546, 1649.959
417.2367, 1650.855
417.7188, 1638.413
418.2009, 1629.012
418.6830, 1632.025
419.1652, 1644.813
419.6473, 1657.573
420.1294, 1671.166
420.6115, 1680.914
421.0937, 1683.924
421.5758, 1676.959
422.0579, 1669.225
422.5400, 1658.722
423.0221, 1648.793
423.5042, 1644.803
423.9864, 1651.639
424.4685, 1659.145
424.9506, 1665.544
425.4327, 1670.755
425.9148, 1674.784
426.3969, 1677.463
426.8791, 1679.154
427.3612, 1680.513
427.8433, 1682.483
428.3254, 1680.803
428.8075, 1673.384
429.2896, 1662.471
429.7718, 1655.155
430.2539, 1651.199
430.7360, 1651.732
431.2181, 1660.526
431.7002, 1676.626
432.1823, 1685.226
432.6645, 1684.518
433.1466, 1679.901
433.6287, 1680.290
434.1108, 1684.042
434.5929, 1682.500
435.0750, 1664.607
435.5572, 1642.450
436.0393, 1640.743
436.5214, 1658.576
437.0035, 1676.684
437.4856, 1676.310
437.9677, 1667.808
438.4499, 1666.178
438.9320, 1679.026
439.4141, 1693.149
439.8962, 1700.553
440.3783, 1702.005
440.8604, 1699.690
441.3426, 1687.728
441.8247, 1677.467
442.3068, 1676.957
442.7889, 1689.580
443.2710, 1699.790
443.7531, 1702.782
444.2353, 1701.495
444.7174, 1699.228
445.1995, 1694.415
445.6816, 1690.870
446.1637, 1688.465
446.6458, 1687.415
447.1280, 1690.637
447.6101, 1703.375
448.0922, 1714.621
448.5743, 1717.863
449.0564, 1710.030
449.5385, 1702.095
450.0207, 1693.634
450.5028, 1685.868
450.9849, 1681.318
451.4670, 1680.340
451.9491, 1680.822
452.4312, 1680.370
452.9134, 1680.104
453.3955, 1691.445
453.8776, 1715.983
454.3597, 1740.444
454.8418, 1752.056
455.3239, 1752.451
455.8061, 1746.787
456.2882, 1732.966
456.7703, 1718.646
457.2524, 1716.835
457.7345, 1724.837
458.2166, 1731.631
458.6988, 1727.603
459.1809, 1720.438
459.6630, 1719.812
460.1451, 1727.833
460.6272, 1733.930
461.1093, 1728.672
461.5915, 1718.427
462.0736, 1711.203
462.5557, 1710.802
463.0378, 1712.725
463.5199, 1715.893
464.0020, 1720.173
464.4842, 1724.981
464.9663, 1733.392
465.4484, 1739.886
465.9305, 1741.037
466.4126, 1729.887
466.8947, 1725.846
467.3769, 1735.641
467.8590, 1749.605
468.3411, 1750.411
468.8232, 1728.254
469.3053, 1712.730
469.7874, 1713.911
470.2696, 1730.610
470.7517, 1740.431
471.2338, 1741.984
471.7159, 1740.912
472.1980, 1743.092
472.6801, 1748.330
473.1623, 1747.670
473.6444, 1738.290
474.1265, 1725.563
474.6086, 1717.254
475.0907, 1713.365
475.5728, 1713.897
476.0550, 1722.863
476.5371, 1734.886
477.0192, 1739.642
477.5013, 1736.704
477.9834, 1734.922
478.4655, 1743.107
478.9477, 1755.961
479.4298, 1766.437
479.9119, 1771.642
480.3940, 1775.169
480.8761, 1776.349
481.3582, 1776.939
481.8404, 1782.032
482.3225, 1801.003
482.8046, 1818.485
483.2867, 1827.515
483.7688, 1826.096
484.2509, 1821.068
484.7331, 1806.906
485.2152, 1792.563
485.6973, 1786.504
486.1794, 1793.945
486.6615, 1800.893
487.1436, 1805.877
487.6258, 1808.929
488.1079, 1809.920
488.5900, 1808.285
489.0721, 1806.117
489.5542, 1804.507
490.0363, 1803.450
490.5185, 1802.539
491.0006, 1801.920
491.4827, 1800.943
491.9648, 1798.000
492.4470, 1793.617
492.9291, 1790.717
493.4112, 1790.235
493.8933, 1791.888
494.3754, 1795.987
494.8575, 1802.249
495.3397, 1808.633
495.8218, 1815.689
496.3039, 1821.339
496.7860, 1822.965
497.2681, 1819.611
497.7502, 1814.717
498.2324, 1808.336
498.7145, 1802.006
499.1966, 1797.695
499.6787, 1799.053
500.1608, 1799.483
500.6429, 1796.231
501.1251, 1789.556
501.6072, 1784.233
502.0893, 1781.121
502.5714, 1778.896
503.0535, 1777.123
503.5356, 1776.577
504.0178, 1774.106
504.4999, 1767.065
504.9820, 1760.567
505.4641, 1763.594
505.9462, 1778.126
506.4283, 1792.070
506.9105, 1803.161
507.3926, 1810.667
507.8747, 1808.976
508.3568, 1797.484
508.8389, 1787.895
509.3210, 1791.652
509.8032, 1803.933
510.2853, 1811.667
510.7674, 1813.092
511.2495, 1810.500
511.7316, 1803.580
512.2137, 1794.486
512.6959, 1787.704
513.1780, 1789.516
513.6601, 1790.513
514.1422, 1782.163
514.6243, 1766.106
515.1064, 1753.828
515.5886, 1750.204
516.0707, 1751.478
516.5528, 1755.756
517.0349, 1764.256
517.5170, 1772.745
517.9991, 1780.328
518.4813, 1787.830
518.9634, 1796.734
519.4455, 1810.903
519.9276, 1819.525
520.4097, 1818.115
520.8918, 1808.787
521.3740, 1806.697
521.8561, 1814.513
522.3382, 1820.727
522.8203, 1815.562
523.3024, 1799.992
523.7845, 1789.588
524.2667, 1784.990
524.7488, 1786.364
525.2309, 1802.120
525.7130, 1825.656
526.1951, 1832.687
526.6772, 1801.388
527.1594, 1762.412
527.6415, 1753.460
528.1236, 1769.430
528.6057, 1787.882
529.0878, 1800.582
529.5699, 1807.784
530.0521, 1808.916
530.5342, 1803.201
531.0163, 1794.832
531.4984, 1778.741
531.9805, 1763.342
532.4626, 1757.480
532.9448, 1769.048
533.4269, 1782.476
533.9090, 1798.882
534.3911, 1816.201
534.8732, 1825.373
535.3553, 1823.530
535.8375, 1818.915
536.3196, 1813.223
536.8017, 1805.929
537.2838, 1809.605
537.7659, 1827.792
538.2480, 1845.369
538.7302, 1840.954
539.2123, 1818.597
539.6944, 1808.185
540.1765, 1820.770
540.6586, 1839.661
541.1407, 1840.758
541.6229, 1827.890
542.1050, 1814.926
542.5871, 1805.731
543.0692, 1802.098
543.5513, 1808.477
544.0334, 1824.903
544.5156, 1839.505
544.9977, 1844.751
545.4798, 1847.024
545.9619, 1851.624
546.4440, 1866.024
546.9261, 1873.144
547.4083, 1863.124
547.8904, 1845.832
548.3725, 1839.712
548.8546, 1853.363
549.3367, 1863.899
549.8188, 1864.811
550.3010, 1857.049
550.7831, 1851.170
551.2652, 1846.823
551.7473, 1845.540
552.2294, 1850.392
552.7115, 1860.490
553.1937, 1866.383
553.6758, 1866.879
554.1579, 1865.017
554.6400, 1865.168
555.1221, 1866.069
555.6042, 1864.000
556.0864, 1855.457
556.5685, 1845.548
557.0506, 1835.492
557.5327, 1827.237
558.0148, 1828.350
558.4969, 1858.860
558.9791, 1887.596
559.4612, 1892.201
559.9433, 1864.898
560.4254, 1842.315
560.9075, 1829.993
561.3896, 1826.032
561.8718, 1828.558
562.3539, 1841.979
562.8360, 1854.897
563.3181, 1868.707
563.8002, 1880.350
564.2823, 1879.609
564.7645, 1862.475
565.2466, 1851.441
565.7287, 1860.020
566.2108, 1882.366
566.6929, 1887.124
567.1750, 1873.580
567.6572, 1857.742
568.1393, 1853.690
568.6214, 1857.015
569.1035, 1859.408
569.5856, 1859.668
570.0677, 1858.552
570.5499, 1854.052
571.0320, 1849.137
571.5141, 1848.454
571.9962, 1857.082
572.4783, 1866.898
572.9604, 1877.189
573.4426, 1886.747
573.9247, 1889.924
574.4068, 1877.627
574.8889, 1866.197
575.3710, 1862.324
575.8531, 1867.699
576.3353, 1872.152
576.8174, 1876.166
577.2995, 1878.477
577.7816, 1877.533
578.2637, 1873.080
578.7458, 1867.451
579.2280, 1859.876
579.7101, 1853.297
580.1922, 1853.188
580.6743, 1858.974
581.1564, 1867.391
581.6385, 1879.887
582.1207, 1892.595
582.6028, 1900.760
583.0849, 1904.410
583.5670, 1904.367
584.0491, 1897.601
584.5313, 1889.556
585.0134, 1884.442
585.4955, 1883.384
585.9776, 1883.685
586.4597, 1885.524
586.9418, 1888.042
587.4240, 1890.175
587.9061, 1890.304
588.3882, 1892.657
588.8703, 1899.028
589.3524, 1907.546
589.8345, 1911.877
590.3167, 1910.434
590.7988, 1911.153
591.2809, 1920.271
591.7630, 1934.791
592.2451, 1935.892
592.7272, 1922.988
593.2094, 1910.942
593.6915, 1916.521
594.1736, 1930.861
594.6557, 1935.405
595.1378, 1924.652
595.6199, 1914.472
596.1021, 1919.952
596.5842, 1932.664
597.0663, 1940.621
597.5485, 1934.959
598.0306, 1928.933
598.5127, 1926.666
598.9948, 1927.495
599.4769, 1928.400
599.9590, 1932.056
600.4412, 1932.189
600.9233, 1924.531
601.4054, 1907.944
601.8875, 1901.929
602.3696, 1909.290
602.8517, 1920.487
603.3339, 1927.690
603.8160, 1931.234
604.2981, 1934.922
604.7802, 1939.541
605.2623, 1942.948
605.7444, 1940.083
606.2266, 1933.572
606.7087, 1930.735
607.1908, 1938.298
607.6729, 1946.294
608.1550, 1945.044
608.6371, 1937.363
609.1193, 1932.359
609.6014, 1936.414
610.0835, 1941.695
610.5656, 1944.697
611.0477, 1945.018
611.5298, 1944.170
612.0120, 1939.640
612.4941, 1936.534
612.9762, 1939.996
613.4583, 1954.757
613.9404, 1956.845
614.4225, 1939.961
614.9047, 1919.613
615.3868, 1920.401
615.8689, 1940.701
616.3510, 1959.463
616.8331, 1972.084
617.3152, 1978.005
617.7974, 1971.429
618.2795, 1956.033
618.7616, 1945.738
619.2437, 1955.239
619.7258, 1967.545
620.2079, 1968.143
620.6901, 1956.401
621.1722, 1947.866
621.6543, 1950.630
622.1364, 1956.469
622.6185, 1959.620
623.1006, 1955.866
623.5828, 1958.616
624.0649, 1972.715
624.5470, 1988.874
625.0291, 1994.695
625.5112, 1987.672
625.9933, 1984.324
626.4755, 1989.260
626.9576, 1997.270
627.4397, 1996.339
627.9218, 1987.617
628.4039, 1979.871
628.8860, 1977.366
629.3682, 1978.350
629.8503, 1980.935
630.3324, 1985.033
630.8145, 1990.134
631.2966, 2000.961
631.7787, 2009.130
632.2609, 2006.680
632.7430, 1988.652
633.2251, 1975.719
633.7072, 1974.472
634.1893, 1978.506
634.6714, 1983.464
635.1536, 1993.814
635.6357, 1993.953
636.1178, 1977.984
636.5999, 1956.339
637.0820, 1949.331
637.5641, 1957.581
638.0463, 1966.578
638.5284, 1971.538
639.0105, 1974.485
639.4926, 1981.061
639.9747, 1990.207
640.4568, 1995.667
640.9390, 1992.732
641.4211, 1985.026
641.9032, 1972.909
642.3853, 1956.500
642.8674, 1947.124
643.3495, 1953.479
643.8317, 1965.701
644.3138, 1977.521
644.7959, 1990.514
645.2780, 1998.422
645.7601, 2000.052
646.2422, 1997.656
646.7244, 1992.726
647.2065, 1984.143
647.6886, 1979.068
648.1707, 1979.022
648.6528, 1982.790
649.1349, 1988.525
649.6171, 1996.116
650.0992, 2004.923
650.5813, 2019.109
651.0634, 2031.574
651.5455, 2031.745
652.0276, 2021.436
652.5098, 2010.356
652.9919, 2003.672
653.4740, 1997.838
653.9561, 1989.258
654.4382, 1976.060
654.9203, 1969.711
655.4025, 1976.419
655.8846, 1986.445
656.3667, 1994.018
656.8488, 2000.018
657.3309, 1999.971
657.8130, 1991.539
658.2952, 1981.034
658.7773, 1976.094
659.2594, 1976.700
659.7415, 1984.262
660.2236, 2002.731
660.7057, 2022.351
661.1879, 2027.878
661.6700, 2022.864
662.1521, 2017.080
662.6342, 2015.546
663.1163, 2014.515
663.5984, 2009.895
664.0806, 2002.620
664.5627, 2000.493
665.0448, 2013.781
665.5269, 2024.914
666.0090, 2024.944
666.4911, 2011.544
666.9733, 2004.294
667.4554, 2003.835
667.9375, 2008.261
668.4196, 2019.808
668.9017, 2037.929
669.3839, 2043.250
669.8660, 2032.404
670.3481, 2016.517
670.8302, 2002.620
671.3123, 1993.933
671.7944, 1999.705
672.2766, 2036.270
672.7587, 2065.958
673.2408, 2054.512
673.7229, 2019.748
674.2050, 1996.372
674.6871, 2003.785
675.1693, 2013.166
675.6514, 2017.385
676.1335, 2017.223
676.6156, 2016.423
677.0977, 2013.953
677.5798, 2013.338
678.0620, 2018.006
678.5441, 2026.797
679.0262, 2026.788
679.5083, 2017.529
679.9904, 2006.809
680.4725, 1999.627
680.9547, 1995.601
681.4368, 1993.264
681.9189, 1992.120
682.4010, 1996.144
682.8831, 2013.360
683.3652, 2034.508
683.8474, 2050.512
684.3295, 2063.198
684.8116, 2064.476
685.2937, 2041.627
685.7758, 2011.898
686.2579, 1998.393
686.7401, 2006.437
687.2222, 2016.463
687.7043, 2025.952
688.1864, 2034.507
688.6685, 2041.577
689.1506, 2047.089
689.6328, 2049.848
690.1149, 2048.398
690.5970, 2044.507
691.0791, 2038.254
691.5612, 2030.938
692.0433, 2029.226
692.5255, 2043.341
693.0076, 2058.811
693.4897, 2066.923
693.9718, 2066.670
694.4539, 2062.630
694.9360, 2050.239
695.4182, 2039.117
695.9003, 2035.984
696.3824, 2045.229
696.8645, 2041.703
697.3466, 2020.856
697.8287, 1999.186
698.3109, 1997.706
698.7930, 2012.273
699.2751, 2019.988
699.7572, 2015.319
700.2393, 2008.660
700.7214, 2009.441
701.2036, 2015.952
701.6857, 2025.337
702.1678, 2035.925
702.6499, 2049.979
703.1320, 2078.114
703.6141, 2110.122
704.0963, 2119.232
704.5784, 2085.277
705.0605, 2058.297
705.5426, 2050.697
706.0247, 2058.060
706.5068, 2061.278
706.9890, 2060.076
707.4711, 2057.231
707.9532, 2053.085
708.4353, 2048.589
708.9174, 2047.150
709.3995, 2048.390
709.8817, 2048.667
710.3638, 2042.476
710.8459, 2036.161
711.3280, 2037.798
711.8101, 2049.844
712.2922, 2054.572
712.7744, 2035.978
713.2565, 2016.587
713.7386, 2011.818
714.2207, 2028.448
714.7028, 2042.941
715.1849, 2056.538
715.6671, 2066.062
716.1492, 2066.333
716.6313, 2058.194
717.1134, 2050.840
717.5955, 2044.789
718.0776, 2043.514
718.5598, 2058.346
719.0419, 2080.183
719.5240, 2091.074
720.0061, 2075.306
720.4882, 2058.688
720.9703, 2052.430
721.4525, 2053.932
721.9346, 2057.333
722.4167, 2067.676
722.8988, 2071.785
723.3809, 2063.105
723.8630, 2046.768
724.3452, 2044.975
724.8273, 2059.568
725.3094, 2075.451
725.7915, 2086.241
726.2736, 2092.927
726.7557, 2098.844
727.2379, 2103.553
727.7200, 2103.630
728.2021, 2089.684
728.6842, 2075.272
729.1663, 2074.686
729.6484, 2089.631
730.1306, 2097.503
730.6127, 2083.367
731.0948, 2067.406
731.5769, 2061.092
732.0590, 2067.230
732.5411, 2071.095
733.0233, 2072.211
733.5054, 2072.118
733.9875, 2072.222
734.4696, 2072.412
734.9517, 2071.394
735.4338, 2068.656
735.9160, 2066.895
736.3981, 2070.783
736.8802, 2076.813
737.3623, 2079.912
737.8444, 2078.789
738.3266, 2074.428
738.8087, 2063.288
739.2908, 2050.406
739.7729, 2043.213
740.2551, 2042.591
740.7372, 2046.692
741.2193, 2057.782
741.7014, 2071.416
742.1835, 2078.792
742.6656, 2079.838
743.1478, 2074.875
743.6299, 2058.769
744.1120, 2043.265
744.5941, 2052.505
745.0762, 2078.849
745.5583, 2098.861
746.0405, 2093.420
746.5226, 2085.291
747.0047, 2086.833
747.4868, 2096.854
747.9689, 2106.997
748.4510, 2119.889
748.9332, 2127.917
749.4153, 2127.522
749.8974, 2119.457
750.3795, 2111.984
750.8616, 2104.878
751.3438, 2100.220
751.8259, 2102.523
752.3080, 2107.615
752.7901, 2102.818
753.2722, 2088.589
753.7543, 2078.374
754.2365, 2083.128
754.7186, 2094.218
755.2007, 2106.495
755.6828, 2120.589
756.1649, 2128.626
756.6470, 2126.568
757.1292, 2120.564
757.6113, 2112.663
758.0934, 2100.529
758.5755, 2099.013
759.0576, 2111.075
759.5397, 2123.826
760.0219, 2120.048
760.5040, 2105.757
760.9861, 2101.257
761.4682, 2111.164
761.9503, 2123.046
762.4324, 2129.779
762.9146, 2131.811
763.3967, 2129.220
763.8788, 2115.651
764.3609, 2107.931
764.8430, 2115.793
765.3251, 2126.931
765.8073, 2125.835
766.2894, 2107.525
766.7715, 2096.886
767.2536, 2098.380
767.7357, 2107.103
768.2178, 2118.592
768.7000, 2131.052
769.1821, 2136.482
769.6642, 2130.113
770.1463, 2119.508
770.6284, 2105.910
771.1105, 2093.462
771.5927, 2090.173
772.0748, 2113.746
772.5569, 2128.921
773.0390, 2122.627
773.5211, 2103.263
774.0032, 2091.483
774.4854, 2088.520
774.9675, 2088.712
775.4496, 2091.058
775.9317, 2094.879
776.4138, 2099.286
776.8959, 2103.913
777.3781, 2106.990
777.8602, 2105.661
778.3423, 2103.927
778.8244, 2105.895
779.3065, 2110.606
779.7886, 2113.869
780.2708, 2112.053
780.7529, 2111.180
781.2350, 2114.970
781.7171, 2122.294
782.1992, 2120.627
782.6813, 2106.801
783.1635, 2096.742
783.6456, 2102.300
784.1277, 2117.329
784.6098, 2122.773
785.0919, 2118.857
785.5740, 2108.476
786.0562, 2080.468
786.5383, 2056.170
787.0204, 2058.438
787.5025, 2088.288
787.9846, 2112.141
788.4667, 2121.428
788.9489, 2123.055
789.4310, 2116.790
789.9131, 2101.654
790.3952, 2099.189
790.8773, 2111.280
791.3594, 2127.340
791.8416, 2143.594
792.3237, 2157.135
792.8058, 2158.837
793.2879, 2148.405
793.7700, 2133.929
794.2521, 2112.062
794.7343, 2094.550
795.2164, 2093.555
795.6985, 2114.887
796.1806, 2132.359
796.6627, 2142.818
797.1448, 2149.284
797.6270, 2153.593
798.1091, 2155.944
798.5912, 2153.075
799.0733, 2143.767
799.5554, 2135.604
800.0375, 2139.551
800.5197, 2148.980
801.0018, 2149.031
801.4839, 2136.192
801.9660, 2127.042
802.4481, 2136.557
802.9302, 2151.107
803.4124, 2158.815
803.8945, 2153.151
804.3766, 2152.384
804.8587, 2162.175
805.3408, 2169.387
805.8229, 2156.503
806.3051, 2123.762
806.7872, 2110.458
807.2693, 2121.443
807.7514, 2142.750
808.2335, 2170.192
808.7156, 2195.058
809.1978, 2202.314
809.6799, 2184.345
810.1620, 2163.918
810.6441, 2143.683
811.1262, 2129.379
811.6083, 2127.371
812.0905, 2144.135
812.5726, 2158.342
813.0547, 2170.104
813.5368, 2178.019
814.0189, 2178.167
814.5010, 2172.130
814.9832, 2170.127
815.4653, 2174.826
815.9474, 2178.657
816.4295, 2174.381
816.9116, 2165.238
817.3937, 2154.726
817.8759, 2141.149
818.3580, 2131.438
818.8401, 2126.155
819.3222, 2126.101
819.8043, 2134.497
820.2864, 2155.233
820.7686, 2165.275
821.2507, 2160.471
821.7328, 2150.807
822.2149, 2149.284
822.6970, 2153.123
823.1791, 2155.560
823.6613, 2155.291
824.1434, 2152.635
824.6255, 2144.087
825.1076, 2134.952
825.5897, 2131.264
826.0718, 2139.366
826.5540, 2145.558
827.0361, 2149.813
827.5182, 2152.214
828.0003, 2151.240
828.4824, 2146.992
828.9645, 2149.155
829.4467, 2160.429
829.9288, 2172.978
830.4109, 2179.903
830.8930, 2181.545
831.3751, 2176.991
831.8572, 2160.197
832.3394, 2150.666
832.8215, 2161.300
833.3036, 2179.403
833.7857, 2190.526
834.2678, 2191.544
834.7499, 2194.718
835.2321, 2201.723
835.7142, 2208.728
836.1963, 2213.661
836.6784, 2214.876
837.1605, 2202.794
837.6426, 2171.835
838.1248, 2145.253
838.6069, 2141.567
839.0890, 2151.959
839.5711, 2168.208
840.0532, 2201.834
840.5353, 2215.453
841.0175, 2195.216
841.4996, 2167.065
841.9817, 2157.277
842.4638, 2166.336
842.9459, 2182.823
843.4280, 2208.428
843.9102, 2226.926
844.3923, 2209.277
844.8744, 2176.185
845.3565, 2163.439
845.8386, 2184.046
846.3207, 2202.374
846.8029, 2201.698
847.2850, 2193.874
847.7671, 2189.686
848.2492, 2192.406
848.7313, 2189.240
849.2134, 2177.536
849.6956, 2166.775
850.1777, 2167.645
850.6598, 2177.392
851.1419, 2187.449
851.6240, 2197.156
852.1061, 2203.695
852.5883, 2201.981
853.0704, 2198.006
853.5525, 2197.655
854.0346, 2203.734
854.5167, 2207.283
854.9988, 2206.247
855.4810, 2204.626
855.9631, 2204.423
856.4452, 2205.613
856.9273, 2214.503
857.4094, 2232.249
857.8915, 2243.706
858.3737, 2226.986
858.8558, 2200.342
859.3379, 2187.231
859.8200, 2191.154
860.3021, 2198.665
860.7842, 2212.102
861.2664, 2221.037
861.7485, 2218.308
862.2306, 2202.230
862.7127, 2190.702
863.1948, 2183.378
863.6769, 2181.730
864.1591, 2191.918
864.6412, 2207.347
865.1233, 2210.590
865.6054, 2202.086
866.0875, 2194.591
866.5696, 2196.751
867.0518, 2201.458
867.5339, 2204.443
868.0160, 2205.337
868.4981, 2206.630
868.9802, 2209.328
869.4623, 2210.164
869.9445, 2205.431
870.4266, 2197.696
870.9087, 2202.246
871.3908, 2217.623
871.8729, 2227.902
872.3550, 2219.765
872.8372, 2205.500
873.3193, 2192.326
873.8014, 2181.267
874.2835, 2176.571
874.7656, 2182.462
875.2477, 2191.288
875.7299, 2201.940
876.2120, 2213.950
876.6941, 2228.688
877.1762, 2246.103
877.6583, 2253.106
878.1404, 2237.083
878.6226, 2214.733
879.1047, 2208.284
879.5869, 2213.410
880.0690, 2218.787
880.5511, 2218.212
881.0332, 2219.604
881.5153, 2227.655
881.9974, 2238.391
882.4796, 2244.027
882.9617, 2244.176
883.4438, 2240.852
883.9259, 2233.322
884.4080, 2225.064
884.8901, 2221.485
885.3723, 2221.549
885.8544, 2222.756
886.3365, 2223.361
886.8186, 2226.406
887.3007, 2236.177
887.7828, 2247.931
888.2650, 2255.382
888.7471, 2258.719
889.2292, 2256.117
889.7113, 2245.609
890.1934, 2233.204
890.6755, 2225.829
891.1577, 2222.925
891.6398, 2223.568
892.1219, 2228.591
892.6040, 2231.862
893.0861, 2223.512
893.5682, 2214.656
894.0504, 2216.900
894.5325, 2238.958
895.0146, 2253.903
895.4967, 2260.430
895.9788, 2262.249
896.4609, 2260.781
896.9431, 2256.802
897.4252, 2255.659
897.9073, 2257.669
898.3894, 2259.554
898.8715, 2259.502
899.3536, 2257.792
899.8358, 2253.126
900.3179, 2244.865
900.8000, 2242.316
901.2821, 2248.301
901.7642, 2257.178
902.2463, 2268.900
902.7285, 2281.846
903.2106, 2282.959
903.6927, 2272.640
904.1748, 2262.007
904.6569, 2257.629
905.1390, 2256.339
905.6212, 2256.124
906.1033, 2256.441
906.5854, 2255.290
907.0675, 2248.188
907.5496, 2244.395
908.0317, 2246.476
908.5139, 2253.151
908.9960, 2262.095
909.4781, 2273.288
909.9602, 2281.027
910.4423, 2282.852
910.9244, 2280.915
911.4066, 2273.750
911.8887, 2265.447
912.3708, 2263.482
912.8529, 2279.099
913.3350, 2290.283
913.8171, 2293.945
914.2993, 2290.832
914.7814, 2278.487
915.2635, 2255.469
915.7456, 2242.301
916.2277, 2242.044
916.7098, 2251.476
917.1920, 2277.561
917.6741, 2306.708
918.1562, 2316.644
918.6383, 2297.129
919.1204, 2278.857
919.6025, 2270.180
920.0847, 2266.684
920.5668, 2266.296
921.0489, 2269.677
921.5310, 2271.778
922.0131, 2272.691
922.4952, 2271.596
922.9774, 2264.654
923.4595, 2256.823
923.9416, 2255.193
924.4237, 2260.129
924.9058, 2269.359
925.3879, 2290.363
925.8701, 2306.764
926.3522, 2311.416
926.8343, 2305.510
927.3164, 2296.312
927.7985, 2282.590
928.2806, 2276.979
928.7628, 2291.942
929.2449, 2312.074
929.7270, 2311.157
930.2091, 2295.402
930.6912, 2281.612
931.1733, 2274.229
931.6555, 2272.871
932.1376, 2283.187
932.6197, 2297.042
933.1018, 2300.036
933.5839, 2290.614
934.0660, 2281.450
934.5482, 2273.853
935.0303, 2270.060
935.5124, 2274.765
935.9945, 2284.761
936.4766, 2295.187
936.9587, 2307.238
937.4409, 2313.515
937.9230, 2305.427
938.4051, 2295.375
938.8872, 2293.385
939.3693, 2301.362
939.8514, 2305.381
940.3336, 2304.712
940.8157, 2305.014
941.2978, 2315.274
941.7799, 2327.344
942.2620, 2326.942
942.7441, 2314.130
943.2263, 2304.676
943.7084, 2306.600
944.1905, 2311.592
944.6726, 2317.873
945.1547, 2324.500
945.6368, 2325.132
946.1190, 2319.552
946.6011, 2311.144
947.0832, 2297.227
947.5653, 2285.895
948.0474, 2292.272
948.5295, 2309.362
949.0117, 2320.885
949.4938, 2318.290
949.9759, 2312.862
950.4580, 2303.880
950.9401, 2295.520
951.4222, 2294.407
951.9044, 2300.596
952.3865, 2310.009
952.8686, 2322.666
953.3507, 2335.196
953.8328, 2347.271
954.3149, 2355.531
954.7971, 2354.089
955.2792, 2338.195
955.7613, 2326.773
956.2434, 2325.270
956.7255, 2325.811
957.2076, 2323.633
957.6898, 2318.845
958.1719, 2313.853
958.6540, 2308.723
959.1361, 2310.485
959.6182, 2335.216
960.1003, 2360.240
960.5825, 2363.108
961.0646, 2346.362
961.5467, 2328.719
962.0288, 2305.057
962.5109, 2294.883
962.9930, 2307.480
963.4752, 2332.585
963.9573, 2344.120
964.4394, 2344.103
964.9215, 2346.676
965.4036, 2361.232
965.8857, 2370.124
966.3679, 2349.147
966.8500, 2318.224
967.3321, 2303.978
967.8142, 2325.524
968.2963, 2334.602
968.7784, 2325.717
969.2606, 2314.917
969.7427, 2321.126
970.2248, 2339.120
970.7069, 2351.386
971.1890, 2356.533
971.6711, 2354.298
972.1533, 2332.273
972.6354, 2312.945
973.1175, 2315.411
973.5996, 2339.492
974.0817, 2354.368
974.5638, 2357.886
975.0460, 2359.820
975.5281, 2364.644
976.0102, 2370.113
976.4923, 2367.581
976.9744, 2361.398
977.4565, 2364.336
977.9387, 2400.357
978.4208, 2424.918
978.9029, 2412.846
979.3850, 2384.820
979.8671, 2367.303
980.3492, 2361.238
980.8314, 2363.314
981.3135, 2375.609
981.7956, 2384.982
982.2777, 2369.225
982.7598, 2344.930
983.2419, 2338.484
983.7241, 2356.385
984.2062, 2369.496
984.6883, 2361.140
985.1704, 2354.386
985.6525, 2360.933
986.1346, 2379.087
986.6168, 2392.104
987.0989, 2399.952
987.5810, 2401.693
988.0631, 2392.450
988.5452, 2380.461
989.0273, 2371.453
989.5095, 2365.985
989.9916, 2365.716
990.4737, 2374.162
990.9558, 2383.049
991.4379, 2391.806
991.9200, 2399.955
992.4022, 2407.936
992.8843, 2414.794
993.3664, 2416.007
993.8485, 2410.108
994.3306, 2402.475
994.8127, 2391.314
995.2949, 2383.796
995.7770, 2388.419
996.2591, 2407.572
996.7412, 2423.383
997.2233, 2438.121
997.7054, 2440.695
998.1876, 2412.799
998.6697, 2372.647
999.1518, 2361.344
999.6339, 2374.134
1000.116, 2391.497
1000.598, 2413.538
1001.080, 2428.442
1001.562, 2428.144
1002.044, 2420.219
1002.527, 2417.835
1003.009, 2421.383
1003.491, 2426.259
1003.973, 2432.864
1004.455, 2435.103
1004.937, 2420.095
1005.419, 2399.605
1005.901, 2388.237
1006.384, 2389.185
1006.866, 2397.432
1007.348, 2416.098
1007.830, 2435.394
1008.312, 2449.861
1008.794, 2460.168
1009.276, 2472.491
1009.758, 2485.823
1010.240, 2492.385
1010.723, 2479.367
1011.205, 2466.305
1011.687, 2466.898
1012.169, 2476.924
1012.651, 2483.458
1013.133, 2482.949
1013.615, 2491.114
1014.097, 2515.130
1014.580, 2535.636
1015.062, 2515.097
1015.544, 2474.525
1016.026, 2455.604
1016.508, 2469.291
1016.990, 2485.903
1017.472, 2490.797
1017.954, 2498.361
1018.436, 2522.089
1018.919, 2559.924
1019.401, 2562.596
1019.883, 2529.994
1020.365, 2504.139
1020.847, 2518.289
1021.329, 2543.236
1021.811, 2546.928
1022.293, 2538.718
1022.776, 2542.234
1023.258, 2574.988
1023.740, 2598.183
1024.222, 2607.388
1024.704, 2606.918
1025.186, 2599.320
1025.668, 2586.899
1026.150, 2577.050
1026.632, 2570.593
1027.115, 2568.880
1027.597, 2586.752
1028.079, 2597.475
1028.561, 2574.728
1029.043, 2521.061
1029.525, 2500.226
1030.007, 2516.866
1030.489, 2530.154
1030.972, 2515.560
1031.454, 2493.898
1031.936, 2501.581
1032.418, 2523.598
1032.900, 2527.752
1033.382, 2479.917
1033.864, 2447.896
1034.346, 2443.074
1034.828, 2449.676
1035.311, 2450.668
1035.793, 2447.249
1036.275, 2447.758
1036.757, 2452.891
1037.239, 2458.450
1037.721, 2464.751
1038.203, 2467.605
1038.685, 2458.775
1039.167, 2440.992
1039.650, 2442.456
1040.132, 2468.861
1040.614, 2489.444
1041.096, 2492.322
1041.578, 2486.108
1042.060, 2479.989
1042.542, 2475.725
1043.024, 2477.328
1043.507, 2492.287
1043.989, 2500.231
1044.471, 2492.699
1044.953, 2482.840
1045.435, 2482.199
1045.917, 2489.680
1046.399, 2488.780
1046.881, 2479.700
1047.364, 2472.842
1047.846, 2478.413
1048.328, 2485.676
1048.810, 2488.964
1049.292, 2487.565
1049.774, 2479.683
1050.256, 2461.015
1050.738, 2451.968
1051.220, 2458.363
1051.703, 2471.126
1052.185, 2478.734
1052.667, 2482.961
1053.149, 2487.448
1053.631, 2494.097
1054.113, 2494.986
1054.595, 2477.157
1055.077, 2466.006
1055.559, 2480.134
1056.042, 2513.256
1056.524, 2519.950
1057.006, 2502.927
1057.488, 2484.376
1057.970, 2471.670
1058.452, 2466.112
1058.934, 2474.547
1059.416, 2488.849
1059.899, 2493.069
1060.381, 2483.419
1060.863, 2475.932
1061.345, 2471.636
1061.827, 2470.696
1062.309, 2476.209
1062.791, 2483.691
1063.273, 2485.836
1063.755, 2482.166
1064.238, 2478.802
1064.720, 2474.971
1065.202, 2475.008
1065.684, 2480.574
1066.166, 2490.630
1066.648, 2504.521
1067.130, 2520.687
1067.612, 2533.642
1068.094, 2543.673
1068.577, 2545.053
1069.059, 2524.467
1069.541, 2500.254
1070.023, 2490.144
1070.505, 2496.344
1070.987, 2507.191
1071.469, 2523.928
1071.951, 2534.591
1072.434, 2526.393
1072.916, 2510.998
1073.398, 2501.534
1073.880, 2496.666
1074.362, 2490.692
1074.844, 2473.200
1075.326, 2471.982
1075.808, 2498.037
1076.291, 2528.127
1076.773, 2523.762
1077.255, 2497.462
1077.737, 2486.199
1078.219, 2495.949
1078.701, 2506.771
1079.183, 2508.552
1079.665, 2508.870
1080.147, 2512.770
1080.630, 2518.767
1081.112, 2517.314
1081.594, 2508.631
1082.076, 2498.714
1082.558, 2486.447
1083.040, 2480.278
1083.522, 2493.985
1084.004, 2515.610
1084.486, 2528.896
1084.969, 2530.298
1085.451, 2528.608
1085.933, 2522.696
1086.415, 2517.995
1086.897, 2520.083
1087.379, 2525.456
1087.861, 2529.984
1088.343, 2532.648
1088.826, 2529.853
1089.308, 2505.130
1089.790, 2497.052
1090.272, 2520.287
1090.754, 2553.155
1091.236, 2558.243
1091.718, 2542.254
1092.200, 2538.000
1092.682, 2551.331
1093.165, 2561.951
1093.647, 2552.031
1094.129, 2539.989
1094.611, 2537.719
1095.093, 2543.934
1095.575, 2550.840
1096.057, 2558.708
1096.539, 2559.565
1097.022, 2546.866
1097.504, 2533.159
1097.986, 2530.996
1098.468, 2536.094
1098.950, 2543.983
1099.432, 2560.830
1099.914, 2558.286
1100.396, 2529.252
1100.879, 2504.010
1101.361, 2512.543
1101.843, 2536.268
1102.325, 2536.658
1102.807, 2519.406
1103.289, 2507.097
1103.771, 2508.349
1104.253, 2516.200
1104.735, 2533.857
1105.218, 2551.382
1105.700, 2552.084
1106.182, 2539.811
1106.664, 2533.341
1107.146, 2534.749
1107.628, 2536.404
1108.110, 2533.869
1108.592, 2529.936
1109.074, 2525.343
1109.557, 2520.713
1110.039, 2517.657
1110.521, 2516.106
1111.003, 2521.969
1111.485, 2540.200
1111.967, 2556.271
1112.449, 2549.459
1112.931, 2536.754
1113.414, 2539.820
1113.896, 2567.025
1114.378, 2572.939
1114.860, 2552.162
1115.342, 2533.882
1115.824, 2539.573
1116.306, 2553.428
1116.788, 2549.166
1117.271, 2533.453
1117.753, 2521.072
1118.235, 2518.519
1118.717, 2516.288
1119.199, 2511.020
1119.681, 2510.861
1120.163, 2530.356
1120.645, 2560.489
1121.127, 2574.520
1121.609, 2572.181
1122.092, 2563.120
1122.574, 2539.052
1123.056, 2525.813
1123.538, 2537.483
1124.020, 2559.736
1124.502, 2561.391
1124.984, 2545.490
1125.466, 2538.044
1125.949, 2544.192
1126.431, 2555.557
1126.913, 2575.633
1127.395, 2590.717
1127.877, 2587.393
1128.359, 2568.636
1128.841, 2555.420
1129.323, 2547.626
1129.806, 2548.110
1130.288, 2560.342
1130.770, 2575.896
1131.252, 2590.820
1131.734, 2601.715
1132.216, 2602.987
1132.698, 2591.401
1133.180, 2579.398
1133.662, 2565.674
1134.145, 2557.436
1134.627, 2563.931
1135.109, 2575.575
1135.591, 2577.241
1136.073, 2571.715
1136.555, 2566.005
1137.037, 2561.826
1137.519, 2557.415
1138.001, 2551.229
1138.484, 2547.853
1138.966, 2554.909
1139.448, 2567.767
1139.930, 2574.833
1140.412, 2576.027
1140.894, 2576.328
1141.376, 2575.081
1141.858, 2577.102
1142.341, 2585.012
1142.823, 2595.197
1143.305, 2604.353
1143.787, 2610.494
1144.269, 2600.591
1144.751, 2570.298
1145.233, 2548.813
1145.715, 2566.215
1146.198, 2583.068
1146.680, 2574.189
1147.162, 2547.167
1147.644, 2539.800
1148.126, 2550.648
1148.608, 2560.108
1149.090, 2561.012
1149.572, 2561.614
1150.054, 2566.108
1150.536, 2574.800
1151.019, 2589.686
1151.501, 2611.561
1151.983, 2625.757
1152.465, 2632.187
1152.947, 2635.106
1153.429, 2639.109
1153.911, 2638.057
1154.393, 2618.782
1154.876, 2592.641
1155.358, 2580.836
1155.840, 2590.950
1156.322, 2594.552
1156.804, 2589.940
1157.286, 2585.348
1157.768, 2587.713
1158.250, 2593.698
1158.733, 2599.849
1159.215, 2605.983
1159.697, 2612.903
1160.179, 2628.905
1160.661, 2625.227
1161.143, 2592.227
1161.625, 2556.784
1162.107, 2551.423
1162.589, 2563.809
1163.072, 2576.228
1163.554, 2586.761
1164.036, 2592.029
1164.518, 2587.600
1165.000, 2583.338
1165.482, 2580.032
1165.964, 2580.475
1166.446, 2592.806
1166.928, 2612.060
1167.411, 2628.709
1167.893, 2641.794
1168.375, 2646.012
1168.857, 2632.757
1169.339, 2618.675
1169.821, 2609.639
1170.303, 2604.521
1170.785, 2599.288
1171.268, 2595.017
1171.750, 2594.866
1172.232, 2599.148
1172.714, 2609.507
1173.196, 2639.346
1173.678, 2662.586
1174.160, 2659.547
1174.642, 2635.281
1175.125, 2623.004
1175.607, 2620.914
1176.089, 2619.745
1176.571, 2616.234
1177.053, 2611.096
1177.535, 2598.704
1178.017, 2589.522
1178.499, 2597.591
1178.981, 2622.569
1179.464, 2624.426
1179.946, 2604.520
1180.428, 2590.958
1180.910, 2610.908
1181.392, 2631.554
1181.874, 2633.287
1182.356, 2625.700
1182.838, 2623.857
1183.320, 2628.026
1183.803, 2627.074
1184.285, 2619.814
1184.767, 2619.535
1185.249, 2651.393
1185.731, 2679.231
1186.213, 2670.678
1186.695, 2638.854
1187.177, 2620.646
1187.660, 2616.579
1188.142, 2620.417
1188.624, 2632.523
1189.106, 2641.140
1189.588, 2627.742
1190.070, 2613.247
1190.552, 2619.847
1191.034, 2643.484
1191.516, 2648.875
1191.999, 2633.702
1192.481, 2621.525
1192.963, 2617.187
1193.445, 2621.450
1193.927, 2645.681
1194.409, 2671.710
1194.891, 2680.273
1195.373, 2669.885
1195.855, 2653.318
1196.338, 2628.978
1196.820, 2611.311
1197.302, 2605.753
1197.784, 2609.839
1198.266, 2629.364
1198.748, 2652.546
1199.230, 2663.067
1199.712, 2656.699
1200.195, 2656.298
1200.677, 2663.431
1201.159, 2664.978
1201.641, 2647.435
1202.123, 2628.935
1202.605, 2632.796
1203.087, 2649.148
1203.569, 2662.104
1204.052, 2669.706
1204.534, 2674.365
1205.016, 2675.872
1205.498, 2675.893
1205.980, 2678.751
1206.462, 2678.192
1206.944, 2659.916
1207.426, 2633.761
1207.908, 2624.174
1208.391, 2639.697
1208.873, 2651.405
1209.355, 2657.749
1209.837, 2662.789
1210.319, 2673.052
1210.801, 2681.509
1211.283, 2676.066
1211.765, 2661.471
1212.247, 2655.700
1212.730, 2663.202
1213.212, 2669.710
1213.694, 2674.407
1214.176, 2674.745
1214.658, 2660.413
1215.140, 2646.036
1215.622, 2653.311
1216.104, 2678.086
1216.587, 2689.918
1217.069, 2684.268
1217.551, 2675.031
1218.033, 2663.439
1218.515, 2653.168
1218.997, 2649.208
1219.479, 2648.219
1219.961, 2644.571
1220.443, 2638.920
1220.926, 2643.940
1221.408, 2663.172
1221.890, 2679.475
1222.372, 2688.174
1222.854, 2695.087
1223.336, 2714.502
1223.818, 2731.384
1224.300, 2723.324
1224.782, 2686.737
1225.265, 2668.140
1225.747, 2671.436
1226.229, 2674.127
1226.711, 2668.190
1227.193, 2662.032
1227.675, 2668.086
1228.157, 2678.436
1228.639, 2680.673
1229.122, 2671.833
1229.604, 2685.046
1230.086, 2725.365
1230.568, 2753.853
1231.050, 2752.237
1231.532, 2739.322
1232.014, 2733.413
1232.496, 2730.727
1232.979, 2725.656
1233.461, 2716.918
1233.943, 2714.662
1234.425, 2719.537
1234.907, 2724.565
1235.389, 2726.516
1235.871, 2727.136
1236.353, 2727.339
1236.835, 2727.778
1237.318, 2730.345
1237.800, 2736.343
1238.282, 2732.285
1238.764, 2717.450
1239.246, 2708.235
1239.728, 2718.558
1240.210, 2732.266
1240.692, 2736.866
1241.175, 2735.874
1241.657, 2733.038
1242.139, 2726.974
1242.621, 2731.268
1243.103, 2746.075
1243.585, 2759.357
1244.067, 2765.546
1244.549, 2766.009
1245.031, 2759.601
1245.514, 2748.925
1245.996, 2738.650
1246.478, 2729.131
1246.960, 2709.391
1247.442, 2680.215
1247.924, 2662.012
1248.406, 2673.506
1248.888, 2693.781
1249.370, 2718.398
1249.853, 2740.681
1250.335, 2751.414
1250.817, 2750.852
1251.299, 2748.222
1251.781, 2744.240
1252.263, 2743.023
1252.745, 2751.576
1253.227, 2758.197
1253.710, 2757.937
1254.192, 2752.713
1254.674, 2739.020
1255.156, 2720.414
1255.638, 2730.538
1256.120, 2767.890
1256.602, 2791.804
1257.084, 2762.146
1257.567, 2738.419
1258.049, 2744.782
1258.531, 2759.909
1259.013, 2749.928
1259.495, 2723.638
1259.977, 2713.510
1260.459, 2721.142
1260.941, 2733.791
1261.423, 2752.396
1261.906, 2765.908
1262.388, 2771.131
1262.870, 2771.769
1263.352, 2772.450
1263.834, 2772.847
1264.316, 2771.051
1264.798, 2767.361
1265.280, 2767.323
1265.762, 2778.613
1266.245, 2782.859
1266.727, 2774.178
1267.209, 2763.444
1267.691, 2766.958
1268.173, 2777.931
1268.655, 2784.679
1269.137, 2786.589
1269.619, 2792.374
1270.102, 2805.962
1270.584, 2815.419
1271.066, 2818.152
1271.548, 2816.229
1272.030, 2810.921
1272.512, 2803.317
1272.994, 2791.251
1273.476, 2776.324
1273.958, 2778.289
1274.441, 2804.655
1274.923, 2808.797
1275.405, 2775.034
1275.887, 2741.600
1276.369, 2758.032
1276.851, 2786.451
1277.333, 2786.697
1277.815, 2763.459
1278.297, 2757.779
1278.780, 2770.258
1279.262, 2791.189
1279.744, 2820.833
1280.226, 2842.187
1280.708, 2832.946
1281.190, 2818.139
1281.672, 2816.992
1282.154, 2825.189
1282.637, 2825.625
1283.119, 2819.397
1283.601, 2817.866
1284.083, 2824.348
1284.565, 2828.779
1285.047, 2816.785
1285.529, 2811.514
1286.011, 2828.921
1286.494, 2856.852
1286.976, 2858.898
1287.458, 2841.589
1287.940, 2824.067
1288.422, 2808.846
1288.904, 2805.730
1289.386, 2833.743
1289.868, 2853.098
##END=



