##NAMES=Millerite
##RRUFFID=R070323
##IDEAL CHEMISTRY=NiS
##LOCALITY=Keokuk area, Lee County, Iowa, USA
##OWNER=RRUFF
##SOURCE=James Shigley
##DESCRIPTION=Bronze colored metallic fibers associated with chalcopyrite and quartz
##STATUS=The identification of this mineral is confirmed by single-crystal X-ray diffraction and chemical analysis.
##URL=rruff.info/R070323
##MEASURED CHEMISTRY=(Ni_0.97_Fe_0.02_Co_0.01_)_Î£=1_S_1.00_
167.7847, 1122.177
168.2668, 1114.999
168.7490, 1113.960
169.2311, 1120.943
169.7132, 1130.033
170.1953, 1139.361
170.6774, 1148.388
171.1595, 1155.992
171.6417, 1160.482
172.1238, 1163.708
172.6059, 1171.231
173.0880, 1186.490
173.5701, 1199.009
174.0522, 1203.383
174.5344, 1202.669
175.0165, 1200.964
175.4986, 1200.308
175.9807, 1199.929
176.4628, 1198.145
176.9449, 1196.438
177.4271, 1190.074
177.9092, 1175.429
178.3913, 1156.288
178.8734, 1137.196
179.3555, 1119.143
179.8376, 1103.462
180.3197, 1094.488
180.8019, 1095.909
181.2840, 1097.854
181.7661, 1096.090
182.2482, 1093.199
182.7303, 1092.463
183.2124, 1095.658
183.6946, 1101.706
184.1767, 1107.148
184.6588, 1109.453
185.1409, 1115.902
185.6230, 1132.468
186.1051, 1152.043
186.5873, 1166.872
187.0694, 1173.388
187.5515, 1172.967
188.0336, 1168.249
188.5157, 1154.001
188.9978, 1144.850
189.4800, 1148.033
189.9621, 1155.386
190.4442, 1157.750
190.9263, 1150.702
191.4084, 1138.890
191.8905, 1134.093
192.3727, 1141.715
192.8548, 1146.879
193.3369, 1145.392
193.8190, 1141.455
194.3011, 1139.769
194.7832, 1142.260
195.2654, 1145.825
195.7475, 1143.065
196.2296, 1128.370
196.7117, 1117.857
197.1938, 1116.684
197.6759, 1118.170
198.1581, 1115.258
198.6402, 1105.747
199.1223, 1095.108
199.6044, 1094.650
200.0865, 1112.633
200.5686, 1124.319
201.0508, 1125.714
201.5329, 1122.424
202.0150, 1117.200
202.4971, 1111.230
202.9792, 1106.376
203.4613, 1106.144
203.9435, 1113.527
204.4256, 1118.850
204.9077, 1121.147
205.3898, 1121.971
205.8719, 1123.087
206.3540, 1124.520
206.8362, 1124.079
207.3183, 1117.322
207.8004, 1098.781
208.2825, 1088.329
208.7646, 1091.838
209.2467, 1097.910
209.7289, 1101.426
210.2110, 1101.059
210.6931, 1097.008
211.1752, 1087.652
211.6573, 1068.741
212.1395, 1060.786
212.6216, 1072.696
213.1037, 1087.127
213.5858, 1097.952
214.0679, 1103.752
214.5500, 1104.481
215.0322, 1098.754
215.5143, 1084.801
215.9964, 1076.415
216.4785, 1077.239
216.9606, 1080.117
217.4427, 1082.568
217.9249, 1084.771
218.4070, 1088.169
218.8891, 1094.113
219.3712, 1102.673
219.8533, 1111.232
220.3354, 1124.018
220.8176, 1132.530
221.2997, 1128.515
221.7818, 1118.403
222.2639, 1115.544
222.7460, 1130.722
223.2281, 1161.645
223.7103, 1182.171
224.1924, 1181.258
224.6745, 1181.285
225.1566, 1188.800
225.6387, 1199.833
226.1208, 1207.742
226.6030, 1208.332
227.0851, 1203.722
227.5672, 1202.781
228.0493, 1207.197
228.5314, 1213.475
229.0135, 1221.632
229.4957, 1230.928
229.9778, 1241.132
230.4599, 1252.232
230.9420, 1262.975
231.4241, 1270.016
231.9062, 1270.396
232.3884, 1272.001
232.8705, 1276.875
233.3526, 1282.650
233.8347, 1286.863
234.3168, 1288.768
234.7989, 1290.321
235.2811, 1295.052
235.7632, 1304.445
236.2453, 1313.630
236.7274, 1321.719
237.2095, 1329.877
237.6916, 1338.243
238.1738, 1347.127
238.6559, 1357.883
239.1380, 1370.810
239.6201, 1383.640
240.1022, 1407.672
240.5843, 1456.512
241.0665, 1505.792
241.5486, 1543.137
242.0307, 1568.898
242.5128, 1591.814
242.9949, 1622.778
243.4770, 1663.629
243.9592, 1690.851
244.4413, 1704.869
244.9234, 1702.950
245.4055, 1678.601
245.8876, 1636.711
246.3697, 1589.034
246.8519, 1542.688
247.3340, 1497.375
247.8161, 1452.855
248.2982, 1406.970
248.7803, 1364.964
249.2624, 1328.371
249.7446, 1296.251
250.2267, 1266.981
250.7088, 1238.910
251.1909, 1213.685
251.6730, 1196.955
252.1551, 1193.232
252.6373, 1188.888
253.1194, 1180.144
253.6015, 1168.392
254.0836, 1154.324
254.5657, 1137.656
255.0478, 1120.831
255.5300, 1107.842
256.0121, 1099.476
256.4942, 1092.131
256.9763, 1082.096
257.4584, 1074.347
257.9406, 1074.594
258.4227, 1084.326
258.9048, 1094.750
259.3869, 1096.080
259.8690, 1087.911
260.3511, 1079.632
260.8333, 1070.475
261.3154, 1064.133
261.7975, 1065.210
262.2796, 1073.162
262.7617, 1079.342
263.2438, 1074.325
263.7260, 1060.860
264.2081, 1056.037
264.6902, 1066.450
265.1723, 1078.345
265.6544, 1082.318
266.1365, 1079.683
266.6187, 1074.256
267.1008, 1063.516
267.5829, 1051.972
268.0650, 1050.505
268.5471, 1061.811
269.0292, 1075.177
269.5114, 1083.041
269.9935, 1087.915
270.4756, 1093.981
270.9577, 1102.176
271.4398, 1112.109
271.9219, 1125.766
272.4041, 1143.430
272.8862, 1154.913
273.3683, 1151.043
273.8504, 1139.482
274.3325, 1135.554
274.8146, 1143.172
275.2968, 1152.596
275.7789, 1157.560
276.2610, 1158.895
276.7431, 1160.475
277.2252, 1164.716
277.7073, 1168.245
278.1895, 1162.743
278.6716, 1144.346
279.1537, 1135.537
279.6358, 1153.906
280.1179, 1185.048
280.6000, 1202.804
281.0822, 1200.349
281.5643, 1191.204
282.0464, 1191.374
282.5285, 1201.737
283.0106, 1210.109
283.4927, 1214.487
283.9749, 1216.718
284.4570, 1219.372
284.9391, 1222.345
285.4212, 1221.706
285.9033, 1212.839
286.3854, 1196.070
286.8676, 1186.268
287.3497, 1185.913
287.8318, 1189.361
288.3139, 1194.334
288.7960, 1200.930
289.2781, 1211.066
289.7603, 1226.915
290.2424, 1245.294
290.7245, 1252.125
291.2066, 1233.910
291.6887, 1221.646
292.1708, 1224.088
292.6530, 1233.524
293.1351, 1240.957
293.6172, 1243.168
294.0993, 1241.565
294.5814, 1238.195
295.0635, 1229.137
295.5457, 1226.191
296.0278, 1234.193
296.5099, 1244.339
296.9920, 1251.513
297.4741, 1254.587
297.9562, 1253.971
298.4384, 1249.688
298.9205, 1241.108
299.4026, 1233.115
299.8847, 1223.759
300.3668, 1216.897
300.8489, 1215.501
301.3311, 1217.645
301.8131, 1219.564
302.2953, 1219.029
302.7774, 1216.012
303.2595, 1210.212
303.7416, 1199.999
304.2237, 1189.195
304.7058, 1177.872
305.1880, 1166.755
305.6701, 1156.382
306.1522, 1146.925
306.6343, 1138.790
307.1164, 1133.525
307.5985, 1132.734
308.0807, 1128.891
308.5628, 1114.530
309.0449, 1101.033
309.5270, 1096.774
310.0091, 1101.897
310.4912, 1108.370
310.9734, 1110.890
311.4555, 1109.347
311.9376, 1100.714
312.4197, 1076.792
312.9018, 1057.645
313.3839, 1059.387
313.8661, 1075.337
314.3482, 1088.202
314.8303, 1089.715
315.3124, 1083.612
315.7945, 1075.451
316.2766, 1064.852
316.7588, 1054.381
317.2409, 1043.988
317.7230, 1035.294
318.2051, 1031.203
318.6872, 1033.496
319.1693, 1037.968
319.6515, 1042.851
320.1336, 1047.673
320.6157, 1049.963
321.0978, 1047.923
321.5799, 1044.472
322.0620, 1044.780
322.5442, 1049.483
323.0263, 1053.023
323.5084, 1053.550
323.9905, 1052.171
324.4726, 1049.596
324.9547, 1045.958
325.4369, 1043.354
325.9190, 1044.553
326.4011, 1050.083
326.8832, 1051.286
327.3653, 1042.821
327.8474, 1035.090
328.3296, 1034.388
328.8117, 1039.441
329.2938, 1046.319
329.7759, 1053.306
330.2580, 1059.373
330.7401, 1059.591
331.2223, 1046.997
331.7044, 1037.147
332.1865, 1031.380
332.6686, 1029.228
333.1507, 1031.036
333.6328, 1036.635
334.1150, 1043.812
334.5971, 1049.593
335.0792, 1054.440
335.5613, 1056.349
336.0434, 1050.955
336.5255, 1046.807
337.0077, 1049.848
337.4898, 1058.474
337.9719, 1066.178
338.4540, 1066.596
338.9361, 1061.279
339.4182, 1065.090
339.9004, 1087.005
340.3825, 1104.763
340.8646, 1111.019
341.3467, 1110.272
341.8288, 1107.232
342.3109, 1103.058
342.7931, 1100.104
343.2752, 1102.771
343.7573, 1111.975
344.2394, 1120.354
344.7215, 1126.059
345.2036, 1130.349
345.6858, 1134.315
346.1679, 1138.004
346.6500, 1140.834
347.1321, 1142.479
347.6142, 1142.989
348.0963, 1142.228
348.5785, 1139.799
349.0606, 1137.291
349.5427, 1136.387
350.0248, 1136.462
350.5069, 1135.616
350.9890, 1131.562
351.4712, 1128.014
351.9533, 1130.376
352.4354, 1136.958
352.9175, 1138.365
353.3996, 1129.006
353.8817, 1113.097
354.3639, 1101.490
354.8460, 1094.724
355.3281, 1089.931
355.8102, 1087.648
356.2923, 1086.502
356.7744, 1085.075
357.2566, 1083.019
357.7387, 1080.450
358.2208, 1077.331
358.7029, 1073.329
359.1850, 1070.738
359.6671, 1070.977
360.1493, 1071.011
360.6314, 1068.510
361.1135, 1064.772
361.5956, 1062.670
362.0777, 1063.928
362.5598, 1067.940
363.0420, 1072.665
363.5241, 1079.471
364.0062, 1084.701
364.4883, 1089.353
364.9704, 1091.608
365.4525, 1088.198
365.9347, 1079.152
366.4168, 1070.215
366.8989, 1068.563
367.3810, 1074.683
367.8631, 1079.996
368.3452, 1085.999
368.8274, 1088.718
369.3095, 1084.371
369.7916, 1075.483
370.2737, 1068.286
370.7558, 1067.401
371.2379, 1068.461
371.7201, 1061.971
372.2022, 1046.613
372.6843, 1036.761
373.1664, 1041.938
373.6485, 1054.241
374.1306, 1061.485
374.6128, 1062.508
375.0949, 1061.389
375.5770, 1059.800
376.0591, 1057.617
376.5412, 1054.875
377.0233, 1051.706
377.5055, 1046.931
377.9876, 1038.704
378.4697, 1026.577
378.9518, 1016.413
379.4339, 1006.556
379.9160, 1000.262
380.3982, 1001.326
380.8803, 1007.807
381.3624, 1014.907
381.8445, 1020.314
382.3266, 1023.586
382.8087, 1023.310
383.2909, 1013.796
383.7730, 1008.203
384.2551, 1009.786
384.7372, 1013.406
385.2193, 1014.369
385.7014, 1012.269
386.1836, 1010.791
386.6657, 1015.682
387.1478, 1027.865
387.6299, 1027.774
388.1120, 1000.784
388.5941, 978.1631
389.0763, 969.7212
389.5584, 972.2144
390.0405, 981.4084
390.5226, 997.1190
391.0047, 1014.090
391.4868, 1024.651
391.9690, 1028.594
392.4511, 1027.243
392.9332, 1016.190
393.4153, 1004.131
393.8974, 999.2442
394.3795, 1001.585
394.8617, 1006.365
395.3438, 1015.959
395.8259, 1024.903
396.3080, 1021.010
396.7901, 1002.435
397.2722, 985.7653
397.7544, 984.1447
398.2365, 994.3633
398.7186, 997.7190
399.2007, 990.2574
399.6828, 980.5572
400.1649, 968.3824
400.6471, 956.9652
401.1292, 951.8039
401.6113, 954.7175
402.0934, 963.3567
402.5755, 974.8422
403.0576, 991.0355
403.5398, 1004.152
404.0219, 1019.019
404.5040, 1027.003
404.9861, 1017.885
405.4682, 998.0218
405.9503, 983.7376
406.4325, 986.4912
406.9146, 999.8576
407.3967, 999.3320
407.8788, 973.4795
408.3609, 957.4191
408.8430, 964.5420
409.3252, 978.8168
409.8073, 988.6347
410.2894, 992.0234
410.7715, 992.8786
411.2536, 993.8342
411.7357, 994.9255
412.2179, 996.6595
412.7000, 999.8252
413.1821, 1001.789
413.6642, 998.6859
414.1463, 993.1963
414.6284, 991.1226
415.1106, 997.6502
415.5927, 1002.828
416.0748, 998.1639
416.5569, 986.0685
417.0390, 972.0096
417.5211, 956.2417
418.0033, 945.4768
418.4854, 952.1802
418.9675, 985.0992
419.4496, 1005.289
419.9317, 1003.347
420.4138, 994.7906
420.8960, 986.8504
421.3781, 981.3345
421.8602, 980.6620
422.3423, 987.1279
422.8244, 998.0339
423.3065, 1001.467
423.7887, 991.2715
424.2708, 982.9750
424.7529, 979.0100
425.2350, 976.8459
425.7171, 973.3096
426.1992, 968.5325
426.6814, 966.8007
427.1635, 975.2000
427.6456, 992.3782
428.1277, 1000.862
428.6098, 997.7632
429.0919, 991.3723
429.5741, 983.1933
430.0562, 975.2559
430.5383, 971.4178
431.0204, 974.5923
431.5025, 977.6753
431.9846, 971.9197
432.4668, 960.6911
432.9489, 956.8164
433.4310, 964.5950
433.9131, 977.1146
434.3952, 987.0319
434.8773, 994.1295
435.3595, 999.5725
435.8416, 1003.380
436.3237, 1005.535
436.8058, 1006.527
437.2879, 1005.881
437.7701, 1002.110
438.2522, 994.3024
438.7343, 983.8641
439.2164, 973.9972
439.6985, 961.4997
440.1806, 955.7592
440.6628, 959.8351
441.1449, 967.3528
441.6270, 976.5557
442.1091, 985.7670
442.5912, 991.5823
443.0733, 990.5458
443.5555, 984.4207
444.0376, 980.3565
444.5197, 979.6208
445.0018, 977.3167
445.4839, 964.0873
445.9660, 952.3866
446.4482, 959.1573
446.9303, 989.5270
447.4124, 1013.690
447.8945, 1005.982
448.3766, 980.5734
448.8587, 967.6895
449.3409, 971.8438
449.8230, 980.3427
450.3051, 984.0892
450.7872, 983.3988
451.2693, 982.7078
451.7514, 982.4756
452.2336, 981.7167
452.7157, 977.7005
453.1978, 973.8315
453.6799, 976.9930
454.1620, 988.4921
454.6441, 999.8019
455.1263, 998.6547
455.6084, 981.5210
456.0905, 971.9702
456.5726, 977.0435
457.0547, 982.9144
457.5368, 986.2820
458.0190, 987.5198
458.5011, 988.0715
458.9832, 988.8311
459.4653, 987.6920
459.9474, 977.4657
460.4295, 957.8638
460.9117, 953.1928
461.3938, 977.6407
461.8759, 1005.333
462.3580, 1011.697
462.8401, 1000.411
463.3222, 989.8776
463.8044, 986.6846
464.2865, 985.0316
464.7686, 977.6985
465.2507, 966.8697
465.7328, 962.4576
466.2149, 969.7207
466.6971, 982.1949
467.1792, 986.8916
467.6613, 977.0536
468.1434, 973.7263
468.6255, 981.6146
469.1076, 991.7835
469.5898, 1002.383
470.0719, 1010.550
470.5540, 1009.448
471.0361, 993.2393
471.5182, 969.0393
472.0003, 958.0986
472.4825, 964.9457
472.9646, 972.9333
473.4467, 982.3818
473.9288, 989.0390
474.4109, 987.8552
474.8930, 979.6589
475.3752, 973.0402
475.8573, 975.6767
476.3394, 981.9296
476.8215, 980.4842
477.3036, 971.0183
477.7857, 964.8432
478.2679, 969.1915
478.7500, 979.0980
479.2321, 982.1616
479.7142, 975.9050
480.1963, 970.2547
480.6784, 967.2324
481.1606, 965.5223
481.6427, 963.3292
482.1248, 960.9882
482.6069, 961.0652
483.0890, 965.8994
483.5711, 974.2906
484.0533, 979.4441
484.5354, 978.1671
485.0175, 978.9120
485.4996, 986.8743
485.9817, 994.3131
486.4638, 993.2841
486.9460, 983.9378
487.4281, 975.1002
487.9102, 975.0777
488.3923, 980.7947
488.8744, 982.4118
489.3565, 979.0878
489.8387, 976.1938
490.3208, 977.1812
490.8029, 979.8932
491.2850, 979.7730
491.7671, 975.9824
492.2492, 971.8646
492.7314, 966.5518
493.2135, 962.6348
493.6956, 964.1757
494.1777, 970.8887
494.6598, 978.1942
495.1419, 982.6780
495.6241, 984.7046
496.1062, 986.7794
496.5883, 989.9903
497.0704, 991.6103
497.5525, 991.0096
498.0346, 989.0612
498.5168, 985.1758
498.9989, 980.0782
499.4810, 977.2679
499.9631, 982.1568
500.4452, 991.5518
500.9273, 992.4918
501.4095, 983.2786
501.8916, 972.5252
502.3737, 961.9154
502.8558, 953.1777
503.3379, 949.1063
503.8200, 950.7098
504.3022, 952.9914
504.7843, 953.9084
505.2664, 954.6288
505.7485, 956.7651
506.2306, 960.2451
506.7127, 963.7626
507.1949, 966.6678
507.6770, 968.6350
508.1591, 968.1713
508.6412, 962.9260
509.1233, 958.6076
509.6054, 956.3344
510.0876, 954.4254
510.5697, 951.4023
511.0518, 947.4391
511.5339, 943.7962
512.0161, 940.6060
512.4982, 938.8750
512.9803, 942.8729
513.4624, 954.0417
513.9445, 961.8186
514.4266, 960.5640
514.9088, 955.7552
515.3909, 955.5032
515.8730, 960.4166
516.3551, 962.0308
516.8372, 954.2750
517.3193, 944.7030
517.8015, 938.9891
518.2836, 937.6977
518.7657, 941.8533
519.2478, 952.7248
519.7299, 966.0659
520.2120, 971.2635
520.6942, 961.4681
521.1763, 956.5988
521.6584, 959.7636
522.1405, 964.3325
522.6226, 969.5333
523.1047, 973.1489
523.5869, 969.7159
524.0690, 953.7825
524.5511, 935.1501
525.0332, 932.2573
525.5153, 944.9782
525.9974, 952.6357
526.4796, 948.3191
526.9617, 940.7629
527.4438, 939.0514
527.9259, 942.5178
528.4080, 946.6875
528.8901, 949.8494
529.3723, 954.6494
529.8544, 967.5923
530.3365, 982.3892
530.8186, 985.1053
531.3007, 971.2867
531.7828, 951.4597
532.2650, 939.6979
532.7471, 936.6762
533.2292, 937.3503
533.7113, 944.1606
534.1934, 952.0848
534.6755, 961.2460
535.1577, 969.9543
535.6398, 976.4150
536.1219, 980.2337
536.6040, 980.8213
537.0861, 975.9757
537.5682, 967.4075
538.0504, 960.4636
538.5325, 955.7791
539.0146, 952.6599
539.4967, 950.0284
539.9788, 948.6965
540.4609, 952.5463
540.9431, 970.9710
541.4252, 981.2427
541.9073, 973.2296
542.3894, 958.6312
542.8715, 945.3318
543.3536, 936.2042
543.8358, 935.7880
544.3179, 950.2767
544.8000, 973.8475
545.2821, 978.3857
545.7642, 954.2446
546.2463, 937.5829
546.7285, 944.8554
547.2106, 957.6730
547.6927, 961.2576
548.1748, 955.9085
548.6569, 952.6342
549.1390, 960.2196
549.6211, 969.4404
550.1032, 967.9044
550.5853, 958.2625
551.0674, 953.7618
551.5496, 960.4446
552.0317, 970.4731
552.5138, 970.5800
552.9959, 955.9819
553.4780, 947.6577
553.9601, 948.2341
554.4423, 951.2654
554.9244, 957.4100
555.4065, 963.2975
555.8886, 963.2243
556.3707, 954.9440
556.8528, 944.7513
557.3350, 939.7673
557.8171, 939.6302
558.2992, 941.8931
558.7813, 947.1314
559.2634, 952.3997
559.7455, 957.2751
560.2277, 960.3332
560.7098, 957.4929
561.1919, 943.5930
561.6740, 932.7874
562.1561, 928.1627
562.6382, 929.6287
563.1204, 942.9923
563.6025, 964.5044
564.0846, 975.7032
564.5667, 960.8076
565.0488, 929.3680
565.5309, 921.5709
566.0131, 951.5577
566.4952, 969.3986
566.9773, 953.2759
567.4594, 932.9698
567.9415, 927.6855
568.4236, 935.3856
568.9058, 942.3434
569.3879, 941.7385
569.8700, 938.8334
570.3521, 939.3164
570.8342, 942.0632
571.3163, 942.5243
571.7985, 939.0146
572.2806, 936.0230
572.7627, 939.7237
573.2448, 951.4382
573.7269, 957.3606
574.2090, 951.0170
574.6912, 946.9844
575.1733, 950.5037
575.6554, 957.3741
576.1375, 962.8788
576.6196, 965.9710
577.1017, 968.6115
577.5839, 974.2200
578.0660, 980.7926
578.5481, 980.7298
579.0302, 973.2897
579.5123, 964.7589
579.9944, 957.3671
580.4766, 951.1063
580.9587, 946.6624
581.4408, 945.0607
581.9229, 940.8137
582.4050, 926.5553
582.8871, 915.4527
583.3693, 920.0924
583.8514, 934.4070
584.3335, 944.1684
584.8156, 942.7950
585.2977, 936.2558
585.7798, 933.0779
586.2620, 933.2441
586.7441, 938.2254
587.2262, 953.7350
587.7083, 964.7830
588.1904, 957.1467
588.6725, 940.9791
589.1547, 933.1610
589.6368, 938.3997
590.1189, 945.3970
590.6010, 949.6641
591.0831, 952.1270
591.5652, 952.5701
592.0474, 951.8566
592.5295, 954.8215
593.0116, 965.7197
593.4937, 979.4595
593.9758, 978.4738
594.4579, 951.5563
594.9401, 936.6015
595.4222, 949.7626
595.9043, 963.8317
596.3864, 963.7314
596.8685, 953.7542
597.3506, 946.4821
597.8328, 947.9762
598.3149, 950.8441
598.7970, 948.3950
599.2791, 942.1025
599.7612, 935.6205
600.2433, 929.6265
600.7255, 922.9481
601.2076, 913.2425
601.6897, 902.0332
602.1718, 901.9464
602.6539, 928.0601
603.1360, 944.7334
603.6182, 940.9605
604.1003, 933.5405
604.5824, 935.5959
605.0645, 946.2803
605.5466, 956.6437
606.0287, 962.7054
606.5109, 964.1630
606.9930, 957.6813
607.4751, 944.7144
607.9572, 937.6961
608.4393, 940.6849
608.9214, 946.4293
609.4036, 947.8558
609.8857, 944.9334
610.3678, 942.3552
610.8499, 937.5344
611.3320, 936.2706
611.8141, 946.4646
612.2963, 956.7454
612.7784, 951.9373
613.2605, 933.2476
613.7426, 918.2889
614.2247, 922.8394
614.7068, 938.4850
615.1890, 943.4575
615.6711, 937.1866
616.1532, 933.0656
616.6353, 935.0289
617.1174, 940.4374
617.5995, 948.7480
618.0817, 960.0436
618.5638, 962.2634
619.0459, 941.7338
619.5280, 927.3207
620.0101, 936.7719
620.4922, 955.3386
620.9744, 965.8591
621.4565, 964.3505
621.9386, 954.2013
622.4207, 933.7625
622.9028, 909.0995
623.3849, 908.7054
623.8671, 938.1844
624.3492, 958.7347
624.8313, 955.0817
625.3134, 941.6791
625.7955, 935.2201
626.2776, 935.2319
626.7598, 934.0442
627.2419, 927.4250
627.7240, 922.8294
628.2061, 924.7098
628.6882, 930.7449
629.1703, 939.6638
629.6525, 949.9688
630.1346, 955.5588
630.6167, 947.9795
631.0988, 930.9175
631.5809, 927.1902
632.0630, 941.7556
632.5452, 949.5867
633.0273, 936.5737
633.5094, 919.9939
633.9915, 922.1280
634.4736, 941.7097
634.9557, 953.3454
635.4379, 946.8203
635.9200, 936.5318
636.4021, 926.4351
636.8842, 919.3840
637.3663, 921.0507
637.8484, 917.3507
638.3306, 935.1581
638.8127, 945.0660
639.2948, 947.4987
639.7769, 920.0673
640.2590, 931.1992
640.7411, 926.8766
641.2233, 921.9203
641.7054, 938.4798
642.1875, 915.3920
642.6696, 931.6103
643.1517, 932.1384
643.6339, 939.8474
644.1160, 932.0066
644.5981, 928.9687
645.0802, 941.4856
645.5623, 945.3896
646.0444, 935.7589
646.5266, 943.9243
647.0087, 920.2933
647.4908, 924.5643
647.9729, 940.8736
648.4550, 932.0246
648.9371, 940.4744
649.4193, 942.3359
649.9014, 914.2560
650.3835, 938.2472
650.8656, 939.7194
651.3477, 918.0694
651.8298, 940.2764
652.3120, 921.8140
652.7941, 917.8682
653.2762, 924.8469
653.7583, 920.4371
654.2404, 933.9825
654.7225, 930.2305
655.2047, 924.9329
655.6868, 926.3798
656.1689, 908.7150
656.6510, 926.5062
657.1331, 920.0779
657.6152, 925.6887
658.0974, 934.0281
658.5795, 921.4734
659.0616, 931.0390
659.5437, 906.3011
660.0258, 910.2662
660.5079, 911.1405
660.9901, 930.3611
661.4722, 905.7904
661.9543, 917.7585
662.4364, 909.1215
662.9185, 908.3001
663.4006, 926.3262
663.8828, 952.6120
664.3649, 964.3577
664.8470, 961.2229
665.3291, 954.0910
665.8112, 943.2853
666.2933, 931.6599
666.7755, 919.8810
667.2576, 909.0628
667.7397, 903.2870
668.2218, 902.8779
668.7039, 906.8828
669.1860, 920.1866
669.6682, 933.6761
670.1503, 940.4674
670.6324, 941.1135
671.1145, 938.2554
671.5966, 932.6113
672.0787, 928.4080
672.5609, 933.1664
673.0430, 945.4719
673.5251, 956.4953
674.0072, 966.4729
674.4893, 968.3092
674.9714, 955.1008
675.4536, 932.9634
675.9357, 917.8282
676.4178, 911.9594
676.8999, 908.1819
677.3820, 907.4677
677.8641, 907.6438
678.3463, 907.2706
678.8284, 907.1113
679.3105, 908.4181
679.7926, 911.5876
680.2747, 916.4615
680.7568, 925.1202
681.2390, 934.7960
681.7211, 938.8864
682.2032, 937.1981
682.6853, 930.1199
683.1674, 915.7523
683.6495, 903.0879
684.1317, 908.0797
684.6138, 936.6600
685.0959, 951.3270
685.5780, 942.8047
686.0601, 931.4338
686.5422, 918.0007
687.0244, 906.5305
687.5065, 900.8510
687.9886, 901.3982
688.4707, 906.3503
688.9528, 919.5229
689.4349, 932.8682
689.9171, 935.5493
690.3992, 930.7585
690.8813, 927.7594
691.3634, 929.1033
691.8455, 932.7671
692.3276, 937.3709
692.8098, 942.3448
693.2919, 942.0931
693.7740, 933.8939
694.2561, 926.4630
694.7382, 921.0046
695.2203, 917.1746
695.7025, 914.6935
696.1846, 913.5979
696.6667, 914.2322
697.1488, 919.0079
697.6309, 922.0329
698.1130, 918.9584
698.5952, 913.0400
699.0773, 906.4893
699.5594, 900.8513
700.0415, 900.4017
700.5236, 908.3401
701.0057, 919.9384
701.4879, 925.2618
701.9700, 924.0408
702.4521, 922.5195
702.9342, 921.3301
703.4163, 919.6870
703.8984, 917.6982
704.3806, 914.6901
704.8627, 907.2016
705.3448, 888.4578
705.8269, 884.7142
706.3090, 918.3312
706.7911, 949.1597
707.2733, 950.4695
707.7554, 933.2808
708.2375, 915.6517
708.7196, 903.6584
709.2017, 898.5175
709.6838, 904.1122
710.1660, 916.7441
710.6481, 929.7589
711.1302, 942.5157
711.6123, 944.4589
712.0944, 929.9433
712.5765, 911.3239
713.0587, 904.3090
713.5408, 909.5937
714.0229, 911.6014
714.5050, 905.4309
714.9871, 902.7162
715.4692, 908.4003
715.9514, 915.6948
716.4335, 918.8829
716.9156, 918.3862
717.3977, 918.4482
717.8798, 921.8826
718.3619, 924.8359
718.8441, 922.2781
719.3262, 917.9170
719.8083, 919.7813
720.2904, 927.6561
720.7725, 932.7678
721.2546, 928.8535
721.7368, 919.8751
722.2189, 914.9943
722.7010, 914.4121
723.1831, 917.1747
723.6652, 925.8614
724.1473, 932.7900
724.6295, 934.6628
725.1116, 931.3499
725.5937, 920.9154
726.0758, 898.0534
726.5579, 887.0112
727.0400, 904.7993
727.5222, 922.7366
728.0043, 921.6791
728.4864, 909.9394
728.9685, 901.5676
729.4506, 900.5593
729.9327, 902.8261
730.4149, 905.5052
730.8970, 908.5208
731.3791, 912.9798
731.8612, 918.3334
732.3433, 918.0662
732.8254, 909.3786
733.3076, 900.4785
733.7897, 899.8255
734.2718, 906.8862
734.7539, 915.0304
735.2360, 929.9250
735.7181, 936.2930
736.2003, 927.1790
736.6824, 914.2990
737.1645, 900.5709
737.6466, 889.0861
738.1287, 888.0948
738.6108, 905.0569
739.0930, 919.7864
739.5751, 918.9000
740.0572, 911.0891
740.5393, 904.2996
741.0214, 900.0138
741.5035, 899.4041
741.9857, 903.0553
742.4678, 908.6701
742.9499, 914.9260
743.4320, 921.2366
743.9141, 916.7712
744.3962, 897.9969
744.8784, 888.2693
745.3605, 900.8691
745.8426, 920.2434
746.3247, 924.1700
746.8068, 910.1618
747.2889, 904.1445
747.7711, 915.5472
748.2532, 922.2129
748.7353, 916.0496
749.2174, 905.1295
749.6995, 895.3320
750.1816, 887.6902
750.6638, 881.8458
751.1459, 876.0408
751.6280, 875.0734
752.1101, 888.1877
752.5922, 907.5948
753.0743, 918.9730
753.5565, 920.8452
754.0386, 916.1467
754.5207, 905.7646
755.0028, 895.7592
755.4849, 901.1872
755.9670, 925.0851
756.4492, 934.3668
756.9313, 922.9012
757.4134, 910.6985
757.8955, 905.6111
758.3776, 905.0662
758.8597, 906.9395
759.3419, 912.1481
759.8240, 910.6052
760.3061, 894.5926
760.7882, 879.9515
761.2703, 871.7960
761.7524, 868.5375
762.2346, 867.9613
762.7167, 870.1312
763.1988, 877.9042
763.6809, 897.5917
764.1630, 915.1669
764.6451, 909.2751
765.1273, 889.5765
765.6094, 880.5532
766.0915, 884.9826
766.5736, 892.0773
767.0557, 895.2650
767.5378, 896.7250
768.0200, 902.7706
768.5021, 915.8063
768.9842, 917.1641
769.4663, 898.8207
769.9484, 885.6906
770.4305, 894.3398
770.9127, 910.1623
771.3948, 909.4043
771.8769, 890.1163
772.3590, 881.0345
772.8411, 895.5338
773.3232, 908.6937
773.8054, 909.2169
774.2875, 904.7053
774.7696, 905.0228
775.2517, 909.3486
775.7338, 907.7673
776.2159, 892.2563
776.6981, 874.1542
777.1802, 862.7684
777.6623, 859.3165
778.1444, 870.7619
778.6265, 895.5582
779.1086, 917.9749
779.5908, 929.3681
780.0729, 931.6235
780.5550, 925.8005
781.0371, 910.3152
781.5192, 904.0741
782.0013, 911.8313
782.4835, 915.7381
782.9656, 904.9940
783.4477, 890.9920
783.9298, 890.2820
784.4119, 903.2759
784.8940, 909.6128
785.3762, 903.5045
785.8583, 897.0296
786.3404, 891.0190
786.8225, 887.8622
787.3046, 891.5005
787.7867, 899.8321
788.2689, 905.9005
788.7510, 906.3964
789.2331, 905.2534
789.7152, 908.3220
790.1973, 910.6240
790.6794, 898.7980
791.1616, 877.3851
791.6437, 870.0665
792.1258, 887.0316
792.6079, 909.8940
793.0900, 912.8425
793.5721, 898.2092
794.0543, 888.9180
794.5364, 885.2728
795.0185, 885.3345
795.5006, 889.8524
795.9827, 895.2966
796.4648, 899.1567
796.9470, 901.1480
797.4291, 898.1086
797.9112, 878.6572
798.3933, 870.6866
798.8754, 888.9971
799.3575, 905.6255
799.8397, 901.2195
800.3218, 884.5237
800.8039, 872.4315
801.2860, 868.6028
801.7681, 870.9048
802.2502, 888.2522
802.7324, 902.4570
803.2145, 891.7695
803.6966, 867.1313
804.1787, 848.4907
804.6608, 841.6272
805.1429, 844.4307
805.6251, 859.0938
806.1072, 876.8417
806.5893, 873.7252
807.0714, 853.7418
807.5535, 849.8704
808.0356, 868.6682
808.5178, 887.5419
808.9999, 891.1914
809.4820, 885.5779
809.9641, 886.2704
810.4462, 896.8732
810.9283, 900.0762
811.4105, 889.7819
811.8926, 882.1381
812.3747, 890.2100
812.8568, 899.4821
813.3389, 888.2625
813.8210, 856.6702
814.3032, 840.8998
814.7853, 860.3454
815.2674, 878.4641
815.7495, 881.0935
816.2316, 878.3463
816.7137, 878.4557
817.1959, 881.9260
817.6780, 887.4906
818.1601, 895.8613
818.6422, 900.2220
819.1243, 889.6116
819.6064, 874.2191
820.0886, 871.0902
820.5707, 878.0272
821.0528, 884.5627
821.5349, 886.7878
822.0170, 884.0560
822.4991, 872.7695
822.9813, 857.4872
823.4634, 861.4454
823.9455, 886.0601
824.4276, 899.5598
824.9097, 892.9098
825.3918, 884.4249
825.8740, 888.9561
826.3561, 901.4089
826.8382, 904.1757
827.3203, 891.3235
827.8024, 882.4968
828.2845, 880.7078
828.7667, 879.2955
829.2488, 874.1698
829.7309, 869.1139
830.2130, 871.0002
830.6951, 880.0291
831.1772, 881.6190
831.6594, 863.8157
832.1415, 848.2625
832.6236, 845.8273
833.1057, 849.0468
833.5878, 850.1479
834.0699, 849.5344
834.5521, 851.9243
835.0342, 859.6772
835.5163, 869.4345
835.9984, 881.7446
836.4805, 892.1008
836.9626, 890.0681
837.4448, 878.9425
837.9269, 872.8029
838.4090, 876.1405
838.8911, 880.2843
839.3732, 875.0930
839.8553, 864.2903
840.3375, 862.2671
840.8196, 869.1956
841.3017, 876.5387
841.7838, 883.3388
842.2659, 887.9911
842.7480, 889.8853
843.2302, 888.2557
843.7123, 880.1991
844.1944, 861.3561
844.6765, 850.6184
845.1586, 849.1415
845.6407, 854.0527
846.1229, 872.9662
846.6050, 891.9376
847.0871, 893.1541
847.5692, 878.5862
848.0513, 874.7753
848.5334, 903.2954
849.0156, 918.6276
849.4977, 893.4661
849.9798, 863.9424
850.4619, 860.2645
850.9440, 874.1184
851.4261, 883.1484
851.9083, 880.3843
852.3904, 875.1014
852.8725, 870.8681
853.3546, 869.2789
853.8367, 875.2529
854.3188, 884.1756
854.8010, 885.6522
855.2831, 878.6151
855.7652, 871.0438
856.2473, 868.4088
856.7294, 869.6713
857.2115, 873.4435
857.6937, 879.5410
858.1758, 889.5156
858.6579, 903.0516
859.1400, 908.4658
859.6221, 899.6050
860.1042, 885.3729
860.5864, 878.1033
861.0685, 877.6477
861.5506, 880.3825
862.0327, 889.7725
862.5148, 886.8985
862.9969, 859.4187
863.4791, 834.6889
863.9612, 836.3906
864.4433, 857.2635
864.9254, 871.2311
865.4075, 877.1503
865.8896, 878.5229
866.3718, 871.2141
866.8539, 864.4950
867.3360, 859.7641
867.8181, 858.4440
868.3002, 864.2407
868.7823, 876.4755
869.2645, 884.6151
869.7466, 885.8972
870.2287, 882.6967
870.7108, 871.7792
871.1929, 860.1652
871.6750, 852.8154
872.1572, 850.2767
872.6393, 853.9221
873.1214, 864.5822
873.6035, 872.3443
874.0856, 864.7017
874.5677, 854.8758
875.0499, 861.8799
875.5320, 877.0685
876.0141, 880.8558
876.4962, 870.7781
876.9783, 858.2543
877.4604, 850.4866
877.9426, 846.4348
878.4247, 842.8124
878.9068, 841.5408
879.3889, 853.8679
879.8710, 878.7497
880.3531, 896.0131
880.8353, 897.2889
881.3174, 889.7860
881.7995, 880.1439
882.2816, 870.0092
882.7637, 872.4666
883.2458, 890.3655
883.7280, 899.0110
884.2101, 892.9500
884.6922, 881.1148
885.1743, 865.9810
885.6564, 852.7299
886.1385, 854.3838
886.6207, 876.8274
887.1028, 887.1642
887.5849, 876.9263
888.0670, 868.2280
888.5491, 869.6155
889.0313, 872.3418
889.5134, 865.8163
889.9955, 853.4745
890.4776, 851.5338
890.9597, 871.1617
891.4418, 882.9048
891.9240, 874.3258
892.4061, 866.1602
892.8882, 872.9069
893.3703, 884.8427
893.8524, 888.3495
894.3345, 881.8411
894.8167, 872.4525
895.2988, 856.7377
895.7809, 846.5397
896.2630, 853.9934
896.7451, 865.6584
897.2272, 865.7108
897.7094, 857.8132
898.1915, 855.8691
898.6736, 864.8973
899.1557, 873.4836
899.6378, 871.7975
900.1199, 865.1783
900.6021, 855.9125
901.0842, 848.1658
901.5663, 854.2379
902.0484, 872.8380
902.5305, 885.5334
903.0126, 880.1440
903.4948, 867.5350
903.9769, 862.7728
904.4590, 863.8769
904.9411, 865.5263
905.4232, 867.2738
905.9053, 868.4122
906.3875, 868.7036
906.8696, 867.3973
907.3517, 863.2944
907.8338, 857.8345
908.3159, 856.2900
908.7980, 858.7035
909.2802, 859.2508
909.7623, 857.2579
910.2444, 853.1411
910.7265, 845.7708
911.2086, 840.7621
911.6907, 847.8356
912.1729, 866.7186
912.6550, 874.8776
913.1371, 867.9791
913.6192, 864.7110
914.1013, 871.5536
914.5834, 875.8116
915.0656, 864.6467
915.5477, 848.0338
916.0298, 850.9107
916.5119, 882.4940
916.9940, 898.8258
917.4761, 887.6402
917.9583, 878.5443
918.4404, 884.1730
918.9225, 889.4313
919.4046, 878.4990
919.8867, 856.8901
920.3688, 845.7794
920.8510, 851.7755
921.3331, 856.9792
921.8152, 860.4225
922.2973, 860.7257
922.7794, 853.4734
923.2615, 845.1926
923.7437, 844.2834
924.2258, 850.4174
924.7079, 855.7372
925.1900, 858.4709
925.6721, 859.0773
926.1542, 856.4186
926.6364, 852.9342
927.1185, 848.8983
927.6006, 846.1383
928.0827, 847.9799
928.5648, 854.8231
929.0469, 862.3636
929.5291, 869.6805
930.0112, 875.1060
930.4933, 877.7300
930.9754, 877.5398
931.4575, 873.6341
931.9396, 866.9959
932.4218, 858.4060
932.9039, 848.2964
933.3860, 844.0662
933.8681, 858.3947
934.3502, 877.0935
934.8323, 882.1951
935.3145, 877.4366
935.7966, 868.6118
936.2787, 857.9336
936.7608, 847.6145
937.2429, 838.5942
937.7250, 834.7678
938.2072, 846.0186
938.6893, 863.9321
939.1714, 866.7831
939.6535, 858.3706
940.1356, 856.5175
940.6177, 864.3651
941.0999, 869.3585
941.5820, 862.1824
942.0641, 849.5941
942.5462, 843.4737
943.0283, 842.7950
943.5104, 841.6597
943.9926, 840.1354
944.4747, 843.4239
944.9568, 853.2623
945.4389, 862.9611
945.9210, 866.3860
946.4031, 865.4450
946.8853, 865.8152
947.3674, 867.4707
947.8495, 865.4907
948.3316, 859.2660
948.8137, 852.4255
949.2958, 845.9195
949.7780, 841.5162
950.2601, 841.1808
950.7422, 844.7162
951.2243, 852.2097
951.7064, 865.0272
952.1885, 872.5778
952.6707, 872.9946
953.1528, 871.2399
953.6349, 869.5308
954.1170, 866.8085
954.5991, 860.9589
955.0812, 852.3195
955.5634, 848.3249
956.0455, 851.8823
956.5276, 850.3999
957.0097, 838.0938
957.4918, 829.6687
957.9739, 834.9168
958.4561, 846.6943
958.9382, 853.5486
959.4203, 855.1812
959.9024, 856.4601
960.3845, 857.9504
960.8666, 857.8649
961.3488, 854.6562
961.8309, 851.5176
962.3130, 849.3297
962.7951, 849.0945
963.2772, 853.9705
963.7593, 866.1798
964.2415, 871.5580
964.7236, 864.8060
965.2057, 858.9245
965.6878, 858.4353
966.1699, 857.1523
966.6520, 847.2200
967.1342, 834.4351
967.6163, 834.1204
968.0984, 852.4884
968.5805, 859.6077
969.0626, 839.7687
969.5447, 827.6831
970.0269, 838.7161
970.5090, 854.5467
970.9911, 862.3922
971.4732, 863.7056
971.9553, 863.4905
972.4374, 862.2772
972.9196, 859.2817
973.4017, 849.1364
973.8838, 843.8728
974.3659, 854.9344
974.8480, 866.6287
975.3301, 860.1110
975.8123, 842.6227
976.2944, 840.0262
976.7765, 863.1558
977.2586, 878.4578
977.7407, 873.8181
978.2228, 865.4759
978.7050, 857.2619
979.1871, 851.2541
979.6692, 852.6039
980.1513, 857.7578
980.6334, 853.0835
981.1155, 829.9614
981.5977, 814.9702
982.0798, 821.0106
982.5619, 831.2227
983.0440, 837.5412
983.5261, 843.1314
984.0082, 853.2120
984.4904, 866.3542
984.9725, 875.9357
985.4546, 880.2899
985.9367, 880.7759
986.4188, 873.6159
986.9009, 867.5550
987.3831, 872.9217
987.8652, 878.6575
988.3473, 865.9924
988.8294, 840.2405
989.3115, 830.3533
989.7936, 852.3549
990.2758, 869.0520
990.7579, 860.1611
991.2400, 846.5512
991.7221, 837.6899
992.2042, 834.4854
992.6863, 840.3088
993.1685, 852.2753
993.6506, 858.3981
994.1327, 852.4058
994.6148, 846.9668
995.0969, 847.7373
995.5790, 850.9313
996.0612, 857.3469
996.5433, 862.4808
997.0254, 858.7058
997.5075, 847.9208
997.9896, 841.0170
998.4717, 841.5792
998.9539, 846.7926
999.4360, 864.1827
999.9181, 876.3692
1000.400, 862.7032
1000.882, 842.0270
1001.364, 840.9759
1001.847, 857.6100
1002.329, 869.4210
1002.811, 867.4196
1003.293, 863.8059
1003.775, 865.7657
1004.257, 866.5127
1004.739, 859.2776
1005.221, 849.4473
1005.703, 842.1368
1006.186, 838.9870
1006.668, 843.5731
1007.150, 861.4234
1007.632, 872.2894
1008.114, 861.1252
1008.596, 846.3870
1009.078, 837.6383
1009.560, 833.8544
1010.043, 833.4481
1010.525, 836.0023
1011.007, 841.9136
1011.489, 853.0559
1011.971, 861.0890
1012.453, 863.2405
1012.935, 860.3464
1013.417, 844.6412
1013.899, 830.1974
1014.382, 838.3066
1014.864, 862.1376
1015.346, 874.0337
1015.828, 864.5673
1016.310, 850.9570
1016.792, 834.9692
1017.274, 822.2319
1017.756, 812.6876
1018.239, 810.3426
1018.721, 824.5306
1019.203, 848.9514
1019.685, 864.6791
1020.167, 865.8113
1020.649, 866.1286
1021.131, 873.9034
1021.613, 877.1645
1022.095, 863.0982
1022.578, 848.2155
1023.060, 852.7859
1023.542, 868.2855
1024.024, 867.8524
1024.506, 842.1737
1024.988, 829.8760
1025.470, 853.6317
1025.952, 875.8702
1026.435, 884.4718
1026.917, 884.3855
1027.399, 875.6133
1027.881, 862.6894
1028.363, 853.3632
1028.845, 848.4305
1029.327, 849.1206
1029.809, 863.6850
1030.292, 872.7587
1030.774, 865.9310
1031.256, 857.2349
1031.738, 855.8765
1032.220, 859.4489
1032.702, 863.6678
1033.184, 868.3802
1033.666, 871.3146
1034.148, 875.8018
1034.630, 873.2663
1035.113, 847.8116
1035.595, 830.7533
1036.077, 853.6478
1036.559, 888.1367
1037.041, 886.6397
1037.523, 847.0798
1038.005, 826.9045
1038.487, 841.3282
1038.970, 851.2617
1039.452, 851.0163
1039.934, 850.6060
1040.416, 857.6209
1040.898, 863.7905
1041.380, 855.6775
1041.862, 835.6193
1042.344, 830.3983
1042.826, 850.2888
1043.309, 862.3582
1043.791, 862.6949
1044.273, 860.1448
1044.755, 855.6946
1045.237, 853.0139
1045.719, 857.2641
1046.201, 866.0983
1046.683, 868.3429
1047.166, 861.7971
1047.648, 855.7292
1048.130, 849.0151
1048.612, 847.2539
1049.094, 855.0466
1049.576, 860.2750
1050.058, 850.7460
1050.540, 833.6944
1051.022, 829.8592
1051.505, 841.1526
1051.987, 846.5814
1052.469, 845.5258
1052.951, 841.1009
1053.433, 832.7300
1053.915, 828.3121
1054.397, 833.3414
1054.879, 845.0180
1055.361, 860.2991
1055.844, 878.0722
1056.326, 884.1389
1056.808, 878.5819
1057.290, 873.5223
1057.772, 871.0569
1058.254, 864.8359
1058.736, 850.9200
1059.218, 839.1541
1059.701, 844.5733
1060.183, 860.9815
1060.665, 866.9941
1061.147, 864.5327
1061.629, 865.5017
1062.111, 870.0471
1062.593, 865.5040
1063.075, 847.5115
1063.557, 832.2383
1064.040, 837.1790
1064.522, 850.7758
1065.004, 849.7761
1065.486, 841.5489
1065.968, 847.5031
1066.450, 863.3787
1066.932, 868.5782
1067.414, 858.6268
1067.896, 845.3705
1068.379, 836.2333
1068.861, 829.6086
1069.343, 819.8334
1069.825, 814.3557
1070.307, 832.0387
1070.789, 858.7301
1071.271, 863.7416
1071.753, 846.7927
1072.236, 830.4102
1072.718, 824.0898
1073.200, 824.1308
1073.682, 832.4653
1074.164, 840.9988
1074.646, 842.0472
1075.128, 840.0297
1075.610, 839.3331
1076.093, 840.8449
1076.575, 845.4885
1077.057, 853.6436
1077.539, 860.5452
1078.021, 865.2365
1078.503, 866.7238
1078.985, 860.1901
1079.467, 854.5865
1079.949, 858.1725
1080.432, 866.8063
1080.914, 874.9675
1081.396, 881.5566
1081.878, 881.0736
1082.360, 870.5455
1082.842, 855.9066
1083.324, 824.2615
1083.806, 805.2285
1084.288, 823.0869
1084.771, 852.1522
1085.253, 863.8763
1085.735, 861.9724
1086.217, 866.2234
1086.699, 885.4747
1087.181, 886.0230
1087.663, 853.9096
1088.145, 831.6721
1088.628, 833.0345
1089.110, 842.4248
1089.592, 851.0889
1090.074, 856.8052
1090.556, 853.1866
1091.038, 839.5471
1091.520, 837.4103
1092.002, 834.9121
1092.484, 852.2195
1092.967, 862.0308
1093.449, 864.7478
1093.931, 839.1244
1094.413, 850.0967
1094.895, 846.4032
1095.377, 842.1083
1095.859, 858.2314
1096.341, 836.7300
1096.823, 852.5293
1097.306, 853.4392
1097.788, 861.1634
1098.270, 854.1311
1098.752, 851.6566
1099.234, 863.9434
1099.716, 868.0567
1100.198, 859.3257
1100.680, 867.4831
1101.163, 845.4666
1101.645, 849.9280
1102.127, 865.8137
1102.609, 857.8246
1103.091, 866.2518
1103.573, 868.4268
1104.055, 842.1880
1104.537, 865.3635
1105.020, 867.1694
1105.502, 847.0325
1105.984, 868.5149
1106.466, 851.4030
1106.948, 848.0669
1107.430, 855.0980
1107.912, 851.3216
1108.394, 864.5844
1108.876, 859.2560
1109.359, 862.2469
1109.841, 855.9867
1110.323, 850.1121
1110.805, 854.2924
1111.287, 859.5797
1111.769, 851.3433
1112.251, 833.0212
1112.733, 825.7286
1113.215, 835.3081
1113.698, 846.2950
1114.180, 865.8007
1114.662, 874.0164
1115.144, 856.7731
1115.626, 841.2634
1116.108, 848.5493
1116.590, 866.6223
1117.072, 873.2687
1117.555, 868.4357
1118.037, 861.1394
1118.519, 849.9420
1119.001, 845.2408
1119.483, 849.2974
1119.965, 853.1527
1120.447, 853.1874
1120.929, 850.5002
1121.411, 845.8187
1121.894, 840.2651
1122.376, 835.6573
1122.858, 832.7857
1123.340, 837.6613
1123.822, 848.6625
1124.304, 857.0751
1124.786, 860.5102
1125.268, 857.6514
1125.750, 847.3486
1126.233, 837.5035
1126.715, 837.8038
1127.197, 843.2722
1127.679, 850.3701
1128.161, 855.7829
1128.643, 850.9097
1129.125, 840.4398
1129.607, 838.0334
1130.090, 846.6877
1130.572, 857.0547
1131.054, 866.9474
1131.536, 873.0117
1132.018, 874.1921
1132.500, 870.2643
1132.982, 854.2431
1133.464, 837.9961
1133.947, 838.1124
1134.429, 850.9816
1134.911, 857.9957
1135.393, 855.1684
1135.875, 852.5582
1136.357, 849.7544
1136.839, 849.1501
1137.321, 854.1720
1137.803, 856.8066
1138.286, 850.2423
1138.768, 841.4882
1139.250, 841.6160
1139.732, 849.3335
1140.214, 851.4020
1140.696, 846.3259
1141.178, 848.5847
1141.660, 860.0634
1142.142, 868.0862
1142.625, 868.5306
1143.107, 865.1912
1143.589, 860.4497
1144.071, 856.5242
1144.553, 861.8903
1145.035, 869.6953
1145.517, 851.1531
1145.999, 818.1946
1146.482, 811.3971
1146.964, 829.8104
1147.446, 843.8971
1147.928, 842.8632
1148.410, 841.3639
1148.892, 852.1127
1149.374, 863.5497
1149.856, 867.9960
1150.339, 865.6503
1150.821, 848.4080
1151.303, 829.5241
1151.785, 830.9879
1152.267, 850.0842
1152.749, 863.6321
1153.231, 863.9252
1153.713, 866.9224
1154.195, 880.3902
1154.677, 891.3829
1155.160, 901.1698
1155.642, 901.2411
1156.124, 878.0493
1156.606, 849.2637
1157.088, 842.1184
1157.570, 854.4404
1158.052, 860.6959
1158.534, 860.1321
1159.017, 855.4390
1159.499, 844.8270
1159.981, 843.3120
1160.463, 856.7952
1160.945, 867.3723
1161.427, 860.9473
1161.909, 850.1905
1162.391, 861.2377
1162.874, 883.7192
1163.356, 879.0134
1163.838, 856.1809
1164.320, 843.0490
1164.802, 841.6392
1165.284, 845.0449
1165.766, 850.3433
1166.248, 854.9399
1166.730, 858.6558
1167.213, 857.1107
1167.695, 838.8372
1168.177, 821.8585
1168.659, 825.4109
1169.141, 837.7056
1169.623, 844.2374
1170.105, 845.2861
1170.587, 846.2679
1171.069, 847.7618
1171.552, 852.4571
1172.034, 865.6364
1172.516, 874.6150
1172.998, 877.1988
1173.480, 875.4404
1173.962, 866.6903
1174.444, 859.0753
1174.926, 862.8582
1175.409, 873.2261
1175.891, 871.5201
1176.373, 856.0567
1176.855, 855.4958
1177.337, 870.3796
1177.819, 873.3215
1178.301, 859.5851
1178.783, 848.8911
1179.266, 850.8526
1179.748, 855.9837
1180.230, 854.2604
1180.712, 849.7357
1181.194, 847.4200
1181.676, 847.9088
1182.158, 854.8269
1182.640, 864.3337
1183.122, 868.6879
1183.604, 867.3107
1184.087, 863.1849
1184.569, 856.5156
1185.051, 854.1030
1185.533, 863.3616
1186.015, 871.6411
1186.497, 871.2777
1186.979, 870.6063
1187.461, 880.5784
1187.944, 890.3881
1188.426, 880.6093
1188.908, 855.9115
1189.390, 845.8613
1189.872, 854.7886
1190.354, 864.1763
1190.836, 876.1105
1191.318, 877.7180
1191.801, 864.4387
1192.283, 852.7571
1192.765, 852.1780
1193.247, 856.6313
1193.729, 858.9679
1194.211, 860.0129
1194.693, 862.5303
1195.175, 865.1545
1195.657, 861.7277
1196.140, 855.6470
1196.622, 858.7733
1197.104, 871.1088
1197.586, 881.4738
1198.068, 885.1505
1198.550, 884.1731
1199.032, 873.5946
1199.514, 866.8071
1199.996, 876.1429
1200.479, 887.4036
1200.961, 892.2802
1201.443, 890.1044
1201.925, 874.9097
1202.407, 850.7750
1202.889, 848.1473
1203.371, 880.6844
1203.853, 889.3109
1204.336, 864.2089
1204.818, 847.4306
1205.300, 848.5901
1205.782, 853.3936
1206.264, 854.6019
1206.746, 853.5052
1207.228, 851.1888
1207.710, 848.5632
1208.193, 846.5714
1208.675, 846.5844
1209.157, 853.8046
1209.639, 866.3594
1210.121, 883.0383
1210.603, 899.0915
1211.085, 895.2322
1211.567, 863.2657
1212.049, 839.3347
1212.531, 852.9272
1213.014, 870.5093
1213.496, 874.9786
1213.978, 876.5248
1214.460, 886.1382
1214.942, 894.0865
1215.424, 882.2370
1215.906, 858.3594
1216.388, 853.3688
1216.871, 872.1683
1217.353, 878.5825
1217.835, 868.4199
1218.317, 863.7396
1218.799, 867.9049
1219.281, 876.6770
1219.763, 888.9194
1220.245, 897.0894
1220.728, 893.6213
1221.210, 884.9773
1221.692, 882.9670
1222.174, 883.8444
1222.656, 877.2156
1223.138, 868.6675
1223.620, 873.4875
1224.102, 886.8878
1224.584, 890.3088
1225.067, 879.6230
1225.549, 868.2407
1226.031, 860.5552
1226.513, 855.6949
1226.995, 853.9518
1227.477, 854.2355
1227.959, 857.0967
1228.441, 860.6926
1228.923, 862.7628
1229.406, 865.6691
1229.888, 874.6678
1230.370, 888.6206
1230.852, 893.0400
1231.334, 887.3611
##END=



