##NAMES=Millerite
##RRUFFID=R060898
##IDEAL CHEMISTRY=NiS
##LOCALITY=Orford, Quebec, Canada
##OWNER=RRUFF
##SOURCE=Royal Ontario Museum
##DESCRIPTION=Pale brass-yellow prismatic crystal with pronounced striations, associated with calcite and green grossular
##STATUS=The identification of this mineral is confirmed by single-crystal X-ray diffraction and chemical analysis.
##URL=rruff.info/R060898
##MEASURED CHEMISTRY=(Ni_0.97_Co_0.02_Fe_0.01_)_Î£=1_S_1.00_ ; trace amounts of As
179.8591, 12943.51
180.3412, 12952.92
180.8233, 12983.27
181.3055, 13012.13
181.7876, 13016.59
182.2697, 13001.88
182.7518, 12985.43
183.2339, 12969.18
183.7160, 12956.31
184.1981, 12953.18
184.6803, 12959.20
185.1624, 12978.22
185.6445, 13028.81
186.1266, 13103.56
186.6087, 13159.86
187.0908, 13163.43
187.5730, 13129.61
188.0551, 13120.87
188.5372, 13142.72
189.0193, 13175.83
189.5014, 13194.05
189.9835, 13198.00
190.4657, 13198.00
190.9478, 13194.79
191.4299, 13190.16
191.9120, 13200.50
192.3941, 13232.00
192.8762, 13269.21
193.3584, 13280.92
193.8405, 13266.07
194.3226, 13248.93
194.8047, 13246.45
195.2868, 13258.02
195.7689, 13262.21
196.2511, 13254.84
196.7332, 13241.45
197.2153, 13234.38
197.6974, 13233.52
198.1795, 13240.35
198.6616, 13260.44
199.1437, 13295.28
199.6259, 13319.93
200.1080, 13326.76
200.5901, 13322.94
201.0722, 13336.92
201.5543, 13373.26
202.0364, 13410.67
202.5186, 13429.02
203.0007, 13424.64
203.4828, 13425.52
203.9649, 13435.61
204.4470, 13454.39
204.9291, 13482.90
205.4113, 13525.92
205.8934, 13565.90
206.3755, 13582.09
206.8576, 13567.27
207.3397, 13560.89
207.8218, 13572.64
208.3040, 13601.57
208.7861, 13635.28
209.2682, 13680.62
209.7503, 13719.21
210.2324, 13728.61
210.7145, 13701.90
211.1967, 13670.80
211.6788, 13637.57
212.1609, 13601.56
212.6430, 13597.75
213.1251, 13638.92
213.6072, 13696.63
214.0893, 13736.18
214.5715, 13753.36
215.0536, 13762.97
215.5357, 13765.04
216.0178, 13756.55
216.4999, 13764.45
216.9820, 13795.63
217.4642, 13835.24
217.9463, 13862.59
218.4284, 13874.60
218.9105, 13879.02
219.3926, 13877.74
219.8747, 13870.45
220.3569, 13857.37
220.8390, 13835.19
221.3211, 13809.78
221.8032, 13788.92
222.2853, 13769.52
222.7674, 13762.13
223.2496, 13775.36
223.7317, 13822.04
224.2138, 13847.44
224.6959, 13842.91
225.1780, 13822.39
225.6601, 13811.19
226.1423, 13803.88
226.6244, 13815.58
227.1065, 13858.07
227.5886, 13955.76
228.0707, 14021.14
228.5528, 14045.40
229.0349, 14039.79
229.5171, 14031.22
229.9992, 14012.62
230.4813, 14000.93
230.9634, 14003.39
231.4455, 14022.37
231.9276, 14052.22
232.4098, 14105.01
232.8919, 14166.95
233.3740, 14191.14
233.8561, 14151.94
234.3382, 14113.05
234.8203, 14107.29
235.3025, 14159.21
235.7846, 14191.03
236.2667, 14188.09
236.7488, 14164.46
237.2309, 14172.19
237.7130, 14232.75
238.1952, 14295.49
238.6773, 14331.11
239.1594, 14315.20
239.6415, 14324.22
240.1236, 14366.04
240.6057, 14435.95
241.0879, 14516.76
241.5700, 14617.64
242.0521, 14716.17
242.5342, 14797.29
243.0163, 14844.35
243.4984, 14909.62
243.9805, 15006.90
244.4627, 15125.91
244.9448, 15213.28
245.4269, 15233.59
245.9090, 15266.77
246.3911, 15363.98
246.8732, 15560.71
247.3554, 15744.62
247.8375, 15902.19
248.3196, 16038.92
248.8017, 16194.15
249.2838, 16414.98
249.7659, 16589.09
250.2481, 16650.94
250.7302, 16589.03
251.2123, 16436.60
251.6944, 16157.71
252.1765, 15785.01
252.6586, 15481.58
253.1408, 15267.41
253.6229, 15095.75
254.1050, 14932.84
254.5871, 14767.48
255.0692, 14644.23
255.5513, 14578.87
256.0334, 14561.77
256.5156, 14533.61
256.9977, 14483.28
257.4798, 14437.63
257.9619, 14417.01
258.4440, 14433.69
258.9261, 14441.34
259.4083, 14431.93
259.8904, 14408.57
260.3725, 14388.77
260.8546, 14366.42
261.3367, 14356.29
261.8188, 14373.99
262.3010, 14436.41
262.7831, 14474.98
263.2652, 14474.07
263.7473, 14443.19
264.2294, 14432.09
264.7115, 14450.39
265.1937, 14470.52
265.6758, 14471.34
266.1579, 14446.12
266.6400, 14427.00
267.1221, 14419.46
267.6042, 14420.90
268.0864, 14420.79
268.5685, 14421.29
269.0506, 14416.26
269.5327, 14398.12
270.0148, 14361.79
270.4969, 14335.75
270.9791, 14321.55
271.4612, 14320.63
271.9433, 14345.33
272.4254, 14406.65
272.9075, 14463.33
273.3896, 14480.11
273.8718, 14448.56
274.3539, 14433.37
274.8360, 14446.88
275.3181, 14479.01
275.8002, 14490.92
276.2823, 14474.48
276.7645, 14466.70
277.2466, 14501.74
277.7287, 14586.03
278.2108, 14645.67
278.6929, 14669.41
279.1750, 14666.28
279.6572, 14650.43
280.1393, 14614.98
280.6214, 14602.79
281.1035, 14660.81
281.5856, 14790.15
282.0677, 14880.70
282.5498, 14919.29
283.0320, 14914.64
283.5141, 14872.79
283.9962, 14788.94
284.4783, 14715.16
284.9604, 14692.79
285.4425, 14718.44
285.9247, 14733.05
286.4068, 14727.87
286.8889, 14714.74
287.3710, 14715.53
287.8531, 14730.41
288.3352, 14752.04
288.8174, 14779.68
289.2995, 14811.77
289.7816, 14836.38
290.2637, 14848.48
290.7458, 14860.11
291.2279, 14897.99
291.7101, 14959.65
292.1922, 15011.87
292.6743, 15026.95
293.1564, 15015.60
293.6385, 15014.06
294.1206, 15026.24
294.6028, 15046.29
295.0849, 15067.66
295.5670, 15090.72
296.0491, 15116.50
296.5312, 15151.39
297.0133, 15189.39
297.4955, 15211.83
297.9776, 15213.92
298.4597, 15217.46
298.9418, 15256.35
299.4239, 15320.44
299.9060, 15373.81
300.3882, 15377.37
300.8703, 15363.80
301.3524, 15393.51
301.8345, 15474.27
302.3166, 15559.74
302.7987, 15612.22
303.2809, 15634.94
303.7630, 15637.91
304.2451, 15609.19
304.7272, 15569.51
305.2093, 15544.97
305.6914, 15536.72
306.1736, 15531.14
306.6557, 15521.33
307.1378, 15506.06
307.6199, 15483.41
308.1020, 15443.19
308.5841, 15401.70
309.0663, 15377.29
309.5484, 15370.26
310.0305, 15359.56
310.5126, 15330.37
310.9947, 15289.91
311.4768, 15247.54
311.9590, 15194.90
312.4411, 15150.74
312.9232, 15135.22
313.4053, 15145.81
313.8874, 15148.95
314.3695, 15117.32
314.8516, 15074.35
315.3337, 15042.52
315.8159, 15043.30
316.2980, 15043.10
316.7801, 15028.46
317.2622, 15000.61
317.7443, 14966.86
318.2264, 14909.58
318.7086, 14859.74
319.1907, 14840.52
319.6728, 14881.14
320.1549, 14924.94
320.6370, 14963.78
321.1191, 14995.47
321.6013, 15011.45
322.0834, 14992.07
322.5655, 14967.94
323.0476, 14954.58
323.5297, 14951.52
324.0118, 14962.45
324.4940, 15004.42
324.9761, 15062.14
325.4582, 15094.57
325.9403, 15069.19
326.4224, 15040.06
326.9045, 15028.04
327.3867, 15040.90
327.8688, 15058.10
328.3509, 15088.65
328.8330, 15121.76
329.3151, 15137.88
329.7972, 15117.74
330.2794, 15101.44
330.7615, 15099.91
331.2436, 15114.67
331.7257, 15141.43
332.2078, 15190.85
332.6899, 15246.76
333.1721, 15285.93
333.6542, 15301.73
334.1363, 15312.06
334.6184, 15323.75
335.1005, 15338.52
335.5826, 15332.90
336.0648, 15290.00
336.5469, 15247.21
337.0290, 15251.09
337.5111, 15321.82
337.9932, 15376.53
338.4753, 15388.69
338.9575, 15364.41
339.4396, 15369.34
339.9217, 15411.03
340.4038, 15462.62
340.8859, 15500.38
341.3680, 15522.37
341.8502, 15545.74
342.3323, 15571.76
342.8144, 15602.21
343.2965, 15643.99
343.7786, 15699.33
344.2607, 15754.75
344.7428, 15801.86
345.2249, 15841.27
345.7071, 15876.29
346.1892, 15906.04
346.6713, 15935.33
347.1534, 15978.09
347.6355, 16033.09
348.1176, 16082.33
348.5998, 16103.44
349.0819, 16109.27
349.5640, 16141.42
350.0461, 16208.47
350.5282, 16285.30
351.0103, 16345.96
351.4925, 16391.43
351.9746, 16427.24
352.4567, 16459.01
352.9388, 16480.95
353.4209, 16480.92
353.9030, 16456.81
354.3852, 16427.79
354.8673, 16418.60
355.3494, 16415.95
355.8315, 16395.64
356.3136, 16322.03
356.7957, 16244.77
357.2779, 16217.62
357.7600, 16239.61
358.2421, 16247.94
358.7242, 16184.81
359.2063, 16096.13
359.6884, 16030.84
360.1706, 16025.31
360.6527, 16026.30
361.1348, 16000.12
361.6169, 15954.32
362.0990, 15931.60
362.5811, 15962.47
363.0633, 16012.13
363.5454, 16057.80
364.0275, 16092.94
364.5096, 16126.39
364.9917, 16159.80
365.4738, 16192.93
365.9560, 16225.32
366.4381, 16253.08
366.9202, 16283.25
367.4023, 16316.08
367.8844, 16339.89
368.3665, 16393.03
368.8487, 16520.28
369.3308, 16668.22
369.8129, 16751.69
370.2950, 16706.37
370.7771, 16676.22
371.2592, 16709.12
371.7414, 16820.87
372.2235, 16878.77
372.7056, 16852.06
373.1877, 16798.86
373.6698, 16782.81
374.1519, 16821.09
374.6340, 16852.06
375.1161, 16860.34
375.5983, 16849.22
376.0804, 16850.56
376.5625, 16870.07
377.0446, 16887.57
377.5267, 16893.59
378.0089, 16890.65
378.4910, 16848.65
378.9731, 16753.11
379.4552, 16627.98
379.9373, 16531.27
380.4194, 16463.16
380.9016, 16414.60
381.3837, 16387.23
381.8658, 16377.54
382.3479, 16360.54
382.8300, 16332.06
383.3121, 16305.75
383.7943, 16311.39
384.2764, 16340.48
384.7585, 16352.71
385.2406, 16302.84
385.7227, 16229.49
386.2048, 16203.80
386.6870, 16227.07
387.1691, 16277.81
387.6512, 16363.57
388.1333, 16459.22
388.6154, 16521.48
389.0975, 16504.09
389.5797, 16471.16
390.0618, 16483.25
390.5439, 16533.06
391.0260, 16575.99
391.5081, 16605.16
391.9902, 16606.99
392.4724, 16564.08
392.9545, 16438.66
393.4366, 16325.46
393.9187, 16274.78
394.4008, 16268.59
394.8829, 16261.06
395.3651, 16227.98
395.8472, 16198.63
396.3293, 16190.57
396.8114, 16216.20
397.2935, 16230.00
397.7756, 16217.55
398.2578, 16190.98
398.7399, 16166.32
399.2220, 16127.60
399.7041, 16108.40
400.1862, 16123.86
400.6683, 16177.10
401.1505, 16210.00
401.6326, 16217.60
402.1147, 16209.46
402.5968, 16189.20
403.0789, 16141.81
403.5610, 16118.22
404.0432, 16132.00
404.5253, 16173.29
405.0074, 16203.03
405.4895, 16220.56
405.9716, 16228.66
406.4537, 16225.04
406.9358, 16208.28
407.4179, 16201.87
407.9001, 16210.17
408.3822, 16222.59
408.8643, 16218.56
409.3464, 16198.21
409.8285, 16183.34
410.3106, 16186.41
410.7928, 16202.47
411.2749, 16216.05
411.7570, 16227.23
412.2391, 16236.20
412.7212, 16237.90
413.2033, 16237.21
413.6855, 16248.00
414.1676, 16280.71
414.6497, 16319.82
415.1318, 16350.39
415.6139, 16372.02
416.0960, 16381.74
416.5782, 16362.09
417.0603, 16336.60
417.5424, 16333.06
418.0245, 16364.66
418.5066, 16396.13
418.9887, 16409.22
419.4709, 16408.02
419.9530, 16400.57
420.4351, 16367.54
420.9172, 16347.99
421.3993, 16374.29
421.8814, 16458.14
422.3636, 16509.77
422.8457, 16486.03
423.3278, 16432.91
423.8099, 16391.80
424.2920, 16376.27
424.7741, 16362.88
425.2563, 16345.78
425.7384, 16326.78
426.2205, 16319.64
426.7026, 16325.76
427.1847, 16341.81
427.6668, 16368.34
428.1490, 16414.75
428.6311, 16445.40
429.1132, 16451.78
429.5953, 16448.31
430.0774, 16464.95
430.5595, 16506.76
431.0417, 16546.72
431.5238, 16577.29
432.0059, 16597.98
432.4880, 16600.56
432.9701, 16583.10
433.4522, 16556.38
433.9344, 16522.48
434.4165, 16485.13
434.8986, 16465.86
435.3807, 16464.14
435.8628, 16490.55
436.3449, 16594.80
436.8270, 16763.40
437.3091, 16895.97
437.7913, 16897.52
438.2734, 16829.15
438.7555, 16779.15
439.2376, 16761.90
439.7197, 16750.96
440.2018, 16712.74
440.6840, 16666.73
441.1661, 16647.95
441.6482, 16700.82
442.1303, 16761.36
442.6124, 16792.90
443.0945, 16794.26
443.5767, 16787.10
444.0588, 16763.30
444.5409, 16743.39
445.0230, 16742.92
445.5051, 16795.29
445.9872, 16832.44
446.4694, 16839.61
446.9515, 16824.09
447.4336, 16807.92
447.9157, 16778.40
448.3978, 16762.80
448.8799, 16775.31
449.3621, 16828.42
449.8442, 16862.90
450.3263, 16876.15
450.8084, 16873.49
451.2905, 16854.10
451.7726, 16806.61
452.2548, 16785.06
452.7369, 16809.07
453.2190, 16867.64
453.7011, 16911.47
454.1832, 16939.56
454.6653, 16956.37
455.1475, 16962.15
455.6296, 16958.33
456.1117, 16954.53
456.5938, 16952.77
457.0759, 16948.97
457.5580, 16925.35
458.0402, 16891.38
458.5223, 16882.72
459.0044, 16948.45
459.4865, 17033.06
459.9686, 17061.87
460.4507, 17034.17
460.9329, 17000.32
461.4150, 16991.57
461.8971, 16998.03
462.3792, 17009.31
462.8613, 17024.81
463.3434, 17041.39
463.8256, 17056.15
464.3077, 17070.56
464.7898, 17088.97
465.2719, 17128.76
465.7540, 17159.15
466.2361, 17159.83
466.7183, 17112.13
467.2004, 17093.11
467.6825, 17132.22
468.1646, 17189.35
468.6467, 17225.14
469.1288, 17225.36
469.6109, 17225.95
470.0930, 17230.29
470.5752, 17238.59
471.0573, 17258.17
471.5394, 17299.20
472.0215, 17325.93
472.5036, 17301.94
472.9857, 17221.28
473.4679, 17193.12
473.9500, 17232.56
474.4321, 17300.87
474.9142, 17349.51
475.3963, 17378.97
475.8784, 17390.61
476.3606, 17372.13
476.8427, 17343.30
477.3248, 17350.15
477.8069, 17390.35
478.2890, 17427.07
478.7711, 17429.59
479.2533, 17413.28
479.7354, 17397.82
480.2175, 17385.99
480.6996, 17379.10
481.1817, 17373.98
481.6638, 17374.40
482.1460, 17387.92
482.6281, 17435.83
483.1102, 17480.11
483.5923, 17496.02
484.0744, 17479.12
484.5565, 17476.64
485.0387, 17515.26
485.5208, 17560.24
486.0029, 17586.04
486.4850, 17594.40
486.9671, 17578.39
487.4492, 17519.40
487.9314, 17439.67
488.4135, 17401.52
488.8956, 17424.41
489.3777, 17449.92
489.8598, 17456.75
490.3419, 17444.89
490.8241, 17433.26
491.3062, 17421.93
491.7883, 17412.38
492.2704, 17408.28
492.7525, 17408.97
493.2346, 17402.31
493.7168, 17379.95
494.1989, 17357.09
494.6810, 17363.38
495.1631, 17394.48
495.6452, 17428.23
496.1273, 17458.97
496.6095, 17480.64
497.0916, 17480.90
497.5737, 17457.45
498.0558, 17431.50
498.5379, 17407.76
499.0200, 17393.29
499.5021, 17396.70
499.9843, 17446.70
500.4664, 17488.95
500.9485, 17499.55
501.4306, 17486.03
501.9127, 17474.85
502.3948, 17470.66
502.8770, 17470.26
503.3591, 17467.29
503.8412, 17448.91
504.3233, 17471.61
504.8054, 17555.83
505.2875, 17663.34
505.7697, 17759.50
506.2518, 17852.91
506.7339, 17906.23
507.2160, 17899.58
507.6981, 17853.32
508.1802, 17840.94
508.6624, 17865.98
509.1445, 17893.96
509.6266, 17904.47
510.1087, 17900.80
510.5908, 17893.56
511.0729, 17882.32
511.5551, 17875.84
512.0372, 17895.61
512.5193, 17927.16
513.0014, 17937.62
513.4835, 17912.30
513.9656, 17866.49
514.4478, 17789.28
514.9299, 17695.80
515.4120, 17642.15
515.8941, 17698.24
516.3762, 17770.86
516.8583, 17798.15
517.3405, 17761.40
517.8226, 17727.71
518.3047, 17709.01
518.7868, 17700.96
519.2689, 17699.29
519.7510, 17704.04
520.2332, 17714.97
520.7153, 17735.80
521.1974, 17762.84
521.6795, 17781.98
522.1616, 17795.21
522.6437, 17796.24
523.1259, 17773.46
523.6080, 17725.08
524.0901, 17712.94
524.5722, 17744.55
525.0543, 17786.88
525.5364, 17800.74
526.0186, 17791.83
526.5007, 17792.12
526.9828, 17814.41
527.4649, 17842.48
527.9470, 17855.80
528.4291, 17855.26
528.9113, 17845.48
529.3934, 17807.23
529.8755, 17774.64
530.3576, 17791.52
530.8397, 17865.65
531.3218, 17917.23
531.8040, 17883.12
532.2861, 17820.88
532.7682, 17784.14
533.2503, 17819.44
533.7324, 17838.57
534.2145, 17813.53
534.6967, 17763.71
535.1788, 17740.59
535.6609, 17761.81
536.1430, 17785.74
536.6251, 17798.85
537.1072, 17800.93
537.5894, 17806.16
538.0715, 17814.64
538.5536, 17826.24
539.0357, 17841.85
539.5178, 17861.18
539.9999, 17878.98
540.4821, 17893.93
540.9642, 17906.78
541.4463, 17916.84
541.9284, 17924.92
542.4105, 17935.68
542.8926, 17950.17
543.3748, 17968.70
543.8569, 17998.24
544.3390, 18036.35
544.8210, 18060.36
545.3032, 18039.49
545.7853, 18008.87
546.2674, 18000.16
546.7495, 18031.28
547.2316, 18057.34
547.7137, 18068.71
548.1959, 18067.41
548.6780, 18056.15
549.1601, 18007.69
549.6422, 17984.00
550.1243, 18004.33
550.6064, 18061.94
551.0886, 18105.56
551.5707, 18133.61
552.0528, 18151.30
552.5349, 18157.31
553.0170, 18150.88
553.4991, 18154.83
553.9813, 18171.13
554.4634, 18191.84
554.9455, 18208.14
555.4276, 18220.75
555.9097, 18232.06
556.3918, 18240.51
556.8740, 18251.31
557.3561, 18271.36
557.8382, 18299.48
558.3203, 18331.42
558.8024, 18367.51
559.2845, 18404.99
559.7667, 18438.40
560.2488, 18465.98
560.7309, 18508.53
561.2130, 18598.56
561.6951, 18691.02
562.1772, 18752.40
562.6594, 18726.44
563.1415, 18737.46
563.6236, 18806.94
564.1057, 18906.69
564.5878, 18984.71
565.0699, 19035.68
565.5521, 19075.30
566.0342, 19105.88
566.5163, 19128.30
566.9984, 19147.38
567.4805, 19161.82
567.9626, 19183.00
568.4448, 19226.35
568.9269, 19283.67
569.4090, 19330.46
569.8911, 19363.52
570.3732, 19388.28
570.8553, 19435.53
571.3375, 19474.16
571.8196, 19446.65
572.3017, 19266.17
572.7838, 19085.25
573.2659, 18995.23
573.7480, 18973.63
574.2302, 18944.62
574.7123, 18878.19
575.1944, 18806.77
575.6765, 18740.06
576.1586, 18676.17
576.6407, 18633.70
577.1229, 18628.83
577.6050, 18628.40
578.0871, 18604.42
578.5692, 18548.92
579.0513, 18500.44
579.5334, 18458.64
580.0156, 18431.23
580.4977, 18443.75
580.9798, 18493.25
581.4619, 18526.49
581.9440, 18515.78
582.4261, 18480.52
582.9083, 18446.36
583.3904, 18415.83
583.8725, 18405.44
584.3546, 18451.80
584.8367, 18507.99
585.3188, 18524.98
585.8010, 18488.71
586.2831, 18454.44
586.7652, 18441.80
587.2473, 18444.69
587.7294, 18456.79
588.2115, 18501.32
588.6937, 18524.43
589.1758, 18507.79
589.6579, 18469.63
590.1400, 18457.72
590.6221, 18487.96
591.1042, 18508.02
591.5864, 18495.22
592.0685, 18455.01
592.5506, 18432.71
593.0327, 18428.86
593.5148, 18439.94
593.9969, 18473.17
594.4791, 18519.63
594.9612, 18552.78
595.4433, 18569.92
595.9254, 18574.43
596.4075, 18557.50
596.8896, 18532.58
597.3718, 18522.18
597.8539, 18555.37
598.3360, 18581.27
598.8181, 18554.02
599.3002, 18497.93
599.7823, 18484.92
600.2645, 18598.92
600.7466, 18691.27
601.2287, 18697.92
601.7108, 18611.19
602.1929, 18566.02
602.6750, 18579.35
603.1572, 18608.05
603.6393, 18623.72
604.1214, 18625.32
604.6035, 18621.98
605.0856, 18611.25
605.5677, 18603.89
606.0498, 18618.64
606.5319, 18650.76
607.0140, 18679.76
607.4962, 18698.84
607.9783, 18712.08
608.4604, 18727.33
608.9425, 18741.03
609.4246, 18741.66
609.9067, 18687.04
610.3889, 18647.19
610.8710, 18681.52
611.3531, 18798.06
611.8352, 18877.95
612.3173, 18870.55
612.7994, 18840.26
613.2816, 18826.35
613.7637, 18839.33
614.2458, 18844.56
614.7279, 18833.61
615.2100, 18825.77
615.6921, 18859.85
616.1743, 18942.46
616.6564, 18981.58
617.1385, 18939.42
617.6206, 18863.73
618.1027, 18852.13
618.5848, 18895.36
619.0670, 18939.79
619.5491, 18951.82
620.0312, 18952.42
620.5133, 18960.21
620.9954, 18975.87
621.4775, 19001.49
621.9597, 19063.36
622.4418, 19117.92
622.9239, 19129.10
623.4060, 19062.02
623.8881, 19024.83
624.3702, 19057.56
624.8524, 19107.56
625.3345, 19119.89
625.8166, 19075.88
626.2987, 19040.91
626.7808, 19022.21
627.2629, 19018.61
627.7451, 19033.29
628.2272, 19066.58
628.7093, 19093.82
629.1914, 19104.74
629.6735, 19102.54
630.1556, 19087.99
630.6378, 19063.40
631.1199, 19045.44
631.6020, 19052.92
632.0841, 19067.73
632.5662, 19070.59
633.0483, 19056.09
633.5305, 19050.27
634.0126, 19077.58
634.4947, 19110.16
634.9768, 19123.04
635.4589, 19086.48
635.9410, 19070.18
636.4232, 19082.19
636.9053, 19110.84
637.3874, 19139.00
637.8695, 19168.61
638.3516, 19185.58
638.8337, 19182.89
639.3159, 19167.03
639.7980, 19157.32
640.2801, 19152.82
640.7622, 19142.97
641.2443, 19106.12
641.7264, 19067.78
642.2086, 19071.63
642.6907, 19118.17
643.1728, 19157.11
643.6549, 19140.54
644.1370, 19117.28
644.6191, 19129.78
645.1013, 19209.21
645.5834, 19270.42
646.0655, 19292.16
646.5476, 19294.73
647.0297, 19296.87
647.5118, 19298.47
647.9940, 19294.25
648.4761, 19268.75
648.9582, 19249.01
649.4403, 19325.31
649.9224, 19496.91
650.4045, 19615.11
650.8867, 19583.77
651.3688, 19479.99
651.8509, 19455.19
652.3330, 19498.86
652.8151, 19544.53
653.2972, 19530.33
653.7794, 19513.43
654.2615, 19558.47
654.7436, 19681.55
655.2257, 19758.91
655.7078, 19698.31
656.1899, 19614.05
656.6721, 19593.02
657.1542, 19675.71
657.6363, 19750.40
658.1184, 19816.26
658.6005, 19875.38
659.0826, 19933.76
659.5648, 19993.25
660.0469, 20026.07
660.5290, 20019.77
661.0111, 19993.07
661.4932, 19970.90
661.9753, 19956.75
662.4575, 19965.31
662.9396, 20013.63
663.4217, 20081.88
663.9038, 20162.57
664.3859, 20252.23
664.8680, 20326.60
665.3502, 20362.95
665.8323, 20393.32
666.3144, 20436.87
666.7965, 20501.19
667.2786, 20548.35
667.7607, 20573.88
668.2428, 20585.55
668.7249, 20585.44
669.2070, 20569.88
669.6891, 20561.98
670.1713, 20566.30
670.6534, 20565.41
671.1355, 20533.82
671.6176, 20476.39
672.0997, 20414.84
672.5818, 20358.71
673.0640, 20295.50
673.5461, 20196.29
674.0282, 20083.06
674.5103, 20000.09
674.9924, 20010.26
675.4745, 20011.48
675.9567, 19947.63
676.4388, 19829.98
676.9209, 19753.31
677.4030, 19757.42
677.8851, 19753.06
678.3672, 19696.16
678.8494, 19586.42
679.3315, 19538.82
679.8136, 19563.92
680.2957, 19600.95
680.7778, 19600.31
681.2599, 19570.69
681.7421, 19538.65
682.2242, 19504.44
682.7063, 19479.27
683.1884, 19482.59
683.6705, 19496.63
684.1526, 19498.95
684.6348, 19484.76
685.1169, 19456.64
685.5990, 19398.29
686.0811, 19332.01
686.5632, 19292.83
687.0453, 19293.44
687.5275, 19305.68
688.0096, 19334.85
688.4917, 19369.92
688.9738, 19375.29
689.4559, 19346.87
689.9380, 19325.66
690.4202, 19331.91
690.9023, 19354.80
691.3844, 19370.14
691.8665, 19377.84
692.3486, 19380.10
692.8307, 19370.92
693.3129, 19361.13
693.7950, 19357.95
694.2771, 19361.61
694.7592, 19377.97
695.2413, 19426.15
695.7234, 19475.40
696.2056, 19508.98
696.6877, 19539.65
697.1698, 19513.47
697.6519, 19400.72
698.1340, 19275.12
698.6161, 19224.55
699.0983, 19250.50
699.5804, 19242.10
700.0625, 19173.51
700.5446, 19099.56
701.0267, 19100.58
701.5089, 19153.51
701.9910, 19203.12
702.4731, 19234.04
702.9552, 19249.91
703.4373, 19242.69
703.9194, 19222.24
704.4016, 19211.54
704.8837, 19231.77
705.3658, 19245.08
705.8479, 19240.94
706.3300, 19221.27
706.8121, 19194.12
707.2943, 19151.83
707.7764, 19123.26
708.2585, 19125.79
708.7406, 19153.99
709.2227, 19177.56
709.7048, 19196.83
710.1870, 19213.28
710.6691, 19229.51
711.1512, 19243.05
711.6333, 19250.90
712.1154, 19252.72
712.5975, 19250.41
713.0797, 19239.37
713.5618, 19227.99
714.0439, 19223.48
714.5260, 19232.82
715.0081, 19236.69
715.4902, 19232.68
715.9724, 19224.63
716.4545, 19212.20
716.9366, 19191.92
717.4187, 19197.35
717.9008, 19241.03
718.3829, 19292.92
718.8651, 19306.59
719.3472, 19290.20
719.8293, 19269.69
720.3114, 19248.57
720.7935, 19234.60
721.2756, 19238.58
721.7578, 19254.66
722.2399, 19269.06
722.7220, 19270.46
723.2041, 19277.52
723.6862, 19310.52
724.1683, 19357.52
724.6505, 19351.44
725.1326, 19263.68
725.6147, 19196.61
726.0968, 19205.13
726.5789, 19271.41
727.0610, 19292.95
727.5432, 19270.67
728.0253, 19252.28
728.5074, 19277.60
728.9895, 19323.63
729.4716, 19368.06
729.9537, 19409.52
730.4358, 19424.75
730.9179, 19373.90
731.4000, 19313.72
731.8821, 19284.73
732.3643, 19308.55
732.8464, 19318.37
733.3285, 19300.54
733.8106, 19284.60
734.2927, 19304.46
734.7748, 19363.94
735.2570, 19397.65
735.7391, 19399.08
736.2212, 19375.93
736.7033, 19313.52
737.1854, 19235.44
737.6675, 19202.43
738.1497, 19251.46
738.6318, 19305.93
739.1139, 19317.81
739.5960, 19302.30
740.0781, 19282.33
740.5602, 19247.62
741.0424, 19229.83
741.5245, 19236.62
742.0066, 19261.99
742.4887, 19293.13
742.9708, 19330.76
743.4529, 19369.90
743.9351, 19412.04
744.4172, 19450.70
744.8993, 19468.90
745.3814, 19468.03
745.8635, 19459.95
746.3456, 19443.62
746.8278, 19427.21
747.3099, 19426.08
747.7920, 19434.44
748.2741, 19422.73
748.7562, 19344.32
749.2383, 19279.53
749.7205, 19269.38
750.2026, 19314.04
750.6847, 19351.90
751.1668, 19395.83
751.6489, 19404.73
752.1310, 19325.81
752.6132, 19178.41
753.0953, 19117.53
753.5774, 19144.76
754.0595, 19199.21
754.5416, 19247.58
755.0237, 19287.04
755.5059, 19309.79
755.9880, 19310.77
756.4701, 19321.21
756.9522, 19375.96
757.4343, 19428.94
757.9164, 19440.90
758.3986, 19390.54
758.8807, 19352.92
759.3628, 19331.70
759.8449, 19318.39
760.3270, 19304.68
760.8091, 19291.49
761.2913, 19283.31
761.7734, 19281.72
762.2555, 19285.85
762.7376, 19302.05
763.2197, 19322.22
763.7018, 19331.38
764.1840, 19317.26
764.6661, 19306.34
765.1482, 19314.58
765.6303, 19330.73
766.1124, 19337.42
766.5945, 19324.82
767.0767, 19317.38
767.5588, 19316.86
768.0409, 19321.94
768.5230, 19329.55
769.0051, 19339.27
769.4872, 19359.02
769.9694, 19402.43
770.4515, 19438.67
770.9336, 19400.10
771.4157, 19319.89
771.8978, 19280.37
772.3799, 19364.84
772.8621, 19449.92
773.3442, 19485.28
773.8263, 19478.63
774.3084, 19462.50
774.7905, 19439.10
775.2726, 19405.23
775.7548, 19348.81
776.2369, 19284.62
776.7190, 19285.21
777.2011, 19350.63
777.6832, 19411.19
778.1653, 19426.56
778.6475, 19417.83
779.1296, 19413.19
779.6117, 19411.46
780.0938, 19407.42
780.5759, 19360.88
781.0580, 19344.60
781.5402, 19430.03
782.0223, 19619.93
782.5044, 19695.72
782.9865, 19595.07
783.4686, 19484.72
783.9507, 19441.72
784.4329, 19459.82
784.9150, 19468.88
785.3971, 19468.67
785.8792, 19477.34
786.3613, 19531.22
786.8434, 19591.28
787.3256, 19591.53
787.8077, 19530.48
788.2898, 19481.93
788.7719, 19498.60
789.2540, 19525.54
789.7361, 19523.74
790.2183, 19481.62
790.7004, 19466.80
791.1825, 19486.23
791.6646, 19518.93
792.1467, 19559.08
792.6288, 19603.02
793.1109, 19607.51
793.5930, 19568.18
794.0751, 19533.45
794.5573, 19558.75
795.0394, 19607.83
795.5215, 19634.18
796.0036, 19628.87
796.4857, 19618.31
796.9678, 19603.27
797.4500, 19593.81
797.9321, 19597.86
798.4142, 19620.13
798.8963, 19642.76
799.3784, 19665.53
799.8605, 19690.69
800.3427, 19734.89
800.8248, 19787.27
801.3069, 19788.01
801.7890, 19724.97
802.2711, 19647.79
802.7532, 19587.21
803.2354, 19543.64
803.7175, 19517.53
804.1996, 19514.67
804.6817, 19515.96
805.1638, 19511.45
805.6459, 19513.45
806.1281, 19539.22
806.6102, 19604.71
807.0923, 19623.71
807.5744, 19581.63
808.0565, 19522.41
808.5386, 19497.75
809.0208, 19499.54
809.5029, 19504.81
809.9850, 19508.16
810.4671, 19517.51
810.9492, 19551.14
811.4313, 19588.24
811.9135, 19605.05
812.3956, 19585.10
812.8777, 19560.28
813.3598, 19526.70
813.8419, 19493.95
814.3240, 19468.68
814.8062, 19449.54
815.2883, 19467.47
815.7704, 19536.96
816.2525, 19606.91
816.7346, 19601.35
817.2167, 19551.40
817.6989, 19518.04
818.1810, 19525.17
818.6631, 19536.66
819.1452, 19531.18
819.6273, 19522.46
820.1094, 19530.72
820.5916, 19582.68
821.0737, 19597.76
821.5558, 19555.46
822.0379, 19497.56
822.5200, 19488.19
823.0021, 19521.73
823.4843, 19553.86
823.9664, 19576.41
824.4485, 19590.65
824.9306, 19595.66
825.4127, 19593.28
825.8948, 19585.77
826.3770, 19564.06
826.8591, 19551.04
827.3412, 19555.81
827.8233, 19569.51
828.3054, 19586.34
828.7875, 19613.27
829.2697, 19609.83
829.7518, 19560.36
830.2339, 19505.48
830.7160, 19513.77
831.1981, 19563.85
831.6802, 19591.80
832.1624, 19576.39
832.6445, 19549.39
833.1266, 19522.96
833.6087, 19501.94
834.0908, 19492.29
834.5729, 19505.44
835.0551, 19516.85
835.5372, 19528.16
836.0193, 19535.10
836.5014, 19527.46
836.9835, 19505.29
837.4656, 19496.45
837.9478, 19507.07
838.4299, 19526.10
838.9120, 19554.03
839.3941, 19578.23
839.8762, 19575.46
840.3583, 19520.81
840.8405, 19476.54
841.3226, 19470.66
841.8047, 19482.64
842.2868, 19489.87
842.7689, 19490.62
843.2510, 19490.72
843.7332, 19489.04
844.2153, 19489.70
844.6974, 19497.18
845.1795, 19511.29
845.6616, 19534.45
846.1437, 19570.79
846.6259, 19600.08
847.1080, 19601.50
847.5901, 19590.37
848.0722, 19583.05
848.5543, 19583.53
849.0364, 19587.58
849.5186, 19600.59
850.0007, 19610.86
850.4828, 19605.82
850.9649, 19585.79
851.4470, 19560.09
851.9291, 19528.25
852.4113, 19502.97
852.8933, 19501.51
853.3754, 19512.82
853.8575, 19521.65
854.3397, 19524.25
854.8218, 19528.28
855.3039, 19537.25
855.7860, 19548.28
856.2681, 19558.25
856.7502, 19564.85
857.2324, 19580.48
857.7145, 19608.56
858.1966, 19631.73
858.6787, 19619.94
859.1608, 19591.51
859.6429, 19601.33
860.1251, 19656.80
860.6072, 19705.61
861.0893, 19716.21
861.5714, 19704.33
862.0535, 19675.00
862.5356, 19615.96
863.0178, 19596.84
863.4999, 19641.48
863.9820, 19685.95
864.4641, 19679.07
864.9462, 19627.44
865.4283, 19594.76
865.9105, 19581.95
866.3926, 19587.44
866.8747, 19638.92
867.3568, 19689.86
867.8389, 19680.81
868.3210, 19607.64
868.8032, 19556.29
869.2853, 19562.98
869.7674, 19582.99
870.2495, 19603.57
870.7316, 19624.38
871.2137, 19627.15
871.6959, 19609.50
872.1780, 19604.85
872.6601, 19653.84
873.1422, 19718.87
873.6243, 19735.37
874.1064, 19709.78
874.5886, 19689.14
875.0707, 19701.90
875.5528, 19717.26
876.0349, 19719.96
876.5170, 19711.91
876.9991, 19703.24
877.4813, 19689.13
877.9634, 19692.74
878.4455, 19734.11
878.9276, 19791.18
879.4097, 19808.14
879.8918, 19792.28
880.3740, 19770.77
880.8561, 19751.34
881.3382, 19736.69
881.8203, 19730.59
882.3024, 19730.94
882.7845, 19729.87
883.2667, 19720.61
883.7488, 19723.09
884.2309, 19743.58
884.7130, 19775.02
885.1951, 19802.34
885.6772, 19826.32
886.1594, 19855.74
886.6415, 19903.70
887.1236, 19939.03
887.6057, 19917.40
888.0878, 19870.31
888.5699, 19847.85
889.0521, 19891.19
889.5342, 19919.42
890.0163, 19923.56
890.4984, 19913.91
890.9805, 19895.67
891.4626, 19869.90
891.9448, 19878.69
892.4269, 19935.16
892.9090, 19995.03
893.3911, 20006.67
893.8732, 19994.17
894.3553, 19990.76
894.8375, 20007.97
895.3196, 20019.85
895.8017, 20009.24
896.2838, 20000.38
896.7659, 20015.78
897.2480, 20061.30
897.7302, 20081.24
898.2123, 20072.92
898.6944, 20050.80
899.1765, 20019.51
899.6586, 19987.40
900.1407, 19968.27
900.6229, 19963.95
901.1050, 19964.35
901.5871, 19969.66
902.0692, 19975.72
902.5513, 19980.66
903.0334, 19984.52
903.5156, 19989.30
903.9977, 19996.65
904.4798, 19994.62
904.9619, 19931.11
905.4440, 19869.88
905.9261, 20002.17
906.4083, 20276.42
906.8904, 20451.70
907.3725, 20320.33
907.8546, 20145.63
908.3367, 20020.65
908.8188, 19950.71
909.3010, 19967.00
909.7831, 20104.41
910.2652, 20197.76
910.7473, 20186.35
911.2294, 20116.55
911.7115, 20068.92
912.1937, 20039.56
912.6758, 20015.57
913.1579, 19990.89
913.6400, 19971.31
914.1221, 19956.74
914.6042, 19949.94
915.0863, 19955.90
915.5684, 19979.40
916.0505, 20003.33
916.5327, 20026.60
917.0148, 20049.44
917.4969, 20074.53
917.9790, 20100.06
918.4611, 20119.55
918.9432, 20131.38
919.4254, 20140.89
919.9075, 20146.17
920.3896, 20154.34
920.8717, 20173.69
921.3538, 20211.03
921.8359, 20238.96
922.3181, 20257.69
922.8002, 20265.33
923.2823, 20242.87
923.7644, 20206.22
924.2465, 20221.10
924.7286, 20287.67
925.2108, 20378.09
925.6929, 20547.46
926.1750, 20672.18
926.6571, 20635.99
927.1392, 20434.73
927.6213, 20316.38
928.1035, 20317.73
928.5856, 20329.04
929.0677, 20307.89
929.5498, 20267.39
930.0319, 20240.25
930.5140, 20227.24
930.9962, 20229.43
931.4783, 20271.53
931.9604, 20305.42
932.4425, 20292.63
932.9246, 20252.17
933.4067, 20229.24
933.8889, 20233.43
934.3710, 20239.65
934.8531, 20245.23
935.3352, 20249.60
935.8173, 20250.62
936.2994, 20249.39
936.7816, 20240.53
937.2637, 20207.96
937.7458, 20223.81
938.2279, 20426.70
938.7100, 20652.88
939.1921, 20719.30
939.6743, 20532.29
940.1564, 20410.51
940.6385, 20370.67
941.1206, 20359.60
941.6027, 20334.05
942.0848, 20301.34
942.5670, 20293.88
943.0491, 20311.30
943.5312, 20321.03
944.0133, 20284.13
944.4954, 20247.93
944.9775, 20254.01
945.4597, 20300.89
945.9418, 20304.02
946.4239, 20237.66
946.9060, 20199.07
947.3881, 20235.02
947.8702, 20313.43
948.3524, 20367.62
948.8345, 20397.61
949.3166, 20403.13
949.7987, 20368.82
950.2808, 20326.49
950.7629, 20269.05
951.2451, 20221.43
951.7272, 20233.67
952.2093, 20339.54
952.6914, 20400.33
953.1735, 20390.60
953.6556, 20356.73
954.1378, 20358.60
954.6199, 20384.08
955.1020, 20408.00
955.5841, 20426.76
956.0662, 20438.29
956.5483, 20427.84
957.0305, 20420.62
957.5126, 20440.13
957.9947, 20492.61
958.4768, 20523.74
958.9589, 20532.26
959.4410, 20528.38
959.9232, 20512.35
960.4053, 20491.44
960.8874, 20480.61
961.3695, 20477.78
961.8516, 20471.82
962.3337, 20433.34
962.8159, 20417.64
963.2980, 20461.53
963.7801, 20539.70
964.2622, 20583.85
964.7443, 20591.39
965.2264, 20587.97
965.7086, 20580.37
966.1907, 20566.04
966.6728, 20528.23
967.1549, 20484.73
967.6370, 20468.11
968.1191, 20503.38
968.6013, 20535.61
969.0834, 20545.04
969.5655, 20555.35
970.0476, 20596.84
970.5297, 20672.05
971.0118, 20685.65
971.4940, 20628.94
971.9761, 20586.96
972.4582, 20648.79
972.9403, 20749.99
973.4224, 20832.58
973.9045, 20891.23
974.3867, 20929.33
974.8688, 20939.95
975.3509, 20940.09
975.8330, 20923.68
976.3151, 20905.13
976.7972, 20949.85
977.2793, 21048.75
977.7614, 21142.44
978.2435, 21208.59
978.7256, 21253.55
979.2078, 21260.63
979.6899, 21255.24
980.1720, 21283.21
980.6541, 21372.64
981.1362, 21449.93
981.6183, 21509.03
982.1005, 21559.66
982.5826, 21614.54
983.0647, 21670.97
983.5468, 21722.62
984.0289, 21770.10
984.5110, 21793.09
984.9932, 21785.76
985.4753, 21745.13
985.9574, 21643.95
986.4395, 21483.94
986.9216, 21414.75
987.4037, 21458.92
987.8859, 21495.84
988.3680, 21457.25
988.8501, 21381.20
989.3322, 21337.87
989.8143, 21318.07
990.2964, 21295.68
990.7786, 21256.52
991.2607, 21217.52
991.7428, 21187.98
992.2249, 21159.15
992.7070, 21112.01
993.1891, 21042.98
993.6713, 21010.64
994.1534, 21027.11
994.6355, 21051.56
995.1176, 21035.05
995.5997, 21005.65
996.0818, 21000.66
996.5640, 21030.19
997.0461, 21045.74
997.5282, 21019.62
998.0103, 21008.64
998.4924, 21049.90
998.9745, 21129.21
999.4567, 21170.98
999.9388, 21177.08
1000.421, 21160.73
1000.903, 21091.68
1001.385, 21038.98
1001.867, 21072.83
1002.349, 21155.27
1002.831, 21193.58
1003.314, 21161.66
1003.796, 21139.73
1004.278, 21137.36
1004.760, 21146.37
1005.242, 21159.26
1005.724, 21174.77
1006.206, 21188.46
1006.688, 21198.63
1007.171, 21216.84
1007.653, 21267.99
1008.135, 21311.61
1008.617, 21325.97
1009.099, 21311.36
1009.581, 21269.54
1010.063, 21196.56
1010.545, 21142.57
1011.027, 21164.95
1011.510, 21192.53
1011.992, 21102.53
1012.474, 20947.45
1012.956, 20854.93
1013.438, 20923.06
1013.920, 20971.85
1014.402, 20968.54
1014.884, 20949.58
1015.367, 20967.60
1015.849, 21016.75
1016.331, 21062.29
1016.813, 21100.94
1017.295, 21120.98
1017.777, 21098.32
1018.259, 21065.15
1018.741, 21042.55
1019.223, 21032.17
1019.706, 21051.14
1020.188, 21114.65
1020.670, 21154.27
1021.152, 21118.25
1021.634, 21055.81
1022.116, 21078.96
1022.598, 21161.18
1023.080, 21232.18
1023.563, 21277.92
1024.045, 21287.89
1024.527, 21221.01
1025.009, 21144.67
1025.491, 21149.47
1025.973, 21238.00
1026.455, 21275.85
1026.937, 21248.68
1027.419, 21206.82
1027.901, 21172.26
1028.384, 21161.50
1028.866, 21208.75
1029.348, 21315.99
1029.830, 21376.09
1030.312, 21369.19
1030.794, 21344.43
1031.276, 21312.29
1031.758, 21280.39
1032.241, 21270.38
1032.723, 21277.41
1033.205, 21284.79
1033.687, 21281.67
1034.169, 21286.03
1034.651, 21329.96
1035.133, 21368.92
1035.615, 21344.20
1036.098, 21231.46
1036.580, 21207.97
1037.062, 21284.91
1037.544, 21371.65
1038.026, 21390.17
1038.508, 21377.73
1038.990, 21373.63
1039.472, 21379.20
1039.954, 21386.83
1040.437, 21393.65
1040.919, 21405.10
1041.401, 21424.24
1041.883, 21447.90
1042.365, 21474.25
1042.847, 21500.55
1043.329, 21515.90
1043.811, 21519.54
1044.293, 21507.04
1044.776, 21455.89
1045.258, 21402.74
1045.740, 21382.47
1046.222, 21400.23
1046.704, 21405.94
1047.186, 21398.20
1047.668, 21387.15
1048.150, 21365.09
1048.633, 21352.55
1049.115, 21394.78
1049.597, 21470.91
1050.079, 21516.49
1050.561, 21473.52
1051.043, 21454.42
1051.525, 21483.15
1052.007, 21527.98
1052.490, 21532.11
1052.972, 21509.92
1053.454, 21533.04
1053.936, 21616.03
1054.418, 21682.14
1054.900, 21665.88
1055.382, 21627.34
1055.864, 21603.10
1056.346, 21592.79
1056.828, 21586.52
1057.311, 21584.04
1057.793, 21585.25
1058.275, 21590.39
1058.757, 21599.04
1059.239, 21618.32
1059.721, 21639.37
1060.203, 21646.47
1060.685, 21624.72
1061.168, 21606.76
1061.650, 21594.89
1062.132, 21587.68
1062.614, 21593.50
1063.096, 21603.47
1063.578, 21569.67
1064.060, 21495.88
1064.542, 21441.10
1065.025, 21443.24
1065.507, 21469.02
1065.989, 21509.96
1066.471, 21559.73
1066.953, 21611.07
1067.435, 21666.47
1067.917, 21684.19
1068.399, 21646.45
1068.881, 21601.89
1069.364, 21603.97
1069.846, 21627.87
1070.328, 21642.29
1070.810, 21636.10
1071.292, 21656.29
1071.774, 21724.67
1072.256, 21768.96
1072.738, 21733.91
1073.220, 21654.66
1073.703, 21625.24
1074.185, 21635.02
1074.667, 21652.50
1075.149, 21672.38
1075.631, 21687.43
1076.113, 21684.72
1076.595, 21685.49
1077.077, 21728.92
1077.559, 21814.41
1078.042, 21823.81
1078.524, 21749.02
1079.006, 21667.42
1079.488, 21625.31
1079.970, 21614.11
1080.452, 21637.70
1080.934, 21691.63
1081.416, 21734.26
1081.899, 21761.13
1082.381, 21791.27
1082.863, 21828.21
1083.345, 21871.78
1083.827, 21929.41
1084.309, 21989.88
1084.791, 22033.82
1085.273, 22048.44
1085.755, 22076.68
1086.238, 22137.11
1086.720, 22194.90
1087.202, 22235.07
1087.684, 22256.67
1088.166, 22264.36
1088.648, 22252.73
1089.130, 22194.64
1089.612, 21987.07
1090.094, 21833.39
1090.577, 21884.85
1091.059, 22013.14
1091.541, 22042.93
1092.023, 21960.55
1092.505, 21905.03
1092.987, 21884.28
1093.469, 21899.85
1093.951, 21989.28
1094.434, 22087.54
1094.916, 22131.03
1095.398, 22121.17
1095.880, 22108.96
1096.362, 22099.65
1096.844, 22078.95
1097.326, 22034.38
1097.808, 21997.08
1098.291, 22033.16
1098.773, 22107.20
1099.255, 22140.52
1099.737, 22100.58
1100.219, 22114.05
1100.701, 22284.28
1101.183, 22425.30
1101.665, 22438.33
1102.147, 22353.88
1102.630, 22318.52
1103.112, 22320.59
1103.594, 22299.69
1104.076, 22173.00
1104.558, 22094.01
1105.040, 22205.21
1105.522, 22364.71
1106.004, 22399.97
1106.486, 22291.11
1106.969, 22221.62
1107.451, 22197.86
1107.933, 22181.38
1108.415, 22133.05
1108.897, 22087.53
1109.379, 22086.66
1109.861, 22118.64
1110.343, 22127.87
1110.826, 22103.79
1111.308, 22084.65
1111.790, 22079.46
1112.272, 22073.97
1112.754, 22036.71
1113.236, 21992.73
1113.718, 21984.02
1114.200, 22017.79
1114.682, 22058.11
1115.165, 22109.13
1115.647, 22145.81
1116.129, 22158.83
1116.611, 22150.33
1117.093, 22112.05
1117.575, 22056.62
1118.057, 22028.04
1118.539, 22052.02
1119.021, 22076.11
1119.504, 22070.28
1119.986, 22064.56
1120.468, 22089.02
1120.950, 22142.65
1121.432, 22134.79
1121.914, 22070.82
1122.396, 22019.80
1122.878, 22026.09
1123.361, 22055.47
1123.843, 22106.42
1124.325, 22158.24
1124.807, 22171.58
1125.289, 22134.72
1125.771, 22115.10
1126.253, 22116.65
1126.735, 22138.20
1127.218, 22188.88
1127.700, 22250.87
1128.182, 22312.76
1128.664, 22369.61
1129.146, 22398.69
1129.628, 22381.50
1130.110, 22384.53
1130.592, 22429.75
1131.074, 22477.63
1131.557, 22448.39
1132.039, 22389.16
1132.521, 22399.24
1133.003, 22507.06
1133.485, 22560.93
1133.967, 22496.85
1134.449, 22423.78
1134.931, 22374.09
1135.413, 22352.22
1135.896, 22390.94
1136.378, 22468.48
1136.860, 22515.48
1137.342, 22493.75
1137.824, 22473.48
1138.306, 22483.90
1138.788, 22502.39
1139.270, 22517.84
1139.752, 22528.76
1140.235, 22512.40
1140.717, 22472.85
1141.199, 22449.04
1141.681, 22471.08
1142.163, 22505.05
1142.645, 22545.82
1143.127, 22580.16
1143.609, 22587.08
1144.092, 22564.05
1144.574, 22546.64
1145.056, 22537.87
1145.538, 22522.50
1146.020, 22459.86
1146.502, 22411.68
1146.984, 22458.30
1147.466, 22569.25
1147.948, 22601.67
1148.431, 22524.27
1148.913, 22510.73
1149.395, 22603.69
1149.877, 22707.27
1150.359, 22702.80
1150.841, 22652.67
1151.323, 22629.19
1151.805, 22640.60
1152.287, 22638.77
1152.770, 22610.59
1153.252, 22593.25
1153.734, 22596.25
1154.216, 22619.30
1154.698, 22679.68
1155.180, 22753.61
1155.662, 22800.10
1156.144, 22807.72
1156.627, 22796.66
1157.109, 22764.66
1157.591, 22729.16
1158.073, 22698.33
1158.555, 22671.83
1159.037, 22634.03
1159.519, 22598.71
1160.001, 22606.60
1160.484, 22722.69
1160.966, 22796.23
1161.448, 22776.23
1161.930, 22732.69
1162.412, 22714.91
1162.894, 22719.96
1163.376, 22748.76
1163.858, 22792.12
1164.340, 22795.48
1164.823, 22660.41
1165.305, 22570.23
1165.787, 22625.79
1166.269, 22727.54
1166.751, 22743.39
1167.233, 22685.70
1167.715, 22694.71
1168.197, 22778.14
1168.679, 22839.42
1169.162, 22780.34
1169.644, 22717.58
1170.126, 22719.34
1170.608, 22760.79
1171.090, 22797.48
1171.572, 22828.48
1172.054, 22841.75
1172.536, 22831.43
1173.019, 22832.56
1173.501, 22896.21
1173.983, 22961.79
1174.465, 22975.76
1174.947, 22948.27
1175.429, 22930.33
1175.911, 22921.86
1176.393, 22936.39
1176.875, 22987.05
1177.358, 23030.14
1177.840, 23010.53
1178.322, 22970.94
1178.804, 22953.30
1179.286, 22960.59
1179.768, 22980.26
1180.250, 23013.33
1180.732, 23047.85
1181.214, 23080.36
1181.697, 23108.18
1182.179, 23126.42
1182.661, 23138.88
1183.143, 23152.01
1183.625, 23169.77
1184.107, 23173.29
1184.589, 23161.37
1185.071, 23139.49
1185.554, 23098.34
1186.036, 23060.43
1186.518, 23060.90
1187.000, 23085.52
1187.482, 23105.31
1187.964, 23111.47
1188.446, 23125.36
1188.928, 23150.99
1189.411, 23171.90
1189.893, 23169.50
1190.375, 23158.28
1190.857, 23162.81
1191.339, 23176.99
1191.821, 23177.62
1192.303, 23151.30
1192.785, 23129.30
1193.267, 23111.28
1193.750, 23106.71
1194.232, 23136.75
1194.714, 23180.29
1195.196, 23207.11
1195.678, 23216.32
1196.160, 23215.21
1196.642, 23182.99
1197.124, 23192.55
1197.606, 23275.31
1198.089, 23353.79
1198.571, 23291.70
1199.053, 23168.21
1199.535, 23116.79
1200.017, 23151.19
1200.499, 23194.21
1200.981, 23239.98
1201.463, 23274.71
1201.945, 23291.47
1202.428, 23301.08
1202.910, 23318.18
1203.392, 23341.56
1203.874, 23377.60
1204.356, 23433.05
1204.838, 23443.50
1205.320, 23365.80
1205.802, 23307.29
1206.285, 23310.19
1206.767, 23348.09
1207.249, 23372.76
1207.731, 23391.23
1208.213, 23420.10
1208.695, 23469.78
1209.177, 23501.92
1209.659, 23504.19
1210.141, 23503.81
1210.624, 23515.73
1211.106, 23531.75
1211.588, 23527.27
1212.070, 23512.81
1212.552, 23514.88
1213.034, 23559.26
1213.516, 23573.14
1213.998, 23529.39
1214.480, 23494.52
1214.963, 23520.21
1215.445, 23578.52
1215.927, 23600.07
1216.409, 23594.03
1216.891, 23583.13
1217.373, 23558.20
1217.855, 23563.25
1218.337, 23619.13
1218.820, 23669.74
1219.302, 23664.54
1219.784, 23624.23
1220.266, 23585.95
1220.748, 23557.50
1221.230, 23563.24
1221.712, 23662.34
1222.194, 23715.30
1222.677, 23691.95
1223.159, 23659.55
1223.641, 23690.88
1224.123, 23755.25
1224.605, 23784.65
1225.087, 23785.47
1225.569, 23793.10
1226.051, 23851.66
1226.533, 23859.32
1227.016, 23779.61
1227.498, 23705.43
1227.980, 23763.71
1228.462, 23887.87
1228.944, 23959.32
1229.426, 23976.62
1229.908, 23975.05
1230.390, 23955.21
1230.872, 23928.99
1231.355, 23891.02
1231.837, 23866.39
1232.319, 23912.27
1232.801, 23980.01
1233.283, 23966.67
1233.765, 23878.18
1234.247, 23859.56
1234.729, 23975.52
1235.212, 24075.17
1235.694, 24133.47
1236.176, 24158.02
1236.658, 24136.47
1237.140, 24098.88
1237.622, 24094.20
1238.104, 24125.54
1238.586, 24140.87
1239.068, 24131.07
1239.551, 24118.19
1240.033, 24105.88
1240.515, 24098.49
1240.997, 24103.42
1241.479, 24116.47
1241.961, 24130.10
1242.443, 24144.25
1242.925, 24178.39
1243.407, 24243.03
1243.890, 24287.24
1244.372, 24291.05
1244.854, 24282.77
1245.336, 24295.28
1245.818, 24317.13
1246.300, 24335.33
1246.782, 24347.27
1247.264, 24356.62
1247.747, 24362.92
1248.229, 24364.30
1248.711, 24359.53
1249.193, 24350.74
1249.675, 24329.69
1250.157, 24313.24
1250.639, 24322.51
1251.121, 24359.30
1251.604, 24414.09
1252.086, 24491.73
1252.568, 24532.96
1253.050, 24504.73
1253.532, 24461.69
1254.014, 24451.13
1254.496, 24455.17
1254.978, 24459.60
1255.460, 24462.98
1255.943, 24419.79
1256.425, 24330.62
1256.907, 24337.44
1257.389, 24557.30
1257.871, 24754.90
1258.353, 24730.42
1258.835, 24613.74
1259.317, 24516.01
1259.799, 24439.56
1260.281, 24431.37
1260.764, 24482.69
1261.246, 24510.63
1261.728, 24465.39
1262.210, 24420.35
1262.692, 24422.12
1263.174, 24436.93
1263.656, 24441.74
1264.138, 24437.65
1264.621, 24419.94
1265.103, 24394.28
1265.585, 24387.62
1266.067, 24423.40
##END=



