##NAMES=Millerite
##RRUFFID=R060898
##IDEAL CHEMISTRY=NiS
##LOCALITY=Orford, Quebec, Canada
##OWNER=RRUFF
##SOURCE=Royal Ontario Museum
##DESCRIPTION=Pale brass-yellow prismatic crystal with pronounced striations, associated with calcite and green grossular
##STATUS=The identification of this mineral is confirmed by single-crystal X-ray diffraction and chemical analysis.
##URL=rruff.info/R060898
##MEASURED CHEMISTRY=(Ni_0.97_Co_0.02_Fe_0.01_)_Î£=1_S_1.00_ ; trace amounts of As
180.8278, 17768.81
181.3099, 17744.76
181.7920, 17735.20
182.2741, 17746.29
182.7562, 17769.25
183.2384, 17791.63
183.7205, 17803.69
184.2026, 17816.63
184.6847, 17853.45
185.1668, 17921.94
185.6489, 17980.92
186.1311, 18000.46
186.6132, 17994.82
187.0953, 17979.62
187.5774, 17949.04
188.0595, 17917.98
188.5416, 17910.30
189.0238, 17929.38
189.5059, 17958.79
189.9880, 17999.22
190.4701, 18042.71
190.9522, 18077.91
191.4343, 18103.63
191.9165, 18118.06
192.3986, 18114.19
192.8807, 18086.79
193.3628, 18062.10
193.8449, 18052.74
194.3270, 18055.28
194.8092, 18068.45
195.2913, 18097.13
195.7734, 18131.79
196.2555, 18158.61
196.7376, 18177.08
197.2197, 18190.75
197.7019, 18192.00
198.1840, 18192.06
198.6661, 18206.65
199.1482, 18247.96
199.6303, 18297.04
200.1124, 18323.70
200.5946, 18322.46
201.0767, 18324.95
201.5588, 18356.77
202.0409, 18397.67
202.5230, 18426.01
203.0051, 18434.02
203.4873, 18429.97
203.9694, 18422.92
204.4515, 18412.42
204.9336, 18400.66
205.4157, 18386.98
205.8978, 18372.87
206.3800, 18360.14
206.8621, 18349.28
207.3442, 18339.30
207.8263, 18328.24
208.3084, 18315.51
208.7905, 18305.79
209.2727, 18301.78
209.7548, 18301.55
210.2369, 18302.70
210.7190, 18303.64
211.2011, 18308.65
211.6832, 18326.46
212.1654, 18358.28
212.6475, 18381.62
213.1296, 18373.68
213.6117, 18362.07
214.0938, 18380.95
214.5760, 18443.78
215.0581, 18506.73
215.5402, 18522.74
216.0223, 18491.99
216.5044, 18470.65
216.9865, 18483.53
217.4687, 18509.31
217.9508, 18520.70
218.4329, 18510.95
218.9150, 18511.88
219.3971, 18561.16
219.8792, 18654.10
220.3614, 18726.32
220.8435, 18750.17
221.3256, 18754.51
221.8077, 18772.72
222.2898, 18807.15
222.7719, 18841.61
223.2541, 18866.07
223.7362, 18881.23
224.2183, 18888.43
224.7004, 18877.95
225.1825, 18872.08
225.6646, 18897.16
226.1468, 18953.79
226.6289, 19009.70
227.1110, 19047.53
227.5931, 19070.38
228.0752, 19086.59
228.5573, 19093.22
229.0395, 19100.64
229.5216, 19123.66
230.0037, 19160.67
230.4858, 19189.51
230.9679, 19191.23
231.4500, 19178.61
231.9322, 19183.63
232.4143, 19217.51
232.8964, 19252.13
233.3785, 19250.15
233.8606, 19219.53
234.3427, 19205.80
234.8249, 19231.93
235.3070, 19280.98
235.7891, 19327.03
236.2712, 19367.13
236.7533, 19407.81
237.2354, 19449.35
237.7176, 19494.40
238.1997, 19558.39
238.6818, 19643.86
239.1639, 19750.68
239.6460, 19880.85
240.1281, 20035.37
240.6103, 20205.83
241.0924, 20388.17
241.5745, 20583.48
242.0566, 20788.01
242.5387, 20993.08
243.0208, 21213.92
243.5030, 21471.77
243.9851, 21763.08
244.4672, 22052.99
244.9493, 22312.35
245.4314, 22552.87
245.9135, 22827.29
246.3957, 23150.92
246.8778, 23493.74
247.3599, 23871.10
247.8420, 24262.82
248.3241, 24607.19
248.8062, 24909.75
249.2884, 25109.72
249.7705, 25006.95
250.2526, 24493.03
250.7347, 23872.47
251.2168, 23174.46
251.6989, 22448.86
252.1811, 21795.71
252.6632, 21256.72
253.1453, 20819.79
253.6274, 20464.14
254.1095, 20200.39
254.5916, 19984.77
255.0738, 19820.87
255.5559, 19698.22
256.0380, 19602.32
256.5201, 19528.46
257.0022, 19484.41
257.4843, 19490.58
257.9665, 19612.61
258.4486, 19648.08
258.9307, 19510.63
259.4128, 19330.35
259.8949, 19213.10
260.3770, 19182.84
260.8592, 19221.19
261.3413, 19318.38
261.8234, 19519.99
262.3055, 19619.89
262.7876, 19572.19
263.2697, 19472.73
263.7519, 19358.28
264.2340, 19243.53
264.7161, 19147.65
265.1982, 19091.25
265.6803, 19078.69
266.1624, 19062.72
266.6446, 19033.02
267.1267, 19010.53
267.6088, 19008.36
268.0909, 19020.21
268.5730, 19031.75
269.0551, 19033.53
269.5373, 19025.80
270.0194, 19011.21
270.5015, 18977.86
270.9836, 18950.02
271.4657, 18931.23
271.9478, 18920.57
272.4300, 18916.06
272.9121, 18916.48
273.3942, 18922.87
273.8763, 18938.39
274.3584, 18963.13
274.8405, 18998.08
275.3227, 19055.54
275.8048, 19115.11
276.2869, 19151.94
276.7690, 19157.84
277.2511, 19159.38
277.7332, 19209.32
278.2154, 19337.03
278.6975, 19421.14
279.1796, 19414.28
279.6617, 19383.14
280.1438, 19363.44
280.6259, 19361.58
281.1081, 19368.27
281.5902, 19372.85
282.0723, 19374.59
282.5544, 19387.08
283.0365, 19413.10
283.5186, 19449.66
284.0008, 19508.83
284.4829, 19581.25
284.9650, 19632.10
285.4471, 19622.69
285.9292, 19568.70
286.4113, 19540.50
286.8935, 19545.84
287.3756, 19565.13
287.8577, 19597.83
288.3398, 19634.99
288.8219, 19656.76
289.3040, 19639.38
289.7862, 19612.54
290.2683, 19626.17
290.7504, 19686.39
291.2325, 19749.90
291.7146, 19790.34
292.1967, 19821.01
292.6789, 19865.59
293.1610, 19936.19
293.6431, 20007.46
294.1252, 20063.91
294.6073, 20105.09
295.0894, 20123.56
295.5716, 20101.94
296.0537, 20070.73
296.5358, 20088.44
297.0179, 20166.26
297.5000, 20249.93
297.9821, 20312.79
298.4643, 20366.91
298.9464, 20441.21
299.4285, 20546.79
299.9106, 20652.83
300.3927, 20716.11
300.8748, 20728.13
301.3570, 20736.49
301.8391, 20735.83
302.3212, 20739.51
302.8033, 20772.66
303.2854, 20833.12
303.7675, 20875.76
304.2497, 20855.19
304.7318, 20764.17
305.2139, 20700.46
305.6960, 20691.81
306.1781, 20679.47
306.6602, 20639.10
307.1424, 20573.36
307.6245, 20489.82
308.1066, 20390.54
308.5887, 20281.35
309.0708, 20195.23
309.5529, 20171.89
310.0351, 20126.61
310.5172, 20038.78
310.9993, 19928.34
311.4814, 19811.21
311.9635, 19694.65
312.4456, 19590.83
312.9278, 19526.55
313.4099, 19528.56
313.8920, 19515.16
314.3741, 19462.82
314.8562, 19410.34
315.3383, 19388.75
315.8205, 19398.72
316.3026, 19412.96
316.7847, 19399.40
317.2668, 19354.18
317.7489, 19323.95
318.2310, 19319.30
318.7132, 19319.55
319.1953, 19317.52
319.6774, 19312.97
320.1595, 19306.67
320.6416, 19299.44
321.1237, 19290.41
321.6059, 19273.80
322.0880, 19241.10
322.5701, 19221.78
323.0522, 19240.77
323.5343, 19277.47
324.0164, 19306.47
324.4986, 19317.93
324.9807, 19326.09
325.4628, 19346.24
325.9449, 19377.69
326.4270, 19411.24
326.9091, 19450.39
327.3913, 19482.94
327.8734, 19485.42
328.3555, 19448.20
328.8376, 19429.67
329.3197, 19490.16
329.8018, 19579.97
330.2840, 19594.41
330.7661, 19502.74
331.2482, 19391.96
331.7303, 19360.78
332.2124, 19418.40
332.6945, 19457.77
333.1767, 19468.02
333.6588, 19461.13
334.1409, 19442.80
334.6230, 19414.91
335.1051, 19379.27
335.5872, 19333.33
336.0694, 19280.41
336.5515, 19255.47
337.0336, 19290.53
337.5157, 19312.75
337.9979, 19287.15
338.4800, 19242.84
338.9621, 19225.16
339.4442, 19253.12
339.9263, 19306.49
340.4084, 19343.18
340.8906, 19357.06
341.3727, 19363.85
341.8548, 19365.84
342.3369, 19360.43
342.8190, 19331.09
343.3011, 19284.46
343.7833, 19259.10
344.2654, 19308.31
344.7475, 19439.63
345.2296, 19516.41
345.7117, 19482.05
346.1938, 19454.82
346.6760, 19489.13
347.1581, 19563.09
347.6402, 19631.46
348.1223, 19672.29
348.6044, 19692.22
349.0865, 19700.87
349.5687, 19692.84
350.0508, 19695.13
350.5329, 19728.12
351.0150, 19772.85
351.4971, 19812.05
351.9792, 19845.03
352.4614, 19865.07
352.9435, 19870.78
353.4256, 19860.29
353.9077, 19818.40
354.3898, 19728.43
354.8719, 19633.12
355.3541, 19596.60
355.8362, 19616.18
356.3183, 19617.47
356.8004, 19565.55
357.2825, 19498.56
357.7646, 19458.23
358.2468, 19445.75
358.7289, 19434.44
359.2110, 19404.33
359.6931, 19357.15
360.1752, 19314.81
360.6573, 19264.59
361.1395, 19232.70
361.6216, 19244.17
362.1037, 19275.83
362.5858, 19283.92
363.0679, 19249.75
363.5500, 19202.85
364.0322, 19205.91
364.5143, 19302.58
364.9964, 19375.08
365.4785, 19425.99
365.9606, 19453.89
366.4427, 19438.01
366.9249, 19389.83
367.4070, 19359.19
367.8891, 19402.00
368.3712, 19516.79
368.8533, 19598.11
369.3354, 19627.14
369.8176, 19645.43
370.2997, 19671.30
370.7818, 19696.77
371.2639, 19704.04
371.7460, 19676.07
372.2281, 19646.54
372.7103, 19678.59
373.1924, 19780.36
373.6745, 19858.48
374.1566, 19876.94
374.6387, 19861.49
375.1208, 19842.40
375.6030, 19820.42
376.0851, 19794.51
376.5672, 19758.44
377.0493, 19719.17
377.5314, 19693.45
378.0135, 19685.56
378.4957, 19676.81
378.9778, 19650.00
379.4599, 19604.37
379.9420, 19558.60
380.4241, 19511.62
380.9063, 19465.70
381.3884, 19412.01
381.8705, 19360.20
382.3526, 19380.86
382.8347, 19397.20
383.3168, 19397.96
383.7990, 19383.97
384.2811, 19311.08
384.7632, 19314.25
385.2453, 19286.94
385.7274, 19258.38
386.2095, 19272.26
386.6917, 19207.93
387.1738, 19221.14
387.6559, 19203.40
388.1380, 19166.20
388.6201, 19194.71
389.1022, 19192.88
389.5844, 19182.84
390.0665, 19164.05
390.5486, 19143.88
391.0307, 19134.98
391.5128, 19145.04
391.9949, 19164.77
392.4771, 19176.69
392.9592, 19178.63
393.4413, 19191.52
393.9234, 19230.44
394.4055, 19276.51
394.8876, 19311.99
395.3698, 19336.56
395.8519, 19347.04
396.3340, 19330.41
396.8161, 19301.45
397.2982, 19281.77
397.7803, 19273.43
398.2625, 19288.38
398.7446, 19352.22
399.2267, 19459.10
399.7088, 19500.62
400.1909, 19426.63
400.6730, 19342.47
401.1552, 19289.57
401.6373, 19260.76
402.1194, 19240.27
402.6015, 19221.88
403.0836, 19203.40
403.5657, 19179.66
404.0479, 19138.95
404.5300, 19115.26
405.0121, 19124.96
405.4942, 19136.58
405.9763, 19128.90
406.4584, 19103.48
406.9406, 19075.85
407.4227, 19058.38
407.9048, 19049.92
408.3869, 19041.01
408.8690, 19028.81
409.3511, 19022.07
409.8333, 19026.46
410.3154, 19036.46
410.7975, 19046.21
411.2796, 19054.22
411.7617, 19061.10
412.2438, 19065.12
412.7260, 19067.34
413.2081, 19075.33
413.6902, 19091.02
414.1723, 19111.44
414.6544, 19141.31
415.1365, 19178.86
415.6187, 19193.22
416.1008, 19151.57
416.5829, 19104.79
417.0650, 19100.25
417.5471, 19131.45
418.0292, 19162.65
418.5114, 19175.98
418.9935, 19171.12
419.4756, 19146.65
419.9577, 19062.22
420.4398, 19010.60
420.9219, 19020.96
421.4041, 19050.81
421.8862, 19065.68
422.3683, 19059.07
422.8504, 19041.84
423.3325, 19024.13
423.8146, 19006.08
424.2968, 18986.65
424.7789, 18957.90
425.2610, 18938.82
425.7431, 18943.73
426.2252, 18959.27
426.7073, 18966.14
427.1895, 18957.11
427.6716, 18938.11
428.1537, 18912.89
428.6358, 18881.84
429.1179, 18856.43
429.6000, 18839.87
430.0822, 18829.44
430.5643, 18824.08
431.0464, 18823.47
431.5285, 18820.17
432.0106, 18816.23
432.4927, 18806.00
432.9749, 18770.94
433.4570, 18718.48
433.9391, 18694.22
434.4212, 18731.46
434.9033, 18810.02
435.3854, 18851.38
435.8676, 18821.81
436.3497, 18798.34
436.8318, 18789.90
437.3139, 18787.83
437.7960, 18781.46
438.2781, 18770.73
438.7603, 18767.29
439.2424, 18786.95
439.7245, 18829.91
440.2066, 18855.68
440.6887, 18849.07
441.1708, 18845.60
441.6530, 18864.79
442.1351, 18891.90
442.6172, 18905.44
443.0993, 18896.65
443.5814, 18878.71
444.0635, 18860.02
444.5457, 18842.14
445.0278, 18841.83
445.5099, 18869.73
445.9920, 18902.45
446.4741, 18914.36
446.9562, 18907.24
447.4384, 18892.67
447.9205, 18863.58
448.4026, 18835.11
448.8847, 18818.58
449.3668, 18812.91
449.8489, 18816.13
450.3311, 18829.39
450.8132, 18843.23
451.2953, 18832.47
451.7774, 18775.88
452.2595, 18726.48
452.7416, 18673.10
453.2238, 18635.89
453.7059, 18642.43
454.1880, 18683.08
454.6701, 18712.93
455.1522, 18688.83
455.6343, 18626.48
456.1165, 18603.30
456.5986, 18630.44
457.0807, 18670.03
457.5628, 18732.20
458.0449, 18787.48
458.5270, 18797.16
459.0092, 18748.03
459.4913, 18700.16
459.9734, 18700.49
460.4555, 18729.07
460.9376, 18742.08
461.4197, 18732.41
461.9019, 18713.66
462.3840, 18694.30
462.8661, 18675.12
463.3482, 18665.00
463.8303, 18664.13
464.3124, 18671.61
464.7946, 18691.69
465.2767, 18718.66
465.7588, 18749.53
466.2409, 18782.25
466.7230, 18804.76
467.2051, 18795.63
467.6873, 18744.47
468.1694, 18712.30
468.6515, 18710.59
469.1336, 18717.45
469.6157, 18744.12
470.0978, 18770.63
470.5800, 18753.94
471.0621, 18657.63
471.5442, 18553.62
472.0263, 18553.82
472.5084, 18651.70
472.9905, 18721.98
473.4727, 18729.30
473.9548, 18702.48
474.4369, 18667.34
474.9190, 18624.18
475.4011, 18586.41
475.8832, 18550.03
476.3654, 18525.07
476.8475, 18526.28
477.3296, 18546.35
477.8117, 18563.42
478.2938, 18566.83
478.7759, 18558.97
479.2581, 18542.97
479.7402, 18493.21
480.2223, 18483.37
480.7044, 18570.81
481.1865, 18645.34
481.6686, 18621.96
482.1508, 18521.67
482.6329, 18431.83
483.1150, 18412.86
483.5971, 18441.45
484.0792, 18458.46
484.5613, 18460.90
485.0435, 18468.98
485.5256, 18498.71
486.0077, 18530.05
486.4898, 18535.11
486.9719, 18510.31
487.4540, 18489.43
487.9362, 18483.33
488.4183, 18488.59
488.9004, 18510.66
489.3825, 18544.85
489.8646, 18562.48
490.3467, 18543.11
490.8289, 18495.30
491.3110, 18455.16
491.7931, 18420.77
492.2752, 18397.63
492.7573, 18378.62
493.2394, 18375.76
493.7216, 18418.60
494.2037, 18495.63
494.6858, 18546.24
495.1679, 18508.77
495.6500, 18406.55
496.1321, 18344.60
496.6143, 18332.94
497.0964, 18331.79
497.5785, 18330.10
498.0606, 18328.50
498.5427, 18325.55
499.0248, 18319.08
499.5070, 18322.96
499.9891, 18367.01
500.4712, 18414.77
500.9533, 18403.01
501.4355, 18330.30
501.9176, 18257.03
502.3997, 18224.38
502.8818, 18228.23
503.3639, 18245.78
503.8460, 18315.19
504.3282, 18349.22
504.8103, 18297.43
505.2924, 18236.18
505.7745, 18240.80
506.2566, 18313.54
506.7387, 18392.82
507.2209, 18426.22
507.7030, 18420.89
508.1851, 18410.78
508.6672, 18390.80
509.1493, 18381.71
509.6314, 18406.15
510.1136, 18438.99
510.5957, 18443.26
511.0778, 18408.54
511.5599, 18383.85
512.0420, 18404.90
512.5241, 18442.20
513.0062, 18444.28
513.4883, 18318.66
513.9705, 18385.88
514.4526, 18421.80
514.9347, 18428.09
515.4168, 18316.06
515.8989, 18356.82
516.3810, 18336.35
516.8632, 18313.37
517.3453, 18375.64
517.8274, 18280.82
518.3095, 18341.74
518.7916, 18340.49
519.2737, 18357.99
519.7559, 18311.20
520.2380, 18295.15
520.7201, 18318.07
521.2022, 18330.78
521.6843, 18303.67
522.1664, 18262.24
522.6486, 18247.92
523.1307, 18266.75
523.6128, 18279.89
524.0949, 18271.86
524.5770, 18254.28
525.0591, 18233.92
525.5413, 18214.03
526.0234, 18202.68
526.5055, 18205.05
526.9876, 18219.15
527.4697, 18239.92
527.9518, 18280.08
528.4340, 18303.06
528.9161, 18306.75
529.3982, 18295.22
529.8803, 18254.89
530.3624, 18198.59
530.8445, 18170.41
531.3267, 18218.08
531.8088, 18289.70
532.2909, 18274.77
532.7730, 18175.21
533.2551, 18119.94
533.7372, 18166.70
534.2194, 18253.57
534.7015, 18290.41
535.1836, 18270.69
535.6657, 18258.62
536.1478, 18263.66
536.6299, 18274.86
537.1121, 18286.84
537.5942, 18299.21
538.0763, 18314.42
538.5584, 18333.73
539.0405, 18350.18
539.5226, 18347.99
540.0048, 18319.88
540.4869, 18304.73
540.9690, 18316.26
541.4511, 18327.55
541.9332, 18322.13
542.4153, 18306.88
542.8975, 18295.62
543.3796, 18287.26
543.8617, 18294.33
544.3438, 18348.91
544.8259, 18427.71
545.3080, 18460.83
545.7902, 18430.51
546.2723, 18375.01
546.7544, 18328.40
547.2365, 18290.29
547.7186, 18269.50
548.2007, 18283.46
548.6829, 18291.79
549.1650, 18274.94
549.6471, 18252.65
550.1292, 18248.65
550.6113, 18267.56
551.0934, 18293.83
551.5756, 18319.19
552.0577, 18340.47
552.5398, 18335.62
553.0219, 18297.69
553.5040, 18256.22
553.9861, 18209.04
554.4683, 18176.57
554.9504, 18200.84
555.4325, 18309.68
555.9146, 18389.86
556.3967, 18381.89
556.8788, 18346.27
557.3610, 18344.49
557.8431, 18374.41
558.3252, 18396.43
558.8073, 18384.09
559.2894, 18351.22
559.7715, 18337.05
560.2537, 18336.35
560.7358, 18367.15
561.2179, 18480.84
561.7000, 18584.67
562.1821, 18617.72
562.6642, 18594.62
563.1464, 18574.58
563.6285, 18580.44
564.1106, 18603.56
564.5927, 18640.06
565.0748, 18686.81
565.5569, 18732.94
566.0391, 18776.24
566.5212, 18812.86
567.0033, 18838.94
567.4854, 18854.89
567.9675, 18856.71
568.4496, 18830.39
568.9318, 18808.37
569.4139, 18801.41
569.8960, 18803.77
570.3781, 18820.83
570.8602, 18850.06
571.3423, 18849.90
571.8245, 18748.44
572.3066, 18574.77
572.7887, 18479.21
573.2708, 18482.52
573.7529, 18491.81
574.2350, 18460.55
574.7172, 18403.21
575.1993, 18352.83
575.6814, 18313.36
576.1635, 18269.54
576.6456, 18195.13
577.1277, 18132.58
577.6099, 18128.66
578.0920, 18171.03
578.5741, 18210.78
579.0562, 18219.36
579.5383, 18206.30
580.0204, 18193.33
580.5026, 18181.35
580.9847, 18163.34
581.4668, 18124.32
581.9489, 18095.83
582.4310, 18104.17
582.9132, 18138.98
583.3953, 18168.53
583.8774, 18179.67
584.3596, 18189.33
584.8417, 18221.36
585.3238, 18257.06
585.8059, 18254.43
586.2880, 18205.89
586.7701, 18146.62
587.2523, 18109.65
587.7344, 18094.38
588.2165, 18089.31
588.6986, 18107.83
589.1807, 18116.53
589.6628, 18103.08
590.1450, 18082.71
590.6271, 18063.68
591.1092, 18048.91
591.5913, 18047.24
592.0734, 18078.99
592.5555, 18119.02
593.0377, 18126.14
593.5198, 18104.02
594.0019, 18082.28
594.4840, 18071.79
594.9661, 18070.19
595.4482, 18075.91
595.9304, 18095.09
596.4125, 18097.71
596.8946, 18070.38
597.3767, 18043.13
597.8588, 18025.15
598.3409, 18015.09
598.8231, 18010.75
599.3052, 18011.42
599.7873, 18016.06
600.2694, 18028.40
600.7515, 18044.38
601.2336, 18047.93
601.7158, 18037.47
602.1979, 18017.85
602.6800, 17985.63
603.1621, 17950.22
603.6442, 17937.83
604.1263, 17959.56
604.6085, 17978.36
605.0906, 17983.93
605.5727, 17991.16
606.0548, 18013.34
606.5369, 18045.57
607.0190, 18075.69
607.5012, 18097.90
607.9833, 18110.81
608.4654, 18108.71
608.9475, 18091.64
609.4296, 18078.82
609.9117, 18074.78
610.3939, 18070.14
610.8760, 18059.70
611.3581, 18042.70
611.8402, 18017.66
612.3223, 17974.29
612.8044, 17937.68
613.2866, 17920.72
613.7687, 17910.18
614.2508, 17887.08
614.7329, 17854.90
615.2150, 17838.27
615.6971, 17858.03
616.1793, 17898.09
616.6614, 17911.28
617.1435, 17892.25
617.6256, 17879.43
618.1077, 17885.67
618.5898, 17893.21
619.0720, 17880.09
619.5541, 17852.92
620.0362, 17842.35
620.5183, 17876.56
621.0004, 17902.21
621.4825, 17881.14
621.9647, 17841.11
622.4468, 17819.94
622.9289, 17824.51
623.4110, 17841.25
623.8931, 17860.84
624.3752, 17880.89
624.8574, 17889.78
625.3395, 17887.46
625.8216, 17873.14
626.3037, 17831.52
626.7858, 17791.77
627.2679, 17785.32
627.7501, 17808.62
628.2322, 17823.64
628.7143, 17811.19
629.1964, 17797.21
629.6785, 17797.94
630.1606, 17809.35
630.6428, 17830.66
631.1249, 17858.95
631.6070, 17872.21
632.0891, 17841.76
632.5712, 17772.95
633.0533, 17731.54
633.5355, 17730.07
634.0176, 17725.47
634.4997, 17687.62
634.9818, 17654.13
635.4639, 17669.44
635.9460, 17732.44
636.4282, 17778.24
636.9103, 17784.08
637.3924, 17766.77
637.8745, 17714.06
638.3566, 17652.35
638.8387, 17644.77
639.3209, 17707.31
639.8030, 17780.75
640.2851, 17793.73
640.7672, 17748.12
641.2493, 17710.21
641.7314, 17681.80
642.2136, 17656.25
642.6957, 17621.63
643.1778, 17595.82
643.6599, 17608.41
644.1420, 17661.07
644.6241, 17684.97
645.1063, 17633.55
645.5884, 17566.93
646.0705, 17525.52
646.5526, 17506.35
647.0347, 17503.51
647.5168, 17513.98
647.9990, 17525.16
648.4811, 17517.79
648.9632, 17492.91
649.4453, 17501.01
649.9274, 17568.05
650.4095, 17607.91
650.8917, 17561.57
651.3738, 17492.65
651.8559, 17469.46
652.3380, 17495.06
652.8201, 17535.27
653.3022, 17609.46
653.7844, 17667.08
654.2665, 17652.48
654.7486, 17597.58
655.2307, 17569.12
655.7128, 17586.93
656.1949, 17616.81
656.6771, 17616.41
657.1592, 17589.09
657.6413, 17587.99
658.1234, 17626.26
658.6055, 17650.52
659.0876, 17623.67
659.5698, 17588.93
660.0519, 17606.19
660.5340, 17677.81
661.0161, 17735.52
661.4982, 17765.56
661.9803, 17777.98
662.4625, 17767.78
662.9446, 17747.85
663.4267, 17735.91
663.9088, 17737.49
664.3909, 17751.06
664.8730, 17776.23
665.3552, 17812.09
665.8373, 17863.85
666.3194, 17943.04
666.8015, 17970.88
667.2836, 17892.48
667.7657, 17784.84
668.2479, 17750.67
668.7300, 17791.62
669.2121, 17815.14
669.6942, 17801.30
670.1763, 17782.85
670.6584, 17755.01
671.1406, 17739.88
671.6227, 17783.99
672.1048, 17883.40
672.5869, 17961.31
673.0690, 17952.08
673.5511, 17873.90
674.0333, 17755.12
674.5154, 17594.48
674.9975, 17483.28
675.4796, 17460.77
675.9617, 17466.08
676.4438, 17433.27
676.9260, 17360.29
677.4081, 17300.25
677.8902, 17253.89
678.3723, 17218.33
678.8544, 17203.03
679.3365, 17191.36
679.8187, 17165.69
680.3008, 17126.98
680.7829, 17090.85
681.2650, 17066.46
681.7471, 17050.80
682.2292, 17041.84
682.7114, 17038.47
683.1935, 17039.90
683.6756, 17047.53
684.1577, 17037.60
684.6398, 16980.10
685.1219, 16885.14
685.6041, 16846.96
686.0862, 16921.85
686.5683, 16965.13
687.0504, 16941.42
687.5325, 16904.25
688.0146, 16889.28
688.4968, 16891.81
688.9789, 16888.15
689.4610, 16864.67
689.9431, 16841.32
690.4252, 16843.11
690.9073, 16853.72
691.3895, 16841.46
691.8716, 16803.35
692.3537, 16753.07
692.8358, 16696.43
693.3179, 16644.08
693.8000, 16630.86
694.2822, 16671.48
694.7643, 16698.51
695.2464, 16695.91
695.7285, 16692.26
696.2106, 16709.32
696.6927, 16735.38
697.1749, 16746.47
697.6570, 16733.56
698.1391, 16721.51
698.6212, 16722.79
699.1033, 16727.04
699.5854, 16724.51
700.0676, 16716.24
700.5497, 16708.10
701.0318, 16702.85
701.5139, 16697.01
701.9960, 16683.61
702.4781, 16663.58
702.9603, 16651.36
703.4424, 16650.97
703.9245, 16642.73
704.4066, 16612.13
704.8887, 16573.16
705.3708, 16553.54
705.8530, 16562.87
706.3351, 16554.59
706.8172, 16505.43
707.2993, 16462.07
707.7814, 16446.32
708.2635, 16448.28
708.7457, 16455.45
709.2278, 16464.29
709.7099, 16474.02
710.1920, 16486.66
710.6741, 16498.43
711.1563, 16503.66
711.6384, 16502.06
712.1205, 16489.32
712.6026, 16462.80
713.0847, 16436.68
713.5668, 16427.53
714.0490, 16434.91
714.5311, 16438.74
715.0132, 16427.87
715.4953, 16432.05
715.9774, 16488.19
716.4595, 16534.70
716.9417, 16514.51
717.4238, 16440.28
717.9059, 16380.05
718.3880, 16357.39
718.8701, 16352.51
719.3522, 16360.94
719.8344, 16375.86
720.3165, 16391.56
720.7986, 16404.70
721.2807, 16404.83
721.7628, 16382.56
722.2449, 16352.92
722.7271, 16354.58
723.2092, 16389.93
723.6913, 16410.33
724.1734, 16408.96
724.6555, 16395.82
725.1376, 16370.01
725.6198, 16339.38
726.1019, 16327.36
726.5840, 16343.04
727.0661, 16354.16
727.5482, 16360.72
728.0303, 16359.47
728.5125, 16350.53
728.9946, 16332.13
729.4767, 16295.03
729.9588, 16236.96
730.4409, 16188.31
730.9230, 16181.33
731.4052, 16197.90
731.8873, 16211.64
732.3694, 16219.63
732.8515, 16205.35
733.3336, 16160.48
733.8157, 16119.43
734.2979, 16131.71
734.7800, 16197.76
735.2621, 16215.06
735.7442, 16147.52
736.2263, 16101.08
736.7084, 16123.26
737.1906, 16158.72
737.6727, 16161.47
738.1548, 16135.65
738.6369, 16114.54
739.1190, 16098.73
739.6011, 16097.69
740.0833, 16127.88
740.5654, 16167.70
741.0475, 16200.12
741.5296, 16218.53
742.0117, 16210.02
742.4938, 16162.44
742.9760, 16102.85
743.4581, 16080.75
743.9402, 16089.13
744.4223, 16075.25
744.9044, 16029.95
745.3865, 15993.14
745.8687, 15990.30
746.3508, 16008.29
746.8329, 16016.15
747.3150, 16004.57
747.7971, 16007.54
748.2792, 16043.82
748.7614, 16072.79
749.2435, 16059.29
749.7256, 16042.22
750.2077, 16085.70
750.6898, 16198.96
751.1719, 16277.99
751.6541, 16267.22
752.1362, 16209.16
752.6183, 16105.84
753.1004, 15992.66
753.5825, 15946.12
754.0646, 15977.26
754.5468, 16017.50
755.0289, 16003.88
755.5110, 15954.56
755.9931, 15928.23
756.4752, 15926.58
756.9573, 15911.80
757.4395, 15869.22
757.9216, 15835.25
758.4037, 15844.97
758.8858, 15886.88
759.3679, 15905.93
759.8500, 15886.55
760.3322, 15866.47
760.8143, 15831.46
761.2964, 15810.45
761.7785, 15835.75
762.2606, 15880.99
762.7427, 15893.22
763.2249, 15853.97
763.7070, 15819.13
764.1891, 15831.44
764.6712, 15860.61
765.1533, 15880.15
765.6354, 15885.01
766.1176, 15860.00
766.5997, 15802.43
767.0818, 15747.10
767.5639, 15738.37
768.0460, 15765.26
768.5281, 15759.33
769.0103, 15712.33
769.4924, 15703.83
769.9745, 15776.18
770.4566, 15844.14
770.9387, 15815.51
771.4208, 15702.98
771.9030, 15642.15
772.3851, 15666.56
772.8672, 15693.86
773.3493, 15733.86
773.8314, 15760.08
774.3135, 15743.47
774.7957, 15702.55
775.2778, 15682.04
775.7599, 15700.96
776.2420, 15714.29
776.7241, 15678.28
777.2062, 15630.70
777.6884, 15623.46
778.1705, 15645.66
778.6526, 15657.59
779.1347, 15644.30
779.6168, 15615.34
780.0989, 15575.83
780.5811, 15530.62
781.0632, 15510.32
781.5453, 15516.93
782.0274, 15525.65
782.5095, 15529.27
782.9916, 15533.72
783.4738, 15546.85
783.9559, 15567.21
784.4380, 15575.89
784.9201, 15550.46
785.4022, 15546.19
785.8843, 15584.86
786.3665, 15627.47
786.8486, 15650.75
787.3307, 15659.42
787.8128, 15662.29
788.2949, 15652.96
788.7770, 15670.73
789.2592, 15790.08
789.7413, 15902.41
790.2234, 15881.02
790.7055, 15767.91
791.1876, 15666.32
791.6697, 15612.45
792.1519, 15585.76
792.6340, 15572.10
793.1161, 15566.44
793.5982, 15552.54
794.0803, 15531.02
794.5624, 15511.96
795.0446, 15498.63
795.5267, 15484.15
796.0088, 15460.04
796.4909, 15430.25
796.9730, 15420.28
797.4551, 15446.36
797.9373, 15455.49
798.4194, 15434.47
798.9015, 15405.16
799.3836, 15375.97
799.8657, 15347.76
800.3478, 15319.34
800.8300, 15285.75
801.3121, 15271.30
801.7942, 15302.41
802.2763, 15334.45
802.7584, 15334.96
803.2405, 15319.80
803.7227, 15318.18
804.2048, 15334.03
804.6869, 15341.09
805.1690, 15316.03
805.6511, 15275.52
806.1332, 15227.66
806.6154, 15184.90
807.0975, 15194.96
807.5796, 15262.36
808.0617, 15334.31
808.5438, 15374.79
809.0259, 15388.36
809.5081, 15381.94
809.9902, 15352.69
810.4723, 15328.94
810.9544, 15311.15
811.4365, 15303.37
811.9186, 15315.64
812.4008, 15331.45
812.8829, 15320.11
813.3650, 15272.65
813.8471, 15240.72
814.3292, 15229.32
814.8113, 15226.43
815.2935, 15245.14
815.7756, 15258.93
816.2577, 15233.16
816.7398, 15176.69
817.2219, 15140.31
817.7040, 15147.54
818.1862, 15170.51
818.6683, 15216.39
819.1504, 15252.97
819.6325, 15225.53
820.1146, 15153.61
820.5967, 15106.45
821.0789, 15115.73
821.5610, 15140.74
822.0431, 15124.25
822.5252, 15086.85
823.0073, 15102.20
823.4894, 15164.65
823.9716, 15194.55
824.4537, 15164.32
824.9358, 15114.31
825.4179, 15084.63
825.9000, 15073.56
826.3821, 15070.24
826.8643, 15076.52
827.3464, 15083.01
827.8285, 15082.68
828.3106, 15092.43
828.7927, 15143.79
829.2748, 15209.24
829.7570, 15205.70
830.2391, 15094.49
830.7212, 15018.90
831.2033, 15008.70
831.6854, 15014.32
832.1675, 15019.50
832.6497, 15025.37
833.1318, 15038.17
833.6139, 15057.09
834.0960, 15067.28
834.5781, 15058.68
835.0602, 15042.17
835.5424, 15013.51
836.0245, 14988.29
836.5066, 14996.00
836.9887, 15030.83
837.4708, 15059.09
837.9529, 15063.11
838.4351, 15050.84
838.9172, 15026.50
839.3993, 14995.45
839.8814, 14976.11
840.3635, 14968.55
840.8456, 14957.98
841.3278, 14937.62
841.8099, 14928.32
842.2920, 14961.56
842.7741, 15028.96
843.2562, 15044.57
843.7383, 14990.37
844.2205, 14959.58
844.7026, 14983.80
845.1847, 15006.64
845.6668, 14977.06
846.1489, 14916.18
846.6310, 14896.75
847.1132, 14947.22
847.5953, 14981.09
848.0774, 14983.34
848.5595, 14986.11
849.0416, 15009.25
849.5237, 15035.35
850.0059, 15043.97
850.4880, 15032.96
850.9701, 15010.95
851.4522, 14966.47
851.9343, 14928.73
852.4164, 14924.79
852.8986, 14928.17
853.3807, 14903.91
853.8628, 14858.69
854.3449, 14825.66
854.8270, 14820.77
855.3091, 14826.46
855.7913, 14821.79
856.2734, 14817.86
856.7555, 14842.00
857.2376, 14886.00
857.7197, 14921.33
858.2018, 14937.44
858.6840, 14917.84
859.1661, 14832.33
859.6482, 14714.06
860.1303, 14678.89
860.6124, 14726.40
861.0945, 14769.88
861.5767, 14797.31
862.0588, 14804.73
862.5409, 14781.29
863.0230, 14751.79
863.5051, 14780.21
863.9872, 14893.36
864.4694, 14933.66
864.9515, 14858.41
865.4336, 14790.69
865.9157, 14775.87
866.3978, 14780.50
866.8799, 14768.94
867.3621, 14743.51
867.8442, 14727.07
868.3263, 14715.88
868.8084, 14720.59
869.2905, 14773.72
869.7726, 14813.09
870.2548, 14779.68
870.7369, 14710.34
871.2190, 14675.18
871.7011, 14690.84
872.1832, 14719.07
872.6653, 14766.63
873.1475, 14795.88
873.6296, 14763.64
874.1117, 14704.18
874.5938, 14657.16
875.0759, 14633.18
875.5580, 14640.28
876.0402, 14693.48
876.5223, 14746.31
877.0044, 14732.76
877.4865, 14688.57
877.9686, 14690.84
878.4507, 14732.06
878.9329, 14752.36
879.4150, 14729.03
879.8971, 14693.57
880.3792, 14682.84
880.8613, 14688.17
881.3434, 14673.83
881.8256, 14642.02
882.3077, 14629.15
882.7898, 14643.34
883.2719, 14669.58
883.7540, 14700.44
884.2361, 14729.93
884.7183, 14743.67
885.2004, 14740.20
885.6825, 14727.81
886.1646, 14701.30
886.6467, 14680.66
887.1288, 14673.94
887.6110, 14674.72
888.0931, 14678.54
888.5752, 14684.68
889.0573, 14680.39
889.5394, 14649.70
890.0215, 14633.22
890.5037, 14647.82
890.9858, 14661.20
891.4679, 14647.18
891.9500, 14624.69
892.4321, 14630.67
892.9142, 14674.33
893.3964, 14701.75
893.8785, 14697.42
894.3606, 14680.20
894.8427, 14649.48
895.3248, 14616.05
895.8069, 14583.44
896.2891, 14557.45
896.7712, 14556.37
897.2533, 14599.79
897.7354, 14627.94
898.2175, 14580.76
898.6996, 14521.79
899.1818, 14513.58
899.6639, 14540.97
900.1460, 14572.43
900.6281, 14597.33
901.1102, 14611.71
901.5923, 14617.61
902.0745, 14604.15
902.5566, 14522.96
903.0387, 14423.71
903.5208, 14432.77
904.0029, 14539.56
904.4850, 14622.53
904.9672, 14623.23
905.4493, 14580.76
905.9314, 14530.43
906.4135, 14480.65
906.8956, 14469.22
907.3777, 14491.68
907.8599, 14502.66
908.3420, 14491.37
908.8241, 14490.52
909.3062, 14527.94
909.7883, 14584.31
910.2704, 14613.74
910.7526, 14615.75
911.2347, 14590.14
911.7168, 14527.37
912.1990, 14490.69
912.6811, 14509.65
913.1632, 14549.66
913.6453, 14575.77
914.1274, 14587.33
914.6096, 14572.99
915.0917, 14507.51
915.5738, 14489.92
916.0559, 14572.10
916.5380, 14630.86
917.0201, 14573.77
917.5023, 14470.83
917.9844, 14455.51
918.4665, 14553.62
918.9486, 14589.84
919.4307, 14503.53
919.9128, 14439.25
920.3950, 14440.41
920.8771, 14454.57
921.3592, 14446.09
921.8413, 14420.68
922.3234, 14395.71
922.8055, 14369.66
923.2877, 14354.72
923.7698, 14361.97
924.2519, 14370.73
924.7340, 14370.12
925.2161, 14366.87
925.6982, 14375.60
926.1804, 14391.49
926.6625, 14383.15
927.1446, 14315.09
927.6267, 14269.73
928.1088, 14305.62
928.5909, 14360.26
929.0731, 14383.77
929.5552, 14386.02
930.0373, 14390.28
930.5194, 14401.94
931.0015, 14414.30
931.4836, 14435.83
931.9658, 14441.39
932.4479, 14385.45
932.9300, 14316.15
933.4121, 14301.07
933.8942, 14333.87
934.3763, 14377.38
934.8585, 14416.95
935.3406, 14443.87
935.8227, 14450.33
936.3048, 14439.54
936.7869, 14391.05
937.2690, 14335.96
937.7512, 14367.51
938.2333, 14479.80
938.7154, 14556.85
939.1975, 14530.30
939.6796, 14452.96
940.1617, 14375.86
940.6439, 14309.54
941.1260, 14295.62
941.6081, 14323.00
942.0902, 14329.84
942.5723, 14301.13
943.0544, 14274.54
943.5366, 14281.10
944.0187, 14305.21
944.5008, 14313.81
944.9829, 14309.09
945.4650, 14307.91
945.9471, 14310.91
946.4293, 14302.73
946.9114, 14276.77
947.3935, 14250.07
947.8756, 14241.49
948.3577, 14246.69
948.8398, 14247.47
949.3220, 14243.47
949.8041, 14246.48
950.2862, 14258.69
950.7683, 14271.01
951.2504, 14279.31
951.7325, 14284.37
952.2147, 14286.72
952.6968, 14286.62
953.1789, 14291.77
953.6610, 14306.53
954.1431, 14295.14
954.6252, 14227.43
955.1074, 14216.75
955.5895, 14366.07
956.0716, 14564.59
956.5537, 14582.99
957.0358, 14389.50
957.5179, 14332.24
958.0001, 14489.78
958.4822, 14576.56
958.9643, 14507.48
959.4464, 14390.72
959.9285, 14277.83
960.4106, 14191.85
960.8928, 14206.25
961.3749, 14369.83
961.8570, 14460.44
962.3391, 14446.72
962.8212, 14410.94
963.3033, 14353.71
963.7855, 14305.67
964.2676, 14300.91
964.7497, 14328.15
965.2318, 14337.90
965.7139, 14316.91
966.1960, 14305.06
966.6782, 14304.75
967.1603, 14310.39
967.6424, 14337.40
968.1245, 14356.72
968.6066, 14323.51
969.0887, 14249.72
969.5709, 14222.34
970.0530, 14303.14
970.5351, 14336.09
971.0172, 14252.57
971.4993, 14187.12
971.9814, 14216.95
972.4636, 14285.14
972.9457, 14328.03
973.4278, 14342.54
973.9099, 14344.49
974.3920, 14312.29
974.8741, 14302.29
975.3563, 14344.21
975.8384, 14388.55
976.3205, 14412.67
976.8026, 14419.20
977.2847, 14398.05
977.7668, 14351.29
978.2490, 14358.99
978.7311, 14475.83
979.2132, 14596.14
979.6953, 14725.14
980.1774, 14814.02
980.6595, 14797.38
981.1417, 14732.36
981.6238, 14717.00
982.1059, 14766.21
982.5880, 14812.38
983.0701, 14845.18
983.5522, 14860.48
984.0344, 14834.96
984.5165, 14812.01
984.9986, 14853.19
985.4807, 14913.73
985.9628, 14894.32
986.4449, 14772.60
986.9271, 14662.30
987.4092, 14611.46
987.8913, 14568.39
988.3734, 14502.81
988.8555, 14441.12
989.3376, 14391.68
989.8198, 14369.16
990.3019, 14421.40
990.7840, 14570.26
991.2661, 14647.05
991.7482, 14530.75
992.2303, 14391.90
992.7125, 14305.33
993.1946, 14248.90
993.6767, 14199.84
994.1588, 14160.13
994.6409, 14138.38
995.1230, 14134.81
995.6052, 14165.86
996.0873, 14295.34
996.5694, 14394.14
997.0515, 14330.61
997.5336, 14245.21
998.0157, 14328.50
998.4979, 14514.81
998.9800, 14576.29
999.4621, 14431.45
999.9442, 14291.09
1000.426, 14244.35
1000.908, 14237.87
1001.391, 14270.22
1001.873, 14302.96
1002.355, 14285.86
1002.837, 14234.33
1003.319, 14204.91
1003.801, 14216.75
1004.283, 14235.34
1004.765, 14225.28
1005.247, 14240.31
1005.730, 14365.78
1006.212, 14495.10
1006.694, 14496.32
1007.176, 14395.96
1007.658, 14307.98
1008.140, 14265.91
1008.622, 14239.00
1009.104, 14224.29
1009.587, 14208.39
1010.069, 14159.05
1010.551, 14122.30
1011.033, 14177.60
1011.515, 14289.30
1011.997, 14333.15
1012.479, 14260.07
1012.961, 14187.63
1013.443, 14160.48
1013.926, 14153.10
1014.408, 14161.14
1014.890, 14173.49
1015.372, 14188.56
1015.854, 14197.28
1016.336, 14173.84
1016.818, 14103.44
1017.300, 14041.85
1017.783, 14008.05
1018.265, 13990.67
1018.747, 13990.10
1019.229, 13997.85
1019.711, 14007.95
1020.193, 14019.10
1020.675, 14031.58
1021.157, 14047.39
1021.639, 14054.72
1022.122, 14047.07
1022.604, 14033.33
1023.086, 13998.74
1023.568, 13975.76
1024.050, 14015.15
1024.532, 14088.40
1025.014, 14106.31
1025.496, 14033.21
1025.979, 14007.29
1026.461, 14133.25
1026.943, 14224.42
1027.425, 14179.08
1027.907, 14094.40
1028.389, 14035.91
1028.871, 14008.30
1029.353, 14013.73
1029.835, 14062.24
1030.318, 14088.78
1030.800, 14069.25
1031.282, 14042.95
1031.764, 14008.88
1032.246, 13984.44
1032.728, 13981.37
1033.210, 13997.76
1033.692, 14034.97
1034.174, 14101.18
1034.657, 14139.15
1035.139, 14136.85
1035.621, 14115.02
1036.103, 14055.34
1036.585, 14000.53
1037.067, 13973.70
1037.549, 13972.71
1038.031, 14000.54
1038.514, 14066.16
1038.996, 14099.89
1039.478, 14083.84
1039.960, 14062.73
1040.442, 14037.08
1040.924, 14013.07
1041.406, 13991.49
1041.888, 13974.96
1042.370, 13966.31
1042.853, 13965.00
1043.335, 13982.37
1043.817, 14042.28
1044.299, 14069.41
1044.781, 14042.14
1045.263, 14003.53
1045.745, 13965.84
1046.227, 13939.14
1046.709, 13939.43
1047.192, 13965.39
1047.674, 13991.49
1048.156, 14019.06
1048.638, 14044.17
1049.120, 14070.85
1049.602, 14082.78
1050.084, 14071.12
1050.566, 14044.00
1051.049, 14004.82
1051.531, 13961.03
1052.013, 13963.49
1052.495, 14024.12
1052.977, 14048.34
1053.459, 14023.72
1053.941, 14001.53
1054.423, 14002.02
1054.906, 14000.76
1055.388, 13968.39
1055.870, 13924.56
1056.352, 13941.90
1056.834, 14019.29
1057.316, 14055.03
1057.798, 14044.35
1058.280, 14015.61
1058.762, 13976.25
1059.245, 13944.95
1059.727, 13937.78
1060.209, 13942.90
1060.691, 13939.11
1061.173, 13926.36
1061.655, 13893.16
1062.137, 13846.36
1062.619, 13844.49
1063.101, 13895.96
1063.584, 13934.79
1064.066, 13918.81
1064.548, 13883.28
1065.030, 13875.19
1065.512, 13886.39
1065.994, 13905.46
1066.476, 13925.31
1066.958, 13918.67
1067.441, 13888.54
1067.923, 13871.88
1068.405, 13885.96
1068.887, 13907.13
1069.369, 13890.53
1069.851, 13884.51
1070.333, 13982.45
1070.815, 14123.13
1071.297, 14217.67
1071.780, 14252.73
1072.262, 14218.28
1072.744, 14116.67
1073.226, 14019.97
1073.708, 13979.22
1074.190, 13961.73
1074.672, 13944.86
1075.154, 13933.70
1075.636, 13930.37
1076.119, 13938.26
1076.601, 13977.53
1077.083, 14042.46
1077.565, 14061.92
1078.047, 13966.69
1078.529, 13893.09
1079.011, 13918.36
1079.494, 13970.70
1079.976, 14013.65
1080.458, 14046.42
1080.940, 14075.67
1081.422, 14098.51
1081.904, 14096.46
1082.386, 14047.81
1082.868, 14019.09
1083.350, 14038.93
1083.833, 14060.48
1084.315, 14066.76
1084.797, 14067.15
1085.279, 14075.76
1085.761, 14085.02
1086.243, 14067.33
1086.725, 14009.20
1087.207, 13979.86
1087.689, 13996.33
1088.172, 14010.46
1088.654, 14016.53
1089.136, 14011.99
1089.618, 13988.05
1090.100, 13960.63
1090.582, 13957.58
1091.064, 13978.49
1091.546, 14009.08
1092.029, 14058.44
1092.511, 14065.24
1092.993, 14011.85
1093.475, 13968.35
1093.957, 13967.57
1094.439, 13982.96
1094.921, 13985.66
1095.403, 13978.34
1095.885, 13969.11
1096.368, 13958.28
1096.850, 13948.38
1097.332, 13940.04
1097.814, 13944.26
1098.296, 13963.30
1098.778, 13968.00
1099.260, 13932.61
1099.742, 13889.46
1100.224, 13899.67
1100.707, 13938.54
1101.189, 13937.68
1101.671, 13914.88
1102.153, 13936.37
##END=



