##NAMES=Mimetite
##RRUFFID=R070309
##IDEAL CHEMISTRY=Pb^2+^_5_(As^5+^O_4_)_3_Cl
##LOCALITY=Vrancice, Czechoslovakia
##OWNER=RRUFF
##SOURCE=Michael Scott
##DESCRIPTION=Creamy white massive associated with white calcite. Crystal structure analysis demonstrated full occupancy by Pb with no ordering of Ca.
##STATUS=The identification of this mineral has been confirmed by single-crystal X-ray diffraction.
##URL=rruff.info/R070309
145.6074, 1307.288
146.0895, 1352.646
146.5716, 1401.355
147.0537, 1455.988
147.5358, 1515.916
148.0179, 1564.147
148.5001, 1591.905
148.9822, 1614.676
149.4643, 1644.469
149.9464, 1681.825
150.4285, 1718.348
150.9106, 1747.762
151.3928, 1769.891
151.8749, 1789.548
152.3570, 1809.914
152.8391, 1826.094
153.3212, 1831.529
153.8033, 1825.439
154.2855, 1817.788
154.7676, 1817.576
155.2497, 1822.671
155.7318, 1823.844
156.2139, 1813.168
156.6960, 1801.071
157.1782, 1800.107
157.6603, 1811.723
158.1424, 1828.406
158.6245, 1844.403
159.1066, 1861.049
159.5887, 1882.421
160.0709, 1914.831
160.5530, 1950.543
161.0351, 1976.998
161.5172, 1991.729
161.9993, 2004.984
162.4814, 2021.863
162.9636, 2042.340
163.4457, 2068.053
163.9278, 2103.830
164.4099, 2143.917
164.8920, 2177.142
165.3741, 2201.678
165.8563, 2224.190
166.3384, 2247.586
166.8205, 2271.943
167.3026, 2297.798
167.7847, 2327.400
168.2668, 2358.100
168.7490, 2384.778
169.2311, 2408.209
169.7132, 2425.611
170.1953, 2430.485
170.6774, 2429.627
171.1595, 2434.098
171.6417, 2451.788
172.1238, 2476.866
172.6059, 2494.706
173.0880, 2503.431
173.5701, 2508.169
174.0522, 2509.953
174.5344, 2510.055
175.0165, 2510.328
175.4986, 2512.108
175.9807, 2514.384
176.4628, 2514.124
176.9449, 2509.902
177.4271, 2505.676
177.9092, 2504.813
178.3913, 2504.492
178.8734, 2500.169
179.3555, 2487.938
179.8376, 2471.773
180.3197, 2464.667
180.8019, 2474.932
181.2840, 2479.344
181.7661, 2468.732
182.2482, 2449.677
182.7303, 2430.148
183.2124, 2414.003
183.6946, 2399.796
184.1767, 2382.722
184.6588, 2358.966
185.1409, 2339.481
185.6230, 2329.735
186.1051, 2324.264
186.5873, 2316.987
187.0694, 2305.131
187.5515, 2289.742
188.0336, 2272.586
188.5157, 2250.359
188.9978, 2232.673
189.4800, 2225.099
189.9621, 2220.981
190.4442, 2212.416
190.9263, 2195.570
191.4084, 2175.141
191.8905, 2163.590
192.3727, 2169.478
192.8548, 2168.809
193.3369, 2152.463
193.8190, 2131.127
194.3011, 2115.616
194.7832, 2110.292
195.2654, 2110.185
195.7475, 2104.693
196.2296, 2091.462
196.7117, 2076.710
197.1938, 2058.668
197.6759, 2041.093
198.1581, 2027.688
198.6402, 2019.592
199.1223, 2014.605
199.6044, 2008.022
200.0865, 1995.714
200.5686, 1990.626
201.0508, 2000.052
201.5329, 2011.932
202.0150, 2016.914
202.4971, 2012.482
202.9792, 2002.713
203.4613, 1994.462
203.9435, 1990.552
204.4256, 1981.519
204.9077, 1959.963
205.3898, 1938.710
205.8719, 1928.617
206.3540, 1930.827
206.8362, 1936.045
207.3183, 1929.570
207.8004, 1901.773
208.2825, 1887.470
208.7646, 1899.069
209.2467, 1913.036
209.7289, 1915.142
210.2110, 1904.254
210.6931, 1889.090
211.1752, 1879.299
211.6573, 1875.640
212.1395, 1875.046
212.6216, 1883.087
213.1037, 1889.280
213.5858, 1887.156
214.0679, 1877.594
214.5500, 1866.399
215.0322, 1859.298
215.5143, 1856.988
215.9964, 1854.336
216.4785, 1849.670
216.9606, 1846.197
217.4427, 1844.184
217.9249, 1844.303
218.4070, 1848.205
218.8891, 1858.447
219.3712, 1875.387
219.8533, 1885.567
220.3354, 1882.451
220.8176, 1878.529
221.2997, 1877.036
221.7818, 1877.304
222.2639, 1877.256
222.7460, 1875.321
223.2281, 1871.751
223.7103, 1869.453
224.1924, 1869.348
224.6745, 1869.641
225.1566, 1871.029
225.6387, 1872.377
226.1208, 1872.432
226.6030, 1870.656
227.0851, 1866.619
227.5672, 1857.862
228.0493, 1834.733
228.5314, 1820.331
229.0135, 1822.835
229.4957, 1833.964
229.9778, 1844.734
230.4599, 1851.147
230.9420, 1854.577
231.4241, 1858.585
231.9062, 1864.788
232.3884, 1868.559
232.8705, 1866.323
233.3526, 1863.381
233.8347, 1865.476
234.3168, 1874.287
234.7989, 1885.055
235.2811, 1888.653
235.7632, 1880.008
236.2453, 1876.346
236.7274, 1885.258
237.2095, 1894.750
237.6916, 1894.619
238.1738, 1883.922
238.6559, 1872.156
239.1380, 1872.141
239.6201, 1887.809
240.1022, 1900.761
240.5843, 1911.044
241.0665, 1917.928
241.5486, 1917.772
242.0307, 1912.404
242.5128, 1909.478
242.9949, 1918.740
243.4770, 1941.923
243.9592, 1956.566
244.4413, 1957.748
244.9234, 1954.277
245.4055, 1944.981
245.8876, 1933.202
246.3697, 1926.519
246.8519, 1932.594
247.3340, 1949.394
247.8161, 1957.851
248.2982, 1951.432
248.7803, 1944.995
249.2624, 1943.471
249.7446, 1945.412
250.2267, 1948.479
250.7088, 1951.773
251.1909, 1955.015
251.6730, 1957.215
252.1551, 1957.514
252.6373, 1958.562
253.1194, 1960.986
253.6015, 1964.572
254.0836, 1969.803
254.5657, 1977.390
255.0478, 1984.603
255.5300, 1985.760
256.0121, 1978.370
256.4942, 1974.432
256.9763, 1979.742
257.4584, 1988.534
257.9406, 1998.398
258.4227, 2008.986
258.9048, 2016.623
259.3869, 2015.602
259.8690, 2005.421
260.3511, 1998.059
260.8333, 1995.488
261.3154, 1997.002
261.7975, 2003.285
262.2796, 2013.931
262.7617, 2024.398
263.2438, 2029.808
263.7260, 2031.593
264.2081, 2038.616
264.6902, 2054.664
265.1723, 2071.706
265.6544, 2086.784
266.1365, 2098.860
266.6187, 2103.468
267.1008, 2089.351
267.5829, 2067.990
268.0650, 2065.867
268.5471, 2088.163
269.0292, 2114.715
269.5114, 2133.026
269.9935, 2145.958
270.4756, 2157.846
270.9577, 2169.840
271.4398, 2181.203
271.9219, 2190.015
272.4041, 2196.159
272.8862, 2204.481
273.3683, 2217.371
273.8504, 2234.260
274.3325, 2254.128
274.8146, 2280.418
275.2968, 2303.388
275.7789, 2312.252
276.2610, 2310.997
276.7431, 2316.125
277.2252, 2333.722
277.7073, 2360.245
278.1895, 2391.972
278.6716, 2431.241
279.1537, 2464.333
279.6358, 2479.039
280.1179, 2485.906
280.6000, 2504.474
281.0822, 2540.218
281.5643, 2580.749
282.0464, 2609.983
282.5285, 2626.211
283.0106, 2651.167
283.4927, 2692.303
283.9749, 2740.005
284.4570, 2787.381
284.9391, 2833.440
285.4212, 2877.648
285.9033, 2919.025
286.3854, 2957.494
286.8676, 2996.867
287.3497, 3033.330
287.8318, 3074.274
288.3139, 3128.628
288.7960, 3191.053
289.2781, 3245.851
289.7603, 3283.145
290.2424, 3308.289
290.7245, 3343.184
291.2066, 3398.995
291.6887, 3450.114
292.1708, 3486.183
292.6530, 3517.811
293.1351, 3562.122
293.6172, 3624.705
294.0993, 3690.643
294.5814, 3732.097
295.0635, 3728.359
295.5457, 3738.816
296.0278, 3774.101
296.5099, 3814.681
296.9920, 3844.396
297.4741, 3863.125
297.9562, 3883.885
298.4384, 3922.423
298.9205, 3983.663
299.4026, 4028.511
299.8847, 4038.117
300.3668, 4050.641
300.8489, 4079.729
301.3310, 4122.217
301.8131, 4168.620
302.2953, 4212.541
302.7774, 4255.580
303.2595, 4305.915
303.7416, 4364.975
304.2237, 4430.196
304.7058, 4503.685
305.1880, 4581.078
305.6701, 4657.400
306.1522, 4730.734
306.6343, 4803.992
307.1164, 4882.239
307.5985, 4966.038
308.0807, 5051.621
308.5628, 5138.973
309.0449, 5227.395
309.5270, 5313.691
310.0091, 5398.721
310.4912, 5488.536
310.9734, 5590.577
311.4555, 5703.813
311.9376, 5816.102
312.4197, 5930.964
312.9018, 6037.217
313.3839, 6122.830
313.8661, 6195.249
314.3482, 6273.236
314.8303, 6374.348
315.3124, 6482.276
315.7945, 6566.982
316.2766, 6625.721
316.7588, 6676.778
317.2409, 6728.699
317.7230, 6778.536
318.2051, 6821.122
318.6872, 6853.984
319.1693, 6882.331
319.6515, 6917.577
320.1336, 6953.916
320.6157, 6963.568
321.0978, 6931.818
321.5799, 6877.393
322.0620, 6829.705
322.5442, 6791.509
323.0263, 6744.873
323.5084, 6683.865
323.9905, 6611.773
324.4726, 6530.640
324.9547, 6440.536
325.4369, 6347.645
325.9190, 6257.727
326.4011, 6171.209
326.8832, 6082.605
327.3653, 5992.008
327.8474, 5898.953
328.3296, 5797.732
328.8117, 5692.812
329.2938, 5597.309
329.7759, 5518.822
330.2580, 5454.702
330.7401, 5395.534
331.2223, 5353.910
331.7044, 5301.202
332.1865, 5225.893
332.6686, 5141.775
333.1507, 5061.410
333.6328, 4989.411
334.1150, 4925.889
334.5971, 4871.280
335.0792, 4828.586
335.5613, 4787.681
336.0434, 4750.058
336.5255, 4712.759
337.0077, 4671.253
337.4898, 4628.299
337.9719, 4592.546
338.4540, 4573.720
338.9361, 4568.816
339.4182, 4549.387
339.9004, 4501.206
340.3825, 4459.691
340.8646, 4435.596
341.3467, 4422.948
341.8288, 4415.375
342.3109, 4411.164
342.7931, 4407.730
343.2752, 4402.392
343.7573, 4395.688
344.2394, 4382.321
344.7215, 4348.717
345.2036, 4318.137
345.6858, 4311.645
346.1679, 4329.682
346.6500, 4350.572
347.1321, 4359.293
347.6142, 4360.442
348.0963, 4367.086
348.5785, 4381.432
349.0606, 4398.494
349.5427, 4417.333
350.0248, 4436.156
350.5069, 4448.780
350.9890, 4449.142
351.4712, 4446.898
351.9533, 4450.139
352.4354, 4457.971
352.9175, 4465.354
353.3996, 4469.573
353.8817, 4472.273
354.3639, 4478.604
354.8460, 4492.804
355.3281, 4501.210
355.8102, 4499.942
356.2923, 4491.660
356.7744, 4477.929
357.2566, 4459.438
357.7387, 4439.474
358.2208, 4421.291
358.7029, 4404.518
359.1850, 4392.045
359.6671, 4389.459
360.1493, 4385.046
360.6314, 4375.765
361.1135, 4360.456
361.5956, 4337.145
362.0777, 4304.050
362.5598, 4263.736
363.0420, 4225.392
363.5241, 4190.904
364.0062, 4155.391
364.4883, 4114.261
364.9704, 4074.446
365.4525, 4045.125
365.9347, 4026.958
366.4168, 4007.139
366.8989, 3967.924
367.3810, 3907.217
367.8631, 3857.527
368.3452, 3826.407
368.8274, 3799.217
369.3095, 3771.249
369.7916, 3741.024
370.2737, 3705.171
370.7558, 3658.388
371.2379, 3608.086
371.7201, 3568.667
372.2022, 3541.464
372.6843, 3512.721
373.1664, 3474.636
373.6485, 3433.168
374.1306, 3397.552
374.6128, 3369.291
375.0949, 3342.531
375.5770, 3318.357
376.0591, 3293.085
376.5412, 3256.533
377.0233, 3205.225
377.5055, 3153.772
377.9876, 3118.952
378.4697, 3103.150
378.9518, 3077.945
379.4339, 3031.561
379.9160, 2986.089
380.3982, 2958.411
380.8803, 2943.141
381.3624, 2923.080
381.8445, 2888.069
382.3266, 2844.894
382.8087, 2813.730
383.2909, 2810.353
383.7730, 2798.968
384.2551, 2773.777
384.7372, 2743.733
385.2193, 2715.535
385.7014, 2690.521
386.1836, 2666.313
386.6657, 2639.975
387.1478, 2611.343
387.6299, 2585.757
388.1120, 2564.034
388.5941, 2544.553
389.0763, 2524.875
389.5584, 2507.445
390.0405, 2497.531
390.5226, 2498.974
391.0047, 2503.749
391.4868, 2497.586
391.9690, 2479.042
392.4511, 2463.837
392.9332, 2459.443
393.4153, 2456.971
393.8974, 2447.400
394.3795, 2430.668
394.8617, 2414.322
395.3438, 2401.045
395.8259, 2390.849
396.3080, 2384.398
396.7901, 2381.925
397.2722, 2380.810
397.7544, 2380.891
398.2365, 2380.714
398.7186, 2374.080
399.2007, 2348.024
399.6828, 2330.141
400.1649, 2340.125
400.6471, 2363.236
401.1292, 2374.324
401.6113, 2365.100
402.0934, 2345.449
402.5755, 2328.928
403.0576, 2314.206
403.5398, 2307.890
404.0219, 2320.339
404.5040, 2330.344
404.9861, 2323.396
405.4682, 2304.687
405.9503, 2289.120
406.4325, 2286.615
406.9146, 2293.072
407.3967, 2293.988
407.8788, 2287.150
408.3609, 2279.152
408.8430, 2267.661
409.3252, 2257.909
409.8073, 2255.902
410.2894, 2261.950
410.7715, 2267.762
411.2536, 2265.257
411.7357, 2256.074
412.2179, 2248.286
412.7000, 2241.979
413.1821, 2238.188
413.6642, 2241.053
414.1463, 2246.758
414.6284, 2246.989
415.1106, 2234.649
415.5927, 2223.236
416.0748, 2226.211
416.5569, 2238.616
417.0390, 2244.662
417.5211, 2238.495
418.0033, 2225.741
418.4854, 2214.035
418.9675, 2203.012
419.4496, 2194.851
419.9317, 2192.416
420.4138, 2190.661
420.8960, 2185.998
421.3781, 2178.883
421.8602, 2171.569
422.3423, 2165.359
422.8244, 2160.330
423.3065, 2157.409
423.7887, 2164.232
424.2708, 2160.609
424.7529, 2138.243
425.2350, 2109.843
425.7171, 2082.005
426.1992, 2057.479
426.6814, 2041.660
427.1635, 2046.294
427.6456, 2068.556
428.1277, 2072.243
428.6098, 2048.081
429.0919, 2023.052
429.5741, 2010.843
430.0562, 2006.611
430.5383, 2004.352
431.0204, 2004.020
431.5025, 2002.429
431.9846, 1995.083
432.4668, 1983.967
432.9489, 1977.612
433.4310, 1979.827
433.9131, 1981.598
434.3952, 1970.012
434.8773, 1943.103
435.3595, 1925.150
435.8416, 1927.735
436.3237, 1930.404
436.8058, 1917.390
437.2879, 1894.023
437.7701, 1875.479
438.2522, 1869.751
438.7343, 1872.150
439.2164, 1870.535
439.6985, 1859.315
440.1806, 1854.253
440.6628, 1862.689
441.1449, 1870.800
441.6270, 1868.765
442.1091, 1857.582
442.5912, 1844.594
443.0733, 1834.109
443.5555, 1826.631
444.0376, 1825.856
444.5197, 1835.932
445.0018, 1841.062
445.4839, 1830.952
445.9660, 1814.962
446.4482, 1801.928
446.9303, 1793.310
447.4124, 1784.950
447.8945, 1771.507
448.3766, 1757.068
448.8587, 1752.807
449.3409, 1761.027
449.8230, 1767.214
450.3051, 1758.261
450.7872, 1736.161
451.2693, 1722.512
451.7514, 1721.661
452.2336, 1723.463
452.7157, 1726.518
453.1978, 1729.566
453.6799, 1731.011
454.1620, 1730.390
454.6441, 1728.288
455.1263, 1725.732
455.6084, 1723.310
456.0905, 1717.131
456.5726, 1700.618
457.0547, 1687.110
457.5368, 1684.194
458.0190, 1686.135
458.5011, 1682.716
458.9832, 1668.755
459.4653, 1652.203
459.9474, 1645.042
460.4295, 1647.446
460.9117, 1649.107
461.3938, 1647.302
461.8759, 1645.304
462.3580, 1647.912
462.8401, 1653.716
463.3222, 1654.683
463.8044, 1643.475
464.2865, 1630.567
464.7686, 1625.429
465.2507, 1626.853
465.7328, 1629.949
466.2149, 1633.063
466.6971, 1635.064
467.1792, 1633.358
467.6613, 1623.825
468.1434, 1619.486
468.6255, 1625.687
469.1076, 1632.337
469.5898, 1631.947
470.0719, 1626.334
470.5540, 1622.808
471.0361, 1626.710
471.5182, 1633.822
472.0003, 1630.718
472.4825, 1612.897
472.9646, 1597.190
473.4467, 1582.940
473.9288, 1575.293
474.4109, 1582.794
474.8930, 1603.497
475.3752, 1619.669
475.8573, 1619.181
476.3394, 1608.500
476.8215, 1596.554
477.3036, 1583.559
477.7857, 1574.156
478.2679, 1570.872
478.7500, 1572.501
479.2321, 1577.201
479.7142, 1588.151
480.1963, 1593.930
480.6784, 1586.844
481.1606, 1577.365
481.6427, 1577.850
482.1248, 1586.861
482.6069, 1590.794
483.0890, 1578.084
483.5711, 1553.316
484.0533, 1542.282
484.5354, 1554.114
485.0175, 1565.150
485.4996, 1573.143
485.9817, 1578.307
486.4638, 1578.975
486.9460, 1575.915
487.4281, 1574.521
487.9102, 1583.873
488.3923, 1597.920
488.8744, 1595.065
489.3565, 1571.758
489.8387, 1551.443
490.3208, 1547.511
490.8029, 1553.406
491.2850, 1554.772
491.7671, 1550.240
492.2492, 1545.274
492.7314, 1540.135
493.2135, 1536.424
493.6956, 1537.865
494.1777, 1543.719
494.6598, 1547.204
495.1419, 1542.652
495.6241, 1531.627
496.1062, 1523.986
496.5883, 1517.808
497.0704, 1518.368
497.5525, 1533.538
498.0346, 1550.252
498.5168, 1556.935
498.9989, 1552.938
499.4810, 1546.437
499.9631, 1543.608
500.4452, 1543.680
500.9273, 1543.618
501.4095, 1543.051
501.8916, 1544.258
502.3737, 1551.754
502.8558, 1559.379
503.3379, 1555.313
503.8200, 1534.648
504.3022, 1522.397
504.7843, 1538.460
505.2664, 1561.842
505.7485, 1565.290
506.2306, 1549.154
506.7127, 1534.071
507.1949, 1534.292
507.6770, 1545.835
508.1591, 1551.306
508.6412, 1547.221
509.1233, 1541.778
509.6054, 1532.695
510.0876, 1524.571
510.5697, 1520.271
511.0518, 1520.187
511.5339, 1524.161
512.0161, 1534.653
512.4982, 1547.478
512.9803, 1549.705
513.4624, 1539.398
513.9445, 1530.150
514.4266, 1527.209
514.9088, 1527.175
515.3909, 1524.724
515.8730, 1519.384
516.3551, 1517.473
516.8372, 1523.710
517.3193, 1532.116
517.8015, 1538.053
518.2836, 1541.184
518.7657, 1541.104
519.2478, 1537.007
519.7299, 1532.211
520.2120, 1535.537
520.6942, 1557.379
521.1763, 1567.229
521.6584, 1558.505
522.1405, 1545.489
522.6226, 1533.568
523.1047, 1523.729
523.5869, 1516.040
524.0690, 1509.827
524.5511, 1507.190
525.0332, 1514.865
525.5153, 1532.741
525.9974, 1542.325
526.4796, 1535.970
526.9617, 1525.334
527.4438, 1523.842
527.9259, 1530.176
528.4080, 1532.852
528.8901, 1528.944
529.3723, 1522.264
529.8544, 1512.892
530.3365, 1502.776
530.8186, 1495.036
531.3007, 1490.763
531.7828, 1490.305
532.2650, 1494.794
532.7471, 1505.415
533.2292, 1513.661
533.7113, 1516.823
534.1934, 1520.717
534.6755, 1529.604
535.1577, 1539.297
535.6398, 1543.663
536.1219, 1540.635
536.6040, 1535.320
537.0861, 1532.041
537.5682, 1530.291
538.0504, 1527.884
538.5325, 1524.221
539.0146, 1522.977
539.4967, 1528.587
539.9788, 1538.663
540.4609, 1541.316
540.9431, 1531.972
541.4252, 1522.418
541.9073, 1514.008
542.3894, 1507.104
542.8715, 1501.431
543.3536, 1497.382
543.8358, 1496.792
544.3179, 1501.822
544.8000, 1510.792
545.2821, 1516.549
545.7642, 1519.037
546.2463, 1518.403
546.7285, 1511.282
547.2106, 1503.524
547.6926, 1498.535
548.1747, 1496.692
548.6569, 1499.196
549.1390, 1511.483
549.6211, 1524.939
550.1032, 1528.997
550.5853, 1525.382
551.0674, 1523.106
551.5496, 1526.348
552.0317, 1529.096
552.5138, 1519.832
552.9959, 1489.296
553.4780, 1478.606
553.9601, 1505.854
554.4423, 1530.588
554.9244, 1534.617
555.4065, 1526.029
555.8886, 1519.228
556.3707, 1519.562
556.8528, 1520.117
557.3350, 1507.909
557.8171, 1485.971
558.2992, 1482.612
558.7813, 1507.039
559.2634, 1528.802
559.7455, 1524.199
560.2277, 1501.846
560.7098, 1490.303
561.1919, 1491.557
561.6740, 1500.438
562.1561, 1526.553
562.6382, 1552.684
563.1204, 1557.211
563.6025, 1541.088
564.0846, 1522.960
564.5667, 1516.327
565.0488, 1518.218
565.5309, 1516.792
566.0131, 1510.871
566.4952, 1504.609
566.9773, 1497.151
567.4594, 1490.835
567.9415, 1486.874
568.4236, 1485.347
568.9058, 1486.234
569.3879, 1491.260
569.8700, 1497.142
570.3521, 1502.355
570.8342, 1505.856
571.3163, 1502.378
571.7985, 1489.658
572.2806, 1476.109
572.7627, 1472.161
573.2448, 1478.919
573.7269, 1484.806
574.2090, 1493.993
574.6912, 1497.464
575.1733, 1488.433
575.6554, 1474.886
576.1375, 1465.144
576.6196, 1461.188
577.1017, 1460.524
577.5839, 1460.607
578.0660, 1462.162
578.5481, 1470.502
579.0302, 1487.347
579.5123, 1495.223
579.9944, 1481.461
580.4766, 1458.188
580.9587, 1450.257
581.4408, 1461.551
581.9229, 1468.501
582.4050, 1464.191
582.8871, 1457.929
583.3693, 1455.588
583.8514, 1456.267
584.3335, 1457.073
584.8156, 1456.699
585.2977, 1455.430
585.7798, 1452.595
586.2620, 1447.646
586.7441, 1448.280
587.2262, 1458.149
587.7083, 1468.250
588.1904, 1475.751
588.6725, 1479.536
589.1547, 1476.186
589.6368, 1461.787
590.1189, 1449.445
590.6010, 1446.490
591.0831, 1448.570
591.5652, 1451.341
592.0474, 1453.833
592.5295, 1455.279
593.0116, 1455.305
593.4937, 1453.489
593.9758, 1447.552
594.4579, 1432.906
594.9401, 1425.136
595.4222, 1436.164
595.9043, 1444.666
596.3864, 1435.536
596.8685, 1415.437
597.3506, 1402.377
597.8328, 1405.306
598.3149, 1412.867
598.7970, 1413.793
599.2791, 1411.434
599.7612, 1417.190
600.2433, 1433.321
600.7255, 1444.843
601.2076, 1437.258
601.6897, 1413.864
602.1718, 1401.687
602.6539, 1411.635
603.1360, 1418.245
603.6182, 1417.830
604.1003, 1414.872
604.5824, 1410.954
605.0645, 1407.400
605.5466, 1407.759
606.0287, 1417.403
606.5109, 1427.520
606.9930, 1421.180
607.4751, 1401.012
607.9572, 1388.550
608.4393, 1389.881
608.9214, 1397.272
609.4036, 1404.553
609.8857, 1411.705
610.3678, 1412.993
610.8499, 1404.185
611.3320, 1395.484
611.8141, 1386.127
612.2963, 1379.939
612.7784, 1383.280
613.2605, 1394.946
613.7426, 1405.494
614.2247, 1408.261
614.7068, 1404.476
615.1890, 1395.353
615.6711, 1380.532
616.1532, 1368.191
616.6353, 1360.057
617.1174, 1356.502
617.5995, 1360.185
618.0817, 1371.293
618.5638, 1376.691
619.0459, 1369.896
619.5280, 1364.227
620.0101, 1367.756
620.4922, 1373.837
620.9744, 1372.533
621.4565, 1362.967
621.9386, 1354.041
622.4207, 1354.768
622.9028, 1362.105
623.3849, 1363.498
623.8671, 1357.758
624.3492, 1353.203
624.8313, 1353.508
625.3134, 1354.713
625.7955, 1351.672
626.2776, 1344.666
626.7598, 1338.266
627.2419, 1331.320
627.7240, 1327.057
628.2061, 1327.808
628.6882, 1332.045
629.1703, 1339.670
629.6525, 1349.496
630.1346, 1355.259
630.6167, 1348.812
631.0988, 1333.322
631.5809, 1327.523
632.0630, 1334.160
632.5452, 1339.740
633.0273, 1340.114
633.5094, 1337.783
633.9915, 1335.180
634.4736, 1332.331
634.9557, 1329.668
635.4379, 1327.830
635.9200, 1325.646
636.4021, 1320.793
636.8842, 1315.783
637.3663, 1315.039
637.8484, 1319.301
638.3306, 1325.407
638.8127, 1331.323
639.2948, 1336.142
639.7769, 1332.807
640.2590, 1318.188
640.7411, 1306.656
641.2233, 1304.543
641.7054, 1305.095
642.1875, 1300.204
642.6696, 1290.518
643.1517, 1284.551
643.6339, 1285.171
644.1160, 1288.741
644.5981, 1295.778
645.0802, 1303.486
645.5623, 1307.420
646.0444, 1306.854
646.5266, 1304.689
647.0087, 1303.696
647.4908, 1303.318
647.9729, 1300.142
648.4550, 1292.736
648.9371, 1288.818
649.4193, 1294.413
649.9014, 1299.733
650.3835, 1292.892
650.8656, 1276.043
651.3477, 1264.418
651.8298, 1262.261
652.3120, 1263.869
652.7941, 1267.474
653.2762, 1272.793
653.7583, 1281.681
654.2404, 1292.980
654.7225, 1299.722
655.2047, 1295.230
655.6868, 1283.324
656.1689, 1276.570
656.6510, 1275.532
657.1331, 1276.540
657.6152, 1280.474
658.0974, 1283.892
658.5795, 1282.011
659.0616, 1276.473
659.5437, 1274.880
660.0258, 1282.573
660.5079, 1288.499
660.9901, 1285.863
661.4722, 1281.551
661.9543, 1285.277
662.4364, 1295.495
662.9185, 1301.156
663.4006, 1294.255
663.8828, 1280.181
664.3649, 1269.318
664.8470, 1261.630
665.3291, 1258.925
665.8112, 1262.908
666.2933, 1268.512
666.7755, 1271.834
667.2576, 1273.694
667.7397, 1277.949
668.2218, 1290.190
668.7039, 1295.756
669.1860, 1286.433
669.6682, 1273.837
670.1503, 1265.224
670.6324, 1261.494
671.1145, 1262.927
671.5966, 1270.307
672.0787, 1278.013
672.5609, 1276.606
673.0430, 1267.647
673.5251, 1263.148
674.0072, 1265.115
674.4893, 1265.824
674.9714, 1258.924
675.4536, 1249.043
675.9357, 1248.968
676.4178, 1266.613
676.8999, 1276.692
677.3820, 1274.523
677.8641, 1268.774
678.3463, 1259.374
678.8284, 1251.033
679.3105, 1252.932
679.7926, 1267.955
680.2747, 1282.101
680.7568, 1279.515
681.2390, 1266.891
681.7211, 1260.572
682.2032, 1260.905
682.6853, 1260.328
683.1674, 1255.196
683.6495, 1248.845
684.1317, 1246.242
684.6138, 1247.571
685.0959, 1251.777
685.5780, 1264.812
686.0601, 1273.613
686.5422, 1271.318
687.0244, 1265.522
687.5065, 1264.648
687.9886, 1269.414
688.4707, 1273.594
688.9528, 1272.217
689.4349, 1269.559
689.9171, 1271.069
690.3992, 1275.359
690.8813, 1279.682
691.3634, 1283.107
691.8455, 1280.459
692.3276, 1264.172
692.8098, 1237.406
693.2919, 1230.240
693.7740, 1254.456
694.2561, 1272.145
694.7382, 1271.324
695.2203, 1266.327
695.7025, 1265.573
696.1846, 1268.838
696.6667, 1274.599
697.1488, 1286.049
697.6309, 1294.550
698.1130, 1291.422
698.5952, 1285.027
699.0773, 1287.353
699.5594, 1297.730
700.0415, 1306.449
700.5236, 1307.458
701.0057, 1303.847
701.4879, 1301.354
701.9700, 1299.937
702.4521, 1300.307
702.9342, 1302.485
703.4163, 1306.733
703.8984, 1314.999
704.3806, 1324.727
704.8627, 1329.277
705.3448, 1325.784
705.8269, 1325.704
706.3090, 1334.782
706.7911, 1343.523
707.2733, 1343.163
707.7554, 1339.571
708.2375, 1345.020
708.7196, 1362.649
709.2017, 1379.051
709.6838, 1377.480
710.1660, 1366.023
710.6481, 1365.628
711.1302, 1376.086
711.6123, 1389.720
712.0944, 1404.841
712.5765, 1417.400
713.0587, 1420.505
713.5408, 1413.120
714.0229, 1418.710
714.5050, 1453.232
714.9871, 1478.868
715.4692, 1483.450
715.9514, 1482.059
716.4335, 1486.023
716.9156, 1495.411
717.3977, 1505.193
717.8798, 1513.097
718.3619, 1521.105
718.8441, 1531.403
719.3262, 1542.657
719.8083, 1552.994
720.2904, 1561.952
720.7725, 1569.083
721.2546, 1573.933
721.7368, 1577.228
722.2189, 1580.391
722.7010, 1583.191
723.1831, 1587.399
723.6652, 1593.040
724.1473, 1600.449
724.6295, 1612.354
725.1116, 1625.092
725.5937, 1631.800
726.0758, 1632.273
726.5579, 1627.078
727.0400, 1610.454
727.5222, 1594.128
728.0043, 1585.103
728.4864, 1581.053
728.9685, 1576.664
729.4506, 1570.931
729.9327, 1569.432
730.4149, 1582.989
730.8970, 1602.028
731.3791, 1602.118
731.8612, 1585.284
732.3433, 1570.872
732.8254, 1564.616
733.3076, 1560.923
733.7897, 1553.354
734.2718, 1542.725
734.7539, 1540.024
735.2360, 1554.210
735.7181, 1561.258
736.2003, 1555.396
736.6824, 1544.794
737.1645, 1529.630
737.6466, 1513.979
738.1287, 1508.226
738.6108, 1517.812
739.0930, 1530.997
739.5751, 1544.089
740.0572, 1555.319
740.5393, 1562.778
741.0214, 1566.362
741.5035, 1564.972
741.9857, 1558.028
742.4678, 1551.815
742.9499, 1557.527
743.4320, 1573.934
743.9141, 1582.392
744.3962, 1580.662
744.8784, 1583.018
745.3605, 1598.009
745.8426, 1615.029
746.3247, 1617.227
746.8068, 1601.550
747.2889, 1600.617
747.7711, 1628.595
748.2532, 1652.083
748.7353, 1658.883
749.2174, 1661.231
749.6995, 1669.896
750.1816, 1684.940
750.6638, 1700.974
751.1459, 1715.945
751.6280, 1730.002
752.1101, 1743.202
752.5922, 1755.628
753.0743, 1766.050
753.5565, 1775.148
754.0386, 1788.312
754.5207, 1809.144
755.0028, 1832.115
755.4849, 1844.040
755.9670, 1842.515
756.4492, 1853.460
756.9313, 1880.880
757.4134, 1912.624
757.8955, 1950.068
758.3776, 1984.303
758.8597, 1996.722
759.3419, 1983.870
759.8240, 1987.717
760.3061, 2025.526
760.7882, 2063.957
761.2703, 2090.802
761.7524, 2111.759
762.2346, 2133.490
762.7167, 2156.362
763.1988, 2176.595
763.6809, 2190.837
764.1630, 2203.650
764.6451, 2218.892
765.1273, 2237.139
765.6094, 2261.973
766.0915, 2292.830
766.5736, 2321.005
767.0557, 2340.817
767.5378, 2355.966
768.0200, 2376.023
768.5021, 2403.497
768.9842, 2419.442
769.4663, 2419.073
769.9484, 2416.223
770.4305, 2409.900
770.9127, 2409.136
771.3948, 2431.359
771.8769, 2478.997
772.3590, 2514.745
772.8411, 2531.599
773.3232, 2538.911
773.8054, 2529.100
774.2875, 2518.941
774.7696, 2529.295
775.2517, 2558.090
775.7338, 2584.253
776.2159, 2593.839
776.6981, 2601.210
777.1802, 2624.728
777.6623, 2657.778
778.1444, 2685.293
778.6265, 2705.748
779.1086, 2724.061
779.5908, 2742.498
780.0729, 2762.904
780.5550, 2789.670
781.0371, 2823.669
781.5192, 2854.389
782.0013, 2880.400
782.4835, 2907.225
782.9656, 2937.377
783.4477, 2968.804
783.9298, 2997.710
784.4119, 3023.857
784.8940, 3055.930
785.3762, 3102.054
785.8583, 3143.958
786.3404, 3173.048
786.8225, 3198.766
787.3046, 3226.570
787.7867, 3258.844
788.2689, 3299.143
788.7510, 3349.793
789.2331, 3406.610
789.7152, 3469.006
790.1973, 3534.309
790.6794, 3601.392
791.1616, 3668.255
791.6437, 3727.734
792.1258, 3777.236
792.6079, 3823.036
793.0900, 3870.806
793.5721, 3921.935
794.0543, 3990.831
794.5364, 4078.885
795.0185, 4179.488
795.5006, 4295.797
795.9827, 4413.383
796.4648, 4516.682
796.9470, 4607.792
797.4291, 4705.384
797.9112, 4804.433
798.3933, 4917.081
798.8754, 5050.344
799.3575, 5190.920
799.8397, 5332.624
800.3218, 5475.569
800.8039, 5624.236
801.2860, 5780.616
801.7681, 5930.938
802.2502, 6056.828
802.7324, 6183.836
803.2145, 6338.649
803.6966, 6510.964
804.1787, 6683.132
804.6608, 6848.996
805.1429, 7007.402
805.6251, 7155.016
806.1072, 7297.751
806.5893, 7445.414
807.0714, 7599.272
807.5535, 7770.373
808.0356, 7962.621
808.5178, 8143.222
808.9999, 8289.558
809.4820, 8413.499
809.9641, 8544.393
810.4462, 8692.353
810.9283, 8810.872
811.4105, 8887.193
811.8926, 8955.730
812.3747, 9039.626
812.8568, 9115.183
813.3389, 9155.756
813.8210, 9161.043
814.3032, 9143.751
814.7853, 9088.528
815.2674, 9032.741
815.7495, 8992.396
816.2316, 8954.518
816.7137, 8906.041
817.1959, 8848.811
817.6780, 8790.793
818.1601, 8733.694
818.6422, 8684.151
819.1243, 8653.632
819.6064, 8630.330
820.0886, 8594.799
820.5707, 8549.283
821.0528, 8506.182
821.5349, 8469.658
822.0170, 8438.027
822.4991, 8410.548
822.9813, 8385.385
823.4634, 8355.867
823.9455, 8322.003
824.4276, 8278.945
824.9097, 8225.815
825.3918, 8162.172
825.8740, 8085.724
826.3561, 7999.973
826.8382, 7919.022
827.3203, 7855.161
827.8024, 7767.292
828.2845, 7629.469
828.7667, 7499.446
829.2488, 7413.447
829.7309, 7337.017
830.2130, 7226.107
830.6951, 7078.180
831.1772, 6935.296
831.6594, 6818.893
832.1415, 6695.460
832.6236, 6537.623
833.1057, 6374.563
833.5878, 6244.814
834.0699, 6137.104
834.5521, 6003.841
835.0342, 5819.061
835.5163, 5630.630
835.9984, 5482.063
836.4805, 5358.272
836.9626, 5241.829
837.4448, 5127.131
837.9269, 4998.679
838.4090, 4852.203
838.8911, 4701.861
839.3732, 4561.056
839.8553, 4430.926
840.3375, 4317.230
840.8196, 4220.385
841.3017, 4118.113
841.7838, 4005.842
842.2659, 3888.518
842.7480, 3764.032
843.2302, 3642.898
843.7123, 3552.977
844.1944, 3507.795
844.6765, 3448.030
845.1586, 3366.873
845.6407, 3281.407
846.1229, 3188.939
846.6050, 3100.214
847.0871, 3025.497
847.5692, 2964.593
848.0513, 2912.529
848.5334, 2881.788
849.0156, 2841.605
849.4977, 2776.645
849.9798, 2705.400
850.4619, 2637.995
850.9440, 2576.326
851.4261, 2522.646
851.9083, 2477.585
852.3904, 2436.863
852.8725, 2400.313
853.3546, 2363.922
853.8367, 2321.228
854.3188, 2275.715
854.8010, 2233.920
855.2831, 2197.349
855.7652, 2165.747
856.2473, 2140.387
856.7294, 2116.009
857.2115, 2080.851
857.6937, 2038.254
858.1758, 2003.023
858.6579, 1976.480
859.1400, 1952.982
859.6221, 1929.838
860.1042, 1908.579
860.5864, 1892.579
861.0685, 1881.420
861.5506, 1859.572
862.0327, 1822.934
862.5148, 1792.137
862.9969, 1774.274
863.4791, 1757.458
863.9612, 1730.246
864.4433, 1697.122
864.9254, 1674.965
865.4075, 1669.650
865.8896, 1662.967
866.3718, 1655.923
866.8539, 1646.326
867.3360, 1631.328
867.8181, 1614.690
868.3002, 1600.728
868.7823, 1589.592
869.2645, 1578.577
869.7466, 1566.341
870.2287, 1555.047
870.7108, 1547.040
871.1929, 1539.111
871.6750, 1529.037
872.1572, 1516.556
872.6393, 1501.378
873.1214, 1483.279
873.6035, 1465.028
874.0856, 1445.080
874.5677, 1428.849
875.0499, 1426.289
875.5320, 1430.921
876.0141, 1429.437
876.4962, 1419.534
876.9783, 1405.629
877.4604, 1389.599
877.9426, 1375.738
878.4247, 1374.088
878.9068, 1380.599
879.3889, 1380.195
879.8710, 1372.089
880.3531, 1359.544
880.8353, 1343.589
881.3174, 1329.137
881.7995, 1322.466
882.2816, 1322.358
882.7637, 1321.725
883.2458, 1320.907
883.7280, 1316.603
884.2101, 1307.371
884.6922, 1297.650
885.1743, 1290.357
885.6564, 1284.440
886.1385, 1277.023
886.6207, 1266.423
887.1028, 1262.429
887.5849, 1271.576
888.0670, 1276.773
888.5491, 1271.930
889.0313, 1262.793
889.5134, 1253.652
889.9955, 1244.435
890.4776, 1234.563
890.9597, 1221.480
891.4418, 1212.401
891.9240, 1213.438
892.4061, 1213.076
892.8882, 1202.570
893.3703, 1188.357
893.8524, 1179.049
894.3345, 1175.768
894.8167, 1175.296
895.2988, 1178.749
895.7809, 1181.793
896.2630, 1182.664
896.7451, 1181.560
897.2272, 1178.300
897.7094, 1173.315
898.1915, 1166.957
898.6736, 1159.339
899.1557, 1152.957
899.6378, 1151.267
900.1199, 1150.799
900.6021, 1145.995
901.0842, 1139.450
901.5663, 1136.897
902.0484, 1139.036
902.5305, 1143.678
903.0126, 1150.022
903.4948, 1154.608
903.9769, 1151.833
904.4590, 1143.212
904.9411, 1131.180
905.4232, 1117.072
905.9053, 1110.369
906.3875, 1114.071
906.8696, 1118.629
907.3517, 1114.192
907.8338, 1104.677
908.3159, 1103.624
908.7980, 1111.105
909.2802, 1116.404
909.7623, 1118.209
910.2444, 1119.585
910.7265, 1122.235
911.2086, 1124.542
911.6907, 1124.388
912.1729, 1121.749
912.6550, 1114.807
913.1371, 1100.224
913.6192, 1092.209
914.1013, 1095.396
914.5834, 1101.714
915.0656, 1108.191
915.5477, 1112.653
916.0298, 1109.120
916.5119, 1093.690
916.9940, 1084.977
917.4761, 1088.718
917.9583, 1091.069
918.4404, 1086.338
918.9225, 1081.177
919.4046, 1081.175
919.8867, 1085.175
920.3688, 1089.222
920.8510, 1096.860
921.3331, 1095.984
921.8152, 1073.555
922.2973, 1055.323
922.7794, 1055.785
923.2615, 1065.116
923.7437, 1073.405
924.2258, 1079.151
924.7079, 1081.893
925.1900, 1081.814
925.6721, 1078.217
926.1542, 1066.550
926.6364, 1055.257
927.1185, 1050.213
927.6006, 1050.833
928.0827, 1057.801
928.5648, 1070.121
929.0469, 1077.038
929.5291, 1067.659
930.0112, 1056.376
930.4933, 1054.227
930.9754, 1056.153
931.4575, 1057.946
931.9396, 1057.733
932.4218, 1050.744
932.9039, 1035.487
933.3860, 1024.481
933.8681, 1033.059
934.3502, 1048.276
934.8323, 1053.977
935.3145, 1053.285
935.7966, 1052.056
936.2787, 1051.387
936.7608, 1051.050
937.2429, 1051.056
937.7250, 1049.219
938.2072, 1040.495
938.6893, 1028.883
939.1714, 1023.769
939.6535, 1024.206
940.1356, 1026.055
940.6177, 1028.271
941.0999, 1031.688
941.5820, 1037.411
942.0641, 1041.918
942.5462, 1036.499
943.0283, 1023.829
943.5104, 1018.619
943.9926, 1020.924
944.4747, 1023.040
944.9568, 1022.599
945.4389, 1021.254
945.9210, 1020.149
946.4031, 1020.033
946.8853, 1024.782
947.3674, 1034.337
947.8495, 1035.037
948.3316, 1025.112
948.8137, 1016.668
949.2958, 1014.149
949.7780, 1016.206
950.2601, 1022.243
950.7422, 1030.951
951.2243, 1035.173
951.7064, 1034.390
952.1885, 1031.484
952.6707, 1024.845
953.1528, 1024.261
953.6349, 1037.374
954.1170, 1052.205
954.5991, 1051.882
955.0812, 1037.183
955.5634, 1025.001
956.0455, 1014.934
956.5276, 1009.139
957.0097, 1009.883
957.4918, 1010.435
957.9739, 1005.536
958.4561, 1000.129
958.9382, 1002.950
959.4203, 1014.773
959.9024, 1024.164
960.3845, 1032.394
960.8666, 1035.400
961.3488, 1029.135
961.8309, 1022.238
962.3130, 1020.021
962.7951, 1020.682
963.2772, 1020.860
963.7593, 1020.596
964.2415, 1019.556
964.7236, 1013.116
965.2057, 1012.634
965.6878, 1029.821
966.1699, 1043.994
966.6520, 1036.691
967.1342, 1017.863
967.6163, 1011.522
968.0984, 1023.090
968.5805, 1027.487
969.0626, 1015.249
969.5447, 1006.786
970.0269, 1011.159
970.5090, 1017.542
970.9911, 1016.781
971.4732, 1011.549
971.9553, 1010.042
972.4374, 1014.885
972.9196, 1016.713
973.4017, 1013.047
973.8838, 1007.710
974.3659, 998.5440
974.8480, 991.2067
975.3301, 992.8365
975.8123, 1000.394
976.2944, 1004.128
976.7765, 1002.191
977.2586, 997.4654
977.7407, 982.0910
978.2228, 974.4094
978.7050, 990.2104
979.1871, 1011.560
979.6692, 1021.359
980.1513, 1020.534
980.6334, 1017.571
981.1155, 1013.477
981.5977, 1009.807
982.0798, 1006.027
982.5619, 1003.953
983.0440, 1004.503
983.5261, 1007.227
984.0082, 1013.502
984.4904, 1021.575
984.9725, 1025.665
985.4546, 1024.435
985.9367, 1018.577
986.4188, 1001.270
986.9009, 987.3494
987.3831, 990.7519
987.8652, 998.7386
988.3473, 992.5296
988.8294, 975.6323
989.3115, 970.7299
989.7936, 989.7917
990.2758, 1005.994
990.7579, 1003.583
991.2400, 999.9517
991.7221, 1009.263
992.2042, 1021.839
992.6863, 1024.642
993.1685, 1018.244
993.6506, 1012.353
994.1327, 1010.167
994.6148, 1008.840
995.0969, 1008.762
995.5790, 1007.336
996.0612, 999.1576
996.5433, 990.9365
997.0254, 993.1797
997.5075, 1004.162
997.9896, 1011.033
998.4717, 1007.239
998.9539, 1005.492
999.4360, 1016.016
999.9181, 1025.985
1000.400, 1026.737
1000.882, 1021.371
1001.364, 1010.980
1001.847, 998.5341
1002.329, 993.2755
1002.811, 999.9857
1003.293, 1009.120
1003.775, 1021.925
1004.257, 1029.472
1004.739, 1019.947
1005.221, 1005.137
1005.703, 1000.677
1006.186, 1005.829
1006.668, 1008.999
1007.150, 1004.943
1007.632, 1003.354
1008.114, 1010.495
1008.596, 1019.503
1009.078, 1028.404
1009.560, 1034.919
1010.043, 1036.138
1010.525, 1032.657
1011.007, 1027.350
1011.489, 1020.370
1011.971, 1014.259
1012.453, 1008.087
1012.935, 1005.363
1013.417, 1010.580
1013.899, 1018.699
1014.382, 1024.911
1014.864, 1028.682
1015.346, 1030.607
1015.828, 1030.433
1016.310, 1030.172
1016.792, 1032.284
1017.274, 1032.507
1017.756, 1024.094
1018.239, 1016.109
1018.721, 1019.299
1019.203, 1031.079
1019.685, 1042.713
1020.167, 1053.816
1020.649, 1056.340
1021.131, 1034.550
1021.613, 1019.910
1022.095, 1037.255
1022.578, 1059.543
1023.060, 1058.313
1023.542, 1041.678
1024.024, 1035.665
1024.506, 1047.105
1024.988, 1055.365
1025.470, 1050.550
1025.952, 1047.619
1026.435, 1057.542
1026.917, 1066.515
1027.399, 1059.896
1027.881, 1044.748
1028.363, 1036.615
1028.845, 1037.750
1029.327, 1043.856
1029.809, 1060.911
1030.292, 1073.470
1030.774, 1076.900
1031.256, 1075.076
1031.738, 1066.249
1032.220, 1055.865
1032.702, 1054.316
1033.184, 1063.145
1033.666, 1068.958
1034.148, 1068.738
1034.630, 1067.854
1035.113, 1064.220
1035.595, 1063.340
1036.077, 1073.180
1036.559, 1085.064
1037.041, 1084.511
1037.523, 1070.895
1038.005, 1061.481
1038.487, 1056.111
1038.970, 1055.509
1039.452, 1063.417
1039.934, 1071.381
1040.416, 1077.389
1040.898, 1080.055
1041.380, 1075.719
1041.862, 1065.489
1042.344, 1062.011
1042.826, 1070.230
1043.309, 1074.102
1043.791, 1069.773
1044.273, 1067.349
1044.755, 1071.280
1045.237, 1077.579
1045.719, 1082.294
1046.201, 1085.921
1046.683, 1090.733
1047.166, 1096.835
1047.648, 1104.529
1048.130, 1115.975
1048.612, 1122.297
1049.094, 1119.773
1049.576, 1113.740
1050.058, 1107.670
1050.540, 1102.761
1051.022, 1102.586
1051.505, 1107.590
1051.987, 1113.276
1052.469, 1120.023
1052.951, 1124.553
1053.433, 1125.713
1053.915, 1126.363
1054.397, 1128.009
1054.879, 1131.885
1055.361, 1142.099
1055.844, 1157.363
1056.326, 1160.521
1056.808, 1151.662
1057.290, 1148.256
1057.772, 1153.329
1058.254, 1160.424
1058.736, 1166.552
1059.218, 1168.041
1059.701, 1156.636
1060.183, 1139.484
1060.665, 1145.236
1061.147, 1168.462
1061.629, 1177.167
1062.111, 1169.862
1062.593, 1167.077
1063.075, 1176.597
1063.557, 1187.251
1064.040, 1187.684
1064.522, 1183.685
1065.004, 1186.563
1065.486, 1193.055
1065.968, 1193.811
1066.450, 1190.578
1066.932, 1192.474
1067.414, 1201.209
1067.896, 1209.635
1068.379, 1212.578
1068.861, 1214.337
1069.343, 1221.293
1069.825, 1228.917
1070.307, 1230.866
1070.789, 1228.533
1071.271, 1222.815
1071.753, 1216.115
1072.236, 1216.501
1072.718, 1228.785
1073.200, 1240.089
1073.682, 1237.060
1074.164, 1233.495
1074.646, 1243.985
1075.128, 1258.487
1075.610, 1265.492
1076.093, 1264.996
1076.575, 1258.706
1077.057, 1246.633
1077.539, 1243.414
1078.021, 1266.418
1078.503, 1285.112
1078.985, 1278.623
1079.467, 1269.478
1079.949, 1277.676
1080.432, 1294.200
1080.914, 1301.828
1081.396, 1299.111
1081.878, 1299.293
1082.360, 1309.568
1082.842, 1315.495
1083.324, 1307.727
1083.806, 1303.765
1084.288, 1318.007
1084.771, 1335.109
1085.253, 1336.458
1085.735, 1325.563
1086.217, 1320.000
1086.699, 1323.105
1087.181, 1322.277
1087.663, 1312.717
1088.145, 1309.313
1088.628, 1318.353
1089.110, 1330.131
1089.592, 1338.360
1090.074, 1343.530
1090.556, 1346.033
1091.038, 1345.611
1091.520, 1350.719
1092.002, 1362.865
1092.484, 1370.018
1092.967, 1369.490
1093.449, 1369.002
1093.931, 1372.524
1094.413, 1377.754
1094.895, 1382.046
1095.377, 1385.321
1095.859, 1387.056
1096.341, 1387.390
1096.823, 1385.568
1097.306, 1382.484
1097.788, 1388.317
1098.270, 1405.597
1098.752, 1421.040
1099.234, 1423.742
1099.716, 1420.221
1100.198, 1418.007
1100.680, 1418.170
1101.163, 1425.433
1101.645, 1436.271
1102.127, 1440.205
1102.609, 1437.546
1103.091, 1439.178
1103.573, 1450.494
1104.055, 1460.825
1104.537, 1459.221
1105.020, 1454.887
1105.502, 1456.579
1105.984, 1460.236
1106.466, 1458.383
1106.948, 1454.956
1107.430, 1461.544
1107.912, 1479.755
1108.394, 1493.173
1108.876, 1486.809
1109.359, 1487.097
1109.841, 1515.214
1110.323, 1540.171
1110.805, 1535.739
1111.287, 1522.374
1111.769, 1528.298
1112.251, 1550.079
1112.733, 1561.393
1113.215, 1555.463
1113.698, 1549.992
1114.180, 1541.436
1114.662, 1540.240
1115.144, 1555.236
1115.626, 1568.696
1116.108, 1566.033
1116.590, 1556.820
1117.072, 1559.151
1117.555, 1573.099
1118.037, 1587.220
1118.519, 1601.781
1119.001, 1615.259
1119.483, 1627.724
1119.965, 1637.750
1120.447, 1644.959
1120.929, 1647.369
1121.411, 1641.622
1121.894, 1632.719
1122.376, 1633.339
1122.858, 1642.614
1123.340, 1660.024
1123.822, 1682.463
1124.304, 1692.575
1124.786, 1688.163
1125.268, 1684.830
1125.750, 1691.335
1126.233, 1703.668
1126.715, 1720.444
1127.197, 1737.610
1127.679, 1753.248
1128.161, 1763.098
1128.643, 1755.707
1129.125, 1737.517
1129.607, 1724.595
1130.090, 1721.667
1130.572, 1728.485
1131.054, 1753.025
1131.536, 1772.820
1132.018, 1769.684
1132.500, 1765.135
1132.982, 1777.082
1133.464, 1793.776
1133.947, 1797.623
1134.429, 1792.347
1134.911, 1797.962
1135.393, 1820.725
1135.875, 1840.945
1136.357, 1857.119
1136.839, 1870.452
1137.321, 1881.455
1137.803, 1889.069
1138.286, 1891.666
1138.768, 1891.788
1139.250, 1893.221
1139.732, 1895.710
1140.214, 1895.655
1140.696, 1891.591
1141.178, 1897.336
1141.660, 1914.495
1142.142, 1934.628
1142.625, 1955.357
1143.107, 1971.339
1143.589, 1977.471
1144.071, 1981.360
1144.553, 1999.816
1145.035, 2025.653
1145.517, 2034.637
1145.999, 2032.246
1146.482, 2035.423
1146.964, 2045.754
1147.446, 2058.437
1147.928, 2071.402
1148.410, 2083.031
1148.892, 2089.514
1149.374, 2098.663
1149.856, 2126.147
1150.339, 2151.258
1150.821, 2144.176
1151.303, 2126.150
1151.785, 2133.480
1152.267, 2163.289
1152.749, 2182.508
1153.231, 2179.232
1153.713, 2180.789
1154.195, 2200.103
1154.677, 2215.857
1155.160, 2216.867
1155.642, 2217.720
1156.124, 2227.214
1156.606, 2242.102
1157.088, 2258.401
1157.570, 2275.873
1158.052, 2291.739
1158.534, 2306.002
1159.017, 2317.946
1159.499, 2326.607
1159.981, 2336.826
1160.463, 2349.239
1160.945, 2372.661
1161.427, 2416.100
1161.909, 2461.718
1162.391, 2476.708
1162.874, 2470.608
1163.356, 2473.957
1163.838, 2484.505
1164.320, 2494.814
1164.802, 2504.830
1165.284, 2520.930
1165.766, 2543.712
1166.248, 2557.939
1166.730, 2546.305
1167.213, 2541.427
1167.695, 2582.373
1168.177, 2629.387
1168.659, 2638.771
1169.141, 2638.760
1169.623, 2673.174
1170.105, 2730.670
1170.587, 2767.395
1171.069, 2773.435
1171.552, 2777.886
1172.034, 2779.667
1172.516, 2789.573
1172.998, 2813.238
1173.480, 2839.698
1173.962, 2866.671
1174.444, 2890.656
1174.926, 2905.346
1175.409, 2916.181
1175.891, 2944.987
1176.373, 2994.278
1176.855, 3021.887
1177.337, 3027.186
1177.819, 3045.154
1178.301, 3082.006
1178.783, 3118.378
1179.266, 3144.906
1179.748, 3163.182
1180.230, 3171.407
1180.712, 3178.355
1181.194, 3199.468
1181.676, 3228.328
1182.158, 3254.875
1182.640, 3279.492
1183.122, 3305.402
1183.604, 3332.239
1184.087, 3355.936
1184.569, 3374.570
1185.051, 3393.012
1185.533, 3408.710
1186.015, 3431.172
1186.497, 3472.835
1186.979, 3513.805
1187.461, 3534.253
1187.944, 3549.613
1188.426, 3585.925
1188.908, 3638.492
1189.390, 3676.070
1189.872, 3694.103
1190.354, 3712.817
1190.836, 3730.980
1191.318, 3756.093
1191.801, 3790.380
1192.283, 3827.770
1192.765, 3865.208
1193.247, 3899.764
1193.729, 3926.348
1194.211, 3949.869
1194.693, 3986.251
1195.175, 4028.259
1195.657, 4054.277
1196.140, 4069.025
1196.622, 4092.057
1197.104, 4123.932
1197.586, 4145.001
1198.068, 4144.979
1198.550, 4150.631
1199.032, 4181.964
1199.514, 4219.581
1199.996, 4248.464
1200.479, 4283.471
1200.961, 4350.381
1201.443, 4422.518
1201.925, 4452.499
1202.407, 4446.473
1202.889, 4469.803
1203.371, 4538.046
1203.853, 4584.993
1204.336, 4603.936
1204.818, 4622.020
1205.300, 4642.993
1205.782, 4673.326
1206.264, 4718.032
1206.746, 4762.205
1207.228, 4785.274
1207.710, 4800.762
1208.193, 4849.447
1208.675, 4916.036
1209.157, 4947.834
1209.639, 4959.062
1210.121, 5002.224
1210.603, 5076.942
1211.085, 5138.027
1211.567, 5167.632
1212.049, 5190.950
1212.531, 5223.649
1213.014, 5254.326
1213.496, 5271.430
1213.978, 5290.540
1214.460, 5319.383
1214.942, 5358.672
1215.424, 5410.668
1215.906, 5473.044
##END=



