##NAMES=Mimetite-M
##RRUFFID=R070146
##IDEAL CHEMISTRY=Pb_5_(AsO_4_)_3_Cl
##LOCALITY=Treue Freundschaft Mine, Johanngeorgenstadt, Erzgebirge, Saxony, Germany
##OWNER=RRUFF
##SOURCE=Michael Scott
##DESCRIPTION=Yellowish green crystals coated with white feathery hydroxylapatite.
##STATUS=The identification of this mineral has been confirmed by single-crystal X-ray diffraction.
##URL=rruff.info/R070146
93.30109, 0.0000000E+00
93.78320, 4933.089
94.26532, 4901.946
94.74744, 4916.958
95.22955, 4966.185
95.71167, 5043.492
96.19379, 5113.752
96.67590, 5186.480
97.15802, 5257.572
97.64014, 5332.797
98.12225, 5405.283
98.60437, 5466.786
99.08649, 5521.727
99.56860, 5556.729
100.0507, 5557.325
100.5328, 5515.764
101.0150, 5447.416
101.4971, 5362.046
101.9792, 5259.725
102.4613, 5145.683
102.9434, 5009.860
103.4255, 4866.359
103.9077, 4723.068
104.3898, 4581.051
104.8719, 4441.832
105.3540, 4308.124
105.8361, 4177.615
106.3182, 4055.339
106.8004, 3942.582
107.2825, 3836.044
107.7646, 3730.851
108.2467, 3623.497
108.7288, 3514.521
109.2109, 3414.226
109.6931, 3323.390
110.1752, 3239.003
110.6573, 3162.284
111.1394, 3091.675
111.6215, 3023.581
112.1036, 2955.107
112.5858, 2885.348
113.0679, 2821.430
113.5500, 2762.805
114.0321, 2709.769
114.5142, 2664.969
114.9964, 2628.761
115.4785, 2594.022
115.9606, 2550.852
116.4427, 2499.786
116.9248, 2453.541
117.4069, 2417.136
117.8891, 2387.494
118.3712, 2357.632
118.8533, 2325.339
119.3354, 2294.413
119.8175, 2268.477
120.2996, 2247.057
120.7818, 2226.921
121.2639, 2205.428
121.7460, 2182.468
122.2281, 2161.044
122.7102, 2141.961
123.1923, 2124.542
123.6745, 2108.697
124.1566, 2094.367
124.6387, 2081.607
125.1208, 2070.677
125.6029, 2062.790
126.0850, 2054.211
126.5672, 2043.271
127.0493, 2032.333
127.5314, 2023.049
128.0135, 2016.068
128.4956, 2011.418
128.9777, 2009.120
129.4599, 2012.982
129.9420, 2015.118
130.4241, 2014.085
130.9062, 2011.130
131.3883, 2007.707
131.8704, 2004.304
132.3526, 2001.469
132.8347, 2002.211
133.3168, 2009.727
133.7989, 2016.799
134.2810, 2019.454
134.7632, 2018.523
135.2453, 2018.455
135.7274, 2022.207
136.2095, 2029.278
136.6916, 2036.709
137.1737, 2045.391
137.6559, 2053.779
138.1380, 2059.573
138.6201, 2062.007
139.1022, 2065.517
139.5843, 2074.612
140.0664, 2086.502
140.5486, 2097.179
141.0307, 2104.173
141.5128, 2108.935
141.9949, 2115.958
142.4770, 2127.600
142.9591, 2137.992
143.4413, 2143.906
143.9234, 2146.945
144.4055, 2150.114
144.8876, 2155.650
145.3697, 2163.560
145.8518, 2170.932
146.3340, 2176.583
146.8161, 2182.706
147.2982, 2191.324
147.7803, 2201.364
148.2624, 2209.662
148.7445, 2212.491
149.2267, 2207.256
149.7088, 2207.544
150.1909, 2218.603
150.6730, 2229.746
151.1551, 2234.283
151.6372, 2231.688
152.1194, 2226.588
152.6015, 2224.537
153.0836, 2226.719
153.5657, 2229.611
154.0478, 2234.318
154.5299, 2239.210
155.0121, 2242.290
155.4942, 2242.945
155.9763, 2242.910
156.4584, 2244.858
156.9405, 2248.777
157.4226, 2253.202
157.9048, 2258.486
158.3869, 2263.971
158.8690, 2268.021
159.3511, 2269.603
159.8332, 2270.584
160.3153, 2273.073
160.7975, 2277.018
161.2796, 2281.933
161.7617, 2288.420
162.2438, 2296.280
162.7259, 2302.190
163.2081, 2302.909
163.6902, 2303.465
164.1723, 2307.180
164.6544, 2314.435
165.1365, 2324.384
165.6186, 2337.466
166.1008, 2355.044
166.5829, 2369.312
167.0650, 2376.265
167.5471, 2381.350
168.0292, 2387.465
168.5113, 2395.420
168.9935, 2404.430
169.4756, 2413.487
169.9577, 2423.875
170.4398, 2431.636
170.9219, 2433.853
171.4040, 2435.170
171.8862, 2440.148
172.3683, 2450.332
172.8504, 2462.930
173.3325, 2471.374
173.8146, 2470.900
174.2967, 2471.433
174.7789, 2474.630
175.2610, 2478.521
175.7431, 2480.576
176.2252, 2479.609
176.7073, 2476.588
177.1894, 2474.717
177.6716, 2477.147
178.1537, 2476.814
178.6358, 2470.617
179.1179, 2460.789
179.6000, 2451.663
180.0821, 2445.622
180.5643, 2441.376
181.0464, 2435.071
181.5285, 2427.260
182.0106, 2417.110
182.4927, 2402.656
182.9748, 2384.893
183.4570, 2368.503
183.9391, 2356.640
184.4212, 2347.028
184.9033, 2334.787
185.3854, 2318.872
185.8675, 2301.942
186.3497, 2285.825
186.8318, 2270.521
187.3139, 2256.006
187.7960, 2243.157
188.2781, 2230.684
188.7602, 2217.076
189.2424, 2201.596
189.7245, 2185.801
190.2066, 2172.044
190.6887, 2161.035
191.1708, 2149.359
191.6530, 2134.154
192.1351, 2118.483
192.6172, 2105.411
193.0993, 2096.384
193.5814, 2089.187
194.0635, 2079.296
194.5457, 2065.064
195.0278, 2051.365
195.5099, 2039.460
195.9920, 2028.440
196.4741, 2017.360
196.9562, 2005.780
197.4384, 1994.100
197.9205, 1983.235
198.4026, 1971.805
198.8847, 1963.583
199.3668, 1961.349
199.8489, 1961.534
200.3311, 1960.171
200.8132, 1955.240
201.2953, 1947.565
201.7774, 1940.472
202.2595, 1935.421
202.7416, 1929.296
203.2238, 1919.853
203.7059, 1909.526
204.1880, 1901.768
204.6701, 1898.553
205.1522, 1898.911
205.6343, 1898.608
206.1165, 1899.062
206.5986, 1897.366
207.0807, 1890.294
207.5628, 1880.759
208.0449, 1874.548
208.5270, 1875.156
209.0092, 1880.616
209.4913, 1882.786
209.9734, 1879.428
210.4555, 1876.243
210.9376, 1875.485
211.4197, 1876.505
211.9019, 1877.724
212.3840, 1878.760
212.8661, 1879.026
213.3482, 1876.976
213.8303, 1870.740
214.3124, 1865.335
214.7946, 1864.370
215.2767, 1867.082
215.7588, 1869.224
216.2409, 1868.270
216.7230, 1866.159
217.2052, 1866.469
217.6873, 1869.982
218.1694, 1874.336
218.6515, 1877.968
219.1336, 1880.905
219.6157, 1883.411
220.0979, 1885.058
220.5800, 1886.690
221.0621, 1889.318
221.5442, 1893.221
222.0263, 1897.444
222.5084, 1900.541
222.9906, 1902.264
223.4727, 1905.790
223.9548, 1915.384
224.4369, 1925.156
224.9190, 1929.904
225.4011, 1928.494
225.8833, 1925.708
226.3654, 1927.355
226.8475, 1934.267
227.3296, 1941.582
227.8117, 1947.687
228.2938, 1954.269
228.7760, 1963.302
229.2581, 1975.012
229.7402, 1986.298
230.2223, 1991.947
230.7044, 1988.897
231.1865, 1990.155
231.6687, 2002.276
232.1508, 2015.148
232.6329, 2021.419
233.1150, 2020.243
233.5971, 2017.280
234.0792, 2020.852
234.5614, 2034.335
235.0435, 2046.197
235.5256, 2055.642
236.0077, 2064.066
236.4898, 2071.685
236.9719, 2078.807
237.4541, 2086.375
237.9362, 2095.789
238.4183, 2107.906
238.9004, 2119.748
239.3825, 2133.048
239.8646, 2144.824
240.3468, 2151.704
240.8289, 2154.003
241.3110, 2155.859
241.7931, 2162.696
242.2752, 2176.877
242.7573, 2189.362
243.2395, 2199.267
243.7216, 2208.378
244.2037, 2218.189
244.6858, 2228.661
245.1679, 2238.262
245.6501, 2245.054
246.1322, 2247.892
246.6143, 2252.519
247.0964, 2259.815
247.5785, 2268.045
248.0606, 2276.449
248.5428, 2284.776
249.0249, 2292.771
249.5070, 2300.169
249.9891, 2306.936
250.4712, 2313.239
250.9533, 2319.095
251.4355, 2324.545
251.9176, 2329.555
252.3997, 2334.167
252.8818, 2338.617
253.3639, 2343.100
253.8460, 2347.617
254.3282, 2351.864
254.8103, 2354.920
255.2924, 2358.432
255.7745, 2364.328
256.2566, 2372.308
256.7387, 2379.308
257.2209, 2382.967
257.7030, 2383.526
258.1851, 2384.350
258.6672, 2385.865
259.1493, 2387.279
259.6314, 2387.721
260.1136, 2387.324
260.5957, 2387.412
261.0778, 2388.905
261.5599, 2391.459
262.0420, 2393.908
262.5241, 2397.417
263.0063, 2399.417
263.4884, 2396.895
263.9705, 2390.426
264.4526, 2385.138
264.9347, 2384.019
265.4168, 2385.260
265.8990, 2385.443
266.3811, 2384.908
266.8632, 2382.504
267.3453, 2375.686
267.8274, 2365.264
268.3095, 2357.804
268.7917, 2357.555
269.2738, 2359.861
269.7559, 2358.187
270.2380, 2351.807
270.7201, 2344.963
271.2022, 2340.397
271.6844, 2337.907
272.1665, 2336.025
272.6486, 2334.349
273.1307, 2333.345
273.6128, 2333.726
274.0949, 2335.469
274.5771, 2336.745
275.0592, 2335.955
275.5413, 2333.483
276.0234, 2331.263
276.5055, 2328.185
276.9876, 2327.529
277.4698, 2332.555
277.9519, 2342.243
278.4340, 2351.467
278.9161, 2356.865
279.3982, 2359.157
279.8803, 2361.468
280.3625, 2363.174
280.8446, 2366.250
281.3267, 2371.612
281.8088, 2378.961
282.2909, 2387.769
282.7730, 2398.213
283.2552, 2409.844
283.7373, 2421.143
284.2194, 2431.778
284.7015, 2442.690
285.1836, 2454.320
285.6658, 2466.532
286.1479, 2479.253
286.6300, 2492.458
287.1121, 2506.042
287.5942, 2519.310
288.0764, 2531.153
288.5585, 2545.484
289.0406, 2564.124
289.5227, 2585.535
290.0048, 2608.355
290.4869, 2632.510
290.9691, 2657.341
291.4512, 2681.783
291.9333, 2705.489
292.4154, 2729.873
292.8975, 2753.888
293.3796, 2779.480
293.8618, 2808.935
294.3439, 2842.835
294.8260, 2878.023
295.3081, 2909.959
295.7902, 2937.548
296.2723, 2966.871
296.7545, 2998.417
297.2366, 3032.392
297.7187, 3070.498
298.2008, 3112.183
298.6829, 3153.455
299.1650, 3187.980
299.6472, 3214.474
300.1293, 3247.005
300.6114, 3292.870
301.0935, 3339.138
301.5756, 3380.544
302.0577, 3417.182
302.5399, 3451.768
303.0220, 3485.799
303.5041, 3519.252
303.9862, 3553.202
304.4683, 3588.573
304.9504, 3623.466
305.4326, 3658.692
305.9147, 3692.916
306.3968, 3723.429
306.8789, 3747.631
307.3610, 3767.488
307.8431, 3791.680
308.3253, 3826.291
308.8074, 3855.383
309.2895, 3871.913
309.7716, 3882.316
310.2537, 3894.159
310.7358, 3910.980
311.2180, 3930.166
311.7001, 3946.669
312.1822, 3962.772
312.6643, 3970.659
313.1464, 3966.672
313.6285, 3956.375
314.1107, 3943.753
314.5928, 3929.927
315.0749, 3913.885
315.5570, 3893.871
316.0391, 3868.953
316.5212, 3843.398
317.0034, 3817.418
317.4855, 3790.917
317.9676, 3763.724
318.4497, 3735.925
318.9318, 3707.957
319.4139, 3678.977
319.8961, 3648.337
320.3782, 3623.671
320.8603, 3610.370
321.3424, 3598.599
321.8245, 3584.104
322.3066, 3568.003
322.7888, 3553.395
323.2709, 3542.392
323.7530, 3534.887
324.2351, 3530.518
324.7172, 3530.217
325.1993, 3532.107
325.6815, 3535.000
326.1636, 3539.545
326.6457, 3546.744
327.1278, 3557.136
327.6099, 3570.208
328.0920, 3585.418
328.5742, 3604.846
329.0563, 3621.830
329.5384, 3632.024
330.0205, 3640.949
330.5026, 3654.603
330.9847, 3674.713
331.4669, 3695.230
331.9490, 3705.727
332.4311, 3702.366
332.9132, 3705.939
333.3953, 3727.333
333.8774, 3750.917
334.3596, 3767.868
334.8417, 3777.979
335.3238, 3786.949
335.8059, 3801.883
336.2880, 3823.018
336.7701, 3836.153
337.2523, 3835.310
337.7344, 3832.278
338.2165, 3832.415
338.6986, 3834.719
339.1807, 3836.550
339.6628, 3837.104
340.1450, 3835.724
340.6271, 3829.497
341.1092, 3816.251
341.5913, 3802.186
342.0735, 3789.733
342.5556, 3777.895
343.0377, 3765.723
343.5198, 3753.150
344.0019, 3739.225
344.4840, 3721.494
344.9662, 3698.389
345.4483, 3677.877
345.9304, 3666.313
346.4125, 3655.930
346.8946, 3640.549
347.3767, 3619.135
347.8589, 3597.348
348.3410, 3581.753
348.8231, 3572.069
349.3052, 3559.234
349.7873, 3539.346
350.2694, 3518.860
350.7516, 3500.899
351.2337, 3485.756
351.7158, 3474.575
352.1979, 3470.869
352.6800, 3471.788
353.1621, 3466.861
353.6443, 3452.549
354.1264, 3440.182
354.6085, 3438.920
355.0906, 3443.418
355.5727, 3445.201
356.0548, 3439.473
356.5370, 3432.298
357.0191, 3433.225
357.5012, 3443.179
357.9833, 3450.939
358.4654, 3450.144
358.9475, 3445.698
359.4297, 3442.903
359.9118, 3442.004
360.3939, 3443.734
360.8760, 3449.828
361.3581, 3459.440
361.8402, 3468.123
362.3224, 3473.852
362.8045, 3479.912
363.2866, 3489.570
363.7687, 3502.503
364.2508, 3517.190
364.7329, 3535.679
365.2151, 3554.768
365.6972, 3567.904
366.1793, 3573.600
366.6614, 3579.431
367.1435, 3591.713
367.6256, 3608.767
368.1078, 3625.279
368.5899, 3640.696
369.0720, 3655.385
369.5541, 3669.897
370.0362, 3684.107
370.5183, 3697.113
371.0005, 3709.084
371.4826, 3718.912
371.9647, 3724.563
372.4468, 3725.893
372.9289, 3724.196
373.4110, 3719.397
373.8932, 3711.982
374.3753, 3701.818
374.8574, 3688.327
375.3395, 3675.499
375.8216, 3669.551
376.3037, 3671.561
376.7859, 3670.443
377.2680, 3661.715
377.7501, 3651.762
378.2322, 3646.207
378.7143, 3645.141
379.1964, 3645.221
379.6786, 3644.024
380.1607, 3641.721
380.6428, 3640.324
381.1249, 3637.878
381.6070, 3638.278
382.0891, 3644.612
382.5713, 3654.593
383.0534, 3664.221
383.5355, 3671.925
384.0176, 3677.748
384.4997, 3681.657
384.9818, 3680.188
385.4640, 3682.700
385.9461, 3691.911
386.4282, 3703.632
386.9103, 3714.584
387.3924, 3724.111
387.8745, 3733.198
388.3567, 3742.855
388.8388, 3753.325
389.3209, 3762.545
389.8030, 3770.695
390.2851, 3777.718
390.7672, 3783.559
391.2494, 3788.259
391.7315, 3791.964
392.2136, 3794.793
392.6957, 3796.556
393.1778, 3796.289
393.6599, 3790.162
394.1421, 3787.562
394.6242, 3789.714
395.1063, 3795.227
395.5884, 3804.036
396.0706, 3815.640
396.5527, 3827.295
397.0348, 3835.479
397.5169, 3839.615
397.9990, 3842.311
398.4811, 3842.458
398.9633, 3842.081
399.4454, 3841.589
399.9275, 3841.205
400.4096, 3841.196
400.8917, 3841.699
401.3738, 3842.755
401.8560, 3844.417
402.3381, 3846.252
402.8202, 3849.670
403.3023, 3856.166
403.7844, 3863.792
404.2665, 3870.604
404.7487, 3876.028
405.2308, 3880.822
405.7129, 3886.688
406.1950, 3893.923
406.6771, 3897.277
407.1592, 3891.737
407.6414, 3886.260
408.1235, 3889.010
408.6056, 3898.413
409.0877, 3905.390
409.5698, 3902.734
410.0519, 3894.240
410.5341, 3888.454
411.0162, 3885.628
411.4983, 3885.399
411.9804, 3890.532
412.4625, 3897.423
412.9446, 3899.479
413.4268, 3893.038
413.9089, 3885.973
414.3910, 3885.482
414.8731, 3890.180
415.3552, 3892.917
415.8373, 3890.292
416.3195, 3886.667
416.8016, 3889.686
417.2837, 3899.731
417.7658, 3907.413
418.2479, 3907.377
418.7300, 3905.207
419.2122, 3908.675
419.6943, 3918.268
420.1764, 3926.268
420.6585, 3925.447
421.1406, 3917.020
421.6227, 3915.191
422.1049, 3926.891
422.5870, 3936.878
423.0691, 3939.688
423.5512, 3936.557
424.0333, 3929.548
424.5154, 3919.439
424.9976, 3906.763
425.4797, 3892.495
425.9618, 3875.694
426.4439, 3859.134
426.9260, 3840.762
427.4081, 3824.162
427.8903, 3814.158
428.3724, 3809.216
428.8545, 3802.061
429.3366, 3786.188
429.8187, 3762.048
430.3008, 3741.424
430.7830, 3727.437
431.2651, 3713.689
431.7472, 3699.430
432.2293, 3684.800
432.7114, 3670.548
433.1935, 3656.905
433.6757, 3642.741
434.1578, 3626.273
434.6399, 3607.180
435.1220, 3586.952
435.6041, 3563.855
436.0862, 3541.223
436.5684, 3520.746
437.0505, 3502.202
437.5326, 3484.339
438.0147, 3466.823
438.4968, 3449.273
438.9789, 3430.375
439.4611, 3410.023
439.9432, 3388.618
440.4253, 3365.033
440.9074, 3340.948
441.3895, 3318.334
441.8716, 3297.712
442.3538, 3277.586
442.8359, 3257.158
443.3180, 3236.213
443.8001, 3214.551
444.2822, 3192.331
444.7643, 3168.797
445.2465, 3142.261
445.7286, 3113.298
446.2107, 3085.428
446.6928, 3060.348
447.1749, 3036.244
447.6570, 3010.418
448.1392, 2983.349
448.6213, 2959.613
449.1034, 2942.880
449.5855, 2930.140
450.0677, 2912.597
450.5498, 2887.804
451.0319, 2864.361
451.5140, 2846.386
451.9961, 2830.073
452.4782, 2810.689
452.9604, 2787.374
453.4425, 2762.707
453.9246, 2739.325
454.4067, 2717.445
454.8888, 2694.589
455.3709, 2667.016
455.8531, 2642.788
456.3352, 2627.140
456.8173, 2616.396
457.2994, 2604.300
457.7815, 2588.010
458.2636, 2569.040
458.7458, 2550.298
459.2279, 2531.415
459.7100, 2513.553
460.1921, 2495.119
460.6742, 2478.889
461.1563, 2468.884
461.6385, 2463.162
462.1206, 2454.813
462.6027, 2437.146
463.0848, 2412.687
463.5669, 2395.018
464.0490, 2387.150
464.5312, 2380.225
465.0133, 2373.113
465.4954, 2364.482
465.9775, 2351.938
466.4596, 2334.560
466.9417, 2317.226
467.4239, 2305.470
467.9060, 2298.267
468.3881, 2288.041
468.8702, 2272.071
469.3523, 2256.052
469.8344, 2245.380
470.3166, 2238.592
470.7987, 2231.955
471.2808, 2226.140
471.7629, 2218.888
472.2450, 2206.091
472.7271, 2189.266
473.2093, 2176.598
473.6914, 2172.403
474.1735, 2172.543
474.6556, 2169.019
475.1377, 2161.080
475.6198, 2152.779
476.1020, 2143.934
476.5841, 2135.475
477.0662, 2128.574
477.5483, 2123.073
478.0304, 2117.436
478.5125, 2110.582
478.9947, 2102.535
479.4768, 2093.895
479.9589, 2081.456
480.4410, 2072.245
480.9231, 2069.302
481.4052, 2068.895
481.8874, 2067.869
482.3695, 2065.165
482.8516, 2060.601
483.3337, 2053.198
483.8158, 2042.252
484.2979, 2034.610
484.7801, 2034.448
485.2622, 2032.919
485.7443, 2025.524
486.2264, 2015.152
486.7085, 2006.411
487.1906, 2001.196
487.6728, 1998.426
488.1549, 1997.527
488.6370, 1998.762
489.1191, 1997.272
489.6012, 1990.615
490.0833, 1982.333
490.5655, 1975.134
491.0476, 1969.033
491.5297, 1964.234
492.0118, 1962.073
492.4939, 1960.557
492.9760, 1956.924
493.4582, 1951.212
493.9403, 1945.543
494.4224, 1941.014
494.9045, 1937.204
495.3866, 1932.762
495.8687, 1926.213
496.3509, 1922.554
496.8330, 1926.904
497.3151, 1932.435
497.7972, 1930.461
498.2793, 1920.838
498.7614, 1911.250
499.2436, 1908.658
499.7257, 1912.513
500.2078, 1912.657
500.6899, 1905.122
501.1720, 1898.644
501.6541, 1895.065
502.1363, 1893.005
502.6184, 1890.985
503.1005, 1888.582
503.5826, 1886.164
504.0647, 1884.217
504.5468, 1882.791
505.0290, 1881.323
505.5111, 1878.683
505.9932, 1877.531
506.4753, 1881.179
506.9575, 1886.320
507.4396, 1887.439
507.9217, 1881.969
508.4038, 1873.748
508.8859, 1866.694
509.3680, 1860.829
509.8502, 1856.744
510.3323, 1854.431
510.8144, 1854.150
511.2965, 1858.196
511.7786, 1865.376
512.2607, 1868.527
512.7429, 1861.688
513.2250, 1853.432
513.7071, 1852.167
514.1892, 1856.335
514.6713, 1858.276
515.1534, 1854.139
515.6356, 1847.366
516.1177, 1844.842
516.5998, 1848.956
517.0819, 1852.139
517.5640, 1854.674
518.0461, 1855.853
518.5283, 1854.215
519.0104, 1850.647
519.4925, 1847.833
519.9746, 1847.608
520.4567, 1849.262
520.9388, 1849.940
521.4210, 1847.700
521.9031, 1848.214
522.3852, 1854.146
522.8673, 1861.145
523.3494, 1866.798
523.8315, 1870.592
524.3137, 1872.384
524.7958, 1871.093
525.2779, 1867.797
525.7600, 1866.328
526.2421, 1866.926
526.7242, 1868.441
527.2064, 1870.865
527.6885, 1873.708
528.1706, 1876.573
528.6527, 1879.591
529.1348, 1881.738
529.6169, 1881.285
530.0991, 1880.072
530.5812, 1881.641
531.0633, 1886.378
531.5454, 1891.094
532.0275, 1893.361
532.5096, 1893.594
532.9918, 1894.639
533.4739, 1895.790
533.9560, 1898.470
534.4381, 1904.574
534.9202, 1911.495
535.4023, 1916.185
535.8845, 1918.215
536.3666, 1919.492
536.8487, 1921.806
537.3308, 1925.157
537.8129, 1929.322
538.2950, 1936.420
538.7772, 1941.446
539.2593, 1941.523
539.7414, 1939.971
540.2235, 1940.469
540.7056, 1943.929
541.1877, 1948.144
541.6699, 1950.502
542.1520, 1951.432
542.6341, 1954.522
543.1162, 1961.304
543.5983, 1967.043
544.0804, 1966.177
544.5626, 1962.630
545.0447, 1964.172
545.5268, 1974.217
546.0089, 1984.879
546.4910, 1992.391
546.9731, 1997.200
547.4553, 1999.239
547.9374, 1998.499
548.4195, 1998.185
548.9016, 2001.858
549.3837, 2009.685
549.8658, 2014.081
550.3480, 2012.019
550.8301, 2010.799
551.3122, 2012.424
551.7943, 2015.995
552.2764, 2021.010
552.7585, 2027.015
553.2407, 2032.395
553.7228, 2034.613
554.2049, 2033.361
554.6870, 2034.896
555.1691, 2042.855
555.6512, 2048.349
556.1334, 2045.571
556.6155, 2039.813
557.0976, 2038.220
557.5797, 2043.022
558.0618, 2049.402
558.5439, 2053.566
559.0261, 2055.763
559.5082, 2056.447
559.9903, 2055.139
560.4724, 2054.768
560.9545, 2058.469
561.4366, 2065.148
561.9188, 2069.113
562.4009, 2068.578
562.8830, 2067.491
563.3651, 2067.077
563.8472, 2067.087
564.3293, 2067.549
564.8115, 2068.319
565.2936, 2068.256
565.7757, 2065.917
566.2578, 2061.280
566.7399, 2058.958
567.2220, 2062.849
567.7042, 2064.352
568.1863, 2059.183
568.6684, 2052.541
569.1505, 2050.126
569.6326, 2052.962
570.1147, 2057.167
570.5969, 2059.306
571.0790, 2059.582
571.5611, 2059.133
572.0432, 2057.787
572.5253, 2056.241
573.0074, 2055.372
573.4896, 2054.254
573.9717, 2051.240
574.4538, 2045.626
574.9359, 2040.256
575.4180, 2037.177
575.9001, 2034.828
576.3823, 2029.819
576.8644, 2022.264
577.3465, 2017.759
577.8286, 2021.156
578.3107, 2030.179
578.7928, 2033.572
579.2750, 2027.532
579.7571, 2020.578
580.2392, 2010.301
580.7213, 2001.351
581.2034, 1999.158
581.6855, 2002.472
582.1677, 2004.297
582.6498, 1998.937
583.1319, 1988.562
583.6140, 1981.095
584.0961, 1977.765
584.5782, 1972.924
585.0604, 1962.461
585.5425, 1951.910
586.0246, 1946.590
586.5067, 1946.223
586.9889, 1945.627
587.4710, 1942.321
587.9531, 1937.792
588.4352, 1934.251
588.9174, 1931.328
589.3995, 1926.126
589.8816, 1916.874
590.3637, 1906.322
590.8458, 1899.209
591.3279, 1896.873
591.8101, 1894.479
592.2922, 1893.161
592.7743, 1890.663
593.2564, 1884.741
593.7385, 1876.927
594.2206, 1870.281
594.7028, 1866.229
595.1849, 1863.341
595.6670, 1859.498
596.1491, 1854.724
596.6312, 1848.770
597.1133, 1841.005
597.5955, 1832.739
598.0776, 1824.251
598.5597, 1815.887
599.0418, 1808.259
599.5239, 1801.377
600.0060, 1795.552
600.4882, 1792.297
600.9703, 1790.168
601.4524, 1784.493
601.9345, 1774.181
602.4166, 1765.150
602.8987, 1763.433
603.3809, 1768.276
603.8630, 1768.634
604.3451, 1762.188
604.8272, 1754.878
605.3093, 1747.452
605.7914, 1739.860
606.2736, 1731.119
606.7557, 1721.699
607.2378, 1714.287
607.7199, 1712.012
608.2020, 1713.250
608.6841, 1709.581
609.1663, 1699.286
609.6484, 1689.051
610.1305, 1680.333
610.6126, 1672.888
611.0947, 1666.657
611.5768, 1661.599
612.0590, 1657.231
612.5411, 1653.383
613.0232, 1650.060
613.5053, 1647.891
613.9874, 1646.450
614.4695, 1643.491
614.9517, 1637.854
615.4338, 1631.227
615.9159, 1626.493
616.3980, 1624.826
616.8801, 1620.988
617.3622, 1612.616
617.8444, 1604.774
618.3265, 1600.116
618.8086, 1597.223
619.2907, 1593.982
619.7728, 1589.575
620.2549, 1584.109
620.7371, 1577.145
621.2192, 1568.784
621.7013, 1562.017
622.1834, 1557.685
622.6655, 1553.344
623.1476, 1546.680
623.6298, 1539.423
624.1119, 1534.704
624.5940, 1533.584
625.0761, 1532.523
625.5582, 1530.016
626.0403, 1526.658
626.5225, 1523.485
627.0046, 1520.388
627.4867, 1515.923
627.9688, 1508.837
628.4509, 1500.360
628.9330, 1494.469
629.4152, 1493.108
629.8973, 1490.895
630.3794, 1486.919
630.8615, 1482.855
631.3436, 1479.755
631.8257, 1477.335
632.3079, 1474.824
632.7900, 1472.012
633.2721, 1468.452
633.7542, 1462.862
634.2363, 1455.573
634.7184, 1449.728
635.2006, 1446.020
635.6827, 1443.609
636.1648, 1442.253
636.6469, 1441.750
637.1290, 1440.513
637.6111, 1437.688
638.0933, 1435.151
638.5754, 1433.834
639.0575, 1432.952
639.5396, 1431.926
640.0217, 1430.467
640.5038, 1427.885
640.9860, 1423.284
641.4681, 1417.365
641.9502, 1413.662
642.4323, 1413.009
642.9144, 1412.470
643.3965, 1412.184
643.8787, 1411.172
644.3608, 1408.192
644.8429, 1403.674
645.3250, 1399.808
645.8071, 1398.348
646.2892, 1397.158
646.7714, 1393.093
647.2535, 1387.400
647.7356, 1384.572
648.2177, 1386.068
648.6998, 1388.880
649.1819, 1389.802
649.6641, 1388.794
650.1462, 1386.941
650.6283, 1383.607
651.1104, 1380.269
651.5925, 1377.441
652.0746, 1374.623
652.5568, 1371.017
653.0389, 1366.694
653.5210, 1362.865
654.0031, 1360.428
654.4852, 1359.224
654.9673, 1359.028
655.4495, 1359.922
655.9316, 1360.943
656.4137, 1362.194
656.8958, 1362.888
657.3779, 1361.350
657.8600, 1357.654
658.3422, 1355.263
658.8243, 1355.349
659.3064, 1356.125
659.7885, 1356.720
660.2706, 1357.305
660.7527, 1358.148
661.2349, 1359.362
661.7170, 1361.229
662.1991, 1364.536
662.6812, 1369.109
663.1633, 1370.506
663.6454, 1367.243
664.1276, 1363.729
664.6097, 1360.925
665.0918, 1358.758
665.5739, 1357.173
666.0560, 1356.161
666.5381, 1355.854
667.0203, 1355.966
667.5024, 1357.060
667.9845, 1360.778
668.4666, 1366.126
668.9487, 1369.546
669.4308, 1369.651
669.9130, 1368.543
670.3951, 1369.249
670.8772, 1368.251
671.3593, 1366.271
671.8414, 1367.166
672.3235, 1363.210
672.8057, 1363.144
673.2878, 1365.296
673.7699, 1368.693
674.2520, 1372.807
674.7341, 1375.773
675.2162, 1375.635
675.6984, 1373.565
676.1805, 1371.464
676.6626, 1369.379
677.1447, 1368.734
677.6268, 1370.339
678.1089, 1372.945
678.5911, 1374.934
679.0732, 1376.254
679.5553, 1377.100
680.0374, 1376.941
680.5195, 1376.930
681.0016, 1377.270
681.4838, 1378.107
681.9659, 1380.078
682.4480, 1383.059
682.9301, 1385.364
683.4122, 1384.940
683.8943, 1382.639
684.3765, 1381.859
684.8586, 1382.718
685.3407, 1384.604
685.8228, 1388.138
686.3049, 1391.681
686.7870, 1392.376
687.2692, 1390.323
687.7513, 1390.430
688.2334, 1395.794
688.7155, 1400.983
689.1976, 1403.335
689.6797, 1403.496
690.1619, 1402.322
690.6440, 1400.185
691.1261, 1397.498
691.6082, 1394.140
692.0903, 1390.653
692.5724, 1391.517
693.0546, 1398.706
693.5367, 1404.513
694.0188, 1406.856
694.5009, 1406.888
694.9830, 1404.659
695.4651, 1400.657
695.9473, 1398.409
696.4294, 1400.420
696.9116, 1403.043
697.3937, 1403.570
697.8758, 1402.996
698.3579, 1403.340
698.8400, 1404.987
699.3221, 1406.591
699.8043, 1406.744
700.2864, 1405.739
700.7685, 1405.901
701.2506, 1407.713
701.7327, 1409.626
702.2148, 1412.530
702.6970, 1414.409
703.1791, 1412.637
703.6612, 1408.391
704.1433, 1406.431
704.6254, 1410.146
705.1075, 1414.552
705.5897, 1415.448
706.0718, 1414.069
706.5539, 1412.561
707.0360, 1411.448
707.5181, 1411.463
708.0002, 1413.474
708.4824, 1416.849
708.9645, 1418.403
709.4466, 1417.807
709.9287, 1415.995
710.4108, 1410.670
710.8929, 1406.434
711.3751, 1406.732
711.8572, 1410.164
712.3393, 1413.075
712.8214, 1414.336
713.3035, 1414.282
713.7856, 1411.857
714.2678, 1408.654
714.7499, 1408.585
715.2320, 1411.991
715.7141, 1415.623
716.1962, 1417.453
716.6783, 1417.733
717.1605, 1417.078
717.6426, 1414.460
718.1247, 1412.932
718.6068, 1413.013
719.0889, 1413.588
719.5710, 1415.142
720.0532, 1416.559
720.5353, 1415.529
721.0174, 1411.026
721.4995, 1407.006
721.9816, 1407.512
722.4637, 1410.433
722.9459, 1411.611
723.4280, 1410.853
723.9101, 1409.697
724.3922, 1408.828
724.8743, 1408.188
725.3564, 1407.618
725.8386, 1406.886
726.3207, 1407.047
726.8028, 1409.546
727.2849, 1411.233
727.7670, 1410.459
728.2491, 1408.704
728.7313, 1407.928
729.2134, 1408.438
729.6955, 1408.707
730.1776, 1407.047
730.6597, 1404.816
731.1418, 1404.491
731.6240, 1405.733
732.1061, 1406.429
732.5882, 1405.841
733.0703, 1404.489
733.5524, 1402.860
734.0345, 1400.915
734.5167, 1399.701
734.9988, 1399.629
735.4809, 1399.793
735.9630, 1399.978
736.4451, 1400.410
736.9272, 1401.555
737.4094, 1403.211
737.8915, 1404.402
738.3736, 1404.235
738.8557, 1403.905
739.3378, 1404.948
739.8199, 1406.931
740.3021, 1408.018
740.7842, 1407.865
741.2663, 1409.383
741.7484, 1415.492
742.2305, 1424.739
742.7126, 1429.945
743.1948, 1429.385
743.6769, 1427.817
744.1590, 1423.494
744.6411, 1420.243
745.1232, 1420.107
745.6053, 1422.550
746.0875, 1426.360
746.5696, 1431.248
747.0517, 1436.960
747.5338, 1443.639
748.0159, 1450.823
748.4980, 1457.033
748.9802, 1462.595
749.4623, 1470.369
749.9444, 1482.119
750.4265, 1495.650
750.9086, 1507.071
751.3907, 1516.202
751.8729, 1523.970
752.3550, 1528.133
752.8371, 1534.054
753.3192, 1543.320
753.8013, 1555.131
754.2834, 1569.667
754.7656, 1586.832
755.2477, 1602.166
755.7298, 1610.529
756.2119, 1618.799
756.6940, 1634.853
757.1761, 1655.889
757.6583, 1674.498
758.1404, 1688.825
758.6225, 1702.937
759.1046, 1721.044
759.5867, 1742.496
760.0688, 1763.540
760.5510, 1783.416
761.0331, 1804.722
761.5152, 1829.906
761.9973, 1854.817
762.4794, 1876.379
762.9615, 1895.208
763.4437, 1913.314
763.9258, 1931.136
764.4079, 1948.224
764.8900, 1966.841
765.3721, 1982.926
765.8542, 1990.336
766.3364, 1990.348
766.8185, 1989.696
767.3006, 1992.104
767.7827, 1994.688
768.2648, 1992.643
768.7469, 1985.918
769.2291, 1975.178
769.7112, 1958.758
770.1933, 1942.443
770.6754, 1928.422
771.1575, 1916.501
771.6396, 1906.391
772.1218, 1897.982
772.6039, 1891.295
773.0860, 1887.965
773.5681, 1884.612
774.0502, 1878.731
774.5323, 1872.055
775.0145, 1866.718
775.4966, 1863.391
775.9787, 1862.193
776.4608, 1863.210
776.9429, 1866.450
777.4250, 1871.789
777.9072, 1879.273
778.3893, 1889.631
778.8714, 1903.087
779.3535, 1919.451
779.8356, 1939.010
780.3177, 1961.430
780.7999, 1984.085
781.2820, 2005.494
781.7641, 2029.427
782.2462, 2057.995
782.7283, 2087.439
783.2104, 2115.067
783.6926, 2141.705
784.1747, 2169.754
784.6568, 2200.530
785.1389, 2230.554
785.6210, 2255.284
786.1031, 2277.734
786.5853, 2304.437
787.0674, 2335.064
787.5495, 2364.672
788.0316, 2390.750
788.5137, 2415.896
788.9958, 2443.088
789.4780, 2471.989
789.9601, 2507.830
790.4422, 2550.712
790.9243, 2600.656
791.4064, 2656.811
791.8885, 2720.520
792.3707, 2794.258
792.8528, 2877.377
793.3349, 2966.915
793.8170, 3062.715
794.2991, 3164.134
794.7813, 3271.779
795.2634, 3384.900
795.7455, 3502.371
796.2276, 3624.377
796.7097, 3751.683
797.1918, 3885.173
797.6740, 4025.831
798.1561, 4176.347
798.6382, 4336.837
799.1203, 4502.025
799.6024, 4669.141
800.0845, 4850.899
800.5667, 5055.935
801.0488, 5279.045
801.5309, 5510.004
802.0130, 5749.313
802.4951, 5999.488
802.9772, 6272.295
803.4594, 6544.154
803.9415, 6806.467
804.4236, 7061.954
804.9057, 7316.905
805.3878, 7568.277
805.8699, 7798.629
806.3521, 8002.202
806.8342, 8169.991
807.3163, 8289.626
807.7985, 8360.619
808.2806, 8374.925
808.7627, 8330.784
809.2448, 8254.301
809.7269, 8162.487
810.2090, 8053.448
810.6912, 7921.153
811.1733, 7759.359
811.6554, 7588.560
812.1375, 7412.706
812.6196, 7222.283
813.1017, 7013.987
813.5839, 6789.653
814.0660, 6552.707
814.5481, 6303.017
815.0302, 6042.477
815.5123, 5771.794
815.9944, 5491.663
816.4766, 5196.327
816.9587, 4893.303
817.4408, 4597.777
817.9229, 4314.283
818.4050, 4044.350
818.8871, 3788.131
819.3693, 3548.508
819.8514, 3328.870
820.3335, 3129.826
820.8156, 2946.979
821.2977, 2779.347
821.7798, 2628.745
822.2620, 2496.415
822.7441, 2380.268
823.2262, 2274.844
823.7083, 2180.573
824.1904, 2095.054
824.6725, 2021.469
825.1547, 1952.540
825.6368, 1884.483
826.1189, 1819.744
826.6010, 1761.598
827.0831, 1710.503
827.5652, 1664.374
828.0474, 1622.399
828.5295, 1584.172
829.0116, 1550.423
829.4937, 1519.950
829.9758, 1488.584
830.4579, 1455.796
830.9401, 1426.279
831.4222, 1403.879
831.9043, 1386.386
832.3864, 1366.573
832.8685, 1343.471
833.3506, 1323.812
833.8328, 1310.093
834.3149, 1296.264
834.7970, 1278.393
835.2791, 1258.810
835.7612, 1241.896
836.2433, 1228.096
836.7255, 1214.709
837.2076, 1200.248
837.6897, 1187.442
838.1718, 1178.980
838.6539, 1172.148
839.1360, 1163.553
839.6182, 1152.862
840.1003, 1141.707
840.5824, 1130.197
841.0645, 1120.385
841.5466, 1117.130
842.0287, 1117.849
842.5109, 1113.889
842.9930, 1104.202
843.4751, 1093.285
843.9572, 1083.746
844.4393, 1075.417
844.9214, 1068.243
845.4036, 1062.403
845.8857, 1056.669
846.3678, 1050.882
846.8499, 1045.454
847.3320, 1041.246
847.8141, 1036.988
848.2963, 1030.762
848.7784, 1022.747
849.2605, 1016.306
849.7426, 1013.973
850.2247, 1010.984
850.7068, 1004.532
851.1890, 997.1984
851.6711, 991.3162
852.1532, 987.0472
852.6353, 983.9725
853.1174, 982.0755
853.5995, 979.9182
854.0817, 975.2440
854.5638, 969.1318
855.0459, 964.4716
855.5280, 961.3446
856.0101, 959.1271
856.4922, 957.6813
856.9744, 955.9011
857.4565, 952.2899
857.9386, 946.9020
858.4207, 941.4889
858.9028, 934.9080
859.3849, 931.2166
859.8671, 934.1334
860.3492, 936.9509
860.8313, 933.0659
861.3134, 925.3366
861.7955, 921.9738
862.2776, 926.6030
862.7598, 928.9119
863.2419, 924.2362
863.7240, 918.3885
864.2061, 915.1450
864.6882, 913.5652
865.1703, 911.4899
865.6525, 908.4120
866.1346, 905.5626
866.6167, 904.2012
867.0988, 903.3937
867.5809, 901.6052
868.0630, 899.1037
868.5452, 896.7909
869.0273, 894.8434
869.5094, 893.1945
869.9915, 891.8860
870.4736, 890.5397
870.9557, 887.9236
871.4379, 883.5823
871.9200, 880.6468
872.4021, 880.0610
872.8842, 878.9248
873.3663, 875.0304
873.8484, 870.6078
874.3306, 869.3827
874.8127, 871.4612
875.2948, 872.5682
875.7769, 872.4731
876.2590, 871.3221
876.7411, 869.1335
877.2233, 865.9191
877.7054, 860.5732
878.1875, 854.2921
878.6696, 850.2180
879.1517, 849.9175
879.6339, 850.7028
880.1160, 851.4786
880.5981, 851.3934
881.0802, 848.6564
881.5623, 843.9271
882.0444, 839.3415
882.5266, 835.6978
883.0087, 832.9396
883.4908, 831.0938
883.9729, 830.0269
884.4550, 829.5122
884.9371, 829.6327
885.4193, 828.8901
885.9014, 827.0521
886.3835, 824.1542
886.8656, 820.1172
887.3477, 815.1047
887.8298, 809.3677
888.3120, 802.0735
888.7941, 796.3568
889.2762, 793.3937
889.7583, 790.5526
890.2404, 787.2441
890.7225, 783.5648
891.2047, 779.4246
891.6868, 774.9349
892.1689, 770.7667
892.6510, 766.8283
893.1331, 763.6781
893.6152, 761.9805
894.0974, 760.9246
894.5795, 760.1664
895.0616, 759.2083
895.5437, 757.1033
896.0258, 753.4481
896.5079, 748.7523
896.9901, 742.9187
897.4722, 736.6824
897.9543, 731.5184
898.4364, 727.5432
898.9185, 725.4806
899.4006, 725.5598
899.8828, 726.2089
900.3649, 726.1776
900.8470, 725.4072
901.3291, 723.7778
901.8112, 721.4234
902.2933, 717.0552
902.7755, 708.6149
903.2576, 702.6367
903.7397, 703.7587
904.2218, 708.2176
904.7039, 709.9016
905.1860, 708.3444
905.6682, 707.5110
906.1503, 708.0153
906.6324, 708.5237
907.1145, 707.8369
907.5966, 707.7786
908.0787, 709.1912
908.5609, 712.5598
909.0430, 719.8226
909.5251, 733.5551
910.0072, 743.2155
910.4893, 739.0459
910.9714, 730.8896
911.4536, 728.1930
911.9357, 729.4545
912.4178, 729.8325
912.8999, 728.4109
913.3820, 728.9064
913.8641, 735.1659
914.3463, 743.8230
914.8284, 748.1522
915.3105, 749.1852
915.7926, 751.5397
916.2748, 755.8277
916.7569, 761.3304
917.2390, 767.7952
917.7211, 774.6131
918.2032, 781.1046
918.6854, 787.3033
919.1675, 791.3687
919.6496, 793.1539
920.1317, 793.1926
920.6138, 791.3783
921.0959, 788.2119
921.5781, 784.1801
922.0602, 779.1697
922.5423, 772.7031
923.0244, 766.1661
923.5065, 755.6143
923.9886, 736.9926
924.4708, 718.7485
924.9529, 704.1595
925.4350, 692.3051
925.9171, 682.4537
926.3992, 674.3243
926.8813, 666.2765
927.3635, 657.3535
927.8456, 648.7314
928.3277, 639.6901
928.8098, 632.3025
929.2919, 630.2932
929.7740, 631.9093
930.2562, 631.8121
930.7383, 627.8398
931.2204, 622.8534
931.7025, 619.3837
932.1846, 616.9581
932.6667, 614.7601
933.1489, 612.8411
933.6310, 611.5418
934.1131, 610.9116
934.5952, 610.6810
935.0773, 610.7440
935.5594, 610.6907
936.0416, 609.3821
936.5237, 606.8015
937.0058, 604.6804
937.4879, 603.1226
937.9700, 601.8126
938.4521, 600.5126
938.9343, 599.6752
939.4164, 599.8247
939.8985, 600.9437
940.3806, 602.8937
940.8627, 607.5853
941.3448, 609.2308
941.8270, 603.4778
942.3091, 599.0656
942.7912, 603.1399
943.2733, 610.3627
943.7554, 611.4843
944.2375, 605.0840
944.7197, 600.9313
945.2018, 602.6932
945.6839, 604.3567
946.1660, 603.6227
946.6481, 601.8418
947.1302, 599.3231
947.6124, 596.9772
948.0945, 597.2203
948.5766, 601.5005
949.0587, 605.1436
949.5408, 604.6273
950.0229, 602.6431
950.5051, 601.5286
950.9872, 601.1169
951.4693, 601.0284
951.9514, 601.0205
952.4335, 600.4012
952.9156, 598.4113
953.3978, 596.4084
953.8799, 596.1853
954.3620, 597.5458
954.8441, 600.9367
955.3262, 605.7813
955.8083, 608.1264
956.2905, 606.4024
956.7726, 603.8243
957.2547, 604.3366
957.7368, 606.8153
958.2189, 605.4952
958.7010, 600.0536
959.1832, 598.0594
959.6653, 601.3699
960.1474, 604.3500
960.6295, 603.6725
961.1116, 600.7763
961.5938, 597.9917
962.0759, 595.0746
962.5580, 594.7728
963.0401, 598.8818
963.5222, 601.7855
964.0043, 601.5256
964.4865, 600.6254
964.9686, 601.1453
965.4507, 602.5115
965.9328, 602.8490
966.4149, 601.5706
966.8970, 600.8533
967.3792, 600.7531
967.8613, 601.3432
968.3434, 603.3297
968.8255, 605.5178
969.3076, 606.7460
969.7897, 607.0530
970.2719, 607.0750
970.7540, 606.7785
971.2361, 606.6780
971.7182, 607.5679
972.2003, 608.1780
972.6824, 606.7462
973.1646, 604.6903
973.6467, 604.6168
974.1288, 606.7734
974.6109, 608.7323
975.0930, 608.7247
975.5751, 608.5425
976.0573, 610.0918
976.5394, 612.3947
977.0215, 614.2762
977.5036, 615.5233
977.9857, 615.8417
978.4678, 615.1970
978.9500, 614.4284
979.4321, 614.1397
979.9142, 614.4855
980.3963, 615.9683
980.8784, 618.3568
981.3605, 621.2178
981.8427, 624.3085
982.3248, 625.8777
982.8069, 624.8853
983.2890, 623.5519
983.7711, 625.8060
984.2532, 624.7280
984.7354, 631.1329
985.2175, 626.6742
985.6996, 625.5101
986.1817, 629.8173
986.6638, 634.8895
987.1459, 637.7028
987.6281, 638.4002
988.1102, 636.7964
988.5923, 632.2137
989.0744, 630.5493
989.5565, 632.6945
990.0386, 635.2126
990.5208, 637.6151
991.0029, 639.2490
991.4850, 639.1254
991.9671, 637.8478
992.4492, 637.7794
992.9313, 639.3992
993.4135, 641.0892
993.8956, 643.1816
994.3777, 644.8828
994.8598, 645.6595
995.3419, 646.1647
995.8240, 647.2083
996.3062, 648.5958
996.7883, 649.1759
997.2704, 648.2962
997.7525, 647.6104
998.2346, 646.9055
998.7167, 646.9304
999.1989, 648.6208
999.6810, 650.8993
1000.163, 652.1815
1000.645, 652.5567
1001.127, 653.8557
1001.609, 657.2978
1002.092, 660.6778
1002.574, 663.6608
1003.056, 665.7251
1003.538, 665.6677
1004.020, 664.7118
1004.502, 664.8690
1004.984, 666.4735
1005.466, 668.3721
1005.948, 669.7998
1006.431, 671.5366
1006.913, 675.0427
1007.395, 678.5206
1007.877, 678.8981
1008.359, 677.5776
1008.841, 679.1281
1009.323, 684.5162
1009.805, 688.2206
1010.288, 684.2457
1010.770, 678.4058
1011.252, 677.8505
1011.734, 680.4709
1012.216, 682.7240
1012.698, 684.3077
1013.180, 686.3427
1013.662, 689.2332
1014.144, 691.6659
1014.627, 691.5706
1015.109, 690.7465
1015.591, 693.2625
1016.073, 698.1112
1016.555, 702.4689
1017.037, 705.7426
1017.519, 707.0706
1018.001, 705.9776
1018.484, 704.2808
1018.966, 704.4728
1019.448, 705.9481
1019.930, 706.4338
1020.412, 706.0580
1020.894, 705.7496
1021.376, 705.6915
1021.858, 707.3265
1022.340, 711.6691
1022.823, 716.9244
1023.305, 720.4309
1023.787, 722.2426
1024.269, 722.7911
1024.751, 722.0307
1025.233, 720.7372
1025.715, 718.8597
1026.197, 718.0080
1026.680, 719.3031
1027.162, 721.9844
1027.644, 724.8850
1028.126, 728.0514
1028.608, 728.9838
1029.090, 726.7941
1029.572, 726.8944
1030.054, 731.2528
1030.536, 735.6373
1031.019, 737.0099
1031.501, 736.6903
1031.983, 737.4130
1032.465, 739.1541
1032.947, 742.3422
1033.429, 748.0599
1033.911, 752.2894
1034.393, 753.3604
1034.875, 754.2537
1035.358, 757.5912
1035.840, 761.8934
1036.322, 763.3094
1036.804, 760.7061
1037.286, 760.7388
1037.768, 764.6866
1038.250, 768.9952
1038.732, 773.3013
1039.215, 777.3219
1039.697, 781.8251
1040.179, 785.5994
1040.661, 784.8563
1041.143, 777.1605
1041.625, 773.9969
1042.107, 778.6006
1042.589, 783.3088
1043.072, 786.9456
1043.554, 789.9285
1044.036, 792.0992
1044.518, 793.8917
1045.000, 796.7346
1045.482, 801.6590
1045.964, 803.6143
1046.446, 798.0504
1046.928, 795.1662
1047.411, 799.6261
1047.893, 805.7133
1048.375, 809.1945
1048.857, 811.0411
1049.339, 814.1525
1049.821, 819.3121
1050.303, 823.1060
1050.785, 824.2726
1051.267, 824.9769
1051.750, 824.4884
1052.232, 825.0726
1052.714, 829.4720
1053.196, 836.0594
1053.678, 841.1388
1054.160, 844.0467
1054.642, 846.2540
1055.124, 847.5452
1055.607, 848.9121
1056.089, 850.0884
1056.571, 852.0486
1057.053, 856.6393
1057.535, 862.3201
1058.017, 865.4847
1058.499, 865.1974
1058.981, 865.7770
1059.464, 868.8485
1059.946, 872.6134
1060.428, 876.9233
1060.910, 881.1219
1061.392, 884.5887
1061.874, 887.5842
1062.356, 890.8967
1062.838, 894.7204
1063.320, 897.7535
1063.802, 898.6049
1064.285, 899.7716
1064.767, 902.8043
1065.249, 906.2065
1065.731, 908.0204
1066.213, 909.4376
1066.695, 913.3563
1067.177, 920.2756
1067.659, 926.3623
1068.142, 930.5847
1068.624, 932.9909
1069.106, 930.8666
1069.588, 929.4528
1070.070, 934.3351
1070.552, 942.7046
1071.034, 949.3652
1071.516, 953.2736
1071.999, 955.8911
1072.481, 956.3474
1072.963, 957.5754
1073.445, 961.5024
1073.927, 966.2184
1074.409, 970.6396
1074.891, 974.4951
1075.373, 977.1079
1075.855, 978.6376
1076.338, 981.2201
1076.820, 985.1543
1077.302, 991.2760
1077.784, 1003.740
1078.266, 1014.796
1078.748, 1016.571
1079.230, 1013.831
1079.712, 1013.798
1080.194, 1017.385
1080.677, 1021.916
1081.159, 1027.194
1081.641, 1031.469
1082.123, 1031.086
1082.605, 1032.297
1083.087, 1042.027
1083.569, 1054.688
1084.052, 1062.683
1084.534, 1065.776
1085.016, 1068.390
1085.498, 1072.202
1085.980, 1075.115
1086.462, 1074.039
1086.944, 1074.175
1087.426, 1080.550
1087.908, 1088.920
1088.391, 1093.867
1088.873, 1095.868
1089.355, 1098.323
1089.837, 1101.714
1090.319, 1107.864
1090.801, 1121.104
1091.283, 1133.066
1091.765, 1137.099
1092.247, 1139.125
1092.730, 1146.502
1093.212, 1157.084
1093.694, 1163.444
1094.176, 1163.347
1094.658, 1163.236
1095.140, 1163.588
1095.622, 1166.665
1096.104, 1175.158
1096.587, 1185.322
1097.069, 1194.839
1097.551, 1203.188
1098.033, 1209.729
1098.515, 1214.293
1098.997, 1218.742
1099.479, 1222.402
1099.961, 1227.695
1100.443, 1236.894
1100.926, 1246.579
1101.408, 1254.445
1101.890, 1261.059
1102.372, 1267.096
1102.854, 1272.722
1103.336, 1279.429
1103.818, 1288.528
1104.300, 1297.225
1104.782, 1304.910
1105.265, 1312.036
1105.747, 1318.474
1106.229, 1324.769
1106.711, 1331.688
1107.193, 1339.152
1107.675, 1346.209
1108.157, 1351.558
1108.639, 1358.823
1109.122, 1370.774
1109.604, 1381.829
1110.086, 1388.203
1110.568, 1394.032
1111.050, 1404.244
1111.532, 1417.385
1112.014, 1427.728
1112.496, 1434.574
1112.979, 1439.871
1113.461, 1440.277
1113.943, 1443.813
1114.425, 1454.671
1114.907, 1466.971
1115.389, 1477.532
1115.871, 1486.227
1116.353, 1492.009
1116.835, 1493.597
1117.318, 1500.050
1117.800, 1514.824
1118.282, 1528.051
1118.764, 1537.084
1119.246, 1546.157
1119.728, 1557.871
1120.210, 1570.773
1120.692, 1582.859
1121.174, 1594.153
1121.657, 1603.362
1122.139, 1608.961
1122.621, 1616.958
1123.103, 1628.263
1123.585, 1641.146
1124.067, 1655.749
1124.549, 1669.763
1125.031, 1680.135
1125.514, 1687.863
1125.996, 1697.770
1126.478, 1710.230
1126.960, 1722.651
1127.442, 1734.883
1127.924, 1747.183
1128.406, 1759.544
1128.888, 1772.474
1129.370, 1786.791
1129.853, 1801.380
1130.335, 1813.217
1130.817, 1826.313
1131.299, 1837.962
1131.781, 1848.293
1132.263, 1859.513
1132.745, 1866.201
1133.227, 1874.885
1133.709, 1889.552
1134.192, 1900.408
1134.674, 1919.523
1135.156, 1930.340
1135.638, 1945.749
1136.120, 1964.926
1136.602, 1981.139
1137.084, 1993.939
1137.566, 2007.536
1138.049, 2023.575
1138.531, 2040.318
1139.013, 2056.193
1139.495, 2071.480
1139.977, 2085.886
1140.459, 2100.353
1140.941, 2118.277
1141.423, 2139.008
1141.906, 2159.844
1142.388, 2179.864
1142.870, 2198.845
1143.352, 2216.901
1143.834, 2233.277
1144.316, 2245.197
1144.798, 2256.357
1145.280, 2273.085
1145.762, 2293.224
1146.245, 2312.997
1146.727, 2331.548
1147.209, 2348.533
1147.691, 2363.938
1148.173, 2378.907
1148.655, 2393.447
1149.137, 2409.094
1149.619, 2427.829
1150.101, 2447.833
1150.584, 2466.562
1151.066, 2484.883
1151.548, 2505.240
1152.030, 2527.895
1152.512, 2550.332
1152.994, 2570.756
1153.476, 2591.982
1153.958, 2615.317
1154.441, 2639.788
1154.923, 2665.770
1155.405, 2691.885
1155.887, 2716.981
1156.369, 2740.796
1156.851, 2762.487
1157.333, 2780.645
1157.815, 2802.048
1158.297, 2832.888
1158.780, 2860.621
1159.262, 2876.460
1159.744, 2892.632
1160.226, 2918.682
1160.708, 2950.853
1161.190, 2982.622
1161.672, 3013.792
1162.154, 3043.389
1162.636, 3070.195
1163.119, 3097.796
1163.601, 3126.520
1164.083, 3155.856
1164.565, 3185.624
1165.047, 3216.106
1165.529, 3247.741
1166.011, 3280.324
1166.493, 3312.844
1166.976, 3345.031
1167.458, 3379.536
1167.940, 3417.237
1168.422, 3452.925
1168.904, 3485.086
1169.386, 3516.392
1169.868, 3547.781
1170.350, 3581.607
1170.833, 3622.712
1171.315, 3669.201
1171.797, 3708.707
1172.279, 3741.914
1172.761, 3776.745
1173.243, 3814.355
1173.725, 3854.724
1174.207, 3897.959
1174.689, 3942.320
1175.172, 3986.653
1175.654, 4030.094
1176.136, 4069.078
1176.618, 4115.606
1177.100, 4153.047
1177.582, 4204.155
1178.064, 4250.573
1178.546, 4291.964
1179.028, 4337.516
1179.511, 4392.186
1179.993, 4447.947
1180.475, 4497.355
1180.957, 4545.924
1181.439, 4601.163
1181.921, 4650.388
1182.403, 4708.108
1182.885, 4754.661
1183.368, 4804.790
1183.850, 4859.550
1184.332, 4912.761
1184.814, 4959.799
1185.296, 5008.570
1185.778, 5061.367
1186.260, 5117.699
1186.742, 5179.297
1187.224, 5242.275
1187.707, 5301.617
1188.189, 5365.476
1188.671, 5428.997
1189.153, 5490.495
1189.635, 5556.787
1190.117, 5617.089
1190.599, 5677.991
1191.081, 5740.321
1191.564, 5804.245
1192.046, 5869.209
1192.528, 5936.625
1193.010, 6008.686
1193.492, 6084.918
1193.974, 6163.126
1194.456, 6245.285
1194.938, 6316.198
1195.421, 6371.384
1195.903, 6438.137
1196.385, 6525.739
1196.867, 6615.720
1197.349, 6694.083
1197.831, 6783.942
1198.313, 6856.927
1198.795, 6954.335
1199.277, 7041.638
1199.760, 7122.012
1200.242, 7210.317
1200.724, 7307.005
1201.206, 7398.952
1201.688, 7481.532
1202.170, 7563.694
1202.652, 7651.940
1203.134, 7745.724
1203.616, 7849.768
1204.099, 7955.044
1204.581, 8044.179
1205.063, 8125.925
1205.545, 8215.449
1206.027, 8315.127
1206.509, 8425.795
1206.991, 8548.518
1207.473, 8668.011
1207.956, 8774.075
1208.438, 8876.763
1208.920, 8978.189
1209.402, 9081.396
1209.884, 9185.929
1210.366, 9294.961
1210.848, 9415.205
1211.330, 9545.412
1211.813, 9668.498
1212.295, 9778.686
1212.777, 9888.852
1213.259, 9995.018
1213.741, 10109.69
1214.223, 10241.89
1214.705, 10373.95
1215.187, 10491.80
1215.669, 10604.48
1216.151, 10727.11
1216.634, 10859.22
1217.116, 10988.69
1217.598, 11114.04
1218.080, 11249.19
1218.562, 11396.03
1219.044, 11540.03
1219.526, 11676.78
1220.008, 11807.75
1220.491, 11933.45
1220.973, 12061.29
1221.455, 12208.71
1221.937, 12340.91
1222.419, 12478.42
1222.901, 12624.58
1223.383, 12758.38
1223.865, 12904.40
1224.348, 13057.26
1224.830, 13214.75
1225.312, 13368.84
1225.794, 13513.86
1226.276, 13654.50
1226.758, 13791.63
1227.240, 13929.85
1227.722, 14070.39
1228.204, 14214.86
1228.687, 14366.93
1229.169, 14523.47
1229.651, 14673.99
1230.133, 14815.45
1230.615, 14954.04
1231.097, 15091.72
1231.579, 15224.48
1232.061, 15348.29
1232.543, 15471.67
1233.026, 15594.15
1233.508, 15723.88
1233.990, 15873.96
1234.472, 16037.53
1234.954, 16183.33
1235.436, 16309.89
1235.918, 16427.88
1236.400, 16535.73
1236.883, 16653.42
1237.365, 16784.51
1237.847, 16922.90
1238.329, 17065.52
1238.811, 17197.71
1239.293, 17297.96
1239.775, 17421.60
1240.257, 17499.24
1240.740, 17627.32
1241.222, 17731.13
1241.704, 17814.81
1242.186, 17893.61
1242.668, 17972.76
1243.150, 18055.94
1243.632, 18145.05
1244.114, 18238.99
1244.596, 18343.88
1245.078, 18444.84
1245.561, 18527.95
1246.043, 18607.49
1246.525, 18694.79
1247.007, 18787.05
1247.489, 18884.10
1247.971, 18982.74
1248.453, 19065.27
1248.935, 19125.50
1249.418, 19179.09
1249.900, 19227.04
1250.382, 19266.19
1250.864, 19290.26
1251.346, 19317.66
1251.828, 19359.86
1252.310, 19408.14
1252.792, 19451.17
1253.275, 19490.78
1253.757, 19537.66
1254.239, 19590.23
1254.721, 19622.05
1255.203, 19635.71
1255.685, 19662.12
1256.167, 19707.37
1256.649, 19760.89
1257.131, 19817.72
1257.614, 19863.22
1258.096, 19873.64
1258.578, 19877.32
1259.060, 19906.88
1259.542, 19949.46
1260.024, 19992.44
1260.506, 20034.34
1260.988, 20076.34
1261.470, 20117.45
1261.953, 20153.40
1262.435, 20181.74
1262.917, 20210.69
1263.399, 20248.29
1263.881, 20278.20
1264.363, 20280.31
1264.845, 20293.50
1265.327, 20346.96
1265.810, 20410.36
1266.292, 20451.06
1266.774, 20472.06
1267.256, 20481.47
1267.738, 20476.26
1268.220, 20494.00
1268.702, 20535.48
1269.184, 20569.95
1269.667, 20592.13
1270.149, 20620.67
1270.631, 20664.16
1271.113, 20710.91
1271.595, 20752.71
1272.077, 20784.74
1272.559, 20789.76
1273.041, 20788.21
1273.523, 20811.66
1274.005, 20851.25
1274.488, 20894.49
1274.970, 20935.20
1275.452, 20964.84
1275.934, 20981.17
1276.416, 20991.93
1276.898, 20987.37
1277.380, 20997.00
1277.862, 21033.30
1278.345, 21079.97
1278.827, 21144.19
1279.309, 21200.53
1279.791, 21223.89
1280.273, 21227.86
1280.755, 21241.83
1281.237, 21265.66
1281.719, 21286.83
1282.202, 21303.81
1282.684, 21336.68
1283.166, 21387.60
1283.648, 21431.92
1284.130, 21461.36
1284.612, 21479.49
1285.094, 21488.31
1285.576, 21491.89
1286.058, 21494.22
1286.541, 21493.54
1287.023, 21493.89
##END=



