##NAMES=Mimetite-M
##RRUFFID=R070138
##IDEAL CHEMISTRY=Pb_5_(AsO_4_)_3_Cl
##LOCALITY=Eureka Hill Mine, Tintic District, East Tintic Mts, Juab County, Utah, USA
##OWNER=RRUFF
##SOURCE=Michael Scott
##DESCRIPTION=Colorless thin hexagonal prisms associated with quartz and anglesite
##STATUS=The identification of this mineral is confirmed by single-crystal X-ray diffraction and chemical analysis.
##URL=rruff.info/R070138
##MEASURED CHEMISTRY=Pb_5.00_(As_1.00_O_4_)_3_Cl_1.00_
114.0229, 298.3367
114.5050, 310.1679
114.9871, 323.0939
115.4692, 342.8588
115.9513, 370.6230
116.4335, 400.1719
116.9156, 426.9298
117.3977, 453.8235
117.8798, 485.7638
118.3619, 529.8438
118.8440, 576.8390
119.3262, 619.4016
119.8083, 652.9275
120.2904, 688.9166
120.7725, 736.3941
121.2546, 793.5903
121.7367, 853.3198
122.2189, 906.6005
122.7010, 960.5363
123.1831, 1025.867
123.6652, 1111.620
124.1473, 1206.381
124.6294, 1298.368
125.1115, 1387.573
125.5937, 1475.659
126.0758, 1565.187
126.5579, 1655.417
127.0400, 1742.272
127.5221, 1822.937
128.0043, 1900.036
128.4864, 1976.508
128.9685, 2051.670
129.4506, 2130.578
129.9327, 2223.594
130.4148, 2329.784
130.8969, 2435.652
131.3791, 2530.441
131.8612, 2615.570
132.3433, 2702.852
132.8254, 2793.348
133.3075, 2887.248
133.7896, 2986.769
134.2718, 3091.867
134.7539, 3197.630
135.2360, 3303.393
135.7181, 3408.172
136.2002, 3501.300
136.6823, 3579.190
137.1645, 3642.736
137.6466, 3698.792
138.1287, 3746.587
138.6108, 3789.110
139.0929, 3828.304
139.5750, 3861.996
140.0572, 3898.807
140.5393, 3943.078
141.0214, 3997.672
141.5035, 4047.373
141.9856, 4091.130
142.4677, 4130.713
142.9499, 4171.110
143.4320, 4210.710
143.9141, 4252.300
144.3962, 4295.887
144.8783, 4337.733
145.3604, 4389.095
145.8425, 4452.076
146.3247, 4525.387
146.8068, 4604.963
147.2889, 4697.511
147.7710, 4790.216
148.2531, 4876.525
148.7352, 4949.752
149.2174, 5023.414
149.6995, 5099.788
150.1816, 5179.156
150.6637, 5254.723
151.1458, 5327.474
151.6279, 5394.988
152.1101, 5456.734
152.5922, 5503.054
153.0743, 5551.770
153.5564, 5608.929
154.0385, 5679.990
154.5206, 5744.899
155.0028, 5798.855
155.4849, 5845.163
155.9670, 5889.414
156.4491, 5927.479
156.9312, 5967.630
157.4133, 6014.658
157.8955, 6076.861
158.3776, 6132.983
158.8597, 6173.836
159.3418, 6203.586
159.8239, 6236.005
160.3060, 6274.521
160.7882, 6318.398
161.2703, 6367.180
161.7524, 6423.987
162.2345, 6482.585
162.7166, 6544.272
163.1987, 6608.220
163.6808, 6663.556
164.1630, 6694.779
164.6451, 6718.655
165.1272, 6753.204
165.6093, 6821.257
166.0914, 6890.289
166.5735, 6937.784
167.0557, 6961.844
167.5378, 6982.257
168.0199, 7016.977
168.5020, 7056.048
168.9841, 7082.539
169.4662, 7087.437
169.9484, 7076.720
170.4305, 7053.366
170.9126, 7015.381
171.3947, 6973.728
171.8768, 6940.167
172.3589, 6910.920
172.8411, 6876.547
173.3232, 6834.364
173.8053, 6782.829
174.2874, 6717.345
174.7695, 6632.422
175.2516, 6543.500
175.7338, 6466.736
176.2159, 6401.407
176.6980, 6341.215
177.1801, 6288.914
177.6622, 6237.643
178.1443, 6172.809
178.6264, 6081.179
179.1086, 5981.546
179.5907, 5908.229
180.0728, 5860.624
180.5549, 5813.817
181.0370, 5744.433
181.5191, 5657.790
182.0013, 5568.281
182.4834, 5473.132
182.9655, 5380.613
183.4476, 5312.610
183.9297, 5272.288
184.4118, 5235.855
184.8940, 5175.768
185.3761, 5094.408
185.8582, 5010.828
186.3403, 4929.978
186.8224, 4852.538
187.3046, 4780.396
187.7867, 4713.330
188.2688, 4650.137
188.7509, 4591.928
189.2330, 4538.364
189.7151, 4479.509
190.1973, 4401.518
190.6794, 4308.802
191.1615, 4237.479
191.6436, 4195.116
192.1257, 4166.061
192.6078, 4118.101
193.0900, 4049.338
193.5721, 3978.269
194.0542, 3917.660
194.5363, 3867.425
195.0184, 3814.442
195.5005, 3755.405
195.9826, 3694.089
196.4648, 3642.903
196.9469, 3603.948
197.4290, 3567.164
197.9111, 3521.905
198.3932, 3467.182
198.8753, 3421.416
199.3575, 3392.650
199.8396, 3375.702
200.3217, 3339.116
200.8038, 3277.131
201.2859, 3213.505
201.7680, 3174.086
202.2502, 3162.688
202.7323, 3150.253
203.2144, 3130.164
203.6965, 3102.646
204.1786, 3071.790
204.6607, 3037.632
205.1429, 3000.710
205.6250, 2959.232
206.1071, 2910.566
206.5892, 2869.675
207.0713, 2843.180
207.5534, 2832.253
208.0356, 2819.877
208.5177, 2807.967
208.9998, 2792.281
209.4819, 2763.378
209.9640, 2715.356
210.4461, 2670.555
210.9282, 2638.549
211.4104, 2621.701
211.8925, 2605.945
212.3746, 2593.398
212.8567, 2580.374
213.3388, 2557.519
213.8209, 2519.685
214.3031, 2483.262
214.7852, 2456.134
215.2673, 2441.657
215.7494, 2426.517
216.2315, 2410.180
216.7136, 2393.061
217.1958, 2376.561
217.6779, 2361.633
218.1600, 2345.366
218.6421, 2325.323
219.1242, 2298.687
219.6063, 2275.733
220.0885, 2258.154
220.5706, 2244.677
221.0527, 2229.511
221.5348, 2212.397
222.0169, 2193.791
222.4990, 2173.061
222.9812, 2147.990
223.4633, 2126.385
223.9454, 2109.534
224.4275, 2096.963
224.9096, 2087.125
225.3917, 2082.664
225.8739, 2077.367
226.3560, 2066.507
226.8381, 2048.541
227.3202, 2027.679
227.8023, 2001.902
228.2844, 1971.842
228.7665, 1950.149
229.2487, 1940.702
229.7308, 1935.977
230.2129, 1929.760
230.6950, 1922.319
231.1771, 1912.899
231.6592, 1900.596
232.1414, 1885.280
232.6235, 1871.509
233.1056, 1861.060
233.5877, 1850.669
234.0698, 1835.886
234.5519, 1809.738
235.0341, 1792.103
235.5162, 1790.901
235.9983, 1809.529
236.4804, 1814.821
236.9625, 1799.998
237.4446, 1777.154
237.9268, 1760.774
238.4089, 1754.671
238.8910, 1748.267
239.3731, 1737.747
239.8552, 1721.134
240.3373, 1711.490
240.8195, 1712.609
241.3016, 1718.164
241.7837, 1719.513
242.2658, 1716.529
242.7479, 1709.421
243.2300, 1696.686
243.7122, 1675.396
244.1943, 1660.795
244.6764, 1655.641
245.1585, 1655.589
245.6406, 1653.632
246.1227, 1649.532
246.6048, 1643.847
247.0870, 1635.634
247.5691, 1622.096
248.0512, 1616.232
248.5333, 1624.195
249.0154, 1636.746
249.4975, 1635.541
249.9797, 1612.753
250.4618, 1589.361
250.9439, 1572.507
251.4260, 1562.409
251.9081, 1558.793
252.3902, 1564.736
252.8724, 1575.792
253.3545, 1582.015
253.8366, 1581.816
254.3187, 1579.587
254.8008, 1576.862
255.2829, 1573.320
255.7651, 1569.973
256.2472, 1566.053
256.7293, 1562.615
257.2114, 1562.933
257.6935, 1569.778
258.1756, 1575.286
258.6577, 1574.796
259.1399, 1564.370
259.6220, 1559.972
260.1041, 1564.919
260.5862, 1574.784
261.0683, 1577.024
261.5504, 1568.413
262.0326, 1558.656
262.5147, 1551.804
262.9968, 1547.589
263.4789, 1548.020
263.9610, 1555.639
264.4431, 1566.908
264.9253, 1571.344
265.4074, 1566.949
265.8895, 1560.252
266.3716, 1553.138
266.8537, 1543.773
267.3358, 1542.202
267.8180, 1551.314
268.3001, 1567.247
268.7822, 1580.470
269.2643, 1591.666
269.7464, 1598.147
270.2285, 1595.848
270.7107, 1581.396
271.1928, 1576.609
271.6749, 1586.002
272.1570, 1603.978
272.6391, 1613.532
273.1212, 1612.065
273.6034, 1610.644
274.0855, 1617.475
274.5676, 1634.322
275.0497, 1644.731
275.5318, 1645.851
276.0139, 1641.079
276.4961, 1637.173
276.9782, 1632.596
277.4603, 1635.500
277.9424, 1655.005
278.4245, 1692.400
278.9066, 1721.109
279.3888, 1736.649
279.8709, 1744.504
280.3530, 1757.157
280.8351, 1774.900
281.3172, 1795.669
281.7993, 1818.937
282.2815, 1844.732
282.7636, 1869.245
283.2457, 1891.396
283.7278, 1913.002
284.2099, 1936.949
284.6920, 1963.034
285.1741, 1994.236
285.6563, 2034.740
286.1384, 2083.734
286.6205, 2128.094
287.1026, 2164.508
287.5847, 2199.697
288.0668, 2245.978
288.5490, 2303.344
289.0311, 2367.734
289.5132, 2438.813
289.9953, 2514.679
290.4774, 2591.815
290.9595, 2668.730
291.4417, 2749.010
291.9238, 2838.557
292.4059, 2936.490
292.8880, 3041.691
293.3701, 3154.224
293.8522, 3273.418
294.3344, 3398.340
294.8165, 3529.879
295.2986, 3667.072
295.7807, 3810.260
296.2628, 3958.458
296.7449, 4102.968
297.2271, 4223.914
297.7092, 4337.543
298.1913, 4485.534
298.6734, 4678.034
299.1555, 4882.494
299.6376, 5059.110
300.1198, 5212.896
300.6019, 5359.957
301.0840, 5506.324
301.5661, 5651.441
302.0482, 5795.376
302.5303, 5940.790
303.0125, 6079.289
303.4946, 6207.356
303.9767, 6323.316
304.4588, 6426.571
304.9409, 6509.848
305.4230, 6581.624
305.9052, 6653.152
306.3873, 6725.033
306.8694, 6795.375
307.3515, 6858.289
307.8336, 6917.626
308.3157, 6982.173
308.7979, 7065.701
309.2800, 7149.906
309.7621, 7220.688
310.2442, 7276.883
310.7263, 7319.082
311.2084, 7351.415
311.6906, 7369.774
312.1727, 7367.974
312.6548, 7335.624
313.1369, 7287.751
313.6190, 7232.887
314.1011, 7171.207
314.5833, 7104.963
315.0654, 7047.817
315.5475, 6983.184
316.0296, 6890.960
316.5117, 6722.077
316.9938, 6559.661
317.4760, 6447.039
317.9580, 6390.550
318.4402, 6333.815
318.9223, 6244.879
319.4044, 6151.914
319.8865, 6084.384
320.3686, 6058.371
320.8507, 6050.429
321.3329, 6056.078
321.8150, 6075.167
322.2971, 6102.056
322.7792, 6134.771
323.2613, 6175.295
323.7434, 6225.250
324.2256, 6275.424
324.7077, 6345.083
325.1898, 6445.107
325.6719, 6574.134
326.1540, 6700.417
326.6361, 6818.662
327.1183, 6935.801
327.6004, 7056.494
328.0825, 7184.613
328.5646, 7311.950
329.0467, 7435.146
329.5288, 7556.119
330.0110, 7681.973
330.4931, 7827.924
330.9752, 7965.701
331.4573, 8077.297
331.9394, 8153.511
332.4215, 8222.065
332.9037, 8287.235
333.3858, 8345.867
333.8679, 8386.165
334.3500, 8403.750
334.8321, 8410.578
335.3142, 8414.760
335.7964, 8422.038
336.2785, 8408.087
336.7606, 8368.997
337.2427, 8309.672
337.7248, 8245.613
338.2069, 8181.712
338.6891, 8098.567
339.1712, 7980.456
339.6533, 7824.302
340.1354, 7672.304
340.6175, 7529.232
341.0996, 7386.350
341.5818, 7229.836
342.0639, 7058.575
342.5460, 6885.975
343.0281, 6713.999
343.5102, 6544.505
343.9923, 6382.979
344.4745, 6232.899
344.9566, 6083.556
345.4387, 5923.583
345.9208, 5755.352
346.4029, 5579.430
346.8850, 5391.148
347.3672, 5196.437
347.8493, 5016.728
348.3314, 4852.757
348.8135, 4702.225
349.2956, 4570.394
349.7777, 4453.568
350.2599, 4336.682
350.7419, 4208.725
351.2241, 4080.451
351.7062, 3967.006
352.1883, 3868.445
352.6704, 3778.198
353.1525, 3691.452
353.6346, 3610.927
354.1168, 3540.585
354.5989, 3490.075
355.0810, 3440.256
355.5631, 3365.098
356.0452, 3271.820
356.5273, 3195.349
357.0095, 3169.785
357.4916, 3164.890
357.9737, 3150.649
358.4558, 3114.206
358.9379, 3078.406
359.4200, 3053.888
359.9022, 3039.321
360.3843, 3031.195
360.8664, 3033.228
361.3485, 3037.697
361.8306, 3038.626
362.3127, 3030.823
362.7949, 3030.737
363.2770, 3046.500
363.7591, 3072.554
364.2412, 3099.562
364.7233, 3123.642
365.2054, 3150.050
365.6876, 3181.929
366.1697, 3222.333
366.6518, 3257.718
367.1339, 3275.224
367.6160, 3291.003
368.0981, 3323.927
368.5803, 3408.658
369.0624, 3472.197
369.5445, 3495.353
370.0266, 3475.425
370.5087, 3459.703
370.9908, 3452.815
371.4730, 3446.006
371.9551, 3432.562
372.4372, 3413.940
372.9193, 3385.023
373.4014, 3342.321
373.8835, 3288.408
374.3657, 3237.323
374.8478, 3190.210
375.3299, 3144.404
375.8120, 3098.203
376.2941, 3050.729
376.7762, 3006.698
377.2584, 2966.944
377.7405, 2930.772
378.2226, 2897.120
378.7047, 2864.998
379.1868, 2839.938
379.6689, 2825.223
380.1511, 2820.504
380.6332, 2822.941
381.1153, 2833.783
381.5974, 2847.561
382.0795, 2854.511
382.5616, 2856.058
383.0438, 2860.876
383.5259, 2872.517
384.0080, 2890.371
384.4901, 2915.722
384.9722, 2949.596
385.4543, 2981.576
385.9364, 2998.380
386.4185, 3006.766
386.9007, 3021.347
387.3828, 3054.947
387.8649, 3091.830
388.3470, 3116.828
388.8291, 3130.507
389.3112, 3138.486
389.7934, 3137.766
390.2755, 3135.735
390.7576, 3140.556
391.2397, 3159.604
391.7218, 3178.707
392.2039, 3186.718
392.6861, 3188.100
393.1682, 3196.700
393.6503, 3226.272
394.1324, 3258.656
394.6145, 3281.343
395.0966, 3282.858
395.5788, 3296.884
396.0609, 3331.087
396.5430, 3382.364
397.0251, 3445.484
397.5072, 3526.311
397.9893, 3612.703
398.4715, 3703.325
398.9536, 3799.761
399.4357, 3892.644
399.9178, 3975.953
400.3999, 4059.543
400.8820, 4153.965
401.3642, 4268.701
401.8463, 4378.171
402.3284, 4477.477
402.8105, 4567.546
403.2926, 4660.343
403.7747, 4759.430
404.2569, 4854.696
404.7390, 4940.535
405.2211, 5018.621
405.7032, 5079.196
406.1853, 5118.883
406.6674, 5144.292
407.1496, 5176.259
407.6317, 5217.449
408.1138, 5239.730
408.5959, 5225.312
409.0780, 5177.349
409.5602, 5115.373
410.0423, 5041.433
410.5244, 4954.021
411.0065, 4847.771
411.4886, 4724.866
411.9707, 4598.383
412.4529, 4466.428
412.9350, 4334.955
413.4171, 4216.312
413.8992, 4108.939
414.3813, 4014.229
414.8634, 3937.560
415.3456, 3871.758
415.8277, 3806.718
416.3098, 3732.365
416.7919, 3665.089
417.2740, 3619.928
417.7561, 3593.103
418.2382, 3565.513
418.7203, 3524.353
419.2025, 3481.893
419.6846, 3447.199
420.1667, 3422.937
420.6488, 3403.075
421.1309, 3389.797
421.6130, 3379.161
422.0952, 3363.575
422.5773, 3347.409
423.0594, 3320.875
423.5415, 3278.217
424.0236, 3215.882
424.5057, 3154.994
424.9879, 3098.181
425.4700, 3042.246
425.9521, 2983.052
426.4342, 2920.907
426.9163, 2855.231
427.3984, 2783.724
427.8806, 2707.558
428.3627, 2640.209
428.8448, 2585.089
429.3269, 2531.592
429.8090, 2470.897
430.2911, 2400.957
430.7733, 2340.562
431.2554, 2291.606
431.7375, 2252.031
432.2196, 2220.589
432.7017, 2197.667
433.1838, 2171.924
433.6660, 2133.928
434.1481, 2088.438
434.6302, 2054.790
435.1123, 2034.099
435.5944, 2016.300
436.0765, 1990.909
436.5587, 1960.364
437.0408, 1930.843
437.5229, 1906.149
438.0050, 1882.157
438.4871, 1854.719
438.9692, 1824.121
439.4514, 1791.949
439.9335, 1756.719
440.4156, 1721.615
440.8977, 1689.469
441.3798, 1661.358
441.8619, 1635.910
442.3441, 1614.581
442.8262, 1595.344
443.3083, 1574.342
443.7904, 1550.045
444.2725, 1524.334
444.7546, 1497.173
445.2368, 1468.283
445.7189, 1441.187
446.2010, 1418.077
446.6831, 1396.233
447.1652, 1373.196
447.6473, 1344.404
448.1295, 1320.990
448.6116, 1306.051
449.0937, 1297.952
449.5758, 1288.970
450.0579, 1280.153
450.5400, 1268.605
451.0221, 1250.943
451.5042, 1225.252
451.9864, 1206.348
452.4685, 1196.186
452.9506, 1190.527
453.4327, 1183.436
453.9148, 1174.974
454.3969, 1163.584
454.8791, 1147.219
455.3612, 1127.663
455.8433, 1110.030
456.3254, 1094.406
456.8075, 1082.108
457.2896, 1077.386
457.7718, 1076.938
458.2539, 1073.354
458.7360, 1062.815
459.2181, 1051.560
459.7002, 1047.809
460.1823, 1049.017
460.6645, 1047.119
461.1466, 1031.033
461.6287, 1014.504
462.1108, 1010.345
462.5929, 1023.267
463.0750, 1032.213
463.5572, 1024.391
464.0393, 1009.331
464.5214, 998.2603
465.0035, 1000.284
465.4856, 999.9609
465.9677, 990.7650
466.4499, 973.2765
466.9320, 963.1286
467.4141, 966.9191
467.8962, 972.4075
468.3783, 972.8622
468.8604, 964.8188
469.3426, 959.2769
469.8247, 957.6807
470.3068, 957.7056
470.7889, 954.2776
471.2710, 946.3177
471.7531, 939.0236
472.2353, 934.8842
472.7174, 933.4255
473.1995, 930.0471
473.6816, 924.7173
474.1637, 917.7514
474.6458, 907.1229
475.1280, 894.3873
475.6101, 887.8447
476.0922, 891.9230
476.5743, 898.9428
477.0564, 896.6469
477.5385, 886.9483
478.0207, 878.1390
478.5028, 876.6020
478.9849, 877.5246
479.4670, 874.7654
479.9491, 866.9007
480.4312, 861.9164
480.9134, 869.5818
481.3955, 881.1915
481.8776, 886.3622
482.3597, 875.3706
482.8418, 863.9480
483.3239, 858.0727
483.8060, 856.8550
484.2881, 853.0574
484.7703, 839.7870
485.2524, 828.4278
485.7345, 824.9329
486.2166, 835.9888
486.6987, 840.8710
487.1808, 836.7491
487.6630, 828.3252
488.1451, 823.1764
488.6272, 822.8982
489.1093, 821.3630
489.5914, 815.8911
490.0735, 807.4507
490.5557, 803.6993
491.0378, 805.4020
491.5199, 807.8144
492.0020, 806.8499
492.4841, 803.0554
492.9662, 799.5444
493.4484, 796.5426
493.9305, 794.5336
494.4126, 794.8210
494.8947, 796.8481
495.3768, 798.7039
495.8589, 799.4637
496.3411, 799.5709
496.8232, 800.0511
497.3053, 800.8755
497.7874, 799.7523
498.2695, 793.5957
498.7516, 785.6999
499.2338, 778.9459
499.7159, 772.8030
500.1980, 769.6811
500.6801, 773.2907
501.1622, 780.6095
501.6443, 784.0652
502.1265, 779.5783
502.6086, 773.8711
503.0907, 768.5751
503.5728, 763.4249
504.0549, 760.0609
504.5370, 758.9138
505.0192, 759.0715
505.5013, 760.2311
505.9834, 763.1794
506.4655, 763.4924
506.9476, 759.3038
507.4297, 753.1019
507.9119, 753.1124
508.3940, 759.7990
508.8761, 764.0789
509.3582, 758.9446
509.8403, 747.4338
510.3224, 738.3087
510.8046, 731.7514
511.2867, 728.7995
511.7688, 734.7733
512.2509, 744.4622
512.7330, 747.8220
513.2151, 736.9225
513.6973, 724.5535
514.1794, 720.0225
514.6615, 721.8547
515.1436, 725.2889
515.6257, 732.6754
516.1078, 737.7145
516.5900, 735.0913
517.0721, 721.3954
517.5542, 712.4218
518.0363, 715.4520
518.5184, 722.0596
519.0005, 723.6749
519.4827, 715.9138
519.9648, 709.7108
520.4469, 706.3455
520.9290, 705.4793
521.4111, 706.7167
521.8932, 711.4542
522.3754, 714.4514
522.8575, 711.5908
523.3396, 702.8464
523.8217, 698.8787
524.3038, 700.4967
524.7859, 703.8395
525.2681, 704.6309
525.7502, 703.4067
526.2323, 702.6121
526.7144, 703.7606
527.1965, 704.5611
527.6786, 700.6232
528.1608, 693.3196
528.6429, 687.7720
529.1250, 687.9698
529.6071, 690.5414
530.0892, 693.1039
530.5714, 695.4921
531.0535, 697.3157
531.5356, 698.7161
532.0176, 699.3167
532.4998, 698.7481
532.9819, 693.6989
533.4640, 691.2708
533.9461, 694.7808
534.4282, 701.8903
534.9103, 704.4271
535.3925, 699.1749
535.8746, 694.3834
536.3567, 693.5724
536.8388, 697.1414
537.3209, 700.2473
537.8030, 703.5562
538.2852, 704.6038
538.7673, 698.2802
539.2494, 685.3885
539.7315, 678.7281
540.2136, 683.0112
540.6957, 691.0509
541.1779, 689.7524
541.6600, 681.3649
542.1421, 675.3153
542.6242, 679.9885
543.1063, 687.9575
543.5884, 691.1005
544.0706, 688.9713
544.5527, 686.1140
545.0348, 682.6386
545.5169, 680.8583
545.9990, 683.0467
546.4811, 693.7823
546.9633, 702.9064
547.4454, 709.0981
547.9275, 712.0950
548.4096, 711.3508
548.8917, 703.4736
549.3738, 696.3823
549.8560, 692.1984
550.3381, 690.9315
550.8202, 689.9345
551.3023, 689.1296
551.7844, 688.7708
552.2665, 689.3056
552.7487, 690.7289
553.2308, 691.2800
553.7129, 690.3028
554.1950, 689.6882
554.6771, 692.9423
555.1592, 699.2689
555.6414, 705.2052
556.1235, 710.7040
556.6056, 714.1144
557.0877, 711.3995
557.5698, 703.7149
558.0519, 698.3895
558.5341, 703.2346
559.0162, 709.8949
559.4983, 710.7382
559.9804, 701.5727
560.4625, 696.2990
560.9446, 702.6250
561.4268, 713.2237
561.9089, 719.1458
562.3910, 716.4913
562.8731, 713.7604
563.3552, 712.1063
563.8373, 711.2122
564.3195, 709.3159
564.8016, 705.6104
565.2837, 703.1508
565.7658, 704.0126
566.2479, 708.0792
566.7300, 711.3828
567.2122, 713.8975
567.6943, 715.6763
568.1764, 718.5968
568.6585, 720.9990
569.1406, 716.5012
569.6227, 699.5573
570.1049, 682.9947
570.5870, 681.9382
571.0691, 692.0558
571.5512, 702.7679
572.0333, 710.8619
572.5154, 716.6425
572.9976, 719.4897
573.4797, 719.4525
573.9618, 719.4552
574.4439, 719.7853
574.9260, 720.6837
575.4081, 722.3796
575.8903, 725.9390
576.3724, 728.3903
576.8545, 730.0215
577.3366, 730.3197
577.8187, 727.3068
578.3008, 719.4196
578.7830, 715.8941
579.2651, 720.4776
579.7472, 730.2900
580.2293, 737.0743
580.7114, 740.8386
581.1935, 742.2359
581.6757, 739.7785
582.1578, 735.7247
582.6399, 734.8766
583.1220, 737.8112
583.6041, 740.2129
584.0862, 737.2606
584.5684, 732.5172
585.0505, 730.0935
585.5326, 730.2762
586.0147, 734.1337
586.4968, 746.4241
586.9789, 762.5083
587.4611, 771.9052
587.9432, 764.8602
588.4253, 760.3610
588.9074, 764.7959
589.3895, 777.9659
589.8716, 783.1236
590.3538, 776.8221
590.8359, 769.8679
591.3180, 770.8551
591.8001, 779.7971
592.2822, 784.2238
592.7643, 782.7224
593.2465, 778.9796
593.7286, 776.1027
594.2107, 774.6499
594.6928, 776.9211
595.1749, 786.7807
595.6570, 796.9378
596.1392, 797.1298
596.6213, 790.8906
597.1034, 789.8870
597.5854, 807.6580
598.0676, 825.6448
598.5497, 831.7972
599.0318, 823.8369
599.5139, 818.7236
599.9960, 821.0880
600.4781, 825.7795
600.9603, 829.6246
601.4424, 832.7935
601.9245, 834.5894
602.4066, 834.1425
602.8887, 833.1954
603.3708, 835.2352
603.8530, 840.5539
604.3351, 844.4238
604.8172, 844.6653
605.2993, 843.0923
605.7814, 845.2661
606.2635, 850.3999
606.7457, 852.5961
607.2278, 843.1675
607.7099, 831.2208
608.1920, 828.9629
608.6741, 837.9059
609.1563, 845.9333
609.6384, 845.5097
610.1205, 841.6786
610.6026, 838.8618
611.0847, 838.3600
611.5668, 838.2424
612.0490, 837.3365
612.5311, 836.9680
613.0132, 840.1580
613.4953, 851.4206
613.9774, 856.5159
614.4595, 849.8171
614.9417, 834.4388
615.4238, 825.9645
615.9059, 824.8080
616.3880, 826.5261
616.8701, 829.6957
617.3522, 833.5663
617.8344, 836.9351
618.3165, 839.9199
618.7986, 838.8151
619.2807, 825.1736
619.7628, 807.4203
620.2449, 797.0912
620.7271, 800.7108
621.2092, 804.9653
621.6913, 803.6545
622.1734, 799.2024
622.6555, 795.6763
623.1376, 794.4888
623.6198, 793.5396
624.1019, 792.5797
624.5840, 791.5656
625.0661, 790.4400
625.5482, 789.7447
626.0303, 787.5941
626.5125, 781.1650
626.9946, 770.9284
627.4767, 769.4035
627.9588, 777.7404
628.4409, 786.0557
628.9230, 782.5693
629.4052, 772.0918
629.8873, 766.1961
630.3694, 768.7999
630.8515, 771.3991
631.3336, 763.8375
631.8157, 752.3788
632.2979, 747.0675
632.7800, 757.7251
633.2621, 768.5543
633.7442, 774.4313
634.2263, 775.9271
634.7084, 776.0728
635.1906, 775.1227
635.6727, 772.6742
636.1548, 768.1511
636.6369, 761.4653
637.1190, 755.2361
637.6011, 749.1091
638.0833, 745.1029
638.5654, 746.3784
639.0475, 751.7350
639.5296, 754.6774
640.0117, 754.0820
640.4938, 752.9724
640.9760, 754.4778
641.4581, 757.7553
641.9402, 761.4742
642.4223, 767.2690
642.9044, 770.8327
643.3865, 768.6050
643.8687, 762.4427
644.3508, 756.9985
644.8329, 750.5684
645.3150, 748.1393
645.7971, 752.7761
646.2792, 764.1486
646.7614, 770.6394
647.2435, 770.5423
647.7256, 769.2476
648.2077, 770.7079
648.6898, 774.8656
649.1719, 774.5568
649.6541, 768.9758
650.1362, 762.9609
650.6183, 761.5372
651.1004, 763.5204
651.5825, 766.5364
652.0646, 770.5699
652.5468, 774.1518
653.0289, 776.5535
653.5110, 777.6628
653.9931, 777.2958
654.4752, 773.4996
654.9573, 770.2237
655.4395, 767.6859
655.9216, 766.4275
656.4037, 769.1394
656.8858, 779.0379
657.3679, 787.6765
657.8500, 791.4714
658.3322, 790.6128
658.8143, 790.6105
659.2964, 791.5616
659.7785, 792.7885
660.2606, 792.4860
660.7427, 792.0208
661.2249, 796.9231
661.7070, 808.7590
662.1891, 818.9830
662.6712, 819.3597
663.1533, 813.7484
663.6354, 807.0743
664.1175, 797.9163
664.5996, 791.9782
665.0817, 792.2455
665.5638, 796.8663
666.0460, 802.3387
666.5281, 809.0912
667.0102, 815.7798
667.4923, 822.9755
667.9744, 829.9432
668.4565, 832.5391
668.9387, 830.2604
669.4208, 826.5004
669.9029, 820.6876
670.3850, 814.6715
670.8671, 817.4432
671.3492, 828.9525
671.8314, 839.2925
672.3135, 837.7690
672.7956, 832.1973
673.2777, 831.8727
673.7598, 839.2953
674.2419, 847.5262
674.7241, 855.2860
675.2062, 861.5930
675.6883, 865.5088
676.1704, 863.7937
676.6525, 864.1003
677.1346, 867.6663
677.6168, 872.8423
678.0989, 875.9609
678.5810, 876.2830
679.0631, 879.3604
679.5452, 888.5185
680.0273, 899.9993
680.5095, 903.2513
680.9916, 899.3619
681.4737, 895.0554
681.9558, 893.6296
682.4379, 894.0626
682.9200, 896.5629
683.4022, 900.7939
683.8843, 902.4915
684.3664, 893.2640
684.8485, 885.9562
685.3306, 889.8114
685.8127, 911.7446
686.2949, 925.9407
686.7770, 928.3250
687.2591, 927.6083
687.7412, 931.9726
688.2233, 942.5887
688.7054, 949.1924
689.1876, 950.2208
689.6697, 948.7795
690.1518, 947.9816
690.6339, 948.2327
691.1160, 951.1299
691.5981, 958.2298
692.0803, 966.5754
692.5624, 974.9059
693.0445, 982.4083
693.5266, 987.2165
694.0087, 986.3519
694.4908, 985.0392
694.9730, 982.5324
695.4551, 980.0580
695.9372, 987.8914
696.4193, 1014.803
696.9014, 1036.959
697.3835, 1041.856
697.8657, 1030.459
698.3478, 1028.297
698.8299, 1036.130
699.3120, 1046.961
699.7941, 1055.350
700.2762, 1062.437
700.7584, 1071.193
701.2405, 1082.237
701.7226, 1091.970
702.2047, 1096.172
702.6868, 1098.321
703.1689, 1102.232
703.6511, 1111.430
704.1332, 1117.846
704.6153, 1114.277
705.0974, 1109.719
705.5795, 1116.470
706.0616, 1140.894
706.5438, 1160.232
707.0259, 1169.713
707.5080, 1173.516
707.9901, 1179.890
708.4722, 1188.840
708.9543, 1200.155
709.4365, 1218.878
709.9186, 1235.968
710.4007, 1231.534
710.8828, 1212.119
711.3649, 1203.151
711.8470, 1230.233
712.3292, 1260.619
712.8113, 1274.082
713.2934, 1268.559
713.7755, 1269.914
714.2576, 1283.821
714.7397, 1300.885
715.2219, 1317.816
715.7040, 1334.831
716.1861, 1348.283
716.6682, 1357.778
717.1503, 1365.328
717.6324, 1372.962
718.1146, 1380.285
718.5967, 1384.725
719.0788, 1384.842
719.5609, 1388.486
720.0430, 1406.911
720.5251, 1431.080
721.0073, 1449.795
721.4894, 1455.710
721.9715, 1462.069
722.4536, 1473.396
722.9357, 1486.592
723.4178, 1496.262
723.9000, 1497.974
724.3821, 1506.681
724.8642, 1528.066
725.3463, 1555.266
725.8284, 1569.940
726.3105, 1572.677
726.7927, 1576.029
727.2748, 1584.204
727.7569, 1596.861
728.2390, 1615.022
728.7211, 1637.593
729.2032, 1660.163
729.6853, 1681.608
730.1674, 1701.415
730.6495, 1719.035
731.1317, 1734.439
731.6138, 1748.792
732.0959, 1757.880
732.5780, 1771.413
733.0601, 1795.659
733.5422, 1831.717
734.0244, 1861.439
734.5065, 1884.572
734.9886, 1904.966
735.4707, 1926.601
735.9528, 1948.122
736.4349, 1963.667
736.9171, 1971.501
737.3992, 1984.239
737.8813, 2014.078
738.3634, 2052.688
738.8455, 2090.978
739.3276, 2126.914
739.8098, 2163.211
740.2919, 2198.507
740.7740, 2235.469
741.2561, 2277.345
741.7382, 2324.565
742.2203, 2374.434
742.7025, 2426.700
743.1846, 2480.365
743.6667, 2531.604
744.1488, 2581.673
744.6309, 2638.129
745.1130, 2703.656
745.5952, 2774.354
746.0773, 2843.196
746.5594, 2914.140
747.0415, 2995.113
747.5236, 3091.869
748.0057, 3197.508
748.4879, 3312.926
748.9700, 3436.368
749.4521, 3552.642
749.9342, 3650.979
750.4163, 3764.658
750.8984, 3907.071
751.3806, 4073.703
751.8627, 4249.987
752.3448, 4434.538
752.8269, 4631.485
753.3090, 4848.522
753.7911, 5072.832
754.2733, 5273.619
754.7554, 5454.692
755.2375, 5656.689
755.7196, 5917.167
756.2017, 6192.943
756.6838, 6464.506
757.1660, 6725.987
757.6481, 6979.968
758.1302, 7220.924
758.6123, 7459.055
759.0944, 7703.487
759.5765, 7952.279
760.0587, 8211.001
760.5408, 8483.313
761.0229, 8738.874
761.5050, 8949.841
761.9871, 9128.624
762.4692, 9303.851
762.9514, 9488.284
763.4335, 9635.499
763.9156, 9716.301
764.3977, 9746.394
764.8798, 9742.946
765.3619, 9705.646
765.8441, 9637.489
766.3262, 9539.915
766.8083, 9410.066
767.2904, 9238.047
767.7725, 9023.167
768.2546, 8794.262
768.7368, 8552.509
769.2189, 8319.071
769.7010, 8123.368
770.1831, 7960.541
770.6652, 7819.833
771.1473, 7704.856
771.6295, 7601.029
772.1116, 7493.822
772.5937, 7393.706
773.0758, 7324.216
773.5579, 7291.733
774.0400, 7285.893
774.5222, 7310.695
775.0043, 7358.913
775.4864, 7408.340
775.9685, 7458.385
776.4506, 7521.417
776.9327, 7601.282
777.4149, 7698.434
777.8970, 7821.381
778.3791, 7965.075
778.8612, 8111.065
779.3433, 8226.218
779.8254, 8363.144
780.3076, 8574.410
780.7897, 8847.511
781.2718, 9068.821
781.7539, 9188.772
782.2360, 9317.925
782.7181, 9499.521
783.2003, 9725.975
783.6824, 9917.660
784.1645, 10072.91
784.6466, 10211.07
785.1287, 10334.24
785.6108, 10451.44
786.0930, 10578.01
786.5751, 10715.19
787.0572, 10864.64
787.5393, 11034.02
788.0214, 11210.18
788.5035, 11372.92
788.9857, 11512.54
789.4678, 11725.23
789.9499, 12031.85
790.4320, 12384.67
790.9141, 12755.39
791.3962, 13137.69
791.8784, 13584.18
792.3605, 14089.07
792.8426, 14707.79
793.3247, 15517.69
793.8068, 16462.21
794.2889, 17461.30
794.7711, 18496.44
795.2531, 19659.16
795.7352, 21031.51
796.2173, 22517.83
796.6995, 24062.70
797.1816, 25637.33
797.6637, 27309.03
798.1458, 29078.38
798.6279, 30981.96
799.1100, 33041.70
799.5922, 35251.63
800.0743, 37583.16
800.5564, 40024.83
801.0385, 42571.11
801.5206, 45250.04
802.0027, 48016.42
802.4849, 50826.80
802.9670, 53702.32
803.4491, 56521.50
803.9312, 59394.38
804.4133, 62089.37
804.8954, 64436.36
805.3776, 66481.54
805.8597, 68029.94
806.3418, 69028.45
806.8239, 69601.30
807.3060, 69815.21
807.7881, 69723.59
808.2703, 69574.05
808.7524, 69414.26
809.2345, 69188.62
809.7166, 68733.34
810.1987, 68228.72
810.6808, 67913.38
811.1630, 68076.19
811.6451, 68044.98
812.1272, 67716.07
812.6093, 67145.88
813.0914, 66405.55
813.5735, 65527.88
814.0557, 64313.37
814.5378, 62750.70
815.0199, 60838.50
815.5020, 58551.11
815.9841, 55936.54
816.4662, 53113.50
816.9484, 50045.78
817.4305, 46913.36
817.9126, 43824.00
818.3947, 40803.35
818.8768, 37908.95
819.3589, 35150.37
819.8411, 32569.10
820.3232, 30157.82
820.8053, 27925.99
821.2874, 25923.29
821.7695, 24150.06
822.2516, 22536.88
822.7338, 21067.66
823.2159, 19723.82
823.6980, 18508.86
824.1801, 17406.02
824.6622, 16413.03
825.1443, 15534.63
825.6265, 14736.70
826.1086, 14023.71
826.5907, 13377.94
827.0728, 12780.07
827.5549, 12232.15
828.0370, 11711.92
828.5192, 11215.32
829.0013, 10746.28
829.4834, 10334.32
829.9655, 9968.275
830.4476, 9621.595
830.9297, 9280.374
831.4119, 8961.435
831.8940, 8685.356
832.3761, 8437.810
832.8582, 8200.734
833.3403, 7976.650
833.8224, 7756.708
834.3046, 7534.896
834.7867, 7321.046
835.2688, 7132.349
835.7509, 6969.608
836.2330, 6813.561
836.7151, 6661.220
837.1973, 6512.157
837.6794, 6358.295
838.1615, 6204.341
838.6436, 6059.741
839.1257, 5930.680
839.6078, 5806.188
840.0900, 5676.557
840.5721, 5550.771
841.0542, 5438.904
841.5363, 5347.392
842.0184, 5258.564
842.5005, 5171.597
842.9827, 5085.649
843.4648, 4999.344
843.9469, 4912.814
844.4290, 4827.527
844.9111, 4746.326
845.3932, 4661.700
845.8754, 4560.070
846.3575, 4452.886
846.8396, 4356.140
847.3217, 4275.653
847.8038, 4204.354
848.2859, 4150.083
848.7681, 4098.536
849.2502, 4029.631
849.7323, 3939.716
850.2144, 3861.576
850.6965, 3801.901
851.1786, 3747.088
851.6608, 3675.594
852.1429, 3596.991
852.6250, 3528.783
853.1071, 3479.377
853.5892, 3429.923
854.0714, 3364.723
854.5535, 3298.401
855.0356, 3249.154
855.5177, 3231.961
855.9998, 3198.222
856.4819, 3140.636
856.9641, 3077.147
857.4462, 3031.642
857.9283, 2999.935
858.4104, 2963.481
858.8925, 2918.578
859.3746, 2872.032
859.8568, 2832.262
860.3389, 2792.346
860.8210, 2743.095
861.3030, 2669.430
861.7852, 2619.452
862.2673, 2613.137
862.7494, 2612.485
863.2315, 2580.282
863.7136, 2514.638
864.1957, 2474.026
864.6779, 2464.218
865.1600, 2460.236
865.6421, 2438.376
866.1242, 2406.952
866.6063, 2377.494
867.0884, 2352.047
867.5706, 2328.372
868.0527, 2307.211
868.5348, 2286.755
869.0169, 2266.678
869.4990, 2248.612
869.9811, 2220.130
870.4633, 2177.673
870.9454, 2136.858
871.4275, 2111.684
871.9096, 2097.709
872.3917, 2085.124
872.8738, 2073.397
873.3560, 2061.789
873.8381, 2051.041
874.3202, 2039.243
874.8023, 2026.000
875.2844, 2011.234
875.7665, 1990.320
876.2487, 1958.425
876.7308, 1930.090
877.2129, 1914.921
877.6950, 1910.048
878.1771, 1899.984
878.6592, 1885.036
879.1414, 1867.906
879.6235, 1848.107
880.1056, 1828.646
880.5877, 1810.599
881.0698, 1794.559
881.5519, 1784.580
882.0341, 1790.779
882.5162, 1791.176
882.9983, 1777.389
883.4804, 1753.005
883.9625, 1734.382
884.4446, 1721.506
884.9268, 1711.554
885.4089, 1704.272
885.8910, 1698.239
886.3731, 1692.897
886.8552, 1687.265
887.3373, 1678.606
887.8195, 1661.280
888.3016, 1646.336
888.7837, 1639.890
889.2658, 1636.738
889.7479, 1622.709
890.2300, 1596.330
890.7122, 1572.678
891.1943, 1556.040
891.6764, 1543.299
892.1585, 1532.756
892.6406, 1522.191
893.1227, 1506.194
893.6049, 1474.455
894.0870, 1449.517
894.5691, 1448.220
895.0512, 1455.143
895.5333, 1448.145
896.0154, 1422.639
896.4976, 1397.232
896.9797, 1372.377
897.4618, 1352.405
897.9439, 1348.233
898.4260, 1353.523
898.9081, 1352.129
899.3903, 1339.704
899.8724, 1325.077
900.3545, 1312.969
900.8366, 1301.260
901.3187, 1287.603
901.8008, 1269.690
902.2830, 1255.646
902.7651, 1245.556
903.2472, 1238.858
903.7293, 1239.852
904.2114, 1244.209
904.6935, 1230.227
905.1757, 1196.962
905.6578, 1168.298
906.1399, 1166.447
906.6220, 1172.241
907.1041, 1171.860
907.5862, 1163.463
908.0684, 1153.604
908.5505, 1141.482
909.0326, 1130.006
909.5147, 1121.274
909.9968, 1114.233
910.4789, 1101.391
910.9611, 1083.903
911.4432, 1072.618
911.9253, 1081.465
912.4074, 1092.835
912.8895, 1093.032
913.3716, 1083.702
913.8538, 1073.850
914.3359, 1063.668
914.8180, 1054.894
915.3001, 1048.307
915.7822, 1043.106
916.2643, 1035.905
916.7465, 1027.422
917.2286, 1023.685
917.7107, 1029.742
918.1928, 1036.459
918.6749, 1036.062
919.1570, 1030.391
919.6392, 1022.460
920.1213, 1012.524
920.6034, 1000.393
921.0855, 982.2521
921.5676, 966.1929
922.0497, 966.5174
922.5319, 981.6088
923.0140, 985.6346
923.4961, 973.4894
923.9782, 958.1844
924.4603, 948.9203
924.9424, 944.6975
925.4246, 945.7313
925.9067, 954.9962
926.3888, 958.8206
926.8708, 953.2081
927.3530, 945.0444
927.8351, 937.7109
928.3172, 931.1948
928.7993, 930.7383
929.2814, 936.4141
929.7635, 937.5474
930.2457, 917.8750
930.7278, 895.2842
931.2099, 891.4910
931.6920, 905.2440
932.1741, 913.0733
932.6563, 903.9811
933.1384, 895.3973
933.6205, 892.4631
934.1026, 893.9077
934.5847, 895.2203
935.0668, 896.3477
935.5490, 896.3729
936.0311, 895.3852
936.5132, 892.5295
936.9953, 883.4423
937.4774, 872.3026
937.9595, 867.7609
938.4417, 882.4969
938.9238, 889.7925
939.4059, 884.4923
939.8880, 872.8566
940.3701, 861.3976
940.8522, 850.6696
941.3344, 851.1455
941.8165, 867.2245
942.2986, 881.6620
942.7807, 873.4143
943.2628, 856.7208
943.7449, 847.6060
944.2271, 850.8950
944.7092, 855.6627
945.1913, 863.0576
945.6734, 868.4990
946.1555, 867.8828
946.6376, 861.7181
947.1198, 856.5376
947.6019, 852.3883
948.0840, 851.8743
948.5661, 860.4262
949.0482, 870.6556
949.5303, 876.4543
950.0125, 877.7423
950.4946, 877.6415
950.9767, 875.8246
951.4588, 873.8577
951.9409, 871.4929
952.4230, 869.7350
952.9052, 872.7455
953.3873, 879.7111
953.8694, 885.0045
954.3515, 884.3362
954.8336, 884.5040
955.3157, 892.1506
955.7979, 903.6025
956.2800, 912.7415
956.7621, 914.4237
957.2442, 922.3240
957.7263, 939.8267
958.2084, 958.8383
958.6906, 968.6788
959.1727, 971.6411
959.6548, 977.0746
960.1369, 986.3519
960.6190, 995.6337
961.1011, 1003.051
961.5833, 1008.667
962.0654, 1010.184
962.5475, 1005.810
963.0296, 1014.790
963.5117, 1043.072
963.9938, 1067.945
964.4760, 1075.866
964.9581, 1070.895
965.4402, 1062.004
965.9223, 1050.076
966.4044, 1038.934
966.8865, 1033.839
967.3687, 1026.770
967.8508, 1011.529
968.3329, 991.6013
968.8150, 977.3864
969.2971, 970.4697
969.7792, 962.0027
970.2614, 950.1347
970.7435, 936.0929
971.2256, 919.4275
971.7077, 902.2538
972.1898, 888.6223
972.6719, 880.7819
973.1541, 873.7820
973.6362, 865.7540
974.1183, 857.8613
974.6004, 851.0007
975.0825, 845.2318
975.5646, 839.6824
976.0468, 834.3243
976.5289, 829.4473
977.0110, 825.4799
977.4931, 822.0038
977.9752, 818.9104
978.4573, 816.0105
978.9395, 811.9677
979.4216, 801.7317
979.9037, 796.2960
980.3858, 801.2033
980.8679, 811.7417
981.3500, 812.8856
981.8322, 805.1048
982.3143, 797.5684
982.7964, 793.6808
983.2785, 790.4005
983.7606, 783.6618
984.2427, 776.0444
984.7249, 771.2318
985.2070, 772.5399
985.6891, 773.0859
986.1712, 773.6982
986.6533, 772.0504
987.1354, 762.9107
987.6176, 749.0459
988.0997, 744.4211
988.5818, 749.7969
989.0639, 757.0952
989.5460, 763.9366
990.0281, 768.0776
990.5103, 766.2177
990.9924, 758.7833
991.4745, 755.6168
991.9566, 757.7233
992.4387, 760.9788
992.9208, 765.1879
993.4029, 768.1292
993.8850, 762.1801
994.3671, 751.1968
994.8492, 745.7224
995.3314, 755.3447
995.8135, 763.1653
996.2956, 763.1532
996.7777, 758.5453
997.2598, 752.0212
997.7419, 742.9115
998.2241, 737.0393
998.7062, 735.1852
999.1883, 734.1920
999.6704, 730.2293
1000.153, 725.9290
1000.635, 724.5395
1001.117, 726.3997
1001.599, 729.4991
1002.081, 736.8110
1002.563, 740.5852
1003.045, 736.6005
1003.527, 727.5043
1004.009, 724.8792
1004.492, 727.8400
1004.974, 729.6421
1005.456, 726.7947
1005.938, 722.6718
1006.420, 718.5756
1006.902, 715.2171
1007.384, 713.8826
1007.866, 715.8599
1008.349, 717.3506
1008.831, 718.7405
1009.313, 718.2792
1009.795, 711.8829
1010.277, 702.6084
1010.759, 698.7297
1011.241, 700.9579
1011.723, 702.9576
1012.205, 699.1087
1012.688, 696.6115
1013.170, 701.0076
1013.652, 710.4563
1014.134, 712.9781
1014.616, 708.0450
1015.098, 702.6185
1015.580, 698.7529
1016.062, 696.7020
1016.544, 699.0782
1017.027, 702.9217
1017.509, 703.1487
1017.991, 692.8368
1018.473, 686.8879
1018.955, 687.8060
1019.437, 691.0145
1019.919, 691.2309
1020.401, 689.3094
1020.884, 693.2571
1021.366, 703.3801
1021.848, 708.3481
1022.330, 691.2589
1022.812, 673.9703
1023.294, 675.3691
1023.776, 693.4951
1024.258, 698.6066
1024.740, 687.4835
1025.223, 675.0659
1025.705, 664.7496
1026.187, 657.7198
1026.669, 658.2542
1027.151, 663.2500
1027.633, 665.9177
1028.115, 661.4701
1028.597, 659.9187
1029.079, 665.7713
1029.562, 673.6978
1030.044, 680.8856
1030.526, 687.4288
1031.008, 685.5562
1031.490, 675.0899
1031.972, 665.6406
1032.454, 664.6877
1032.936, 667.2014
1033.419, 670.0591
1033.901, 672.8409
1034.383, 674.2750
1034.865, 674.3046
1035.347, 673.1390
1035.829, 670.8234
1036.311, 667.3843
1036.793, 661.0039
1037.276, 653.7770
1037.758, 651.7539
1038.240, 658.3132
1038.722, 663.4330
1039.204, 660.0213
1039.686, 656.1547
1040.168, 658.8028
1040.650, 668.3281
1041.132, 667.6077
1041.615, 656.4122
1042.097, 646.6259
1042.579, 648.5573
1043.061, 653.1031
1043.543, 649.8911
1044.025, 641.9502
1044.507, 638.6191
1044.989, 642.6629
1045.471, 649.3632
1045.954, 660.0587
1046.436, 669.5764
1046.918, 670.0827
1047.400, 663.6324
1047.882, 654.4447
1048.364, 642.6900
1048.846, 634.3301
1049.328, 634.5109
1049.811, 637.2236
1050.293, 639.7516
1050.775, 641.8143
1051.257, 640.3684
1051.739, 635.3225
1052.221, 630.9993
1052.703, 630.1030
1053.185, 629.7412
1053.667, 624.9026
1054.150, 619.0114
1054.632, 617.9146
1055.114, 628.9170
1055.596, 634.4185
1056.078, 633.0339
1056.560, 628.5961
1057.042, 623.0078
1057.524, 617.6030
1058.006, 616.8680
1058.489, 620.6259
1058.971, 624.4419
1059.453, 627.1385
1059.935, 628.1813
1060.417, 627.1989
1060.899, 624.5433
1061.381, 619.8761
1061.863, 613.2775
1062.346, 611.4951
1062.828, 617.8022
1063.310, 624.1696
1063.792, 619.8544
1064.274, 612.6682
1064.756, 612.1600
1065.238, 623.5464
1065.720, 628.1475
1066.203, 624.6136
1066.685, 618.2592
1067.167, 609.8829
1067.649, 602.1962
1068.131, 603.0681
1068.613, 610.5090
1069.095, 617.6626
1069.577, 623.6514
1070.059, 626.3338
1070.542, 623.8538
1071.024, 619.2538
1071.506, 615.8049
1071.988, 613.5562
1072.470, 613.4976
1072.952, 615.8534
1073.434, 617.7206
1073.916, 615.1586
1074.398, 612.5444
1074.881, 613.9879
1075.363, 619.3041
1075.845, 622.5662
1076.327, 623.7328
1076.809, 622.9323
1077.291, 619.9842
1077.773, 615.5493
1078.255, 607.3671
1078.738, 599.4778
1079.220, 599.6204
1079.702, 615.0978
1080.184, 624.8719
1080.666, 624.3133
1081.148, 621.2884
1081.630, 621.1829
1082.112, 623.1581
1082.594, 622.4247
1083.077, 619.3612
1083.559, 616.3267
1084.041, 613.8594
1084.523, 612.6142
1085.005, 613.1182
1085.487, 615.0076
1085.969, 618.5899
1086.451, 624.4543
1086.933, 625.0095
1087.416, 618.5995
1087.898, 613.1892
1088.380, 618.3188
1088.862, 626.5978
1089.344, 631.0845
1089.826, 631.1317
1090.308, 629.3486
1090.790, 623.9536
1091.272, 622.4108
1091.755, 628.5630
1092.237, 637.1797
1092.719, 638.6066
1093.201, 635.2804
1093.683, 632.3737
1094.165, 631.6590
1094.647, 630.1593
1095.129, 625.8864
1095.612, 622.1324
1096.094, 621.0433
1096.576, 622.3499
1097.058, 624.4056
1097.540, 626.9821
1098.022, 628.4163
1098.504, 626.7050
1098.986, 624.7565
1099.469, 623.1973
1099.951, 622.8032
1100.433, 625.5228
1100.915, 632.4315
1101.397, 634.1542
1101.879, 629.3793
1102.361, 623.7076
1102.843, 619.8945
1103.325, 619.2798
1103.807, 624.7787
1104.290, 635.8755
1104.772, 644.7047
1105.254, 652.2831
1105.736, 653.1457
1106.218, 643.5246
1106.700, 631.5925
1107.182, 631.9890
1107.664, 639.1501
1108.147, 642.0094
1108.629, 636.7526
1109.111, 633.8987
1109.593, 638.4636
1110.075, 642.8704
1110.557, 642.4470
1111.039, 639.1937
1111.521, 644.3604
1112.004, 655.5397
1112.486, 660.9304
1112.968, 648.3849
1113.450, 638.5309
1113.932, 645.4688
1114.414, 656.9199
1114.896, 659.3900
1115.378, 651.9901
1115.860, 645.2773
1116.343, 639.3867
1116.825, 636.8835
1117.307, 640.2383
1117.789, 647.1205
1118.271, 658.6537
1118.753, 672.2296
1119.235, 678.6572
1119.717, 675.4627
1120.199, 673.4155
1120.682, 674.2911
1121.164, 676.1085
1121.646, 677.6680
1122.128, 678.1522
1122.610, 676.2240
1123.092, 671.6761
1123.574, 666.3444
1124.056, 659.1291
1124.539, 653.9344
1125.021, 652.2708
1125.503, 652.9559
1125.985, 654.1486
1126.467, 655.6108
1126.949, 657.0834
1127.431, 659.3915
1127.913, 658.8987
1128.396, 649.5142
1128.878, 642.5460
1129.360, 645.5570
1129.842, 656.8390
1130.324, 668.2643
1130.806, 678.6903
1131.288, 681.3546
1131.770, 666.2254
1132.252, 650.2248
1132.734, 637.1918
1133.217, 630.0659
1133.699, 634.2390
1134.181, 650.9750
1134.663, 660.4426
1135.145, 661.8032
1135.627, 661.2138
1136.109, 661.2980
1136.591, 663.0403
1137.074, 669.7410
1137.556, 678.6945
1138.038, 680.4122
1138.520, 672.9128
1139.002, 666.7971
1139.484, 663.7199
1139.966, 662.4571
1140.448, 663.1331
1140.931, 664.0492
1141.413, 662.2240
1141.895, 657.4117
1142.377, 657.2346
1142.859, 665.0068
1143.341, 669.1328
1143.823, 664.7846
1144.305, 657.6497
1144.787, 657.0896
1145.270, 660.7458
1145.752, 664.2093
1146.234, 665.7774
1146.716, 670.3043
1147.198, 681.1320
1147.680, 690.0411
1148.162, 691.8153
1148.644, 689.2141
1149.126, 691.8212
1149.609, 697.4559
1150.091, 699.0786
1150.573, 689.1089
1151.055, 682.9371
1151.537, 688.2114
1152.019, 694.6089
1152.501, 692.0546
1152.983, 682.2515
1153.466, 682.8221
1153.948, 692.3642
1154.430, 698.9471
1154.912, 691.7111
1155.394, 684.8279
1155.876, 685.8240
1156.358, 690.0955
1156.840, 692.3777
1157.322, 692.6608
1157.805, 688.9814
1158.287, 681.1285
1158.769, 675.2576
1159.251, 678.6274
1159.733, 683.0350
1160.215, 681.0588
1160.697, 675.6797
1161.179, 677.4930
1161.661, 687.2406
1162.144, 693.0781
1162.626, 692.3099
1163.108, 690.3555
1163.590, 693.4279
1164.072, 696.9988
1164.554, 696.8113
1165.036, 692.6198
1165.518, 685.8611
1166.000, 675.4039
1166.483, 669.1149
1166.965, 669.9769
1167.447, 674.6438
1167.929, 682.1120
1168.411, 689.3154
1168.893, 692.9111
1169.375, 692.3713
1169.857, 685.3226
1170.340, 668.9944
1170.822, 656.7105
1171.304, 656.4398
1171.786, 662.5488
1172.268, 668.5802
1172.750, 673.9807
1173.232, 677.7551
1173.714, 679.6203
1174.197, 679.0066
1174.679, 674.4874
1175.161, 671.3448
1175.643, 674.9885
1176.125, 681.9504
1176.607, 685.4041
1177.089, 686.2214
1177.571, 686.9385
1178.053, 687.9615
1178.536, 689.7778
1179.018, 693.0507
1179.500, 695.8030
1179.982, 695.3619
1180.464, 693.1395
1180.946, 692.7594
1181.428, 693.9822
1181.910, 694.2751
1182.392, 690.6682
1182.875, 689.1459
1183.357, 692.2487
1183.839, 695.5507
1184.321, 690.0510
1184.803, 680.1182
1185.285, 680.8865
1185.767, 693.3156
1186.249, 700.5214
1186.732, 687.8109
1187.214, 677.6954
1187.696, 676.7084
1188.178, 682.2986
1188.660, 692.6753
1189.142, 705.2058
1189.624, 709.9777
1190.106, 704.5206
1190.589, 698.4456
1191.071, 692.9893
1191.553, 692.1100
1192.035, 700.0843
1192.517, 711.9854
1192.999, 709.3801
1193.481, 696.4743
1193.963, 692.0388
1194.445, 703.6247
1194.927, 714.0786
1195.410, 715.2238
1195.892, 712.1909
1196.374, 705.1727
1196.856, 696.8329
1197.338, 706.1252
1197.820, 728.2233
1198.302, 738.1733
1198.784, 719.7695
1199.267, 702.0934
1199.749, 699.2867
1200.231, 703.0732
1200.713, 709.0980
1201.195, 716.8176
1201.677, 720.7284
1202.159, 720.9270
1202.641, 717.6628
1203.124, 705.9020
1203.606, 697.7131
1204.088, 701.6144
1204.570, 709.5675
1205.052, 714.7658
1205.534, 717.2723
1206.016, 716.9060
1206.498, 714.1677
1206.980, 713.8466
1207.463, 723.3773
1207.945, 730.5936
1208.427, 727.9997
1208.909, 720.9544
1209.391, 713.9563
1209.873, 707.2139
1210.355, 705.2310
1210.837, 707.9894
1211.319, 711.4847
1211.802, 714.2277
1212.284, 715.8267
1212.766, 714.3488
1213.248, 712.6713
1213.730, 715.5276
1214.212, 722.6158
1214.694, 730.5358
1215.176, 738.9508
1215.659, 741.0305
1216.141, 723.8627
1216.623, 708.5084
1217.105, 706.6956
1217.587, 713.3518
1218.069, 720.8024
1218.551, 728.5668
1219.033, 731.2545
1219.516, 727.9213
1219.998, 722.7981
1220.480, 713.5652
1220.962, 709.1057
1221.444, 717.5291
1221.926, 732.0692
1222.408, 734.1728
1222.890, 725.5649
1223.372, 721.6764
1223.854, 725.8337
1224.337, 730.3948
1224.819, 732.3202
1225.301, 731.0818
1225.783, 724.5350
1226.265, 715.7656
1226.747, 717.0027
1227.229, 726.1343
1227.711, 730.2440
1228.193, 725.0643
1228.676, 720.3969
1229.158, 722.5888
1229.640, 725.9973
1230.122, 727.0974
1230.604, 727.0077
1231.086, 731.0480
1231.568, 738.1245
1232.050, 743.7913
1232.533, 748.4738
1233.015, 745.6473
1233.497, 720.4547
1233.979, 699.3389
1234.461, 698.7762
1234.943, 712.8341
1235.425, 718.5623
1235.907, 717.2258
1236.390, 713.3818
1236.872, 706.6794
1237.354, 702.4049
1237.836, 703.5341
1238.318, 706.7028
1238.800, 710.6478
1239.282, 715.0640
1239.764, 719.9899
1240.246, 724.3574
1240.729, 724.2658
1241.211, 714.2779
1241.693, 708.0327
1242.175, 709.2624
1242.657, 714.2026
1243.139, 722.0232
1243.621, 731.2465
1244.103, 738.2133
1244.585, 742.0542
1245.068, 739.9674
1245.550, 725.5310
1246.032, 714.5594
1246.514, 709.5479
1246.996, 707.0257
1247.478, 704.8478
1247.960, 703.1025
1248.442, 701.4785
1248.925, 700.4904
1249.407, 701.6025
1249.889, 709.7180
1250.371, 712.0161
1250.853, 704.8552
1251.335, 699.3980
1251.817, 708.5948
1252.299, 723.4129
1252.781, 727.0638
1253.264, 721.9337
1253.746, 714.7030
1254.228, 701.7078
1254.710, 698.2664
1255.192, 707.7729
1255.674, 716.1957
1256.156, 706.4851
1256.638, 692.2125
1257.120, 695.4459
1257.603, 709.4622
1258.085, 713.8247
1258.567, 700.6333
1259.049, 694.3990
1259.531, 697.3236
1260.013, 701.4891
1260.495, 699.9329
1260.977, 696.6218
1261.460, 695.1027
1261.942, 695.2895
1262.424, 696.7091
1262.906, 699.6603
1263.388, 701.6002
1263.870, 702.2691
1264.352, 703.2970
1264.834, 709.8717
1265.317, 713.6338
1265.799, 703.9375
1266.281, 687.4546
1266.763, 678.7935
1267.245, 678.1533
1267.727, 683.5206
1268.209, 694.7156
1268.691, 703.0934
1269.173, 701.3260
1269.656, 695.9674
1270.138, 687.8463
1270.620, 680.3931
1271.102, 680.5697
1271.584, 687.4642
1272.066, 687.3682
1272.548, 679.6545
1273.030, 674.3663
1273.512, 681.4665
1273.995, 687.5696
1274.477, 687.1743
1274.959, 683.5487
1275.441, 680.1638
1275.923, 677.5871
1276.405, 679.5442
1276.887, 685.7916
1277.369, 690.1216
1277.852, 689.6910
1278.334, 686.5845
1278.816, 679.8384
1279.298, 673.3270
1279.780, 673.5807
1280.262, 677.5210
1280.744, 678.0562
1281.226, 675.0861
1281.708, 671.9930
1282.191, 668.3893
1282.673, 667.6509
1283.155, 671.3162
1283.637, 674.9685
1284.119, 672.4769
1284.601, 667.2708
1285.083, 664.0083
1285.565, 662.6838
1286.047, 660.3736
1286.530, 655.0901
1287.012, 655.8947
1287.494, 665.2688
1287.976, 673.8657
1288.458, 671.5090
1288.940, 664.6132
1289.422, 657.1367
1289.904, 650.6504
1290.386, 649.8298
1290.869, 655.4913
1291.351, 658.8046
1291.833, 658.5928
1292.315, 656.4681
1292.797, 652.9717
1293.279, 648.7191
1293.761, 642.7566
1294.243, 636.9135
1294.726, 634.8383
1295.208, 636.3301
1295.690, 640.0359
1296.172, 645.7014
1296.654, 649.0418
1297.136, 643.1686
1297.618, 640.2039
1298.100, 646.2708
1298.583, 654.9814
1299.065, 655.4274
1299.547, 650.2017
1300.029, 646.6934
1300.511, 645.5203
1300.993, 645.3911
1301.475, 646.6680
1301.957, 647.8688
1302.439, 648.9571
1302.922, 649.4480
1303.404, 648.6456
1303.886, 646.8958
1304.368, 643.9815
1304.850, 640.3597
1305.332, 639.2742
1305.814, 642.5618
1306.296, 642.9009
1306.778, 638.7373
1307.261, 634.6686
1307.743, 637.2576
1308.225, 640.3591
1308.707, 635.1273
1309.189, 625.4936
1309.671, 626.6285
1310.153, 639.8384
1310.635, 648.2590
1311.118, 649.9808
1311.600, 649.5623
1312.082, 648.6050
1312.564, 648.4683
1313.046, 651.2598
##END=



