##NAMES=Mimetite
##RRUFFID=R050527
##IDEAL CHEMISTRY=Pb^2+^_5_(As^5+^O_4_)_3_Cl
##LOCALITY=Tsumeb mine, Tsumeb, Otavi District, Oshikoto, Namibia
##OWNER=RRUFF
##SOURCE=University of Arizona Mineral Museum
##DESCRIPTION=Yellow hexagonal prisms, monoclinic polytype
##STATUS=The identification of this mineral has been confirmed by X-ray diffraction and chemical analysis
##URL=rruff.info/R050527
##MEASURED CHEMISTRY=Pb_5.00_(As_1.00_O_4_)_3_Cl_1.00_
92.37695, 1689.197
92.85907, 1674.014
93.34119, 1677.702
93.82330, 1685.894
94.30542, 1689.511
94.78754, 1688.759
95.26965, 1686.701
95.75177, 1683.832
96.23389, 1682.040
96.71600, 1679.679
97.19812, 1676.975
97.68024, 1674.810
98.16235, 1671.280
98.64447, 1664.165
99.12659, 1654.275
99.60870, 1635.202
100.0908, 1610.416
100.5729, 1581.970
101.0551, 1550.551
101.5372, 1515.909
102.0193, 1478.410
102.5014, 1441.665
102.9835, 1404.850
103.4656, 1368.675
103.9478, 1332.956
104.4299, 1297.626
104.9120, 1262.912
105.3941, 1229.009
105.8762, 1195.546
106.3583, 1163.289
106.8405, 1130.961
107.3226, 1100.066
107.8047, 1071.702
108.2868, 1045.913
108.7689, 1021.423
109.2510, 996.9039
109.7332, 972.2014
110.2153, 949.3211
110.6974, 929.2831
111.1795, 911.0375
111.6616, 892.7994
112.1437, 874.1497
112.6259, 855.9627
113.1080, 838.9221
113.5901, 823.0357
114.0722, 808.2191
114.5543, 794.8810
115.0364, 782.9073
115.5185, 771.1915
116.0007, 758.9876
116.4828, 747.4085
116.9649, 737.1847
117.4470, 728.4556
117.9291, 720.4545
118.4112, 711.9096
118.8934, 701.9836
119.3755, 693.7515
119.8576, 688.3107
120.3397, 683.9286
120.8218, 679.2518
121.3039, 673.7311
121.7861, 667.7750
122.2682, 662.5212
122.7503, 658.3922
123.2324, 654.6468
123.7145, 651.2350
124.1966, 648.1688
124.6788, 645.5588
125.1609, 643.4805
125.6430, 641.8590
126.1251, 640.0472
126.6072, 637.5449
127.0893, 635.3674
127.5715, 633.9374
128.0536, 633.2126
128.5357, 632.9462
129.0178, 633.0988
129.4999, 633.6102
129.9821, 633.9799
130.4642, 634.1278
130.9463, 634.1642
131.4284, 634.2372
131.9105, 634.3868
132.3926, 634.4160
132.8748, 633.9227
133.3569, 633.1943
133.8390, 632.7958
134.3211, 632.8182
134.8032, 633.3333
135.2853, 634.6871
135.7674, 637.4639
136.2496, 640.3441
136.7317, 642.3297
137.2138, 643.8122
137.6959, 645.7731
138.1780, 649.2906
138.6601, 654.5932
139.1423, 659.0491
139.6244, 661.9396
140.1065, 664.5521
140.5886, 667.2354
141.0707, 670.0723
141.5528, 673.0728
142.0350, 676.2467
142.5171, 679.6263
142.9992, 683.1437
143.4813, 687.0404
143.9634, 690.8680
144.4455, 694.0774
144.9277, 696.6072
145.4098, 699.2326
145.8919, 703.2781
146.3740, 709.8401
146.8561, 715.8793
147.3382, 721.0335
147.8204, 725.7011
148.3025, 730.3619
148.7846, 735.1885
149.2667, 740.0778
149.7488, 744.8424
150.2309, 749.4464
150.7131, 754.1414
151.1952, 759.2067
151.6773, 764.4837
152.1594, 769.2831
152.6415, 772.9899
153.1236, 776.4901
153.6058, 781.1905
154.0879, 787.3899
154.5700, 793.8104
155.0521, 799.3173
155.5342, 803.8450
156.0163, 808.4905
156.4985, 813.8186
156.9806, 819.3188
157.4627, 824.5858
157.9448, 829.5123
158.4269, 834.2191
158.9090, 838.7165
159.3912, 842.5170
159.8733, 847.3829
160.3554, 854.7350
160.8375, 862.7238
161.3196, 869.7518
161.8017, 875.0717
162.2839, 879.1752
162.7660, 883.4182
163.2481, 887.4290
163.7302, 892.1962
164.2123, 898.8549
164.6944, 906.0451
165.1766, 912.0134
165.6587, 915.7552
166.1408, 917.6020
166.6229, 919.8040
167.1050, 922.3018
167.5871, 925.2228
168.0693, 929.8494
168.5514, 934.9417
169.0335, 938.1240
169.5156, 937.7161
169.9977, 933.8909
170.4798, 930.0587
170.9620, 926.0208
171.4441, 922.1644
171.9262, 919.0880
172.4083, 916.5383
172.8904, 913.3790
173.3725, 908.7916
173.8547, 902.7260
174.3368, 896.1644
174.8189, 888.9420
175.3010, 881.3044
175.7831, 873.5013
176.2652, 865.5302
176.7474, 857.1996
177.2295, 848.3904
177.7116, 839.0774
178.1937, 829.4083
178.6758, 819.2119
179.1579, 808.7187
179.6401, 798.2791
180.1222, 788.1263
180.6043, 777.4293
181.0864, 765.4885
181.5685, 752.7244
182.0506, 739.8308
182.5328, 727.1047
183.0149, 714.4969
183.4970, 701.7726
183.9791, 689.1661
184.4612, 676.0844
184.9433, 661.9635
185.4255, 647.3295
185.9076, 632.9749
186.3897, 619.4724
186.8718, 606.7502
187.3539, 594.3577
187.8360, 582.6448
188.3182, 570.8639
188.8003, 558.5814
189.2824, 546.0612
189.7645, 533.8007
190.2466, 522.2538
190.7287, 511.3902
191.2109, 500.9047
191.6930, 490.6618
192.1751, 480.8419
192.6572, 471.6648
193.1393, 463.0375
193.6214, 454.6419
194.1036, 446.2506
194.5857, 437.7805
195.0678, 429.7575
195.5499, 422.2945
196.0320, 415.0468
196.5141, 407.8077
196.9963, 400.6207
197.4784, 393.6529
197.9605, 387.1107
198.4426, 381.0586
198.9247, 375.1441
199.4068, 369.2959
199.8890, 363.6226
200.3711, 358.2291
200.8532, 353.1018
201.3353, 348.1330
201.8174, 343.2093
202.2995, 338.3335
202.7817, 333.5350
203.2638, 328.8238
203.7459, 324.1812
204.2280, 319.4927
204.7101, 314.7115
205.1922, 310.2141
205.6744, 306.4948
206.1565, 303.3926
206.6386, 300.2147
207.1207, 296.7041
207.6028, 293.0919
208.0849, 289.7417
208.5671, 286.7296
209.0492, 283.7340
209.5313, 280.3954
210.0134, 276.8660
210.4955, 273.4818
210.9776, 270.2920
211.4598, 267.3294
211.9419, 264.7441
212.4240, 262.7939
212.9061, 260.6988
213.3882, 257.7491
213.8703, 254.3495
214.3525, 251.2601
214.8346, 249.1297
215.3167, 247.6086
215.7988, 245.3873
216.2809, 241.9248
216.7630, 238.5687
217.2451, 235.8906
217.7273, 233.6984
218.2094, 231.6523
218.6915, 229.5715
219.1736, 227.4651
219.6557, 225.4098
220.1378, 223.4284
220.6200, 221.4876
221.1021, 219.4803
221.5842, 217.5173
222.0663, 215.8113
222.5484, 214.5903
223.0305, 213.7585
223.5127, 212.3729
223.9948, 209.6471
224.4769, 207.1810
224.9590, 205.4377
225.4411, 204.1682
225.9232, 202.9148
226.4054, 201.3507
226.8875, 199.5278
227.3696, 197.9443
227.8517, 196.8382
228.3338, 195.7441
228.8159, 194.5455
229.2981, 193.2930
229.7802, 192.0890
230.2623, 190.9879
230.7444, 189.9920
231.2265, 189.1583
231.7086, 188.9724
232.1908, 188.4138
232.6729, 186.9463
233.1550, 184.9202
233.6371, 182.9715
234.1192, 181.4582
234.6013, 180.3741
235.0835, 179.7361
235.5656, 180.0110
236.0477, 180.1262
236.5298, 179.5813
237.0119, 178.6315
237.4940, 177.8559
237.9762, 177.5981
238.4583, 177.7425
238.9404, 177.7399
239.4225, 177.7317
239.9046, 177.4660
240.3867, 176.6496
240.8689, 175.4905
241.3510, 174.4998
241.8331, 173.9299
242.3152, 173.7037
242.7973, 173.5920
243.2794, 173.8014
243.7616, 173.7937
244.2437, 173.1487
244.7258, 172.0699
245.2079, 171.1664
245.6900, 170.6962
246.1721, 170.5502
246.6543, 170.5369
247.1364, 170.8001
247.6185, 170.8218
248.1006, 170.2246
248.5827, 169.1447
249.0648, 167.9952
249.5470, 166.7159
250.0291, 165.6867
250.5112, 165.5516
250.9933, 166.4695
251.4754, 167.2237
251.9576, 166.9630
252.4397, 165.9115
252.9218, 165.0376
253.4039, 164.5687
253.8860, 164.4120
254.3681, 164.5144
254.8503, 164.8758
255.3324, 165.1348
255.8145, 164.9944
256.2966, 164.5330
256.7787, 164.1302
257.2608, 163.7833
257.7430, 163.6192
258.2251, 163.8154
258.7072, 164.3126
259.1893, 164.7121
259.6714, 164.6552
260.1535, 164.2428
260.6357, 164.0514
261.1178, 164.2639
261.5999, 164.5407
262.0820, 164.5712
262.5641, 164.4594
263.0462, 164.5267
263.5284, 165.1531
264.0105, 166.2036
264.4926, 166.8582
264.9747, 166.8744
265.4568, 166.8123
265.9389, 166.8303
266.4211, 166.9802
266.9032, 167.3825
267.3853, 168.2418
267.8674, 169.4007
268.3495, 170.1450
268.8316, 170.1754
269.3138, 170.2276
269.7959, 170.4444
270.2780, 170.8780
270.7601, 171.6396
271.2422, 172.8545
271.7243, 174.3687
272.2065, 175.6234
272.6886, 176.3525
273.1707, 177.2678
273.6528, 178.6670
274.1349, 180.2911
274.6170, 181.7957
275.0992, 183.0120
275.5813, 184.1242
276.0634, 185.5885
276.5455, 187.5625
277.0276, 189.6281
277.5097, 191.5439
277.9919, 193.5733
278.4740, 195.9956
278.9561, 198.9199
279.4382, 202.1435
279.9203, 205.2386
280.4024, 207.7643
280.8846, 211.1381
281.3667, 215.9957
281.8488, 221.2756
282.3309, 226.0810
282.8130, 230.2321
283.2951, 234.3152
283.7773, 239.2246
284.2594, 245.2645
284.7415, 251.4160
285.2236, 257.4861
285.7057, 263.7696
286.1878, 270.3994
286.6700, 277.3972
287.1521, 284.8065
287.6342, 292.7598
288.1163, 301.3030
288.5984, 310.0382
289.0805, 318.3863
289.5627, 327.3663
290.0448, 337.5270
290.5269, 348.8137
291.0090, 360.7921
291.4911, 373.1454
291.9732, 385.8764
292.4554, 398.6201
292.9375, 410.8424
293.4196, 423.6407
293.9017, 437.4024
294.3838, 452.0432
294.8659, 467.3866
295.3481, 483.3524
295.8302, 499.9318
296.3123, 516.1315
296.7944, 531.2972
297.2765, 546.8273
297.7586, 563.0032
298.2408, 579.6934
298.7229, 596.6514
299.2050, 613.7050
299.6871, 630.7292
300.1692, 647.1248
300.6513, 661.8936
301.1335, 677.1322
301.6156, 693.4218
302.0977, 709.9703
302.5798, 726.1198
303.0619, 741.5409
303.5440, 756.1882
304.0262, 770.1671
304.5083, 783.0458
304.9904, 795.6739
305.4725, 807.7897
305.9546, 819.8185
306.4367, 832.2164
306.9189, 845.0328
307.4010, 858.0131
307.8831, 870.9034
308.3652, 884.1570
308.8473, 895.9346
309.3294, 906.2474
309.8116, 915.4310
310.2937, 923.8336
310.7758, 931.3754
311.2579, 937.6120
311.7400, 942.1879
312.2221, 945.3011
312.7043, 945.2484
313.1864, 942.2657
313.6685, 936.4677
314.1506, 926.9261
314.6327, 914.4992
315.1148, 901.0035
315.5970, 887.8054
316.0791, 874.8087
316.5612, 860.6531
317.0433, 844.1965
317.5254, 827.7513
318.0075, 811.1061
318.4897, 794.9592
318.9718, 780.1367
319.4539, 767.0457
319.9360, 755.7414
320.4181, 746.3107
320.9002, 740.0456
321.3824, 734.3673
321.8645, 728.4280
322.3466, 723.3418
322.8287, 720.3428
323.3108, 719.8190
323.7929, 720.9553
324.2751, 722.3598
324.7572, 723.6985
325.2393, 726.0772
325.7214, 729.6145
326.2035, 733.9464
326.6856, 738.9333
327.1678, 744.5033
327.6499, 750.6162
328.1320, 757.3622
328.6141, 765.0204
329.0962, 771.9617
329.5783, 777.6114
330.0605, 783.2018
330.5426, 789.7103
331.0247, 796.6709
331.5068, 802.7476
331.9889, 806.8815
332.4710, 809.1819
332.9532, 811.4171
333.4353, 814.5865
333.9174, 816.5798
334.3995, 816.9160
334.8816, 815.8294
335.3637, 813.5485
335.8459, 810.1875
336.3280, 805.9568
336.8101, 801.6269
337.2922, 797.9556
337.7743, 792.9000
338.2564, 786.4975
338.7386, 778.6702
339.2206, 769.2634
339.7028, 758.2423
340.1849, 745.9852
340.6670, 732.9282
341.1491, 718.8294
341.6312, 704.5824
342.1133, 690.2257
342.5955, 675.7879
343.0776, 661.3545
343.5597, 646.8753
344.0418, 632.1969
344.5239, 617.2412
345.0060, 602.0353
345.4882, 586.0752
345.9703, 567.4739
346.4524, 549.9523
346.9345, 535.0506
347.4166, 521.9139
347.8987, 508.8459
348.3809, 494.8154
348.8630, 480.2011
349.3451, 466.8956
349.8272, 455.5630
350.3093, 444.3933
350.7914, 432.6613
351.2736, 421.0504
351.7557, 410.4105
352.2378, 400.9931
352.7199, 392.2840
353.2020, 383.3386
353.6841, 373.6989
354.1663, 365.2626
354.6484, 359.0746
355.1305, 353.4573
355.6126, 347.3391
356.0947, 340.7326
356.5768, 334.5529
357.0590, 329.8922
357.5411, 326.8489
358.0232, 323.4464
358.5053, 319.1529
358.9874, 315.1105
359.4695, 311.7532
359.9517, 309.0020
360.4338, 306.6873
360.9159, 304.7698
361.3980, 303.1815
361.8801, 301.6392
362.3622, 299.9843
362.8444, 298.7663
363.3265, 298.2570
363.8086, 298.2027
364.2907, 298.3557
364.7728, 298.6329
365.2549, 299.1515
365.7371, 300.1220
366.2192, 301.5898
366.7013, 303.1254
367.1834, 304.7309
367.6655, 306.2905
368.1476, 307.7560
368.6298, 309.1214
369.1119, 310.3123
369.5940, 311.3706
370.0761, 312.2384
370.5582, 312.6099
371.0403, 312.4149
371.5225, 311.7773
372.0046, 310.9189
372.4867, 309.7386
372.9688, 307.8913
373.4509, 304.8463
373.9330, 301.3177
374.4152, 298.4001
374.8973, 296.1711
375.3794, 293.9708
375.8615, 291.2669
376.3436, 288.5231
376.8257, 286.4544
377.3079, 285.2871
377.7900, 284.3830
378.2721, 283.1622
378.7542, 281.7729
379.2363, 280.8659
379.7184, 280.6381
380.2006, 280.9390
380.6827, 281.6406
381.1648, 282.7163
381.6469, 283.9573
382.1290, 285.2005
382.6111, 286.6176
383.0933, 288.4582
383.5754, 290.7648
384.0575, 293.3685
384.5396, 296.2037
385.0217, 299.2690
385.5038, 302.4932
385.9860, 306.0122
386.4681, 309.5501
386.9502, 312.9128
387.4323, 316.1367
387.9144, 319.4938
388.3965, 323.2134
388.8787, 326.9550
389.3608, 329.7189
389.8429, 331.1978
390.3250, 332.6049
390.8071, 334.1134
391.2892, 335.7121
391.7714, 337.4707
392.2535, 339.3863
392.7356, 341.1979
393.2177, 342.5142
393.6998, 343.1300
394.1819, 344.3448
394.6641, 346.5491
395.1462, 348.9487
395.6283, 350.9453
396.1104, 352.7211
396.5925, 354.8575
397.0746, 357.7518
397.5568, 361.3079
398.0389, 365.1263
398.5210, 369.2833
399.0031, 373.5906
399.4852, 378.0389
399.9673, 382.6324
400.4495, 387.4052
400.9316, 392.3561
401.4137, 397.5032
401.8958, 402.9597
402.3779, 409.1030
402.8600, 414.4842
403.3422, 418.7686
403.8243, 422.7344
404.3064, 426.9111
404.7885, 431.1472
405.2706, 434.9275
405.7527, 437.8646
406.2349, 439.9889
406.7170, 441.4472
407.1991, 442.7277
407.6812, 442.4625
408.1633, 440.1090
408.6454, 436.3267
409.1276, 431.8675
409.6097, 427.0165
410.0918, 421.4118
410.5739, 414.3750
411.0560, 405.7709
411.5381, 396.6009
412.0203, 386.6305
412.5024, 376.4498
412.9845, 366.2328
413.4666, 356.1087
413.9487, 346.3745
414.4308, 337.2866
414.9130, 328.7943
415.3951, 320.5959
415.8772, 312.4235
416.3593, 305.2228
416.8414, 300.1182
417.3235, 296.1158
417.8057, 291.9493
418.2878, 287.2298
418.7699, 282.4260
419.2520, 277.8003
419.7341, 273.3880
420.2162, 269.5880
420.6984, 266.7404
421.1805, 264.3073
421.6626, 261.7598
422.1447, 259.1031
422.6268, 256.0145
423.1089, 251.9338
423.5911, 247.5520
424.0732, 243.9189
424.5553, 241.1677
425.0374, 238.4240
425.5195, 235.0823
426.0016, 231.1658
426.4838, 227.1042
426.9659, 222.6314
427.4480, 218.3012
427.9301, 214.4225
428.4122, 210.8730
428.8943, 207.4291
429.3765, 203.9963
429.8586, 200.6123
430.3407, 197.3316
430.8228, 194.0994
431.3049, 191.1324
431.7870, 188.4615
432.2692, 186.0499
432.7513, 184.0128
433.2334, 182.2654
433.7155, 180.4558
434.1976, 178.2957
434.6797, 175.8190
435.1619, 173.4624
435.6440, 171.2684
436.1261, 169.1418
436.6082, 167.0322
437.0903, 164.9987
437.5724, 163.1538
438.0546, 161.5292
438.5367, 159.9421
439.0188, 158.0761
439.5009, 155.8099
439.9830, 153.6575
440.4651, 151.7198
440.9473, 149.8022
441.4294, 147.8180
441.9115, 145.7813
442.3936, 143.7613
442.8757, 141.8276
443.3578, 139.9371
443.8400, 137.9948
444.3221, 135.9598
444.8042, 133.9568
445.2863, 131.8906
445.7684, 129.9440
446.2505, 128.4465
446.7327, 127.5039
447.2148, 126.4656
447.6969, 124.5796
448.1790, 122.0365
448.6611, 119.9266
449.1432, 118.5861
449.6254, 117.3804
450.1075, 115.7139
450.5896, 113.7279
451.0717, 111.8264
451.5538, 110.1010
452.0359, 108.5209
452.5181, 107.1011
453.0002, 105.8231
453.4823, 104.5959
453.9644, 103.4008
454.4465, 102.2051
454.9286, 100.9218
455.4108, 99.53974
455.8929, 98.14634
456.3750, 96.76438
456.8571, 95.38099
457.3392, 93.88963
457.8214, 92.31193
458.3035, 90.91970
458.7856, 89.98610
459.2677, 89.51663
459.7498, 88.87718
460.2319, 87.84901
460.7141, 86.92953
461.1962, 86.43448
461.6783, 86.07699
462.1604, 85.38820
462.6425, 84.20125
463.1246, 82.85017
463.6068, 81.92947
464.0889, 81.66369
464.5710, 81.25024
465.0531, 80.59889
465.5352, 79.89564
466.0173, 79.18768
466.4995, 78.49819
466.9816, 77.85326
467.4637, 77.26656
467.9458, 76.73945
468.4279, 76.28651
468.9100, 75.94347
469.3922, 75.57778
469.8743, 75.17809
470.3564, 74.71985
470.8385, 74.11213
471.3206, 73.34871
471.8027, 72.69852
472.2849, 72.50695
472.7670, 72.61974
473.2491, 72.42771
473.7312, 71.80901
474.2133, 71.07716
474.6954, 70.34999
475.1776, 69.68133
475.6597, 69.23344
476.1418, 69.16230
476.6239, 69.16087
477.1060, 69.00777
477.5881, 68.75227
478.0703, 68.56303
478.5524, 68.52078
479.0345, 68.47461
479.5166, 68.19073
479.9987, 67.60783
480.4808, 67.05901
480.9630, 66.54974
481.4451, 66.09113
481.9272, 65.70702
482.4093, 65.38490
482.8914, 65.08372
483.3735, 64.77517
483.8557, 64.47517
484.3378, 64.24020
484.8199, 64.14098
485.3020, 64.00790
485.7841, 63.81460
486.2662, 63.59943
486.7484, 63.41499
487.2305, 63.25036
487.7126, 63.02794
488.1947, 62.65670
488.6768, 62.14849
489.1589, 61.69700
489.6411, 61.30529
490.1232, 60.96856
490.6053, 60.64706
491.0874, 60.38615
491.5695, 60.25907
492.0516, 60.29294
492.5338, 60.37489
493.0159, 60.45189
493.4980, 60.50482
493.9801, 60.31147
494.4622, 59.70409
494.9443, 59.10478
495.4265, 58.91485
495.9086, 59.01418
496.3907, 59.09399
496.8728, 59.12539
497.3549, 59.07023
497.8370, 58.88080
498.3192, 58.57478
498.8013, 58.19112
499.2834, 57.71850
499.7655, 57.25016
500.2476, 56.93520
500.7297, 56.79454
501.2119, 56.74029
501.6940, 56.87919
502.1761, 57.01131
502.6582, 56.97196
503.1403, 56.79413
503.6224, 56.62628
504.1045, 56.56586
504.5866, 56.56670
505.0688, 56.45869
505.5509, 56.15027
506.0330, 55.87272
506.5151, 55.69097
506.9972, 55.50358
507.4793, 55.19584
507.9615, 54.78937
508.4436, 54.43189
508.9257, 54.26421
509.4078, 54.25216
509.8899, 54.18352
510.3720, 54.01011
510.8542, 53.88545
511.3363, 54.02031
511.8184, 54.15242
512.3005, 53.94663
512.7827, 53.30994
513.2648, 52.71046
513.7469, 52.55493
514.2290, 52.71049
514.7111, 52.78423
515.1932, 52.71529
515.6754, 52.62674
516.1575, 52.65060
516.6396, 52.73440
517.1217, 52.64857
517.6038, 52.19184
518.0859, 51.78951
518.5681, 51.67000
519.0502, 51.72303
519.5323, 51.80365
520.0144, 51.86776
520.4965, 51.83270
520.9786, 51.56928
521.4608, 51.00808
521.9429, 50.64517
522.4250, 50.53671
522.9071, 50.52670
523.3892, 50.67914
523.8713, 50.85986
524.3535, 50.85463
524.8356, 50.57821
525.3177, 50.18135
525.7998, 49.90350
526.2819, 49.75515
526.7640, 49.67483
527.2462, 49.69253
527.7283, 49.74760
528.2104, 49.88591
528.6925, 50.03452
529.1746, 50.01802
529.6567, 49.68911
530.1389, 49.27860
530.6210, 49.11286
531.1031, 49.17829
531.5852, 49.23823
532.0673, 49.23125
532.5494, 49.18464
533.0316, 49.11117
533.5137, 49.01316
533.9958, 48.95784
534.4779, 49.02198
534.9600, 49.08156
535.4421, 48.98069
535.9243, 48.78107
536.4064, 48.71544
536.8885, 48.90818
537.3706, 49.22834
537.8527, 49.39860
538.3348, 49.35186
538.8170, 49.27937
539.2991, 49.09785
539.7812, 48.96717
540.2633, 49.03613
540.7454, 49.23702
541.2275, 49.37746
541.7097, 49.33397
542.1918, 49.17648
542.6739, 49.08150
543.1560, 49.05463
543.6381, 49.07213
544.1202, 49.17365
544.6024, 49.28394
545.0845, 49.39229
545.5666, 49.47889
546.0487, 49.46216
546.5308, 49.18217
547.0129, 48.83337
547.4951, 48.77298
547.9772, 48.99208
548.4593, 49.14119
548.9414, 49.03340
549.4235, 48.82774
549.9056, 48.83976
550.3878, 49.11017
550.8699, 49.30260
551.3520, 49.33532
551.8341, 49.28023
552.3162, 49.11568
552.7983, 48.90349
553.2805, 48.84780
553.7626, 49.08437
554.2447, 49.48747
554.7268, 49.69014
555.2089, 49.58373
555.6910, 49.45992
556.1732, 49.28036
556.6553, 49.12775
557.1374, 49.10448
557.6195, 49.15905
558.1016, 49.12830
558.5837, 48.89395
559.0659, 48.53133
559.5480, 48.18541
560.0301, 47.83800
560.5122, 47.62745
560.9943, 47.64455
561.4764, 47.77321
561.9586, 47.92225
562.4407, 48.08598
562.9228, 48.19789
563.4049, 48.24101
563.8870, 48.21558
564.3691, 48.07537
564.8513, 47.84945
565.3334, 47.69590
565.8155, 47.70104
566.2976, 47.77092
566.7797, 47.71599
567.2618, 47.41723
567.7440, 47.27863
568.2261, 47.42275
568.7082, 47.61358
569.1903, 47.75572
569.6724, 47.82959
570.1545, 47.82185
570.6367, 47.72216
571.1188, 47.56462
571.6009, 47.40794
572.0830, 47.23020
572.5651, 47.13367
573.0472, 47.19102
573.5294, 47.27358
574.0115, 47.30313
574.4936, 47.30064
574.9757, 47.34211
575.4578, 47.53298
575.9399, 47.67961
576.4221, 47.44526
576.9042, 46.92067
577.3863, 46.68151
577.8684, 46.97792
578.3505, 47.34582
578.8326, 47.17943
579.3148, 46.42469
579.7969, 45.99327
580.2790, 46.09005
580.7611, 46.32685
581.2432, 46.66439
581.7253, 46.97373
582.2075, 47.01490
582.6896, 46.71785
583.1717, 46.32151
583.6538, 46.16439
584.1359, 46.28577
584.6180, 46.36367
585.1002, 46.32644
585.5823, 46.33284
586.0643, 46.53954
586.5464, 46.77462
587.0286, 46.75675
587.5107, 46.38507
587.9928, 46.02711
588.4749, 46.14470
588.9570, 46.58492
589.4391, 46.70122
589.9213, 46.36027
590.4034, 46.00186
590.8855, 45.94126
591.3676, 46.09802
591.8497, 46.14050
592.3318, 45.92487
592.8140, 45.83987
593.2961, 46.21344
593.7782, 46.66456
594.2603, 46.65801
594.7424, 46.20947
595.2245, 45.84253
595.7067, 46.00652
596.1888, 46.58302
596.6709, 46.88911
597.1530, 46.79559
597.6351, 46.64742
598.1172, 46.47265
598.5994, 46.28144
599.0815, 46.02563
599.5636, 45.74273
600.0457, 45.58979
600.5278, 45.73722
601.0099, 46.03291
601.4921, 46.18625
601.9742, 46.19555
602.4563, 46.16569
602.9384, 46.10066
603.4205, 46.05632
603.9026, 46.13179
604.3848, 46.32890
604.8669, 46.50715
605.3490, 46.74365
605.8311, 46.86657
606.3132, 46.68786
606.7953, 46.32043
607.2775, 45.99483
607.7596, 45.80377
608.2417, 45.71589
608.7238, 45.69749
609.2059, 45.76657
609.6880, 45.81627
610.1702, 45.84706
610.6523, 45.85623
611.1344, 45.87442
611.6165, 45.85887
612.0986, 45.71142
612.5807, 45.38968
613.0629, 45.11590
613.5450, 45.20270
614.0271, 45.50652
614.5092, 45.50193
614.9913, 45.09052
615.4734, 44.71907
615.9556, 44.69677
616.4377, 44.92390
616.9198, 45.05205
617.4019, 45.09924
617.8840, 45.03137
618.3661, 44.75863
618.8483, 44.42721
619.3304, 44.16630
619.8125, 43.97742
620.2946, 43.78048
620.7767, 43.51171
621.2589, 43.24024
621.7410, 43.20843
622.2231, 43.54523
622.7052, 43.73924
623.1873, 43.63914
623.6694, 43.45068
624.1516, 43.21155
624.6337, 42.97500
625.1158, 42.88858
625.5979, 43.10593
626.0800, 43.35616
626.5621, 43.32776
627.0443, 43.09706
627.5264, 42.92859
628.0085, 42.88771
628.4906, 42.90930
628.9727, 42.96624
629.4548, 43.05831
629.9370, 42.92057
630.4191, 42.22934
630.9012, 41.75206
631.3833, 41.81771
631.8654, 42.08275
632.3475, 42.19753
632.8297, 42.10823
633.3118, 41.96309
633.7939, 41.87917
634.2760, 41.84761
634.7581, 41.84463
635.2402, 41.88537
635.7224, 41.89911
636.2045, 41.89856
636.6866, 41.82722
637.1687, 41.54044
637.6508, 41.06225
638.1329, 40.82823
638.6151, 41.15539
639.0972, 41.62311
639.5793, 41.95147
640.0614, 42.13210
640.5435, 42.15268
641.0256, 42.00791
641.5078, 41.77996
641.9899, 41.57515
642.4720, 41.39621
642.9541, 41.21726
643.4362, 41.00829
643.9183, 40.83590
644.4005, 40.71136
644.8826, 40.63367
645.3647, 40.59668
645.8468, 40.60052
646.3289, 40.66138
646.8110, 40.85566
647.2932, 41.10449
647.7753, 41.18715
648.2574, 41.09222
648.7395, 40.99694
649.2216, 40.99015
649.7037, 41.01127
650.1859, 40.91648
650.6680, 40.62972
651.1501, 40.57263
651.6322, 41.08535
652.1143, 41.53515
652.5964, 41.42304
653.0786, 41.01001
653.5607, 40.83235
654.0428, 41.08470
654.5249, 41.47948
655.0070, 41.62400
655.4891, 41.50896
655.9713, 41.37505
656.4534, 41.14254
656.9355, 41.04580
657.4176, 41.36749
657.8997, 41.81017
658.3818, 41.98716
658.8640, 41.81646
659.3461, 41.71584
659.8282, 42.00624
660.3103, 42.37519
660.7924, 42.43932
661.2745, 42.23761
661.7567, 42.03499
662.2388, 41.95835
662.7209, 41.96369
663.2030, 41.95770
663.6851, 41.89100
664.1672, 41.97572
664.6494, 42.39934
665.1315, 42.77363
665.6136, 42.98045
666.0957, 43.05471
666.5778, 43.02702
667.0599, 42.90154
667.5421, 42.78368
668.0242, 42.73925
668.5063, 42.77503
668.9884, 42.97141
669.4705, 43.33562
669.9526, 43.54388
670.4348, 43.35346
670.9169, 42.99511
671.3990, 42.98227
671.8811, 43.48568
672.3632, 43.92747
672.8453, 44.44770
673.3275, 44.75497
673.8096, 44.50736
674.2917, 43.98186
674.7738, 43.65571
675.2559, 43.71486
675.7380, 43.95971
676.2202, 44.18785
676.7023, 44.39394
677.1844, 44.49139
677.6665, 44.41943
678.1486, 44.44667
678.6307, 44.80654
679.1129, 45.29622
679.5950, 45.49180
680.0771, 45.29346
680.5592, 45.25692
681.0413, 45.73606
681.5234, 46.23534
682.0056, 46.36168
682.4877, 46.19413
682.9698, 45.91528
683.4519, 45.60926
683.9340, 45.44039
684.4161, 45.74835
684.8983, 46.60189
685.3804, 47.08303
685.8625, 47.00769
686.3446, 46.87798
686.8267, 46.83561
687.3088, 46.89220
687.7910, 47.09998
688.2731, 47.47792
688.7552, 47.83492
689.2373, 48.10289
689.7194, 48.29818
690.2015, 48.39211
690.6837, 48.42215
691.1658, 48.48899
691.6479, 48.63337
692.1300, 48.87136
692.6121, 49.25349
693.0942, 49.81426
693.5764, 50.25875
694.0585, 50.56665
694.5406, 50.77515
695.0227, 50.83974
695.5048, 50.84893
695.9869, 50.87394
696.4691, 50.93002
696.9512, 51.05900
697.4333, 51.24254
697.9154, 51.53936
698.3975, 52.17517
698.8796, 53.04380
699.3618, 53.55748
699.8439, 53.46522
700.3260, 53.23574
700.8081, 53.51394
701.2902, 54.37591
701.7723, 55.02334
702.2545, 55.31777
702.7366, 55.55602
703.2187, 55.74779
703.7008, 55.93499
704.1829, 56.13693
704.6650, 56.36576
705.1472, 56.66758
705.6293, 57.10674
706.1114, 57.60949
706.5935, 58.07838
707.0756, 58.50788
707.5577, 58.85119
708.0399, 59.08156
708.5220, 59.29069
709.0041, 59.58614
709.4862, 59.96826
709.9683, 60.27821
710.4504, 60.29006
710.9326, 60.53210
711.4147, 61.36542
711.8968, 62.26455
712.3789, 62.70150
712.8610, 62.73269
713.3431, 62.81305
713.8253, 63.22376
714.3074, 63.82287
714.7895, 64.47108
715.2716, 65.13732
715.7537, 65.55962
716.2358, 65.61997
716.7180, 65.74081
717.2001, 66.31811
717.6822, 67.26476
718.1643, 68.01674
718.6464, 68.32107
719.1285, 68.79678
719.6107, 69.77596
720.0928, 70.71291
720.5749, 71.13801
721.0570, 71.18130
721.5391, 71.25418
722.0212, 71.54308
722.5034, 72.01807
722.9855, 72.67638
723.4676, 73.49992
723.9497, 74.38357
724.4318, 75.33862
724.9139, 76.21983
725.3961, 76.91844
725.8782, 77.49056
726.3603, 78.06351
726.8424, 78.59795
727.3245, 79.23021
727.8066, 80.13729
728.2888, 80.97974
728.7709, 81.41812
729.2530, 81.69669
729.7351, 82.24827
730.2172, 83.21912
730.6993, 84.40125
731.1815, 85.17005
731.6636, 86.00838
732.1457, 87.65075
732.6278, 89.08332
733.1099, 90.31738
733.5920, 90.75816
734.0742, 92.22356
734.5563, 93.27808
735.0384, 94.31592
735.5205, 95.92519
736.0026, 96.39819
736.4847, 97.82566
736.9669, 99.41525
737.4490, 101.1372
737.9311, 103.0718
738.4132, 105.1729
738.8953, 107.1712
739.3774, 108.7540
739.8596, 110.2023
740.3417, 112.1012
740.8238, 114.4392
741.3059, 117.0086
741.7880, 119.7737
742.2701, 122.6706
742.7523, 125.6408
743.2344, 128.6944
743.7165, 131.8294
744.1986, 134.6189
744.6807, 138.0506
745.1628, 142.2563
745.6450, 147.1373
746.1271, 153.0550
746.6092, 159.5504
747.0913, 165.4893
747.5734, 170.1681
748.0555, 174.5543
748.5377, 179.5009
749.0198, 185.0952
749.5019, 191.7800
749.9840, 199.6783
750.4661, 207.6763
750.9482, 215.1229
751.4304, 222.2677
751.9125, 229.7825
752.3946, 237.5179
752.8767, 245.9630
753.3588, 255.9178
753.8409, 265.6870
754.3231, 274.1969
754.8052, 282.2609
755.2873, 290.9704
755.7694, 300.5951
756.2515, 310.8338
756.7336, 321.7289
757.2158, 332.9763
757.6979, 343.9017
758.1800, 354.6081
758.6621, 365.7226
759.1442, 377.5147
759.6263, 389.4801
760.1085, 401.1745
760.5906, 412.5578
761.0727, 423.4530
761.5548, 434.1309
762.0369, 443.8968
762.5190, 453.3298
763.0012, 461.3126
763.4833, 467.2002
763.9654, 470.9258
764.4475, 472.5367
764.9296, 471.7165
765.4117, 469.3829
765.8939, 466.3930
766.3760, 462.3700
766.8581, 455.9823
767.3402, 447.3962
767.8223, 439.1740
768.3044, 432.9776
768.7866, 427.9658
769.2687, 422.1057
769.7508, 415.0188
770.2329, 408.3485
770.7150, 401.7249
771.1971, 396.0798
771.6793, 391.7162
772.1614, 388.5857
772.6435, 386.8346
773.1256, 386.5592
773.6077, 386.8437
774.0898, 387.2016
774.5720, 388.1114
775.0541, 389.8851
775.5362, 392.5270
776.0183, 395.9977
776.5004, 400.2888
776.9825, 405.5340
777.4647, 412.0455
777.9468, 419.5593
778.4289, 426.5249
778.9110, 432.7493
779.3931, 439.7578
779.8752, 448.2368
780.3574, 457.0674
780.8395, 465.0204
781.3216, 472.4145
781.8037, 480.5235
782.2858, 490.2567
782.7679, 499.5271
783.2501, 507.7484
783.7322, 515.3752
784.2143, 522.4279
784.6964, 529.2314
785.1785, 536.4910
785.6606, 544.5743
786.1428, 552.9538
786.6249, 560.7899
787.1070, 568.3553
787.5891, 576.3791
788.0712, 584.7783
788.5533, 595.4267
789.0355, 609.0565
789.5176, 625.4952
789.9997, 644.2155
790.4818, 664.9670
790.9639, 689.8723
791.4460, 720.6882
791.9282, 753.2723
792.4103, 786.0880
792.8924, 820.7607
793.3745, 859.3278
793.8566, 901.6183
794.3387, 946.2120
794.8209, 991.9193
795.3030, 1040.329
795.7851, 1092.610
796.2672, 1149.143
796.7493, 1210.186
797.2314, 1276.023
797.7136, 1347.201
798.1957, 1424.292
798.6778, 1506.936
799.1599, 1593.273
799.6420, 1682.919
800.1241, 1778.463
800.6063, 1881.301
801.0884, 1988.370
801.5705, 2099.053
802.0526, 2212.144
802.5347, 2325.422
803.0168, 2438.898
803.4990, 2553.884
803.9811, 2674.924
804.4632, 2792.719
804.9453, 2904.752
805.4274, 3007.518
805.9095, 3098.270
806.3917, 3175.339
806.8738, 3236.583
807.3559, 3278.714
807.8380, 3305.995
808.3201, 3325.899
808.8022, 3338.771
809.2844, 3350.247
809.7665, 3362.000
810.2486, 3369.262
810.7307, 3369.094
811.2128, 3361.773
811.6949, 3348.506
812.1771, 3333.999
812.6592, 3303.091
813.1413, 3256.000
813.6234, 3192.826
814.1055, 3113.179
814.5876, 3017.912
815.0698, 2907.026
815.5519, 2781.178
816.0340, 2645.724
816.5161, 2501.652
816.9982, 2352.185
817.4803, 2198.493
817.9625, 2043.564
818.4446, 1893.708
818.9267, 1750.316
819.4088, 1616.620
819.8909, 1495.952
820.3730, 1387.000
820.8552, 1286.365
821.3373, 1193.730
821.8194, 1108.685
822.3015, 1031.320
822.7836, 960.7039
823.2657, 897.1884
823.7479, 840.0264
824.2300, 789.1331
824.7121, 745.3385
825.1942, 704.7815
825.6763, 666.7374
826.1584, 631.9816
826.6406, 601.6119
827.1227, 574.5536
827.6048, 549.3655
828.0869, 525.6981
828.5690, 503.6260
829.0511, 483.4447
829.5333, 464.8281
830.0154, 447.1622
830.4975, 430.5347
830.9796, 415.5746
831.4617, 402.4269
831.9438, 390.0529
832.4260, 377.6527
832.9081, 365.5228
833.3902, 354.4457
833.8723, 344.6929
834.3544, 335.2600
834.8365, 326.1301
835.3187, 317.4052
835.8008, 308.9878
836.2829, 301.0611
836.7650, 293.9180
837.2471, 287.6118
837.7292, 281.3563
838.2114, 274.5450
838.6935, 268.0458
839.1756, 262.5948
839.6577, 257.6945
840.1398, 252.5649
840.6219, 247.1694
841.1041, 242.1802
841.5862, 238.1207
842.0683, 234.4208
842.5504, 230.0600
843.0325, 225.1482
843.5146, 220.3393
843.9968, 215.7170
844.4789, 211.3844
844.9610, 207.4267
845.4431, 203.7952
845.9252, 200.4597
846.4073, 197.5093
846.8895, 194.3639
847.3716, 190.7408
847.8537, 187.3103
848.3358, 184.3938
848.8179, 181.5602
849.3000, 178.3350
849.7822, 174.7977
850.2643, 171.4954
850.7464, 168.7290
851.2285, 166.0014
851.7106, 162.8874
852.1927, 159.7519
852.6749, 156.9965
853.1570, 154.6014
853.6391, 152.4250
854.1212, 150.4087
854.6033, 148.4051
855.0854, 145.5664
855.5676, 143.4956
856.0497, 141.8889
856.5318, 140.0031
857.0139, 137.8535
857.4960, 134.6501
857.9781, 132.8075
858.4603, 130.4189
858.9424, 128.0088
859.4245, 126.3577
859.9066, 122.5454
860.3887, 120.7431
860.8708, 119.2674
861.3530, 117.6958
861.8351, 115.5985
862.3172, 113.3140
862.7993, 111.4857
863.2814, 110.2656
863.7635, 109.1876
864.2457, 108.1278
864.7278, 107.0540
865.2099, 106.0225
865.6920, 104.9299
866.1741, 103.5396
866.6563, 101.8578
867.1384, 100.2636
867.6205, 99.07664
868.1026, 98.09768
868.5847, 96.86712
869.0668, 95.46935
869.5490, 94.54247
870.0311, 94.20032
870.5132, 93.71550
870.9953, 92.63266
871.4774, 91.19717
871.9595, 89.89266
872.4417, 88.72983
872.9238, 87.61967
873.4059, 86.46860
873.8880, 85.51108
874.3701, 85.00185
874.8522, 84.57785
875.3344, 83.92733
875.8165, 83.07961
876.2986, 82.25553
876.7807, 81.56332
877.2628, 80.80724
877.7449, 79.88184
878.2271, 78.89788
878.7092, 77.86401
879.1913, 76.87899
879.6734, 76.17458
880.1555, 75.82627
880.6376, 75.50298
881.1198, 74.86991
881.6019, 74.07421
882.0840, 73.34504
882.5661, 72.69564
883.0482, 72.20798
883.5303, 71.89623
884.0125, 71.54397
884.4946, 70.95644
884.9767, 70.21298
885.4588, 69.58950
885.9409, 69.12168
886.4230, 68.57848
886.9052, 67.96886
887.3873, 67.20430
887.8694, 66.06324
888.3515, 64.86480
888.8336, 64.16159
889.3157, 64.02335
889.7979, 63.84676
890.2800, 63.68898
890.7621, 63.39440
891.2442, 62.91522
891.7263, 62.28773
892.2084, 61.46137
892.6906, 60.51629
893.1727, 59.67838
893.6548, 59.03460
894.1369, 58.46956
894.6190, 57.93831
895.1011, 57.41912
895.5833, 56.90254
896.0654, 56.37947
896.5475, 55.83867
897.0296, 55.27677
897.5117, 54.66969
897.9938, 53.95258
898.4760, 53.22328
898.9581, 52.82847
899.4402, 52.72713
899.9223, 52.35949
900.4044, 51.60278
900.8865, 50.86196
901.3687, 50.37149
901.8508, 50.10889
902.3329, 50.07998
902.8150, 50.41377
903.2971, 50.31112
903.7792, 49.46019
904.2614, 48.70912
904.7435, 48.32695
905.2256, 48.13372
905.7077, 47.94382
906.1898, 47.78908
906.6719, 47.86517
907.1541, 48.44599
907.6362, 48.85925
908.1183, 48.99014
908.6004, 48.84797
909.0825, 48.16349
909.5646, 47.31283
910.0468, 46.96352
910.5289, 47.26791
911.0110, 47.64548
911.4931, 47.67515
911.9752, 47.60434
912.4573, 47.72235
912.9395, 47.93892
913.4216, 48.04784
913.9037, 48.03671
914.3858, 48.04552
914.8679, 48.15641
915.3500, 48.35114
915.8321, 48.63825
916.3142, 48.99477
916.7963, 49.25856
917.2784, 49.42537
917.7606, 49.48105
918.2427, 49.41829
918.7248, 49.24902
919.2069, 48.97451
919.6890, 48.60624
920.1711, 48.23906
920.6533, 47.97654
921.1354, 47.45505
921.6175, 46.47120
922.0996, 45.45688
922.5817, 44.73517
923.0638, 44.07263
923.5460, 43.04667
924.0281, 41.57872
924.5102, 40.38128
924.9923, 39.73782
925.4744, 39.13677
925.9565, 38.31968
926.4387, 37.52353
926.9208, 37.01376
927.4029, 36.72396
927.8850, 36.40136
928.3671, 35.93356
928.8492, 35.52711
929.3314, 35.39953
929.8135, 35.34735
930.2956, 35.12358
930.7777, 34.79390
931.2598, 34.51036
931.7419, 34.31622
932.2241, 34.21197
932.7062, 34.21428
933.1883, 34.26465
933.6704, 34.27315
934.1525, 34.23725
934.6346, 34.13916
935.1168, 33.97846
935.5989, 33.75971
936.0810, 33.47330
936.5631, 33.23148
937.0452, 33.21141
937.5273, 33.39361
938.0095, 33.43501
938.4916, 33.28295
938.9737, 33.21317
939.4558, 33.30994
939.9379, 33.42938
940.4200, 33.47108
940.9022, 33.46535
941.3843, 33.49556
941.8664, 33.59863
942.3485, 33.62333
942.8306, 33.45171
943.3127, 33.35623
943.7949, 33.50458
944.2770, 33.68317
944.7591, 33.66876
945.2412, 33.50661
945.7233, 33.42558
946.2054, 33.50398
946.6876, 33.60564
947.1697, 33.72401
947.6518, 33.80637
948.1339, 33.80028
948.6160, 33.73708
949.0981, 33.65385
949.5803, 33.56635
950.0624, 33.49564
950.5445, 33.39786
951.0266, 33.40702
951.5087, 33.79190
951.9908, 34.30951
952.4730, 34.55709
952.9551, 34.53147
953.4372, 34.38176
953.9193, 34.17680
954.4014, 33.99165
954.8835, 33.95933
955.3657, 33.98894
955.8478, 33.76876
956.3299, 33.34182
956.8120, 33.03608
957.2941, 32.91661
957.7762, 32.80738
958.2584, 32.58660
958.7405, 32.33376
959.2226, 32.23537
959.7047, 32.31017
960.1868, 32.20109
960.6689, 31.84671
961.1511, 31.56086
961.6332, 31.46090
962.1153, 31.39365
962.5974, 31.21564
963.0795, 30.95825
963.5616, 30.75885
964.0438, 30.64083
964.5259, 30.52996
965.0080, 30.43535
965.4901, 30.33652
965.9722, 30.26490
966.4543, 30.15924
966.9365, 29.90959
967.4186, 29.54044
967.9007, 29.29248
968.3828, 29.28241
968.8649, 29.27036
969.3470, 29.19457
969.8292, 29.11210
970.3113, 29.05653
970.7934, 29.02049
971.2755, 28.98157
971.7576, 28.93876
972.2397, 28.93178
972.7219, 29.04971
973.2040, 29.12774
973.6861, 29.03779
974.1682, 28.86673
974.6503, 28.66165
975.1324, 28.47383
975.6146, 28.40407
976.0967, 28.48596
976.5788, 28.62242
977.0609, 28.81760
977.5430, 28.95128
978.0251, 28.76405
978.5073, 28.40505
978.9894, 28.24228
979.4715, 28.30036
979.9536, 28.35010
980.4357, 28.26593
980.9178, 28.11887
981.4000, 27.97702
981.8821, 27.85886
982.3642, 27.86689
982.8463, 27.98429
983.3284, 28.04132
983.8105, 27.99549
984.2927, 27.98615
984.7748, 28.13881
985.2569, 28.31979
985.7390, 28.15998
986.2211, 27.63001
986.7032, 27.40086
987.1854, 27.53691
987.6675, 27.65705
988.1496, 27.64314
988.6317, 27.57490
989.1138, 27.52371
989.5959, 27.48251
990.0781, 27.42324
990.5602, 27.35189
991.0423, 27.23440
991.5244, 26.99281
992.0065, 26.85881
992.4886, 27.04288
992.9708, 27.24688
993.4529, 27.07394
993.9350, 26.57064
994.4171, 26.29270
994.8992, 26.39143
995.3813, 26.47985
995.8635, 26.58345
996.3456, 26.63256
996.8277, 26.50142
997.3098, 26.35668
997.7919, 26.45080
998.2740, 26.77516
998.7562, 26.98267
999.2383, 27.04172
999.7204, 26.92657
1000.203, 26.37275
1000.685, 25.89949
1001.167, 25.97733
1001.649, 26.32843
1002.131, 26.48383
1002.613, 26.37079
1003.095, 26.23899
1003.577, 26.17567
1004.059, 26.14907
1004.542, 25.94786
1005.024, 25.93219
1005.506, 26.86347
1005.988, 28.17308
1006.470, 28.50704
1006.952, 27.53156
1007.434, 26.41795
1007.916, 25.85858
1008.398, 25.63043
1008.881, 25.68052
1009.363, 25.83225
1009.845, 25.83488
1010.327, 25.68653
1010.809, 25.46732
1011.291, 25.21548
1011.773, 25.01828
1012.255, 25.01266
1012.738, 25.06851
1013.220, 24.95541
1013.702, 24.74613
1014.184, 24.60723
1014.666, 24.55945
1015.148, 24.56002
1015.630, 24.58834
1016.112, 24.65524
1016.594, 24.83866
1017.077, 25.03824
1017.559, 24.89445
1018.041, 24.50043
1018.523, 24.35708
1019.005, 24.52894
1019.487, 24.68636
1019.969, 24.64545
1020.451, 24.47373
1020.934, 24.24334
1021.416, 23.97323
1021.898, 23.76174
1022.380, 23.60901
1022.862, 23.52826
1023.344, 23.52256
1023.826, 23.59146
1024.308, 23.75112
1024.791, 23.91450
1025.273, 23.89639
1025.755, 23.70611
1026.237, 23.74164
1026.719, 24.06265
1027.201, 24.09339
1027.683, 23.63834
1028.165, 23.21058
1028.647, 23.17568
1029.130, 23.34841
1029.612, 23.34280
1030.094, 23.14246
1030.576, 22.95546
1031.058, 22.73281
1031.540, 22.72510
1032.022, 23.12358
1032.504, 23.42360
1032.986, 23.20202
1033.469, 22.71356
1033.951, 22.55449
1034.433, 22.80784
1034.915, 22.87586
1035.397, 22.67103
1035.879, 22.45883
1036.361, 22.19715
1036.843, 22.09557
1037.326, 22.46202
1037.808, 23.00930
1038.290, 23.01073
1038.772, 22.26377
1039.254, 21.88703
1039.736, 22.17951
1040.218, 22.36827
1040.700, 22.18913
1041.182, 21.98573
1041.665, 21.99748
1042.147, 22.15695
1042.629, 22.32056
1043.111, 22.50403
1043.593, 22.62451
1044.075, 22.63660
1044.557, 22.64511
1045.039, 22.70856
1045.521, 22.73866
1046.004, 22.66151
1046.486, 22.51053
1046.968, 22.34192
1047.450, 22.14142
1047.932, 22.03163
1048.414, 22.10035
1048.896, 22.15850
1049.378, 22.11726
1049.861, 22.08670
1050.343, 22.23999
1050.825, 22.43206
1051.307, 22.30497
1051.789, 21.75826
1052.271, 21.45429
1052.753, 21.73328
1053.235, 21.98651
1053.718, 22.03140
1054.200, 21.97391
1054.682, 21.84074
1055.164, 21.68601
1055.646, 21.59063
1056.128, 21.56710
1056.610, 21.59734
1057.092, 21.73714
1057.574, 21.84824
1058.057, 21.82374
1058.539, 21.80851
1059.021, 21.94589
1059.503, 22.16076
1059.985, 22.30117
1060.467, 22.34384
1060.949, 22.40266
1061.431, 22.59422
1061.913, 22.70284
1062.396, 22.57104
1062.878, 22.39679
1063.360, 22.31635
1063.842, 22.31139
1064.324, 22.34768
1064.806, 22.41376
1065.288, 22.45579
1065.770, 22.42023
1066.253, 22.40265
1066.735, 22.47747
1067.217, 22.55058
1067.699, 22.48050
1068.181, 22.39351
1068.663, 22.55887
1069.145, 22.96985
1069.627, 23.21644
1070.109, 23.05154
1070.592, 22.85473
1071.074, 22.71915
1071.556, 22.69441
1072.038, 22.95646
1072.520, 23.27643
1073.002, 23.26591
1073.484, 22.93969
1073.966, 22.73586
1074.448, 22.85404
1074.931, 23.02792
1075.413, 23.18928
1075.895, 23.30011
1076.377, 23.26915
1076.859, 23.20983
1077.341, 23.30722
1077.823, 23.53550
1078.305, 23.67290
1078.788, 23.60923
1079.270, 23.56131
1079.752, 23.64455
1080.234, 23.76330
1080.716, 23.88795
1081.198, 23.98709
1081.680, 24.03418
1082.162, 24.02595
1082.644, 23.93761
1083.127, 23.71748
1083.609, 23.64403
1084.091, 24.00359
1084.573, 24.35931
1085.055, 24.36444
1085.537, 24.29051
1086.019, 24.51584
1086.501, 24.91062
1086.984, 25.00683
1087.466, 24.64416
1087.948, 24.44304
1088.430, 24.88859
1088.912, 25.28223
1089.394, 25.15292
1089.876, 24.89991
1090.358, 24.89477
1090.840, 25.06558
1091.323, 25.19871
1091.805, 25.25027
1092.287, 25.31332
1092.769, 25.36982
1093.251, 25.51572
1093.733, 25.95344
1094.215, 26.33913
1094.697, 26.35465
1095.179, 26.15336
1095.662, 25.96365
1096.144, 25.83270
1096.626, 25.83106
1097.108, 26.01486
1097.590, 26.27736
1098.072, 26.69753
1098.554, 27.06257
1099.036, 27.18148
1099.519, 27.20121
1100.001, 27.33025
1100.483, 27.56257
1100.965, 27.73331
1101.447, 27.77883
1101.929, 27.81601
1102.411, 27.84103
1102.893, 27.90418
1103.375, 28.05325
1103.858, 28.23449
1104.340, 28.40045
1104.822, 28.54946
1105.304, 28.69416
1105.786, 28.84757
1106.268, 28.96128
1106.750, 28.97900
1107.232, 29.01886
1107.714, 29.11625
1108.197, 29.25397
1108.679, 29.46704
1109.161, 29.69607
1109.643, 29.78502
1110.125, 29.68693
1110.607, 29.70176
1111.089, 29.91690
1111.571, 30.15953
1112.054, 30.46800
1112.536, 30.71844
1113.018, 30.76973
1113.500, 30.75742
1113.982, 30.93683
1114.464, 31.31516
1114.946, 31.49650
1115.428, 31.24109
1115.911, 31.19144
1116.393, 31.51379
1116.875, 31.86053
1117.357, 32.10351
1117.839, 32.29931
1118.321, 32.53968
1118.803, 32.79322
1119.285, 32.85927
1119.767, 32.58386
1120.250, 32.51363
1120.732, 32.73457
1121.214, 32.99089
1121.696, 33.23717
1122.178, 33.44872
1122.660, 33.59422
1123.142, 33.69752
1123.624, 33.80999
1124.106, 33.92023
1124.589, 34.15370
1125.071, 34.60080
1125.553, 34.80730
1126.035, 34.55422
1126.517, 34.48542
1126.999, 35.06491
1127.481, 35.85564
1127.963, 36.13987
1128.446, 35.97451
1128.928, 36.05242
1129.410, 36.41559
1129.892, 36.62243
1130.374, 36.60268
1130.856, 36.58085
1131.338, 36.63896
1131.820, 36.81136
1132.302, 37.15527
1132.785, 37.59887
1133.267, 37.90073
1133.749, 38.07192
1134.231, 38.32743
1134.713, 38.67072
1135.195, 38.83264
1135.677, 38.74115
1136.159, 38.78638
1136.641, 39.28074
1137.124, 39.87767
1137.606, 39.85226
1138.088, 39.45489
1138.570, 39.56155
1139.052, 40.16377
1139.534, 41.48143
1140.016, 43.35437
1140.498, 44.54207
1140.981, 44.47282
1141.463, 43.86437
1141.945, 43.29282
1142.427, 42.89367
1142.909, 43.00246
1143.391, 43.41951
1143.873, 43.75035
1144.355, 43.97559
1144.838, 44.17644
1145.320, 44.38037
1145.802, 44.57684
1146.284, 44.72954
1146.766, 44.96241
1147.248, 45.50411
1147.730, 46.10886
1148.212, 46.43436
1148.694, 46.62632
1149.177, 46.96344
1149.659, 47.45826
1150.141, 47.97964
1150.623, 48.49156
1151.105, 48.91669
1151.587, 49.16629
1152.069, 49.36570
1152.551, 49.60643
1153.033, 49.83667
1153.516, 49.93020
1153.998, 49.99318
1154.480, 50.28456
1154.962, 50.83280
1155.444, 51.28260
1155.926, 51.40505
1156.408, 51.57467
1156.890, 51.88708
1157.373, 52.29690
1157.855, 52.89532
1158.337, 53.49466
1158.819, 53.82995
1159.301, 53.96393
1159.783, 54.24781
1160.265, 54.78503
1160.747, 55.28159
1161.229, 55.67672
1161.712, 56.09403
1162.194, 56.67644
1162.676, 57.15093
1163.158, 57.17983
1163.640, 57.10279
1164.122, 57.60225
1164.604, 58.70861
1165.086, 59.40188
1165.568, 59.50340
1166.051, 59.72533
1166.533, 60.12089
1167.015, 60.69231
1167.497, 61.47700
1167.979, 62.35498
1168.461, 63.26406
1168.943, 64.08144
1169.425, 64.26833
1169.908, 63.78841
1170.390, 64.13897
1170.872, 65.36591
1171.354, 66.50491
1171.836, 67.33630
1172.318, 67.87151
1172.800, 68.09940
1173.282, 68.25960
1173.765, 68.66504
1174.247, 69.28489
1174.729, 70.12098
1175.211, 71.07856
1175.693, 71.82339
1176.175, 72.34016
1176.657, 72.66984
1177.139, 72.87020
1177.621, 73.30164
1178.104, 74.28889
1178.586, 75.41959
1179.068, 75.72078
1179.550, 76.23392
1180.032, 79.46000
1180.514, 83.45782
1180.996, 84.05078
1181.478, 81.80286
1181.960, 80.92287
1182.443, 82.98740
1182.925, 85.12720
1183.407, 85.67751
1183.889, 85.76172
1184.371, 85.83769
1184.853, 85.96388
1185.335, 86.07789
1185.817, 86.32653
1186.300, 86.96915
1186.782, 88.00038
1187.264, 89.12167
1187.746, 90.39086
1188.228, 91.49960
1188.710, 92.35003
1189.192, 93.07914
1189.674, 93.54127
1190.156, 94.08183
1190.639, 94.97501
1191.121, 96.13599
1191.603, 97.43886
1192.085, 98.91885
1192.567, 100.0079
1193.049, 100.5009
1193.531, 101.2039
1194.013, 102.2420
1194.495, 103.3989
1194.978, 104.6249
1195.460, 105.7764
1195.942, 106.6395
1196.424, 107.4205
1196.906, 108.8744
1197.388, 110.9429
1197.870, 112.1987
1198.352, 112.6775
1198.835, 113.6049
1199.317, 115.1945
1199.799, 116.7472
1200.281, 117.8918
1200.763, 118.9870
1201.245, 120.4410
1201.727, 122.1012
1202.209, 123.9640
1202.692, 125.7086
1203.174, 126.3816
1203.656, 126.4153
1204.138, 127.0661
1204.620, 128.5641
1205.102, 130.3531
1205.584, 132.1956
1206.066, 134.0270
1206.548, 135.9172
1207.031, 137.6329
1207.513, 138.5601
1207.995, 139.5698
1208.477, 142.1436
1208.959, 145.3484
1209.441, 146.9193
1209.923, 146.5712
1210.405, 146.6347
1210.887, 147.8037
1211.370, 149.1850
1211.852, 150.6294
1212.334, 152.2773
1212.816, 154.4070
1213.298, 156.5468
1213.780, 158.3119
1214.262, 159.7995
1214.744, 161.2276
1215.227, 162.5680
1215.709, 164.1488
1216.191, 166.0041
1216.673, 168.0667
1217.155, 170.4422
1217.637, 172.3846
1218.119, 173.4820
1218.601, 174.5341
1219.083, 176.3748
1219.566, 178.6321
1220.048, 180.3349
1220.530, 181.6327
1221.012, 183.2283
1221.494, 185.1112
1221.976, 187.2910
1222.458, 189.6519
1222.940, 191.6026
1223.422, 192.8867
1223.905, 194.1047
1224.387, 195.7465
1224.869, 197.6266
1225.351, 199.5858
1225.833, 201.6493
1226.315, 203.9622
1226.797, 206.3292
1227.279, 208.3547
1227.762, 210.0964
1228.244, 212.0437
1228.726, 214.4026
1229.208, 216.5684
1229.690, 218.1836
1230.172, 219.7660
1230.654, 221.3796
1231.136, 223.1213
1231.619, 225.1054
1232.101, 227.2162
1232.583, 229.3780
1233.065, 231.5462
1233.547, 233.4600
1234.029, 235.1225
1234.511, 236.4235
1234.993, 237.0906
1235.475, 238.5871
1235.958, 241.4746
1236.440, 244.0870
1236.922, 245.3991
1237.404, 246.3144
1237.886, 248.1192
1238.368, 250.3824
1238.850, 251.6858
1239.332, 252.2793
1239.814, 253.1336
1240.297, 254.2989
1240.779, 255.6922
1241.261, 257.2619
1241.743, 258.9449
1242.225, 260.7243
1242.707, 262.3287
1243.189, 263.2974
1243.671, 264.2338
1244.154, 265.7840
1244.636, 267.5190
1245.118, 269.1907
1245.600, 270.5894
1246.082, 271.1835
1246.564, 271.1530
1247.046, 271.7782
1247.528, 273.6949
1248.010, 275.2311
1248.493, 275.8008
1248.975, 276.4011
1249.457, 277.2430
1249.939, 278.2496
1250.421, 279.6622
1250.903, 280.8381
1251.385, 280.6977
1251.867, 279.6292
1252.349, 279.9831
1252.832, 281.9162
1253.314, 283.2173
1253.796, 283.8080
1254.278, 284.2537
1254.760, 284.6867
1255.242, 285.1122
1255.724, 285.5346
1256.206, 285.9300
1256.689, 286.3084
1257.171, 286.5789
1257.653, 286.3099
1258.135, 286.0093
1258.617, 286.7001
1259.099, 288.0024
1259.581, 289.0499
1260.063, 289.7693
1260.546, 290.6039
1261.028, 291.7296
1261.510, 292.7092
1261.992, 293.8327
1262.474, 294.0811
1262.956, 291.6991
1263.438, 289.8328
1263.920, 291.1420
1264.402, 293.5172
1264.885, 294.4287
1265.367, 294.2106
1265.849, 294.0501
1266.331, 293.8885
1266.813, 294.2132
1267.295, 295.1519
1267.777, 295.9571
1268.259, 296.5018
1268.741, 297.1095
1269.224, 297.9401
1269.706, 298.5920
1270.188, 298.6776
1270.670, 298.3876
1271.152, 297.8505
1271.634, 297.3295
1272.116, 297.5220
1272.598, 298.2068
1273.081, 298.9525
1273.563, 299.6280
1274.045, 300.0273
1274.527, 300.1404
1275.009, 300.4601
1275.491, 301.2999
1275.973, 302.2465
1276.455, 303.1408
1276.938, 304.0440
1277.420, 305.3422
1277.902, 306.3385
1278.384, 306.2666
1278.866, 305.4917
1279.348, 304.6548
1279.830, 303.7809
1280.312, 303.5855
1280.794, 304.3904
1281.276, 304.5060
1281.759, 303.6447
1282.241, 303.3765
1282.723, 304.1644
1283.205, 305.0322
1283.687, 305.3979
1284.169, 305.5301
1284.651, 305.8412
1285.133, 306.0651
1285.616, 305.7003
1286.098, 304.7192
##END=



