##NAMES=Mimetite
##RRUFFID=R040123
##IDEAL CHEMISTRY=Pb^2+^_5_(As^5+^O_4_)_3_Cl
##LOCALITY=San Pedro Corralitos, Chihuahua, Mexico
##OWNER=RRUFF
##SOURCE=University of Arizona Mineral Museum
##DESCRIPTION=Yellow botryoidal group
##STATUS=The identification of this mineral has been confirmed by X-ray diffraction and chemical analysis
##URL=rruff.info/R040123
##MEASURED CHEMISTRY=Pb_5.00_((As_0.96_P_0.04_)O_4_)_3_Cl_1.00_
114.9494, 158.6895
115.4315, 167.9965
115.9136, 178.9607
116.3958, 192.8934
116.8779, 209.0190
117.3600, 226.5661
117.8421, 246.8403
118.3242, 267.3102
118.8063, 285.9101
119.2885, 302.2492
119.7706, 319.7316
120.2527, 340.2585
120.7348, 363.4244
121.2169, 388.5993
121.6990, 413.0326
122.1812, 440.1482
122.6633, 474.0854
123.1454, 516.6029
123.6275, 562.4734
124.1096, 607.1951
124.5917, 651.0950
125.0739, 695.5093
125.5560, 740.7578
126.0381, 786.9955
126.5202, 835.5762
127.0023, 887.1143
127.4844, 940.7084
127.9666, 995.4332
128.4487, 1051.276
128.9308, 1107.451
129.4129, 1163.491
129.8950, 1219.457
130.3772, 1272.509
130.8593, 1320.141
131.3414, 1364.655
131.8235, 1414.754
132.3056, 1470.555
132.7877, 1529.334
133.2699, 1588.024
133.7520, 1646.880
134.2341, 1705.528
134.7162, 1764.051
135.1983, 1822.710
135.6804, 1879.995
136.1626, 1935.466
136.6447, 1989.251
137.1268, 2042.498
137.6089, 2096.169
138.0910, 2144.455
138.5731, 2181.459
139.0553, 2204.674
139.5374, 2230.653
140.0195, 2260.820
140.5016, 2294.314
140.9837, 2327.282
141.4658, 2361.952
141.9480, 2393.102
142.4301, 2415.880
142.9122, 2424.863
143.3943, 2437.183
143.8764, 2457.298
144.3585, 2484.750
144.8407, 2503.888
145.3228, 2502.443
145.8049, 2501.917
146.2870, 2523.736
146.7691, 2591.869
147.2512, 2650.479
147.7334, 2685.542
148.2155, 2690.195
148.6976, 2703.690
149.1797, 2733.406
149.6618, 2769.924
150.1439, 2800.525
150.6261, 2817.285
151.1082, 2834.886
151.5903, 2857.311
152.0724, 2887.416
152.5545, 2916.026
153.0366, 2945.378
153.5188, 2972.556
154.0009, 2991.750
154.4830, 2998.218
154.9651, 2999.635
155.4472, 2998.857
155.9293, 2991.323
156.4115, 2988.949
156.8936, 2997.761
157.3757, 3014.519
157.8578, 3028.084
158.3399, 3033.320
158.8221, 3035.427
159.3042, 3037.843
159.7863, 3040.414
160.2684, 3044.353
160.7505, 3051.552
161.2326, 3061.434
161.7148, 3069.010
162.1969, 3068.805
162.6790, 3066.597
163.1611, 3067.960
163.6432, 3071.693
164.1253, 3081.838
164.6075, 3102.502
165.0896, 3133.901
165.5717, 3167.330
166.0538, 3202.746
166.5359, 3236.302
167.0180, 3262.656
167.5002, 3275.087
167.9823, 3282.577
168.4644, 3290.728
168.9465, 3299.618
169.4286, 3311.475
169.9107, 3335.752
170.3929, 3364.465
170.8750, 3381.404
171.3571, 3365.145
171.8392, 3338.377
172.3213, 3326.185
172.8034, 3334.109
173.2856, 3349.052
173.7677, 3363.500
174.2498, 3376.223
174.7319, 3382.835
175.2140, 3377.426
175.6961, 3365.046
176.1783, 3353.391
176.6604, 3344.414
177.1425, 3335.790
177.6246, 3326.174
178.1067, 3315.237
178.5888, 3300.122
179.0710, 3275.972
179.5531, 3246.356
180.0352, 3219.195
180.5173, 3195.949
180.9994, 3176.777
181.4815, 3165.775
181.9637, 3162.509
182.4458, 3156.422
182.9279, 3135.775
183.4100, 3103.957
183.8921, 3073.267
184.3742, 3046.484
184.8564, 3023.334
185.3385, 3005.819
185.8206, 2994.284
186.3027, 2982.320
186.7848, 2963.194
187.2669, 2937.475
187.7491, 2908.776
188.2312, 2874.564
188.7133, 2838.302
189.1954, 2815.302
189.6775, 2808.282
190.1596, 2802.999
190.6418, 2777.564
191.1239, 2732.721
191.6060, 2694.252
192.0881, 2677.721
192.5702, 2679.785
193.0524, 2670.187
193.5345, 2647.090
194.0166, 2617.245
194.4987, 2590.979
194.9808, 2568.540
195.4629, 2545.820
195.9451, 2520.999
196.4272, 2493.812
196.9093, 2466.579
197.3914, 2438.485
197.8735, 2411.735
198.3556, 2392.145
198.8378, 2381.100
199.3199, 2368.859
199.8020, 2349.591
200.2841, 2322.979
200.7662, 2296.129
201.2483, 2268.379
201.7305, 2241.591
202.2126, 2220.923
202.6947, 2207.382
203.1768, 2196.212
203.6589, 2184.842
204.1410, 2173.349
204.6232, 2162.096
205.1053, 2151.852
205.5874, 2141.555
206.0695, 2127.029
206.5516, 2106.909
207.0337, 2086.139
207.5159, 2069.065
207.9980, 2057.804
208.4801, 2041.155
208.9622, 2015.433
209.4443, 1983.335
209.9264, 1959.053
210.4086, 1945.697
210.8907, 1933.846
211.3728, 1914.994
211.8549, 1885.109
212.3370, 1861.911
212.8191, 1850.146
213.3013, 1848.089
213.7834, 1839.938
214.2655, 1823.682
214.7476, 1804.487
215.2297, 1787.270
215.7118, 1773.352
216.1940, 1756.910
216.6761, 1735.061
217.1582, 1708.257
217.6403, 1689.995
218.1224, 1685.038
218.6045, 1682.536
219.0867, 1670.633
219.5688, 1643.000
220.0509, 1621.627
220.5330, 1614.928
221.0151, 1623.393
221.4972, 1617.523
221.9794, 1589.441
222.4615, 1555.777
222.9436, 1535.236
223.4257, 1536.136
223.9078, 1532.657
224.3899, 1517.025
224.8721, 1487.537
225.3542, 1465.809
225.8363, 1454.121
226.3184, 1447.834
226.8005, 1441.836
227.2827, 1437.488
227.7648, 1430.867
228.2469, 1420.785
228.7290, 1406.987
229.2111, 1391.351
229.6932, 1370.232
230.1754, 1350.407
230.6575, 1341.886
231.1396, 1352.739
231.6217, 1360.766
232.1038, 1359.853
232.5859, 1348.844
233.0681, 1334.678
233.5502, 1315.360
234.0323, 1294.390
234.5144, 1276.341
234.9965, 1261.118
235.4786, 1249.257
235.9608, 1241.240
236.4429, 1237.724
236.9250, 1235.617
237.4071, 1236.246
237.8892, 1237.469
238.3713, 1235.977
238.8535, 1231.526
239.3356, 1224.683
239.8177, 1214.521
240.2998, 1198.761
240.7819, 1188.682
241.2640, 1186.452
241.7462, 1188.479
242.2283, 1188.763
242.7104, 1187.244
243.1925, 1184.052
243.6746, 1178.831
244.1567, 1170.595
244.6389, 1163.845
245.1210, 1160.064
245.6031, 1156.906
246.0852, 1149.601
246.5673, 1134.474
247.0494, 1121.472
247.5316, 1114.500
248.0137, 1115.445
248.4958, 1116.166
248.9779, 1116.867
249.4600, 1117.221
249.9421, 1117.172
250.4243, 1118.920
250.9064, 1116.296
251.3885, 1105.416
251.8706, 1081.608
252.3527, 1065.307
252.8348, 1058.861
253.3170, 1058.453
253.7991, 1056.903
254.2812, 1053.038
254.7633, 1050.349
255.2454, 1051.251
255.7275, 1058.368
256.2097, 1058.729
256.6918, 1049.263
257.1739, 1035.152
257.6560, 1025.951
258.1381, 1023.196
258.6202, 1022.191
259.1024, 1021.519
259.5845, 1021.530
260.0666, 1020.313
260.5487, 1017.238
261.0308, 1013.414
261.5129, 1010.915
261.9951, 1010.402
262.4772, 1009.676
262.9593, 1007.657
263.4414, 1003.821
263.9235, 1001.308
264.4056, 1000.841
264.8878, 1000.993
265.3699, 999.0736
265.8520, 994.4292
266.3341, 989.5370
266.8162, 985.6121
267.2983, 983.1215
267.7805, 978.1784
268.2626, 969.0025
268.7447, 959.4119
269.2268, 956.8309
269.7089, 963.1426
270.1910, 969.6907
270.6732, 972.7211
271.1553, 971.6445
271.6374, 973.1347
272.1195, 978.2868
272.6016, 984.4051
273.0837, 986.2573
273.5659, 982.8086
274.0480, 980.4698
274.5301, 982.8030
275.0122, 990.0828
275.4943, 993.2111
275.9764, 991.1304
276.4586, 986.8869
276.9407, 984.5087
277.4228, 983.9951
277.9049, 985.5032
278.3870, 989.7575
278.8691, 996.6124
279.3513, 1002.587
279.8334, 1007.431
280.3155, 1012.039
280.7976, 1018.763
281.2798, 1027.773
281.7619, 1033.419
282.2440, 1030.073
282.7261, 1019.995
283.2082, 1021.422
283.6903, 1035.774
284.1725, 1056.405
284.6546, 1077.454
285.1367, 1098.603
285.6188, 1116.000
286.1009, 1126.173
286.5830, 1131.264
287.0652, 1139.926
287.5473, 1152.005
288.0294, 1168.073
288.5115, 1190.910
288.9936, 1219.697
289.4757, 1246.546
289.9579, 1267.525
290.4400, 1285.118
290.9221, 1306.556
291.4042, 1331.922
291.8863, 1360.100
292.3684, 1389.523
292.8506, 1420.624
293.3327, 1455.604
293.8148, 1495.926
294.2969, 1540.315
294.7790, 1587.980
295.2611, 1639.137
295.7433, 1691.071
296.2254, 1740.364
296.7075, 1789.320
297.1896, 1842.210
297.6717, 1900.904
298.1538, 1964.972
298.6360, 2033.313
299.1181, 2106.417
299.6002, 2182.602
300.0823, 2264.828
300.5644, 2349.534
301.0465, 2429.561
301.5287, 2497.332
302.0108, 2566.742
302.4929, 2656.906
302.9750, 2764.967
303.4571, 2869.393
303.9392, 2952.056
304.4214, 3024.181
304.9035, 3103.287
305.3856, 3194.466
305.8677, 3289.240
306.3498, 3379.756
306.8319, 3466.318
307.3141, 3552.068
307.7962, 3637.173
308.2783, 3721.827
308.7604, 3808.706
309.2425, 3899.818
309.7246, 3985.907
310.2068, 4060.888
310.6889, 4126.428
311.1710, 4187.789
311.6531, 4249.420
312.1352, 4306.796
312.6173, 4358.467
313.0995, 4407.896
313.5816, 4439.092
314.0637, 4436.971
314.5458, 4411.901
315.0279, 4383.563
315.5100, 4366.971
315.9922, 4343.456
316.4743, 4300.194
316.9564, 4230.827
317.4385, 4162.020
317.9206, 4106.457
318.4027, 4055.830
318.8849, 3998.529
319.3670, 3926.457
319.8491, 3851.564
320.3312, 3776.686
320.8133, 3700.917
321.2954, 3630.692
321.7776, 3566.116
322.2597, 3507.563
322.7418, 3455.431
323.2239, 3411.312
323.7060, 3372.093
324.1881, 3336.650
324.6703, 3304.752
325.1524, 3279.112
325.6345, 3263.644
326.1166, 3252.857
326.5987, 3242.134
327.0808, 3225.280
327.5630, 3215.799
328.0451, 3217.859
328.5272, 3230.850
329.0093, 3241.441
329.4914, 3245.893
329.9735, 3251.080
330.4557, 3261.360
330.9378, 3277.825
331.4199, 3297.809
331.9020, 3323.103
332.3841, 3352.161
332.8662, 3376.858
333.3484, 3393.226
333.8305, 3410.888
334.3126, 3437.913
334.7947, 3481.828
335.2768, 3509.944
335.7589, 3515.349
336.2411, 3506.937
336.7232, 3508.035
337.2053, 3521.975
337.6874, 3535.673
338.1695, 3542.964
338.6516, 3543.197
339.1338, 3542.389
339.6159, 3541.146
340.0980, 3538.074
340.5801, 3532.288
341.0622, 3524.202
341.5443, 3508.382
342.0265, 3480.612
342.5086, 3442.134
342.9907, 3401.500
343.4728, 3358.784
343.9549, 3314.950
344.4370, 3273.317
344.9192, 3233.440
345.4013, 3188.497
345.8834, 3135.616
346.3655, 3076.670
346.8476, 3017.058
347.3297, 2956.908
347.8119, 2899.012
348.2940, 2848.900
348.7761, 2803.862
349.2582, 2756.871
349.7403, 2703.848
350.2225, 2648.831
350.7046, 2597.194
351.1867, 2548.306
351.6688, 2500.883
352.1509, 2453.510
352.6331, 2406.996
353.1152, 2361.951
353.5973, 2316.822
354.0794, 2276.392
354.5615, 2245.696
355.0436, 2223.377
355.5258, 2205.304
356.0079, 2190.960
356.4900, 2178.897
356.9721, 2166.819
357.4542, 2152.678
357.9363, 2144.277
358.4185, 2146.016
358.9006, 2156.452
359.3827, 2173.083
359.8648, 2195.949
360.3469, 2223.958
360.8290, 2256.433
361.3112, 2293.366
361.7933, 2335.462
362.2754, 2392.927
362.7575, 2452.255
363.2396, 2498.958
363.7217, 2501.440
364.2039, 2518.662
364.6860, 2575.134
365.1681, 2671.861
365.6502, 2753.910
366.1323, 2805.334
366.6144, 2846.670
367.0966, 2892.229
367.5787, 2952.067
368.0608, 3003.943
368.5429, 3049.252
369.0250, 3086.487
369.5071, 3106.958
369.9893, 3105.974
370.4714, 3093.789
370.9535, 3076.646
371.4356, 3063.367
371.9177, 3023.890
372.3998, 2948.056
372.8820, 2850.456
373.3641, 2765.194
373.8462, 2697.890
374.3283, 2628.855
374.8104, 2550.095
375.2925, 2459.805
375.7747, 2373.465
376.2568, 2291.554
376.7389, 2211.191
377.2210, 2125.123
377.7031, 2031.922
378.1852, 1954.749
378.6674, 1905.859
379.1495, 1878.233
379.6316, 1838.228
380.1137, 1784.943
380.5958, 1730.484
381.0779, 1684.351
381.5601, 1646.165
382.0422, 1618.219
382.5243, 1603.484
383.0064, 1595.024
383.4885, 1582.015
383.9706, 1564.711
384.4528, 1545.905
384.9349, 1525.428
385.4170, 1505.069
385.8991, 1486.967
386.3812, 1470.911
386.8633, 1458.323
387.3455, 1452.615
387.8276, 1451.463
388.3097, 1449.468
388.7918, 1440.647
389.2739, 1432.020
389.7560, 1430.625
390.2382, 1437.678
390.7203, 1443.706
391.2024, 1441.386
391.6845, 1435.981
392.1666, 1433.533
392.6487, 1440.519
393.1309, 1446.656
393.6130, 1445.552
394.0951, 1438.143
394.5772, 1435.748
395.0593, 1446.886
395.5414, 1460.379
396.0236, 1469.137
396.5057, 1469.158
396.9878, 1468.017
397.4699, 1463.919
397.9520, 1458.808
398.4341, 1458.810
398.9163, 1467.197
399.3984, 1477.332
399.8805, 1487.263
400.3626, 1497.649
400.8447, 1505.392
401.3268, 1507.268
401.8090, 1508.883
402.2911, 1519.157
402.7732, 1541.537
403.2553, 1563.284
403.7374, 1580.782
404.2195, 1594.296
404.7017, 1608.958
405.1838, 1625.490
405.6659, 1641.370
406.1480, 1653.602
406.6301, 1662.169
407.1122, 1671.773
407.5944, 1683.050
408.0765, 1696.120
408.5586, 1714.003
409.0407, 1736.594
409.5228, 1753.214
410.0049, 1749.268
410.4871, 1733.603
410.9692, 1732.835
411.4513, 1751.923
411.9334, 1776.859
412.4155, 1791.604
412.8976, 1799.405
413.3798, 1809.050
413.8619, 1829.004
414.3440, 1850.472
414.8261, 1863.016
415.3082, 1866.512
415.7903, 1870.385
416.2725, 1881.176
416.7546, 1895.671
417.2367, 1910.477
417.7188, 1923.156
418.2009, 1937.077
418.6830, 1957.230
419.1652, 1980.847
419.6473, 1996.974
420.1294, 1992.788
420.6115, 1987.074
421.0937, 1991.504
421.5758, 2016.144
422.0579, 2032.237
422.5400, 2031.079
423.0221, 2020.247
423.5042, 2012.172
423.9864, 2014.136
424.4685, 2011.323
424.9506, 2000.214
425.4327, 1980.641
425.9148, 1955.719
426.3969, 1919.848
426.8791, 1885.013
427.3612, 1863.198
427.8433, 1859.272
428.3254, 1853.722
428.8075, 1845.506
429.2896, 1833.207
429.7718, 1810.382
430.2539, 1775.137
430.7360, 1739.349
431.2181, 1710.423
431.7002, 1687.954
432.1823, 1666.545
432.6645, 1646.415
433.1466, 1625.638
433.6287, 1599.731
434.1108, 1570.224
434.5929, 1544.812
435.0750, 1531.248
435.5572, 1522.026
436.0393, 1502.925
436.5214, 1474.333
437.0035, 1444.396
437.4856, 1419.962
437.9677, 1398.267
438.4499, 1375.425
438.9320, 1349.312
439.4141, 1323.765
439.8962, 1301.068
440.3783, 1281.130
440.8604, 1263.047
441.3426, 1249.551
441.8247, 1235.697
442.3068, 1218.538
442.7889, 1197.250
443.2710, 1175.094
443.7531, 1150.081
444.2353, 1125.814
444.7174, 1105.845
445.1995, 1093.231
445.6816, 1082.489
446.1637, 1074.422
446.6458, 1068.540
447.1280, 1058.517
447.6101, 1041.983
448.0922, 1023.849
448.5743, 1007.102
449.0564, 992.7439
449.5385, 976.1760
450.0207, 955.5161
450.5028, 934.2584
450.9849, 920.4744
451.4670, 916.1336
451.9491, 909.8812
452.4312, 896.7105
452.9134, 877.5607
453.3955, 858.7449
453.8776, 840.1276
454.3597, 823.2175
454.8418, 811.8746
455.3239, 804.2249
455.8061, 792.3572
456.2882, 772.3129
456.7703, 750.4131
457.2524, 735.9724
457.7345, 727.7194
458.2166, 720.1567
458.6988, 710.6811
459.1809, 699.9446
459.6630, 688.3518
460.1451, 675.6016
460.6272, 663.7075
461.1093, 654.9644
461.5915, 647.5468
462.0736, 639.3620
462.5557, 626.4645
463.0378, 615.8513
463.5199, 612.0469
464.0020, 613.9816
464.4842, 613.3643
464.9663, 608.2122
465.4484, 600.2686
465.9305, 590.0461
466.4126, 573.6276
466.8947, 561.7702
467.3769, 556.5461
467.8590, 554.9941
468.3411, 552.1471
468.8232, 546.8380
469.3053, 542.5742
469.7874, 540.2161
470.2696, 539.7255
470.7517, 541.2661
471.2338, 546.0225
471.7159, 549.1765
472.1980, 544.9174
472.6801, 533.4606
473.1623, 524.9532
473.6444, 520.6024
474.1265, 520.0966
474.6086, 526.2393
475.0907, 537.4896
475.5728, 543.8853
476.0550, 535.3441
476.5371, 520.2350
477.0192, 512.9227
477.5013, 513.9290
477.9834, 515.8225
478.4655, 512.7750
478.9477, 507.1881
479.4298, 502.2578
479.9119, 499.3727
480.3940, 496.7317
480.8761, 491.7229
481.3582, 485.9908
481.8404, 484.3703
482.3225, 493.8857
482.8046, 503.3799
483.2867, 507.4573
483.7688, 504.0442
484.2509, 500.8231
484.7331, 498.8088
485.2152, 497.0813
485.6973, 494.7070
486.1794, 491.1933
486.6615, 487.8601
487.1436, 484.8648
487.6258, 482.1734
488.1079, 479.5049
488.5900, 476.6510
489.0721, 474.4487
489.5542, 474.1274
490.0363, 475.7253
490.5185, 473.9503
491.0006, 467.7235
491.4827, 461.3251
491.9648, 460.9681
492.4470, 465.7292
492.9291, 470.8191
493.4112, 475.4902
493.8933, 478.7460
494.3754, 478.3776
494.8575, 474.7568
495.3397, 470.2525
495.8218, 466.0875
496.3039, 461.9516
496.7860, 457.1045
497.2681, 450.7305
497.7502, 446.1543
498.2324, 445.5207
498.7145, 447.6003
499.1966, 450.7131
499.6787, 458.2524
500.1608, 462.8185
500.6429, 460.0531
501.1251, 450.5813
501.6072, 444.8176
502.0893, 445.0021
502.5714, 447.6263
503.0535, 451.7791
503.5356, 460.5742
504.0178, 462.8272
504.4999, 455.0495
504.9820, 443.8820
505.4641, 440.2638
505.9462, 446.0220
506.4283, 449.6263
506.9105, 446.4472
507.3926, 438.8830
507.8747, 437.2775
508.3568, 441.9347
508.8389, 446.9487
509.3210, 447.8948
509.8032, 445.8475
510.2853, 443.7006
510.7674, 441.7896
511.2495, 439.8962
511.7316, 438.0714
512.2137, 436.0753
512.6959, 433.4600
513.1780, 428.4349
513.6601, 424.0351
514.1422, 423.1239
514.6243, 425.1189
515.1064, 425.9597
515.5886, 423.3462
516.0707, 419.5762
516.5528, 415.7286
517.0349, 410.4186
517.5170, 408.1523
517.9991, 412.9778
518.4813, 419.6858
518.9634, 421.1053
519.4455, 411.1769
519.9276, 406.8596
520.4097, 415.2170
520.8918, 432.8483
521.3740, 436.1611
521.8561, 421.1503
522.3382, 405.0844
522.8203, 399.8875
523.3024, 404.9137
523.7845, 408.4450
524.2667, 409.8094
524.7488, 409.8501
525.2309, 409.3929
525.7130, 408.4708
526.1951, 407.1790
526.6772, 405.1462
527.1594, 403.1292
527.6415, 401.8257
528.1236, 401.2652
528.6057, 401.5656
529.0878, 405.1338
529.5699, 408.0529
530.0521, 406.0710
530.5342, 396.7679
531.0163, 391.1158
531.4984, 396.0287
531.9805, 404.8613
532.4626, 410.5581
532.9448, 409.5488
533.4269, 408.5169
533.9090, 408.6899
534.3911, 409.4344
534.8732, 407.9378
535.3553, 402.3835
535.8375, 397.9576
536.3196, 397.1201
536.8017, 400.0058
537.2838, 403.7382
537.7659, 408.8282
538.2480, 413.1884
538.7302, 414.6231
539.2123, 413.3178
539.6944, 409.8578
540.1765, 402.9040
540.6586, 396.5465
541.1407, 397.9860
541.6229, 405.2758
542.1050, 411.4180
542.5871, 411.4953
543.0692, 409.5097
543.5513, 408.5940
544.0334, 408.9390
544.5156, 410.3927
544.9977, 414.0761
545.4798, 418.1562
545.9619, 421.2198
546.4440, 423.6621
546.9261, 424.0983
547.4083, 420.6566
547.8904, 415.3971
548.3725, 412.0055
548.8546, 410.6122
549.3367, 410.9733
549.8188, 414.1261
550.3010, 419.5485
550.7831, 420.0689
551.2652, 413.9297
551.7473, 408.7494
552.2294, 411.7761
552.7115, 421.8871
553.1937, 427.5985
553.6758, 427.7010
554.1579, 424.6462
554.6400, 419.3298
555.1221, 413.0806
555.6042, 409.8977
556.0864, 413.1351
556.5685, 418.0416
557.0506, 419.7596
557.5327, 419.1586
558.0148, 419.4433
558.4969, 425.5612
558.9791, 430.4962
559.4612, 428.8644
559.9433, 418.5007
560.4254, 410.1301
560.9075, 404.7795
561.3896, 402.8656
561.8718, 404.7602
562.3539, 413.9008
562.8360, 421.2142
563.3181, 426.8101
563.8002, 429.7583
564.2823, 425.9618
564.7645, 413.0692
565.2466, 404.3594
565.7287, 407.5059
566.2108, 419.3480
566.6929, 423.7024
567.1750, 420.2837
567.6572, 415.0485
568.1393, 412.5984
568.6214, 412.0155
569.1035, 411.3930
569.5856, 410.1821
570.0677, 409.9097
570.5499, 413.7544
571.0320, 418.9782
571.5141, 421.2827
571.9962, 416.1277
572.4783, 410.7112
572.9604, 407.4001
573.4426, 406.1594
573.9247, 406.4949
574.4068, 409.1749
574.8889, 412.7164
575.3710, 417.0674
575.8531, 422.8484
576.3353, 425.6675
576.8174, 424.1678
577.2995, 421.6780
577.7816, 421.8218
578.2637, 425.0045
578.7458, 426.2255
579.2280, 424.2643
579.7101, 420.9482
580.1922, 419.2374
580.6743, 419.0162
581.1564, 419.6308
581.6385, 422.5524
582.1207, 425.1929
582.6028, 422.6759
583.0849, 415.8028
583.5670, 410.6662
584.0491, 412.4748
584.5313, 416.4334
585.0134, 418.9044
585.4955, 419.0574
585.9776, 418.6210
586.4597, 417.0363
586.9418, 415.5000
587.4240, 415.4100
587.9061, 417.5154
588.3882, 419.9546
588.8703, 422.8376
589.3524, 425.8442
589.8345, 427.5878
590.3167, 427.3564
590.7988, 428.7458
591.2809, 434.8206
591.7630, 444.0084
592.2451, 446.9344
592.7272, 443.3749
593.2094, 439.0165
593.6915, 437.9829
594.1736, 439.6386
594.6557, 443.5565
595.1378, 450.3941
595.6199, 456.0317
596.1021, 456.3372
596.5842, 453.7398
597.0663, 451.6964
597.5485, 452.6122
598.0306, 452.9690
598.5127, 450.0945
598.9948, 445.3166
599.4769, 444.4890
599.9590, 452.0532
600.4412, 458.6140
600.9233, 461.0849
601.4054, 459.2933
601.8875, 455.9721
602.3696, 450.3081
602.8517, 445.1717
603.3339, 442.7267
603.8160, 442.9254
604.2981, 446.8288
604.7802, 455.6465
605.2623, 464.1925
605.7444, 463.2885
606.2266, 456.4957
606.7087, 453.5179
607.1908, 461.4250
607.6729, 470.8130
608.1550, 474.8248
608.6371, 474.2492
609.1193, 471.7903
609.6014, 467.7190
610.0835, 462.6840
610.5656, 455.5914
611.0477, 445.3771
611.5298, 441.6205
612.0120, 449.1467
612.4941, 458.6230
612.9762, 463.9752
613.4583, 464.3764
613.9404, 463.3152
614.4225, 460.2831
614.9047, 456.9418
615.3868, 455.8706
615.8689, 456.8992
616.3510, 457.8556
616.8331, 457.9193
617.3152, 457.8264
617.7974, 459.3993
618.2795, 462.0004
618.7616, 463.2501
619.2437, 459.8663
619.7258, 456.0986
620.2079, 455.7483
620.6901, 458.9707
621.1722, 461.1170
621.6543, 459.6311
622.1364, 457.2027
622.6185, 455.6898
623.1006, 456.2579
623.5828, 455.1952
624.0649, 450.9773
624.5470, 446.5272
625.0291, 445.4033
625.5112, 447.9938
625.9933, 452.2884
626.4755, 458.9426
626.9576, 465.6678
627.4397, 467.2584
627.9218, 464.1665
628.4039, 459.8451
628.8860, 455.0437
629.3682, 450.4735
629.8503, 447.4736
630.3324, 445.8365
630.8145, 444.0891
631.2966, 438.6609
631.7787, 434.7268
632.2609, 437.2571
632.7430, 449.4157
633.2251, 457.9566
633.7072, 457.6615
634.1893, 454.2470
634.6714, 452.4916
635.1536, 453.7864
635.6357, 453.4234
636.1178, 450.0976
636.5999, 445.9868
637.0820, 446.1875
637.5641, 450.9748
638.0463, 452.8356
638.5284, 447.4141
639.0105, 439.2620
639.4926, 438.1677
639.9747, 443.0841
640.4568, 447.9258
640.9390, 448.1870
641.4211, 447.2441
641.9032, 449.0804
642.3853, 453.9585
642.8674, 456.5082
643.3495, 453.1827
643.8317, 447.7072
644.3138, 442.2247
644.7959, 434.3172
645.2780, 432.0065
645.7601, 438.0848
646.2422, 447.2915
646.7244, 453.7037
647.2065, 456.9282
647.6886, 459.1220
648.1707, 460.6544
648.6528, 461.3015
649.1349, 460.3903
649.6171, 458.0540
650.0992, 455.2273
650.5813, 450.3473
651.0634, 446.4558
651.5455, 448.9236
652.0276, 456.5141
652.5098, 462.4675
652.9919, 462.1461
653.4740, 459.8748
653.9561, 457.9469
654.4382, 456.4763
654.9203, 456.1218
655.4025, 458.5926
655.8846, 460.8736
656.3667, 460.5268
656.8488, 455.7405
657.3309, 454.1600
657.8130, 457.0674
658.2952, 461.3542
658.7773, 462.0568
659.2594, 459.5774
659.7415, 458.8962
660.2236, 462.1230
660.7057, 466.3947
661.1879, 467.3885
661.6700, 466.0222
662.1521, 464.8347
662.6342, 465.3063
663.1163, 466.1340
663.5984, 465.8797
664.0806, 464.8753
664.5627, 465.8929
665.0448, 471.4115
665.5269, 477.4975
666.0090, 483.2372
666.4911, 489.1347
666.9733, 489.8427
667.4554, 482.9210
667.9375, 475.6483
668.4196, 474.9597
668.9017, 480.5804
669.3839, 483.5588
669.8660, 482.7731
670.3481, 480.7992
670.8302, 479.3285
671.3123, 479.0300
671.7944, 481.8433
672.2766, 491.2267
672.7587, 499.1663
673.2408, 498.6074
673.7229, 493.0860
674.2050, 489.5259
674.6871, 489.3381
675.1693, 491.9497
675.6514, 500.1223
676.1335, 511.8143
676.6156, 515.3771
677.0977, 506.9510
677.5798, 499.1964
678.0620, 498.2678
678.5441, 503.3378
679.0262, 506.1302
679.5083, 506.5111
679.9904, 507.1959
680.4725, 511.3011
680.9547, 516.9048
681.4368, 520.4630
681.9189, 521.3636
682.4010, 521.8963
682.8831, 522.7742
683.3652, 524.4502
683.8474, 527.6279
684.3295, 535.9406
684.8116, 540.2062
685.2937, 534.5692
685.7758, 526.2065
686.2579, 524.8801
686.7401, 533.4360
687.2222, 541.3575
687.7043, 547.1242
688.1864, 550.8017
688.6685, 552.0088
689.1506, 550.8704
689.6328, 549.3437
690.1149, 546.9921
690.5970, 545.6101
691.0791, 549.8105
691.5612, 558.2184
692.0433, 563.7433
692.5255, 557.0994
693.0076, 550.8597
693.4897, 554.4722
693.9718, 569.6541
694.4539, 581.7276
694.9360, 586.8761
695.4182, 590.0984
695.9003, 594.2361
696.3824, 600.0358
696.8645, 602.5784
697.3466, 600.4790
697.8287, 598.7573
698.3109, 604.1564
698.7930, 615.1821
699.2751, 624.0276
699.7572, 629.2509
700.2393, 632.0862
700.7214, 630.7546
701.2036, 628.5202
701.6857, 630.8916
702.1678, 643.7608
702.6499, 656.9773
703.1320, 666.5507
703.6141, 673.7010
704.0963, 681.7509
704.5784, 694.6608
705.0605, 702.6841
705.5426, 701.6055
706.0247, 694.2076
706.5068, 693.0563
706.9890, 698.6054
707.4711, 706.4557
707.9532, 714.8230
708.4353, 723.7065
708.9174, 734.0665
709.3995, 745.5468
709.8817, 754.1519
710.3638, 753.9840
710.8459, 751.6930
711.3280, 754.0630
711.8101, 762.6501
712.2922, 768.2058
712.7744, 760.6094
713.2565, 754.7960
713.7386, 761.3699
714.2207, 787.3395
714.7028, 807.7101
715.1849, 821.9131
715.6671, 831.8292
716.1492, 839.2042
716.6313, 844.1366
717.1134, 848.5980
717.5955, 852.9501
718.0776, 856.6781
718.5598, 857.3154
719.0419, 857.0569
719.5240, 860.1307
720.0061, 868.4955
720.4882, 879.9975
720.9703, 896.7766
721.4525, 915.8434
721.9346, 930.4675
722.4167, 936.9785
722.8988, 942.7500
723.3809, 948.6663
723.8630, 954.9044
724.3452, 962.0053
724.8273, 969.8380
725.3094, 979.3051
725.7915, 991.8444
726.2736, 1005.882
726.7557, 1017.023
727.2379, 1025.586
727.7200, 1034.062
728.2021, 1043.598
728.6842, 1054.024
729.1663, 1065.592
729.6484, 1078.300
730.1306, 1090.885
730.6127, 1104.495
731.0948, 1116.532
731.5769, 1124.794
732.0590, 1127.079
732.5411, 1135.535
733.0233, 1151.447
733.5054, 1170.648
733.9875, 1189.955
734.4696, 1209.395
734.9517, 1228.701
735.4338, 1248.111
735.9160, 1266.426
736.3981, 1280.348
736.8802, 1293.042
737.3623, 1309.745
737.8444, 1335.349
738.3266, 1358.375
738.8087, 1371.307
739.2908, 1380.334
739.7729, 1394.316
740.2551, 1415.196
740.7372, 1438.085
741.2193, 1462.333
741.7014, 1488.383
742.1835, 1517.969
742.6656, 1551.016
743.1478, 1583.508
743.6299, 1613.042
744.1120, 1643.083
744.5941, 1680.674
745.0762, 1723.469
745.5583, 1765.420
746.0405, 1796.325
746.5226, 1831.807
747.0047, 1879.877
747.4868, 1939.886
747.9689, 2006.795
748.4510, 2086.334
748.9332, 2162.990
749.4153, 2227.312
749.8974, 2281.863
750.3795, 2361.787
750.8616, 2468.787
751.3438, 2584.770
751.8259, 2699.334
752.3080, 2813.738
752.7901, 2933.714
753.2722, 3058.926
753.7543, 3189.182
754.2365, 3320.086
754.7186, 3459.076
755.2007, 3610.755
755.6828, 3778.018
756.1649, 3951.606
756.6470, 4136.397
757.1292, 4323.887
757.6113, 4507.568
758.0934, 4682.958
758.5755, 4878.362
759.0576, 5101.854
759.5397, 5324.434
760.0219, 5512.420
760.5040, 5675.991
760.9861, 5845.660
761.4682, 6028.167
761.9503, 6197.056
762.4324, 6326.551
762.9146, 6433.718
763.3967, 6540.475
763.8788, 6668.915
764.3609, 6769.307
764.8430, 6825.864
765.3251, 6853.613
765.8073, 6866.366
766.2894, 6860.646
766.7715, 6854.669
767.2536, 6853.407
767.7357, 6848.195
768.2178, 6818.852
768.7000, 6771.236
769.1821, 6730.897
769.6642, 6708.844
770.1463, 6691.947
770.6284, 6670.881
771.1105, 6646.558
771.5927, 6620.740
772.0748, 6588.400
772.5569, 6560.926
773.0390, 6537.364
773.5211, 6521.097
774.0032, 6520.571
774.4854, 6534.723
774.9675, 6570.756
775.4496, 6639.474
775.9317, 6723.892
776.4138, 6773.458
776.8959, 6795.722
777.3781, 6833.988
777.8602, 6915.106
778.3423, 7018.389
778.8244, 7138.719
779.3065, 7269.854
779.7886, 7387.025
780.2708, 7465.629
780.7529, 7547.339
781.2350, 7653.199
781.7171, 7778.514
782.1992, 7875.048
782.6813, 7933.758
783.1635, 7996.354
783.6456, 8090.125
784.1277, 8202.795
784.6098, 8300.188
785.0919, 8381.978
785.5740, 8449.345
786.0562, 8490.420
786.5383, 8527.573
787.0204, 8579.561
787.5025, 8647.950
787.9846, 8718.001
788.4667, 8782.323
788.9489, 8850.642
789.4310, 8917.938
789.9131, 8980.144
790.3952, 9113.783
790.8773, 9326.959
791.3594, 9568.800
791.8416, 9793.035
792.3237, 10015.91
792.8058, 10272.72
793.2879, 10567.70
793.7700, 10913.33
794.2521, 11322.98
794.7343, 11784.87
795.2164, 12277.09
795.6985, 12793.39
796.1806, 13392.07
796.6627, 14105.64
797.1448, 14873.96
797.6270, 15639.92
798.1091, 16388.24
798.5912, 17263.51
799.0733, 18283.95
799.5554, 19384.74
800.0375, 20486.29
800.5197, 21615.48
801.0018, 22840.86
801.4839, 24170.79
801.9660, 25549.94
802.4481, 26944.49
802.9302, 28373.78
803.4124, 29858.24
803.8945, 31430.59
804.3766, 32997.47
804.8587, 34579.43
805.3408, 36127.04
805.8229, 37609.56
806.3051, 39026.68
806.7872, 40340.97
807.2693, 41561.34
807.7514, 42626.63
808.2335, 43500.46
808.7156, 44185.34
809.1978, 44680.76
809.6799, 44978.26
810.1620, 45114.64
810.6441, 45114.20
811.1262, 44949.74
811.6083, 44598.63
812.0905, 44054.98
812.5726, 43346.64
813.0547, 42471.72
813.5368, 41451.60
814.0189, 40314.52
814.5010, 39057.73
814.9832, 37649.95
815.4653, 36082.76
815.9474, 34421.52
816.4295, 32657.50
816.9116, 30849.28
817.3937, 29061.16
817.8759, 27324.56
818.3580, 25609.79
818.8401, 23881.45
819.3222, 22212.16
819.8043, 20658.32
820.2864, 19225.39
820.7686, 17877.12
821.2507, 16620.20
821.7328, 15451.88
822.2149, 14393.95
822.6970, 13440.46
823.1791, 12560.22
823.6613, 11756.22
824.1434, 11021.60
824.6255, 10366.42
825.1076, 9779.138
825.5897, 9257.907
826.0718, 8844.275
826.5540, 8428.684
827.0361, 7987.217
827.5182, 7563.275
828.0003, 7207.175
828.4824, 6921.073
828.9645, 6646.303
829.4467, 6375.142
829.9288, 6118.189
830.4109, 5889.557
830.8930, 5683.320
831.3751, 5487.817
831.8572, 5302.419
832.3394, 5126.625
832.8215, 4953.290
833.3036, 4792.367
833.7857, 4653.162
834.2678, 4545.477
834.7499, 4435.891
835.2321, 4322.485
835.7142, 4208.447
836.1963, 4099.304
836.6784, 3992.625
837.1605, 3877.268
837.6426, 3745.824
838.1248, 3634.513
838.6069, 3591.649
839.0890, 3574.895
839.5711, 3538.015
840.0532, 3460.646
840.5353, 3381.735
841.0175, 3299.115
841.4996, 3220.740
841.9817, 3158.304
842.4638, 3112.383
842.9459, 3059.488
843.4280, 2996.034
843.9102, 2932.659
844.3923, 2878.924
844.8744, 2833.612
845.3565, 2797.963
845.8386, 2776.234
846.3207, 2747.768
846.8029, 2689.894
847.2850, 2631.014
847.7671, 2597.960
848.2492, 2607.948
848.7313, 2596.012
849.2134, 2557.074
849.6956, 2509.328
850.1777, 2467.904
850.6598, 2432.379
851.1419, 2403.999
851.6240, 2383.947
852.1061, 2358.979
852.5883, 2310.750
853.0704, 2257.686
853.5525, 2216.189
854.0346, 2192.050
854.5167, 2172.057
854.9988, 2162.797
855.4810, 2147.777
855.9631, 2109.238
856.4452, 2046.396
856.9273, 2007.839
857.4094, 1996.346
857.8915, 1988.056
858.3737, 1963.232
858.8558, 1928.943
859.3379, 1892.514
859.8200, 1854.837
860.3021, 1819.347
860.7842, 1789.494
861.2664, 1761.188
861.7485, 1731.601
862.2306, 1699.674
862.7127, 1676.342
863.1948, 1663.324
863.6769, 1650.521
864.1591, 1628.014
864.6412, 1600.878
865.1233, 1581.487
865.6054, 1569.544
866.0875, 1557.929
866.5696, 1543.151
867.0518, 1526.457
867.5339, 1507.509
868.0160, 1485.967
868.4981, 1468.281
868.9802, 1455.661
869.4623, 1444.373
869.9445, 1434.211
870.4266, 1423.958
870.9087, 1406.026
871.3908, 1381.052
871.8729, 1358.245
872.3550, 1342.479
872.8372, 1331.495
873.3193, 1325.832
873.8014, 1324.086
874.2835, 1319.344
874.7656, 1306.438
875.2477, 1294.747
875.7299, 1287.609
876.2120, 1283.260
876.6941, 1273.076
877.1762, 1257.114
877.6583, 1244.443
878.1404, 1241.203
878.6226, 1241.205
879.1047, 1238.011
879.5869, 1231.473
880.0690, 1221.153
880.5511, 1203.737
881.0332, 1186.065
881.5153, 1167.436
881.9974, 1150.702
882.4796, 1142.988
882.9617, 1146.360
883.4438, 1146.776
883.9259, 1140.198
884.4080, 1130.722
884.8901, 1124.677
885.3723, 1120.847
885.8544, 1116.425
886.3365, 1110.784
886.8186, 1103.880
887.3007, 1095.460
887.7828, 1085.890
888.2650, 1075.104
888.7471, 1060.410
889.2292, 1052.950
889.7113, 1055.780
890.1934, 1061.186
890.6755, 1059.582
891.1577, 1052.277
891.6398, 1042.579
892.1219, 1030.570
892.6040, 1019.464
893.0861, 1012.109
893.5682, 1006.503
894.0504, 1000.851
894.5325, 994.9254
895.0146, 988.7928
895.4967, 981.7279
895.9788, 975.8064
896.4609, 973.9055
896.9431, 975.1083
897.4252, 974.4457
897.9073, 971.6563
898.3894, 965.2449
898.8715, 949.0035
899.3536, 932.1829
899.8358, 923.9791
900.3179, 926.2465
900.8000, 924.1902
901.2821, 912.9435
901.7642, 902.2709
902.2463, 896.8878
902.7285, 896.0692
903.2106, 893.0457
903.6927, 887.9778
904.1748, 884.6652
904.6569, 885.8480
905.1390, 889.5867
905.6212, 894.5546
906.1033, 900.4480
906.5854, 906.4965
907.0675, 912.3221
907.5496, 918.4742
908.0317, 925.4333
908.5139, 932.6377
908.9960, 937.3422
909.4781, 939.5118
909.9602, 945.4606
910.4423, 957.8915
910.9244, 974.1945
911.4066, 993.5720
911.8887, 1013.994
912.3708, 1031.997
912.8529, 1044.677
913.3350, 1056.845
913.8171, 1070.144
914.2993, 1082.736
914.7814, 1091.122
915.2635, 1094.765
915.7456, 1102.235
916.2277, 1115.756
916.7098, 1128.939
917.1920, 1133.962
917.6741, 1133.908
918.1562, 1133.997
918.6383, 1137.052
919.1204, 1133.773
919.6025, 1120.929
920.0847, 1100.774
920.5668, 1073.311
921.0489, 1036.872
921.5310, 1004.520
922.0131, 976.7394
922.4952, 949.9756
922.9774, 921.9918
923.4595, 892.9946
923.9416, 861.9880
924.4237, 829.4059
924.9058, 799.9839
925.3879, 775.2617
925.8701, 754.3828
926.3522, 736.7576
926.8343, 722.2065
927.3164, 709.9283
927.7985, 699.8986
928.2806, 691.9945
928.7628, 688.5023
929.2449, 684.9991
929.7270, 671.2401
930.2091, 651.6017
930.6912, 637.5489
931.1733, 639.2569
931.6555, 641.0215
932.1376, 636.7581
932.6197, 630.3077
933.1018, 629.0173
933.5839, 634.0556
934.0660, 635.1252
934.5482, 629.8420
935.0303, 621.6899
935.5124, 612.8748
935.9945, 604.9124
936.4766, 600.8233
936.9587, 602.4729
937.4409, 604.4993
937.9230, 605.8674
938.4051, 606.4204
938.8872, 606.1456
939.3693, 605.1461
939.8514, 601.7680
940.3336, 595.4848
940.8157, 590.9780
941.2978, 593.6332
941.7799, 599.7691
942.2620, 605.5294
942.7441, 610.3306
943.2263, 610.5450
943.7084, 598.0051
944.1905, 587.7098
944.6726, 586.2408
945.1547, 592.1985
945.6368, 597.4879
946.1190, 602.2233
946.6011, 605.0177
947.0832, 605.0537
947.5653, 603.0440
948.0474, 598.1331
948.5295, 592.0403
949.0117, 588.7655
949.4938, 592.4352
949.9759, 595.5813
950.4580, 596.3392
950.9401, 596.1840
951.4222, 597.1932
951.9044, 599.3727
952.3865, 602.8935
952.8686, 608.3342
953.3507, 612.4539
953.8328, 611.2764
954.3149, 606.9691
954.7971, 601.4889
955.2792, 594.0368
955.7613, 590.5425
956.2434, 594.9302
956.7255, 599.7357
957.2076, 600.9643
957.6898, 598.6190
958.1719, 591.6068
958.6540, 579.9812
959.1361, 571.1113
959.6182, 571.1955
960.1003, 575.3574
960.5825, 580.8876
961.0646, 586.9812
961.5467, 590.0167
962.0288, 587.7042
962.5109, 584.7137
962.9930, 581.9787
963.4752, 579.4033
963.9573, 576.5460
964.4394, 573.5891
964.9215, 571.5732
965.4036, 571.1318
965.8857, 571.1527
966.3679, 570.4560
966.8500, 569.7970
967.3321, 570.2968
967.8142, 574.7747
968.2963, 574.9670
968.7784, 568.9818
969.2606, 562.4561
969.7427, 562.5013
970.2248, 566.8624
970.7069, 566.1028
971.1890, 559.6006
971.6711, 555.4023
972.1533, 562.3868
972.6354, 570.4944
973.1175, 571.3624
973.5996, 565.0629
974.0817, 566.1528
974.5638, 577.9398
975.0460, 584.9614
975.5281, 577.7744
976.0102, 564.6122
976.4923, 563.8682
976.9744, 572.0567
977.4565, 578.9398
977.9387, 579.4791
978.4208, 578.6236
978.9029, 577.5672
979.3850, 576.3270
979.8671, 574.2442
980.3492, 570.4984
980.8314, 571.9824
981.3135, 580.6933
981.7956, 589.0909
982.2777, 589.1113
982.7598, 583.5190
983.2419, 574.6884
983.7241, 562.1022
984.2062, 553.9683
984.6883, 555.0629
985.1704, 559.0708
985.6525, 563.8735
986.1346, 569.3488
986.6168, 575.3005
987.0989, 581.5900
987.5810, 583.8872
988.0631, 574.6974
988.5452, 564.5632
989.0273, 565.9329
989.5095, 574.2262
989.9916, 577.5753
990.4737, 569.6042
990.9558, 562.8107
991.4379, 558.5393
991.9200, 556.2483
992.4022, 555.4531
992.8843, 555.9968
993.3664, 557.6266
993.8485, 560.6392
994.3306, 562.4439
994.8127, 559.6234
995.2949, 555.9062
995.7770, 555.0474
996.2591, 557.9080
996.7412, 558.1313
997.2233, 555.0442
997.7054, 551.7728
998.1876, 550.4047
998.6697, 550.1112
999.1518, 549.0522
999.6339, 547.3860
1000.116, 545.7402
1000.598, 543.2722
1001.080, 542.2056
1001.562, 545.0087
1002.044, 548.8929
1002.527, 548.3423
1003.009, 542.9869
1003.491, 538.1383
1003.973, 534.3569
1004.455, 533.3003
1004.937, 540.9796
1005.419, 550.5076
1005.901, 552.4001
1006.384, 542.9410
1006.866, 534.4918
1007.348, 527.6177
1007.830, 523.4639
1008.312, 523.5712
1008.794, 527.0760
1009.276, 528.2254
1009.758, 527.4779
1010.240, 528.6456
1010.723, 539.1064
1011.205, 547.1013
1011.687, 541.4738
1012.169, 527.9571
1012.651, 522.8325
1013.133, 530.3878
1013.615, 534.2524
1014.097, 531.1833
1014.580, 525.8419
1015.062, 524.2295
1015.544, 525.1857
1016.026, 527.3022
1016.508, 530.9865
1016.990, 531.6765
1017.472, 524.0653
1017.954, 516.1093
1018.436, 512.1759
1018.919, 512.1689
1019.401, 513.8934
1019.883, 517.3544
1020.365, 520.6577
1020.847, 525.8174
1021.329, 527.7172
1021.811, 516.6262
1022.293, 498.5845
1022.776, 488.4586
1023.258, 496.0511
1023.740, 499.7983
1024.222, 495.9792
1024.704, 490.3888
1025.186, 492.6140
1025.668, 499.8362
1026.150, 501.7042
1026.632, 496.4369
1027.115, 490.8011
1027.597, 488.0850
1028.079, 487.1082
1028.561, 487.1939
1029.043, 488.2548
1029.525, 490.3169
1030.007, 493.5008
1030.489, 496.6385
1030.972, 501.0534
1031.454, 502.9986
1031.936, 492.7821
1032.418, 476.6396
1032.900, 468.0578
1033.382, 480.5318
1033.864, 487.4293
1034.346, 483.6620
1034.828, 476.7510
1035.311, 475.6893
1035.793, 479.3702
1036.275, 480.3960
1036.757, 478.1678
1037.239, 475.1667
1037.721, 473.5034
1038.203, 471.3972
1038.685, 466.3375
1039.167, 459.0201
1039.650, 456.7344
1040.132, 460.9148
1040.614, 464.1382
1041.096, 464.3679
1041.578, 461.5056
1042.060, 450.4817
1042.542, 437.3756
1043.024, 434.4758
1043.507, 454.4846
1043.989, 466.5402
1044.471, 459.7734
1044.953, 449.7814
1045.435, 449.8131
1045.917, 458.7480
1046.399, 460.2986
1046.881, 454.5769
1047.364, 450.3022
1047.846, 457.0335
1048.328, 463.8445
1048.810, 462.1909
1049.292, 453.8551
1049.774, 447.9483
1050.256, 444.5229
1050.738, 444.1974
1051.220, 448.2076
1051.703, 452.3471
1052.185, 448.8451
1052.667, 441.7970
1053.149, 438.4871
1053.631, 441.2606
1054.113, 443.3999
1054.595, 442.9649
1055.077, 441.6597
1055.559, 440.4146
1056.042, 439.0512
1056.524, 436.0573
1057.006, 431.5668
1057.488, 426.6768
1057.970, 420.7029
1058.452, 415.8425
1058.934, 412.9330
1059.416, 412.2865
1059.899, 414.7512
1060.381, 421.9918
1060.863, 425.6665
1061.345, 424.2843
1061.827, 422.8152
1062.309, 430.1904
1062.791, 438.9178
1063.273, 435.1493
1063.755, 418.1544
1064.238, 406.3502
1064.720, 408.8032
1065.202, 411.8473
1065.684, 410.9945
1066.166, 408.4700
1066.648, 411.6669
1067.130, 419.1513
1067.612, 424.5869
1068.094, 425.9151
1068.577, 424.8120
1069.059, 421.3529
1069.541, 416.5214
1070.023, 410.8736
1070.505, 403.7838
1070.987, 400.0096
1071.469, 399.7943
1071.951, 400.0278
1072.434, 396.5144
1072.916, 393.7314
1073.398, 398.9369
1073.880, 409.6756
1074.362, 417.1324
1074.844, 418.8505
1075.326, 418.0927
1075.808, 414.4003
1076.291, 409.8452
1076.773, 407.4698
1077.255, 406.5695
1077.737, 404.8552
1078.219, 401.9211
1078.701, 400.2945
1079.183, 403.1253
1079.665, 405.7184
1080.147, 405.4630
1080.630, 402.9396
1081.112, 401.6124
1081.594, 401.4466
1082.076, 401.3730
1082.558, 400.9665
1083.040, 400.5455
1083.522, 399.4502
1084.004, 398.9350
1084.486, 401.1881
1084.969, 409.0499
1085.451, 411.5912
1085.933, 407.4898
1086.415, 402.9747
1086.897, 402.7818
1087.379, 405.3661
1087.861, 410.0218
1088.343, 415.4462
1088.826, 416.5284
1089.308, 405.0161
1089.790, 397.7444
1090.272, 398.9142
1090.754, 404.1034
1091.236, 407.2541
1091.718, 408.4482
1092.200, 407.8187
1092.682, 405.3098
1093.165, 402.1236
1093.647, 396.5093
1094.129, 392.8402
1094.611, 394.8380
1095.093, 401.4509
1095.575, 405.6549
1096.057, 407.3923
1096.539, 408.2999
1097.022, 409.5363
1097.504, 409.0441
1097.986, 401.4757
1098.468, 392.2105
1098.950, 389.1725
1099.432, 396.6982
1099.914, 401.8598
1100.396, 404.0895
1100.879, 405.5197
1101.361, 409.0067
1101.843, 412.1120
1102.325, 407.4478
1102.807, 397.7116
1103.289, 393.1298
1103.771, 403.9547
1104.253, 411.5771
1104.735, 412.7028
1105.218, 409.6560
1105.700, 403.1010
1106.182, 394.7660
1106.664, 394.6468
1107.146, 403.9625
1107.628, 412.7914
1108.110, 416.0593
1108.592, 416.1146
1109.074, 413.1961
1109.557, 408.2757
1110.039, 404.5968
1110.521, 402.1239
1111.003, 401.9336
1111.485, 404.9168
1111.967, 408.4923
1112.449, 411.1410
1112.931, 412.4612
1113.414, 411.4727
1113.896, 407.2700
1114.378, 405.9017
1114.860, 408.3225
1115.342, 409.2788
1115.824, 403.2601
1116.306, 396.1500
1116.788, 399.2262
1117.271, 408.3338
1117.753, 414.2508
1118.235, 412.1755
1118.717, 409.0089
1119.199, 403.8589
1119.681, 400.2976
1120.163, 404.1474
1120.645, 412.0926
1121.127, 412.5251
1121.609, 406.0486
1122.092, 403.1022
1122.574, 415.9950
1123.056, 424.3413
1123.538, 418.8524
1124.020, 407.1514
1124.502, 405.5832
1124.984, 412.6617
1125.466, 414.7902
1125.949, 408.7979
1126.431, 404.0223
1126.913, 409.0574
1127.395, 415.9883
1127.877, 419.5583
1128.359, 419.8696
1128.841, 416.7627
1129.323, 409.8513
1129.806, 406.8614
1130.288, 412.3527
1130.770, 419.0853
1131.252, 419.0554
1131.734, 416.1461
1132.216, 415.8950
1132.698, 420.8770
1133.180, 420.7212
1133.662, 414.3098
1134.145, 407.4478
1134.627, 402.5264
1135.109, 400.2453
1135.591, 404.5325
1136.073, 412.2563
1136.555, 415.3746
1137.037, 405.3624
1137.519, 400.3535
1138.001, 402.9158
1138.484, 407.4643
1138.966, 407.7485
1139.448, 405.6449
1139.930, 405.6190
1140.412, 407.7999
1140.894, 410.7277
1141.376, 415.8062
1141.858, 418.8885
1142.341, 418.4047
1142.823, 416.0372
1143.305, 414.6609
1143.787, 414.1136
1144.269, 413.7074
1144.751, 413.3511
1145.233, 412.8641
1145.715, 411.0146
1146.198, 410.2463
1146.680, 412.3906
1147.162, 416.5787
1147.644, 417.6021
1148.126, 415.9312
1148.608, 418.7021
1149.090, 431.2062
1149.572, 440.7116
1150.054, 435.3807
1150.536, 423.9627
1151.019, 413.5573
1151.501, 404.0334
1151.983, 402.3290
1152.465, 408.7077
1152.947, 415.9821
1153.429, 421.4921
1153.911, 424.7900
1154.393, 424.1382
1154.876, 421.3144
1155.358, 419.3353
1155.840, 418.3594
1156.322, 418.4341
1156.804, 419.6089
1157.286, 421.5705
1157.768, 424.9146
1158.250, 428.3068
1158.733, 430.2440
1159.215, 430.7575
1159.697, 430.1938
1160.179, 428.8965
1160.661, 425.5352
1161.143, 418.9328
1161.625, 413.1329
1162.107, 415.1172
1162.589, 419.9520
1163.072, 417.7613
1163.554, 408.4616
1164.036, 403.5743
1164.518, 409.4184
1165.000, 413.8247
1165.482, 413.0440
1165.964, 410.8781
1166.446, 415.7145
1166.928, 424.1561
1167.411, 427.7671
1167.893, 424.0209
1168.375, 422.8224
1168.857, 432.0349
1169.339, 438.3487
1169.821, 435.4203
1170.303, 426.9354
1170.785, 424.3602
1171.268, 425.5373
1171.750, 422.6467
1172.232, 410.6106
1172.714, 401.2057
1173.196, 399.4711
1173.678, 401.9125
1174.160, 407.6323
1174.642, 415.9914
1175.125, 422.6180
1175.607, 427.6234
1176.089, 431.3071
1176.571, 434.1114
1177.053, 435.3075
1177.535, 434.1231
1178.017, 431.4310
1178.499, 427.3763
1178.981, 421.9713
1179.464, 419.4663
1179.946, 419.7011
1180.428, 419.7268
1180.910, 418.6478
1181.392, 415.8193
1181.874, 406.9899
1182.356, 398.1607
1182.838, 399.9077
1183.320, 412.7478
1183.803, 421.4138
1184.285, 424.7137
1184.767, 423.9006
1185.249, 413.2246
1185.731, 405.1871
1186.213, 412.8347
1186.695, 429.4862
1187.177, 435.3900
1187.660, 429.6891
1188.142, 426.5250
1188.624, 428.3891
1189.106, 431.4991
1189.588, 435.3796
1190.070, 436.7769
1190.552, 430.2737
1191.034, 417.7877
1191.516, 413.5984
1191.999, 418.6444
1192.481, 422.7069
1192.963, 422.6382
1193.445, 423.0063
1193.927, 430.1111
1194.409, 438.7828
1194.891, 444.4621
1195.373, 446.8083
1195.855, 443.0753
1196.338, 432.2650
1196.820, 424.0161
1197.302, 422.9110
1197.784, 424.2996
1198.266, 422.3335
1198.748, 420.2715
1199.230, 423.3105
1199.712, 433.3856
1200.195, 438.4236
1200.677, 438.1286
1201.159, 434.5218
1201.641, 425.1234
1202.123, 417.4284
1202.605, 425.0349
1203.087, 438.4913
1203.569, 441.3120
1204.052, 425.7377
1204.534, 418.9231
1205.016, 421.8840
1205.498, 427.2173
1205.980, 432.1190
1206.462, 434.7829
1206.944, 430.5746
1207.426, 422.9528
1207.908, 420.4898
1208.391, 426.8421
1208.873, 429.2009
1209.355, 426.4268
1209.837, 423.0504
1210.319, 424.8234
1210.801, 426.6571
1211.283, 419.9974
1211.765, 408.1828
1212.247, 404.1057
1212.730, 411.2199
1213.212, 417.5611
1213.694, 422.1155
1214.176, 424.6944
1214.658, 423.5775
1215.140, 421.5935
1215.622, 422.7067
1216.104, 426.2682
1216.587, 426.9034
1217.069, 422.4185
1217.551, 422.4526
1218.033, 429.7656
1218.515, 436.7245
1218.997, 433.1196
1219.479, 425.6276
1219.961, 421.3376
1220.443, 420.8392
1220.926, 421.7721
1221.408, 424.6402
1221.890, 426.3954
1222.372, 426.3443
1222.854, 424.8988
1223.336, 419.2737
1223.818, 414.6148
1224.300, 418.8165
1224.782, 433.1216
1225.265, 440.3256
1225.747, 439.2313
1226.229, 436.2890
1226.711, 432.8228
1227.193, 430.0962
1227.675, 431.2255
1228.157, 433.0314
1228.639, 431.0807
1229.122, 424.3947
1229.604, 420.1047
1230.086, 418.0762
1230.568, 419.7693
1231.050, 428.0540
1231.532, 435.4257
1232.014, 429.9319
1232.496, 420.3185
1232.979, 418.1459
1233.461, 425.2541
1233.943, 430.1380
1234.425, 432.7816
1234.907, 432.8033
1235.389, 428.6120
1235.871, 423.9847
1236.353, 423.4736
1236.835, 424.2658
1237.318, 422.0368
1237.800, 415.7482
1238.282, 413.8728
1238.764, 416.5962
1239.246, 420.2464
1239.728, 423.6811
1240.210, 426.0297
1240.692, 427.1256
1241.175, 426.2122
1241.657, 421.4192
1242.139, 411.1190
1242.621, 409.3138
1243.103, 416.0712
1243.585, 421.5251
1244.067, 416.0629
1244.549, 411.1268
1245.031, 417.3446
1245.514, 427.2159
1245.996, 429.7377
1246.478, 424.0879
1246.960, 421.5186
1247.442, 422.1043
1247.924, 423.4819
1248.406, 424.6509
1248.888, 425.6080
1249.370, 426.7497
1249.853, 427.4082
1250.335, 425.9768
1250.817, 422.6263
1251.299, 424.0148
1251.781, 429.8955
1252.263, 432.5516
1252.745, 422.6598
1253.227, 413.8790
1253.710, 413.1786
1254.192, 416.1560
1254.674, 418.2758
1255.156, 419.4117
1255.638, 418.2906
1256.120, 414.9916
1256.602, 411.2933
1257.084, 403.7617
1257.567, 402.3808
1258.049, 413.9740
1258.531, 428.0249
1259.013, 427.3527
1259.495, 416.7555
1259.977, 415.3778
1260.459, 423.6119
1260.941, 428.5130
1261.423, 420.3365
1261.906, 413.3295
1262.388, 411.1152
1262.870, 410.7238
1263.352, 407.3091
1263.834, 402.6091
1264.316, 401.2794
1264.798, 403.4067
1265.280, 404.4467
1265.762, 402.6821
1266.245, 399.9239
1266.727, 395.6851
1267.209, 392.3965
1267.691, 395.0110
1268.173, 400.0692
1268.655, 401.6342
1269.137, 399.3849
1269.619, 397.2882
1270.102, 395.1233
1270.584, 395.3405
1271.066, 399.0471
1271.548, 403.2551
1272.030, 403.7886
1272.512, 402.8763
1272.994, 402.8341
1273.476, 403.9433
1273.958, 406.4973
1274.441, 411.4546
1274.923, 412.6111
1275.405, 407.9896
1275.887, 402.0096
1276.369, 399.0550
1276.851, 397.1330
1277.333, 394.1399
1277.815, 390.3702
1278.297, 388.0010
1278.780, 387.0284
1279.262, 388.4891
1279.744, 393.1594
1280.226, 396.9088
1280.708, 396.1790
1281.190, 393.4036
1281.672, 389.6261
1282.154, 385.4569
1282.637, 382.7745
1283.119, 381.5770
1283.601, 382.0372
1284.083, 384.3178
1284.565, 387.2603
1285.047, 393.1511
1285.529, 395.7589
1286.011, 390.5422
1286.494, 381.4244
1286.976, 380.0001
1287.458, 384.3184
1287.940, 388.5506
1288.422, 391.8362
1288.904, 392.1046
1289.386, 384.0929
1289.868, 379.1945
1290.350, 381.9143
1290.833, 388.7743
1291.315, 395.5080
1291.797, 400.3169
1292.279, 398.3227
1292.761, 387.5090
1293.243, 380.4608
1293.725, 379.9643
1294.207, 379.2203
1294.689, 375.4635
1295.172, 371.6494
1295.654, 372.5460
1296.136, 375.7881
1296.618, 378.6060
1297.100, 380.5980
1297.582, 380.8422
1298.064, 378.8373
1298.546, 378.7310
1299.029, 382.6511
1299.511, 386.2030
1299.993, 384.9031
1300.475, 380.8682
1300.957, 374.7994
1301.439, 367.5876
1301.921, 363.9348
1302.403, 363.7769
1302.885, 365.5965
1303.368, 369.4537
1303.850, 373.0855
1304.332, 375.2161
1304.814, 376.2370
1305.296, 377.2281
1305.778, 377.1646
1306.260, 369.2567
##END=



