##NAMES=Mimetite
##RRUFFID=R050007
##IDEAL CHEMISTRY=Pb^2+^_5_(As^5+^O_4_)_3_Cl
##LOCALITY=Pingtouling, Guangdong, China
##OWNER=RRUFF
##SOURCE=Eugene Schlepp
##DESCRIPTION=Reddish orange colored hexagonal prisms
##STATUS=The identification of this mineral has been confirmed by X-ray diffraction and chemical analysis
##URL=rruff.info/R050007
##MEASURED CHEMISTRY=Pb_5.00_((As_0.99_P_0.01_)O_4_)_3_Cl_1.00_
107.5201, 92.20428
108.0023, 94.65967
108.4844, 99.11131
108.9665, 103.0286
109.4486, 105.1448
109.9307, 106.0281
110.4128, 107.0934
110.8950, 108.7071
111.3771, 110.9511
111.8592, 113.5801
112.3413, 116.2010
112.8234, 120.1903
113.3055, 127.4766
113.7877, 137.6247
114.2698, 146.3817
114.7519, 151.1532
115.2340, 154.3270
115.7161, 158.7058
116.1982, 164.4928
116.6804, 171.5767
117.1625, 180.4416
117.6446, 191.4526
118.1267, 201.5886
118.6088, 207.0473
119.0909, 212.2937
119.5731, 221.4835
120.0552, 236.2545
120.5373, 253.7256
121.0194, 269.2718
121.5015, 281.6302
121.9836, 295.6905
122.4658, 312.4869
122.9479, 331.7882
123.4300, 353.4916
123.9121, 377.6222
124.3942, 404.2309
124.8763, 433.3485
125.3585, 466.3545
125.8406, 500.2234
126.3227, 532.9502
126.8048, 566.4028
127.2869, 603.3194
127.7690, 645.0711
128.2512, 690.7364
128.7333, 734.7982
129.2154, 771.5623
129.6975, 814.1898
130.1796, 867.9805
130.6617, 928.1591
131.1439, 989.0345
131.6260, 1047.919
132.1081, 1103.855
132.5902, 1149.139
133.0723, 1173.647
133.5544, 1197.170
134.0366, 1222.082
134.5187, 1248.541
135.0008, 1276.125
135.4829, 1304.401
135.9650, 1333.380
136.4471, 1363.654
136.9293, 1393.091
137.4114, 1425.706
137.8935, 1460.244
138.3756, 1498.729
138.8577, 1545.621
139.3398, 1604.285
139.8220, 1674.982
140.3041, 1753.294
140.7862, 1842.052
141.2683, 1933.717
141.7504, 2022.851
142.2325, 2110.879
142.7147, 2203.661
143.1968, 2307.044
143.6789, 2420.964
144.1610, 2532.188
144.6431, 2636.971
145.1252, 2742.081
145.6074, 2855.878
146.0895, 2976.244
146.5716, 3089.184
147.0537, 3182.571
147.5358, 3255.123
148.0179, 3328.017
148.5001, 3410.089
148.9822, 3486.052
149.4643, 3545.932
149.9464, 3589.443
150.4285, 3619.477
150.9106, 3636.089
151.3928, 3639.247
151.8749, 3639.064
152.3570, 3635.982
152.8391, 3629.805
153.3212, 3619.969
153.8033, 3606.407
154.2855, 3590.123
154.7676, 3567.710
155.2497, 3542.250
155.7318, 3527.313
156.2139, 3532.482
156.6960, 3545.569
157.1782, 3550.586
157.6603, 3545.042
158.1424, 3543.287
158.6245, 3559.568
159.1066, 3588.521
159.5887, 3618.486
160.0709, 3644.863
160.5530, 3671.200
161.0351, 3701.928
161.5172, 3736.898
161.9993, 3776.718
162.4814, 3823.279
162.9636, 3874.704
163.4457, 3929.655
163.9278, 3992.978
164.4099, 4057.802
164.8920, 4108.707
165.3741, 4140.396
165.8563, 4172.729
166.3384, 4222.212
166.8205, 4280.430
167.3026, 4333.434
167.7847, 4376.648
168.2668, 4410.943
168.7490, 4436.167
169.2311, 4447.343
169.7132, 4461.072
170.1953, 4492.719
170.6774, 4531.697
171.1595, 4561.095
171.6417, 4571.952
172.1238, 4568.798
172.6059, 4560.702
173.0880, 4542.046
173.5701, 4530.221
174.0522, 4538.137
174.5344, 4555.886
175.0165, 4569.417
175.4986, 4571.865
175.9807, 4565.795
176.4628, 4557.604
176.9449, 4545.493
177.4271, 4534.603
177.9092, 4528.103
178.3913, 4523.561
178.8734, 4516.453
179.3555, 4501.657
179.8376, 4485.473
180.3197, 4488.481
180.8019, 4523.995
181.2840, 4555.567
181.7661, 4572.718
182.2482, 4579.771
182.7303, 4581.231
183.2124, 4578.641
183.6946, 4572.904
184.1767, 4567.276
184.6588, 4565.706
185.1409, 4556.670
185.6230, 4525.666
186.1051, 4490.813
186.5873, 4475.464
187.0694, 4493.062
187.5515, 4529.026
188.0336, 4543.662
188.5157, 4521.992
188.9978, 4503.776
189.4800, 4501.570
189.9621, 4505.156
190.4442, 4504.305
190.9263, 4494.547
191.4084, 4477.899
191.8905, 4458.578
192.3727, 4433.543
192.8548, 4411.225
193.3369, 4394.118
193.8190, 4379.330
194.3011, 4365.163
194.7832, 4351.027
195.2654, 4334.838
195.7475, 4311.846
196.2296, 4278.221
196.7117, 4244.191
197.1938, 4207.645
197.6759, 4173.087
198.1581, 4144.979
198.6402, 4124.655
199.1223, 4109.604
199.6044, 4096.345
200.0865, 4089.627
200.5686, 4074.461
201.0508, 4044.326
201.5329, 4010.111
202.0150, 3979.912
202.4971, 3955.951
202.9792, 3935.990
203.4613, 3915.874
203.9435, 3892.803
204.4256, 3876.491
204.9077, 3878.079
205.3898, 3878.167
205.8719, 3858.334
206.3540, 3817.319
206.8362, 3773.812
207.3183, 3756.578
207.8004, 3783.299
208.2825, 3791.253
208.7646, 3768.944
209.2467, 3738.954
209.7289, 3711.355
210.2110, 3688.864
210.6931, 3670.868
211.1752, 3657.701
211.6573, 3651.692
212.1395, 3642.147
212.6216, 3623.719
213.1037, 3606.591
213.5858, 3598.148
214.0679, 3596.862
214.5500, 3594.512
215.0322, 3581.749
215.5143, 3555.979
215.9964, 3537.393
216.4785, 3531.128
216.9606, 3527.078
217.4427, 3521.582
217.9249, 3514.981
218.4070, 3509.630
218.8891, 3507.952
219.3712, 3510.122
219.8533, 3509.550
220.3354, 3504.339
220.8176, 3498.029
221.2997, 3492.128
221.7818, 3485.823
222.2639, 3477.064
222.7460, 3464.051
223.2281, 3447.274
223.7103, 3433.127
224.1924, 3420.743
224.6745, 3412.429
225.1566, 3410.054
225.6387, 3411.712
226.1208, 3415.861
226.6030, 3422.383
227.0851, 3428.950
227.5672, 3424.918
228.0493, 3395.812
228.5314, 3375.636
229.0135, 3375.510
229.4957, 3384.829
229.9778, 3391.071
230.4599, 3388.488
230.9420, 3381.417
231.4241, 3381.972
231.9062, 3402.187
232.3884, 3408.423
232.8705, 3381.385
233.3526, 3348.831
233.8347, 3338.603
234.3168, 3359.200
234.7989, 3391.135
235.2811, 3399.242
235.7632, 3370.446
236.2453, 3348.539
236.7274, 3338.502
237.2095, 3334.539
237.6916, 3334.449
238.1738, 3337.155
238.6559, 3340.434
239.1380, 3342.669
239.6201, 3345.443
240.1022, 3340.982
240.5843, 3319.494
241.0665, 3298.517
241.5486, 3287.492
242.0307, 3285.938
242.5128, 3286.597
242.9949, 3282.812
243.4770, 3274.267
243.9592, 3264.802
244.4413, 3250.558
244.9234, 3239.127
245.4055, 3236.382
245.8876, 3239.154
246.3697, 3239.285
246.8519, 3230.310
247.3340, 3213.185
247.8161, 3196.323
248.2982, 3173.532
248.7803, 3160.163
249.2624, 3168.166
249.7446, 3186.961
250.2267, 3199.062
250.7088, 3193.671
251.1909, 3177.174
251.6730, 3168.052
252.1551, 3168.984
252.6373, 3172.138
253.1194, 3176.645
253.6015, 3181.106
254.0836, 3183.895
254.5657, 3184.303
255.0478, 3183.299
255.5300, 3181.738
256.0121, 3178.819
256.4942, 3178.457
256.9763, 3182.207
257.4584, 3188.783
257.9406, 3197.439
258.4227, 3208.014
258.9048, 3221.169
259.3869, 3239.659
259.8690, 3263.936
260.3511, 3283.718
260.8333, 3296.992
261.3154, 3304.846
261.7975, 3304.861
262.2796, 3298.004
262.7617, 3295.502
263.2438, 3305.916
263.7260, 3327.916
264.2081, 3355.031
264.6902, 3392.206
265.1723, 3425.530
265.6544, 3441.710
266.1365, 3445.476
266.6187, 3452.167
267.1008, 3473.104
267.5829, 3501.131
268.0650, 3520.009
268.5471, 3526.838
269.0292, 3532.703
269.5114, 3545.183
269.9935, 3561.856
270.4756, 3579.225
270.9577, 3596.042
271.4398, 3613.475
271.9219, 3633.587
272.4041, 3656.521
272.8862, 3678.814
273.3683, 3700.868
273.8504, 3719.815
274.3325, 3730.415
274.8146, 3728.204
275.2968, 3725.319
275.7789, 3729.316
276.2610, 3739.313
276.7431, 3751.681
277.2252, 3764.938
277.7073, 3780.492
278.1895, 3802.835
278.6716, 3834.776
279.1537, 3859.745
279.6358, 3867.875
280.1179, 3865.956
280.6000, 3863.686
281.0822, 3862.409
281.5643, 3865.823
282.0464, 3880.889
282.5285, 3908.796
283.0106, 3932.104
283.4927, 3943.400
283.9749, 3952.735
284.4570, 3971.617
284.9391, 4000.071
285.4212, 4026.186
285.9033, 4038.909
286.3854, 4038.493
286.8676, 4045.712
287.3497, 4064.090
287.8318, 4085.888
288.3139, 4108.702
288.7960, 4132.071
289.2781, 4155.725
289.7603, 4179.974
290.2424, 4203.674
290.7245, 4221.296
291.2066, 4215.440
291.6887, 4225.238
292.1708, 4269.585
292.6530, 4328.188
293.1351, 4374.688
293.6172, 4399.978
294.0993, 4415.582
294.5814, 4441.777
295.0635, 4486.059
295.5457, 4527.543
296.0278, 4563.351
296.5099, 4598.399
296.9920, 4633.669
297.4741, 4670.734
297.9562, 4713.071
298.4384, 4764.733
298.9205, 4826.620
299.4026, 4892.805
299.8847, 4970.120
300.3668, 5044.748
300.8489, 5115.113
301.3311, 5179.260
301.8131, 5233.424
302.2953, 5274.316
302.7774, 5304.283
303.2595, 5335.303
303.7416, 5368.920
304.2237, 5401.246
304.7058, 5436.885
305.1880, 5468.703
305.6701, 5486.184
306.1522, 5484.971
306.6343, 5477.609
307.1164, 5486.569
307.5985, 5517.665
308.0807, 5543.259
308.5628, 5561.943
309.0449, 5570.814
309.5270, 5562.147
310.0091, 5537.229
310.4912, 5512.501
310.9734, 5505.127
311.4555, 5513.010
311.9376, 5512.209
312.4197, 5494.954
312.9018, 5477.710
313.3839, 5472.997
313.8661, 5476.477
314.3482, 5476.928
314.8303, 5468.577
315.3124, 5454.427
315.7945, 5437.818
316.2766, 5417.604
316.7588, 5402.074
317.2409, 5401.938
317.7230, 5407.372
318.2051, 5401.506
318.6872, 5377.930
319.1693, 5350.695
319.6515, 5325.035
320.1336, 5303.078
320.6157, 5295.831
321.0978, 5311.234
321.5799, 5336.509
322.0620, 5349.217
322.5442, 5346.009
323.0263, 5352.023
323.5084, 5381.187
323.9905, 5420.669
324.4726, 5453.191
324.9547, 5476.010
325.4369, 5497.578
325.9190, 5524.359
326.4011, 5556.775
326.8832, 5600.870
327.3653, 5671.747
327.8474, 5740.230
328.3296, 5784.927
328.8117, 5812.746
329.2938, 5845.260
329.7759, 5895.138
330.2580, 5959.809
330.7401, 6026.093
331.2223, 6101.161
331.7044, 6169.302
332.1865, 6223.585
332.6686, 6272.776
333.1507, 6328.627
333.6328, 6393.854
334.1150, 6458.682
334.5971, 6507.595
335.0792, 6531.865
335.5613, 6563.232
336.0434, 6614.499
336.5255, 6660.731
337.0077, 6685.001
337.4898, 6691.480
337.9719, 6698.641
338.4540, 6726.015
338.9361, 6767.838
339.4182, 6769.631
339.9004, 6703.978
340.3825, 6637.098
340.8646, 6583.443
341.3467, 6541.504
341.8288, 6513.261
342.3109, 6502.193
342.7931, 6491.241
343.2752, 6450.485
343.7573, 6374.674
344.2394, 6306.324
344.7215, 6265.407
345.2036, 6227.266
345.6858, 6170.794
346.1679, 6095.198
346.6500, 6016.920
347.1321, 5945.107
347.6142, 5878.602
348.0963, 5812.574
348.5785, 5744.730
349.0606, 5682.847
349.5427, 5637.374
350.0248, 5603.308
350.5069, 5566.429
350.9890, 5519.481
351.4712, 5472.425
351.9533, 5434.068
352.4354, 5403.057
352.9175, 5370.657
353.3996, 5329.957
353.8817, 5288.579
354.3639, 5269.178
354.8460, 5280.964
355.3281, 5290.003
355.8102, 5281.042
356.2923, 5268.909
356.7744, 5272.837
357.2566, 5296.420
357.7387, 5327.569
358.2208, 5352.763
358.7029, 5370.249
359.1850, 5391.960
359.6671, 5416.648
360.1493, 5445.917
360.6314, 5479.654
361.1135, 5518.566
361.5956, 5564.142
362.0777, 5617.691
362.5598, 5677.986
363.0420, 5740.333
363.5241, 5798.950
364.0062, 5870.018
364.4883, 5956.275
364.9704, 6053.443
365.4525, 6161.625
365.9347, 6279.018
366.4168, 6397.745
366.8989, 6504.563
367.3810, 6598.825
367.8631, 6708.508
368.3452, 6863.466
368.8274, 6998.673
369.3095, 7082.583
369.7916, 7123.957
370.2737, 7144.749
370.7558, 7157.804
371.2379, 7154.187
371.7201, 7120.556
372.2022, 7057.317
372.6843, 6960.212
373.1664, 6813.828
373.6485, 6638.883
374.1306, 6468.673
374.6128, 6305.580
375.0949, 6142.493
375.5770, 5975.776
376.0591, 5807.667
376.5412, 5643.099
377.0233, 5483.082
377.5055, 5326.171
377.9876, 5168.025
378.4697, 5008.640
378.9518, 4868.167
379.4339, 4755.795
379.9160, 4654.852
380.3982, 4555.895
380.8803, 4460.774
381.3624, 4377.850
381.8445, 4311.994
382.3266, 4259.951
382.8087, 4210.944
383.2909, 4168.942
383.7730, 4125.354
384.2551, 4076.578
384.7372, 4028.482
385.2193, 3985.637
385.7014, 3948.818
386.1836, 3915.663
386.6657, 3883.790
387.1478, 3853.284
387.6299, 3824.898
388.1120, 3799.591
388.5941, 3775.263
389.0763, 3754.219
389.5584, 3733.015
390.0405, 3705.256
390.5226, 3666.005
391.0047, 3624.753
391.4868, 3596.459
391.9690, 3582.190
392.4511, 3572.379
392.9332, 3570.577
393.4153, 3566.814
393.8974, 3549.723
394.3795, 3519.361
394.8617, 3491.336
395.3438, 3475.860
395.8259, 3466.721
396.3080, 3452.741
396.7901, 3432.701
397.2722, 3413.071
397.7544, 3396.646
398.2365, 3384.753
398.7186, 3381.066
399.2007, 3388.951
399.6828, 3401.011
400.1649, 3417.819
400.6471, 3436.131
401.1292, 3449.313
401.6113, 3455.214
402.0934, 3459.926
402.5755, 3472.961
403.0576, 3498.172
403.5398, 3520.038
404.0219, 3534.936
404.5040, 3550.532
404.9861, 3571.433
405.4682, 3596.454
405.9503, 3621.432
406.4325, 3643.470
406.9146, 3664.134
407.3967, 3689.241
407.8788, 3722.425
408.3609, 3752.470
408.8430, 3778.985
409.3252, 3800.835
409.8073, 3814.897
410.2894, 3821.375
410.7715, 3827.873
411.2536, 3841.102
411.7357, 3860.051
412.2179, 3877.874
412.7000, 3890.943
413.1821, 3910.427
413.6642, 3950.070
414.1463, 4001.348
414.6284, 4046.612
415.1106, 4077.260
415.5927, 4107.917
416.0748, 4146.030
416.5569, 4192.499
417.0390, 4257.322
417.5211, 4349.954
418.0033, 4438.698
418.4854, 4471.786
418.9675, 4427.143
419.4496, 4399.647
419.9317, 4400.699
420.4138, 4413.081
420.8960, 4433.938
421.3781, 4456.868
421.8602, 4468.035
422.3423, 4458.393
422.8244, 4430.229
423.3065, 4394.246
423.7887, 4356.611
424.2708, 4299.610
424.7529, 4207.939
425.2350, 4107.160
425.7171, 4016.105
426.1992, 3938.130
426.6814, 3868.879
427.1635, 3810.725
427.6456, 3761.055
428.1277, 3690.388
428.6098, 3583.606
429.0919, 3485.175
429.5741, 3418.942
430.0562, 3374.554
430.5383, 3340.609
431.0204, 3319.421
431.5025, 3297.279
431.9846, 3263.681
432.4668, 3219.843
432.9489, 3166.633
433.4310, 3100.584
433.9131, 3037.919
434.3952, 2999.866
434.8773, 2989.381
435.3595, 2976.854
435.8416, 2959.736
436.3237, 2941.216
436.8058, 2925.430
437.2879, 2909.878
437.7701, 2885.815
438.2522, 2847.912
438.7343, 2804.547
439.2164, 2777.811
439.6985, 2779.551
440.1806, 2777.403
440.6628, 2769.637
441.1449, 2759.088
441.6270, 2748.594
442.1091, 2737.355
442.5912, 2720.896
443.0733, 2692.374
443.5555, 2657.444
444.0376, 2640.936
444.5197, 2651.266
445.0018, 2656.362
445.4839, 2636.053
445.9660, 2608.466
446.4482, 2591.730
446.9303, 2589.198
447.4124, 2588.884
447.8945, 2583.056
448.3766, 2574.342
448.8587, 2568.137
449.3409, 2565.173
449.8230, 2564.459
450.3051, 2567.006
450.7872, 2571.630
451.2693, 2568.184
451.7514, 2547.347
452.2336, 2529.923
452.7157, 2524.925
453.1978, 2526.673
453.6799, 2528.644
454.1620, 2528.525
454.6441, 2524.844
455.1263, 2514.476
455.6084, 2494.985
456.0905, 2482.686
456.5726, 2486.446
457.0547, 2488.648
457.5368, 2481.057
458.0190, 2469.095
458.5011, 2462.849
458.9832, 2467.568
459.4653, 2474.537
459.9474, 2469.728
460.4295, 2452.940
460.9117, 2439.115
461.3938, 2430.665
461.8759, 2426.682
462.3580, 2428.506
462.8401, 2434.751
463.3222, 2437.888
463.8044, 2434.063
464.2865, 2427.708
464.7686, 2421.807
465.2507, 2416.616
465.7328, 2413.238
466.2149, 2412.587
466.6971, 2412.434
467.1792, 2408.273
467.6613, 2396.846
468.1434, 2388.208
468.6255, 2382.200
469.1076, 2379.021
469.5898, 2380.422
470.0719, 2384.907
470.5540, 2389.695
471.0361, 2393.860
471.5182, 2394.967
472.0003, 2383.073
472.4825, 2349.617
472.9646, 2326.786
473.4467, 2332.005
473.9288, 2342.727
474.4109, 2344.483
474.8930, 2337.072
475.3752, 2329.576
475.8573, 2328.735
476.3394, 2330.510
476.8215, 2328.002
477.3036, 2321.031
477.7857, 2311.247
478.2679, 2296.583
478.7500, 2282.008
479.2321, 2281.283
479.7142, 2300.995
480.1963, 2315.740
480.6784, 2323.252
481.1606, 2322.034
481.6427, 2303.447
482.1248, 2272.041
482.6069, 2249.341
483.0890, 2253.061
483.5711, 2277.016
484.0533, 2286.458
484.5354, 2272.112
485.0175, 2257.936
485.4996, 2246.457
485.9817, 2237.130
486.4638, 2229.144
486.9460, 2222.612
487.4281, 2219.134
487.9102, 2222.271
488.3923, 2229.312
488.8744, 2231.330
489.3565, 2227.368
489.8387, 2223.980
490.3208, 2227.908
490.8029, 2232.419
491.2850, 2222.306
491.7671, 2189.563
492.2492, 2165.434
492.7314, 2167.896
493.2135, 2180.454
493.6956, 2185.638
494.1777, 2181.415
494.6598, 2172.889
495.1419, 2163.604
495.6241, 2153.569
496.1062, 2142.362
496.5883, 2124.493
497.0704, 2113.614
497.5525, 2118.010
498.0346, 2124.755
498.5168, 2122.270
498.9989, 2109.979
499.4810, 2096.303
499.9631, 2086.186
500.4452, 2080.286
500.9273, 2084.695
501.4095, 2103.999
501.8916, 2113.576
502.3737, 2095.244
502.8558, 2065.157
503.3379, 2050.386
503.8200, 2055.665
504.3022, 2058.345
504.7843, 2047.539
505.2664, 2031.089
505.7485, 2017.334
506.2306, 2007.054
506.7127, 1998.038
507.1949, 1988.279
507.6770, 1979.232
508.1591, 1977.568
508.6412, 1992.449
509.1233, 2001.334
509.6054, 1998.881
510.0876, 1993.518
510.5697, 1992.712
511.0518, 1995.588
511.5339, 1994.756
512.0161, 1983.325
512.4982, 1965.411
512.9803, 1952.023
513.4624, 1943.699
513.9445, 1937.391
514.4266, 1933.495
514.9088, 1929.911
515.3909, 1923.518
515.8730, 1914.022
516.3551, 1905.516
516.8372, 1898.944
517.3193, 1894.090
517.8015, 1891.733
518.2836, 1891.105
518.7657, 1890.261
519.2478, 1888.641
519.7299, 1884.061
520.2120, 1870.301
520.6942, 1836.454
521.1763, 1814.406
521.6584, 1807.890
522.1405, 1808.141
522.6226, 1816.185
523.1047, 1827.031
523.5869, 1827.615
524.0690, 1805.389
524.5511, 1782.188
525.0332, 1807.159
525.5153, 1879.778
525.9974, 1912.061
526.4796, 1866.998
526.9617, 1801.646
527.4438, 1778.322
527.9259, 1791.642
528.4080, 1800.409
528.8901, 1796.413
529.3723, 1788.843
529.8544, 1783.514
530.3365, 1778.467
530.8186, 1767.415
531.3007, 1748.496
531.7828, 1730.974
532.2650, 1729.558
532.7471, 1748.739
533.2292, 1755.855
533.7113, 1739.959
534.1934, 1724.124
534.6755, 1712.423
535.1577, 1706.059
535.6398, 1709.131
536.1219, 1724.179
536.6040, 1735.641
537.0861, 1723.175
537.5682, 1695.275
538.0504, 1681.367
538.5325, 1686.496
539.0146, 1693.548
539.4967, 1690.896
539.9788, 1680.168
540.4609, 1669.862
540.9431, 1657.558
541.4252, 1648.758
541.9073, 1647.781
542.3894, 1648.731
542.8715, 1646.435
543.3536, 1640.166
543.8358, 1630.689
544.3179, 1617.035
544.8000, 1602.193
545.2821, 1600.995
545.7642, 1619.551
546.2463, 1635.063
546.7285, 1643.321
547.2106, 1644.945
547.6927, 1638.145
548.1748, 1623.751
548.6569, 1609.677
549.1390, 1595.692
549.6211, 1586.424
550.1032, 1591.832
550.5853, 1607.886
551.0674, 1616.062
551.5496, 1608.153
552.0317, 1593.654
552.5138, 1588.545
552.9959, 1598.084
553.4780, 1599.011
553.9601, 1581.281
554.4423, 1566.947
554.9244, 1569.775
555.4065, 1580.314
555.8886, 1582.145
556.3707, 1569.027
556.8528, 1552.385
557.3350, 1546.781
557.8171, 1550.722
558.2992, 1551.528
558.7813, 1546.933
559.2634, 1542.708
559.7455, 1542.441
560.2277, 1545.596
560.7098, 1550.120
561.1919, 1558.730
561.6740, 1563.945
562.1561, 1561.516
562.6382, 1555.702
563.1204, 1549.432
563.6025, 1544.009
564.0846, 1542.373
564.5667, 1547.548
565.0488, 1556.573
565.5309, 1556.766
566.0131, 1542.791
566.4952, 1533.501
566.9773, 1539.851
567.4594, 1545.558
567.9415, 1536.782
568.4236, 1516.939
568.9058, 1503.465
569.3879, 1508.562
569.8700, 1518.802
570.3521, 1520.026
570.8342, 1514.814
571.3163, 1512.161
571.7985, 1514.967
572.2806, 1519.530
572.7627, 1521.503
573.2448, 1520.665
573.7269, 1519.323
574.2090, 1517.009
574.6912, 1514.757
575.1733, 1511.385
575.6554, 1508.964
576.1375, 1510.452
576.6196, 1516.210
577.1017, 1522.677
577.5839, 1529.038
578.0660, 1533.513
578.5481, 1527.318
579.0302, 1508.637
579.5123, 1494.844
579.9944, 1495.875
580.4766, 1504.658
580.9587, 1507.969
581.4408, 1505.469
581.9229, 1500.632
582.4050, 1489.097
582.8871, 1479.743
583.3693, 1480.770
583.8514, 1488.418
584.3335, 1493.949
584.8156, 1493.340
585.2977, 1489.575
585.7798, 1487.088
586.2620, 1485.958
586.7441, 1485.272
587.2262, 1485.033
587.7083, 1485.161
588.1904, 1488.324
588.6725, 1491.118
589.1547, 1486.884
589.6368, 1471.918
590.1189, 1457.381
590.6010, 1445.811
591.0831, 1439.201
591.5652, 1443.748
592.0474, 1457.429
592.5295, 1467.684
593.0116, 1465.724
593.4937, 1455.736
593.9758, 1450.850
594.4579, 1453.854
594.9401, 1455.384
595.4222, 1453.343
595.9043, 1450.870
596.3864, 1450.344
596.8685, 1450.603
597.3506, 1448.083
597.8328, 1439.333
598.3149, 1431.620
598.7970, 1432.758
599.2791, 1439.945
599.7612, 1446.982
600.2433, 1452.711
600.7255, 1454.659
601.2076, 1449.599
601.6897, 1438.966
602.1718, 1434.549
602.6539, 1443.708
603.1360, 1449.126
603.6182, 1445.516
604.1003, 1440.914
604.5824, 1443.045
605.0645, 1450.348
605.5466, 1454.133
606.0287, 1447.784
606.5109, 1437.472
606.9930, 1431.666
607.4751, 1430.181
607.9572, 1432.844
608.4393, 1441.029
608.9214, 1447.667
609.4036, 1444.480
609.8857, 1431.410
610.3678, 1423.838
610.8499, 1410.635
611.3320, 1416.276
611.8141, 1467.688
612.2963, 1527.365
612.7784, 1560.549
613.2605, 1562.028
613.7426, 1541.501
614.2247, 1496.927
614.7068, 1443.262
615.1890, 1421.524
615.6711, 1433.256
616.1532, 1442.251
616.6353, 1437.790
617.1174, 1427.526
617.5995, 1418.854
618.0817, 1411.796
618.5638, 1406.894
619.0459, 1404.500
619.5280, 1403.887
620.0101, 1405.072
620.4922, 1407.744
620.9744, 1413.370
621.4565, 1421.121
621.9386, 1425.267
622.4207, 1419.229
622.9028, 1406.073
623.3849, 1398.000
623.8671, 1395.674
624.3492, 1394.671
624.8313, 1394.138
625.3134, 1393.839
625.7955, 1392.898
626.2776, 1391.371
626.7598, 1392.350
627.2419, 1397.885
627.7240, 1404.261
628.2061, 1412.901
628.6882, 1419.838
629.1703, 1417.891
629.6525, 1406.326
630.1346, 1392.402
630.6167, 1382.225
631.0988, 1375.973
631.5809, 1375.546
632.0630, 1382.858
632.5452, 1388.671
633.0273, 1391.189
633.5094, 1390.009
633.9915, 1381.438
634.4736, 1366.167
634.9557, 1360.102
635.4379, 1374.638
635.9200, 1390.541
636.4021, 1399.265
636.8842, 1401.449
637.3663, 1396.132
637.8484, 1384.373
638.3306, 1373.727
638.8127, 1371.872
639.2948, 1377.670
639.7769, 1385.250
640.2590, 1396.357
640.7411, 1402.846
641.2233, 1399.137
641.7054, 1392.919
642.1875, 1392.200
642.6696, 1396.575
643.1517, 1401.313
643.6339, 1407.159
644.1160, 1411.295
644.5981, 1411.282
645.0802, 1408.914
645.5623, 1407.581
646.0444, 1407.617
646.5266, 1405.019
647.0087, 1394.158
647.4908, 1378.688
647.9729, 1378.234
648.4550, 1397.674
648.9371, 1412.478
649.4193, 1414.627
649.9014, 1411.892
650.3835, 1411.900
650.8656, 1414.038
651.3477, 1413.762
651.8298, 1407.225
652.3120, 1401.622
652.7941, 1400.479
653.2762, 1402.187
653.7583, 1405.842
654.2404, 1410.470
654.7225, 1413.098
655.2047, 1411.072
655.6868, 1405.554
656.1689, 1399.445
656.6510, 1391.960
657.1331, 1389.039
657.6152, 1393.613
658.0974, 1400.654
658.5795, 1406.457
659.0616, 1411.070
659.5437, 1414.398
660.0258, 1417.752
660.5079, 1418.206
660.9901, 1412.343
661.4722, 1404.630
661.9543, 1399.970
662.4364, 1398.410
662.9185, 1396.430
663.4006, 1391.122
663.8828, 1385.641
664.3649, 1388.247
664.8470, 1399.289
665.3291, 1407.239
665.8112, 1410.964
666.2933, 1409.617
666.7755, 1399.164
667.2576, 1382.988
667.7397, 1375.734
668.2218, 1383.725
668.7039, 1390.276
669.1860, 1391.061
669.6682, 1390.155
670.1503, 1391.997
670.6324, 1394.988
671.1145, 1392.776
671.5966, 1381.389
672.0787, 1369.664
672.5609, 1372.894
673.0430, 1388.359
673.5251, 1395.982
674.0072, 1393.055
674.4893, 1386.666
674.9714, 1379.081
675.4536, 1372.377
675.9357, 1372.629
676.4178, 1385.594
676.8999, 1392.875
677.3820, 1390.970
677.8641, 1386.379
678.3463, 1380.079
678.8284, 1374.238
679.3105, 1373.210
679.7926, 1378.364
680.2747, 1381.934
680.7568, 1372.413
681.2390, 1356.922
681.7211, 1354.085
682.2032, 1364.012
682.6853, 1374.529
683.1674, 1380.891
683.6495, 1383.798
684.1317, 1384.428
684.6138, 1382.999
685.0959, 1378.080
685.5780, 1365.489
686.0601, 1354.333
686.5422, 1344.697
687.0244, 1338.832
687.5065, 1340.856
687.9886, 1350.399
688.4707, 1359.035
688.9528, 1361.325
689.4349, 1360.790
689.9171, 1362.043
690.3992, 1363.814
690.8813, 1361.134
691.3634, 1352.800
691.8455, 1344.988
692.3276, 1344.542
692.8098, 1350.206
693.2919, 1350.586
693.7740, 1343.107
694.2561, 1335.959
694.7382, 1327.677
695.2203, 1322.946
695.7025, 1327.020
696.1846, 1337.640
696.6667, 1346.443
697.1488, 1353.121
697.6309, 1354.931
698.1130, 1346.607
698.5952, 1334.716
699.0773, 1325.973
699.5594, 1321.836
700.0415, 1324.376
700.5236, 1335.995
701.0057, 1348.908
701.4879, 1343.696
701.9700, 1318.985
702.4521, 1305.855
702.9342, 1310.369
703.4163, 1318.180
703.8984, 1322.691
704.3806, 1323.998
704.8627, 1321.481
705.3448, 1311.612
705.8269, 1308.215
706.3090, 1317.770
706.7911, 1329.703
707.2733, 1338.336
707.7554, 1344.754
708.2375, 1352.564
708.7196, 1362.614
709.2017, 1369.478
709.6838, 1365.688
710.1660, 1355.389
710.6481, 1349.172
711.1302, 1346.968
711.6123, 1344.706
712.0944, 1340.704
712.5765, 1337.105
713.0587, 1336.454
713.5408, 1338.790
714.0229, 1343.292
714.5050, 1351.586
714.9871, 1359.837
715.4692, 1369.368
715.9514, 1377.141
716.4335, 1381.146
716.9156, 1381.156
717.3977, 1376.729
717.8798, 1361.836
718.3619, 1350.896
718.8441, 1359.091
719.3262, 1377.586
719.8083, 1392.357
720.2904, 1401.250
720.7725, 1406.655
721.2546, 1409.550
721.7368, 1412.445
722.2189, 1424.176
722.7010, 1447.988
723.1831, 1456.541
723.6652, 1439.632
724.1473, 1423.394
724.6295, 1423.343
725.1116, 1433.512
725.5937, 1441.126
726.0758, 1444.806
726.5579, 1450.542
727.0400, 1462.271
727.5222, 1473.481
728.0043, 1480.438
728.4864, 1484.232
728.9685, 1484.118
729.4506, 1481.090
729.9327, 1484.843
730.4149, 1510.526
730.8970, 1546.614
731.3791, 1565.859
731.8612, 1569.764
732.3433, 1572.493
732.8254, 1578.189
733.3076, 1583.644
733.7897, 1585.406
734.2718, 1583.782
734.7539, 1582.646
735.2360, 1578.682
735.7181, 1580.908
736.2003, 1593.125
736.6824, 1608.968
737.1645, 1627.371
737.6466, 1646.170
738.1287, 1659.238
738.6108, 1661.001
739.0930, 1666.723
739.5751, 1690.158
740.0572, 1718.703
740.5393, 1736.357
741.0214, 1745.043
741.5035, 1756.550
741.9857, 1776.327
742.4678, 1797.980
742.9499, 1810.271
743.4320, 1814.399
743.9141, 1828.385
744.3962, 1853.942
744.8784, 1881.017
745.3605, 1905.299
745.8426, 1930.333
746.3247, 1960.549
746.8068, 1996.260
747.2889, 2035.929
747.7711, 2082.102
748.2532, 2129.083
748.7353, 2172.125
749.2174, 2218.211
749.6995, 2273.694
750.1816, 2338.379
750.6638, 2408.080
751.1459, 2480.206
751.6280, 2557.410
752.1101, 2644.065
752.5922, 2736.947
753.0743, 2824.759
753.5565, 2909.320
754.0386, 3010.758
754.5207, 3141.247
755.0028, 3288.447
755.4849, 3427.062
755.9670, 3554.473
756.4492, 3699.054
756.9313, 3866.931
757.4134, 4038.621
757.8955, 4204.357
758.3776, 4371.908
758.8597, 4557.293
759.3419, 4761.001
759.8240, 4964.890
760.3061, 5166.644
760.7882, 5369.810
761.2703, 5589.572
761.7524, 5802.199
762.2346, 5979.716
762.7167, 6123.414
763.1988, 6261.346
763.6809, 6415.400
764.1630, 6559.623
764.6451, 6674.568
765.1273, 6754.917
765.6094, 6780.646
766.0915, 6752.575
766.5736, 6702.347
767.0557, 6648.117
767.5378, 6589.826
768.0200, 6529.087
768.5021, 6468.558
768.9842, 6388.702
769.4663, 6279.440
769.9484, 6172.555
770.4305, 6083.121
770.9127, 6002.671
771.3948, 5914.125
771.8769, 5815.214
772.3590, 5740.139
772.8411, 5709.557
773.3232, 5684.159
773.8054, 5638.107
774.2875, 5596.715
774.7696, 5587.685
775.2517, 5611.581
775.7338, 5651.201
776.2159, 5696.313
776.6981, 5755.048
777.1802, 5838.727
777.6623, 5942.456
778.1444, 6054.552
778.6265, 6173.861
779.1086, 6306.712
779.5908, 6455.502
780.0729, 6622.438
780.5550, 6815.238
781.0371, 7036.574
781.5192, 7253.410
782.0013, 7465.801
782.4835, 7675.166
782.9656, 7880.058
783.4477, 8083.199
783.9298, 8293.943
784.4119, 8513.013
784.8940, 8703.299
785.3762, 8854.854
785.8583, 8987.392
786.3404, 9104.884
786.8225, 9206.280
787.3046, 9284.438
787.7867, 9346.313
788.2689, 9410.304
788.7510, 9481.807
789.2331, 9566.146
789.7152, 9674.619
790.1973, 9796.189
790.6794, 9897.672
791.1616, 9992.794
791.6437, 10139.18
792.1258, 10363.13
792.6079, 10655.89
793.0900, 11013.98
793.5721, 11433.18
794.0543, 11862.75
794.5364, 12295.27
795.0185, 12797.29
795.5006, 13393.85
795.9827, 14053.82
796.4648, 14746.85
796.9470, 15476.84
797.4291, 16258.69
797.9112, 17059.32
798.3933, 17958.27
798.8754, 18952.87
799.3575, 20052.85
799.8397, 21268.31
800.3218, 22590.51
800.8039, 24028.28
801.2860, 25588.36
801.7681, 27184.83
802.2502, 28843.90
802.7324, 30459.99
803.2145, 32033.26
803.6966, 33462.32
804.1787, 34609.71
804.6608, 35423.40
805.1429, 35877.07
805.6251, 35935.00
806.1072, 35636.58
806.5893, 35010.15
807.0714, 34081.15
807.5535, 33035.00
808.0356, 31894.69
808.5178, 30729.71
808.9999, 29566.54
809.4820, 28437.34
809.9641, 27444.63
810.4462, 26600.02
810.9283, 25841.12
811.4105, 25199.91
811.8926, 24588.49
812.3747, 24021.06
812.8568, 23436.76
813.3389, 22778.23
813.8210, 22045.78
814.3032, 21237.56
814.7853, 20338.58
815.2674, 19385.63
815.7495, 18371.03
816.2316, 17325.38
816.7137, 16251.36
817.1959, 15168.56
817.6780, 14106.08
818.1601, 13065.38
818.6422, 12094.58
819.1243, 11229.45
819.6064, 10450.25
820.0886, 9735.489
820.5707, 9078.301
821.0528, 8477.245
821.5349, 7926.126
822.0170, 7424.401
822.4991, 6964.217
822.9813, 6550.490
823.4634, 6209.705
823.9455, 5942.158
824.4276, 5690.904
824.9097, 5442.240
825.3918, 5216.118
825.8740, 5031.200
826.3561, 4877.502
826.8382, 4723.305
827.3203, 4559.185
827.8024, 4416.540
828.2845, 4309.400
828.7667, 4206.840
829.2488, 4093.416
829.7309, 3980.910
830.2130, 3888.154
830.6951, 3815.704
831.1772, 3734.003
831.6594, 3622.719
832.1415, 3517.037
832.6236, 3430.221
833.1057, 3357.393
833.5878, 3298.373
834.0699, 3247.803
834.5521, 3193.381
835.0342, 3129.249
835.5163, 3061.999
835.9984, 2995.481
836.4805, 2930.683
836.9626, 2869.085
837.4448, 2810.543
837.9269, 2752.722
838.4090, 2695.314
838.8911, 2645.165
839.3732, 2612.733
839.8553, 2591.069
840.3375, 2551.488
840.8196, 2493.530
841.3017, 2441.946
841.7838, 2401.847
842.2659, 2363.662
842.7480, 2318.682
843.2302, 2273.725
843.7123, 2247.409
844.1944, 2249.364
844.6765, 2237.248
845.1586, 2202.023
845.6407, 2166.251
846.1229, 2138.282
846.6050, 2112.495
847.0871, 2082.702
847.5692, 2049.329
848.0513, 2018.810
848.5334, 1994.157
849.0156, 1969.355
849.4977, 1944.250
849.9798, 1917.069
850.4619, 1884.030
850.9440, 1848.170
851.4261, 1816.869
851.9083, 1792.481
852.3904, 1768.691
852.8725, 1741.767
853.3546, 1712.693
853.8367, 1678.201
854.3188, 1643.435
854.8010, 1620.887
855.2831, 1611.046
855.7652, 1600.732
856.2473, 1580.427
856.7294, 1554.004
857.2115, 1527.518
857.6937, 1500.891
858.1758, 1472.704
858.6579, 1442.986
859.1400, 1415.243
859.6221, 1390.824
860.1042, 1370.476
860.5864, 1355.902
861.0685, 1346.899
861.5506, 1335.545
862.0327, 1321.326
862.5148, 1307.043
862.9969, 1294.564
863.4791, 1278.981
863.9612, 1252.765
864.4433, 1221.264
864.9254, 1204.934
865.4075, 1216.043
865.8896, 1216.583
866.3718, 1197.748
866.8539, 1179.304
867.3360, 1167.673
867.8181, 1160.266
868.3002, 1155.622
868.7823, 1153.101
869.2645, 1147.610
869.7466, 1133.929
870.2287, 1122.197
870.7108, 1117.469
871.1929, 1115.398
871.6750, 1114.605
872.1572, 1112.724
872.6393, 1104.605
873.1214, 1088.244
873.6035, 1072.341
874.0856, 1063.114
874.5677, 1057.606
875.0499, 1053.948
875.5320, 1050.900
876.0141, 1046.498
876.4962, 1040.232
876.9783, 1031.048
877.4604, 1016.921
877.9426, 1004.939
878.4247, 1013.075
878.9068, 1033.151
879.3889, 1028.645
879.8710, 1000.030
880.3531, 985.7018
880.8353, 1002.088
881.3174, 1024.005
881.7995, 1020.718
882.2816, 996.7164
882.7637, 980.3130
883.2458, 972.4095
883.7280, 965.9957
884.2101, 960.2816
884.6922, 954.9456
885.1743, 949.7432
885.6564, 944.9555
886.1385, 941.4769
886.6207, 940.2456
887.1028, 936.0879
887.5849, 927.8293
888.0670, 918.4853
888.5491, 905.7962
889.0313, 895.0375
889.5134, 894.0049
889.9955, 899.4332
890.4776, 895.7590
890.9597, 871.3216
891.4418, 857.0950
891.9240, 868.1760
892.4061, 878.5370
892.8882, 872.1388
893.3703, 857.8671
893.8524, 848.2075
894.3345, 844.7335
894.8167, 842.0720
895.2988, 838.9590
895.7809, 835.0875
896.2630, 829.7301
896.7451, 823.9384
897.2272, 819.9141
897.7094, 816.2795
898.1915, 809.1198
898.6736, 797.0338
899.1557, 783.6904
899.6378, 768.9830
900.1199, 757.1245
900.6021, 756.2523
901.0842, 761.4031
901.5663, 760.6732
902.0484, 753.4147
902.5305, 749.6791
903.0126, 756.2598
903.4948, 766.0506
903.9769, 770.1821
904.4590, 768.8021
904.9411, 759.3967
905.4232, 743.5722
905.9053, 733.3085
906.3875, 732.4883
906.8696, 736.3092
907.3517, 741.3747
907.8338, 745.4893
908.3159, 739.1727
908.7980, 722.3094
909.2802, 713.1518
909.7623, 714.1129
910.2444, 719.6295
910.7265, 728.2630
911.2086, 736.2568
911.6907, 737.9807
912.1729, 733.4885
912.6550, 727.4771
913.1371, 717.2403
913.6192, 714.8544
914.1013, 727.1354
914.5834, 738.5273
915.0656, 737.2990
915.5477, 729.1128
916.0298, 727.4562
916.5119, 735.2208
916.9940, 738.6168
917.4761, 734.2933
917.9583, 730.3402
918.4404, 728.4202
918.9225, 727.7249
919.4046, 728.3925
919.8867, 729.8101
920.3688, 730.0277
920.8510, 730.2881
921.3331, 726.2393
921.8152, 712.7742
922.2973, 700.0488
922.7794, 691.5963
923.2615, 687.1028
923.7437, 688.3275
924.2258, 693.8609
924.7079, 694.9651
925.1900, 685.8399
925.6721, 677.1422
926.1542, 673.8457
926.6364, 672.0898
927.1185, 666.9309
927.6006, 661.8643
928.0827, 665.6806
928.5648, 679.0734
929.0469, 687.3882
929.5291, 678.1168
930.0112, 665.8339
930.4933, 659.2535
930.9754, 657.3870
931.4575, 661.4174
931.9396, 668.7480
932.4218, 673.0851
932.9039, 672.1960
933.3860, 669.6104
933.8681, 667.8184
934.3502, 666.4802
934.8323, 664.3741
935.3145, 662.6669
935.7966, 665.1024
936.2787, 670.8992
936.7608, 674.2639
937.2429, 672.0379
937.7250, 667.5799
938.2072, 663.2854
938.6893, 660.4834
939.1714, 664.0914
939.6535, 672.1151
940.1356, 676.6025
940.6177, 675.8789
941.0999, 672.2383
941.5820, 666.6588
942.0641, 662.5225
942.5462, 669.0833
943.0283, 683.0104
943.5104, 684.9913
943.9926, 675.2885
944.4747, 668.0588
944.9568, 667.6627
945.4389, 670.7615
945.9210, 674.9777
946.4031, 679.0125
946.8853, 677.4647
947.3674, 670.4022
947.8495, 672.2895
948.3316, 685.0135
948.8137, 695.7728
949.2958, 700.0353
949.7780, 697.9008
950.2601, 687.6031
950.7422, 672.2583
951.2243, 669.5461
951.7064, 681.5030
952.1885, 694.0092
952.6707, 707.6609
953.1528, 713.4019
953.6349, 703.9669
954.1170, 691.0000
954.5991, 690.8066
955.0812, 702.6786
955.5634, 710.7264
956.0455, 713.5482
956.5276, 716.8736
957.0097, 722.0736
957.4918, 726.2837
957.9739, 726.6175
958.4561, 726.6548
958.9382, 733.6238
959.4203, 748.6899
959.9024, 753.8405
960.3845, 742.9019
960.8666, 734.3530
961.3488, 731.0634
961.8309, 730.5366
962.3130, 732.3730
962.7951, 735.4006
963.2772, 736.7696
963.7593, 735.3264
964.2415, 738.4590
964.7236, 751.5308
965.2057, 761.3809
965.6878, 764.2034
966.1699, 764.7416
966.6520, 766.8417
967.1342, 768.7178
967.6163, 764.6489
968.0984, 750.4707
968.5805, 746.6903
969.0626, 765.9540
969.5447, 780.0746
970.0269, 777.4984
970.5090, 771.3444
970.9911, 770.6143
971.4732, 774.4604
971.9553, 780.1336
972.4374, 788.4208
972.9196, 794.8038
973.4017, 796.4572
973.8838, 799.0056
974.3659, 805.5557
974.8480, 812.8731
975.3301, 818.7558
975.8123, 822.8993
976.2944, 824.3101
976.7765, 821.0880
977.2586, 821.0012
977.7407, 830.9581
978.2228, 838.0892
978.7050, 831.8302
979.1871, 823.8651
979.6692, 826.9138
980.1513, 838.8254
980.6334, 849.5994
981.1155, 858.7247
981.5977, 861.4183
982.0798, 848.4522
982.5619, 837.8488
983.0440, 839.6197
983.5261, 847.9530
984.0082, 856.2244
984.4904, 864.6177
984.9725, 877.9096
985.4546, 901.6318
985.9367, 917.5086
986.4188, 914.1755
986.9009, 906.6364
987.3831, 902.9651
987.8652, 900.4720
988.3473, 893.4030
988.8294, 883.6987
989.3115, 881.3413
989.7936, 891.9858
990.2758, 902.2802
990.7579, 905.3412
991.2400, 907.8171
991.7221, 915.2397
992.2042, 923.7057
992.6863, 927.2200
993.1685, 926.6852
993.6506, 928.8309
994.1327, 936.4895
994.6148, 945.1895
995.0969, 953.7220
995.5790, 961.8013
996.0612, 968.7478
996.5433, 975.3898
997.0254, 985.1096
997.5075, 995.9740
997.9896, 998.0433
998.4717, 983.0682
998.9539, 973.7833
999.4360, 987.0445
999.9181, 1002.830
1000.400, 1005.107
1000.882, 1002.860
1001.364, 1009.615
1001.847, 1024.303
1002.329, 1034.966
1002.811, 1036.390
1003.293, 1036.911
1003.775, 1039.690
1004.257, 1043.745
1004.739, 1049.736
1005.221, 1055.714
1005.703, 1057.760
1006.186, 1057.282
1006.668, 1060.973
1007.150, 1071.761
1007.632, 1084.471
1008.114, 1102.437
1008.596, 1115.244
1009.078, 1109.174
1009.560, 1098.739
1010.043, 1103.621
1010.525, 1121.371
1011.007, 1134.575
1011.489, 1137.126
1011.971, 1137.925
1012.453, 1138.921
1012.935, 1141.504
1013.417, 1146.798
1013.899, 1153.920
1014.382, 1161.195
1014.864, 1169.315
1015.346, 1182.371
1015.828, 1204.180
1016.310, 1218.918
1016.792, 1213.699
1017.274, 1207.874
1017.756, 1212.105
1018.239, 1220.899
1018.721, 1229.176
1019.203, 1236.525
1019.685, 1243.485
1020.167, 1249.660
1020.649, 1258.129
1021.131, 1272.473
1021.613, 1286.195
1022.095, 1297.334
1022.578, 1305.677
1023.060, 1308.609
1023.542, 1309.159
1024.024, 1315.341
1024.506, 1329.798
1024.988, 1341.887
1025.470, 1344.385
1025.952, 1349.848
1026.435, 1367.936
1026.917, 1386.140
1027.399, 1393.720
1027.881, 1393.750
1028.363, 1392.596
1028.845, 1390.220
1029.327, 1394.234
1029.809, 1414.379
1030.292, 1429.462
1030.774, 1425.185
1031.256, 1422.751
1031.738, 1444.046
1032.220, 1474.155
1032.702, 1481.786
1033.184, 1462.083
1033.666, 1458.919
1034.148, 1491.661
1034.630, 1519.265
1035.113, 1536.085
1035.595, 1545.128
1036.077, 1540.635
1036.559, 1533.237
1037.041, 1540.696
1037.523, 1563.835
1038.005, 1579.957
1038.487, 1583.241
1038.970, 1588.619
1039.452, 1599.600
1039.934, 1609.275
1040.416, 1611.182
1040.898, 1613.096
1041.380, 1624.965
1041.862, 1645.929
1042.344, 1667.435
1042.826, 1695.844
1043.309, 1709.193
1043.791, 1693.920
1044.273, 1688.229
1044.755, 1713.069
1045.237, 1743.425
1045.719, 1753.537
1046.201, 1747.692
1046.683, 1745.287
1047.166, 1745.422
1047.648, 1752.297
1048.130, 1766.916
1048.612, 1786.232
1049.094, 1811.810
1049.576, 1835.423
1050.058, 1849.655
1050.540, 1857.210
1051.022, 1865.250
1051.505, 1873.900
1051.987, 1880.907
1052.469, 1885.262
1052.951, 1895.112
1053.433, 1913.612
1053.915, 1930.735
1054.397, 1939.350
1054.879, 1944.261
1055.361, 1953.563
1055.844, 1967.397
1056.326, 1990.479
1056.808, 2022.881
1057.290, 2042.945
1057.772, 2046.832
1058.254, 2053.466
1058.736, 2072.837
1059.218, 2098.778
1059.701, 2125.640
1060.183, 2150.286
1060.665, 2158.138
1061.147, 2153.225
1061.629, 2157.982
1062.111, 2174.043
1062.593, 2192.030
1063.075, 2208.186
1063.557, 2223.009
1064.040, 2235.863
1064.522, 2249.581
1065.004, 2270.555
1065.486, 2295.886
1065.968, 2317.617
1066.450, 2336.878
1066.932, 2359.962
1067.414, 2388.301
1067.896, 2419.927
1068.379, 2456.353
1068.861, 2484.255
1069.343, 2474.959
1069.825, 2458.108
1070.307, 2479.486
1070.789, 2524.158
1071.271, 2561.728
1071.753, 2586.817
1072.236, 2606.500
1072.718, 2623.714
1073.200, 2638.447
1073.682, 2648.027
1074.164, 2658.138
1074.646, 2673.804
1075.128, 2692.666
1075.610, 2708.079
1076.093, 2724.637
1076.575, 2758.803
1077.057, 2815.820
1077.539, 2862.227
1078.021, 2874.039
1078.503, 2884.395
1078.985, 2906.781
1079.467, 2934.906
1079.949, 2970.109
1080.432, 3004.544
1080.914, 3020.772
1081.396, 3018.767
1081.878, 3035.329
1082.360, 3098.262
1082.842, 3147.783
1083.324, 3167.347
1083.806, 3180.638
1084.288, 3187.147
1084.771, 3200.943
1085.253, 3242.829
1085.735, 3305.914
1086.217, 3357.483
1086.699, 3397.324
1087.181, 3424.947
1087.663, 3432.783
1088.145, 3442.994
1088.628, 3458.255
1089.110, 3483.299
1089.592, 3524.089
1090.074, 3574.477
1090.556, 3622.411
1091.038, 3668.039
1091.520, 3703.950
1092.002, 3728.101
1092.484, 3754.854
1092.967, 3787.185
1093.449, 3816.097
1093.931, 3835.581
1094.413, 3859.695
1094.895, 3908.678
1095.377, 3974.333
1095.859, 4025.732
1096.341, 4064.632
1096.823, 4101.135
1097.306, 4137.257
1097.788, 4185.983
1098.270, 4250.126
1098.752, 4306.144
1099.234, 4332.115
1099.716, 4352.540
1100.198, 4412.249
1100.680, 4489.867
1101.163, 4541.688
1101.645, 4573.914
1102.127, 4603.026
1102.609, 4634.234
1103.091, 4673.562
1103.573, 4723.963
1104.055, 4774.962
1104.537, 4807.226
1105.020, 4847.148
1105.502, 4937.420
1105.984, 5035.451
1106.466, 5080.282
1106.948, 5092.208
1107.430, 5125.184
1107.912, 5190.576
1108.394, 5260.680
1108.876, 5329.938
1109.359, 5393.386
1109.841, 5444.046
1110.323, 5493.685
1110.805, 5548.960
1111.287, 5607.376
1111.769, 5663.618
1112.251, 5719.096
1112.733, 5783.404
1113.215, 5864.987
1113.698, 5935.288
1114.180, 5981.116
1114.662, 6034.913
1115.144, 6108.669
1115.626, 6186.764
1116.108, 6261.664
1116.590, 6331.244
1117.072, 6391.325
1117.555, 6441.957
1118.037, 6486.318
1118.519, 6517.826
1119.001, 6587.200
1119.483, 6708.484
1119.965, 6811.988
1120.447, 6866.372
1120.929, 6905.990
1121.411, 6964.589
1121.894, 7037.359
1122.376, 7112.710
1122.858, 7190.195
1123.340, 7267.689
1123.822, 7345.880
1124.304, 7436.527
1124.786, 7538.503
1125.268, 7625.328
1125.750, 7680.936
1126.233, 7729.438
1126.715, 7798.450
1127.197, 7874.888
1127.679, 7942.069
1128.161, 8003.095
1128.643, 8058.991
1129.125, 8114.882
1129.607, 8177.620
1130.090, 8250.664
1130.572, 8346.233
1131.054, 8494.560
1131.536, 8624.686
1132.018, 8682.069
1132.500, 8729.106
1132.982, 8811.327
1133.464, 8906.113
1133.947, 8982.031
1134.429, 9042.955
1134.911, 9114.326
1135.393, 9200.074
1135.875, 9292.502
1136.357, 9399.143
1136.839, 9499.762
1137.321, 9591.551
1137.803, 9674.682
1138.286, 9741.694
1138.768, 9810.076
1139.250, 9908.889
1139.732, 10033.62
1140.214, 10143.58
1140.696, 10236.97
1141.178, 10333.06
1141.660, 10433.18
1142.142, 10540.32
1142.625, 10655.98
1143.107, 10761.04
1143.589, 10838.23
1144.071, 10908.67
1144.553, 11014.14
1145.035, 11141.24
1145.517, 11245.10
1145.999, 11335.16
1146.482, 11442.48
1146.964, 11568.51
1147.446, 11705.00
1147.928, 11846.48
1148.410, 11969.26
1148.892, 12038.06
1149.374, 12111.58
1149.856, 12254.02
1150.339, 12413.59
1150.821, 12543.34
1151.303, 12651.71
1151.785, 12750.40
1152.267, 12846.42
1152.749, 12959.90
1153.231, 13101.09
1153.713, 13236.58
1154.195, 13365.51
1154.677, 13480.06
1155.160, 13568.70
1155.642, 13652.10
1156.124, 13733.02
1156.606, 13824.41
1157.088, 13946.48
1157.570, 14097.12
1158.052, 14253.21
1158.534, 14417.79
1159.017, 14574.89
1159.499, 14724.75
1159.981, 14854.46
1160.463, 14958.99
1160.945, 15050.02
1161.427, 15134.59
1161.909, 15223.95
1162.391, 15336.75
1162.874, 15471.21
1163.356, 15633.58
1163.838, 15811.18
1164.320, 15949.09
1164.802, 16055.72
1165.284, 16200.35
1165.766, 16397.72
1166.248, 16558.98
1166.730, 16605.52
1167.213, 16647.55
1167.695, 16791.36
1168.177, 16955.03
1168.659, 17051.43
1169.141, 17133.29
1169.623, 17281.28
1170.105, 17476.63
1170.587, 17639.49
1171.069, 17748.65
1171.552, 17889.09
1172.034, 18144.05
1172.516, 18324.04
1172.998, 18325.90
1173.480, 18358.99
1173.962, 18542.19
1174.444, 18750.26
1174.926, 18840.89
1175.409, 18860.05
1175.891, 18976.50
1176.373, 19201.45
1176.855, 19356.02
1177.337, 19438.87
1177.819, 19532.95
1178.301, 19654.24
1178.783, 19797.09
1179.266, 19959.05
1179.748, 20117.47
1180.230, 20245.30
1180.712, 20357.58
1181.194, 20460.88
1181.676, 20576.16
1182.158, 20760.06
1182.640, 20974.48
1183.122, 21132.99
1183.604, 21234.58
1184.087, 21339.48
1184.569, 21469.21
1185.051, 21603.94
1185.533, 21747.42
1186.015, 21876.31
1186.497, 21955.41
1186.979, 22044.34
1187.461, 22214.81
1187.944, 22400.48
1188.426, 22493.66
1188.908, 22514.06
1189.390, 22581.85
1189.872, 22708.91
1190.354, 22847.13
1190.836, 23005.96
1191.318, 23130.79
1191.801, 23204.09
1192.283, 23274.53
1192.765, 23367.09
1193.247, 23490.93
1193.729, 23675.87
1194.211, 23873.12
1194.693, 23944.58
1195.175, 23940.13
1195.657, 23986.21
1196.140, 24079.38
1196.622, 24194.20
1197.104, 24314.00
1197.586, 24401.63
1198.068, 24439.08
1198.550, 24459.85
1199.032, 24444.20
1199.514, 24470.78
1199.996, 24649.34
1200.479, 24820.97
1200.961, 24839.97
1201.443, 24784.58
1201.925, 24777.05
1202.407, 24815.47
1202.889, 24829.73
1203.371, 24808.29
1203.853, 24800.62
1204.336, 24815.34
1204.818, 24815.96
1205.300, 24794.83
1205.782, 24757.01
1206.264, 24702.25
1206.746, 24652.42
1207.228, 24637.43
1207.710, 24638.48
1208.193, 24604.50
1208.675, 24549.13
1209.157, 24518.11
1209.639, 24500.17
1210.121, 24451.52
1210.603, 24373.69
1211.085, 24314.02
1211.567, 24291.83
1212.049, 24249.22
1212.531, 24129.58
1213.014, 24008.09
1213.496, 23918.52
1213.978, 23847.51
1214.460, 23792.16
1214.942, 23745.69
1215.424, 23705.26
1215.906, 23667.29
1216.388, 23621.24
1216.871, 23568.43
1217.353, 23494.04
1217.835, 23384.08
1218.317, 23319.45
1218.799, 23320.94
1219.281, 23294.08
1219.763, 23196.88
1220.245, 23095.03
1220.728, 23048.88
1221.210, 23030.44
1221.692, 22996.60
1222.174, 22950.93
1222.656, 22899.40
1223.138, 22842.51
1223.620, 22771.79
1224.102, 22698.31
1224.584, 22659.26
1225.067, 22660.02
1225.549, 22643.69
1226.031, 22572.04
1226.513, 22508.02
1226.995, 22464.41
1227.477, 22443.46
1227.959, 22477.06
1228.441, 22499.89
1228.923, 22449.46
1229.406, 22370.41
1229.888, 22338.84
1230.370, 22351.34
1230.852, 22380.57
1231.334, 22428.70
1231.816, 22430.51
1232.298, 22384.70
1232.780, 22349.92
1233.263, 22341.85
##END=



