##NAMES=Mimetite
##RRUFFID=R050527
##IDEAL CHEMISTRY=Pb^2+^_5_(As^5+^O_4_)_3_Cl
##LOCALITY=Tsumeb mine, Tsumeb, Otavi District, Oshikoto, Namibia
##OWNER=RRUFF
##SOURCE=University of Arizona Mineral Museum
##DESCRIPTION=Yellow hexagonal prisms, monoclinic polytype
##STATUS=The identification of this mineral has been confirmed by X-ray diffraction and chemical analysis
##URL=rruff.info/R050527
##MEASURED CHEMISTRY=Pb_5.00_(As_1.00_O_4_)_3_Cl_1.00_
91.40820, 21.88203
91.89032, 22.06643
92.37244, 21.92426
92.85455, 21.52151
93.33667, 21.25212
93.81879, 21.50845
94.30090, 22.13797
94.78302, 22.69000
95.26514, 23.05429
95.74725, 23.28943
96.22937, 23.58467
96.71149, 23.95876
97.19360, 24.15197
97.67572, 23.70251
98.15784, 22.63332
98.63995, 21.92964
99.12207, 21.94918
99.60419, 22.61233
100.0863, 23.25076
100.5684, 23.89422
101.0505, 24.45513
101.5327, 24.78260
102.0148, 24.78659
102.4969, 24.84801
102.9790, 25.05260
103.4611, 25.36826
103.9432, 25.99945
104.4253, 26.97599
104.9075, 28.25095
105.3896, 29.70264
105.8717, 31.33856
106.3538, 33.16030
106.8359, 35.17029
107.3180, 37.09283
107.8002, 39.64768
108.2823, 42.85176
108.7644, 46.68115
109.2465, 51.19786
109.7286, 56.82218
110.2107, 62.77197
110.6929, 68.81368
111.1750, 73.62070
111.6571, 79.90937
112.1392, 88.32199
112.6213, 98.64821
113.1034, 109.4293
113.5856, 119.7816
114.0677, 131.0103
114.5498, 143.9396
115.0319, 158.1658
115.5140, 174.7538
115.9961, 194.0093
116.4783, 215.9317
116.9604, 239.9030
117.4425, 266.1639
117.9246, 294.5342
118.4067, 324.5488
118.8888, 357.9075
119.3710, 391.7837
119.8531, 425.0175
120.3352, 457.4883
120.8173, 488.4526
121.2994, 517.2126
121.7815, 543.8831
122.2637, 568.7674
122.7458, 591.6497
123.2279, 612.7328
123.7100, 631.3645
124.1921, 646.8132
124.6742, 662.5887
125.1564, 681.3655
125.6385, 703.0071
126.1206, 727.1899
126.6027, 753.2966
127.0848, 781.6918
127.5669, 813.1115
128.0491, 848.1258
128.5312, 885.2431
129.0133, 922.6127
129.4954, 959.9932
129.9775, 998.2798
130.4596, 1039.600
130.9418, 1082.480
131.4239, 1122.746
131.9060, 1159.567
132.3881, 1193.480
132.8702, 1224.550
133.3523, 1252.800
133.8345, 1279.921
134.3166, 1308.054
134.7987, 1337.385
135.2808, 1363.427
135.7629, 1384.930
136.2450, 1402.806
136.7272, 1420.714
137.2093, 1438.621
137.6914, 1456.975
138.1735, 1476.375
138.6556, 1496.833
139.1377, 1517.675
139.6199, 1538.887
140.1020, 1560.289
140.5841, 1582.379
141.0662, 1604.625
141.5483, 1627.915
142.0304, 1653.255
142.5126, 1680.261
142.9947, 1709.050
143.4768, 1734.278
143.9589, 1752.326
144.4410, 1770.521
144.9231, 1789.297
145.4053, 1808.102
145.8874, 1826.506
146.3695, 1844.436
146.8516, 1862.041
147.3337, 1878.780
147.8158, 1893.924
148.2980, 1910.947
148.7801, 1931.764
149.2622, 1954.218
149.7443, 1973.420
150.2264, 1988.213
150.7085, 2001.248
151.1907, 2013.324
151.6728, 2025.788
152.1549, 2035.583
152.6370, 2040.145
153.1191, 2041.878
153.6012, 2046.646
154.0834, 2059.539
154.5655, 2071.862
155.0476, 2079.918
155.5297, 2079.141
156.0118, 2079.474
156.4939, 2082.036
156.9761, 2086.646
157.4582, 2092.740
157.9403, 2100.323
158.4224, 2109.222
158.9045, 2119.470
159.3866, 2133.539
159.8688, 2145.979
160.3509, 2153.798
160.8330, 2158.119
161.3151, 2164.106
161.7972, 2174.246
162.2793, 2186.436
162.7615, 2199.071
163.2436, 2211.145
163.7257, 2224.109
164.2078, 2239.044
164.6899, 2255.716
165.1720, 2272.531
165.6541, 2289.827
166.1363, 2306.433
166.6184, 2321.195
167.1005, 2334.502
167.5826, 2345.221
168.0647, 2352.274
168.5468, 2355.819
169.0290, 2357.863
169.5111, 2360.026
169.9932, 2361.358
170.4753, 2360.597
170.9574, 2355.291
171.4395, 2348.997
171.9217, 2346.266
172.4038, 2347.094
172.8859, 2344.722
173.3680, 2331.569
173.8501, 2311.939
174.3322, 2293.153
174.8144, 2280.370
175.2965, 2268.960
175.7786, 2252.860
176.2607, 2231.679
176.7428, 2210.358
177.2249, 2193.914
177.7071, 2180.894
178.1892, 2167.347
178.6713, 2152.316
179.1534, 2135.397
179.6355, 2115.463
180.1176, 2092.098
180.5998, 2067.446
181.0819, 2043.310
181.5640, 2019.604
182.0461, 1995.105
182.5282, 1969.630
183.0103, 1943.114
183.4925, 1915.232
183.9746, 1885.911
184.4567, 1856.278
184.9388, 1828.341
185.4209, 1801.511
185.9030, 1773.844
186.3852, 1742.984
186.8673, 1710.326
187.3494, 1679.768
187.8315, 1651.818
188.3136, 1625.260
188.7957, 1597.347
189.2779, 1568.460
189.7600, 1540.240
190.2421, 1514.496
190.7242, 1490.764
191.2063, 1465.192
191.6884, 1437.126
192.1706, 1408.724
192.6527, 1382.672
193.1348, 1359.100
193.6169, 1335.894
194.0990, 1311.398
194.5811, 1285.848
195.0633, 1261.428
195.5454, 1238.315
196.0275, 1216.143
196.5096, 1195.156
196.9917, 1175.283
197.4738, 1156.227
197.9560, 1138.384
198.4381, 1121.849
198.9202, 1103.746
199.4023, 1083.507
199.8844, 1062.459
200.3665, 1043.396
200.8487, 1026.305
201.3308, 1010.702
201.8129, 996.6362
202.2950, 984.2123
202.7771, 972.0261
203.2592, 959.8936
203.7414, 947.9364
204.2235, 936.4899
204.7056, 925.9260
205.1877, 914.8060
205.6698, 901.8896
206.1519, 886.6101
206.6341, 873.2488
207.1162, 862.5587
207.5983, 853.4407
208.0804, 843.4966
208.5625, 832.5631
209.0446, 821.5970
209.5268, 810.9957
210.0089, 800.7127
210.4910, 791.0942
210.9731, 782.3652
211.4552, 774.1335
211.9373, 765.6030
212.4195, 756.7666
212.9016, 747.7748
213.3837, 738.6045
213.8658, 729.0141
214.3479, 720.0246
214.8300, 711.5740
215.3121, 703.7094
215.7943, 696.7189
216.2764, 691.1855
216.7585, 685.3949
217.2406, 678.2900
217.7227, 669.2250
218.2048, 661.1706
218.6870, 654.4811
219.1691, 648.6443
219.6512, 642.2938
220.1333, 635.1399
220.6154, 627.9483
221.0975, 620.8331
221.5797, 613.7087
222.0618, 607.1311
222.5439, 601.1427
223.0260, 595.7101
223.5081, 590.7283
223.9902, 586.7497
224.4724, 582.3439
224.9545, 576.9477
225.4366, 570.0751
225.9187, 563.3994
226.4008, 556.7325
226.8829, 550.3035
227.3651, 544.5027
227.8472, 539.1075
228.3293, 534.6147
228.8114, 531.5865
229.2935, 531.1644
229.7757, 528.5309
230.2578, 522.4418
230.7399, 514.7639
231.2220, 509.1242
231.7041, 506.3825
232.1862, 504.3610
232.6684, 502.3671
233.1505, 500.4297
233.6326, 498.4619
234.1147, 496.7905
234.5968, 494.9069
235.0789, 491.7419
235.5611, 486.1576
236.0432, 481.1671
236.5253, 477.8734
237.0074, 476.9198
237.4895, 475.5072
237.9716, 473.4420
238.4538, 471.0424
238.9359, 468.8409
239.4180, 466.9927
239.9001, 465.0573
240.3822, 462.8918
240.8643, 460.4937
241.3465, 457.9218
241.8286, 454.8318
242.3107, 451.8074
242.7928, 449.7921
243.2749, 449.5481
243.7570, 448.9850
244.2392, 447.4348
244.7213, 444.6825
245.2034, 442.1718
245.6855, 439.8031
246.1676, 437.7388
246.6497, 436.2867
247.1319, 436.0053
247.6140, 435.3145
248.0961, 433.6332
248.5782, 430.7741
249.0603, 428.7488
249.5424, 428.0810
250.0246, 427.7394
250.5067, 426.4916
250.9888, 423.7144
251.4709, 421.2620
251.9530, 419.5877
252.4351, 418.7161
252.9173, 417.8459
253.3994, 416.9819
253.8815, 416.0779
254.3636, 415.0094
254.8457, 413.4923
255.3278, 412.4669
255.8100, 412.3531
256.2921, 413.1040
256.7742, 412.9717
257.2563, 411.5342
257.7384, 409.7817
258.2205, 408.5195
258.7026, 407.7558
259.1848, 407.5222
259.6669, 408.2275
260.1490, 409.6400
260.6311, 409.4577
261.1132, 406.8060
261.5953, 404.0071
262.0775, 402.9771
262.5596, 404.4777
263.0417, 405.4783
263.5238, 405.5339
264.0059, 404.8225
264.4880, 404.1544
264.9702, 403.4427
265.4523, 402.9384
265.9344, 402.7890
266.4165, 402.9992
266.8986, 403.6070
267.3807, 404.9190
267.8629, 406.5243
268.3450, 406.9160
268.8271, 405.5871
269.3092, 404.3156
269.7913, 404.0156
270.2734, 404.7741
270.7556, 406.2222
271.2377, 408.6068
271.7198, 411.4940
272.2019, 413.9308
272.6840, 415.9018
273.1661, 417.5142
273.6483, 418.4756
274.1304, 418.5384
274.6125, 420.0295
275.0946, 423.2599
275.5767, 427.5323
276.0588, 431.6043
276.5410, 435.3469
277.0231, 439.4553
277.5052, 444.4297
277.9873, 450.3109
278.4694, 454.9780
278.9515, 458.0146
279.4337, 460.6864
279.9158, 464.7638
280.3979, 470.2981
280.8800, 476.4596
281.3621, 482.8530
281.8442, 489.5349
282.3264, 496.8494
282.8085, 504.8556
283.2906, 513.3190
283.7727, 521.7674
284.2548, 530.1965
284.7369, 539.6550
285.2191, 550.6044
285.7012, 562.7682
286.1833, 575.3882
286.6654, 588.4228
287.1475, 602.2649
287.6296, 617.2264
288.1118, 633.3036
288.5939, 649.7933
289.0760, 666.3152
289.5581, 683.2818
290.0402, 702.1439
290.5223, 722.9982
291.0045, 745.2283
291.4866, 768.2367
291.9687, 792.2862
292.4508, 818.7787
292.9329, 848.5016
293.4150, 880.0831
293.8972, 912.2665
294.3793, 945.1089
294.8614, 979.3738
295.3435, 1014.764
295.8256, 1051.735
296.3077, 1091.437
296.7899, 1133.809
297.2720, 1178.527
297.7541, 1224.640
298.2362, 1271.970
298.7183, 1320.802
299.2004, 1372.083
299.6826, 1424.545
300.1647, 1476.918
300.6468, 1528.725
301.1289, 1580.764
301.6110, 1636.067
302.0931, 1692.602
302.5753, 1746.719
303.0574, 1794.816
303.5395, 1839.921
304.0216, 1885.872
304.5037, 1933.233
304.9858, 1977.623
305.4680, 2013.897
305.9501, 2045.046
306.4322, 2076.014
306.9143, 2108.403
307.3964, 2141.857
307.8785, 2177.306
308.3607, 2214.392
308.8428, 2250.959
309.3249, 2285.258
309.8070, 2318.368
310.2891, 2351.642
310.7712, 2387.680
311.2534, 2421.654
311.7355, 2452.047
312.2176, 2478.320
312.6997, 2497.452
313.1818, 2508.949
313.6639, 2511.838
314.1461, 2504.821
314.6282, 2486.066
315.1103, 2460.682
315.5924, 2429.715
316.0745, 2394.118
316.5566, 2355.284
317.0388, 2313.067
317.5209, 2268.730
318.0030, 2221.604
318.4851, 2170.385
318.9672, 2121.731
319.4493, 2078.225
319.9315, 2038.719
320.4136, 2001.103
320.8957, 1959.458
321.3778, 1924.922
321.8599, 1903.052
322.3420, 1895.043
322.8242, 1888.267
323.3063, 1877.227
323.7884, 1867.642
324.2705, 1864.501
324.7526, 1871.404
325.2347, 1881.866
325.7169, 1894.514
326.1990, 1909.458
326.6811, 1927.684
327.1632, 1951.842
327.6453, 1977.536
328.1274, 2002.320
328.6096, 2023.741
329.0917, 2047.388
329.5738, 2073.958
330.0559, 2102.700
330.5380, 2131.902
331.0201, 2164.361
331.5023, 2194.247
331.9844, 2218.879
332.4665, 2235.323
332.9486, 2253.348
333.4307, 2274.443
333.9128, 2296.257
334.3950, 2314.629
334.8771, 2330.156
335.3592, 2341.371
335.8413, 2347.219
336.3234, 2347.343
336.8055, 2346.420
337.2877, 2345.648
337.7698, 2342.174
338.2519, 2332.605
338.7340, 2316.398
339.2161, 2296.384
339.6982, 2272.687
340.1803, 2245.602
340.6624, 2218.929
341.1446, 2193.127
341.6267, 2165.214
342.1088, 2131.828
342.5909, 2093.147
343.0730, 2052.286
343.5551, 2009.906
344.0373, 1965.742
344.5194, 1920.081
345.0015, 1872.482
345.4836, 1824.281
345.9657, 1776.564
346.4478, 1728.983
346.9300, 1679.202
347.4121, 1626.038
347.8942, 1572.951
348.3763, 1523.406
348.8584, 1477.362
349.3405, 1433.236
349.8227, 1390.826
350.3048, 1349.759
350.7869, 1308.915
351.2690, 1268.432
351.7511, 1229.310
352.2332, 1192.564
352.7154, 1158.273
353.1975, 1126.716
353.6796, 1098.757
354.1617, 1072.731
354.6438, 1046.411
355.1259, 1020.128
355.6081, 995.8361
356.0902, 974.6725
356.5723, 955.9664
357.0544, 938.8524
357.5365, 923.4570
358.0186, 909.3138
358.5008, 896.2335
358.9829, 884.2020
359.4650, 873.1959
359.9471, 862.9727
360.4292, 853.9468
360.9113, 846.2651
361.3935, 839.9832
361.8756, 835.3836
362.3577, 833.2449
362.8398, 832.6525
363.3219, 832.5657
363.8040, 833.0417
364.2862, 833.6727
364.7683, 833.1224
365.2504, 831.6652
365.7325, 834.0448
366.2146, 844.3903
366.6967, 856.8085
367.1789, 867.6379
367.6610, 874.7050
368.1431, 882.3015
368.6252, 892.1177
369.1073, 902.9230
369.5894, 910.7132
370.0716, 914.1608
370.5537, 916.0325
371.0358, 917.5628
371.5179, 919.7252
372.0000, 918.4949
372.4821, 913.1951
372.9643, 904.9835
373.4464, 895.2803
373.9285, 883.9966
374.4106, 871.5135
374.8927, 857.6750
375.3748, 842.4453
375.8570, 826.5734
376.3391, 809.1400
376.8212, 792.6850
377.3033, 779.5326
377.7854, 770.2311
378.2675, 760.6465
378.7497, 749.9212
379.2318, 738.7942
379.7139, 728.5051
380.1960, 719.0792
380.6781, 711.2518
381.1602, 705.9003
381.6424, 702.7618
382.1245, 699.8947
382.6066, 696.9600
383.0887, 695.2709
383.5708, 696.5707
384.0529, 700.6008
384.5351, 706.2301
385.0172, 713.7672
385.4993, 722.1768
385.9814, 729.8378
386.4635, 736.7218
386.9456, 743.6787
387.4278, 751.7096
387.9099, 760.0851
388.3920, 767.7253
388.8741, 774.1904
389.3562, 780.0129
389.8383, 786.1045
390.3205, 792.0854
390.8026, 796.7206
391.2847, 798.1933
391.7668, 798.8177
392.2489, 800.3058
392.7310, 802.9150
393.2132, 806.1132
393.6953, 809.4162
394.1774, 813.1891
394.6595, 817.9170
395.1416, 824.5076
395.6237, 831.3123
396.1059, 837.2697
396.5880, 842.5162
397.0701, 849.3871
397.5522, 859.0451
398.0343, 869.9454
398.5164, 881.1534
398.9986, 891.6163
399.4807, 903.6681
399.9628, 917.4608
400.4449, 932.8781
400.9270, 949.8107
401.4091, 968.7646
401.8913, 988.3192
402.3734, 1007.831
402.8555, 1027.005
403.3376, 1048.011
403.8197, 1071.763
404.3018, 1096.273
404.7840, 1119.655
405.2661, 1142.192
405.7482, 1162.878
406.2303, 1182.015
406.7124, 1199.120
407.1945, 1213.010
407.6767, 1223.702
408.1588, 1231.012
408.6409, 1235.130
409.1230, 1235.926
409.6051, 1232.140
410.0872, 1223.631
410.5694, 1210.615
411.0515, 1192.513
411.5336, 1169.797
412.0157, 1145.713
412.4978, 1121.744
412.9799, 1097.345
413.4621, 1070.332
413.9442, 1040.575
414.4263, 1012.171
414.9084, 988.1559
415.3905, 967.5545
415.8727, 948.4047
416.3548, 930.2388
416.8369, 913.2538
417.3190, 897.5037
417.8011, 883.0603
418.2832, 869.8395
418.7654, 857.9424
419.2475, 847.2873
419.7296, 837.8476
420.2117, 829.4266
420.6938, 822.7921
421.1759, 819.9595
421.6581, 818.3686
422.1402, 815.2687
422.6223, 809.7606
423.1044, 802.9658
423.5865, 795.0287
424.0686, 786.0298
424.5508, 776.1816
425.0329, 765.2828
425.5150, 753.7842
425.9971, 742.0403
426.4792, 731.0905
426.9613, 717.7090
427.4435, 700.5912
427.9256, 681.8629
428.4077, 664.9832
428.8898, 650.3747
429.3719, 636.2527
429.8540, 622.1497
430.3362, 608.1124
430.8183, 593.6888
431.3004, 578.7008
431.7825, 564.0721
432.2646, 550.4980
432.7467, 538.0267
433.2289, 526.3521
433.7110, 515.6439
434.1931, 505.7381
434.6752, 496.4848
435.1573, 487.8716
435.6394, 479.7963
436.1216, 472.4990
436.6037, 465.6183
437.0858, 458.3287
437.5679, 450.5635
438.0500, 443.0912
438.5321, 437.2423
439.0142, 432.0288
439.4963, 425.6631
439.9785, 416.8109
440.4606, 407.7381
440.9427, 400.5966
441.4248, 394.8282
441.9069, 388.8708
442.3890, 381.9603
442.8712, 374.6253
443.3533, 366.9258
443.8354, 358.6162
444.3175, 351.2531
444.7996, 346.2471
445.2817, 342.1519
445.7639, 337.4125
446.2460, 331.2427
446.7281, 324.9442
447.2102, 318.3047
447.6923, 311.5177
448.1744, 306.2129
448.6566, 303.8300
449.1387, 301.3936
449.6208, 297.5589
450.1029, 291.8400
450.5850, 286.0374
451.0671, 280.0323
451.5493, 274.1401
452.0314, 268.8955
452.5135, 264.4864
452.9956, 260.1132
453.4777, 255.6022
453.9598, 251.0128
454.4420, 246.4690
454.9241, 242.0099
455.4062, 237.5995
455.8883, 233.1665
456.3704, 228.7722
456.8525, 224.7945
457.3347, 221.3926
457.8168, 218.2398
458.2989, 215.1529
458.7810, 212.0518
459.2631, 208.8020
459.7452, 205.0928
460.2274, 201.2996
460.7095, 197.7258
461.1916, 194.3631
461.6737, 191.5434
462.1558, 189.9651
462.6379, 188.7151
463.1201, 186.8692
463.6022, 183.8622
464.0843, 181.1155
464.5664, 179.4853
465.0485, 178.4241
465.5306, 177.0595
466.0128, 175.1201
466.4949, 172.9155
466.9770, 170.1795
467.4591, 166.8755
467.9412, 164.7537
468.4233, 164.7701
468.9055, 165.1489
469.3876, 164.8914
469.8697, 163.8217
470.3518, 162.4973
470.8339, 160.8641
471.3160, 159.0229
471.7982, 157.0532
472.2803, 154.8346
472.7624, 152.9690
473.2445, 151.6927
473.7266, 150.9486
474.2087, 150.6152
474.6909, 150.7619
475.1730, 150.7284
475.6551, 149.7397
476.1372, 148.0408
476.6193, 146.7044
477.1014, 145.9824
477.5836, 145.4003
478.0657, 144.2965
478.5478, 142.8405
479.0299, 141.5428
479.5120, 140.5689
479.9941, 139.8937
480.4763, 139.7941
480.9584, 140.1690
481.4405, 140.0603
481.9226, 138.4394
482.4047, 136.4119
482.8868, 134.8867
483.3690, 134.2849
483.8511, 133.7248
484.3332, 133.0464
484.8153, 132.2410
485.2974, 131.2795
485.7795, 130.0374
486.2617, 128.7760
486.7438, 127.4296
487.2259, 126.0049
487.7080, 125.0866
488.1901, 124.9384
488.6722, 124.9442
489.1544, 124.7200
489.6365, 124.1825
490.1186, 123.7872
490.6007, 123.6479
491.0828, 123.5073
491.5649, 122.8562
492.0471, 121.6717
492.5292, 120.6055
493.0113, 119.8471
493.4934, 119.3758
493.9755, 119.3238
494.4576, 119.6613
494.9398, 119.7434
495.4219, 118.7287
495.9040, 117.2107
496.3861, 116.4454
496.8682, 116.7111
497.3503, 116.9209
497.8325, 115.8944
498.3146, 114.2776
498.7967, 113.0505
499.2788, 113.1156
499.7609, 113.1919
500.2430, 112.4550
500.7252, 111.1277
501.2073, 110.1892
501.6894, 110.4531
502.1715, 110.7639
502.6536, 110.5217
503.1357, 109.3993
503.6179, 108.5312
504.1000, 108.1752
504.5821, 107.9353
505.0642, 107.4147
505.5463, 106.5105
506.0284, 105.5211
506.5106, 104.3532
506.9927, 103.1786
507.4748, 102.7295
507.9569, 103.1987
508.4390, 103.4490
508.9211, 102.5789
509.4033, 100.8151
509.8854, 100.2194
510.3675, 100.8969
510.8496, 101.8542
511.3317, 102.2355
511.8138, 102.1230
512.2960, 101.7107
512.7781, 100.9749
513.2602, 100.0916
513.7423, 99.24125
514.2244, 98.38712
514.7065, 97.43884
515.1887, 95.80355
515.6708, 94.49052
516.1529, 94.50356
516.6350, 95.81123
517.1171, 96.67506
517.5992, 96.11648
518.0814, 95.15145
518.5635, 94.43253
519.0456, 94.14095
519.5277, 93.93533
520.0098, 93.96880
520.4919, 94.00920
520.9741, 93.66551
521.4562, 92.64087
521.9383, 91.85563
522.4204, 91.65421
522.9025, 91.88578
523.3846, 91.42947
523.8668, 90.06592
524.3489, 88.94724
524.8310, 89.07926
525.3131, 90.26063
525.7952, 90.63410
526.2773, 90.02809
526.7595, 89.17033
527.2416, 88.94198
527.7237, 89.12348
528.2058, 89.15397
528.6879, 88.86768
529.1700, 88.36585
529.6522, 87.54482
530.1343, 86.56334
530.6164, 85.85515
531.0985, 85.89964
531.5806, 86.08720
532.0627, 86.01334
532.5449, 85.62939
533.0270, 85.35512
533.5091, 85.40407
533.9912, 85.54350
534.4733, 85.61166
534.9554, 85.74339
535.4376, 85.56467
535.9197, 84.77414
536.4018, 83.81965
536.8839, 83.57359
537.3660, 84.35004
537.8481, 84.97065
538.3303, 85.05567
538.8124, 84.73151
539.2945, 84.72200
539.7766, 85.06373
540.2587, 85.40981
540.7408, 85.54432
541.2230, 85.49201
541.7051, 85.28320
542.1872, 84.89643
542.6693, 84.55483
543.1514, 84.60005
543.6335, 84.82915
544.1157, 84.84617
544.5978, 84.34949
545.0799, 83.86285
545.5620, 83.79875
546.0441, 84.03091
546.5262, 84.24696
547.0084, 84.44975
547.4905, 84.50254
547.9726, 84.19622
548.4547, 83.46834
548.9368, 83.19496
549.4189, 83.83768
549.9011, 84.63808
550.3832, 85.19192
550.8653, 85.50880
551.3474, 85.50253
551.8295, 84.99305
552.3116, 84.36934
552.7938, 84.24894
553.2759, 84.68184
553.7580, 85.14622
554.2401, 85.55556
554.7222, 85.86598
555.2043, 85.98745
555.6865, 85.91734
556.1686, 85.63101
556.6507, 84.93932
557.1328, 84.09313
557.6149, 83.41885
558.0970, 82.93517
558.5792, 82.66954
559.0613, 82.82105
559.5434, 83.11842
560.0255, 83.27599
560.5076, 83.11707
560.9897, 83.01108
561.4719, 83.20080
561.9540, 83.49534
562.4361, 83.57480
562.9182, 83.12711
563.4003, 82.77459
563.8824, 82.75711
564.3646, 82.97937
564.8467, 82.69173
565.3288, 81.61608
565.8109, 80.59818
566.2930, 80.04368
566.7751, 79.96383
567.2573, 80.17680
567.7394, 80.72531
568.2215, 81.37423
568.7036, 82.06594
569.1857, 82.68765
569.6678, 82.78280
570.1500, 82.13537
570.6321, 81.23003
571.1142, 80.39951
571.5963, 79.74301
572.0784, 79.48436
572.5605, 80.01302
573.0427, 80.71243
573.5248, 81.38058
574.0069, 81.95750
574.4890, 82.15803
574.9711, 81.45420
575.4532, 80.70554
575.9354, 80.36285
576.4175, 80.57700
576.8996, 80.75459
577.3817, 80.97301
577.8638, 81.07766
578.3459, 80.82500
578.8281, 80.01468
579.3102, 79.74150
579.7923, 80.28559
580.2744, 81.17606
580.7565, 81.39392
581.2386, 80.98830
581.7208, 80.85825
582.2029, 81.60833
582.6850, 82.66194
583.1671, 82.92051
583.6492, 82.49052
584.1313, 82.00625
584.6135, 81.72169
585.0956, 81.65655
585.5776, 81.97051
586.0598, 82.73931
586.5419, 83.20679
587.0240, 82.53414
587.5061, 81.72523
587.9882, 81.62208
588.4703, 83.14199
588.9525, 84.27882
589.4346, 84.87643
589.9167, 85.07883
590.3988, 85.05399
590.8809, 84.62854
591.3630, 84.43040
591.8452, 84.65018
592.3273, 85.18559
592.8094, 85.71477
593.2915, 86.24770
593.7736, 86.60168
594.2557, 86.53444
594.7379, 86.22175
595.2200, 86.02897
595.7021, 85.96703
596.1842, 86.28801
596.6663, 87.65895
597.1484, 89.33243
597.6306, 90.41316
598.1127, 90.64988
598.5948, 90.43401
599.0769, 89.25954
599.5590, 87.97147
600.0411, 87.63084
600.5233, 89.54869
601.0054, 91.15637
601.4875, 92.01026
601.9696, 92.26753
602.4517, 92.38087
602.9338, 92.28825
603.4160, 92.18099
603.8981, 92.07801
604.3802, 92.00018
604.8623, 92.22728
605.3444, 92.80205
605.8265, 93.35480
606.3087, 93.56612
606.7908, 93.53671
607.2729, 93.51267
607.7550, 93.50288
608.2371, 93.61411
608.7192, 94.13664
609.2014, 94.77647
609.6835, 95.09534
610.1656, 94.66364
610.6477, 94.39575
611.1298, 94.93161
611.6119, 95.85811
612.0941, 96.44631
612.5762, 96.09821
613.0583, 95.91637
613.5404, 96.38145
614.0225, 97.26351
614.5046, 97.21445
614.9868, 95.72596
615.4689, 94.47233
615.9510, 94.42121
616.4331, 95.48534
616.9152, 95.70753
617.3973, 95.01115
617.8795, 94.15451
618.3616, 93.90628
618.8437, 94.01244
619.3258, 93.84070
619.8079, 93.26536
620.2900, 92.60423
620.7722, 91.93692
621.2543, 91.41233
621.7364, 91.25779
622.2185, 91.96960
622.7006, 92.52930
623.1827, 92.64159
623.6649, 92.36132
624.1470, 91.81557
624.6291, 90.69578
625.1112, 89.70200
625.5933, 88.97958
626.0754, 88.51123
626.5576, 88.22398
627.0397, 88.14778
627.5218, 88.15088
628.0039, 88.17200
628.4860, 88.21146
628.9681, 88.30242
629.4503, 88.45266
629.9324, 88.54953
630.4145, 88.60853
630.8966, 88.51833
631.3787, 87.99034
631.8608, 86.86235
632.3430, 85.80318
632.8251, 85.21058
633.3072, 84.97194
633.7893, 84.93839
634.2714, 85.48766
634.7535, 85.75329
635.2357, 85.38869
635.7178, 84.63894
636.1999, 84.03428
636.6820, 83.49052
637.1641, 83.26929
637.6462, 83.52531
638.1284, 84.15858
638.6105, 84.73790
639.0926, 85.30132
639.5747, 85.48225
640.0568, 84.60999
640.5389, 83.21420
641.0211, 83.07028
641.5032, 84.17487
641.9853, 85.32863
642.4674, 85.64611
642.9495, 85.47945
643.4316, 85.13033
643.9138, 84.56960
644.3959, 84.18954
644.8780, 84.27481
645.3601, 84.57375
645.8422, 84.83717
646.3243, 84.97653
646.8065, 85.16087
647.2886, 85.42449
647.7707, 85.72137
648.2528, 85.95968
648.7349, 86.10933
649.2170, 86.35841
649.6992, 86.87598
650.1813, 87.42214
650.6634, 87.24133
651.1455, 86.40486
651.6276, 85.64012
652.1097, 85.25867
652.5919, 85.21776
653.0740, 85.62435
653.5561, 86.40417
654.0382, 87.01194
654.5203, 86.96473
655.0024, 86.76704
655.4846, 86.74788
655.9667, 86.97527
656.4488, 87.23218
656.9309, 87.50919
657.4130, 87.78484
657.8951, 88.04621
658.3773, 88.28574
658.8594, 88.53488
659.3415, 88.81289
659.8236, 89.06673
660.3057, 89.23502
660.7878, 89.31663
661.2700, 89.28173
661.7521, 89.05836
662.2342, 88.86007
662.7163, 88.93342
663.1984, 89.25771
663.6805, 89.77986
664.1627, 90.65834
664.6448, 91.55295
665.1269, 92.38746
665.6090, 93.10219
666.0911, 93.46440
666.5732, 92.86576
667.0554, 92.48192
667.5375, 92.77731
668.0196, 93.74370
668.5017, 94.54836
668.9838, 95.23386
669.4659, 95.66949
669.9481, 95.59269
670.4302, 95.05981
670.9123, 95.12778
671.3944, 95.84792
671.8765, 96.70335
672.3586, 97.23406
672.8408, 97.55177
673.3229, 97.83694
673.8050, 98.10587
674.2871, 98.41023
674.7692, 98.62685
675.2513, 98.96307
675.7335, 99.66296
676.2156, 101.6890
676.6977, 102.8938
677.1798, 102.5064
677.6619, 101.3506
678.1440, 100.5506
678.6262, 99.96291
679.1083, 100.2080
679.5904, 101.7346
680.0725, 103.8825
680.5546, 105.0145
681.0367, 105.1720
681.5189, 105.1529
682.0010, 105.1761
682.4831, 105.3385
682.9652, 105.8082
683.4473, 106.5542
683.9294, 107.4753
684.4116, 108.5936
684.8937, 109.7908
685.3758, 111.1759
685.8579, 112.7615
686.3400, 113.7622
686.8221, 113.5368
687.3043, 113.1177
687.7864, 112.9025
688.2685, 112.8468
688.7506, 113.3019
689.2327, 114.3939
689.7148, 115.6778
690.1970, 116.8119
690.6791, 117.7998
691.1612, 118.5206
691.6433, 118.8951
692.1254, 119.3488
692.6075, 120.2095
693.0897, 121.4704
693.5718, 123.2056
694.0539, 125.8754
694.5360, 128.1865
695.0181, 129.5375
695.5002, 130.1857
695.9824, 130.5614
696.4645, 130.2029
696.9466, 130.2806
697.4287, 131.0004
697.9108, 132.2064
698.3929, 133.6284
698.8751, 135.3818
699.3572, 136.7137
699.8393, 137.1159
700.3214, 137.1636
700.8035, 138.4531
701.2856, 140.7760
701.7678, 142.9210
702.2499, 143.8251
702.7320, 144.4942
703.2141, 146.1225
703.6962, 148.5493
704.1783, 150.3449
704.6605, 150.0955
705.1426, 149.8455
705.6247, 150.6304
706.1068, 152.5430
706.5889, 154.8051
707.0710, 157.7920
707.5532, 160.4400
708.0353, 161.8344
708.5174, 161.9746
708.9995, 162.8532
709.4816, 164.5758
709.9637, 166.6220
710.4459, 168.6249
710.9280, 170.5763
711.4101, 172.4452
711.8922, 174.2693
712.3743, 175.8729
712.8564, 176.8259
713.3386, 177.6519
713.8207, 178.9276
714.3028, 181.1779
714.7849, 183.2694
715.2670, 184.9728
715.7491, 186.5793
716.2313, 188.5093
716.7134, 190.8076
717.1955, 193.1585
717.6776, 195.5256
718.1597, 197.9008
718.6418, 200.4476
719.1240, 203.0481
719.6061, 205.1443
720.0882, 205.9664
720.5703, 206.8614
721.0524, 209.6270
721.5345, 213.5263
722.0167, 216.7914
722.4988, 217.9209
722.9809, 219.1642
723.4630, 221.6148
723.9451, 224.9496
724.4272, 227.4160
724.9094, 228.2570
725.3915, 229.6917
725.8736, 232.7082
726.3557, 236.9531
726.8378, 240.7093
727.3199, 244.0098
727.8021, 246.8005
728.2842, 248.5423
728.7663, 249.9821
729.2484, 252.3131
729.7305, 255.5061
730.2126, 259.0876
730.6948, 263.2675
731.1769, 267.3664
731.6590, 270.7540
732.1411, 273.2022
732.6232, 276.0658
733.1053, 279.5891
733.5875, 283.3703
734.0696, 287.1577
734.5517, 290.9631
735.0338, 294.6791
735.5159, 298.2271
735.9980, 302.1991
736.4802, 307.5938
736.9623, 313.8824
737.4444, 319.3172
737.9265, 323.5761
738.4086, 328.1170
738.8907, 334.1147
739.3729, 340.9914
739.8550, 348.1467
740.3371, 356.0053
740.8192, 363.1371
741.3013, 367.9113
741.7834, 372.6485
742.2656, 379.8076
742.7477, 390.3478
743.2298, 399.7782
743.7119, 407.0071
744.1940, 414.1232
744.6761, 424.6189
745.1583, 437.9236
745.6404, 450.8584
746.1225, 462.0974
746.6046, 473.7412
747.0867, 487.8734
747.5688, 503.8377
748.0510, 520.2863
748.5331, 536.1105
749.0152, 553.3926
749.4973, 572.6436
749.9794, 593.7732
750.4615, 616.4864
750.9437, 640.5480
751.4258, 666.3379
751.9079, 694.3923
752.3900, 723.7813
752.8721, 752.5233
753.3542, 780.4564
753.8364, 810.7607
754.3185, 844.8065
754.8006, 881.4139
755.2827, 918.9086
755.7648, 957.5951
756.2469, 997.3406
756.7291, 1036.981
757.2112, 1078.690
757.6933, 1123.930
758.1754, 1172.219
758.6575, 1222.518
759.1396, 1275.182
759.6218, 1328.334
760.1039, 1382.171
760.5860, 1435.803
761.0681, 1490.702
761.5502, 1546.537
762.0323, 1599.458
762.5145, 1648.367
762.9966, 1693.011
763.4787, 1734.299
763.9608, 1771.729
764.4429, 1802.250
764.9250, 1825.654
765.4072, 1840.685
765.8893, 1846.057
766.3714, 1841.422
766.8535, 1830.397
767.3356, 1811.742
767.8177, 1788.661
768.2999, 1761.748
768.7820, 1731.492
769.2641, 1702.594
769.7462, 1675.156
770.2283, 1649.190
770.7104, 1623.596
771.1926, 1600.005
771.6747, 1580.602
772.1568, 1565.668
772.6389, 1554.174
773.1210, 1547.132
773.6031, 1542.241
774.0853, 1537.681
774.5674, 1532.740
775.0495, 1532.026
775.5316, 1535.273
776.0137, 1543.302
776.4958, 1557.559
776.9780, 1577.830
777.4601, 1598.531
777.9422, 1619.526
778.4243, 1643.867
778.9064, 1675.442
779.3885, 1711.545
779.8707, 1748.928
780.3528, 1787.097
780.8349, 1828.159
781.3170, 1875.139
781.7991, 1923.390
782.2813, 1969.569
782.7633, 2013.465
783.2454, 2056.200
783.7275, 2096.991
784.2097, 2136.469
784.6918, 2175.789
785.1739, 2214.274
785.6560, 2248.500
786.1381, 2278.331
786.6202, 2304.360
787.1024, 2325.447
787.5845, 2344.048
788.0666, 2362.409
788.5487, 2380.740
789.0308, 2400.669
789.5129, 2417.972
789.9951, 2440.875
790.4772, 2474.713
790.9593, 2519.060
791.4414, 2576.076
791.9235, 2645.840
792.4056, 2729.612
792.8878, 2830.097
793.3699, 2946.602
793.8520, 3077.394
794.3341, 3224.254
794.8162, 3381.857
795.2983, 3544.766
795.7805, 3719.757
796.2626, 3917.525
796.7447, 4140.594
797.2268, 4380.192
797.7089, 4630.084
798.1910, 4903.476
798.6732, 5205.264
799.1553, 5538.858
799.6374, 5902.632
800.1195, 6294.611
800.6016, 6721.500
801.0837, 7197.845
801.5659, 7718.400
802.0480, 8275.814
802.5301, 8865.071
803.0122, 9480.942
803.4943, 10134.05
803.9764, 10809.31
804.4586, 11499.20
804.9407, 12221.60
805.4228, 12910.94
805.9049, 13588.72
806.3870, 14205.52
806.8691, 14740.52
807.3513, 15192.92
807.8334, 15537.12
808.3155, 15766.15
808.7976, 15915.07
809.2797, 16002.42
809.7618, 16040.83
810.2440, 16048.71
810.7261, 16025.92
811.2082, 15996.35
811.6903, 15994.53
812.1724, 15978.61
812.6545, 15914.97
813.1367, 15807.65
813.6188, 15633.57
814.1009, 15398.79
814.5830, 15091.38
815.0651, 14703.47
815.5472, 14235.03
816.0294, 13670.19
816.5115, 13008.92
816.9936, 12294.05
817.4757, 11551.15
817.9578, 10795.60
818.4399, 10039.31
818.9221, 9284.548
819.4042, 8568.302
819.8863, 7894.600
820.3684, 7274.401
820.8505, 6705.761
821.3326, 6188.730
821.8148, 5715.392
822.2969, 5288.044
822.7790, 4899.849
823.2611, 4553.939
823.7432, 4246.114
824.2253, 3970.318
824.7075, 3727.617
825.1896, 3506.411
825.6717, 3300.167
826.1538, 3110.916
826.6359, 2942.532
827.1180, 2799.499
827.6002, 2663.454
828.0823, 2531.174
828.5644, 2407.749
829.0465, 2297.617
829.5286, 2202.254
830.0107, 2112.143
830.4929, 2028.006
830.9750, 1949.566
831.4571, 1879.076
831.9392, 1813.951
832.4213, 1751.188
832.9034, 1691.361
833.3856, 1634.999
833.8677, 1582.875
834.3498, 1534.861
834.8319, 1491.317
835.3140, 1452.358
835.7961, 1413.545
836.2783, 1374.256
836.7604, 1336.740
837.2425, 1302.187
837.7246, 1270.408
838.2067, 1241.477
838.6888, 1214.923
839.1710, 1188.618
839.6531, 1160.158
840.1352, 1131.947
840.6173, 1106.384
841.0994, 1083.264
841.5815, 1060.804
842.0637, 1037.857
842.5458, 1016.194
843.0279, 996.8065
843.5100, 979.2111
843.9921, 959.8805
844.4742, 938.8613
844.9564, 919.0782
845.4385, 903.2032
845.9206, 888.6740
846.4027, 870.9852
846.8848, 851.1855
847.3669, 832.8265
847.8491, 818.6458
848.3312, 805.0483
848.8133, 790.4777
849.2954, 775.1835
849.7775, 760.3222
850.2596, 745.6978
850.7418, 731.9130
851.2239, 719.3422
851.7060, 707.3849
852.1881, 694.9493
852.6702, 682.0350
853.1523, 669.1352
853.6345, 655.7145
854.1166, 643.0865
854.5987, 632.9083
855.0808, 624.0445
855.5629, 614.0726
856.0450, 601.3137
856.5272, 589.4468
857.0093, 579.4014
857.4914, 570.0135
857.9735, 559.1300
858.4556, 546.9456
858.9377, 535.1407
859.4199, 524.2901
859.9020, 514.1218
860.3841, 504.1775
860.8662, 494.9177
861.3483, 486.9244
861.8304, 481.2729
862.3126, 475.3510
862.7947, 468.0663
863.2768, 460.6088
863.7589, 454.2526
864.2410, 449.3222
864.7231, 443.2031
865.2053, 435.4290
865.6874, 427.4647
866.1695, 420.7679
866.6516, 414.9680
867.1337, 409.3119
867.6158, 403.6882
868.0980, 398.1805
868.5801, 392.2138
869.0622, 386.7594
869.5443, 383.0103
870.0264, 381.6882
870.5085, 378.1155
870.9907, 371.6562
871.4728, 364.7733
871.9549, 359.1434
872.4370, 354.6352
872.9191, 350.9969
873.4012, 348.1346
873.8834, 345.1475
874.3655, 341.0575
874.8476, 336.8765
875.3297, 333.3541
875.8118, 330.5327
876.2939, 327.6928
876.7761, 324.7791
877.2582, 321.8383
877.7403, 318.8835
878.2224, 315.8978
878.7045, 312.8800
879.1866, 309.8209
879.6688, 306.7699
880.1509, 303.5871
880.6330, 300.5624
881.1151, 298.3208
881.5972, 296.4874
882.0793, 294.0357
882.5615, 289.6506
883.0436, 285.8744
883.5257, 283.5302
884.0078, 281.9388
884.4899, 279.4918
884.9720, 276.1339
885.4542, 272.9852
885.9363, 270.2760
886.4184, 268.0057
886.9005, 266.5640
887.3826, 265.4502
887.8647, 263.7788
888.3469, 260.9910
888.8290, 258.1050
889.3111, 255.4648
889.7932, 252.8723
890.2753, 250.1217
890.7574, 247.1923
891.2396, 244.1311
891.7217, 240.9122
892.2038, 237.6006
892.6859, 234.1756
893.1680, 230.7286
893.6501, 227.2831
894.1323, 223.7560
894.6144, 220.9240
895.0965, 219.9327
895.5786, 219.1669
896.0607, 217.4907
896.5428, 214.8344
897.0250, 211.5736
897.5071, 207.3590
897.9892, 203.7310
898.4713, 202.2132
898.9534, 201.9322
899.4355, 200.1136
899.9177, 196.9777
900.3998, 193.9594
900.8819, 192.2118
901.3640, 190.6037
901.8461, 188.4228
902.3282, 185.7839
902.8104, 183.4703
903.2925, 181.5139
903.7746, 179.8955
904.2567, 178.7504
904.7388, 177.8096
905.2209, 176.5322
905.7031, 174.9207
906.1852, 172.9038
906.6673, 169.7202
907.1494, 167.2222
907.6315, 167.4987
908.1136, 168.9967
908.5958, 169.2175
909.0779, 167.0660
909.5600, 165.1292
910.0421, 163.3813
910.5242, 162.1923
911.0063, 162.2699
911.4885, 163.3817
911.9706, 164.2988
912.4527, 164.8123
912.9348, 165.3859
913.4169, 166.2880
913.8990, 167.4773
914.3812, 168.9556
914.8633, 170.7879
915.3454, 172.6460
915.8275, 174.6152
916.3096, 176.4301
916.7917, 177.8798
917.2739, 179.0307
917.7560, 180.4885
918.2381, 182.1964
918.7202, 183.4922
919.2023, 183.8103
919.6844, 183.6549
920.1666, 183.4742
920.6487, 183.2010
921.1308, 182.4445
921.6129, 181.8536
922.0950, 179.6258
922.5771, 175.0646
923.0593, 168.8872
923.5414, 162.5832
924.0235, 156.2566
924.5056, 150.1670
924.9877, 144.2975
925.4698, 139.0707
925.9520, 135.3129
926.4341, 132.2679
926.9162, 128.9099
927.3983, 123.9561
927.8804, 120.3770
928.3625, 118.6419
928.8447, 117.6809
929.3268, 116.4172
929.8089, 114.9307
930.2910, 113.8138
930.7731, 113.1194
931.2552, 112.5483
931.7374, 112.1512
932.2195, 111.5413
932.7016, 110.1243
933.1837, 107.7531
933.6658, 106.2349
934.1479, 106.0532
934.6301, 106.1010
935.1122, 106.0139
935.5943, 105.7531
936.0764, 104.9617
936.5585, 103.7323
937.0406, 102.8042
937.5228, 102.7165
938.0049, 102.9335
938.4870, 103.2687
938.9691, 103.5848
939.4512, 103.5347
939.9333, 102.8038
940.4155, 102.1736
940.8976, 101.6964
941.3797, 101.4108
941.8618, 101.5693
942.3439, 102.0259
942.8260, 101.9635
943.3082, 101.1168
943.7903, 100.3779
944.2724, 100.4607
944.7545, 100.9568
945.2366, 101.5884
945.7188, 102.5007
946.2009, 102.7689
946.6830, 102.1103
947.1651, 101.4430
947.6472, 101.4164
948.1293, 101.8806
948.6115, 102.3091
949.0936, 102.6817
949.5757, 102.8505
950.0578, 102.7256
950.5399, 102.3711
951.0220, 101.5673
951.5042, 100.5306
951.9863, 100.1510
952.4684, 100.7266
952.9505, 101.1753
953.4326, 101.2162
953.9147, 101.0811
954.3969, 101.2931
954.8790, 101.6693
955.3611, 101.6157
955.8432, 100.6876
956.3253, 100.0630
956.8074, 101.0431
957.2896, 102.1810
957.7717, 101.9642
958.2538, 99.77116
958.7359, 98.53111
959.2180, 98.45393
959.7001, 98.49217
960.1823, 97.65617
960.6644, 96.36803
961.1465, 95.58183
961.6286, 95.25726
962.1107, 94.82101
962.5928, 93.89612
963.0750, 92.90683
963.5571, 91.99763
964.0392, 91.16636
964.5213, 90.48833
965.0034, 90.01381
965.4855, 89.19287
965.9677, 87.67274
966.4498, 86.10459
966.9319, 85.43642
967.4140, 85.37592
967.8961, 85.44357
968.3782, 85.62048
968.8604, 85.69428
969.3425, 85.69469
969.8246, 85.51509
970.3067, 85.00590
970.7888, 84.15749
971.2709, 83.25259
971.7531, 82.28061
972.2352, 81.73174
972.7173, 82.63134
973.1994, 83.70716
973.6815, 83.33656
974.1636, 81.62187
974.6458, 80.68687
975.1279, 81.38262
975.6100, 82.25591
976.0921, 83.07774
976.5742, 83.69724
977.0563, 83.50912
977.5385, 82.65232
978.0206, 82.01652
978.5027, 82.07974
978.9848, 82.10869
979.4669, 81.38269
979.9490, 80.36565
980.4311, 79.64521
980.9132, 79.26951
981.3953, 79.26231
981.8774, 79.73703
982.3596, 80.29422
982.8417, 80.64133
983.3238, 80.77429
983.8059, 80.69755
984.2880, 80.40635
984.7701, 79.83443
985.2523, 78.36741
985.7344, 77.16170
986.2165, 77.09089
986.6986, 77.84576
987.1807, 78.16175
987.6628, 77.96407
988.1450, 77.76339
988.6271, 77.74174
989.1092, 77.72389
989.5913, 77.49902
990.0734, 77.07798
990.5555, 76.44592
991.0377, 75.41477
991.5198, 74.57575
992.0019, 73.97863
992.4840, 73.71966
992.9661, 74.02901
993.4482, 74.93833
993.9304, 75.39812
994.4125, 75.39266
994.8946, 75.14378
995.3767, 74.72014
995.8588, 74.20277
996.3409, 73.52820
996.8231, 72.78063
997.3052, 72.44398
997.7873, 72.97379
998.2694, 73.19260
998.7515, 72.77121
999.2336, 71.99934
999.7158, 71.33519
1000.198, 70.81837
1000.680, 70.65638
1001.162, 70.99906
1001.644, 71.38232
1002.126, 71.54785
1002.608, 71.58884
1003.091, 71.63051
1003.573, 71.75789
1004.055, 71.33371
1004.537, 70.21098
1005.019, 69.22881
1005.501, 69.06312
1005.983, 69.34803
1006.465, 69.73531
1006.948, 70.04726
1007.430, 69.66080
1007.912, 67.15940
1008.394, 65.40829
1008.876, 65.56799
1009.358, 66.55843
1009.840, 66.31649
1010.322, 64.89295
1010.804, 64.14285
1011.287, 64.46378
1011.769, 64.93509
1012.251, 64.71537
1012.733, 64.18335
1013.215, 63.69021
1013.697, 63.28314
1014.179, 62.93895
1014.661, 62.73352
1015.143, 62.40691
1015.626, 61.71218
1016.108, 60.86822
1016.590, 60.65115
1017.072, 60.89873
1017.554, 60.99982
1018.036, 60.45051
1018.518, 59.95018
1019.000, 59.86432
1019.483, 59.96204
1019.965, 59.93110
1020.447, 59.75055
1020.929, 59.61501
1021.411, 59.58119
1021.893, 59.29837
1022.375, 58.07655
1022.857, 56.61241
1023.339, 55.77215
1023.822, 55.61670
1024.304, 55.74281
1024.786, 56.65937
1025.268, 56.94085
1025.750, 55.85342
1026.232, 54.09176
1026.714, 53.84004
1027.196, 54.76469
1027.679, 55.07326
1028.161, 53.85295
1028.643, 52.65466
1029.125, 52.71979
1029.607, 53.20125
1030.089, 53.14949
1030.571, 52.35543
1031.053, 51.70755
1031.536, 51.19636
1032.018, 50.84826
1032.500, 50.83928
1032.982, 50.91912
1033.464, 50.50911
1033.946, 49.77683
1034.428, 49.43330
1034.910, 50.50507
1035.392, 50.97169
1035.875, 50.15549
1036.357, 48.77082
1036.839, 47.98458
1037.321, 47.76245
1037.803, 48.01171
1038.285, 48.81652
1038.767, 49.29454
1039.249, 48.22478
1039.731, 46.91008
1040.214, 46.54946
1040.696, 47.29042
1041.178, 47.63706
1041.660, 47.51905
1042.142, 47.25721
1042.624, 46.99083
1043.106, 46.66330
1043.588, 46.10928
1044.071, 45.41008
1044.553, 44.73992
1045.035, 43.91080
1045.517, 43.50830
1045.999, 43.93156
1046.481, 44.49779
1046.963, 44.56704
1047.445, 44.16930
1047.927, 43.69354
1048.410, 43.15706
1048.892, 42.78088
1049.374, 42.91663
1049.856, 43.09161
1050.338, 42.98709
1050.820, 42.61742
1051.302, 42.10750
1051.784, 41.32166
1052.266, 40.94262
1052.749, 41.23335
1053.231, 41.62266
1053.713, 41.21505
1054.195, 40.40001
1054.677, 39.74349
1055.159, 39.31741
1055.641, 39.28949
1056.123, 40.21528
1056.606, 40.94824
1057.088, 40.89185
1057.570, 40.20821
1058.052, 39.84475
1058.534, 39.73079
1059.016, 39.38280
1059.498, 38.25650
1059.980, 37.25689
1060.463, 37.09519
1060.945, 37.34114
1061.427, 37.37691
1061.909, 37.12928
1062.391, 36.84681
1062.873, 36.51455
1063.355, 36.28822
1063.837, 36.44132
1064.319, 36.70179
1064.802, 36.33232
1065.284, 35.56373
1065.766, 35.89594
1066.248, 39.89388
1066.730, 41.85389
1067.212, 40.05198
1067.694, 36.60247
1068.176, 35.36717
1068.658, 35.86298
1069.141, 36.46911
1069.623, 36.93052
1070.105, 37.06726
1070.587, 36.53270
1071.069, 35.83838
1071.551, 35.23109
1072.033, 34.73892
1072.515, 34.79031
1072.998, 35.40606
1073.480, 35.89614
1073.962, 35.86662
1074.444, 35.70703
1074.926, 35.92640
1075.408, 36.26499
1075.890, 36.30456
1076.372, 35.74367
1076.854, 35.28875
1077.337, 34.89960
1077.819, 34.72445
1078.301, 35.13313
1078.783, 35.77318
1079.265, 35.66365
1079.747, 34.94050
1080.229, 34.40714
1080.711, 34.56503
1081.193, 34.78009
1081.676, 34.90453
1082.158, 34.96544
1082.640, 34.96365
1083.122, 34.91677
1083.604, 35.08246
1084.086, 35.52843
1084.568, 35.76123
1085.050, 35.20097
1085.532, 34.45882
1086.015, 33.96109
1086.497, 33.70705
1086.979, 33.54821
1087.461, 33.49971
1087.943, 33.42532
1088.425, 33.21806
1088.907, 33.10477
1089.389, 33.49064
1089.872, 34.11766
1090.354, 34.63144
1090.836, 34.98551
1091.318, 35.09921
1091.800, 34.87292
1092.282, 34.63226
1092.764, 34.54655
1093.246, 34.60890
1093.729, 34.94993
1094.211, 35.44867
1094.693, 35.65022
1095.175, 34.95860
1095.657, 34.46578
1096.139, 34.63288
1096.621, 34.99128
1097.103, 35.01479
1097.585, 34.72182
1098.068, 34.56264
1098.550, 34.56166
1099.032, 34.61932
1099.514, 34.59385
1099.996, 34.67047
1100.478, 35.11237
1100.960, 35.76756
1101.442, 36.05066
1101.924, 35.89279
1102.407, 35.77550
1102.889, 35.79219
1103.371, 35.85310
1103.853, 35.68353
1104.335, 35.60067
1104.817, 36.15800
1105.299, 37.53137
1105.781, 38.17860
1106.264, 37.73256
1106.746, 37.21459
1107.228, 36.96658
1107.710, 36.92786
1108.192, 36.93660
1108.674, 37.05721
1109.156, 37.50600
1109.638, 38.64426
1110.120, 39.33019
1110.603, 38.90240
1111.085, 38.38747
1111.567, 38.46231
1112.049, 39.02411
1112.531, 39.35781
1113.013, 39.48346
1113.495, 39.55598
1113.977, 39.73513
1114.459, 39.79251
1114.942, 39.55909
1115.424, 39.17008
1115.906, 38.73871
1116.388, 38.22753
1116.870, 38.12374
1117.352, 38.46077
1117.834, 38.98236
1118.316, 39.85352
1118.799, 40.50765
1119.281, 40.14185
1119.763, 39.09633
1120.245, 38.91620
1120.727, 39.96696
1121.209, 40.64103
1121.691, 40.60540
1122.173, 40.39753
1122.656, 40.75678
1123.138, 41.27937
1123.620, 41.34947
1124.102, 40.88060
1124.584, 40.63693
1125.066, 40.90255
1125.548, 40.97422
1126.030, 40.55243
1126.512, 39.93025
1126.995, 39.66225
1127.477, 39.66290
1127.959, 39.75287
1128.441, 39.91553
1128.923, 40.06404
1129.405, 40.17440
1129.887, 40.26434
1130.369, 40.36517
1130.851, 40.44824
1131.334, 40.25368
1131.816, 39.88362
1132.298, 39.83333
1132.780, 40.58842
1133.262, 41.27178
1133.744, 41.49590
1134.226, 41.43914
1134.708, 41.26772
1135.191, 40.98450
1135.673, 40.36504
1136.155, 39.42867
1136.637, 38.92267
1137.119, 39.61767
1137.601, 40.61187
1138.083, 41.59310
1138.565, 42.31239
1139.047, 42.21838
1139.530, 41.05504
1140.012, 40.53888
1140.494, 40.85810
1140.976, 41.32197
1141.458, 41.30488
1141.940, 41.12731
1142.422, 41.05491
1142.904, 41.11299
1143.386, 41.36940
1143.869, 42.03148
1144.351, 42.14942
1144.833, 41.36132
1145.315, 40.62878
1145.797, 41.59516
1146.279, 43.19289
1146.761, 43.76437
1147.243, 43.08463
1147.726, 42.82904
1148.208, 43.53931
1148.690, 44.01751
1149.172, 43.81670
1149.654, 43.32943
1150.136, 43.27876
1150.618, 43.52100
1151.100, 43.80245
1151.583, 44.10644
1152.065, 44.24209
1152.547, 43.99276
1153.029, 43.82111
1153.511, 44.06233
1153.993, 44.47127
1154.475, 43.97951
1154.957, 42.93264
1155.439, 42.53809
1155.922, 43.62033
1156.404, 44.58293
1156.886, 44.90521
1157.368, 44.83802
1157.850, 44.39837
1158.332, 43.65673
1158.814, 43.35254
1159.296, 43.42233
1159.778, 43.45234
1160.261, 42.99244
1160.743, 42.71253
1161.225, 43.20402
1161.707, 43.85068
1162.189, 43.93154
1162.671, 43.42538
1163.153, 43.41968
1163.635, 43.91631
1164.118, 44.17010
1164.600, 43.24746
1165.082, 42.36150
1165.564, 42.50240
1166.046, 43.13178
1166.528, 43.13192
1167.010, 42.38513
1167.492, 42.26020
1167.974, 42.91429
1168.457, 43.57424
1168.939, 43.69135
1169.421, 43.47854
1169.903, 42.82949
1170.385, 41.98071
1170.867, 41.53162
1171.349, 41.15685
1171.831, 43.95681
1172.313, 51.17057
1172.796, 57.12190
1173.278, 54.37677
1173.760, 48.60270
1174.242, 44.92562
1174.724, 43.84887
1175.206, 43.56393
1175.688, 44.32157
1176.170, 44.58799
1176.653, 43.82827
1177.135, 42.87628
1177.617, 42.88400
1178.099, 43.26247
1178.581, 43.19925
1179.063, 42.50659
1179.545, 42.43464
1180.027, 43.28337
1180.510, 43.74028
1180.992, 43.11317
1181.474, 42.25058
1181.956, 42.55566
1182.438, 43.42976
1182.920, 43.89773
1183.402, 43.59953
1183.884, 43.66448
1184.366, 44.36264
1184.849, 44.73473
1185.331, 44.04328
1185.813, 43.04937
1186.295, 43.42617
1186.777, 44.48174
1187.259, 44.87897
1187.741, 43.79417
1188.223, 43.14895
1188.705, 43.13059
1189.188, 43.33607
1189.670, 43.54707
1190.152, 43.77655
1190.634, 44.14352
1191.116, 44.54704
1191.598, 44.74326
1192.080, 44.35505
1192.562, 44.24322
1193.045, 44.55113
1193.527, 44.92252
1194.009, 45.11787
1194.491, 45.14141
1194.973, 44.89801
1195.455, 44.47851
1195.937, 44.18360
1196.419, 44.16013
1196.901, 44.24647
1197.384, 44.51534
1197.866, 44.70582
1198.348, 44.42163
1198.830, 43.91591
1199.312, 43.87526
1199.794, 44.22704
1200.276, 44.48684
1200.758, 44.35050
1201.240, 44.25019
1201.723, 44.17932
1202.205, 44.29676
1202.687, 45.13281
1203.169, 46.21424
1203.651, 46.17401
1204.133, 45.06396
1204.615, 44.14403
1205.097, 43.80500
1205.580, 43.88490
1206.062, 44.50658
1206.544, 45.25740
1207.026, 45.41991
1207.508, 45.26385
1207.990, 45.57041
1208.472, 46.37985
1208.954, 46.87601
1209.437, 46.42239
1209.919, 46.07011
1210.401, 46.09888
1210.883, 46.27442
1211.365, 46.14833
1211.847, 45.87030
1212.329, 45.84216
1212.811, 46.12751
1213.293, 46.29206
1213.776, 45.87442
1214.258, 45.79958
1214.740, 46.49459
1215.222, 47.41488
1215.704, 47.37978
1216.186, 46.77314
1216.668, 46.52878
1217.150, 46.85231
1217.632, 46.98706
1218.115, 46.54002
1218.597, 46.15169
1219.079, 46.04662
1219.561, 46.09552
1220.043, 45.99573
1220.525, 45.85043
1221.007, 45.93368
1221.489, 46.36348
1221.972, 46.61959
1222.454, 46.47515
1222.936, 46.36781
1223.418, 46.52942
1223.900, 46.74459
1224.382, 46.39455
1224.864, 45.78185
1225.346, 45.62816
1225.828, 46.31335
1226.311, 46.48848
1226.793, 45.66858
1227.275, 44.98714
1227.757, 45.05341
1228.239, 45.45859
1228.721, 45.25604
1229.203, 44.76508
1229.685, 44.70060
1230.167, 45.50922
1230.650, 45.76021
1231.132, 45.01525
1231.614, 44.56943
1232.096, 45.33190
1232.578, 46.52243
1233.060, 46.66259
1233.542, 46.08562
1234.024, 45.34193
1234.507, 44.22334
1234.989, 44.03097
1235.471, 45.16629
1235.953, 46.09889
1236.435, 45.88770
1236.917, 45.02653
1237.399, 43.92095
1237.881, 42.90145
1238.364, 42.65089
1238.846, 43.86842
1239.328, 44.46856
1239.810, 44.34895
1240.292, 44.00108
1240.774, 43.64216
1241.256, 43.30681
1241.738, 42.92503
1242.220, 42.62790
1242.703, 42.69499
1243.185, 43.39231
1243.667, 43.71885
1244.149, 43.62349
1244.631, 43.44570
1245.113, 43.36715
1245.595, 43.35688
1246.077, 43.46774
1246.559, 43.59371
1247.042, 43.54992
1247.524, 43.34708
1248.006, 42.85811
1248.488, 42.05002
1248.970, 41.37567
1249.452, 41.09210
1249.934, 41.11277
1250.416, 41.60606
1250.899, 42.25110
1251.381, 42.53876
1251.863, 42.40214
1252.345, 42.26202
1252.827, 42.12326
1253.309, 41.87568
1253.791, 41.16175
1254.273, 40.62194
1254.755, 40.90197
1255.238, 41.50600
1255.720, 41.72086
1256.202, 41.53017
1256.684, 41.44011
1257.166, 41.44155
1257.648, 41.22923
1258.130, 40.31148
1258.612, 39.48051
1259.094, 39.32624
1259.577, 39.34925
1260.059, 38.95235
1260.541, 38.19389
1261.023, 37.95873
1261.505, 38.18943
1261.987, 38.26250
1262.469, 37.54908
1262.951, 37.00255
1263.434, 37.04798
1263.916, 37.25021
1264.398, 37.15934
1264.880, 36.85225
1265.362, 36.63753
1265.844, 36.52967
1266.326, 36.55126
1266.808, 36.80518
1267.291, 37.07612
1267.773, 37.40773
1268.255, 37.60181
1268.737, 37.42891
1269.219, 36.97836
1269.701, 36.35894
1270.183, 35.64864
1270.665, 35.10915
1271.147, 35.04716
1271.630, 34.79551
1272.112, 34.25972
1272.594, 33.67952
1273.076, 33.25935
1273.558, 32.95356
1274.040, 32.54225
1274.522, 32.17011
1275.004, 32.36836
1275.486, 33.69432
1275.969, 34.22670
1276.451, 33.74007
1276.933, 33.06234
1277.415, 32.99224
1277.897, 33.02292
1278.379, 32.56953
1278.861, 31.80381
1279.343, 31.14007
1279.825, 30.50940
1280.308, 30.48266
1280.790, 31.11728
1281.272, 31.73919
1281.754, 31.90223
1282.236, 31.81016
1282.718, 31.51459
1283.200, 31.09519
1283.682, 30.64181
1284.165, 30.14246
1284.647, 29.90805
1285.129, 29.93148
1285.611, 29.93012
1286.093, 29.73925
1286.575, 29.46718
1287.057, 29.00393
1287.539, 28.62436
1288.021, 28.74693
1288.504, 29.24396
1288.986, 29.38534
1289.468, 29.17793
1289.950, 28.83047
1290.432, 28.13308
1290.914, 27.77863
1291.396, 28.00162
1291.878, 28.37400
1292.360, 28.56764
1292.843, 28.56964
1293.325, 28.24736
1293.807, 27.69441
1294.289, 27.23571
1294.771, 27.00886
1295.253, 26.85637
1295.735, 26.80133
1296.217, 26.71782
1296.700, 26.49490
1297.182, 26.18194
1297.664, 25.68775
1298.146, 25.18092
1298.628, 25.13869
1299.110, 25.80421
1299.592, 26.13320
1300.074, 26.07607
1300.557, 25.89622
1301.039, 25.72636
1301.521, 25.56579
1302.003, 25.40841
1302.485, 25.26673
1302.967, 25.15644
1303.449, 25.09204
##END=



