##NAMES=Mimetite
##RRUFFID=R040123
##IDEAL CHEMISTRY=Pb^2+^_5_(As^5+^O_4_)_3_Cl
##LOCALITY=San Pedro Corralitos, Chihuahua, Mexico
##OWNER=RRUFF
##SOURCE=University of Arizona Mineral Museum
##DESCRIPTION=Yellow botryoidal group
##STATUS=The identification of this mineral has been confirmed by X-ray diffraction and chemical analysis
##URL=rruff.info/R040123
##MEASURED CHEMISTRY=Pb_5.00_((As_0.96_P_0.04_)O_4_)_3_Cl_1.00_
65.09387, 74.81015
65.57599, 72.15299
66.05811, 70.73045
66.54022, 71.80943
67.02234, 73.08652
67.50446, 73.78860
67.98657, 73.97916
68.46869, 74.22703
68.95081, 75.25694
69.43292, 77.66801
69.91504, 78.87910
70.39716, 78.28415
70.87927, 77.19473
71.36139, 76.21053
71.84351, 75.54286
72.32562, 75.32483
72.80774, 75.82343
73.28986, 77.92735
73.77197, 79.21422
74.25409, 78.95518
74.73621, 78.09096
75.21832, 77.84885
75.70044, 78.76051
76.18256, 80.10600
76.66467, 79.94560
77.14679, 77.42324
77.62891, 75.54617
78.11102, 75.86277
78.59314, 77.65884
79.07526, 78.87147
79.55737, 78.41572
80.03949, 76.92521
80.52161, 75.96307
81.00372, 75.64199
81.48584, 75.63914
81.96796, 75.67789
82.45007, 75.75552
82.93219, 76.18575
83.41431, 77.60106
83.89642, 79.31007
84.37854, 80.35038
84.86066, 80.24043
85.34277, 79.64181
85.82489, 79.63023
86.30701, 80.50172
86.78912, 81.13422
87.27124, 80.29073
87.75336, 79.06854
88.23547, 76.30803
88.71759, 80.22609
89.19971, 82.64157
89.68182, 83.63522
90.16394, 78.94846
90.64606, 81.59676
91.12817, 81.30550
91.61029, 80.89371
92.09241, 84.57439
92.57452, 80.71384
93.05664, 84.32963
93.53876, 84.96099
94.02087, 86.95824
94.50299, 85.99780
94.98511, 85.95089
95.46722, 88.86263
95.94934, 90.13615
96.43146, 86.58801
96.91357, 87.18349
97.39569, 87.63533
97.87781, 87.48495
98.35992, 87.57855
98.84204, 88.59930
99.32416, 90.49290
99.80627, 92.55954
100.2884, 93.97300
100.7705, 94.73042
101.2526, 94.57822
101.7347, 92.09859
102.2169, 89.57484
102.6990, 89.26817
103.1811, 91.67434
103.6632, 95.10397
104.1453, 96.80028
104.6274, 95.95425
105.1096, 95.41198
105.5917, 95.38506
106.0738, 95.84057
106.5559, 96.98873
107.0380, 99.07583
107.5201, 101.2792
108.0023, 101.5548
108.4844, 99.15250
108.9665, 97.93432
109.4486, 100.0922
109.9307, 104.5415
110.4128, 108.1654
110.8950, 109.2410
111.3771, 109.8217
111.8592, 113.4877
112.3413, 121.0813
112.8234, 128.8719
113.3055, 134.4701
113.7877, 138.0721
114.2698, 141.3731
114.7519, 145.1403
115.2340, 148.7561
115.7161, 151.1731
116.1982, 151.6650
116.6804, 152.6808
117.1625, 157.0462
117.6446, 165.1850
118.1267, 173.4211
118.6088, 180.0842
119.0909, 186.3224
119.5731, 193.1572
120.0552, 200.9581
120.5373, 209.0871
121.0194, 216.1268
121.5015, 221.0013
121.9836, 227.9434
122.4658, 239.3840
122.9479, 252.8810
123.4300, 266.0145
123.9121, 277.6644
124.3942, 289.0394
124.8763, 302.5900
125.3585, 317.5085
125.8406, 336.8549
126.3227, 363.0582
126.8048, 392.6544
127.2869, 422.0468
127.7690, 449.1595
128.2512, 474.7897
128.7333, 501.0992
129.2154, 527.1245
129.6975, 555.2856
130.1796, 587.0283
130.6617, 620.8134
131.1439, 654.2961
131.6260, 686.0303
132.1081, 716.3290
132.5902, 747.6395
133.0723, 787.2107
133.5544, 820.1682
134.0366, 841.0071
134.5187, 853.2000
135.0008, 862.5370
135.4829, 872.5786
135.9650, 883.3544
136.4471, 895.8793
136.9293, 910.4030
137.4114, 926.1677
137.8935, 941.9327
138.3756, 958.6688
138.8577, 978.7114
139.3398, 1003.826
139.8220, 1034.127
140.3041, 1067.094
140.7862, 1103.035
141.2683, 1140.613
141.7504, 1177.459
142.2325, 1214.711
142.7147, 1256.128
143.1968, 1304.930
143.6789, 1361.361
144.1610, 1421.449
144.6431, 1487.145
145.1252, 1554.125
145.6074, 1620.697
146.0895, 1686.555
146.5716, 1751.339
147.0537, 1815.226
147.5358, 1877.779
148.0179, 1936.165
148.5001, 1988.857
148.9822, 2038.574
149.4643, 2086.622
149.9464, 2133.501
150.4285, 2180.951
150.9106, 2234.810
151.3928, 2292.177
151.8749, 2331.683
152.3570, 2339.538
152.8391, 2336.552
153.3212, 2342.115
153.8033, 2357.788
154.2855, 2373.227
154.7676, 2378.167
155.2497, 2375.489
155.7318, 2377.610
156.2139, 2391.090
156.6960, 2408.028
157.1782, 2417.869
157.6603, 2418.879
158.1424, 2421.153
158.6245, 2433.491
159.1066, 2453.193
159.5887, 2474.695
160.0709, 2497.504
160.5530, 2520.971
161.0351, 2542.521
161.5172, 2560.382
161.9993, 2582.456
162.4814, 2619.345
162.9636, 2664.294
163.4457, 2705.902
163.9278, 2736.795
164.4099, 2762.671
164.8920, 2792.699
165.3741, 2826.386
165.8563, 2865.656
166.3384, 2916.274
166.8205, 2972.673
167.3026, 3025.608
167.7847, 3071.226
168.2668, 3111.255
168.7490, 3149.523
169.2311, 3186.405
169.7132, 3220.863
170.1953, 3253.760
170.6774, 3284.078
171.1595, 3309.359
171.6417, 3325.664
172.1238, 3337.374
172.6059, 3356.914
173.0880, 3390.192
173.5701, 3419.284
174.0522, 3435.742
174.5344, 3443.850
175.0165, 3448.404
175.4986, 3449.313
175.9807, 3449.695
176.4628, 3459.187
176.9449, 3482.915
177.4271, 3506.639
177.9092, 3526.200
178.3913, 3542.124
178.8734, 3554.521
179.3555, 3562.593
179.8376, 3568.138
180.3197, 3577.484
180.8019, 3595.722
181.2840, 3608.341
181.7661, 3604.831
182.2482, 3595.785
182.7303, 3595.406
183.2124, 3612.344
183.6946, 3639.451
184.1767, 3655.752
184.6588, 3654.729
185.1409, 3653.591
185.6230, 3653.739
186.1051, 3657.378
186.5873, 3668.714
187.0694, 3691.082
187.5515, 3718.349
188.0336, 3733.654
188.5157, 3728.138
188.9978, 3725.349
189.4800, 3729.438
189.9621, 3738.696
190.4442, 3752.750
190.9263, 3771.848
191.4084, 3792.729
191.8905, 3806.988
192.3727, 3810.133
192.8548, 3814.470
193.3369, 3820.601
193.8190, 3829.383
194.3011, 3843.061
194.7832, 3862.642
195.2654, 3884.046
195.7475, 3897.835
196.2296, 3899.180
196.7117, 3901.840
197.1938, 3905.725
197.6759, 3912.416
198.1581, 3924.447
198.6402, 3942.521
199.1223, 3963.031
199.6044, 3979.311
200.0865, 3989.947
200.5686, 3998.804
201.0508, 4003.736
201.5329, 4008.909
202.0150, 4017.073
202.4971, 4029.135
202.9792, 4044.650
203.4613, 4065.044
203.9435, 4098.983
204.4256, 4117.203
204.9077, 4103.710
205.3898, 4086.806
205.8719, 4088.578
206.3540, 4112.013
206.8362, 4140.975
207.3183, 4150.589
207.8004, 4125.649
208.2825, 4120.614
208.7646, 4148.355
209.2467, 4183.650
209.7289, 4214.613
210.2110, 4238.477
210.6931, 4257.266
211.1752, 4271.942
211.6573, 4279.627
212.1395, 4293.718
212.6216, 4320.386
213.1037, 4347.631
213.5858, 4368.272
214.0679, 4383.136
214.5500, 4398.684
215.0322, 4422.302
215.5143, 4456.050
215.9964, 4483.634
216.4785, 4496.791
216.9606, 4511.648
217.4427, 4532.424
217.9249, 4560.080
218.4070, 4595.760
218.8891, 4642.767
219.3712, 4701.770
219.8533, 4747.648
220.3354, 4771.081
220.8176, 4789.569
221.2997, 4803.007
221.7818, 4815.037
222.2639, 4831.505
222.7460, 4856.687
223.2281, 4890.053
223.7103, 4923.703
224.1924, 4960.938
224.6745, 4994.749
225.1566, 5023.632
225.6387, 5048.308
226.1208, 5068.850
226.6030, 5084.464
227.0851, 5097.667
227.5672, 5119.665
228.0493, 5162.270
228.5314, 5197.889
229.0135, 5215.511
229.4957, 5226.344
229.9778, 5244.223
230.4599, 5275.606
230.9420, 5314.085
231.4241, 5344.269
231.9062, 5363.704
232.3884, 5377.808
232.8705, 5377.956
233.3526, 5378.866
233.8347, 5394.562
234.3168, 5429.407
234.7989, 5475.380
235.2811, 5520.446
235.7632, 5569.189
236.2453, 5605.590
236.7274, 5620.639
237.2095, 5630.235
237.6916, 5643.942
238.1738, 5663.958
238.6559, 5687.838
239.1380, 5713.210
239.6201, 5740.662
240.1022, 5767.599
240.5843, 5798.108
241.0665, 5824.655
241.5486, 5839.032
242.0307, 5843.813
242.5128, 5851.574
242.9949, 5876.809
243.4770, 5921.610
243.9592, 5959.302
244.4413, 5987.306
244.9234, 6010.133
245.4055, 6024.660
245.8876, 6034.856
246.3697, 6049.974
246.8519, 6079.133
247.3340, 6120.176
247.8161, 6152.000
248.2982, 6171.365
248.7803, 6184.920
249.2624, 6188.514
249.7446, 6189.591
250.2267, 6200.756
250.7088, 6231.245
251.1909, 6273.580
251.6730, 6305.609
252.1551, 6321.955
252.6373, 6338.929
253.1194, 6358.747
253.6015, 6382.923
254.0836, 6415.387
254.5657, 6459.290
255.0478, 6505.216
255.5300, 6536.204
256.0121, 6547.186
256.4942, 6562.188
256.9763, 6591.016
257.4584, 6624.823
257.9406, 6659.171
258.4227, 6693.235
258.9048, 6724.695
259.3869, 6750.347
259.8690, 6769.971
260.3511, 6789.794
260.8333, 6811.232
261.3154, 6833.219
261.7975, 6853.371
262.2796, 6872.095
262.7617, 6895.183
263.2438, 6930.314
263.7260, 6974.940
264.2081, 7013.880
264.6902, 7045.249
265.1723, 7070.783
265.6544, 7091.645
266.1365, 7108.423
266.6187, 7122.393
267.1008, 7127.237
267.5829, 7130.924
268.0650, 7153.008
268.5471, 7198.636
269.0292, 7247.139
269.5114, 7286.620
269.9935, 7318.905
270.4756, 7345.663
270.9577, 7362.396
271.4398, 7377.785
271.9219, 7402.973
272.4041, 7438.315
272.8862, 7472.872
273.3683, 7499.386
273.8504, 7522.660
274.3325, 7551.983
274.8146, 7590.598
275.2968, 7630.272
275.7789, 7668.551
276.2610, 7704.129
276.7431, 7730.575
277.2252, 7742.392
277.7073, 7748.322
278.1895, 7761.273
278.6716, 7779.636
279.1537, 7808.289
279.6358, 7857.093
280.1179, 7915.562
280.6000, 7964.039
281.0822, 7997.328
281.5643, 8026.733
282.0464, 8067.238
282.5285, 8119.964
283.0106, 8166.669
283.4927, 8202.511
283.9749, 8233.207
284.4570, 8259.954
284.9391, 8284.173
285.4212, 8316.808
285.9033, 8369.854
286.3854, 8442.531
286.8676, 8499.638
287.3497, 8534.031
287.8318, 8561.481
288.3139, 8583.961
288.7960, 8605.227
289.2781, 8634.492
289.7603, 8677.944
290.2424, 8731.466
290.7245, 8776.897
291.2066, 8807.975
291.6887, 8839.396
292.1708, 8871.953
292.6530, 8906.522
293.1351, 8944.960
293.6172, 8987.828
294.0993, 9032.591
294.5814, 9074.113
295.0635, 9107.345
295.5457, 9147.544
296.0278, 9205.300
296.5099, 9261.659
296.9920, 9297.898
297.4741, 9315.365
297.9562, 9332.932
298.4384, 9370.456
298.9205, 9430.467
299.4026, 9494.191
299.8847, 9570.892
300.3668, 9641.947
300.8489, 9694.237
301.3310, 9736.129
301.8131, 9786.915
302.2953, 9861.788
302.7774, 9953.222
303.2595, 10021.11
303.7416, 10043.39
304.2237, 10074.02
304.7058, 10131.81
305.1880, 10199.35
305.6701, 10255.25
306.1522, 10291.12
306.6343, 10322.56
307.1164, 10380.62
307.5985, 10477.31
308.0807, 10554.86
308.5628, 10587.01
309.0449, 10607.49
309.5270, 10631.05
310.0091, 10660.64
310.4912, 10697.38
310.9734, 10746.67
311.4555, 10806.87
311.9376, 10859.15
312.4197, 10902.00
312.9018, 10936.03
313.3839, 10962.66
313.8661, 10982.19
314.3482, 10994.70
314.8303, 10999.91
315.3124, 10998.30
315.7945, 10990.94
316.2766, 10978.13
316.7588, 10957.58
317.2409, 10919.27
317.7230, 10875.52
318.2051, 10849.07
318.6872, 10854.36
319.1693, 10856.83
319.6515, 10821.77
320.1336, 10758.92
320.6157, 10715.27
321.0978, 10715.64
321.5799, 10728.22
322.0620, 10694.11
322.5442, 10604.54
323.0263, 10534.05
323.5084, 10521.47
323.9905, 10531.90
324.4726, 10517.02
324.9547, 10468.74
325.4369, 10415.60
325.9190, 10383.56
326.4011, 10375.03
326.8832, 10373.85
327.3653, 10397.62
327.8474, 10412.48
328.3296, 10388.75
328.8117, 10338.43
329.2938, 10300.02
329.7759, 10297.69
330.2580, 10321.55
330.7401, 10326.90
331.2223, 10293.32
331.7044, 10266.43
332.1865, 10250.75
332.6686, 10244.05
333.1507, 10245.90
333.6328, 10255.56
334.1150, 10268.18
334.5971, 10276.94
335.0792, 10281.50
335.5613, 10282.66
336.0434, 10283.65
336.5255, 10278.93
337.0077, 10263.69
337.4898, 10239.73
337.9719, 10212.86
338.4540, 10187.57
338.9361, 10163.54
339.4182, 10137.30
339.9004, 10104.03
340.3825, 10076.34
340.8646, 10068.98
341.3467, 10064.65
341.8288, 10039.14
342.3109, 9981.012
342.7931, 9909.929
343.2752, 9853.518
343.7573, 9812.640
344.2394, 9780.734
344.7215, 9769.093
345.2036, 9755.338
345.6858, 9716.668
346.1679, 9652.839
346.6500, 9593.315
347.1321, 9564.835
347.6142, 9554.767
348.0963, 9525.117
348.5785, 9466.769
349.0606, 9405.517
349.5427, 9363.620
350.0248, 9335.290
350.5069, 9304.102
350.9890, 9266.612
351.4712, 9225.524
351.9533, 9180.790
352.4354, 9133.381
352.9175, 9088.789
353.3996, 9050.696
353.8817, 9015.767
354.3639, 8972.718
354.8460, 8908.782
355.3281, 8864.394
355.8102, 8869.540
356.2923, 8889.577
356.7744, 8879.104
357.2566, 8829.791
357.7387, 8772.414
358.2208, 8742.689
358.7029, 8748.190
359.1850, 8738.944
359.6671, 8700.641
360.1493, 8664.126
360.6314, 8642.727
361.1135, 8633.985
361.5956, 8630.508
362.0777, 8628.093
362.5598, 8627.098
363.0420, 8629.044
363.5241, 8636.887
364.0062, 8642.945
364.4883, 8649.311
364.9704, 8651.949
365.4525, 8643.415
365.9347, 8623.814
366.4168, 8606.459
366.8989, 8606.290
367.3810, 8623.939
367.8631, 8650.096
368.3452, 8700.618
368.8274, 8739.613
369.3095, 8748.527
369.7916, 8733.211
370.2737, 8707.900
370.7558, 8677.391
371.2379, 8642.225
371.7201, 8603.926
372.2022, 8562.797
372.6843, 8516.890
373.1664, 8469.923
373.6485, 8414.063
374.1306, 8335.536
374.6128, 8226.032
375.0949, 8122.544
375.5770, 8051.557
376.0591, 7999.569
376.5412, 7940.276
377.0233, 7868.087
377.5055, 7790.259
377.9876, 7712.026
378.4697, 7633.439
378.9518, 7562.731
379.4339, 7497.774
379.9160, 7442.979
380.3982, 7409.419
380.8803, 7389.347
381.3624, 7362.782
381.8445, 7318.737
382.3266, 7261.528
382.8087, 7202.927
383.2909, 7129.018
383.7730, 7073.847
384.2551, 7049.408
384.7372, 7036.400
385.2193, 7019.919
385.7014, 6997.262
386.1836, 6973.791
386.6657, 6955.766
387.1478, 6943.764
387.6299, 6927.921
388.1120, 6914.408
388.5941, 6888.559
389.0763, 6830.947
389.5584, 6761.844
390.0405, 6714.756
390.5226, 6706.532
391.0047, 6717.265
391.4868, 6717.867
391.9690, 6708.097
392.4511, 6689.604
392.9332, 6654.597
393.4153, 6618.351
393.8974, 6598.951
394.3795, 6596.168
394.8617, 6586.944
395.3438, 6552.301
395.8259, 6506.683
396.3080, 6473.525
396.7901, 6455.146
397.2722, 6445.812
397.7544, 6447.748
398.2365, 6455.454
398.7186, 6442.772
399.2007, 6385.008
399.6828, 6335.085
400.1649, 6323.022
400.6471, 6330.100
401.1292, 6322.894
401.6113, 6290.264
402.0934, 6249.422
402.5755, 6226.051
403.0576, 6228.290
403.5398, 6223.995
404.0219, 6210.220
404.5040, 6193.587
404.9861, 6176.260
405.4682, 6158.891
405.9503, 6141.609
406.4325, 6124.060
406.9146, 6107.605
407.3967, 6098.630
407.8788, 6103.979
408.3609, 6102.598
408.8430, 6087.227
409.3252, 6066.239
409.8073, 6043.998
410.2894, 6021.791
410.7715, 6002.961
411.2536, 5991.481
411.7357, 5986.183
412.2179, 5980.868
412.7000, 5973.587
413.1821, 5970.121
413.6642, 5983.050
414.1463, 6002.126
414.6284, 6004.969
415.1106, 5977.363
415.5927, 5944.785
416.0748, 5924.705
416.5569, 5914.701
417.0390, 5907.556
417.5211, 5900.906
418.0033, 5896.325
418.4854, 5898.255
418.9675, 5912.813
419.4496, 5911.295
419.9317, 5875.149
420.4138, 5837.042
420.8960, 5819.069
421.3781, 5819.067
421.8602, 5824.645
422.3423, 5828.519
422.8244, 5830.133
423.3065, 5827.644
423.7887, 5826.153
424.2708, 5811.454
424.7529, 5769.287
425.2350, 5723.202
425.7171, 5694.124
426.1992, 5683.884
426.6814, 5677.568
427.1635, 5662.149
427.6456, 5637.980
428.1277, 5610.680
428.6098, 5579.948
429.0919, 5546.631
429.5741, 5505.604
430.0562, 5463.583
430.5383, 5432.854
431.0204, 5421.926
431.5025, 5410.592
431.9846, 5376.374
432.4668, 5326.860
432.9489, 5291.558
433.4310, 5280.951
433.9131, 5276.205
434.3952, 5253.016
434.8773, 5208.770
435.3595, 5175.875
435.8416, 5166.143
436.3237, 5159.244
436.8058, 5142.093
437.2879, 5117.417
437.7701, 5094.023
438.2522, 5076.546
438.7343, 5062.318
439.2164, 5044.931
439.6985, 5025.016
440.1806, 5000.455
440.6628, 4960.815
441.1449, 4925.372
441.6270, 4912.444
442.1091, 4917.097
442.5912, 4916.391
443.0733, 4889.671
443.5555, 4845.536
444.0376, 4818.576
444.5197, 4814.376
445.0018, 4811.719
445.4839, 4804.339
445.9660, 4793.482
446.4482, 4778.194
446.9303, 4757.340
447.4124, 4740.679
447.8945, 4743.065
448.3766, 4752.140
448.8587, 4737.692
449.3409, 4694.053
449.8230, 4649.528
450.3051, 4625.621
450.7872, 4621.089
451.2693, 4617.740
451.7514, 4619.052
452.2336, 4617.448
452.7157, 4607.915
453.1978, 4594.883
453.6799, 4585.326
454.1620, 4581.005
454.6441, 4577.308
455.1263, 4568.350
455.6084, 4553.619
456.0905, 4536.614
456.5726, 4509.871
457.0547, 4488.790
457.5368, 4484.726
458.0190, 4487.887
458.5011, 4481.375
458.9832, 4456.790
459.4653, 4426.276
459.9474, 4406.799
460.4295, 4398.560
460.9117, 4392.620
461.3938, 4387.878
461.8759, 4384.280
462.3580, 4383.016
462.8401, 4383.327
463.3222, 4380.804
463.8044, 4372.730
464.2865, 4362.498
464.7686, 4350.891
465.2507, 4339.250
465.7328, 4332.766
466.2149, 4334.053
466.6971, 4340.432
467.1792, 4346.995
467.6613, 4355.338
468.1434, 4360.194
468.6255, 4363.833
469.1076, 4362.151
469.5898, 4348.713
470.0719, 4327.394
470.5540, 4307.058
471.0361, 4291.825
471.5182, 4285.029
472.0003, 4300.518
472.4825, 4351.083
472.9646, 4388.708
473.4467, 4402.279
473.9288, 4399.477
474.4109, 4377.285
474.8930, 4338.714
475.3752, 4303.888
475.8573, 4283.518
476.3394, 4274.554
476.8215, 4274.685
477.3036, 4283.918
477.7857, 4291.670
478.2679, 4292.493
478.7500, 4288.629
479.2321, 4285.007
479.7142, 4280.594
480.1963, 4278.819
480.6784, 4282.190
481.1606, 4287.237
481.6427, 4291.533
482.1248, 4294.494
482.6069, 4296.048
483.0890, 4296.438
483.5711, 4295.075
484.0533, 4288.159
484.5354, 4270.043
485.0175, 4241.467
485.4996, 4271.624
485.9817, 4287.758
486.4638, 4290.621
486.9460, 4240.466
487.4281, 4258.772
487.9102, 4249.643
488.3923, 4239.389
488.8744, 4267.331
489.3565, 4224.888
489.8387, 4252.224
490.3208, 4251.706
490.8029, 4263.936
491.2850, 4248.560
491.7671, 4265.333
492.2492, 4291.430
492.7314, 4288.842
493.2135, 4275.157
493.6956, 4270.431
494.1777, 4276.167
494.6598, 4282.930
495.1419, 4284.095
495.6241, 4279.740
496.1062, 4269.842
496.5883, 4242.021
497.0704, 4226.595
497.5525, 4233.592
498.0346, 4248.583
498.5168, 4263.128
498.9989, 4274.324
499.4810, 4278.447
499.9631, 4267.692
500.4452, 4247.572
500.9273, 4240.262
501.4095, 4248.360
501.8916, 4258.255
502.3737, 4262.986
502.8558, 4266.935
503.3379, 4279.573
503.8200, 4305.814
504.3022, 4320.253
504.7843, 4304.440
505.2664, 4276.897
505.7485, 4256.926
506.2306, 4246.543
506.7127, 4243.114
507.1949, 4245.725
507.6770, 4252.600
508.1591, 4255.617
508.6412, 4244.253
509.1233, 4244.998
509.6054, 4274.862
510.0876, 4304.739
510.5697, 4310.286
511.0518, 4293.455
511.5339, 4274.736
512.0161, 4268.804
512.4982, 4271.572
512.9803, 4272.032
513.4624, 4269.797
513.9445, 4267.546
514.4266, 4266.021
514.9088, 4265.105
515.3909, 4266.002
515.8730, 4269.304
516.3551, 4267.212
516.8372, 4249.722
517.3193, 4231.448
517.8015, 4228.133
518.2836, 4237.190
518.7657, 4245.135
519.2478, 4244.825
519.7299, 4239.052
520.2120, 4234.575
520.6942, 4233.825
521.1763, 4229.575
521.6584, 4214.907
522.1405, 4203.580
522.6226, 4207.254
523.1047, 4220.385
523.5869, 4227.848
524.0690, 4220.417
524.5511, 4206.328
525.0332, 4198.627
525.5153, 4197.283
525.9974, 4197.908
526.4796, 4202.197
526.9617, 4203.693
527.4438, 4192.254
527.9259, 4169.721
528.4080, 4152.470
528.8901, 4140.162
529.3723, 4136.320
529.8544, 4152.190
530.3365, 4176.288
530.8186, 4182.886
531.3007, 4163.819
531.7828, 4140.379
532.2650, 4145.527
532.7471, 4188.124
533.2292, 4203.654
533.7113, 4160.509
534.1934, 4126.103
534.6755, 4130.416
535.1577, 4151.783
535.6398, 4158.743
536.1219, 4141.155
536.6040, 4119.769
537.0861, 4113.870
537.5682, 4119.710
538.0504, 4126.271
538.5325, 4132.615
539.0146, 4137.005
539.4967, 4138.203
539.9788, 4136.336
540.4609, 4132.245
540.9431, 4122.936
541.4252, 4115.693
541.9073, 4114.860
542.3894, 4114.897
542.8715, 4110.439
543.3536, 4101.110
543.8358, 4089.800
544.3179, 4078.766
544.8000, 4067.635
545.2821, 4053.740
545.7642, 4033.999
546.2463, 4019.990
546.7285, 4017.302
547.2106, 4019.775
547.6926, 4025.607
548.1747, 4033.751
548.6569, 4036.387
549.1390, 4028.764
549.6211, 4014.837
550.1032, 3994.037
550.5853, 3969.523
551.0674, 3955.925
551.5496, 3960.124
552.0317, 3971.798
552.5138, 3973.958
552.9959, 3962.514
553.4780, 3955.341
553.9601, 3954.465
554.4423, 3955.003
554.9244, 3958.485
555.4065, 3961.009
555.8886, 3954.870
556.3707, 3936.915
556.8528, 3918.537
557.3350, 3916.237
557.8171, 3927.504
558.2992, 3931.296
558.7813, 3924.241
559.2634, 3914.232
559.7455, 3905.362
560.2277, 3897.596
560.7098, 3890.663
561.1919, 3884.656
561.6740, 3879.273
562.1561, 3875.941
562.6382, 3872.269
563.1204, 3862.865
563.6025, 3849.352
564.0846, 3842.206
564.5667, 3850.618
565.0488, 3868.480
565.5309, 3870.770
566.0131, 3850.883
566.4952, 3832.083
566.9773, 3810.678
567.4594, 3798.052
567.9415, 3808.920
568.4236, 3837.504
568.9058, 3857.190
569.3879, 3855.769
569.8700, 3841.535
570.3521, 3816.681
570.8342, 3785.396
571.3163, 3762.119
571.7985, 3723.891
572.2806, 3750.295
572.7627, 3762.674
573.2448, 3761.783
573.7269, 3707.875
574.2090, 3722.428
574.6912, 3709.543
575.1733, 3695.535
575.6554, 3719.722
576.1375, 3673.525
576.6196, 3697.107
577.1017, 3692.836
577.5839, 3701.310
578.0660, 3682.181
578.5481, 3671.578
579.0302, 3688.589
579.5123, 3690.310
579.9944, 3668.003
580.4766, 3677.288
580.9587, 3630.127
581.4408, 3632.500
581.9229, 3656.243
582.4050, 3635.324
582.8871, 3592.473
583.3693, 3583.517
583.8514, 3592.451
584.3335, 3598.848
584.8156, 3593.399
585.2977, 3580.636
585.7798, 3564.541
586.2620, 3543.858
586.7441, 3536.950
587.2262, 3554.705
587.7083, 3569.686
588.1904, 3564.471
588.6725, 3546.727
589.1547, 3527.427
589.6368, 3506.449
590.1189, 3487.979
590.6010, 3470.849
591.0831, 3459.048
591.5652, 3463.288
592.0474, 3480.521
592.5295, 3491.395
593.0116, 3482.832
593.4937, 3459.474
593.9758, 3433.229
594.4579, 3395.544
594.9401, 3375.652
595.4222, 3394.323
595.9043, 3414.953
596.3864, 3423.148
596.8685, 3418.634
597.3506, 3401.083
597.8328, 3361.482
598.3149, 3326.377
598.7970, 3328.328
599.2791, 3352.720
599.7612, 3360.765
600.2433, 3344.977
600.7255, 3321.544
601.2076, 3302.829
601.6897, 3288.778
602.1718, 3279.143
602.6539, 3287.682
603.1360, 3281.298
603.6182, 3234.880
604.1003, 3190.726
604.5824, 3189.313
605.0645, 3222.479
605.5466, 3245.752
606.0287, 3229.275
606.5109, 3195.124
606.9930, 3175.882
607.4751, 3169.769
607.9572, 3162.837
608.4393, 3151.422
608.9214, 3139.255
609.4036, 3131.061
609.8857, 3126.824
610.3678, 3115.644
610.8499, 3089.249
611.3320, 3067.123
611.8141, 3055.074
612.2963, 3048.576
612.7784, 3045.884
613.2605, 3044.893
613.7426, 3039.697
614.2247, 3024.247
614.7068, 3002.748
615.1890, 2985.161
615.6711, 2971.563
616.1532, 2960.873
616.6353, 2954.952
617.1174, 2948.025
617.5995, 2932.181
618.0817, 2907.156
618.5638, 2886.081
619.0459, 2869.996
619.5280, 2857.334
620.0101, 2849.462
620.4922, 2843.712
620.9744, 2838.400
621.4565, 2832.282
621.9386, 2821.852
622.4207, 2802.749
622.9028, 2777.306
623.3849, 2754.313
623.8671, 2733.552
624.3492, 2716.745
624.8313, 2705.706
625.3134, 2697.374
625.7955, 2688.088
626.2776, 2677.914
626.7598, 2669.740
627.2419, 2667.584
627.7240, 2663.644
628.2061, 2654.584
628.6882, 2641.047
629.1703, 2623.124
629.6525, 2601.463
630.1346, 2578.781
630.6167, 2556.588
631.0988, 2535.884
631.5809, 2523.732
632.0630, 2523.323
632.5452, 2518.157
633.0273, 2496.786
633.5094, 2474.822
633.9915, 2474.352
634.4736, 2493.830
634.9557, 2500.672
635.4379, 2482.338
635.9200, 2456.198
636.4021, 2427.655
636.8842, 2399.288
637.3663, 2373.093
637.8484, 2350.202
638.3306, 2333.795
638.8127, 2328.442
639.2948, 2332.141
639.7769, 2333.684
640.2590, 2334.176
640.7411, 2328.345
641.2233, 2311.757
641.7054, 2290.946
642.1875, 2269.700
642.6696, 2248.602
643.1517, 2236.816
643.6339, 2250.756
644.1160, 2258.948
644.5981, 2234.026
645.0802, 2196.155
645.5623, 2179.947
646.0444, 2190.436
646.5266, 2201.617
647.0087, 2188.164
647.4908, 2155.986
647.9729, 2132.214
648.4550, 2117.611
648.9371, 2109.391
649.4193, 2109.943
649.9014, 2113.409
650.3835, 2115.612
650.8656, 2116.274
651.3477, 2112.866
651.8298, 2103.839
652.3120, 2091.935
652.7941, 2073.680
653.2762, 2055.569
653.7583, 2049.145
654.2404, 2054.118
654.7225, 2057.417
655.2047, 2048.340
655.6868, 2029.751
656.1689, 2010.059
656.6510, 1988.565
657.1331, 1970.603
657.6152, 1959.251
658.0974, 1949.014
658.5795, 1932.102
659.0616, 1911.279
659.5437, 1899.999
660.0258, 1907.953
660.5079, 1914.990
660.9901, 1916.958
661.4722, 1912.931
661.9543, 1897.186
662.4364, 1873.319
662.9185, 1856.313
663.4006, 1857.826
663.8828, 1867.369
664.3649, 1859.542
664.8470, 1833.546
665.3291, 1817.805
665.8112, 1820.495
666.2933, 1824.820
666.7755, 1818.240
667.2576, 1802.933
667.7397, 1788.886
668.2218, 1772.685
668.7039, 1763.270
669.1860, 1773.411
669.6682, 1781.924
670.1503, 1767.977
670.6324, 1737.613
671.1145, 1710.994
671.5966, 1698.051
672.0787, 1692.372
672.5609, 1685.527
673.0430, 1677.836
673.5251, 1671.265
674.0072, 1665.649
674.4893, 1663.918
674.9714, 1670.879
675.4536, 1680.519
675.9357, 1676.220
676.4178, 1647.368
676.8999, 1627.767
677.3820, 1623.215
677.8641, 1623.035
678.3463, 1625.586
678.8284, 1627.414
679.3105, 1623.095
679.7926, 1610.925
680.2747, 1596.704
680.7568, 1586.128
681.2390, 1577.576
681.7211, 1566.684
682.2032, 1553.505
682.6853, 1541.055
683.1674, 1530.064
683.6495, 1522.468
684.1317, 1522.306
684.6138, 1532.285
685.0959, 1535.323
685.5780, 1525.499
686.0601, 1515.776
686.5422, 1507.945
687.0244, 1502.512
687.5065, 1501.841
687.9886, 1505.328
688.4707, 1505.328
688.9528, 1494.757
689.4349, 1480.594
689.9171, 1469.727
690.3992, 1461.903
690.8813, 1457.185
691.3634, 1455.458
691.8455, 1452.805
692.3276, 1444.797
692.8098, 1432.361
693.2919, 1423.815
693.7740, 1419.924
694.2561, 1418.294
694.7382, 1421.395
695.2203, 1424.007
695.7025, 1422.545
696.1846, 1417.556
696.6667, 1411.423
697.1488, 1405.071
697.6309, 1397.193
698.1130, 1382.496
698.5952, 1368.527
699.0773, 1367.159
699.5594, 1377.013
700.0415, 1387.028
700.5236, 1390.820
701.0057, 1388.577
701.4879, 1377.857
701.9700, 1357.816
702.4521, 1347.797
702.9342, 1353.288
703.4163, 1359.223
703.8984, 1357.263
704.3806, 1349.445
704.8627, 1339.739
705.3448, 1325.046
705.8269, 1317.347
706.3090, 1326.880
706.7911, 1335.215
707.2733, 1330.088
707.7554, 1316.533
708.2375, 1302.188
708.7196, 1289.788
709.2017, 1282.541
709.6838, 1288.286
710.1660, 1300.308
710.6481, 1299.349
711.1302, 1286.052
711.6123, 1276.292
712.0944, 1276.337
712.5765, 1279.188
713.0587, 1275.850
713.5408, 1265.880
714.0229, 1259.109
714.5050, 1257.240
714.9871, 1256.403
715.4692, 1253.670
715.9514, 1253.517
716.4335, 1263.879
716.9156, 1281.277
717.3977, 1289.595
717.8798, 1277.208
718.3619, 1260.975
718.8441, 1254.387
719.3262, 1253.045
719.8083, 1248.582
720.2904, 1240.655
720.7725, 1235.696
721.2546, 1238.324
721.7368, 1245.534
722.2189, 1250.750
722.7010, 1254.198
723.1831, 1253.653
723.6652, 1247.080
724.1473, 1240.145
724.6295, 1236.153
725.1116, 1233.894
725.5937, 1230.325
726.0758, 1224.088
726.5579, 1221.409
727.0400, 1225.949
727.5222, 1231.768
728.0043, 1234.772
728.4864, 1236.872
728.9685, 1243.022
729.4506, 1253.835
729.9327, 1261.758
730.4149, 1257.198
730.8970, 1245.977
731.3791, 1242.635
731.8612, 1246.077
732.3433, 1244.193
732.8254, 1232.261
733.3076, 1222.343
733.7897, 1228.280
734.2718, 1248.325
734.7539, 1259.282
735.2360, 1253.732
735.7181, 1251.538
736.2003, 1256.851
736.6824, 1264.262
737.1645, 1272.726
737.6466, 1280.510
738.1287, 1282.926
738.6108, 1275.987
739.0930, 1270.310
739.5751, 1273.883
740.0572, 1280.560
740.5393, 1282.784
741.0214, 1281.313
741.5035, 1280.500
741.9857, 1282.370
742.4678, 1287.194
742.9499, 1295.268
743.4320, 1306.618
743.9141, 1322.909
744.3962, 1345.572
744.8784, 1365.415
745.3605, 1378.426
745.8426, 1387.803
746.3247, 1396.339
746.8068, 1403.190
747.2889, 1418.338
747.7711, 1450.963
748.2532, 1479.667
748.7353, 1495.657
749.2174, 1508.564
749.6995, 1525.175
750.1816, 1546.896
750.6638, 1574.600
751.1459, 1610.173
751.6280, 1648.907
752.1101, 1684.530
752.5922, 1720.949
753.0743, 1767.152
753.5565, 1822.719
754.0386, 1877.541
754.5207, 1925.145
755.0028, 1970.701
755.4849, 2024.537
755.9670, 2087.266
756.4492, 2152.754
756.9313, 2221.349
757.4134, 2292.086
757.8955, 2366.107
758.3776, 2441.571
758.8597, 2515.305
759.3419, 2586.060
759.8240, 2664.229
760.3061, 2761.740
760.7882, 2853.679
761.2703, 2930.568
761.7524, 2997.220
762.2346, 3060.191
762.7167, 3119.177
763.1988, 3168.215
763.6809, 3200.631
764.1630, 3227.470
764.6451, 3262.797
765.1273, 3302.408
765.6094, 3335.303
766.0915, 3360.366
766.5736, 3389.404
767.0557, 3433.276
767.5378, 3468.750
768.0200, 3434.952
768.5021, 3314.603
768.9842, 3231.570
769.4663, 3199.312
769.9484, 3180.246
770.4305, 3164.551
770.9127, 3149.130
771.3948, 3130.158
771.8769, 3107.933
772.3590, 3080.469
772.8411, 3033.157
773.3232, 2998.024
773.8054, 2997.284
774.2875, 3008.395
774.7696, 3005.969
775.2517, 2990.099
775.7338, 2977.892
776.2159, 2977.814
776.6981, 2987.159
777.1802, 3008.051
777.6623, 3034.808
778.1444, 3053.436
778.6265, 3063.081
779.1086, 3070.490
779.5908, 3078.420
780.0729, 3092.945
780.5550, 3128.502
781.0371, 3188.008
781.5192, 3239.336
782.0013, 3283.436
782.4835, 3316.189
782.9656, 3326.608
783.4477, 3333.656
783.9298, 3365.766
784.4119, 3423.697
784.8940, 3468.529
785.3762, 3494.580
785.8583, 3512.425
786.3404, 3513.528
786.8225, 3516.507
787.3046, 3541.216
787.7867, 3582.719
788.2689, 3619.018
788.7510, 3637.977
789.2331, 3659.464
789.7152, 3704.042
790.1973, 3760.389
790.6794, 3809.242
791.1616, 3852.169
791.6437, 3902.150
792.1258, 3965.243
792.6079, 4038.824
793.0900, 4117.575
793.5721, 4203.012
794.0543, 4309.287
794.5364, 4436.511
795.0185, 4588.745
795.5006, 4773.303
795.9827, 4970.234
796.4648, 5158.222
796.9470, 5340.176
797.4291, 5540.125
797.9112, 5744.605
798.3933, 5986.526
798.8754, 6281.282
799.3575, 6600.044
799.8397, 6928.949
800.3218, 7268.817
800.8039, 7624.899
801.2860, 7995.708
801.7681, 8390.517
802.2502, 8814.080
802.7324, 9263.974
803.2145, 9747.389
803.6966, 10252.36
804.1787, 10766.37
804.6608, 11281.89
805.1429, 11787.53
805.6251, 12274.31
806.1072, 12744.03
806.5893, 13205.73
807.0714, 13657.42
807.5535, 14078.49
808.0356, 14468.23
808.5178, 14791.38
808.9999, 15023.57
809.4820, 15179.78
809.9641, 15295.49
810.4462, 15378.69
810.9283, 15393.23
811.4105, 15333.76
811.8926, 15214.09
812.3747, 15024.79
812.8568, 14786.57
813.3389, 14534.79
813.8210, 14269.72
814.3032, 13926.18
814.7853, 13452.79
815.2674, 12954.08
815.7495, 12472.18
816.2316, 11976.20
816.7137, 11423.42
817.1959, 10828.61
817.6780, 10239.67
818.1601, 9676.008
818.6422, 9122.767
819.1243, 8548.096
819.6064, 7978.888
820.0886, 7456.682
820.5707, 6978.666
821.0528, 6533.176
821.5349, 6111.997
822.0170, 5721.675
822.4991, 5366.621
822.9813, 5045.152
823.4634, 4748.735
823.9455, 4475.360
824.4276, 4225.950
824.9097, 4001.450
825.3918, 3797.482
825.8740, 3612.312
826.3561, 3443.897
826.8382, 3288.030
827.3203, 3145.802
827.8024, 3013.600
828.2845, 2890.540
828.7667, 2778.967
829.2488, 2681.294
829.7309, 2594.205
830.2130, 2515.693
830.6951, 2445.320
831.1772, 2378.063
831.6594, 2313.098
832.1415, 2250.545
832.6236, 2189.152
833.1057, 2130.859
833.5878, 2076.054
834.0699, 2025.790
834.5521, 1983.542
835.0342, 1951.786
835.5163, 1922.917
835.9984, 1888.817
836.4805, 1853.412
836.9626, 1824.538
837.4448, 1800.425
837.9269, 1773.229
838.4090, 1740.413
838.8911, 1704.975
839.3732, 1669.060
839.8553, 1634.207
840.3375, 1606.000
840.8196, 1584.521
841.3017, 1565.674
841.7838, 1548.959
842.2659, 1533.618
842.7480, 1518.969
843.2302, 1505.457
843.7123, 1494.751
844.1944, 1489.909
844.6765, 1477.135
845.1586, 1449.169
845.6407, 1424.124
846.1229, 1409.101
846.6050, 1399.007
847.0871, 1389.962
847.5692, 1381.716
848.0513, 1372.667
848.5334, 1359.314
849.0156, 1349.515
849.4977, 1351.747
849.9798, 1352.649
850.4619, 1337.460
850.9440, 1313.628
851.4261, 1300.017
851.9083, 1303.059
852.3904, 1305.022
852.8725, 1293.439
853.3546, 1275.604
853.8367, 1253.583
854.3188, 1232.962
854.8010, 1228.000
855.2831, 1238.546
855.7652, 1246.047
856.2473, 1236.746
856.7294, 1217.215
857.2115, 1194.658
857.6937, 1171.580
858.1758, 1161.929
858.6579, 1166.434
859.1400, 1167.525
859.6221, 1156.646
860.1042, 1141.582
860.5864, 1134.416
861.0685, 1134.572
861.5506, 1122.968
862.0327, 1094.491
862.5148, 1074.684
862.9969, 1071.495
863.4791, 1073.727
863.9612, 1075.444
864.4433, 1074.856
864.9254, 1064.826
865.4075, 1035.744
865.8896, 1017.272
866.3718, 1016.977
866.8539, 1017.681
867.3360, 1012.484
867.8181, 1005.760
868.3002, 1000.951
868.7823, 998.7979
869.2645, 1003.532
869.7466, 1030.275
870.2287, 1045.846
870.7108, 1028.013
871.1929, 1001.475
871.6750, 987.1539
872.1572, 982.8753
872.6393, 978.0375
873.1214, 968.9797
873.6035, 962.5242
874.0856, 967.6614
874.5677, 974.5815
875.0499, 970.5845
875.5320, 960.2521
876.0141, 952.7930
876.4962, 950.3111
876.9783, 952.1242
877.4604, 958.7672
877.9426, 965.3528
878.4247, 960.6249
878.9068, 949.1002
879.3889, 950.9174
879.8710, 965.8283
880.3531, 973.8973
880.8353, 966.8820
881.3174, 952.4727
881.7995, 937.8173
882.2816, 924.6119
882.7637, 926.6993
883.2458, 947.3609
883.7280, 958.1002
884.2101, 952.4652
884.6922, 941.8674
885.1743, 931.5067
885.6564, 923.4922
886.1385, 923.2739
886.6207, 933.6995
887.1028, 939.0742
887.5849, 938.3495
888.0670, 934.1152
888.5491, 922.0114
889.0313, 911.0942
889.5134, 911.1060
889.9955, 919.3831
890.4776, 923.3630
890.9597, 916.1284
891.4418, 915.5975
891.9240, 934.5430
892.4061, 949.5150
892.8882, 944.1059
893.3703, 929.3958
893.8524, 920.0745
894.3345, 918.1795
894.8167, 919.1541
895.2988, 923.3303
895.7809, 927.3218
896.2630, 928.8391
896.7451, 929.6509
897.2272, 933.3958
897.7094, 937.7981
898.1915, 934.9909
898.6736, 922.0756
899.1557, 912.3842
899.6378, 922.3034
900.1199, 936.8083
900.6021, 935.8008
901.0842, 925.3597
901.5663, 917.7220
902.0484, 915.5863
902.5305, 918.4596
903.0126, 926.7444
903.4948, 935.4090
903.9769, 933.8314
904.4590, 927.0666
904.9411, 934.5699
905.4232, 954.3829
905.9053, 964.9470
906.3875, 959.3054
906.8696, 948.7694
907.3517, 943.0489
907.8338, 942.7662
908.3159, 952.0035
908.7980, 970.8412
909.2802, 985.4548
909.7623, 994.4023
910.2444, 998.2191
910.7265, 995.6888
911.2086, 992.6292
911.6907, 997.9437
912.1729, 1011.515
912.6550, 1023.109
913.1371, 1032.871
913.6192, 1040.130
914.1013, 1043.885
914.5834, 1046.658
915.0656, 1049.161
915.5477, 1052.424
916.0298, 1058.796
916.5119, 1068.355
916.9940, 1081.006
917.4761, 1105.432
917.9583, 1120.598
918.4404, 1117.264
918.9225, 1106.766
919.4046, 1094.695
919.8867, 1082.693
920.3688, 1076.810
920.8510, 1083.046
921.3331, 1082.941
921.8152, 1070.860
922.2973, 1055.359
922.7794, 1035.815
923.2615, 1017.875
923.7437, 1010.292
924.2258, 1011.775
924.7079, 1009.090
925.1900, 993.2078
925.6721, 980.8636
926.1542, 979.8134
926.6364, 984.1076
927.1185, 995.3008
927.6006, 1005.858
928.0827, 999.6461
928.5648, 975.3239
929.0469, 959.2175
929.5291, 975.3455
930.0112, 994.1950
930.4933, 990.6068
930.9754, 979.1561
931.4575, 977.7870
931.9396, 985.4362
932.4218, 993.3850
932.9039, 998.4476
933.3860, 1002.131
933.8681, 1005.772
934.3502, 1008.720
934.8323, 1010.542
935.3145, 1010.862
935.7966, 1007.247
936.2787, 1000.852
936.7608, 998.0414
937.2429, 1002.351
937.7250, 1008.898
938.2072, 1011.891
938.6893, 1012.637
939.1714, 1013.712
939.6535, 1015.285
940.1356, 1018.255
940.6177, 1022.574
941.0999, 1025.630
941.5820, 1025.367
942.0641, 1023.975
942.5462, 1024.767
943.0283, 1027.868
943.5104, 1035.032
943.9926, 1045.891
944.4747, 1055.349
944.9568, 1061.856
945.4389, 1065.708
945.9210, 1066.964
946.4031, 1066.203
946.8853, 1064.027
947.3674, 1060.468
947.8495, 1061.948
948.3316, 1069.295
948.8137, 1077.061
949.2958, 1083.419
949.7780, 1087.891
950.2601, 1089.437
950.7422, 1088.930
951.2243, 1091.028
951.7064, 1095.925
952.1885, 1102.817
952.6707, 1112.896
953.1528, 1119.710
953.6349, 1119.185
954.1170, 1116.198
954.5991, 1117.590
955.0812, 1123.066
955.5634, 1125.438
956.0455, 1121.478
956.5276, 1124.951
957.0097, 1141.069
957.4918, 1157.831
957.9739, 1170.500
958.4561, 1178.067
958.9382, 1177.520
959.4203, 1167.895
959.9024, 1163.883
960.3845, 1166.381
960.8666, 1172.967
961.3488, 1186.749
961.8309, 1199.826
962.3130, 1207.344
962.7951, 1210.891
963.2772, 1213.281
963.7593, 1214.143
964.2415, 1215.831
964.7236, 1218.891
965.2057, 1221.986
965.6878, 1223.156
966.1699, 1226.004
966.6520, 1232.438
967.1342, 1242.357
967.6163, 1257.646
968.0984, 1283.246
968.5805, 1294.349
969.0626, 1273.579
969.5447, 1259.941
970.0269, 1267.587
970.5090, 1281.866
970.9911, 1294.582
971.4732, 1304.556
971.9553, 1308.780
972.4374, 1303.981
972.9196, 1304.257
973.4017, 1317.230
973.8838, 1328.330
974.3659, 1330.562
974.8480, 1330.321
975.3301, 1332.431
975.8123, 1337.008
976.2944, 1343.282
976.7765, 1351.549
977.2586, 1360.078
977.7407, 1365.316
978.2228, 1374.563
978.7050, 1399.179
979.1871, 1422.956
979.6692, 1425.031
980.1513, 1411.721
980.6334, 1409.693
981.1155, 1429.337
981.5977, 1445.627
982.0798, 1451.053
982.5619, 1451.422
983.0440, 1444.202
983.5261, 1437.529
984.0082, 1441.668
984.4904, 1454.568
984.9725, 1464.830
985.4546, 1467.076
985.9367, 1473.721
986.4188, 1498.187
986.9009, 1518.279
987.3831, 1514.901
987.8652, 1504.149
988.3473, 1505.466
988.8294, 1518.291
989.3115, 1530.494
989.7936, 1539.041
990.2758, 1544.861
990.7579, 1539.975
991.2400, 1541.578
991.7221, 1572.649
992.2042, 1608.693
992.6863, 1614.139
993.1685, 1593.822
993.6506, 1586.109
994.1327, 1608.192
994.6148, 1630.706
995.0969, 1641.740
995.5790, 1647.590
996.0612, 1649.519
996.5433, 1650.691
997.0254, 1654.864
997.5075, 1661.901
997.9896, 1668.626
998.4717, 1672.868
998.9539, 1679.998
999.4360, 1695.309
999.9181, 1711.439
1000.400, 1722.369
1000.882, 1731.510
1001.364, 1744.377
1001.847, 1760.230
1002.329, 1772.830
1002.811, 1778.770
1003.293, 1785.298
1003.775, 1796.183
1004.257, 1808.490
1004.739, 1819.543
1005.221, 1831.171
1005.703, 1847.996
1006.186, 1867.886
1006.668, 1881.949
1007.150, 1886.526
1007.632, 1887.007
1008.114, 1878.494
1008.596, 1874.813
1009.078, 1888.900
1009.560, 1910.341
1010.043, 1927.365
1010.525, 1939.254
1011.007, 1949.054
1011.489, 1955.509
1011.971, 1968.407
1012.453, 2001.684
1012.935, 2031.685
1013.417, 2036.260
1013.899, 2035.261
1014.382, 2054.538
1014.864, 2089.320
1015.346, 2115.509
1015.828, 2124.874
1016.310, 2132.198
1016.792, 2142.612
1017.274, 2153.084
1017.756, 2159.276
1018.239, 2166.797
1018.721, 2181.337
1019.203, 2202.345
1019.685, 2228.009
1020.167, 2260.068
1020.649, 2285.597
1021.131, 2295.834
1021.613, 2304.428
1022.095, 2319.904
1022.578, 2334.826
1023.060, 2335.448
1023.542, 2330.960
1024.024, 2348.582
1024.506, 2398.379
1024.988, 2436.088
1025.470, 2438.911
1025.952, 2442.423
1026.435, 2463.055
1026.917, 2486.360
1027.399, 2500.177
1027.881, 2507.520
1028.363, 2515.681
1028.845, 2525.284
1029.327, 2538.295
1029.809, 2548.578
1030.292, 2571.266
1030.774, 2627.394
1031.256, 2680.319
1031.738, 2701.441
1032.220, 2703.708
1032.702, 2708.168
1033.184, 2715.586
1033.666, 2737.005
1034.148, 2793.856
1034.630, 2834.879
1035.113, 2833.927
1035.595, 2834.589
1036.077, 2868.100
1036.559, 2914.236
1037.041, 2939.504
1037.523, 2942.637
1038.005, 2959.061
1038.487, 3006.510
1038.970, 3038.729
1039.452, 3037.908
1039.934, 3041.340
1040.416, 3065.576
1040.898, 3102.093
1041.380, 3145.035
1041.862, 3192.669
1042.344, 3225.563
1042.826, 3233.210
1043.309, 3249.018
1043.791, 3278.124
1044.273, 3307.386
1044.755, 3328.180
1045.237, 3353.880
1045.719, 3405.106
1046.201, 3471.351
1046.683, 3500.224
1047.166, 3471.659
1047.648, 3476.970
1048.130, 3527.929
1048.612, 3580.127
1049.094, 3620.863
1049.576, 3657.496
1050.058, 3696.001
1050.540, 3734.854
1051.022, 3769.699
1051.505, 3800.092
1051.987, 3830.563
1052.469, 3861.173
1052.951, 3889.914
1053.433, 3915.773
1053.915, 3942.377
1054.397, 3971.890
1054.879, 4005.755
1055.361, 4049.456
1055.844, 4101.208
1056.326, 4137.619
1056.808, 4159.031
1057.290, 4190.913
1057.772, 4237.768
1058.254, 4280.692
1058.736, 4309.177
1059.218, 4335.680
1059.701, 4377.711
1060.183, 4429.725
1060.665, 4472.681
1061.147, 4508.288
1061.629, 4541.966
1062.111, 4576.036
1062.593, 4624.780
1063.075, 4692.896
1063.557, 4756.095
1064.040, 4785.731
1064.522, 4805.378
1065.004, 4863.328
1065.486, 4942.958
1065.968, 5007.345
1066.450, 5054.308
1066.932, 5081.877
1067.414, 5094.485
1067.896, 5122.416
1068.379, 5189.684
1068.861, 5267.369
1069.343, 5327.571
1069.825, 5374.270
1070.307, 5401.608
1070.789, 5424.812
1071.271, 5479.714
1071.753, 5562.422
1072.236, 5631.665
1072.718, 5667.645
1073.200, 5698.631
1073.682, 5742.667
1074.164, 5793.398
1074.646, 5851.839
1075.128, 5909.524
1075.610, 5948.609
1076.093, 5979.517
1076.575, 6036.025
1077.057, 6128.250
1077.539, 6209.288
1078.021, 6242.684
1078.503, 6281.435
1078.985, 6363.235
1079.467, 6445.967
1079.949, 6494.650
1080.432, 6522.907
1080.914, 6550.361
1081.396, 6580.604
1081.878, 6631.404
1082.360, 6714.407
1082.842, 6805.675
1083.324, 6921.348
1083.806, 7020.648
1084.288, 7072.127
1084.771, 7107.435
1085.253, 7160.986
1085.735, 7228.170
1086.217, 7285.019
1086.699, 7321.186
1087.181, 7375.328
1087.663, 7461.640
1088.145, 7535.454
1088.628, 7575.637
1089.110, 7618.214
1089.592, 7690.490
1090.074, 7782.923
1090.556, 7879.244
1091.038, 7980.575
1091.520, 8044.461
1092.002, 8061.796
1092.484, 8096.969
1092.967, 8160.278
1093.449, 8247.081
1093.931, 8360.434
1094.413, 8469.635
1094.895, 8530.794
1095.377, 8562.347
1095.859, 8637.011
1096.341, 8747.426
1096.823, 8832.403
1097.306, 8889.826
1097.788, 8951.984
1098.270, 9029.418
1098.752, 9118.237
1099.234, 9218.057
1099.716, 9314.477
1100.198, 9378.961
1100.680, 9427.436
1101.163, 9488.507
1101.645, 9562.578
1102.127, 9652.237
1102.609, 9752.427
1103.091, 9845.801
1103.573, 9923.358
1104.055, 9995.264
1104.537, 10068.07
1105.020, 10140.23
1105.502, 10208.74
1105.984, 10276.86
1106.466, 10347.50
1106.948, 10421.65
1107.430, 10501.09
1107.912, 10585.96
1108.394, 10668.30
1108.876, 10746.87
1109.359, 10819.51
1109.841, 10867.79
1110.323, 10929.16
1110.805, 11039.34
1111.287, 11166.50
1111.769, 11278.61
1112.251, 11371.54
1112.733, 11436.31
1113.215, 11448.59
1113.698, 11490.16
1114.180, 11574.53
1114.662, 11670.21
1115.144, 11779.78
1115.626, 11886.41
1116.108, 11976.95
1116.590, 12059.56
1117.072, 12151.98
1117.555, 12254.46
1118.037, 12331.49
1118.519, 12373.29
1119.001, 12451.53
1119.483, 12582.69
1119.965, 12693.08
1120.447, 12748.45
1120.929, 12794.32
1121.411, 12877.12
1121.894, 12984.69
1122.376, 13089.15
1122.858, 13189.01
1123.340, 13276.01
1123.822, 13351.93
1124.304, 13426.25
1124.786, 13503.30
1125.268, 13601.44
1125.750, 13732.23
1126.233, 13862.97
1126.715, 13951.20
1127.197, 14020.45
1127.679, 14094.45
1128.161, 14177.42
1128.643, 14288.89
1129.125, 14412.63
1129.607, 14492.87
1130.090, 14523.27
1130.572, 14593.77
1131.054, 14785.61
1131.536, 14964.56
1132.018, 15043.39
1132.500, 15105.83
1132.982, 15201.40
1133.464, 15319.72
1133.947, 15455.74
1134.429, 15599.78
1134.911, 15720.88
1135.393, 15806.53
1135.875, 15898.68
1136.357, 15990.39
1136.839, 16104.42
1137.321, 16263.17
1137.803, 16417.16
1138.286, 16532.18
1138.768, 16635.33
1139.250, 16770.99
1139.732, 16932.83
1140.214, 17058.71
1140.696, 17140.34
1141.178, 17264.36
1141.660, 17443.03
1142.142, 17582.76
1142.625, 17649.89
1143.107, 17730.71
1143.589, 17896.02
1144.071, 18094.83
1144.553, 18233.95
1145.035, 18336.19
1145.517, 18471.08
1145.999, 18628.79
1146.482, 18778.52
1146.964, 18917.28
1147.446, 19050.79
1147.928, 19182.68
1148.410, 19336.46
1148.892, 19545.54
1149.374, 19756.08
1149.856, 19910.50
1150.339, 20049.84
1150.821, 20216.65
1151.303, 20394.46
1151.785, 20555.61
1152.267, 20700.46
1152.749, 20851.58
1153.231, 21015.57
1153.713, 21179.08
1154.195, 21327.00
1154.677, 21493.06
1155.160, 21711.12
1155.642, 21924.15
1156.124, 22091.85
1156.606, 22238.50
1157.088, 22397.78
1157.570, 22568.24
1158.052, 22730.11
1158.534, 22875.04
1159.017, 23052.47
1159.499, 23269.62
1159.981, 23486.44
1160.463, 23692.49
1160.945, 23882.51
1161.427, 24051.81
1161.909, 24218.77
1162.391, 24418.93
1162.874, 24642.83
1163.356, 24872.38
1163.838, 25097.32
1164.320, 25272.06
1164.802, 25402.21
1165.284, 25513.14
1165.766, 25622.31
1166.248, 25791.96
1166.730, 26084.47
1167.213, 26396.99
1167.695, 26653.04
1168.177, 26882.72
1168.659, 27101.02
1169.141, 27315.84
1169.623, 27536.53
1170.105, 27761.67
1170.587, 27984.77
1171.069, 28205.02
1171.552, 28423.13
1172.034, 28629.90
1172.516, 28850.42
1172.998, 29091.43
1173.480, 29345.68
1173.962, 29632.35
1174.444, 29896.98
1174.926, 30070.09
1175.409, 30185.25
1175.891, 30357.61
1176.373, 30591.09
1176.855, 30821.18
1177.337, 31047.80
1177.819, 31329.05
1178.301, 31673.42
1178.783, 31955.70
1179.266, 32115.15
1179.748, 32253.42
1180.230, 32472.42
1180.712, 32740.16
1181.194, 33016.69
1181.676, 33296.19
1182.158, 33559.70
1182.640, 33816.75
1183.122, 34085.68
1183.604, 34370.45
1184.087, 34671.94
1184.569, 34993.24
1185.051, 35304.20
1185.533, 35583.25
1186.015, 35859.24
1186.497, 36134.77
1186.979, 36423.41
1187.461, 36751.40
1187.944, 37087.43
1188.426, 37386.97
1188.908, 37656.59
1189.390, 37923.62
1189.872, 38176.96
1190.354, 38475.14
1190.836, 38831.21
1191.318, 39174.80
1191.801, 39486.05
1192.283, 39803.88
1192.765, 40147.62
1193.247, 40521.88
##END=



