##NAMES=Mimetite
##RRUFFID=R130731
##IDEAL CHEMISTRY=Pb^2+^_5_(As^5+^O_4_)_3_Cl
##LOCALITY=Tsumeb mine, Tsumeb, Otavi District, Oshikoto, Namibia
##OWNER=RRUFF
##SOURCE=Bob Downs
##DESCRIPTION=Pale yellow transparent hexagonal prisms, monoclinic polytype
##STATUS=The identification of this mineral has been confirmed by single-crystal X-ray diffraction.
##URL=rruff.info/R130731
121.0409, 3192.173
121.5230, 3318.552
122.0051, 3452.176
122.4873, 3591.796
122.9694, 3740.338
123.4515, 3896.148
123.9336, 4044.604
124.4157, 4179.117
124.8979, 4298.947
125.3800, 4403.053
125.8621, 4496.341
126.3442, 4571.390
126.8263, 4614.608
127.3084, 4624.969
127.7905, 4616.991
128.2727, 4601.906
128.7548, 4579.662
129.2369, 4550.043
129.7190, 4508.269
130.2011, 4458.676
130.6832, 4412.151
131.1654, 4367.472
131.6475, 4330.223
132.1296, 4309.368
132.6117, 4304.505
133.0938, 4308.394
133.5759, 4313.828
134.0581, 4321.876
134.5402, 4347.622
135.0223, 4393.572
135.5044, 4457.216
135.9865, 4534.311
136.4686, 4626.467
136.9508, 4722.180
137.4329, 4812.488
137.9150, 4895.410
138.3971, 4981.938
138.8792, 5074.974
139.3613, 5173.390
139.8434, 5271.367
140.3256, 5370.746
140.8077, 5468.299
141.2898, 5563.722
141.7719, 5658.661
142.2540, 5745.452
142.7361, 5821.404
143.2183, 5886.879
143.7004, 5944.719
144.1825, 5994.318
144.6646, 6036.589
145.1467, 6071.784
145.6288, 6099.437
146.1110, 6120.560
146.5931, 6135.044
147.0752, 6142.000
147.5573, 6144.019
148.0394, 6140.565
148.5215, 6132.021
149.0037, 6119.156
149.4858, 6101.974
149.9679, 6080.609
150.4500, 6054.547
150.9321, 6014.925
151.4142, 5983.271
151.8964, 5959.059
152.3785, 5943.093
152.8606, 5937.835
153.3427, 5947.979
153.8248, 5966.370
154.3069, 5989.354
154.7890, 6026.679
155.2712, 6058.792
155.7533, 6078.236
156.2354, 6086.752
156.7175, 6103.303
157.1996, 6124.106
157.6817, 6158.138
158.1639, 6212.343
158.6460, 6316.624
159.1281, 6414.877
159.6102, 6486.854
160.0923, 6530.739
160.5744, 6570.219
161.0566, 6607.306
161.5387, 6645.374
162.0208, 6688.300
162.5029, 6734.621
162.9850, 6787.663
163.4671, 6852.787
163.9493, 6932.369
164.4314, 7007.459
164.9135, 7064.365
165.3956, 7111.122
165.8777, 7161.011
166.3598, 7229.366
166.8420, 7297.549
167.3241, 7351.277
167.8062, 7386.372
168.2883, 7415.409
168.7704, 7449.260
169.2525, 7484.381
169.7346, 7511.742
170.2168, 7531.246
170.6989, 7538.598
171.1810, 7527.166
171.6631, 7489.520
172.1452, 7444.530
172.6273, 7408.247
173.1095, 7378.763
173.5916, 7346.686
174.0737, 7308.126
174.5558, 7262.503
175.0379, 7208.951
175.5201, 7143.395
176.0022, 7073.103
176.4843, 7004.845
176.9664, 6939.123
177.4485, 6878.339
177.9306, 6828.647
178.4128, 6785.649
178.8949, 6738.272
179.3770, 6676.916
179.8591, 6612.813
180.3412, 6566.300
180.8233, 6537.103
181.3055, 6511.067
181.7876, 6480.927
182.2697, 6444.415
182.7518, 6392.322
183.2339, 6308.776
183.7160, 6209.149
184.1982, 6133.539
184.6803, 6083.745
185.1624, 6044.060
185.6445, 5998.383
186.1266, 5947.718
186.6087, 5895.603
187.0908, 5846.936
187.5730, 5798.688
188.0551, 5739.173
188.5372, 5665.182
189.0193, 5587.966
189.5014, 5521.968
189.9835, 5466.233
190.4657, 5412.613
190.9478, 5357.101
191.4299, 5299.781
191.9120, 5245.716
192.3941, 5196.639
192.8762, 5147.745
193.3584, 5091.474
193.8405, 5028.115
194.3226, 4958.505
194.8047, 4878.305
195.2868, 4788.452
195.7689, 4714.305
196.2511, 4662.321
196.7332, 4620.059
197.2153, 4555.021
197.6974, 4463.031
198.1795, 4375.734
198.6616, 4321.232
199.1438, 4301.596
199.6259, 4259.392
200.1080, 4181.433
200.5901, 4081.431
201.0722, 4003.570
201.5543, 3951.067
202.0364, 3905.616
202.5186, 3853.024
203.0007, 3791.423
203.4828, 3737.346
203.9649, 3694.718
204.4470, 3660.647
204.9291, 3624.098
205.4113, 3584.556
205.8934, 3543.017
206.3755, 3497.666
206.8576, 3445.668
207.3397, 3404.736
207.8218, 3382.421
208.3040, 3374.892
208.7861, 3352.028
209.2682, 3308.405
209.7503, 3261.143
210.2324, 3227.282
210.7145, 3212.139
211.1967, 3193.067
211.6788, 3167.209
212.1609, 3134.487
212.6430, 3087.779
213.1251, 3017.053
213.6072, 2948.646
214.0894, 2912.267
214.5715, 2921.334
215.0536, 2924.262
215.5357, 2907.605
216.0178, 2870.859
216.4999, 2839.850
216.9820, 2816.914
217.4642, 2796.994
217.9463, 2774.790
218.4284, 2751.133
218.9105, 2723.170
219.3926, 2688.027
219.8747, 2644.888
220.3569, 2608.923
220.8390, 2582.588
221.3211, 2561.115
221.8032, 2537.704
222.2853, 2511.269
222.7674, 2485.756
223.2496, 2462.105
223.7317, 2439.905
224.2138, 2421.750
224.6959, 2408.744
225.1780, 2398.853
225.6601, 2389.858
226.1423, 2385.527
226.6244, 2374.985
227.1065, 2353.152
227.5886, 2316.004
228.0707, 2285.786
228.5528, 2263.648
229.0350, 2247.225
229.5171, 2233.769
229.9992, 2226.007
230.4813, 2215.893
230.9634, 2200.004
231.4455, 2175.592
231.9276, 2155.623
232.4098, 2142.038
232.8919, 2131.694
233.3740, 2118.838
233.8561, 2098.131
234.3382, 2083.931
234.8203, 2084.618
235.3025, 2110.410
235.7846, 2114.875
236.2667, 2087.995
236.7488, 2044.882
237.2309, 2013.923
237.7130, 2001.202
238.1952, 1991.479
238.6773, 1979.197
239.1594, 1961.853
239.6415, 1949.948
240.1236, 1944.992
240.6057, 1944.754
241.0879, 1945.757
241.5700, 1952.348
242.0521, 1953.308
242.5342, 1942.367
243.0163, 1911.272
243.4984, 1892.670
243.9806, 1892.947
244.4627, 1902.948
244.9448, 1903.786
245.4269, 1890.749
245.9090, 1875.552
246.3911, 1862.061
246.8732, 1850.347
247.3554, 1840.084
247.8375, 1832.096
248.3196, 1825.140
248.8017, 1816.180
249.2838, 1802.672
249.7659, 1791.481
250.2481, 1786.454
250.7302, 1792.545
251.2123, 1790.057
251.6944, 1773.815
252.1765, 1751.665
252.6586, 1740.276
253.1408, 1746.644
253.6229, 1751.994
254.1050, 1747.785
254.5871, 1728.576
255.0692, 1717.817
255.5513, 1719.391
256.0334, 1727.395
256.5156, 1729.803
256.9977, 1724.947
257.4798, 1717.406
257.9619, 1708.066
258.4440, 1694.960
258.9261, 1686.213
259.4083, 1682.132
259.8904, 1682.037
260.3725, 1685.317
260.8546, 1694.086
261.3367, 1701.842
261.8188, 1705.984
262.3010, 1705.952
262.7831, 1704.394
263.2652, 1701.235
263.7473, 1696.554
264.2294, 1689.349
264.7115, 1677.075
265.1937, 1668.545
265.6758, 1669.676
266.1579, 1683.999
266.6400, 1688.226
267.1221, 1678.364
267.6042, 1662.242
268.0864, 1654.942
268.5685, 1659.594
269.0506, 1663.964
269.5327, 1661.705
270.0148, 1650.782
270.4969, 1649.229
270.9791, 1661.085
271.4612, 1677.296
271.9433, 1681.367
272.4254, 1670.282
272.9075, 1658.689
273.3896, 1651.033
273.8718, 1647.206
274.3539, 1650.677
274.8360, 1663.691
275.3181, 1680.535
275.8002, 1692.344
276.2823, 1698.302
276.7645, 1703.488
277.2466, 1710.159
277.7287, 1718.331
278.2108, 1723.918
278.6929, 1726.246
279.1750, 1727.462
279.6572, 1729.575
280.1393, 1732.288
280.6214, 1738.719
281.1035, 1751.484
281.5856, 1769.885
282.0677, 1785.352
282.5499, 1797.432
283.0320, 1807.883
283.5141, 1817.752
283.9962, 1826.955
284.4783, 1839.249
284.9604, 1856.674
285.4425, 1878.602
285.9247, 1900.685
286.4068, 1922.812
286.8889, 1945.284
287.3710, 1966.346
287.8531, 1986.480
288.3352, 2012.911
288.8174, 2048.955
289.2995, 2092.959
289.7816, 2139.859
290.2637, 2188.839
290.7458, 2240.389
291.2279, 2294.608
291.7101, 2351.460
292.1922, 2410.660
292.6743, 2468.731
293.1564, 2530.116
293.6385, 2604.736
294.1206, 2692.387
294.6028, 2790.839
295.0849, 2899.607
295.5670, 3018.416
296.0491, 3147.277
296.5312, 3287.282
297.0133, 3434.924
297.4955, 3581.843
297.9776, 3726.324
298.4597, 3880.890
298.9418, 4056.103
299.4239, 4247.177
299.9060, 4443.243
300.3882, 4642.106
300.8703, 4841.860
301.3524, 5043.453
301.8345, 5244.324
302.3166, 5426.935
302.7987, 5579.666
303.2809, 5706.502
303.7630, 5818.220
304.2451, 5919.095
304.7272, 5998.861
305.2093, 6033.743
305.6914, 6032.944
306.1736, 6031.757
306.6557, 6043.793
307.1378, 6070.546
307.6199, 6116.466
308.1020, 6189.151
308.5841, 6266.181
309.0663, 6319.249
309.5484, 6361.754
310.0305, 6426.623
310.5126, 6554.648
310.9947, 6700.101
311.4768, 6826.092
311.9590, 6928.610
312.4411, 7006.274
312.9232, 7059.636
313.4053, 7086.707
313.8874, 7083.275
314.3695, 7036.297
314.8517, 6966.808
315.3337, 6889.799
315.8159, 6809.549
316.2980, 6707.407
316.7801, 6564.132
317.2622, 6395.808
317.7443, 6223.605
318.2264, 6050.407
318.7086, 5880.747
319.1907, 5712.001
319.6728, 5541.922
320.1549, 5394.070
320.6370, 5279.224
321.1191, 5188.436
321.6013, 5112.186
322.0834, 5048.733
322.5655, 5000.075
323.0476, 4966.914
323.5297, 4949.224
324.0118, 4945.897
324.4940, 4953.635
324.9761, 4977.259
325.4582, 5020.468
325.9403, 5086.452
326.4224, 5169.006
326.9045, 5268.973
327.3867, 5385.968
327.8688, 5515.161
328.3509, 5670.969
328.8330, 5828.499
329.3151, 5974.857
329.7972, 6085.950
330.2794, 6219.912
330.7615, 6392.925
331.2436, 6594.659
331.7257, 6776.370
332.2078, 6929.889
332.6899, 7074.958
333.1721, 7222.784
333.6542, 7382.878
334.1363, 7523.029
334.6184, 7642.688
335.1005, 7743.130
335.5826, 7832.258
336.0648, 7918.567
336.5469, 7976.597
337.0290, 7992.395
337.5111, 7957.937
337.9932, 7919.323
338.4753, 7877.963
338.9575, 7830.476
339.4396, 7772.564
339.9217, 7704.917
340.4038, 7621.887
340.8859, 7519.790
341.3680, 7399.748
341.8502, 7264.962
342.3323, 7116.300
342.8144, 6958.015
343.2965, 6800.609
343.7786, 6643.031
344.2607, 6472.053
344.7429, 6272.426
345.2250, 6057.589
345.7071, 5878.468
346.1892, 5735.620
346.6713, 5603.195
347.1534, 5454.895
347.6355, 5293.599
348.1176, 5130.185
348.5998, 4960.898
349.0819, 4795.047
349.5640, 4653.378
350.0461, 4532.269
350.5282, 4412.702
351.0103, 4271.548
351.4925, 4122.235
351.9746, 3991.261
352.4567, 3888.310
352.9388, 3795.529
353.4209, 3691.881
353.9030, 3581.318
354.3852, 3476.890
354.8673, 3384.330
355.3494, 3302.777
355.8315, 3232.792
356.3136, 3175.958
356.7957, 3124.284
357.2779, 3072.717
357.7600, 3022.571
358.2421, 2976.908
358.7242, 2937.164
359.2063, 2901.685
359.6884, 2868.234
360.1706, 2836.453
360.6527, 2811.914
361.1348, 2798.288
361.6169, 2792.799
362.0990, 2792.551
362.5811, 2797.254
363.0633, 2806.308
363.5454, 2818.669
364.0275, 2834.576
364.5096, 2857.016
364.9917, 2882.091
365.4738, 2916.795
365.9560, 2965.879
366.4381, 3041.373
366.9202, 3117.709
367.4023, 3189.309
367.8844, 3259.210
368.3665, 3338.987
368.8487, 3443.375
369.3308, 3546.448
369.8129, 3638.946
370.2950, 3726.104
370.7771, 3792.222
371.2592, 3841.740
371.7414, 3868.393
372.2235, 3859.836
372.7056, 3803.177
373.1877, 3731.853
373.6698, 3655.876
374.1519, 3576.282
374.6341, 3483.135
375.1162, 3371.101
375.5983, 3254.217
376.0804, 3147.499
376.5625, 3052.052
377.0446, 2966.327
377.5267, 2892.783
378.0089, 2829.180
378.4910, 2764.920
378.9731, 2699.141
379.4552, 2637.727
379.9373, 2584.477
380.4194, 2539.250
380.9016, 2509.339
381.3837, 2499.441
381.8658, 2500.237
382.3479, 2490.952
382.8300, 2472.467
383.3121, 2457.701
383.7943, 2456.286
384.2764, 2464.828
384.7585, 2472.685
385.2406, 2476.933
385.7227, 2488.454
386.2048, 2528.534
386.6870, 2586.979
387.1691, 2636.337
387.6512, 2661.627
388.1333, 2670.975
388.6154, 2671.646
389.0975, 2663.704
389.5797, 2651.037
390.0618, 2634.730
390.5439, 2615.938
391.0260, 2596.471
391.5081, 2578.499
391.9902, 2558.764
392.4724, 2531.815
392.9545, 2499.939
393.4366, 2474.616
393.9187, 2463.066
394.4008, 2458.552
394.8829, 2455.196
395.3651, 2443.701
395.8472, 2447.485
396.3293, 2481.237
396.8114, 2534.078
397.2935, 2582.556
397.7756, 2612.124
398.2578, 2646.056
398.7399, 2692.757
399.2220, 2754.972
399.7041, 2822.270
400.1862, 2895.146
400.6683, 2972.623
401.1505, 3053.415
401.6326, 3135.455
402.1147, 3224.517
402.5968, 3324.354
403.0789, 3434.317
403.5610, 3539.251
404.0432, 3631.995
404.5253, 3731.513
405.0074, 3856.324
405.4895, 4015.314
405.9716, 4163.322
406.4537, 4297.091
406.9359, 4415.619
407.4180, 4516.866
407.9001, 4602.090
408.3822, 4661.982
408.8643, 4692.830
409.3464, 4694.747
409.8285, 4667.860
410.3106, 4611.340
410.7928, 4529.437
411.2749, 4414.502
411.7570, 4272.901
412.2391, 4139.312
412.7212, 4029.292
413.2033, 3932.884
413.6855, 3831.728
414.1676, 3726.963
414.6497, 3631.019
415.1318, 3549.384
415.6139, 3484.664
416.0960, 3442.948
416.5782, 3428.587
417.0603, 3431.912
417.5424, 3449.686
418.0245, 3479.830
418.5066, 3516.203
418.9887, 3558.577
419.4709, 3604.483
419.9530, 3653.443
420.4351, 3705.546
420.9172, 3758.296
421.3993, 3821.221
421.8814, 3880.903
422.3636, 3920.114
422.8457, 3933.547
423.3278, 3928.095
423.8099, 3900.774
424.2920, 3851.038
424.7741, 3800.081
425.2563, 3763.288
425.7384, 3714.684
426.2205, 3638.072
426.7026, 3515.457
427.1847, 3395.782
427.6668, 3283.010
428.1490, 3174.956
428.6311, 3065.353
429.1132, 2950.494
429.5953, 2839.076
430.0774, 2735.403
430.5595, 2639.478
431.0417, 2549.377
431.5238, 2465.900
432.0059, 2387.769
432.4880, 2311.626
432.9701, 2237.441
433.4522, 2174.443
433.9344, 2127.507
434.4165, 2092.173
434.8986, 2053.230
435.3807, 2010.757
435.8628, 1972.177
436.3449, 1944.264
436.8271, 1924.570
437.3092, 1908.658
437.7913, 1897.838
438.2734, 1885.382
438.7555, 1864.734
439.2376, 1836.896
439.7197, 1804.488
440.2018, 1764.431
440.6840, 1723.190
441.1661, 1685.951
441.6482, 1653.490
442.1303, 1622.900
442.6124, 1593.029
443.0945, 1564.078
443.5767, 1536.619
444.0588, 1508.689
444.5409, 1484.170
445.0230, 1467.840
445.5051, 1457.176
445.9872, 1440.094
446.4694, 1406.981
446.9515, 1373.408
447.4336, 1346.267
447.9157, 1327.670
448.3978, 1311.216
448.8799, 1298.076
449.3621, 1286.561
449.8442, 1274.418
450.3263, 1261.399
450.8084, 1248.322
451.2905, 1234.907
451.7726, 1221.415
452.2548, 1209.997
452.7369, 1200.607
453.2190, 1193.317
453.7011, 1190.571
454.1832, 1192.369
454.6653, 1184.015
455.1475, 1158.245
455.6296, 1130.769
456.1117, 1134.583
456.5938, 1166.436
457.0759, 1197.398
457.5580, 1219.778
458.0402, 1228.562
458.5223, 1205.645
459.0044, 1148.717
459.4865, 1094.399
459.9686, 1077.059
460.4507, 1081.755
460.9329, 1084.863
461.4150, 1075.968
461.8971, 1066.062
462.3792, 1063.456
462.8613, 1066.128
463.3434, 1066.582
463.8256, 1059.652
464.3077, 1050.945
464.7898, 1043.246
465.2719, 1036.422
465.7540, 1032.280
466.2361, 1034.334
466.7183, 1038.167
467.2004, 1038.159
467.6825, 1032.465
468.1646, 1024.501
468.6467, 1012.953
469.1288, 998.2480
469.6110, 988.4416
470.0930, 984.4219
470.5752, 983.7933
471.0573, 986.4034
471.5394, 994.1732
472.0215, 996.1085
472.5036, 990.0328
472.9857, 980.0843
473.4679, 973.2942
473.9500, 969.7896
474.4321, 967.6788
474.9142, 966.2524
475.3963, 965.6700
475.8784, 967.2740
476.3606, 971.1664
476.8427, 974.1755
477.3248, 972.5621
477.8069, 968.1951
478.2890, 965.1785
478.7711, 965.5540
479.2533, 965.1647
479.7354, 958.7458
480.2175, 948.4017
480.6996, 939.2819
481.1817, 934.4232
481.6638, 931.3130
482.1460, 928.0150
482.6281, 924.2336
483.1102, 922.4844
483.5923, 928.1997
484.0744, 933.9271
484.5565, 933.2717
485.0387, 914.9474
485.5208, 901.9363
486.0029, 899.8381
486.4850, 905.2468
486.9671, 908.0308
487.4492, 907.4979
487.9314, 905.2438
488.4135, 901.4879
488.8956, 895.9293
489.3777, 890.7935
489.8598, 885.3195
490.3419, 881.6149
490.8241, 883.4639
491.3062, 891.5844
491.7883, 896.0074
492.2704, 893.6494
492.7525, 887.3964
493.2346, 883.0507
493.7168, 880.7240
494.1989, 881.2092
494.6810, 889.1772
495.1631, 899.4221
495.6452, 900.6000
496.1273, 891.1245
496.6095, 879.2801
497.0916, 870.1913
497.5737, 864.1892
498.0558, 861.8655
498.5379, 867.5365
499.0201, 872.9993
499.5022, 873.7555
499.9843, 870.4838
500.4664, 865.7673
500.9485, 856.0040
501.4306, 848.6302
501.9127, 848.6935
502.3948, 860.7202
502.8770, 868.7377
503.3591, 869.4977
503.8412, 866.6425
504.3233, 863.8029
504.8054, 860.8869
505.2875, 858.1306
505.7697, 855.6161
506.2518, 853.2402
506.7339, 850.8035
507.2160, 848.4904
507.6981, 845.4694
508.1802, 840.3464
508.6624, 833.3103
509.1445, 829.7133
509.6266, 830.3241
510.1087, 831.9478
510.5908, 830.9763
511.0729, 827.7681
511.5551, 823.2269
512.0372, 814.6486
512.5193, 807.9885
513.0014, 814.5980
513.4835, 831.3398
513.9656, 844.4289
514.4478, 842.3980
514.9299, 835.2863
515.4120, 832.0721
515.8941, 835.1360
516.3762, 835.8123
516.8583, 827.1692
517.3405, 815.6140
517.8226, 808.1474
518.3047, 808.4914
518.7868, 810.3843
519.2689, 814.9669
519.7510, 820.8883
520.2332, 821.1631
520.7153, 810.2915
521.1974, 801.5726
521.6795, 802.2927
522.1616, 815.2235
522.6437, 819.7886
523.1259, 813.6086
523.6080, 803.8689
524.0901, 798.2113
524.5722, 796.6458
525.0543, 798.0248
525.5364, 804.2530
526.0186, 810.5176
526.5007, 803.7006
526.9828, 786.1020
527.4649, 772.7851
527.9470, 778.4035
528.4291, 791.0891
528.9113, 793.2945
529.3934, 783.3973
529.8755, 775.1266
530.3576, 779.9423
530.8397, 790.3359
531.3218, 798.3068
531.8040, 802.6525
532.2861, 802.8262
532.7682, 795.5117
533.2503, 783.7051
533.7324, 775.2968
534.2145, 771.7246
534.6967, 771.4492
535.1788, 775.3026
535.6609, 784.1213
536.1430, 788.6061
536.6251, 786.0555
537.1072, 782.8671
537.5894, 785.6993
538.0715, 796.5018
538.5536, 800.2285
539.0357, 793.3183
539.5178, 781.8028
539.9999, 775.4310
540.4821, 774.2349
540.9642, 777.3524
541.4463, 789.1657
541.9284, 803.2377
542.4105, 805.3677
542.8926, 796.3459
543.3748, 786.0973
543.8569, 780.6887
544.3390, 778.6479
544.8211, 778.6215
545.3032, 781.0117
545.7853, 783.4125
546.2675, 785.2534
546.7495, 786.1995
547.2316, 785.7745
547.7137, 782.1026
548.1959, 778.9352
548.6780, 776.0097
549.1601, 773.7885
549.6422, 776.3124
550.1243, 787.7366
550.6064, 798.6368
551.0886, 804.8058
551.5707, 805.8809
552.0528, 803.2896
552.5349, 795.6364
553.0170, 787.2963
553.4991, 783.9642
553.9813, 785.4618
554.4634, 786.8780
554.9455, 787.1278
555.4276, 786.6132
555.9097, 785.0357
556.3918, 782.9498
556.8740, 782.9416
557.3561, 788.1084
557.8382, 795.1979
558.3203, 802.0033
558.8024, 808.4077
559.2845, 810.7183
559.7667, 802.7625
560.2488, 792.1161
560.7309, 785.4841
561.2130, 787.7725
561.6951, 788.7635
562.1772, 784.2559
562.6594, 777.5975
563.1415, 775.4153
563.6236, 781.5980
564.1057, 786.5867
564.5878, 787.8101
565.0699, 785.6908
565.5521, 784.7045
566.0342, 784.9824
566.5163, 785.9863
566.9984, 787.5863
567.4805, 789.7233
567.9626, 791.8944
568.4448, 794.2540
568.9269, 795.8657
569.4090, 795.1661
569.8911, 792.8500
570.3732, 790.6422
570.8553, 788.5834
571.3375, 787.5526
571.8196, 789.9177
572.3017, 794.2358
572.7838, 796.2532
573.2659, 789.1870
573.7480, 783.3640
574.2302, 786.3691
574.7123, 800.0889
575.1944, 808.5251
575.6765, 805.6757
576.1586, 798.9119
576.6407, 792.7922
577.1229, 786.0491
577.6050, 782.6343
578.0871, 783.7987
578.5692, 787.3317
579.0513, 789.0800
579.5334, 788.6196
580.0156, 789.6103
580.4977, 794.0419
580.9798, 800.2444
581.4619, 802.5739
581.9440, 801.3207
582.4261, 800.8782
582.9083, 806.4078
583.3904, 813.8038
583.8725, 817.0821
584.3546, 815.5823
584.8367, 811.2153
585.3188, 801.4073
585.8010, 790.9827
586.2831, 785.2442
586.7652, 788.4741
587.2473, 792.9008
587.7294, 796.8890
588.2115, 800.6896
588.6937, 805.0430
589.1758, 812.5121
589.6579, 817.1031
590.1400, 816.4171
590.6221, 810.8385
591.1042, 806.9246
591.5864, 804.6710
592.0685, 804.2005
592.5506, 806.0786
593.0327, 810.1434
593.5148, 814.5784
593.9969, 819.5243
594.4791, 823.7085
594.9612, 825.8562
595.4433, 826.1532
595.9254, 824.5540
596.4075, 818.5875
596.8896, 814.3320
597.3718, 819.1157
597.8539, 829.7173
598.3360, 838.1920
598.8181, 838.6980
599.3002, 838.7462
599.7823, 842.6221
600.2645, 850.7604
600.7466, 855.6208
601.2287, 851.6698
601.7108, 848.9944
602.1929, 854.2439
602.6750, 872.8089
603.1572, 882.3527
603.6393, 880.8392
604.1214, 873.8810
604.6035, 866.8151
605.0856, 859.6968
605.5677, 857.9102
606.0499, 864.5367
606.5320, 874.4825
607.0141, 879.9767
607.4962, 881.3582
607.9783, 880.0188
608.4604, 872.9210
608.9425, 865.9830
609.4246, 865.0346
609.9067, 870.0364
610.3889, 876.5283
610.8710, 884.7545
611.3531, 892.2331
611.8352, 897.5067
612.3173, 901.0281
612.7994, 900.7840
613.2816, 892.6010
613.7637, 883.5244
614.2458, 882.6848
614.7279, 894.7713
615.2100, 900.2102
615.6921, 894.1429
616.1743, 881.5131
616.6564, 873.3926
617.1385, 869.7834
617.6206, 870.5975
618.1027, 879.6765
618.5848, 891.7499
619.0670, 896.3237
619.5491, 893.8487
620.0312, 888.9062
620.5133, 881.8375
620.9954, 875.2669
621.4775, 871.6721
621.9597, 871.6660
622.4418, 873.4716
622.9239, 879.8953
623.4060, 886.1168
623.8881, 887.3615
624.3702, 878.7180
624.8524, 871.1997
625.3345, 865.3112
625.8166, 860.9040
626.2987, 857.9891
626.7808, 856.9169
627.2629, 855.7916
627.7451, 853.9722
628.2272, 851.6549
628.7093, 849.4670
629.1914, 847.4152
629.6735, 845.4915
630.1556, 843.4099
630.6378, 841.6176
631.1199, 841.3024
631.6020, 842.6538
632.0841, 843.1774
632.5662, 838.8277
633.0483, 834.1554
633.5305, 833.8881
634.0126, 843.7877
634.4947, 850.2929
634.9768, 847.9557
635.4589, 841.7512
635.9410, 839.3769
636.4232, 843.6510
636.9053, 846.1364
637.3874, 844.9887
637.8695, 841.0568
638.3516, 836.2877
638.8337, 830.2871
639.3159, 827.2390
639.7980, 831.5544
640.2801, 840.2044
640.7622, 844.4838
641.2443, 844.5411
641.7264, 842.7310
642.2086, 838.0880
642.6907, 833.9371
643.1728, 835.2669
643.6549, 844.7904
644.1370, 851.2175
644.6191, 846.9655
645.1013, 838.7054
645.5834, 833.3907
646.0655, 835.0524
646.5476, 835.4545
647.0297, 832.7270
647.5118, 829.1716
647.9940, 829.6426
648.4761, 834.6331
648.9582, 842.0858
649.4403, 853.7816
649.9224, 866.3336
650.4045, 867.3383
650.8867, 857.4896
651.3688, 847.8889
651.8509, 846.6309
652.3330, 849.3572
652.8151, 849.8729
653.2972, 847.8977
653.7794, 846.7170
654.2615, 849.4299
654.7436, 853.0560
655.2257, 855.1829
655.7078, 854.9968
656.1899, 854.3141
656.6721, 851.9276
657.1542, 849.9914
657.6363, 851.2650
658.1184, 857.8135
658.6005, 861.7121
659.0826, 861.3606
659.5648, 858.3038
660.0469, 854.9310
660.5290, 851.3195
661.0111, 850.1018
661.4932, 853.7417
661.9753, 859.4250
662.4575, 861.6409
662.9396, 861.3104
663.4217, 863.0057
663.9038, 874.4977
664.3859, 885.3430
664.8680, 885.7683
665.3502, 874.3249
665.8323, 866.3397
666.3144, 870.7353
666.7965, 875.8888
667.2786, 873.4899
667.7607, 855.8927
668.2429, 851.0318
668.7250, 864.4709
669.2071, 882.5577
669.6892, 888.4399
670.1713, 882.2356
670.6534, 875.6318
671.1355, 869.7260
671.6176, 866.6866
672.0997, 871.7526
672.5818, 882.5518
673.0640, 892.6582
673.5461, 901.7126
674.0282, 906.9655
674.5103, 903.1743
674.9924, 893.3550
675.4745, 888.3709
675.9567, 898.1107
676.4388, 907.2936
676.9209, 908.9261
677.4030, 902.9189
677.8851, 899.0065
678.3672, 897.2656
678.8494, 897.5240
679.3315, 900.3438
679.8136, 905.6963
680.2957, 909.7435
680.7778, 912.0839
681.2599, 914.4175
681.7421, 919.1209
682.2242, 924.9604
682.7063, 928.8063
683.1884, 929.1519
683.6705, 930.1899
684.1526, 936.3130
684.6348, 944.5487
685.1169, 950.9343
685.5990, 953.3508
686.0811, 954.9236
686.5632, 955.8577
687.0453, 956.4680
687.5275, 957.5996
688.0096, 960.0379
688.4917, 961.0226
688.9738, 958.6507
689.4559, 954.5555
689.9380, 955.7917
690.4202, 962.3107
690.9023, 970.6599
691.3844, 980.4062
691.8665, 989.8342
692.3486, 995.6210
692.8307, 997.8944
693.3129, 1000.073
693.7950, 1002.774
694.2771, 1007.215
694.7592, 1015.368
695.2413, 1029.801
695.7234, 1039.846
696.2056, 1039.777
696.6877, 1037.680
697.1698, 1039.933
697.6519, 1048.427
698.1340, 1054.987
698.6161, 1058.635
699.0983, 1061.185
699.5804, 1066.247
700.0625, 1073.084
700.5446, 1076.173
701.0267, 1071.637
701.5089, 1067.221
701.9910, 1075.239
702.4731, 1090.425
702.9552, 1100.707
703.4373, 1093.559
703.9194, 1087.538
704.4016, 1091.401
704.8837, 1103.831
705.3658, 1116.977
705.8479, 1132.499
706.3300, 1145.546
706.8121, 1154.468
707.2943, 1159.432
707.7764, 1161.976
708.2585, 1161.233
708.7406, 1163.034
709.2227, 1175.906
709.7048, 1194.291
710.1870, 1197.438
710.6691, 1184.001
711.1512, 1175.435
711.6333, 1195.635
712.1154, 1225.215
712.5975, 1242.732
713.0797, 1240.313
713.5618, 1239.885
714.0439, 1249.271
714.5260, 1262.812
715.0081, 1275.031
715.4902, 1285.035
715.9724, 1295.174
716.4545, 1306.008
716.9366, 1316.307
717.4187, 1322.388
717.9008, 1324.613
718.3829, 1331.306
718.8651, 1346.530
719.3472, 1364.118
719.8293, 1375.499
720.3114, 1382.598
720.7935, 1390.694
721.2756, 1402.237
721.7578, 1415.312
722.2399, 1429.587
722.7220, 1444.792
723.2041, 1458.966
723.6862, 1474.522
724.1683, 1485.695
724.6505, 1488.085
725.1326, 1483.031
725.6147, 1488.540
726.0968, 1506.495
726.5789, 1525.835
727.0610, 1540.916
727.5432, 1552.002
728.0253, 1557.453
728.5074, 1557.528
728.9895, 1561.349
729.4716, 1579.870
729.9537, 1603.217
730.4359, 1620.962
730.9180, 1630.613
731.4001, 1641.156
731.8822, 1652.623
732.3643, 1667.904
732.8464, 1689.897
733.3285, 1724.677
733.8106, 1750.484
734.2927, 1763.738
734.7748, 1773.767
735.2570, 1793.339
735.7391, 1821.275
736.2212, 1846.689
736.7033, 1866.863
737.1854, 1885.787
737.6675, 1906.465
738.1497, 1929.437
738.6318, 1956.142
739.1139, 1991.180
739.5960, 2025.262
740.0781, 2053.799
740.5602, 2078.982
741.0424, 2106.073
741.5245, 2137.984
742.0066, 2167.394
742.4887, 2190.500
742.9708, 2210.721
743.4529, 2240.258
743.9351, 2279.387
744.4172, 2320.843
744.8993, 2359.998
745.3814, 2400.146
745.8635, 2447.503
746.3456, 2501.603
746.8278, 2560.061
747.3099, 2620.460
747.7920, 2684.767
748.2741, 2755.010
748.7562, 2831.489
749.2383, 2908.704
749.7205, 2983.844
750.2026, 3062.239
750.6847, 3146.109
751.1668, 3236.612
751.6489, 3320.911
752.1310, 3395.187
752.6132, 3485.860
753.0953, 3615.784
753.5774, 3778.934
754.0595, 3953.419
754.5416, 4139.881
755.0237, 4335.067
755.5059, 4533.331
755.9880, 4742.761
756.4701, 4973.800
756.9522, 5227.188
757.4343, 5500.760
757.9164, 5794.256
758.3986, 6106.415
758.8807, 6441.137
759.3628, 6796.738
759.8449, 7169.327
760.3270, 7555.257
760.8091, 7959.812
761.2913, 8411.689
761.7734, 8892.604
762.2555, 9357.236
762.7376, 9805.221
763.2197, 10220.55
763.7018, 10618.10
764.1840, 10966.41
764.6661, 11224.38
765.1482, 11372.63
765.6303, 11427.68
766.1124, 11383.73
766.5945, 11250.72
767.0767, 11032.73
767.5588, 10711.46
768.0409, 10358.04
768.5230, 9971.182
769.0051, 9580.102
769.4872, 9241.813
769.9694, 8947.787
770.4515, 8669.324
770.9336, 8386.468
771.4157, 8120.410
771.8978, 7887.613
772.3799, 7686.646
772.8621, 7517.050
773.3442, 7384.668
773.8263, 7275.748
774.3084, 7186.923
774.7905, 7117.693
775.2726, 7066.854
775.7548, 7032.048
776.2369, 7023.623
776.7190, 7045.669
777.2011, 7097.736
777.6832, 7173.708
778.1653, 7275.126
778.6475, 7413.738
779.1296, 7601.293
779.6117, 7826.324
780.0938, 8086.767
780.5759, 8376.394
781.0580, 8678.441
781.5402, 8996.250
782.0223, 9316.174
782.5044, 9629.691
782.9865, 9933.068
783.4686, 10264.71
783.9507, 10640.36
784.4329, 11000.22
784.9150, 11312.40
785.3971, 11583.84
785.8792, 11840.13
786.3613, 12082.64
786.8434, 12291.25
787.3256, 12446.26
787.8077, 12560.58
788.2898, 12635.83
788.7719, 12665.01
789.2540, 12712.57
789.7361, 12785.20
790.2183, 12889.09
790.7004, 13025.95
791.1825, 13196.82
791.6646, 13399.04
792.1467, 13629.51
792.6288, 13900.12
793.1110, 14220.95
793.5930, 14590.88
794.0751, 15009.57
794.5573, 15470.14
795.0394, 16016.71
795.5215, 16652.13
796.0036, 17392.52
796.4857, 18257.69
796.9678, 19240.42
797.4500, 20363.17
797.9321, 21620.23
798.4142, 23032.08
798.8963, 24584.51
799.3784, 26266.23
799.8605, 28273.74
800.3427, 30608.53
800.8248, 33336.68
801.3069, 36552.73
801.7890, 40244.77
802.2711, 44461.26
802.7532, 49305.72
803.2354, 54337.44
803.7175, 59996.91
804.1996, 65455.31
804.6817, 69870.83
805.1638, 73461.61
805.6459, 75316.01
806.1281, 75087.39
806.6102, 73489.94
807.0923, 71098.75
807.5744, 67896.09
808.0565, 65005.62
808.5386, 62549.13
809.0208, 60614.89
809.5029, 59394.06
809.9850, 58787.19
810.4671, 58649.98
810.9492, 59055.42
811.4313, 59681.43
811.9135, 60560.89
812.3956, 61518.51
812.8777, 62356.79
813.3598, 63287.92
813.8419, 63662.48
814.3240, 63453.52
814.8062, 62633.91
815.2883, 61118.54
815.7704, 58940.73
816.2525, 56187.26
816.7346, 52783.00
817.2167, 49088.38
817.6989, 45264.98
818.1810, 41451.46
818.6631, 37850.67
819.1452, 34426.34
819.6273, 31296.25
820.1094, 28534.20
820.5916, 26085.69
821.0737, 23927.81
821.5558, 22108.49
822.0379, 20456.93
822.5200, 18963.57
823.0021, 17627.54
823.4843, 16451.58
823.9664, 15425.72
824.4485, 14487.13
824.9306, 13612.73
825.4127, 12824.90
825.8948, 12159.68
826.3770, 11584.32
826.8591, 11042.10
827.3412, 10513.23
827.8233, 10042.31
828.3054, 9652.987
828.7875, 9309.112
829.2697, 8958.522
829.7518, 8596.406
830.2339, 8268.011
830.7160, 7979.599
831.1981, 7720.313
831.6802, 7480.905
832.1624, 7257.276
832.6445, 7046.454
833.1266, 6849.296
833.6087, 6661.718
834.0908, 6489.841
834.5729, 6324.847
835.0551, 6147.807
835.5372, 5943.959
836.0193, 5770.597
836.5014, 5639.965
836.9835, 5532.477
837.4656, 5420.801
837.9478, 5307.371
838.4299, 5198.432
838.9120, 5093.749
839.3941, 4996.033
839.8762, 4909.379
840.3583, 4830.174
840.8405, 4753.118
841.3226, 4685.425
841.8047, 4608.818
842.2868, 4516.093
842.7689, 4419.080
843.2510, 4335.250
843.7332, 4265.330
844.2153, 4199.114
844.6974, 4135.658
845.1795, 4072.803
845.6616, 4009.763
846.1437, 3945.537
846.6259, 3877.715
847.1080, 3801.189
847.5901, 3730.820
848.0722, 3674.010
848.5543, 3626.400
849.0364, 3583.832
849.5186, 3554.690
850.0007, 3506.219
850.4828, 3430.357
850.9649, 3347.968
851.4470, 3286.369
851.9291, 3241.732
852.4113, 3197.244
852.8934, 3149.578
853.3755, 3102.340
853.8576, 3060.871
854.3397, 3020.351
854.8218, 2974.266
855.3040, 2914.727
855.7860, 2862.938
856.2681, 2822.889
856.7502, 2788.403
857.2324, 2752.419
857.7145, 2714.923
858.1966, 2687.550
858.6787, 2672.948
859.1608, 2656.325
859.6429, 2617.547
860.1251, 2569.066
860.6072, 2527.053
861.0893, 2494.392
861.5714, 2467.176
862.0535, 2449.519
862.5356, 2432.309
863.0178, 2408.058
863.4999, 2374.724
863.9820, 2342.433
864.4641, 2310.394
864.9462, 2284.188
865.4283, 2276.151
865.9105, 2277.248
866.3926, 2261.215
866.8747, 2226.052
867.3568, 2191.398
867.8389, 2172.717
868.3210, 2158.492
868.8032, 2139.129
869.2853, 2111.458
869.7674, 2094.169
870.2495, 2094.744
870.7316, 2092.161
871.2137, 2069.291
871.6959, 2030.086
872.1780, 2009.670
872.6601, 2007.465
873.1422, 2006.701
873.6243, 1997.752
874.1064, 1982.905
874.5886, 1959.500
875.0707, 1928.514
875.5528, 1909.169
876.0349, 1919.817
876.5170, 1926.929
876.9991, 1916.037
877.4813, 1890.496
877.9634, 1883.947
878.4455, 1897.658
878.9276, 1904.114
879.4097, 1878.751
879.8918, 1842.408
880.3740, 1826.403
880.8561, 1825.922
881.3382, 1822.385
881.8203, 1805.719
882.3024, 1787.007
882.7845, 1767.302
883.2667, 1748.890
883.7488, 1740.593
884.2309, 1745.049
884.7130, 1746.713
885.1951, 1739.521
885.6772, 1728.136
886.1594, 1722.606
886.6415, 1720.300
887.1236, 1713.566
887.6057, 1690.526
888.0878, 1671.520
888.5699, 1671.809
889.0521, 1681.276
889.5342, 1679.453
890.0163, 1660.892
890.4984, 1643.000
890.9805, 1628.023
891.4626, 1614.553
891.9448, 1599.240
892.4269, 1583.299
892.9090, 1571.714
893.3911, 1568.111
893.8732, 1562.449
894.3553, 1544.557
894.8375, 1521.574
895.3196, 1502.180
895.8017, 1489.436
896.2838, 1477.583
896.7659, 1467.239
897.2480, 1456.721
897.7302, 1442.585
898.2123, 1426.040
898.6944, 1416.168
899.1765, 1414.853
899.6586, 1410.731
900.1407, 1388.362
900.6229, 1361.800
901.1050, 1347.330
901.5871, 1351.250
902.0692, 1346.244
902.5513, 1320.920
903.0334, 1297.127
903.5156, 1289.804
903.9977, 1298.432
904.4798, 1298.955
904.9619, 1291.297
905.4440, 1279.220
905.9261, 1262.201
906.4083, 1244.419
906.8904, 1230.844
907.3725, 1221.306
907.8546, 1210.680
908.3367, 1192.134
908.8188, 1178.541
909.3010, 1176.898
909.7831, 1183.985
910.2652, 1180.721
910.7473, 1166.735
911.2294, 1155.298
911.7115, 1154.691
912.1937, 1157.743
912.6758, 1154.258
913.1579, 1146.473
913.6400, 1140.107
914.1221, 1142.760
914.6042, 1140.052
915.0864, 1122.201
915.5685, 1099.922
916.0506, 1097.461
916.5327, 1118.211
917.0148, 1124.225
917.4969, 1103.900
917.9790, 1077.101
918.4611, 1071.634
918.9432, 1077.823
919.4254, 1078.058
919.9075, 1062.461
920.3896, 1051.169
920.8717, 1054.797
921.3538, 1062.884
921.8359, 1066.302
922.3181, 1064.386
922.8002, 1060.909
923.2823, 1055.604
923.7644, 1050.579
924.2465, 1050.141
924.7286, 1050.572
925.2108, 1044.323
925.6929, 1030.173
926.1750, 1019.038
926.6571, 1018.203
927.1392, 1019.244
927.6213, 1016.756
928.1035, 1010.763
928.5856, 1009.956
929.0677, 1015.414
929.5498, 1019.386
930.0319, 1016.464
930.5140, 1009.590
930.9962, 1003.064
931.4783, 997.0007
931.9604, 992.1115
932.4425, 989.8973
932.9246, 987.5089
933.4067, 984.5612
933.8889, 980.5165
934.3710, 973.0507
934.8531, 961.4570
935.3352, 950.5287
935.8173, 940.7687
936.2994, 934.2687
936.7816, 937.1597
937.2637, 945.4960
937.7458, 951.0872
938.2279, 949.5137
938.7100, 947.9558
939.1921, 947.4222
939.6743, 948.9597
940.1564, 955.4843
940.6385, 969.9437
941.1206, 971.5734
941.6027, 956.9133
942.0848, 940.5374
942.5670, 938.5466
943.0491, 944.4745
943.5312, 948.6763
944.0133, 949.9105
944.4954, 949.8267
944.9775, 948.8292
945.4597, 946.8362
945.9418, 943.3290
946.4239, 938.3510
946.9060, 935.9923
947.3881, 936.4273
947.8702, 937.4883
948.3524, 938.7855
948.8345, 939.4296
949.3166, 937.8922
949.7987, 934.5137
950.2808, 930.5119
950.7629, 924.9622
951.2451, 920.6151
951.7272, 918.5907
952.2093, 918.0013
952.6914, 916.6020
953.1735, 914.2377
953.6556, 913.8681
954.1378, 916.7768
954.6199, 920.3467
955.1020, 921.5709
955.5841, 921.3753
956.0662, 921.1177
956.5483, 921.1166
957.0305, 921.1138
957.5126, 920.7033
957.9947, 920.6556
958.4768, 921.8445
958.9589, 924.3146
959.4410, 925.6592
959.9232, 925.6935
960.4053, 926.6349
960.8874, 932.4579
961.3695, 938.7144
961.8516, 939.9291
962.3337, 935.8988
962.8159, 932.9394
963.2980, 931.2517
963.7801, 932.3719
964.2622, 938.5325
964.7443, 947.4562
965.2264, 948.3148
965.7086, 942.0385
966.1907, 936.9114
966.6728, 937.1123
967.1549, 939.1518
967.6370, 943.2603
968.1191, 946.5191
968.6013, 943.0030
969.0834, 923.7084
969.5655, 911.4421
970.0476, 909.6279
970.5297, 911.9335
971.0118, 910.9048
971.4940, 906.9041
971.9761, 900.2584
972.4582, 890.2749
972.9403, 883.8184
973.4224, 889.1733
973.9045, 897.4077
974.3867, 901.6757
974.8688, 901.3441
975.3509, 896.7009
975.8330, 885.3785
976.3151, 876.7679
976.7972, 877.6608
977.2794, 884.8056
977.7615, 891.5165
978.2436, 897.1744
978.7257, 899.2073
979.2078, 890.8309
979.6899, 884.3864
980.1720, 888.4419
980.6541, 897.6309
981.1362, 899.8640
981.6183, 894.2751
982.1005, 885.3732
982.5826, 872.6938
983.0647, 861.0673
983.5468, 858.7559
984.0289, 861.7569
984.5110, 862.6884
984.9932, 858.4855
985.4753, 857.1777
985.9574, 865.0315
986.4395, 873.2434
986.9216, 875.7931
987.4037, 872.3315
987.8859, 873.0234
988.3680, 878.0280
988.8501, 881.1912
989.3322, 876.1455
989.8143, 868.5556
990.2964, 864.2101
990.7786, 862.7578
991.2607, 861.1448
991.7428, 858.6594
992.2249, 855.9822
992.7070, 852.8147
993.1891, 849.9461
993.6713, 849.2310
994.1534, 850.4728
994.6355, 853.0479
995.1176, 857.6649
995.5997, 861.0546
996.0818, 861.7623
996.5640, 859.4247
997.0461, 852.1798
997.5282, 834.2520
998.0103, 830.0783
998.4924, 844.1407
998.9745, 859.4233
999.4567, 860.9609
999.9388, 853.8448
1000.421, 851.1483
1000.903, 852.5232
1001.385, 851.7734
1001.867, 842.8160
1002.349, 833.9291
1002.831, 828.7619
1003.314, 826.6880
1003.796, 826.7122
1004.278, 829.2336
1004.760, 829.6480
1005.242, 825.8813
1005.724, 821.3655
1006.206, 820.1677
1006.688, 821.3179
1007.171, 823.2975
1007.653, 826.0428
1008.135, 829.1584
1008.617, 834.0361
1009.099, 837.5243
1009.581, 836.2269
1010.063, 830.6064
1010.545, 827.7310
1011.027, 827.6151
1011.510, 827.8795
1011.992, 827.9584
1012.474, 826.8251
1012.956, 822.3694
1013.438, 815.4980
1013.920, 812.3817
1014.402, 815.0905
1014.884, 816.1829
1015.367, 813.0868
1015.849, 808.7776
1016.331, 810.3008
1016.813, 814.7271
1017.295, 814.0961
1017.777, 803.0831
1018.259, 795.0731
1018.741, 797.8622
1019.223, 804.1512
1019.706, 809.0320
1020.188, 812.8715
1020.670, 811.1711
1021.152, 803.5516
1021.634, 795.4353
1022.116, 790.3862
1022.598, 787.4161
1023.080, 785.5840
1023.563, 784.8759
1024.045, 785.5266
1024.527, 788.6162
1025.009, 791.5522
1025.491, 794.0385
1025.973, 795.8055
1026.455, 794.3483
1026.937, 791.3056
1027.419, 795.6707
1027.901, 812.8160
1028.384, 824.9425
1028.866, 815.0834
1029.348, 798.4985
1029.830, 788.9559
1030.312, 787.9384
1030.794, 786.1561
1031.276, 783.0498
1031.758, 782.2663
1032.241, 790.0059
1032.723, 799.5074
1033.205, 798.1508
1033.687, 788.8219
1034.169, 781.8382
1034.651, 784.9493
1035.133, 785.4033
1035.615, 778.7991
1036.098, 770.0140
1036.580, 767.4910
1037.062, 770.6226
1037.544, 775.0493
1038.026, 780.4249
1038.508, 784.2279
1038.990, 783.7135
1039.472, 781.2418
1039.954, 778.9977
1040.437, 777.3264
1040.919, 773.1041
1041.401, 764.4778
1041.883, 760.1337
1042.365, 767.7371
1042.847, 779.6951
1043.329, 779.9369
1043.811, 771.8302
1044.293, 764.4409
1044.776, 762.5384
1045.258, 760.0161
1045.740, 752.0284
1046.222, 745.9322
1046.704, 752.8840
1047.186, 772.3797
1047.668, 786.0522
1048.150, 792.4098
1048.633, 793.5513
1049.115, 787.9979
1049.597, 780.3117
1050.079, 774.1186
1050.561, 769.6871
1051.043, 764.4147
1051.525, 756.9788
1052.007, 753.0997
1052.490, 755.8668
1052.972, 761.4908
1053.454, 761.5977
1053.936, 759.2378
1054.418, 761.9407
1054.900, 778.0491
1055.382, 787.0430
1055.864, 776.4189
1056.346, 763.2975
1056.828, 761.3508
1057.311, 770.4518
1057.793, 774.9991
1058.275, 774.9163
1058.757, 772.6477
1059.239, 767.2288
1059.721, 762.6929
1060.203, 764.1337
1060.685, 769.2837
1061.168, 768.6504
1061.650, 759.6066
1062.132, 752.2837
1062.614, 748.5807
1063.096, 747.3168
1063.578, 748.9009
1064.060, 751.1124
1064.542, 748.7840
1065.025, 739.5022
1065.507, 734.8510
1065.989, 742.5768
1066.471, 751.1035
1066.953, 754.8275
1067.435, 754.9361
1067.917, 759.7855
1068.399, 768.5076
1068.881, 774.1486
1069.364, 771.8574
1069.846, 767.2020
1070.328, 762.4008
1070.810, 757.9718
1071.292, 754.3734
1071.774, 750.5375
1072.256, 752.4366
1072.738, 761.6154
1073.220, 770.0826
1073.703, 767.6295
1074.185, 761.0401
1074.667, 759.7812
1075.149, 763.9706
1075.631, 767.6738
1076.113, 771.0211
1076.595, 771.1019
1077.077, 765.9888
1077.559, 758.5080
1078.042, 755.1620
1078.524, 754.8351
1079.006, 752.8068
1079.488, 746.4607
1079.970, 743.4078
1080.452, 751.0638
1080.934, 761.0925
1081.416, 767.2767
1081.899, 769.5408
1082.381, 769.8806
1082.863, 768.2570
1083.345, 765.1387
1083.827, 758.6788
1084.309, 752.6805
1084.791, 750.9012
1085.273, 752.2372
1085.755, 754.1924
1086.238, 756.3977
1086.720, 759.3754
1087.202, 763.6845
1087.684, 767.3511
1088.166, 768.2883
1088.648, 766.9907
1089.130, 763.9618
1089.612, 759.3730
1090.094, 755.2480
1090.577, 751.2492
1091.059, 749.5708
1091.541, 752.4581
1092.023, 757.1884
1092.505, 752.7099
1092.987, 741.6228
1093.469, 742.3243
1093.951, 764.6837
1094.434, 784.6799
1094.916, 782.2045
1095.398, 771.8786
1095.880, 767.9932
1096.362, 771.9967
1096.844, 770.1657
1097.326, 761.8403
1097.808, 754.4567
1098.291, 751.5210
1098.773, 752.6401
1099.255, 761.5688
1099.737, 773.6418
1100.219, 778.0394
1100.701, 764.4253
1101.183, 757.8879
1101.665, 761.7905
1102.147, 768.5231
1102.630, 771.1266
1103.112, 769.9230
1103.594, 762.1581
1104.076, 748.7744
1104.558, 743.8794
1105.040, 766.3376
1105.522, 782.8934
1106.004, 780.1801
1106.486, 766.4255
1106.969, 761.6639
1107.451, 764.8839
1107.933, 770.4886
1108.415, 778.1508
1108.897, 783.4231
1109.379, 780.0695
1109.861, 775.3739
1110.343, 776.4780
1110.826, 783.4942
1111.308, 784.1300
1111.790, 777.8809
1112.272, 772.3058
1112.754, 769.9722
1113.236, 771.4879
1113.718, 782.4048
1114.200, 796.2059
1114.682, 801.0365
1115.165, 789.8903
1115.647, 779.6781
1116.129, 769.4198
1116.611, 763.8237
1117.093, 770.5870
1117.575, 783.3533
1118.057, 791.0314
1118.539, 793.5331
1119.021, 793.3265
1119.504, 787.1571
1119.986, 783.9724
1120.468, 786.0463
1120.950, 791.2322
1121.432, 799.3984
1121.914, 807.7693
1122.396, 802.5627
1122.878, 780.3082
1123.361, 764.3114
1123.843, 772.0287
1124.325, 785.6246
1124.807, 797.4333
1125.289, 806.4635
1125.771, 806.4738
1126.253, 798.0699
1126.735, 791.8759
1127.218, 792.4056
1127.700, 794.2814
1128.182, 791.6740
1128.664, 788.9342
1129.146, 792.1149
1129.628, 803.1193
1130.110, 806.3000
1130.592, 800.4383
1131.074, 796.4543
1131.557, 805.3530
1132.039, 816.6542
1132.521, 816.2290
1133.003, 808.5488
1133.485, 803.3751
1133.967, 803.0667
1134.449, 804.5631
1134.931, 808.8022
1135.413, 811.7533
1135.896, 807.4099
1136.378, 799.8295
1136.860, 795.5151
1137.342, 794.9099
1137.824, 797.4299
1138.306, 809.1015
1138.788, 814.7990
1139.270, 808.0457
1139.752, 798.3885
1140.235, 806.7216
1140.717, 826.1445
1141.199, 835.0070
1141.681, 828.5055
1142.163, 820.6546
1142.645, 818.3953
1143.127, 815.9694
1143.609, 808.8665
1144.092, 799.8480
1144.574, 804.1328
1145.056, 819.3383
1145.538, 827.9730
1146.020, 821.5466
1146.502, 813.4343
1146.984, 810.3955
1147.466, 811.2872
1147.948, 816.2530
1148.431, 825.9136
1148.913, 825.5329
1149.395, 815.0035
1149.877, 808.1028
1150.359, 819.5084
1150.841, 831.4693
1151.323, 826.6832
1151.805, 813.7108
1152.287, 808.4111
1152.770, 813.6592
1153.252, 818.2501
1153.734, 821.8011
1154.216, 824.2860
1154.698, 824.8694
1155.180, 824.9649
1155.662, 826.7581
1156.144, 829.6823
1156.627, 830.4623
1157.109, 827.8889
1157.591, 825.6177
1158.073, 823.7984
1158.555, 823.7365
1159.037, 830.5922
1159.519, 838.5315
1160.001, 835.6260
1160.484, 820.5731
1160.966, 814.7999
1161.448, 828.8713
1161.930, 839.5575
1162.412, 838.9716
1162.894, 833.2199
1163.376, 834.5852
1163.858, 839.9703
1164.340, 842.3473
1164.823, 839.7878
1165.305, 835.9691
1165.787, 831.6331
1166.269, 826.3492
1166.751, 817.9642
1167.233, 809.4636
1167.715, 814.1588
1168.197, 828.4007
1168.679, 838.8563
1169.162, 838.6993
1169.644, 837.3690
1170.126, 840.4609
1170.608, 841.0591
1171.090, 830.6978
1171.572, 811.4299
1172.054, 808.4192
1172.536, 819.5917
1173.019, 829.5119
1173.501, 825.8307
1173.983, 823.6792
1174.465, 834.3372
1174.947, 847.2317
1175.429, 849.1940
1175.911, 840.4019
1176.393, 832.8432
1176.875, 827.3836
1177.358, 825.4187
1177.840, 831.2913
1178.322, 837.7120
1178.804, 841.4163
1179.286, 841.9644
1179.768, 836.7933
1180.250, 825.6379
1180.732, 820.2603
1181.214, 822.9241
1181.697, 826.0676
1182.179, 821.0891
1182.661, 815.9482
1183.143, 819.3044
1183.625, 828.8378
1184.107, 829.5060
1184.589, 820.0488
1185.071, 818.1547
1185.554, 830.4461
1186.036, 842.7301
1186.518, 838.4738
1187.000, 828.4248
1187.482, 823.1367
1187.964, 823.3959
1188.446, 826.1149
1188.928, 831.7382
1189.411, 836.8101
1189.893, 840.2182
1190.375, 842.1234
1190.857, 842.5640
1191.339, 841.6823
1191.821, 838.9274
1192.303, 832.9522
1192.785, 832.8303
1193.267, 840.0343
1193.750, 844.5865
1194.232, 838.0591
1194.714, 829.0080
1195.196, 828.1958
1195.678, 832.5079
1196.160, 836.4387
1196.642, 839.5425
1197.124, 839.9452
1197.606, 835.9885
1198.089, 836.6696
1198.571, 857.9514
1199.053, 881.3904
1199.535, 878.6719
1200.017, 857.8185
1200.499, 841.6287
1200.981, 832.4037
1201.463, 832.5447
1201.945, 844.7321
1202.428, 856.7079
1202.910, 855.7311
1203.392, 847.8784
1203.874, 838.7853
1204.356, 829.9908
1204.838, 828.2582
1205.320, 839.6293
1205.802, 845.3670
1206.285, 841.6368
1206.767, 835.5589
1207.249, 833.9479
1207.731, 836.4313
1208.213, 844.2349
1208.695, 856.9182
1209.177, 866.7611
1209.659, 873.5549
1210.141, 875.6284
1210.624, 871.5212
1211.106, 865.1542
1211.588, 859.9674
1212.070, 857.1684
1212.552, 860.3362
1213.034, 870.5475
1213.516, 874.1282
1213.998, 865.4166
1214.480, 862.1937
1214.963, 873.3001
1215.445, 886.6474
1215.927, 879.5448
1216.409, 861.8126
1216.891, 848.5993
1217.373, 842.7096
1217.855, 843.6266
1218.337, 854.5796
1218.820, 862.3761
1219.302, 858.9745
1219.784, 852.5935
1220.266, 860.5998
1220.748, 875.2785
1221.230, 883.0095
1221.712, 878.4887
1222.194, 872.2603
1222.677, 863.3867
1223.159, 857.3198
1223.641, 858.9828
1224.123, 863.4125
1224.605, 859.8339
1225.087, 852.8747
1225.569, 851.8669
1226.051, 864.7108
1226.533, 872.8867
1227.016, 875.4104
1227.498, 875.5195
1227.980, 876.2063
1228.462, 875.4866
1228.944, 867.6053
1229.426, 856.0035
1229.908, 848.7284
1230.390, 844.9828
1230.872, 853.4399
1231.355, 878.4326
1231.837, 900.7253
1232.319, 899.7038
1232.801, 889.1230
1233.283, 889.0942
1233.765, 896.2587
1234.247, 898.6293
1234.729, 891.3475
1235.212, 886.7822
1235.694, 886.3119
1236.176, 886.3177
1236.658, 884.8003
1237.140, 880.8030
1237.622, 869.2242
1238.104, 853.5794
1238.586, 848.9343
1239.068, 860.4286
1239.551, 868.6614
1240.033, 871.2242
1240.515, 871.4708
1240.997, 872.0825
1241.479, 872.7920
1241.961, 873.6407
1242.443, 874.3864
1242.925, 873.5734
1243.407, 870.3149
1243.890, 870.3428
1244.372, 875.5648
1244.854, 878.6749
1245.336, 867.1263
1245.818, 853.4567
1246.300, 850.0669
1246.782, 857.0159
1247.264, 866.3016
1247.747, 879.0480
1248.229, 884.6697
1248.711, 879.7896
1249.193, 873.2588
1249.675, 875.4302
1250.157, 878.2665
1250.639, 871.0032
1251.121, 856.6741
1251.604, 858.3456
1252.086, 877.3072
1252.568, 884.8122
1253.050, 871.9614
1253.532, 855.4135
1254.014, 844.5411
1254.496, 840.2388
1254.978, 846.5945
1255.460, 860.4788
1255.943, 865.9508
1256.425, 863.3217
1256.907, 859.2863
1257.389, 854.7585
1257.871, 852.8311
1258.353, 861.0511
1258.835, 867.2999
1259.317, 860.0393
1259.799, 843.6377
1260.281, 846.5697
1260.764, 865.0162
1261.246, 872.9751
1261.728, 858.9637
1262.210, 844.3461
1262.692, 842.0085
1263.174, 841.0161
1263.656, 833.6434
1264.138, 822.7126
1264.621, 821.0015
1265.103, 826.8571
1265.585, 834.5815
1266.067, 844.8303
1266.549, 849.6430
1267.031, 841.5612
1267.513, 832.7708
1267.995, 829.1848
1268.478, 829.7873
1268.960, 830.7690
1269.442, 833.0938
1269.924, 840.1772
1270.406, 857.9260
1270.888, 868.8090
1271.370, 869.3947
1271.852, 865.0874
1272.334, 856.2125
1272.817, 846.7686
1273.299, 849.9068
1273.781, 858.9507
1274.263, 858.5313
1274.745, 835.1663
1275.227, 822.3682
1275.709, 822.8068
1276.191, 829.0248
1276.673, 840.6128
1277.156, 851.2515
1277.638, 848.3666
1278.120, 838.1548
1278.602, 832.2215
1279.084, 833.7114
1279.566, 837.3953
1280.048, 844.3483
1280.530, 847.0980
1281.013, 835.5614
1281.495, 822.6490
1281.977, 823.2980
1282.459, 831.2131
1282.941, 835.6212
1283.423, 834.0239
1283.905, 840.1404
1284.387, 854.3405
1284.870, 863.8785
1285.352, 859.8651
1285.834, 849.1362
1286.316, 828.4817
1286.798, 808.6534
1287.280, 804.5024
1287.762, 816.8665
1288.244, 822.5519
1288.726, 821.7621
1289.208, 819.5126
1289.691, 818.9910
1290.173, 817.2343
1290.655, 810.2139
1291.137, 803.7879
1291.619, 804.0081
1292.101, 809.8004
1292.583, 815.3146
1293.065, 820.2109
1293.548, 822.4151
1294.030, 817.0457
1294.512, 814.7018
1294.994, 819.5722
1295.476, 823.8544
1295.958, 817.2753
1296.440, 805.3910
1296.922, 804.3582
1297.405, 812.7624
1297.887, 819.6466
##END=



