##NAMES=Mimetite
##RRUFFID=R060920
##IDEAL CHEMISTRY=Pb^2+^_5_(As^5+^O_4_)_3_Cl
##LOCALITY=Tsumeb mine, Tsumeb, Otavi District, Oshikoto, Namibia
##OWNER=RRUFF
##SOURCE=Marcus Origlieri
##DESCRIPTION=Yellow to brownish hexagonal prism, monoclinic polytype
##STATUS=The identification of this mineral has been made only by X-ray diffraction.
##URL=rruff.info/R060920
114.2913, 1467.707
114.7734, 1636.376
115.2555, 1804.860
115.7376, 1964.598
116.2198, 2107.331
116.7019, 2227.014
117.1840, 2332.662
117.6661, 2424.622
118.1482, 2502.661
118.6303, 2579.841
119.1124, 2651.711
119.5946, 2728.147
120.0767, 2821.380
120.5588, 2944.709
121.0409, 3080.880
121.5230, 3222.175
122.0051, 3368.951
122.4873, 3511.613
122.9694, 3642.317
123.4515, 3762.338
123.9336, 3873.337
124.4157, 3984.437
124.8979, 4084.836
125.3800, 4159.600
125.8621, 4204.969
126.3442, 4226.357
126.8263, 4221.961
127.3084, 4194.458
127.7905, 4163.468
128.2727, 4148.864
128.7548, 4143.220
129.2369, 4124.750
129.7190, 4078.864
130.2011, 4021.020
130.6832, 3986.249
131.1654, 3975.690
131.6475, 3976.628
132.1296, 3973.454
132.6117, 3967.408
133.0938, 3973.479
133.5759, 4000.483
134.0581, 4046.298
134.5402, 4091.474
135.0223, 4134.536
135.5044, 4180.830
135.9865, 4239.411
136.4686, 4310.971
136.9508, 4387.267
137.4329, 4465.871
137.9150, 4546.506
138.3971, 4625.389
138.8792, 4702.012
139.3613, 4777.301
139.8434, 4855.866
140.3256, 4941.690
140.8077, 5023.630
141.2898, 5094.892
141.7719, 5151.487
142.2540, 5207.880
142.7361, 5265.033
143.2183, 5323.356
143.7004, 5383.237
144.1825, 5452.994
144.6646, 5515.000
145.1467, 5549.880
145.6288, 5530.078
146.1110, 5527.691
146.5931, 5561.361
147.0752, 5638.775
147.5573, 5698.494
148.0394, 5728.421
148.5215, 5745.774
149.0037, 5772.155
149.4858, 5821.696
149.9679, 5865.496
150.4500, 5894.314
150.9321, 5895.663
151.4142, 5911.009
151.8964, 5944.277
152.3785, 5991.787
152.8606, 6046.266
153.3427, 6121.331
153.8248, 6193.652
154.3069, 6253.297
154.7890, 6283.574
155.2712, 6326.161
155.7533, 6398.149
156.2354, 6489.531
156.7175, 6567.594
157.1996, 6605.827
157.6817, 6641.787
158.1639, 6697.854
158.6460, 6798.765
159.1281, 6900.041
159.6102, 6985.772
160.0923, 7058.005
160.5744, 7138.108
161.0566, 7248.080
161.5387, 7362.438
162.0208, 7458.191
162.5029, 7504.120
162.9850, 7549.009
163.4671, 7617.224
163.9493, 7709.800
164.4314, 7803.506
164.9135, 7881.637
165.3956, 7955.377
165.8777, 8039.566
166.3598, 8170.835
166.8420, 8294.761
167.3241, 8368.479
167.8062, 8381.303
168.2883, 8383.882
168.7704, 8410.049
169.2525, 8450.163
169.7346, 8484.758
170.2168, 8508.376
170.6989, 8519.833
171.1810, 8516.654
171.6631, 8496.413
172.1452, 8467.144
172.6273, 8435.638
173.1095, 8400.831
173.5916, 8358.194
174.0737, 8300.874
174.5558, 8234.792
175.0379, 8169.849
175.5201, 8110.300
176.0022, 8047.916
176.4843, 7967.798
176.9664, 7873.385
177.4485, 7785.111
177.9306, 7724.900
178.4128, 7681.876
178.8949, 7632.260
179.3770, 7566.394
179.8591, 7492.619
180.3412, 7426.313
180.8233, 7366.694
181.3055, 7301.602
181.7876, 7214.781
182.2697, 7112.282
182.7518, 7010.651
183.2339, 6919.515
183.7160, 6832.567
184.1982, 6736.570
184.6803, 6630.720
185.1624, 6523.110
185.6445, 6422.960
186.1266, 6329.391
186.6087, 6231.477
187.0908, 6123.412
187.5730, 6007.032
188.0551, 5893.501
188.5372, 5781.438
189.0193, 5672.319
189.5014, 5569.009
189.9835, 5470.182
190.4657, 5366.632
190.9478, 5247.205
191.4299, 5114.969
191.9120, 5002.471
192.3941, 4915.643
192.8762, 4839.473
193.3584, 4748.233
193.8405, 4641.953
194.3226, 4530.729
194.8047, 4415.360
195.2868, 4296.642
195.7689, 4197.341
196.2511, 4122.593
196.7332, 4062.905
197.2153, 3996.926
197.6974, 3923.750
198.1795, 3848.577
198.6616, 3773.728
199.1438, 3698.351
199.6259, 3627.026
200.1080, 3559.925
200.5901, 3497.124
201.0722, 3441.773
201.5543, 3395.195
202.0364, 3349.677
202.5186, 3296.254
203.0007, 3232.346
203.4828, 3180.678
203.9649, 3149.306
204.4470, 3132.963
204.9291, 3103.106
205.4113, 3056.119
205.8934, 3004.160
206.3755, 2957.492
206.8576, 2916.840
207.3397, 2877.866
207.8218, 2839.274
208.3040, 2801.367
208.7861, 2767.847
209.2682, 2739.853
209.7503, 2715.051
210.2324, 2692.265
210.7145, 2673.410
211.1967, 2651.004
211.6788, 2621.764
212.1609, 2585.557
212.6430, 2555.801
213.1251, 2536.757
213.6072, 2519.047
214.0894, 2489.468
214.5715, 2442.196
215.0536, 2398.262
215.5357, 2364.400
216.0178, 2341.313
216.4999, 2319.221
216.9820, 2299.017
217.4642, 2278.988
217.9463, 2255.947
218.4284, 2228.260
218.9105, 2201.491
219.3926, 2177.361
219.8747, 2156.414
220.3569, 2137.068
220.8390, 2122.386
221.3211, 2107.166
221.8032, 2080.351
222.2853, 2035.144
222.7674, 1992.007
223.2496, 1958.588
223.7317, 1936.448
224.2138, 1918.383
224.6959, 1906.470
225.1780, 1897.522
225.6601, 1884.063
226.1423, 1862.731
226.6244, 1842.849
227.1065, 1828.696
227.5886, 1822.904
228.0707, 1815.380
228.5528, 1805.036
229.0350, 1793.140
229.5171, 1783.317
229.9992, 1777.622
230.4813, 1770.457
230.9634, 1759.333
231.4455, 1742.684
231.9276, 1725.144
232.4098, 1706.261
232.8919, 1686.437
233.3740, 1667.463
233.8561, 1647.759
234.3382, 1631.068
234.8203, 1619.652
235.3025, 1617.348
235.7846, 1612.089
236.2667, 1601.369
236.7488, 1587.556
237.2309, 1579.692
237.7130, 1581.161
238.1952, 1584.091
238.6773, 1584.783
239.1594, 1583.605
239.6415, 1579.374
240.1236, 1571.181
240.6057, 1559.820
241.0879, 1548.214
241.5700, 1535.510
242.0521, 1523.874
242.5342, 1514.977
243.0163, 1511.480
243.4984, 1504.804
243.9806, 1491.937
244.4627, 1475.062
244.9448, 1465.099
245.4269, 1465.409
245.9090, 1468.238
246.3911, 1469.334
246.8732, 1469.005
247.3554, 1466.002
247.8375, 1459.300
248.3196, 1449.609
248.8017, 1440.569
249.2838, 1431.197
249.7659, 1423.928
250.2481, 1420.577
250.7302, 1423.127
251.2123, 1425.416
251.6944, 1427.346
252.1765, 1428.758
252.6586, 1428.740
253.1408, 1427.819
253.6229, 1424.910
254.1050, 1418.694
254.5871, 1406.970
255.0692, 1397.546
255.5513, 1391.774
256.0334, 1389.101
256.5156, 1385.640
256.9977, 1380.092
257.4798, 1375.598
257.9619, 1374.563
258.4440, 1378.412
258.9261, 1382.012
259.4083, 1385.277
259.8904, 1387.907
260.3725, 1387.361
260.8546, 1380.386
261.3367, 1375.336
261.8188, 1380.126
262.3010, 1401.316
262.7831, 1412.545
263.2652, 1406.652
263.7473, 1387.923
264.2294, 1380.970
264.7115, 1391.100
265.1937, 1403.440
265.6758, 1406.384
266.1579, 1396.498
266.6400, 1389.662
267.1221, 1388.430
267.6042, 1391.764
268.0864, 1393.941
268.5685, 1393.281
269.0506, 1395.201
269.5327, 1405.567
270.0148, 1427.674
270.4969, 1443.136
270.9791, 1447.333
271.4612, 1443.708
271.9433, 1448.364
272.4254, 1464.921
272.9075, 1479.886
273.3896, 1480.476
273.8718, 1463.094
274.3539, 1455.051
274.8360, 1461.900
275.3181, 1479.470
275.8002, 1493.457
276.2823, 1503.663
276.7645, 1510.888
277.2466, 1513.995
277.7287, 1512.098
278.2108, 1514.900
278.6929, 1524.454
279.1750, 1538.794
279.6572, 1551.280
280.1393, 1560.939
280.6214, 1573.662
281.1035, 1596.334
281.5856, 1629.182
282.0677, 1654.952
282.5499, 1669.833
283.0320, 1678.233
283.5141, 1688.291
283.9962, 1699.284
284.4783, 1718.541
284.9604, 1755.561
285.4425, 1809.235
285.9247, 1855.517
286.4068, 1889.334
286.8889, 1918.008
287.3710, 1955.219
287.8531, 2001.047
288.3352, 2051.927
288.8174, 2107.300
289.2995, 2166.485
289.7816, 2224.292
290.2637, 2276.987
290.7458, 2331.906
291.2279, 2401.854
291.7101, 2486.235
292.1922, 2576.157
292.6743, 2662.684
293.1564, 2749.355
293.6385, 2847.611
294.1206, 2958.148
294.6028, 3079.575
295.0849, 3212.906
295.5670, 3357.484
296.0491, 3509.581
296.5312, 3661.447
297.0133, 3818.757
297.4955, 3995.224
297.9776, 4189.721
298.4597, 4400.351
298.9418, 4625.417
299.4239, 4863.201
299.9060, 5104.556
300.3882, 5341.883
300.8703, 5579.440
301.3524, 5823.976
301.8345, 6078.445
302.3166, 6323.055
302.7987, 6539.675
303.2809, 6731.503
303.7630, 6913.407
304.2451, 7086.143
304.7272, 7253.611
305.2093, 7414.887
305.6914, 7571.092
306.1736, 7728.232
306.6557, 7896.200
307.1378, 8071.309
307.6199, 8247.342
308.1020, 8408.869
308.5841, 8580.247
309.0663, 8788.392
309.5484, 9037.895
310.0305, 9293.776
310.5126, 9547.739
310.9947, 9794.410
311.4768, 10022.38
311.9590, 10254.81
312.4411, 10446.88
312.9232, 10564.43
313.4053, 10608.25
313.8874, 10607.18
314.3695, 10592.32
314.8517, 10534.72
315.3337, 10404.71
315.8159, 10154.12
316.2980, 9865.786
316.7801, 9561.675
317.2622, 9244.851
317.7443, 8926.582
318.2264, 8600.652
318.7086, 8284.032
319.1907, 7990.680
319.6728, 7725.240
320.1549, 7482.193
320.6370, 7254.245
321.1191, 7044.960
321.6013, 6871.789
322.0834, 6748.034
322.5655, 6657.441
323.0476, 6591.555
323.5297, 6558.069
324.0118, 6537.570
324.4940, 6516.729
324.9761, 6504.588
325.4582, 6531.366
325.9403, 6619.174
326.4224, 6731.996
326.9045, 6855.304
327.3867, 6987.342
327.8688, 7131.363
328.3509, 7284.687
328.8330, 7449.478
329.3151, 7635.208
329.7972, 7863.323
330.2794, 8090.260
330.7615, 8303.684
331.2436, 8500.976
331.7257, 8693.208
332.2078, 8881.451
332.6899, 9065.507
333.1721, 9247.485
333.6542, 9436.717
334.1363, 9606.040
334.6184, 9748.681
335.1005, 9862.196
335.5826, 9959.129
336.0648, 10041.16
336.5469, 10104.86
337.0290, 10149.07
337.5111, 10177.55
337.9932, 10174.69
338.4753, 10135.43
338.9575, 10060.52
339.4396, 9956.919
339.9217, 9819.604
340.4038, 9663.703
340.8859, 9498.314
341.3680, 9323.868
341.8502, 9150.013
342.3323, 8989.260
342.8144, 8830.008
343.2965, 8630.410
343.7786, 8383.988
344.2607, 8129.456
344.7429, 7897.146
345.2250, 7685.771
345.7071, 7467.389
346.1892, 7233.032
346.6713, 6991.897
347.1534, 6747.643
347.6355, 6501.542
348.1176, 6263.203
348.5998, 6039.551
349.0819, 5827.202
349.5640, 5613.073
350.0461, 5390.552
350.5282, 5170.858
351.0103, 4961.420
351.4925, 4763.379
351.9746, 4576.631
352.4567, 4400.845
352.9388, 4238.476
353.4209, 4096.562
353.9030, 3977.886
354.3852, 3866.055
354.8673, 3745.418
355.3494, 3621.131
355.8315, 3503.399
356.3136, 3399.082
356.7957, 3301.846
357.2779, 3205.656
357.7600, 3109.825
358.2421, 3024.752
358.7242, 2960.994
359.2063, 2909.168
359.6884, 2858.256
360.1706, 2798.547
360.6527, 2744.026
361.1348, 2701.974
361.6169, 2671.600
362.0990, 2646.824
362.5811, 2626.474
363.0633, 2609.761
363.5454, 2596.162
364.0275, 2587.579
364.5096, 2579.631
364.9917, 2564.262
365.4738, 2546.979
365.9560, 2547.753
366.4381, 2585.225
366.9202, 2630.060
367.4023, 2669.393
367.8844, 2698.713
368.3665, 2728.833
368.8487, 2759.562
369.3308, 2791.653
369.8129, 2826.709
370.2950, 2876.945
370.7771, 2915.670
371.2592, 2932.616
371.7414, 2921.638
372.2235, 2915.613
372.7056, 2921.569
373.1877, 2926.703
373.6698, 2913.975
374.1519, 2876.842
374.6341, 2837.131
375.1162, 2799.337
375.5983, 2763.242
376.0804, 2729.526
376.5625, 2700.709
377.0446, 2669.272
377.5267, 2626.287
378.0089, 2569.345
378.4910, 2518.822
378.9731, 2477.807
379.4552, 2445.656
379.9373, 2423.692
380.4194, 2412.479
380.9016, 2403.899
381.3837, 2388.041
381.8658, 2368.099
382.3479, 2364.425
382.8300, 2381.423
383.3121, 2409.478
383.7943, 2436.052
384.2764, 2461.215
384.7585, 2486.115
385.2406, 2508.637
385.7227, 2531.820
386.2048, 2561.183
386.6870, 2597.261
387.1691, 2635.944
387.6512, 2681.855
388.1333, 2726.492
388.6154, 2754.131
389.0975, 2745.283
389.5797, 2724.640
390.0618, 2714.328
390.5439, 2713.238
391.0260, 2709.364
391.5081, 2696.271
391.9902, 2676.779
392.4724, 2652.184
392.9545, 2607.684
393.4366, 2577.939
393.9187, 2585.651
394.4008, 2621.783
394.8829, 2657.225
395.3651, 2675.046
395.8472, 2694.987
396.3293, 2727.030
396.8114, 2772.558
397.2935, 2830.009
397.7756, 2904.879
398.2578, 2990.304
398.7399, 3075.923
399.2220, 3147.877
399.7041, 3233.126
400.1862, 3341.307
400.6683, 3476.699
401.1505, 3607.121
401.6326, 3722.730
402.1147, 3841.301
402.5968, 3983.186
403.0789, 4161.039
403.5610, 4334.055
404.0432, 4490.895
404.5253, 4636.572
405.0074, 4807.760
405.4895, 5017.977
405.9716, 5222.801
406.4537, 5395.694
406.9359, 5537.364
407.4180, 5649.503
407.9001, 5731.240
408.3822, 5784.942
408.8643, 5821.797
409.3464, 5842.021
409.8285, 5823.450
410.3106, 5751.747
410.7928, 5632.081
411.2749, 5474.540
411.7570, 5275.434
412.2391, 5060.270
412.7212, 4848.552
413.2033, 4639.327
413.6855, 4432.787
414.1676, 4221.702
414.6497, 4017.814
415.1318, 3836.438
415.6139, 3676.286
416.0960, 3540.828
416.5782, 3438.543
417.0603, 3357.569
417.5424, 3284.843
418.0245, 3214.352
418.5066, 3156.927
418.9887, 3120.730
419.4709, 3102.218
419.9530, 3091.874
420.4351, 3101.919
420.9172, 3107.042
421.3993, 3090.290
421.8814, 3043.191
422.3636, 3003.178
422.8457, 2983.471
423.3278, 2973.263
423.8099, 2960.859
424.2920, 2958.113
424.7741, 2938.720
425.2563, 2895.347
425.7384, 2827.784
426.2205, 2754.510
426.7026, 2670.926
427.1847, 2585.769
427.6668, 2505.090
428.1490, 2429.478
428.6311, 2357.655
429.1132, 2291.448
429.5953, 2227.012
430.0774, 2153.368
430.5595, 2067.309
431.0417, 1983.330
431.5238, 1905.799
432.0059, 1834.778
432.4880, 1782.127
432.9701, 1750.626
433.4522, 1728.306
433.9344, 1699.908
434.4165, 1666.803
434.8986, 1638.398
435.3807, 1620.850
435.8628, 1607.626
436.3449, 1584.907
436.8271, 1553.269
437.3092, 1519.842
437.7913, 1488.043
438.2734, 1458.721
438.7555, 1435.091
439.2376, 1420.922
439.7197, 1404.054
440.2018, 1367.785
440.6840, 1320.933
441.1661, 1282.837
441.6482, 1274.929
442.1303, 1269.877
442.6124, 1249.159
443.0945, 1210.002
443.5767, 1170.684
444.0588, 1135.725
444.5409, 1104.502
445.0230, 1076.436
445.5051, 1055.030
445.9872, 1032.730
446.4694, 1005.092
446.9515, 973.9944
447.4336, 951.4100
447.9157, 947.3534
448.3978, 942.4609
448.8799, 927.6245
449.3621, 895.7153
449.8442, 871.2833
450.3263, 857.8962
450.8084, 849.0977
451.2905, 833.9682
451.7726, 809.8580
452.2548, 788.9286
452.7369, 775.8839
453.2190, 769.6581
453.7011, 759.4418
454.1832, 744.1367
454.6653, 730.3729
455.1475, 726.6181
455.6296, 730.9755
456.1117, 729.2322
456.5938, 717.7509
457.0759, 701.5104
457.5580, 686.8285
458.0402, 673.9347
458.5223, 663.9473
459.0044, 660.4003
459.4865, 658.7913
459.9686, 652.6198
460.4507, 641.2709
460.9329, 628.9750
461.4150, 616.3612
461.8971, 605.6827
462.3792, 599.7466
462.8613, 603.9482
463.3434, 609.0514
463.8256, 612.6184
464.3077, 614.1071
464.7898, 611.1299
465.2719, 597.6469
465.7540, 583.4610
466.2361, 574.0475
466.7183, 573.1961
467.2004, 569.9327
467.6825, 559.6319
468.1646, 547.9788
468.6467, 542.9035
469.1288, 550.4968
469.6110, 555.2504
470.0930, 552.8960
470.5752, 543.9340
471.0573, 537.6858
471.5394, 535.4550
472.0215, 533.2511
472.5036, 527.5607
472.9857, 518.0228
473.4679, 509.7985
473.9500, 503.6466
474.4321, 498.7826
474.9142, 493.3276
475.3963, 487.4846
475.8784, 483.7311
476.3606, 485.7152
476.8427, 490.1783
477.3248, 489.2690
477.8069, 482.9242
478.2890, 475.5997
478.7711, 469.3090
479.2533, 464.8962
479.7354, 464.2505
480.2175, 471.5597
480.6996, 477.2746
481.1817, 472.5970
481.6638, 460.8338
482.1460, 450.6672
482.6281, 444.8456
483.1102, 442.3612
483.5923, 444.2446
484.0744, 452.2232
484.5565, 456.1553
485.0387, 452.3034
485.5208, 444.2424
486.0029, 435.2928
486.4850, 421.0092
486.9671, 412.1106
487.4492, 412.3536
487.9314, 419.3028
488.4135, 421.5026
488.8956, 416.7092
489.3777, 411.4971
489.8598, 409.4549
490.3419, 411.2359
490.8241, 411.1558
491.3062, 408.8876
491.7883, 405.5652
492.2704, 401.6516
492.7525, 397.3738
493.2346, 396.1460
493.7168, 401.5133
494.1989, 408.4547
494.6810, 405.3046
495.1631, 393.1735
495.6452, 381.4643
496.1273, 376.4619
496.6095, 375.9817
497.0916, 378.5092
497.5737, 385.0303
498.0558, 388.7182
498.5379, 380.3478
499.0201, 367.1040
499.5022, 359.6564
499.9843, 369.4862
500.4664, 378.4458
500.9485, 377.0872
501.4306, 366.5931
501.9127, 359.7084
502.3948, 363.5932
502.8770, 368.1168
503.3591, 367.6397
503.8412, 358.5771
504.3233, 351.6735
504.8054, 347.5969
505.2875, 345.3226
505.7697, 343.1102
506.2518, 340.3194
506.7339, 339.5836
507.2160, 342.9538
507.6981, 349.0675
508.1802, 349.1312
508.6624, 342.4016
509.1445, 334.4225
509.6266, 328.0475
510.1087, 323.6463
510.5908, 323.7399
511.0729, 329.4321
511.5551, 336.5177
512.0372, 341.4919
512.5193, 343.9455
513.0014, 342.7693
513.4835, 334.8174
513.9656, 324.9742
514.4478, 315.9034
514.9299, 308.0273
515.4120, 304.1437
515.8941, 310.5439
516.3762, 318.3929
516.8583, 320.8868
517.3405, 314.3493
517.8226, 308.1716
518.3047, 302.8850
518.7868, 299.4561
519.2689, 299.5516
519.7510, 308.6412
520.2332, 314.2451
520.7153, 312.3656
521.1974, 304.0059
521.6795, 300.1338
522.1616, 302.3136
522.6437, 305.8398
523.1259, 308.5347
523.6080, 310.5945
524.0901, 309.0486
524.5722, 303.0516
525.0543, 295.1502
525.5364, 287.4532
526.0186, 280.3171
526.5007, 276.2170
526.9828, 277.1920
527.4649, 280.8116
527.9470, 284.0416
528.4291, 286.7302
528.9113, 288.3006
529.3934, 287.2353
529.8755, 285.4540
530.3576, 285.3271
530.8397, 287.9038
531.3218, 288.9251
531.8040, 284.6482
532.2861, 278.2429
532.7682, 273.6774
533.2503, 272.8891
533.7324, 272.7630
534.2145, 272.5532
534.6967, 272.4048
535.1788, 273.3788
535.6609, 277.4914
536.1430, 280.1244
536.6251, 278.6625
537.1072, 271.8945
537.5894, 267.5464
538.0715, 265.8213
538.5536, 266.1040
539.0357, 268.6750
539.5178, 273.4970
539.9999, 276.3662
540.4821, 275.7534
540.9642, 273.3730
541.4463, 272.4440
541.9284, 272.7061
542.4105, 272.5491
542.8926, 270.7739
543.3748, 268.1692
543.8569, 265.4443
544.3390, 262.6476
544.8211, 260.5859
545.3032, 259.5733
545.7853, 259.6215
546.2675, 260.7729
546.7495, 263.7427
547.2316, 266.8578
547.7137, 271.2430
548.1959, 275.4003
548.6780, 275.9322
549.1601, 267.7918
549.6422, 261.3382
550.1243, 259.9017
550.6064, 263.6552
551.0886, 264.7332
551.5707, 261.5577
552.0528, 258.6523
552.5349, 260.1390
553.0170, 266.3647
553.4991, 270.6458
553.9813, 272.2047
554.4634, 272.1723
554.9455, 271.5978
555.4276, 270.7007
555.9097, 270.7904
556.3918, 273.7578
556.8740, 276.9577
557.3561, 276.2462
557.8382, 272.2290
558.3203, 268.2885
558.8024, 265.8907
559.2845, 264.8073
559.7667, 264.6433
560.2488, 265.0905
560.7309, 267.5629
561.2130, 276.1458
561.6951, 285.4489
562.1772, 289.7622
562.6594, 283.0284
563.1415, 277.6777
563.6236, 275.6809
564.1057, 275.9130
564.5878, 274.0947
565.0699, 268.2969
565.5521, 265.0849
566.0342, 269.0311
566.5163, 279.6676
566.9984, 282.9919
567.4805, 278.1466
567.9626, 270.3535
568.4448, 262.8518
568.9269, 256.1990
569.4090, 252.1721
569.8911, 251.2459
570.3732, 252.7414
570.8553, 257.2227
571.3375, 263.5989
571.8196, 269.2275
572.3017, 274.1725
572.7838, 277.1001
573.2659, 276.7350
573.7480, 273.3407
574.2302, 269.2000
574.7123, 262.4435
575.1944, 257.1454
575.6765, 256.0242
576.1586, 261.6607
576.6407, 264.9371
577.1229, 264.3386
577.6050, 262.7129
578.0871, 263.4697
578.5692, 267.6335
579.0513, 270.3279
579.5334, 270.2573
580.0156, 268.6960
580.4977, 269.3443
580.9798, 272.1466
581.4619, 274.0038
581.9440, 272.8949
582.4261, 269.8254
582.9083, 266.0793
583.3904, 261.7791
583.8725, 259.2503
584.3546, 262.4197
584.8367, 267.2523
585.3188, 268.6082
585.8010, 262.7340
586.2831, 260.0245
586.7652, 269.2449
587.2473, 283.1411
587.7294, 291.3463
588.2115, 287.3453
588.6937, 282.6984
589.1758, 278.2546
589.6579, 274.5151
590.1400, 274.4802
590.6221, 279.7516
591.1042, 285.5664
591.5864, 290.2835
592.0685, 293.9489
592.5506, 293.9070
593.0327, 289.5641
593.5148, 284.4175
593.9969, 280.8475
594.4791, 279.2615
594.9612, 281.6737
595.4433, 289.7602
595.9254, 298.4665
596.4075, 302.0810
596.8896, 302.3435
597.3718, 302.8942
597.8539, 307.4818
598.3360, 310.8143
598.8181, 308.1365
599.3002, 300.5303
599.7823, 296.6696
600.2645, 301.4177
600.7466, 307.8820
601.2287, 313.5993
601.7108, 319.6027
602.1929, 320.0653
602.6750, 311.0104
603.1572, 301.5692
603.6393, 302.3230
604.1214, 314.8076
604.6035, 322.6607
605.0856, 322.3767
605.5677, 318.4485
606.0499, 318.6287
606.5320, 322.3932
607.0141, 326.6857
607.4962, 331.3161
607.9783, 334.9869
608.4604, 335.5938
608.9425, 333.4956
609.4246, 330.8162
609.9067, 327.7716
610.3889, 325.2216
610.8710, 323.6811
611.3531, 323.1640
611.8352, 323.8708
612.3173, 328.1430
612.7994, 332.3025
613.2816, 332.9519
613.7637, 327.2304
614.2458, 323.5547
614.7279, 322.7510
615.2100, 324.0954
615.6921, 327.1003
616.1743, 332.2605
616.6564, 334.4950
617.1385, 330.1934
617.6206, 322.6940
618.1027, 321.9061
618.5848, 327.1846
619.0670, 331.4142
619.5491, 327.9464
620.0312, 321.7561
620.5133, 318.5822
620.9954, 319.1601
621.4775, 320.9395
621.9597, 323.6642
622.4418, 326.3607
622.9239, 328.2538
623.4060, 331.1378
623.8881, 330.4082
624.3702, 322.4950
624.8524, 311.7927
625.3345, 305.3604
625.8166, 304.4666
626.2987, 305.1227
626.7808, 307.3282
627.2629, 310.1246
627.7451, 309.4703
628.2272, 305.2360
628.7093, 299.9798
629.1914, 292.8437
629.6735, 286.1562
630.1556, 287.8941
630.6378, 298.1199
631.1199, 306.7651
631.6020, 303.1204
632.0841, 295.3011
632.5662, 292.7743
633.0483, 300.3847
633.5305, 305.8918
634.0126, 302.4915
634.4947, 295.1461
634.9768, 290.1918
635.4589, 289.3947
635.9410, 289.5806
636.4232, 291.1483
636.9053, 293.3058
637.3874, 293.3203
637.8695, 290.5900
638.3516, 288.0426
638.8337, 286.8151
639.3159, 286.7126
639.7980, 287.5378
640.2801, 289.2799
640.7622, 289.6044
641.2443, 285.3476
641.7264, 279.0753
642.2086, 274.3315
642.6907, 271.4409
643.1728, 270.5739
643.6549, 272.8147
644.1370, 276.6466
644.6191, 280.5846
645.1013, 285.2730
645.5834, 288.7383
646.0655, 290.8098
646.5476, 291.4642
647.0297, 290.1313
647.5118, 284.9072
647.9940, 281.9878
648.4761, 283.4912
648.9582, 288.1673
649.4403, 291.3627
649.9224, 293.0083
650.4045, 293.3867
650.8867, 292.4979
651.3688, 290.4757
651.8509, 286.4701
652.3330, 280.5724
652.8151, 277.0542
653.2972, 281.2556
653.7794, 288.1767
654.2615, 293.0355
654.7436, 294.6337
655.2257, 295.2758
655.7078, 295.2014
656.1899, 294.7458
656.6721, 294.1989
657.1542, 292.3544
657.6363, 292.5723
658.1184, 295.7864
658.6005, 300.7513
659.0826, 305.1354
659.5648, 309.0789
660.0469, 311.1196
660.5290, 309.9859
661.0111, 307.1314
661.4932, 306.0128
661.9753, 306.4888
662.4575, 307.6685
662.9396, 309.1747
663.4217, 311.0146
663.9038, 314.0669
664.3859, 318.3789
664.8680, 320.1698
665.3502, 316.1353
665.8323, 310.2064
666.3144, 304.5478
666.7965, 296.7350
667.2786, 295.2873
667.7607, 303.7650
668.2429, 315.3938
668.7250, 323.0681
669.2071, 326.3938
669.6892, 327.3476
670.1713, 325.8690
670.6534, 322.7718
671.1355, 317.7484
671.6176, 311.7343
672.0997, 309.7572
672.5818, 316.2101
673.0640, 325.4980
673.5461, 333.3292
674.0282, 339.2776
674.5103, 342.0333
674.9924, 338.6354
675.4745, 333.9781
675.9567, 329.7626
676.4388, 325.9543
676.9209, 325.1747
677.4030, 328.1509
677.8851, 333.2988
678.3672, 341.1118
678.8494, 353.4110
679.3315, 356.7823
679.8136, 348.8976
680.2957, 339.3571
680.7778, 338.8679
681.2599, 345.7415
681.7421, 354.4199
682.2242, 365.2129
682.7063, 373.3945
683.1884, 370.7643
683.6705, 363.0284
684.1526, 359.8208
684.6348, 369.8658
685.1169, 379.4291
685.5990, 383.3966
686.0811, 383.1606
686.5632, 382.6260
687.0453, 380.1866
687.5275, 380.2407
688.0096, 384.5285
688.4917, 392.3270
688.9738, 400.4236
689.4559, 409.3527
689.9380, 415.1172
690.4202, 411.8432
690.9023, 403.6356
691.3844, 405.2772
691.8665, 416.7874
692.3486, 427.9640
692.8307, 429.3670
693.3129, 427.5065
693.7950, 429.8229
694.2771, 438.8215
694.7592, 446.1560
695.2413, 449.0029
695.7234, 448.9200
696.2056, 447.2446
696.6877, 442.3380
697.1698, 438.9680
697.6519, 436.8293
698.1340, 436.8175
698.6161, 441.8024
699.0983, 452.1090
699.5804, 458.8615
700.0625, 457.8770
700.5446, 455.1901
701.0267, 463.3654
701.5089, 478.9208
701.9910, 490.2666
702.4731, 485.4958
702.9552, 479.6883
703.4373, 484.4573
703.9194, 498.0828
704.4016, 510.6913
704.8837, 520.7991
705.3658, 528.0726
705.8479, 531.5690
706.3300, 531.0493
706.8121, 532.6086
707.2943, 536.6074
707.7764, 541.8633
708.2585, 547.9581
708.7406, 554.8345
709.2227, 562.3640
709.7048, 570.8810
710.1870, 576.8500
710.6691, 571.2774
711.1512, 562.8143
711.6333, 566.6459
712.1154, 590.2999
712.5975, 611.0136
713.0797, 612.2820
713.5618, 606.5093
714.0439, 607.7964
714.5260, 625.8663
715.0081, 641.4529
715.4902, 652.6240
715.9724, 661.1631
716.4545, 670.0306
716.9366, 679.6228
717.4187, 686.9415
717.9008, 689.8430
718.3829, 691.8766
718.8651, 702.9058
719.3472, 720.4104
719.8293, 734.1376
720.3114, 734.1244
720.7935, 731.6490
721.2756, 736.1951
721.7578, 746.8134
722.2399, 757.9992
722.7220, 766.7595
723.2041, 776.9088
723.6862, 792.0724
724.1683, 812.6498
724.6505, 824.7512
725.1326, 824.1495
725.6147, 824.1049
726.0968, 834.0612
726.5789, 853.1622
727.0610, 868.5012
727.5432, 879.7388
728.0253, 889.4180
728.5074, 899.0555
728.9895, 908.9184
729.4716, 918.5962
729.9537, 927.3845
730.4359, 939.4669
730.9180, 962.5812
731.4001, 987.1224
731.8822, 1004.338
732.3643, 1003.976
732.8464, 1008.253
733.3285, 1018.522
733.8106, 1032.279
734.2927, 1045.696
734.7748, 1058.236
735.2570, 1075.123
735.7391, 1098.427
736.2212, 1124.285
736.7033, 1145.840
737.1854, 1164.659
737.6675, 1185.603
738.1497, 1212.074
738.6318, 1239.604
739.1139, 1264.897
739.5960, 1288.852
740.0781, 1313.836
740.5602, 1343.377
741.0424, 1370.712
741.5245, 1391.820
742.0066, 1408.855
742.4887, 1433.902
742.9708, 1468.168
743.4529, 1505.417
743.9351, 1543.068
744.4172, 1581.325
744.8993, 1620.413
745.3814, 1660.319
745.8635, 1703.319
746.3456, 1751.902
746.8278, 1804.226
747.3099, 1856.252
747.7920, 1907.880
748.2741, 1967.377
748.7562, 2043.426
749.2383, 2123.996
749.7205, 2202.629
750.2026, 2280.533
750.6847, 2352.236
751.1668, 2414.216
751.6489, 2478.822
752.1310, 2553.987
752.6132, 2640.888
753.0953, 2746.506
753.5774, 2873.333
754.0595, 3015.253
754.5416, 3178.265
755.0237, 3351.079
755.5059, 3518.114
755.9880, 3664.922
756.4701, 3829.018
756.9522, 4029.115
757.4343, 4251.477
757.9164, 4479.826
758.3986, 4706.896
758.8807, 4948.486
759.3628, 5200.168
759.8449, 5470.578
760.3270, 5776.480
760.8091, 6115.280
761.2913, 6455.491
761.7734, 6785.828
762.2555, 7107.091
762.7376, 7426.323
763.2197, 7738.676
763.7018, 8035.795
764.1840, 8363.591
764.6661, 8625.354
765.1482, 8772.149
765.6303, 8816.500
766.1124, 8791.151
766.5945, 8691.488
767.0767, 8534.865
767.5588, 8307.339
768.0409, 8030.521
768.5230, 7786.559
769.0051, 7577.716
769.4872, 7363.633
769.9694, 7107.943
770.4515, 6843.751
770.9336, 6621.753
771.4157, 6438.229
771.8978, 6276.124
772.3799, 6125.232
772.8621, 5994.852
773.3442, 5888.630
773.8263, 5807.385
774.3084, 5748.292
774.7905, 5708.665
775.2726, 5693.961
775.7548, 5708.514
776.2369, 5751.723
776.7190, 5808.176
777.2011, 5877.986
777.6832, 5968.366
778.1653, 6085.497
778.6475, 6226.951
779.1296, 6386.834
779.6117, 6565.092
780.0938, 6772.790
780.5759, 7035.323
781.0580, 7309.704
781.5402, 7565.588
782.0223, 7793.316
782.5044, 8031.003
782.9865, 8288.609
783.4686, 8537.729
783.9507, 8763.976
784.4329, 8963.822
784.9150, 9125.875
785.3971, 9249.288
785.8792, 9342.405
786.3613, 9416.249
786.8434, 9466.039
787.3256, 9479.670
787.8077, 9451.693
788.2898, 9410.372
788.7719, 9341.924
789.2540, 9282.921
789.7361, 9267.488
790.2183, 9305.131
790.7004, 9367.229
791.1825, 9451.167
791.6646, 9564.334
792.1467, 9714.021
792.6288, 9899.163
793.1110, 10113.85
793.5930, 10350.13
794.0751, 10641.32
794.5573, 11021.99
795.0394, 11481.48
795.5215, 11986.53
796.0036, 12508.55
796.4857, 13125.48
796.9678, 13853.65
797.4500, 14693.37
797.9321, 15647.28
798.4142, 16695.33
798.8963, 17874.46
799.3784, 19186.72
799.8605, 20658.29
800.3427, 22319.80
800.8248, 24179.08
801.3069, 26343.02
801.7890, 28814.98
802.2711, 31622.18
802.7532, 34934.72
803.2354, 38539.01
803.7175, 42209.87
804.1996, 46291.82
804.6817, 49879.12
805.1638, 52906.68
805.6459, 55264.10
806.1281, 56693.88
806.6102, 57053.42
807.0923, 56929.79
807.5744, 56290.97
808.0565, 55454.95
808.5386, 54843.41
809.0208, 54484.88
809.5029, 54508.55
809.9850, 54985.51
810.4671, 55819.71
810.9492, 57069.86
811.4313, 58595.98
811.9135, 60144.82
812.3956, 61875.31
812.8777, 63349.09
813.3598, 64632.63
813.8419, 65567.22
814.3240, 65882.13
814.8062, 65591.83
815.2883, 64504.24
815.7704, 62522.91
816.2525, 59825.89
816.7346, 56488.44
817.2167, 52666.73
817.6989, 48752.25
818.1810, 44760.19
818.6631, 40938.30
819.1452, 37310.18
819.6273, 33910.24
820.1094, 30889.12
820.5916, 28289.66
821.0737, 25918.05
821.5558, 23768.66
822.0379, 21823.83
822.5200, 20103.70
823.0021, 18609.86
823.4843, 17281.61
823.9664, 16131.62
824.4485, 15116.95
824.9306, 14221.06
825.4127, 13425.16
825.8948, 12677.72
826.3770, 11953.00
826.8591, 11281.03
827.3412, 10683.91
827.8233, 10146.95
828.3054, 9663.346
828.7875, 9234.122
829.2697, 8843.293
829.7518, 8485.683
830.2339, 8160.250
830.7160, 7853.339
831.1981, 7564.828
831.6802, 7289.619
832.1624, 7019.685
832.6445, 6765.152
833.1266, 6531.695
833.6087, 6318.454
834.0908, 6123.518
834.5729, 5959.396
835.0551, 5797.853
835.5372, 5633.452
836.0193, 5471.945
836.5014, 5329.785
836.9835, 5206.339
837.4656, 5081.864
837.9478, 4949.211
838.4299, 4817.339
838.9120, 4697.539
839.3941, 4587.667
839.8762, 4481.781
840.3583, 4377.662
840.8405, 4276.558
841.3226, 4177.097
841.8047, 4082.308
842.2868, 4000.979
842.7689, 3941.221
843.2510, 3868.977
843.7332, 3772.490
844.2153, 3668.648
844.6974, 3593.035
845.1795, 3539.533
845.6616, 3483.476
846.1437, 3417.127
846.6259, 3343.736
847.1080, 3255.456
847.5901, 3164.373
848.0722, 3090.073
848.5543, 3053.609
849.0364, 3014.781
849.5186, 2973.201
850.0007, 2924.301
850.4828, 2854.311
850.9649, 2762.269
851.4470, 2687.118
851.9291, 2641.161
852.4113, 2605.794
852.8934, 2558.843
853.3755, 2505.151
853.8576, 2453.074
854.3397, 2406.367
854.8218, 2360.805
855.3040, 2313.602
855.7860, 2267.423
856.2681, 2226.037
856.7502, 2190.409
857.2324, 2157.373
857.7145, 2128.085
858.1966, 2098.533
858.6787, 2063.163
859.1608, 2023.207
859.6429, 1979.769
860.1251, 1931.619
860.6072, 1888.443
861.0893, 1859.924
861.5714, 1838.860
862.0535, 1817.292
862.5356, 1797.604
863.0178, 1770.683
863.4999, 1733.956
863.9820, 1693.608
864.4641, 1654.441
864.9462, 1616.565
865.4283, 1590.323
865.9105, 1577.691
866.3926, 1568.992
866.8747, 1559.181
867.3568, 1546.106
867.8389, 1526.323
868.3210, 1497.249
868.8032, 1469.865
869.2853, 1446.762
869.7674, 1426.826
870.2495, 1410.008
870.7316, 1397.269
871.2137, 1381.888
871.6959, 1363.387
872.1780, 1345.173
872.6601, 1331.144
873.1422, 1319.152
873.6243, 1304.993
874.1064, 1288.318
874.5886, 1271.862
875.0707, 1255.763
875.5528, 1241.335
876.0349, 1230.857
876.5170, 1224.952
876.9991, 1211.104
877.4813, 1185.196
877.9634, 1163.206
878.4455, 1157.886
878.9276, 1164.430
879.4097, 1166.393
879.8918, 1163.904
880.3740, 1158.115
880.8561, 1148.518
881.3382, 1136.945
881.8203, 1123.403
882.3024, 1108.269
882.7845, 1096.571
883.2667, 1092.696
883.7488, 1084.658
884.2309, 1065.820
884.7130, 1040.398
885.1951, 1027.222
885.6772, 1025.101
886.1594, 1021.129
886.6415, 1006.349
887.1236, 988.5799
887.6057, 972.6995
888.0878, 959.3862
888.5699, 950.7845
889.0521, 953.9855
889.5342, 953.5838
890.0163, 945.1318
890.4984, 932.1907
890.9805, 923.6258
891.4626, 919.4843
891.9448, 911.7043
892.4269, 896.5932
892.9090, 879.5710
893.3911, 867.2886
893.8732, 858.0589
894.3553, 848.7543
894.8375, 841.0727
895.3196, 829.3659
895.8017, 804.7793
896.2838, 780.0495
896.7659, 773.2695
897.2480, 789.1128
897.7302, 790.6566
898.2123, 771.0648
898.6944, 745.8120
899.1765, 733.1834
899.6586, 728.3871
900.1407, 724.1017
900.6229, 719.8022
901.1050, 711.9255
901.5871, 696.2510
902.0692, 678.2140
902.5513, 661.4405
903.0334, 645.1949
903.5156, 634.2866
903.9977, 629.6411
904.4798, 626.4300
904.9619, 620.2166
905.4440, 612.3182
905.9261, 606.4939
906.4083, 602.8705
906.8904, 597.1855
907.3725, 581.6644
907.8546, 567.8102
908.3367, 566.1370
908.8188, 577.0241
909.3010, 575.8192
909.7831, 557.8915
910.2652, 542.0552
910.7473, 538.8665
911.2294, 544.0928
911.7115, 546.6665
912.1937, 546.7883
912.6758, 545.6080
913.1579, 544.4973
913.6400, 541.5573
914.1221, 532.2571
914.6042, 519.8284
915.0864, 517.1709
915.5685, 531.0449
916.0506, 538.7682
916.5327, 532.4351
917.0148, 520.7006
917.4969, 522.7117
917.9790, 535.1669
918.4611, 545.4092
918.9432, 549.1164
919.4254, 549.5259
919.9075, 546.9485
920.3896, 543.0745
920.8717, 540.4569
921.3538, 540.4152
921.8359, 540.2048
922.3181, 541.5005
922.8002, 539.3442
923.2823, 524.7388
923.7644, 500.6588
924.2465, 483.2446
924.7286, 475.0439
925.2108, 466.2019
925.6929, 444.4138
926.1750, 421.8405
926.6571, 410.5392
927.1392, 416.4673
927.6213, 413.1827
928.1035, 394.7010
928.5856, 378.1711
929.0677, 375.8802
929.5498, 385.0288
930.0319, 391.4118
930.5140, 394.8262
930.9962, 393.5752
931.4783, 381.4467
931.9604, 368.6559
932.4425, 361.5672
932.9246, 360.2633
933.4067, 363.1104
933.8889, 374.1860
934.3710, 380.7679
934.8531, 379.0615
935.3352, 370.8201
935.8173, 357.5562
936.2994, 340.9852
936.7816, 330.7416
937.2637, 333.3329
937.7458, 338.8633
938.2279, 340.5720
938.7100, 340.3625
939.1921, 341.3582
939.6743, 346.3409
940.1564, 347.7648
940.6385, 344.0604
941.1206, 338.7167
941.6027, 335.7432
942.0848, 334.8330
942.5670, 334.9456
943.0491, 336.1002
943.5312, 336.6271
944.0133, 334.4928
944.4954, 331.7391
944.9775, 329.9189
945.4597, 329.1725
945.9418, 329.7996
946.4239, 332.1743
946.9060, 335.1437
947.3881, 339.7434
947.8702, 344.3550
948.3524, 340.5136
948.8345, 329.5471
949.3166, 320.6066
949.7987, 320.6642
950.2808, 322.7679
950.7629, 322.4910
951.2451, 320.5572
951.7272, 320.9999
952.2093, 325.4352
952.6914, 327.9461
953.1735, 326.4562
953.6556, 323.2419
954.1378, 323.7068
954.6199, 326.2066
955.1020, 325.4361
955.5841, 316.8473
956.0662, 310.7036
956.5483, 315.9283
957.0305, 324.6484
957.5126, 327.2624
957.9947, 320.3102
958.4768, 317.3155
958.9589, 319.4243
959.4410, 322.3327
959.9232, 321.9084
960.4053, 319.1651
960.8874, 315.9903
961.3695, 312.5449
961.8516, 309.1769
962.3337, 304.9982
962.8159, 301.9794
963.2980, 301.9101
963.7801, 304.3540
964.2622, 304.5453
964.7443, 302.0941
965.2264, 299.7742
965.7086, 298.8474
966.1907, 298.7938
966.6728, 299.7747
967.1549, 300.9364
967.6370, 300.0610
968.1191, 294.1279
968.6013, 288.7066
969.0834, 285.5561
969.5655, 283.4682
970.0476, 280.0271
970.5297, 274.9333
971.0118, 274.5842
971.4940, 281.0088
971.9761, 286.5894
972.4582, 281.5395
972.9403, 271.6845
973.4224, 264.1942
973.9045, 260.6544
974.3867, 257.6894
974.8688, 253.3876
975.3509, 251.0177
975.8330, 253.1193
976.3151, 259.2025
976.7972, 262.7243
977.2794, 263.7287
977.7615, 263.7264
978.2436, 263.5227
978.7257, 262.7975
979.2078, 260.6795
979.6899, 257.7412
980.1720, 255.8816
980.6541, 254.7379
981.1362, 256.3766
981.6183, 263.1444
982.1005, 270.1010
982.5826, 265.7520
983.0647, 253.3067
983.5468, 247.0358
984.0289, 252.2248
984.5110, 256.9741
984.9932, 250.2919
985.4753, 241.1042
985.9574, 238.9932
986.4395, 247.0476
986.9216, 250.9267
987.4037, 250.0694
987.8859, 246.8751
988.3680, 240.7777
988.8501, 234.3623
989.3322, 235.2382
989.8143, 242.3186
990.2964, 247.7751
990.7786, 247.2355
991.2607, 244.6231
991.7428, 241.0988
992.2249, 236.8609
992.7070, 231.4595
993.1891, 224.3682
993.6713, 221.4598
994.1534, 225.3301
994.6355, 231.0529
995.1176, 233.1665
995.5997, 232.5580
996.0818, 230.3822
996.5640, 225.6168
997.0461, 222.3901
997.5282, 221.7731
998.0103, 222.2863
998.4924, 223.7736
998.9745, 226.0412
999.4567, 223.3103
999.9388, 215.6449
1000.421, 209.4120
1000.903, 210.4062
1001.385, 213.5126
1001.867, 215.3737
1002.349, 215.7400
1002.831, 214.2163
1003.314, 210.1580
1003.796, 205.7069
1004.278, 200.8048
1004.760, 196.5586
1005.242, 195.4193
1005.724, 196.7056
1006.206, 198.5089
1006.688, 200.5995
1007.171, 202.1966
1007.653, 204.2913
1008.135, 204.6795
1008.617, 200.4092
1009.099, 188.9565
1009.581, 186.9231
1010.063, 195.9183
1010.545, 203.8646
1011.027, 198.4845
1011.510, 188.1629
1011.992, 185.6107
1012.474, 189.8568
1012.956, 192.2470
1013.438, 188.0463
1013.920, 183.9034
1014.402, 181.4511
1014.884, 180.1345
1015.367, 178.7233
1015.849, 177.2610
1016.331, 176.1500
1016.813, 175.5871
1017.295, 175.1103
1017.777, 173.8795
1018.259, 172.7831
1018.741, 173.2378
1019.223, 177.0127
1019.706, 176.4209
1020.188, 169.8790
1020.670, 163.1838
1021.152, 160.2583
1021.634, 160.3876
1022.116, 163.0518
1022.598, 167.4890
1023.080, 169.7631
1023.563, 166.2652
1024.045, 162.0217
1024.527, 158.4649
1025.009, 155.6653
1025.491, 154.1635
1025.973, 154.0702
1026.455, 152.7716
1026.937, 149.2754
1027.419, 146.3613
1027.901, 148.9450
1028.384, 152.9572
1028.866, 152.9409
1029.348, 146.5054
1029.830, 142.4757
1030.312, 142.3999
1030.794, 143.1835
1031.276, 143.2136
1031.758, 142.6865
1032.241, 142.9626
1032.723, 143.6596
1033.205, 142.7865
1033.687, 138.2475
1034.169, 132.9904
1034.651, 127.3479
1035.133, 122.3983
1035.615, 120.3261
1036.098, 121.8565
1036.580, 122.5893
1037.062, 121.8122
1037.544, 121.0734
1038.026, 123.8446
1038.508, 126.8237
1038.990, 124.0531
1039.472, 114.0848
1039.954, 108.5778
1040.437, 114.3071
1040.919, 118.7866
1041.401, 116.1010
1041.883, 109.0487
1042.365, 109.3813
1042.847, 115.6958
1043.329, 119.8531
1043.811, 117.1590
1044.293, 113.1905
1044.776, 110.7717
1045.258, 109.3392
1045.740, 107.9912
1046.222, 106.2229
1046.704, 106.7557
1047.186, 110.3573
1047.668, 113.0630
1048.150, 109.4904
1048.633, 103.7524
1049.115, 102.8865
1049.597, 106.6378
1050.079, 108.4149
1050.561, 104.2420
1051.043, 100.1208
1051.525, 97.87431
1052.007, 96.42169
1052.490, 91.52763
1052.972, 84.47523
1053.454, 83.34550
1053.936, 92.38129
1054.418, 101.1126
1054.900, 102.0172
1055.382, 99.12553
1055.864, 95.69505
1056.346, 91.43264
1056.828, 90.31167
1057.311, 92.94427
1057.793, 95.15471
1058.275, 92.83669
1058.757, 89.28651
1059.239, 90.53564
1059.721, 94.77939
1060.203, 96.44791
1060.685, 90.56197
1061.168, 86.37037
1061.650, 85.69722
1062.132, 86.60796
1062.614, 86.46020
1063.096, 85.49868
1063.578, 85.10717
1064.060, 85.54353
1064.542, 85.16096
1065.025, 81.23064
1065.507, 77.51523
1065.989, 76.97854
1066.471, 79.19379
1066.953, 81.79136
1067.435, 85.02708
1067.917, 86.26332
1068.399, 83.67193
1068.881, 80.07710
1069.364, 79.17772
1069.846, 79.68239
1070.328, 79.49258
1070.810, 77.43893
1071.292, 75.75220
1071.774, 73.83485
1072.256, 73.53179
1072.738, 78.40228
1073.220, 86.07935
1073.703, 86.54706
1074.185, 80.68159
1074.667, 75.57427
1075.149, 75.68407
1075.631, 76.45271
1076.113, 75.39084
1076.595, 73.97729
1077.077, 75.70564
1077.559, 80.67465
1078.042, 83.73862
1078.524, 83.87612
1079.006, 82.97392
1079.488, 82.01757
1079.970, 81.43325
1080.452, 81.99673
1080.934, 84.03297
1081.416, 84.29044
1081.899, 82.10612
1082.381, 80.22084
1082.863, 80.05048
1083.345, 80.62970
1083.827, 79.70583
1084.309, 78.11634
1084.791, 77.77682
1085.273, 81.05027
1085.755, 82.59670
1086.238, 79.86725
1086.720, 77.11522
1087.202, 78.49593
1087.684, 83.40925
1088.166, 87.21915
1088.648, 89.66582
1089.130, 89.66261
1089.612, 83.35044
1090.094, 77.57198
1090.577, 77.37533
1091.059, 80.57601
1091.541, 81.32264
1092.023, 79.09824
1092.505, 78.39434
1092.987, 80.21378
1093.469, 82.36821
1093.951, 82.85690
1094.434, 82.18780
1094.916, 80.10973
1095.398, 76.29230
1095.880, 76.25500
1096.362, 81.89244
1096.844, 87.37447
1097.326, 90.70131
1097.808, 92.22841
1098.291, 92.17353
1098.773, 90.97355
1099.255, 89.64007
1099.737, 87.72220
1100.219, 87.32590
1100.701, 91.62396
1101.183, 94.90441
1101.665, 91.17103
1102.147, 81.18173
1102.630, 80.35670
1103.112, 87.79186
1103.594, 93.71976
1104.076, 89.55753
1104.558, 84.71366
1105.040, 84.48171
1105.522, 87.56598
1106.004, 91.55785
1106.486, 97.11015
1106.969, 98.58596
1107.451, 94.71885
1107.933, 91.14336
1108.415, 95.44501
1108.897, 101.6040
1109.379, 102.1848
1109.861, 96.77360
1110.343, 95.10853
1110.826, 99.00656
1111.308, 103.2191
1111.790, 106.3541
1112.272, 108.6133
1112.754, 109.7933
1113.236, 110.5219
1113.718, 112.4963
1114.200, 117.2938
1114.682, 119.1515
1115.165, 114.8261
1115.647, 110.0083
1116.129, 107.7030
1116.611, 107.5532
1117.093, 107.9355
1117.575, 108.8818
1118.057, 110.5531
1118.539, 115.5635
1119.021, 118.3113
1119.504, 113.4315
1119.986, 106.9663
1120.468, 105.6256
1120.950, 109.7202
1121.432, 115.2897
1121.914, 122.1990
1122.396, 126.4934
1122.878, 123.1908
1123.361, 117.8463
1123.843, 114.0588
1124.325, 111.9572
1124.807, 110.9234
1125.289, 111.0819
1125.771, 111.9068
1126.253, 113.5293
1126.735, 114.8959
1127.218, 114.1042
1127.700, 112.7042
1128.182, 113.0743
1128.664, 115.6730
1129.146, 116.4116
1129.628, 113.7533
1130.110, 112.1343
1130.592, 113.3493
1131.074, 116.1698
1131.557, 119.0785
1132.039, 121.5085
1132.521, 122.0363
1133.003, 119.8757
1133.485, 116.9390
1133.967, 112.6942
1134.449, 109.0810
1134.931, 107.2735
1135.413, 107.0584
1135.896, 107.3907
1136.378, 108.3025
1136.860, 109.9635
1137.342, 113.7304
1137.824, 116.7106
1138.306, 118.0211
1138.788, 117.7531
1139.270, 115.0001
1139.752, 109.7517
1140.235, 108.1170
1140.717, 110.3056
1141.199, 114.1267
1141.681, 121.0495
1142.163, 126.1298
1142.645, 123.1487
1143.127, 116.0426
1143.609, 116.6130
1144.092, 126.2807
1144.574, 132.0407
1145.056, 131.6095
1145.538, 129.4241
1146.020, 130.1416
1146.502, 131.1694
1146.984, 129.3188
1147.466, 124.4553
1147.948, 121.8316
1148.431, 122.1891
1148.913, 122.0706
1149.395, 119.8420
1149.877, 118.0278
1150.359, 121.2858
1150.841, 126.8724
1151.323, 130.9137
1151.805, 132.3790
1152.287, 133.1708
1152.770, 133.6586
1153.252, 132.9351
1153.734, 129.5158
1154.216, 125.4278
1154.698, 126.4191
1155.180, 130.3803
1155.662, 132.2347
1156.144, 127.9175
1156.627, 125.7428
1157.109, 127.5662
1157.591, 130.2480
1158.073, 131.6889
1158.555, 131.9350
1159.037, 130.4915
1159.519, 127.8427
1160.001, 126.2996
1160.484, 127.5930
1160.966, 129.4288
1161.448, 131.8444
1161.930, 133.7760
1162.412, 133.3267
1162.894, 131.0163
1163.376, 131.4967
1163.858, 134.8691
1164.340, 135.6022
1164.823, 125.5542
1165.305, 117.3706
1165.787, 119.3441
1166.269, 126.2000
1166.751, 126.4403
1167.233, 120.5832
1167.715, 117.2821
1168.197, 118.1585
1168.679, 119.7911
1169.162, 119.5709
1169.644, 119.1426
1170.126, 119.8420
1170.608, 121.3961
1171.090, 122.6385
1171.572, 123.5645
1172.054, 123.6406
1172.536, 122.4403
1173.019, 121.2348
1173.501, 120.3708
1173.983, 120.5926
1174.465, 123.4511
1174.947, 129.0529
1175.429, 131.8692
1175.911, 131.6725
1176.393, 130.9995
1176.875, 131.7091
1177.358, 131.2421
1177.840, 125.2277
1178.322, 117.0343
1178.804, 111.4492
1179.286, 108.8875
1179.768, 109.3148
1180.250, 113.2424
1180.732, 116.9775
1181.214, 118.2405
1181.697, 117.8732
1182.179, 115.0543
1182.661, 111.7304
1183.143, 112.5365
1183.625, 121.8469
1184.107, 126.1075
1184.589, 123.9832
1185.071, 120.5523
1185.554, 119.4293
1186.036, 120.1102
1186.518, 123.1369
1187.000, 127.5328
1187.482, 129.4362
1187.964, 126.3076
1188.446, 124.8985
1188.928, 126.2419
1189.411, 128.4419
1189.893, 129.9806
1190.375, 130.6465
1190.857, 130.2287
1191.339, 128.6675
1191.821, 125.3251
1192.303, 117.8529
1192.785, 112.8850
1193.267, 111.6509
1193.750, 113.4395
1194.232, 119.8401
1194.714, 127.4951
1195.196, 129.6778
1195.678, 125.3693
1196.160, 122.2245
1196.642, 121.1902
1197.124, 123.1404
1197.606, 129.9168
1198.089, 137.2990
1198.571, 135.9023
1199.053, 129.4883
1199.535, 125.2782
1200.017, 124.7743
1200.499, 126.6006
1200.981, 132.7323
1201.463, 137.0072
1201.945, 136.0048
1202.428, 132.4443
1202.910, 132.9208
1203.392, 135.7908
1203.874, 137.2706
1204.356, 136.1306
1204.838, 133.9510
1205.320, 129.4595
1205.802, 126.7473
1206.285, 129.0640
1206.767, 134.1961
1207.249, 135.8113
1207.731, 134.8365
1208.213, 133.6514
1208.695, 132.3242
1209.177, 132.4817
1209.659, 135.1433
1210.141, 137.8476
1210.624, 138.6311
1211.106, 138.0947
1211.588, 137.9025
1212.070, 138.1054
1212.552, 138.8735
1213.034, 140.2418
1213.516, 142.5026
1213.998, 147.0699
1214.480, 150.1820
1214.963, 147.2749
1215.445, 140.3983
1215.927, 135.5869
1216.409, 132.8569
1216.891, 131.5186
1217.373, 132.1545
1217.855, 132.9961
1218.337, 133.6478
1218.820, 134.5257
1219.302, 136.7832
1219.784, 139.5054
1220.266, 139.4773
1220.748, 137.0393
1221.230, 135.4348
1221.712, 136.9504
1222.194, 137.9165
1222.677, 136.8302
1223.159, 136.3018
1223.641, 142.0823
1224.123, 150.5636
1224.605, 152.8452
1225.087, 148.5045
1225.569, 142.1142
1226.051, 130.5428
1226.533, 124.1103
1227.016, 126.0146
1227.498, 132.1416
1227.980, 138.0548
1228.462, 142.6954
1228.944, 142.7094
1229.426, 137.7948
1229.908, 134.2687
1230.390, 135.1107
1230.872, 135.6948
1231.355, 134.6645
1231.837, 133.2141
1232.319, 134.3286
1232.801, 136.2237
1233.283, 134.6799
1233.765, 128.7066
1234.247, 125.1453
1234.729, 126.2347
1235.212, 128.1143
1235.694, 129.8978
1236.176, 131.3722
1236.658, 132.0845
1237.140, 132.2278
1237.622, 131.9167
1238.104, 130.9913
1238.586, 131.1339
1239.068, 132.9219
1239.551, 134.5568
1240.033, 135.2360
1240.515, 135.6296
1240.997, 138.8692
1241.479, 141.8438
1241.961, 138.0499
1242.443, 123.3061
1242.925, 117.3055
1243.407, 123.8156
1243.890, 129.1666
1244.372, 126.5746
1244.854, 120.8755
1245.336, 117.9685
1245.818, 117.6934
1246.300, 120.5612
1246.782, 128.5000
1247.264, 132.0915
1247.747, 130.4058
1248.229, 128.7559
1248.711, 130.8648
1249.193, 132.8050
1249.675, 127.0237
1250.157, 118.9625
1250.639, 117.8680
1251.121, 127.1972
1251.604, 130.5916
1252.086, 127.4332
1252.568, 122.9161
1253.050, 119.3457
1253.532, 116.5160
1254.014, 113.9181
1254.496, 112.1659
1254.978, 112.3774
1255.460, 114.9186
1255.943, 117.0220
1256.425, 118.6833
1256.907, 120.0763
1257.389, 122.1656
1257.871, 123.0601
1258.353, 120.6743
1258.835, 116.4611
1259.317, 112.3273
1259.799, 108.2042
1260.281, 104.4532
1260.764, 101.1399
1261.246, 100.2998
1261.728, 106.6577
1262.210, 111.8458
1262.692, 109.8683
1263.174, 104.9744
1263.656, 102.0747
1264.138, 101.0960
1264.621, 97.75868
1265.103, 92.43478
1265.585, 88.99307
1266.067, 91.31744
1266.549, 93.96599
1267.031, 95.48588
1267.513, 95.63898
1267.995, 93.29664
1268.478, 89.12218
1268.960, 86.99402
1269.442, 86.96914
1269.924, 88.71184
1270.406, 94.56830
1270.888, 98.81940
1271.370, 101.1158
1271.852, 100.2718
1272.334, 92.05846
1272.817, 80.32218
1273.299, 77.99974
1273.781, 83.45799
1274.263, 87.33112
1274.745, 82.59423
1275.227, 81.84560
1275.709, 88.48712
1276.191, 94.64021
1276.673, 91.33186
1277.156, 82.80399
1277.638, 75.04696
1278.120, 68.94541
1278.602, 66.45750
1279.084, 70.06403
1279.566, 72.63548
1280.048, 73.44010
1280.530, 74.00374
1281.013, 76.06661
1281.495, 78.47986
1281.977, 80.37228
1282.459, 81.40788
1282.941, 80.52044
1283.423, 77.21218
1283.905, 73.91199
1284.387, 70.65423
1284.870, 68.72391
1285.352, 71.05349
1285.834, 73.44800
1286.316, 72.16460
1286.798, 68.30481
1287.280, 64.76404
1287.762, 61.49812
1288.244, 59.56707
1288.726, 59.06735
##END=



