##NAMES=Minium
##RRUFFID=R050426
##IDEAL CHEMISTRY=Pb^2+^_2_Pb^4+^O_4_
##LOCALITY=El Chichi mine, Culiacan, Sinalog, Mexico
##OWNER=RRUFF
##SOURCE=University of Arizona Mineral Museum
##DESCRIPTION=Orange earthy coating
##STATUS=The identification of this mineral has been confirmed by X-ray diffraction and chemical analysis
##URL=rruff.info/R050426
##MEASURED CHEMISTRY=Pb^2+^_2.00_Pb^4+^_1.00_O_4_
145.8163, 3701.987
146.2984, 3784.533
146.7805, 3866.639
147.2626, 3930.048
147.7448, 3960.434
148.2269, 3993.243
148.7090, 4037.070
149.1911, 4093.338
149.6732, 4130.226
150.1554, 4130.488
150.6375, 4120.194
151.1196, 4123.496
151.6017, 4151.486
152.0838, 4182.302
152.5659, 4209.416
153.0481, 4228.085
153.5302, 4262.387
154.0123, 4313.102
154.4944, 4380.206
154.9765, 4463.672
155.4586, 4585.725
155.9408, 4705.794
156.4229, 4807.009
156.9050, 4854.007
157.3871, 4889.758
157.8692, 4943.250
158.3513, 5013.000
158.8335, 5090.116
159.3156, 5180.820
159.7977, 5273.032
160.2798, 5361.747
160.7619, 5463.938
161.2440, 5541.147
161.7262, 5584.273
162.2083, 5594.760
162.6904, 5576.082
163.1725, 5542.451
163.6546, 5475.189
164.1367, 5359.985
164.6189, 5130.115
165.1010, 4903.702
165.5831, 4734.274
166.0652, 4620.343
166.5473, 4530.886
167.0294, 4467.289
167.5116, 4415.084
167.9937, 4357.836
168.4758, 4270.250
168.9579, 4187.896
169.4400, 4137.739
169.9221, 4122.884
170.4043, 4120.123
170.8864, 4116.600
171.3685, 4113.800
171.8506, 4114.487
172.3327, 4126.475
172.8148, 4139.421
173.2970, 4141.141
173.7791, 4127.669
174.2612, 4112.935
174.7433, 4113.155
175.2254, 4123.312
175.7076, 4128.458
176.1897, 4113.077
176.6718, 4089.389
177.1539, 4075.263
177.6360, 4076.322
178.1181, 4083.289
178.6003, 4084.274
179.0824, 4080.661
179.5645, 4080.927
180.0466, 4096.291
180.5287, 4119.770
181.0108, 4135.413
181.4930, 4136.501
181.9751, 4131.022
182.4572, 4132.209
182.9393, 4139.853
183.4214, 4147.317
183.9035, 4145.963
184.3857, 4138.920
184.8678, 4137.186
185.3499, 4148.273
185.8320, 4165.542
186.3141, 4171.098
186.7962, 4163.834
187.2784, 4155.879
187.7605, 4163.998
188.2426, 4185.152
188.7247, 4200.502
189.2068, 4193.822
189.6889, 4173.785
190.1711, 4178.715
190.6532, 4212.914
191.1353, 4255.271
191.6174, 4272.810
192.0995, 4266.554
192.5816, 4266.061
193.0638, 4294.850
193.5459, 4347.138
194.0280, 4372.489
194.5101, 4365.109
194.9922, 4340.670
195.4743, 4321.321
195.9565, 4306.899
196.4386, 4303.396
196.9207, 4318.921
197.4028, 4352.987
197.8849, 4382.470
198.3671, 4405.882
198.8492, 4424.275
199.3313, 4438.304
199.8134, 4446.781
200.2955, 4457.671
200.7776, 4478.448
201.2598, 4509.961
201.7419, 4535.991
202.2240, 4553.899
202.7061, 4565.546
203.1882, 4577.130
203.6703, 4588.246
204.1525, 4600.314
204.6346, 4614.131
205.1167, 4629.458
205.5988, 4646.729
206.0809, 4662.992
206.5630, 4680.923
207.0452, 4721.047
207.5273, 4793.174
208.0094, 4865.363
208.4915, 4908.166
208.9736, 4915.073
209.4557, 4920.634
209.9379, 4931.454
210.4200, 4947.211
210.9021, 4959.321
211.3842, 4960.098
211.8663, 4970.355
212.3484, 5016.624
212.8306, 5109.722
213.3127, 5202.400
213.7948, 5288.230
214.2769, 5367.914
214.7590, 5417.000
215.2411, 5421.051
215.7233, 5412.310
216.2054, 5433.695
216.6875, 5497.517
217.1696, 5557.623
217.6517, 5597.507
218.1338, 5612.659
218.6160, 5645.274
219.0981, 5705.818
219.5802, 5774.406
220.0623, 5818.813
220.5444, 5829.949
221.0265, 5836.236
221.5087, 5844.577
221.9908, 5852.751
222.4729, 5874.884
222.9550, 5920.780
223.4371, 5974.424
223.9192, 6006.759
224.4014, 6010.833
224.8835, 6005.982
225.3656, 5999.659
225.8477, 5994.088
226.3298, 5978.831
226.8119, 5947.054
227.2941, 5908.389
227.7762, 5885.339
228.2583, 5888.047
228.7404, 5889.824
229.2225, 5878.707
229.7046, 5849.215
230.1868, 5820.310
230.6689, 5795.179
231.1510, 5770.052
231.6331, 5732.000
232.1152, 5669.969
232.5974, 5611.974
233.0795, 5572.274
233.5616, 5564.636
234.0437, 5545.288
234.5258, 5509.703
235.0079, 5462.073
235.4901, 5415.338
235.9722, 5367.729
236.4543, 5323.995
236.9364, 5287.056
237.4185, 5259.654
237.9006, 5233.602
238.3828, 5210.158
238.8649, 5187.937
239.3470, 5158.806
239.8291, 5113.632
240.3112, 5073.060
240.7933, 5050.961
241.2755, 5057.909
241.7576, 5059.932
242.2397, 5053.938
242.7218, 5040.760
243.2039, 5024.300
243.6860, 4999.436
244.1682, 4977.625
244.6503, 4968.378
245.1324, 4982.967
245.6145, 4985.248
246.0966, 4967.417
246.5787, 4933.146
247.0609, 4906.618
247.5430, 4888.663
248.0251, 4877.498
248.5072, 4874.060
248.9893, 4887.353
249.4714, 4888.275
249.9536, 4868.198
250.4357, 4830.465
250.9178, 4805.858
251.3999, 4801.660
251.8820, 4801.533
252.3641, 4792.721
252.8463, 4769.653
253.3284, 4750.449
253.8105, 4736.298
254.2926, 4727.529
254.7747, 4730.203
255.2568, 4753.309
255.7390, 4776.144
256.2211, 4781.120
256.7032, 4758.948
257.1853, 4741.311
257.6674, 4733.026
258.1495, 4733.498
258.6317, 4738.235
259.1138, 4751.326
259.5959, 4762.733
260.0780, 4762.063
260.5601, 4741.810
261.0422, 4729.184
261.5244, 4730.189
262.0065, 4743.507
262.4886, 4753.735
262.9707, 4759.200
263.4528, 4764.367
263.9349, 4774.021
264.4171, 4791.238
264.8992, 4804.395
265.3813, 4812.716
265.8634, 4815.818
266.3455, 4808.188
266.8276, 4783.590
267.3098, 4759.362
267.7919, 4750.505
268.2740, 4759.857
268.7561, 4775.682
269.2382, 4800.394
269.7203, 4831.100
270.2025, 4842.153
270.6846, 4826.606
271.1667, 4805.755
271.6488, 4797.037
272.1309, 4801.551
272.6130, 4814.501
273.0952, 4839.482
273.5773, 4872.905
274.0594, 4888.078
274.5415, 4878.276
275.0236, 4868.500
275.5057, 4886.671
275.9879, 4939.000
276.4700, 4974.975
276.9521, 4979.684
277.4342, 4960.876
277.9163, 4958.995
278.3984, 4978.075
278.8806, 5000.141
279.3627, 5006.287
279.8448, 4994.821
280.3269, 4993.667
280.8090, 5011.092
281.2911, 5041.767
281.7733, 5066.364
282.2554, 5084.148
282.7375, 5098.868
283.2196, 5113.508
283.7017, 5127.978
284.1838, 5140.084
284.6660, 5147.410
285.1481, 5153.149
285.6302, 5168.704
286.1123, 5195.023
286.5944, 5222.925
287.0765, 5244.032
287.5587, 5259.134
288.0408, 5277.069
288.5229, 5300.517
289.0050, 5327.102
289.4871, 5351.150
289.9692, 5372.792
290.4514, 5393.941
290.9335, 5415.294
291.4156, 5437.270
291.8977, 5461.029
292.3798, 5486.370
292.8619, 5514.440
293.3441, 5548.334
293.8262, 5588.070
294.3083, 5628.089
294.7904, 5663.558
295.2726, 5696.201
295.7547, 5731.659
296.2368, 5770.422
296.7189, 5812.676
297.2010, 5858.446
297.6831, 5907.400
298.1653, 5958.695
298.6474, 6017.330
299.1295, 6077.226
299.6116, 6125.462
300.0937, 6156.898
300.5758, 6181.725
301.0580, 6212.271
301.5401, 6247.018
302.0222, 6280.106
302.5043, 6301.113
302.9864, 6319.612
303.4685, 6354.025
303.9507, 6414.018
304.4328, 6471.696
304.9149, 6494.898
305.3970, 6491.741
305.8791, 6486.587
306.3612, 6490.473
306.8434, 6500.926
307.3255, 6516.318
307.8076, 6537.551
308.2897, 6559.050
308.7718, 6582.438
309.2539, 6602.751
309.7361, 6609.017
310.2182, 6580.772
310.7003, 6544.722
311.1824, 6526.148
311.6645, 6530.861
312.1466, 6535.237
312.6288, 6516.280
313.1109, 6488.048
313.5930, 6473.979
314.0751, 6502.688
314.5572, 6535.023
315.0393, 6546.963
315.5215, 6535.496
316.0036, 6513.124
316.4857, 6470.959
316.9678, 6425.146
317.4499, 6395.941
317.9320, 6411.371
318.4142, 6426.859
318.8963, 6420.859
319.3784, 6390.933
319.8605, 6360.893
320.3426, 6336.854
320.8247, 6317.124
321.3069, 6300.236
321.7890, 6281.966
322.2711, 6269.754
322.7532, 6268.313
323.2353, 6277.695
323.7174, 6284.661
324.1996, 6291.969
324.6817, 6292.991
325.1638, 6282.544
325.6459, 6249.105
326.1280, 6216.043
326.6101, 6186.282
327.0923, 6159.760
327.5744, 6135.904
328.0565, 6116.308
328.5386, 6098.351
329.0207, 6080.460
329.5028, 6063.531
329.9850, 6046.232
330.4671, 6026.708
330.9492, 6006.504
331.4313, 5992.664
331.9134, 5992.171
332.3955, 5991.013
332.8777, 5981.919
333.3598, 5962.851
333.8419, 5939.213
334.3240, 5904.424
334.8061, 5866.329
335.2882, 5849.868
335.7704, 5869.838
336.2525, 5885.403
336.7346, 5874.777
337.2167, 5825.883
337.6988, 5792.391
338.1809, 5776.769
338.6631, 5773.810
339.1452, 5774.541
339.6273, 5779.472
340.1094, 5786.340
340.5915, 5797.504
341.0736, 5814.109
341.5558, 5815.933
342.0379, 5801.025
342.5200, 5776.085
343.0021, 5743.908
343.4842, 5703.384
343.9663, 5678.395
344.4485, 5684.717
344.9306, 5716.259
345.4127, 5733.943
345.8948, 5736.566
346.3769, 5733.826
346.8590, 5737.045
347.3412, 5745.116
347.8233, 5749.142
348.3054, 5746.088
348.7875, 5737.419
349.2696, 5720.367
349.7517, 5695.179
350.2339, 5681.051
350.7160, 5710.752
351.1981, 5764.879
351.6802, 5792.334
352.1623, 5767.450
352.6444, 5725.588
353.1266, 5714.000
353.6087, 5728.453
354.0908, 5747.274
354.5729, 5755.475
355.0550, 5759.102
355.5371, 5767.022
356.0193, 5782.908
356.5014, 5799.408
356.9835, 5813.477
357.4656, 5823.785
357.9477, 5826.376
358.4298, 5811.315
358.9120, 5792.838
359.3941, 5781.419
359.8762, 5778.307
360.3583, 5783.460
360.8404, 5805.387
361.3225, 5834.333
361.8047, 5854.985
362.2868, 5847.951
362.7689, 5842.519
363.2510, 5856.030
363.7331, 5892.401
364.2152, 5923.165
364.6974, 5932.887
365.1795, 5935.035
365.6616, 5943.447
366.1437, 5969.188
366.6258, 5992.781
367.1079, 6005.453
367.5901, 6007.275
368.0722, 6020.658
368.5543, 6064.387
369.0364, 6110.315
369.5185, 6139.284
370.0006, 6128.785
370.4828, 6131.607
370.9649, 6159.621
371.4470, 6205.838
371.9291, 6237.038
372.4112, 6240.268
372.8933, 6244.050
373.3755, 6263.749
373.8576, 6309.155
374.3397, 6345.444
374.8218, 6367.328
375.3039, 6381.818
375.7861, 6405.788
376.2682, 6443.425
376.7503, 6477.433
377.2324, 6495.621
377.7145, 6495.381
378.1967, 6517.764
378.6788, 6568.694
379.1609, 6629.278
379.6430, 6674.907
380.1251, 6704.923
380.6072, 6728.813
381.0894, 6745.341
381.5715, 6758.454
382.0536, 6787.554
382.5357, 6834.773
383.0178, 6882.087
383.4999, 6909.792
383.9821, 6922.272
384.4642, 6940.276
384.9463, 6975.099
385.4284, 7011.054
385.9105, 7017.420
386.3926, 6997.854
386.8748, 6982.745
387.3569, 7004.230
387.8390, 7040.583
388.3211, 7055.787
388.8032, 7038.571
389.2853, 7012.341
389.7675, 6997.930
390.2496, 6990.682
390.7317, 6979.622
391.2138, 6951.617
391.6959, 6922.806
392.1780, 6909.838
392.6602, 6918.414
393.1423, 6917.955
393.6244, 6879.886
394.1065, 6828.233
394.5886, 6792.538
395.0707, 6793.826
395.5529, 6802.586
396.0350, 6808.245
396.5171, 6810.416
396.9992, 6815.397
397.4813, 6835.166
397.9634, 6851.743
398.4456, 6852.646
398.9277, 6813.935
399.4098, 6785.101
399.8919, 6772.437
400.3740, 6773.694
400.8561, 6780.533
401.3383, 6805.722
401.8204, 6822.961
402.3025, 6817.733
402.7846, 6769.944
403.2667, 6750.257
403.7488, 6775.808
404.2310, 6818.226
404.7131, 6821.532
405.1952, 6765.421
405.6773, 6727.424
406.1594, 6741.186
406.6415, 6806.517
407.1237, 6847.856
407.6058, 6860.085
408.0879, 6861.054
408.5700, 6870.145
409.0521, 6887.441
409.5342, 6898.126
410.0164, 6893.989
410.4985, 6883.981
410.9806, 6894.154
411.4627, 6924.563
411.9448, 6957.075
412.4269, 6981.338
412.9091, 6997.634
413.3912, 7004.125
413.8733, 6997.667
414.3554, 6990.038
414.8375, 6996.575
415.3196, 7013.831
415.8018, 7031.481
416.2839, 7043.824
416.7660, 7053.940
417.2481, 7064.515
417.7302, 7075.911
418.2123, 7087.629
418.6945, 7090.546
419.1766, 7096.165
419.6587, 7118.899
420.1408, 7196.499
420.6229, 7262.537
421.1050, 7279.196
421.5872, 7251.993
422.0693, 7229.198
422.5514, 7228.462
423.0335, 7234.996
423.5156, 7239.206
423.9977, 7229.637
424.4799, 7231.574
424.9620, 7256.666
425.4441, 7294.900
425.9262, 7321.750
426.4083, 7318.871
426.8904, 7324.690
427.3726, 7356.598
427.8547, 7425.629
428.3368, 7467.744
428.8189, 7468.646
429.3010, 7457.518
429.7831, 7470.464
430.2653, 7515.902
430.7474, 7557.190
431.2295, 7586.638
431.7116, 7605.597
432.1937, 7619.221
432.6758, 7626.662
433.1580, 7633.665
433.6401, 7640.269
434.1222, 7647.737
434.6043, 7674.326
435.0864, 7728.903
435.5685, 7788.364
436.0507, 7808.769
436.5328, 7796.211
437.0149, 7789.245
437.4970, 7807.500
437.9791, 7844.009
438.4612, 7892.044
438.9434, 7952.145
439.4255, 8008.225
439.9076, 8047.461
440.3897, 8073.991
440.8718, 8093.344
441.3539, 8101.941
441.8361, 8110.436
442.3182, 8123.137
442.8003, 8140.963
443.2824, 8167.426
443.7645, 8218.537
444.2466, 8269.778
444.7288, 8300.837
445.2109, 8289.244
445.6930, 8298.054
446.1751, 8357.044
446.6572, 8441.912
447.1393, 8511.195
447.6215, 8539.938
448.1036, 8572.831
448.5857, 8617.189
449.0678, 8671.255
449.5499, 8752.560
450.0320, 8887.790
450.5142, 9021.724
450.9963, 9105.033
451.4784, 9118.622
451.9605, 9134.057
452.4426, 9156.446
452.9247, 9188.289
453.4069, 9240.441
453.8890, 9315.333
454.3711, 9399.559
454.8532, 9490.321
455.3353, 9586.882
455.8174, 9674.444
456.2996, 9751.029
456.7817, 9826.309
457.2638, 9912.063
457.7459, 10006.58
458.2281, 10106.06
458.7102, 10206.67
459.1923, 10311.81
459.6744, 10431.79
460.1565, 10565.41
460.6386, 10686.33
461.1208, 10762.30
461.6029, 10825.48
462.0850, 10913.29
462.5671, 11039.92
463.0492, 11179.81
463.5313, 11332.34
464.0135, 11489.11
464.4956, 11631.69
464.9777, 11734.47
465.4598, 11842.89
465.9419, 11980.51
466.4240, 12153.89
466.9062, 12319.32
467.3883, 12462.16
467.8704, 12597.52
468.3525, 12740.01
468.8346, 12894.27
469.3167, 13043.67
469.7989, 13186.23
470.2810, 13321.68
470.7631, 13455.98
471.2452, 13598.78
471.7273, 13718.90
472.2094, 13797.33
472.6916, 13829.08
473.1737, 13868.17
473.6558, 13920.17
474.1379, 13967.69
474.6200, 13989.99
475.1021, 13987.72
475.5843, 13970.41
476.0664, 13937.92
476.5485, 13894.87
477.0306, 13856.19
477.5127, 13820.20
477.9948, 13769.20
478.4770, 13685.89
478.9591, 13580.32
479.4412, 13466.52
479.9233, 13343.95
480.4054, 13219.30
480.8875, 13097.86
481.3697, 12977.28
481.8518, 12854.71
482.3339, 12735.27
482.8160, 12607.72
483.2981, 12462.72
483.7802, 12299.60
484.2624, 12138.83
484.7445, 11975.88
485.2266, 11821.18
485.7087, 11681.27
486.1908, 11557.97
486.6729, 11448.74
487.1551, 11364.79
487.6372, 11291.56
488.1193, 11196.90
488.6014, 11061.05
489.0835, 10942.85
489.5656, 10865.39
490.0478, 10829.70
490.5299, 10780.76
491.0120, 10715.25
491.4941, 10645.08
491.9762, 10580.03
492.4583, 10520.48
492.9405, 10456.33
493.4226, 10379.03
493.9047, 10307.56
494.3868, 10287.35
494.8689, 10310.48
495.3510, 10321.96
495.8332, 10271.35
496.3153, 10197.54
496.7974, 10165.30
497.2795, 10177.18
497.7616, 10195.32
498.2437, 10186.02
498.7259, 10168.22
499.2080, 10166.56
499.6901, 10208.07
500.1722, 10241.39
500.6543, 10233.75
501.1364, 10198.82
501.6186, 10173.25
502.1007, 10173.90
502.5828, 10180.97
503.0649, 10184.36
503.5470, 10178.36
504.0291, 10190.73
504.5113, 10236.68
504.9934, 10291.04
505.4755, 10330.63
505.9576, 10348.29
506.4397, 10367.38
506.9218, 10389.92
507.4040, 10416.14
507.8861, 10444.17
508.3682, 10471.36
508.8503, 10512.27
509.3324, 10585.21
509.8145, 10683.99
510.2967, 10752.19
510.7788, 10785.02
511.2609, 10811.29
511.7430, 10860.85
512.2252, 10928.60
512.7073, 11000.28
513.1894, 11070.94
513.6715, 11144.67
514.1536, 11228.96
514.6357, 11320.87
515.1179, 11410.30
515.6000, 11495.87
516.0821, 11574.19
516.5642, 11635.58
517.0463, 11672.45
517.5284, 11735.50
518.0106, 11869.00
518.4927, 12024.79
518.9748, 12154.07
519.4569, 12211.77
519.9390, 12289.81
520.4211, 12402.19
520.9033, 12542.49
521.3854, 12686.82
521.8675, 12831.07
522.3496, 12986.83
522.8317, 13162.24
523.3138, 13360.06
523.7960, 13555.69
524.2781, 13748.73
524.7602, 13945.65
525.2423, 14153.64
525.7244, 14373.20
526.2065, 14609.56
526.6887, 14860.42
527.1708, 15131.03
527.6529, 15428.08
528.1350, 15748.32
528.6171, 16083.80
529.0992, 16433.03
529.5814, 16791.95
530.0635, 17160.10
530.5456, 17533.70
531.0277, 17924.55
531.5098, 18334.67
531.9919, 18761.21
532.4741, 19206.63
532.9562, 19670.01
533.4383, 20147.31
533.9204, 20630.68
534.4025, 21126.02
534.8846, 21634.89
535.3668, 22165.48
535.8489, 22707.43
536.3310, 23278.60
536.8131, 23880.40
537.2952, 24439.32
537.7773, 24948.70
538.2595, 25420.15
538.7416, 25863.11
539.2237, 26275.58
539.7058, 26686.85
540.1879, 27117.46
540.6700, 27531.56
541.1522, 27867.46
541.6343, 28131.88
542.1164, 28353.88
542.5985, 28565.33
543.0806, 28734.50
543.5627, 28810.35
544.0449, 28793.97
544.5270, 28706.28
545.0091, 28577.10
545.4912, 28374.31
545.9733, 28055.66
546.4554, 27583.73
546.9376, 27069.45
547.4197, 26581.77
547.9018, 26076.45
548.3839, 25499.42
548.8660, 24787.62
549.3481, 24060.59
549.8303, 23333.94
550.3124, 22610.61
550.7945, 21908.26
551.2766, 21242.13
551.7587, 20586.05
552.2408, 19922.88
552.7230, 19245.08
553.2051, 18601.09
553.6872, 17986.18
554.1693, 17415.99
554.6514, 16916.52
555.1335, 16482.42
555.6157, 16084.60
556.0978, 15718.72
556.5799, 15374.33
557.0620, 15033.45
557.5441, 14698.49
558.0262, 14379.44
558.5084, 14077.58
558.9905, 13801.38
559.4726, 13562.37
559.9547, 13363.02
560.4368, 13171.02
560.9189, 12964.40
561.4011, 12764.00
561.8832, 12588.34
562.3653, 12450.17
562.8474, 12324.79
563.3295, 12224.06
563.8116, 12133.61
564.2938, 12023.81
564.7759, 11869.59
565.2580, 11742.94
565.7401, 11675.88
566.2222, 11662.74
566.7043, 11608.07
567.1865, 11502.70
567.6686, 11391.84
568.1507, 11314.54
568.6328, 11264.42
569.1149, 11189.28
569.5970, 11076.63
570.0792, 10967.55
570.5613, 10922.10
571.0434, 10917.76
571.5255, 10901.77
572.0076, 10839.97
572.4897, 10772.92
572.9719, 10737.51
573.4540, 10725.29
573.9361, 10705.97
574.4182, 10659.72
574.9003, 10608.76
575.3824, 10563.83
575.8646, 10525.73
576.3467, 10492.56
576.8288, 10473.31
577.3109, 10452.17
577.7930, 10415.46
578.2751, 10352.91
578.7573, 10301.02
579.2394, 10266.12
579.7215, 10240.75
580.2036, 10206.71
580.6857, 10162.96
581.1678, 10127.27
581.6500, 10109.32
582.1321, 10103.67
582.6142, 10096.64
583.0963, 10088.41
583.5784, 10079.05
584.0605, 10068.66
584.5427, 10057.26
585.0248, 10044.33
585.5069, 10029.16
585.9890, 10015.76
586.4711, 10007.83
586.9532, 10002.59
587.4354, 9996.820
587.9175, 9989.594
588.3996, 9981.668
588.8817, 9968.848
589.3638, 9954.755
589.8459, 9952.314
590.3281, 9970.002
590.8102, 9986.311
591.2923, 9992.763
591.7744, 9989.250
592.2565, 9988.900
592.7386, 9991.729
593.2208, 9997.088
593.7029, 10006.77
594.1850, 10019.53
594.6671, 10026.72
595.1492, 10027.26
595.6313, 10023.01
596.1135, 10008.93
596.5956, 9992.171
597.0777, 9988.691
597.5598, 10024.59
598.0419, 10057.63
598.5240, 10049.65
599.0062, 10012.61
599.4883, 9989.080
599.9704, 10005.98
600.4525, 10029.60
600.9346, 10043.89
601.4167, 10045.01
601.8989, 10051.12
602.3810, 10065.61
602.8631, 10081.12
603.3452, 10091.62
603.8273, 10095.11
604.3094, 10100.03
604.7916, 10106.83
605.2737, 10115.06
605.7558, 10126.32
606.2379, 10139.82
606.7200, 10147.91
607.2021, 10145.54
607.6843, 10138.62
608.1664, 10136.17
608.6485, 10137.83
609.1306, 10141.31
609.6127, 10152.64
610.0948, 10160.33
610.5770, 10149.08
611.0591, 10115.55
611.5412, 10094.53
612.0233, 10118.06
612.5054, 10146.94
612.9875, 10150.74
613.4697, 10081.06
613.9518, 10054.02
614.4339, 10093.49
614.9160, 10159.67
615.3981, 10186.12
615.8802, 10163.39
616.3624, 10138.97
616.8445, 10121.73
617.3266, 10113.21
617.8087, 10123.43
618.2908, 10151.42
618.7729, 10175.66
619.2551, 10182.43
619.7372, 10177.42
620.2193, 10166.18
620.7014, 10149.13
621.1835, 10136.79
621.6656, 10146.11
622.1478, 10158.43
622.6299, 10154.01
623.1120, 10115.18
623.5941, 10089.03
624.0762, 10098.51
624.5583, 10124.13
625.0405, 10137.78
625.5226, 10131.89
626.0047, 10125.21
626.4868, 10118.07
626.9689, 10112.57
627.4510, 10120.19
627.9332, 10144.74
628.4153, 10159.49
628.8974, 10146.94
629.3795, 10114.18
629.8616, 10083.70
630.3438, 10055.49
630.8259, 10038.56
631.3080, 10052.38
631.7901, 10076.93
632.2722, 10082.39
632.7543, 10059.59
633.2365, 10037.42
633.7186, 10036.57
634.2007, 10043.07
634.6828, 10041.17
635.1649, 10014.63
635.6470, 9995.722
636.1292, 9997.699
636.6113, 10008.96
637.0934, 9999.027
637.5755, 9952.123
638.0576, 9923.382
638.5397, 9938.403
639.0219, 9985.764
639.5040, 9996.161
639.9861, 9966.747
640.4682, 9943.067
640.9503, 9970.696
641.4324, 10024.40
641.9146, 10044.90
642.3967, 10027.26
642.8788, 10004.15
643.3609, 10001.79
643.8430, 10007.41
644.3251, 10006.19
644.8073, 9988.130
645.2894, 9975.018
645.7715, 9983.006
646.2536, 9997.308
646.7357, 9993.287
647.2178, 9945.982
647.7000, 9918.833
648.1821, 9928.218
648.6642, 9963.908
649.1463, 9992.249
649.6284, 10014.04
650.1105, 10026.17
650.5927, 10024.21
651.0748, 10011.71
651.5569, 9999.762
652.0390, 9988.392
652.5211, 9980.563
653.0032, 9977.615
653.4854, 9979.837
653.9675, 9988.345
654.4496, 10003.84
654.9317, 10021.77
655.4138, 10046.85
655.8959, 10069.95
656.3781, 10081.59
656.8602, 10066.04
657.3423, 10057.77
657.8244, 10064.08
658.3065, 10075.89
658.7886, 10074.94
659.2708, 10054.71
659.7529, 10044.97
660.2350, 10057.33
660.7171, 10082.26
661.1992, 10091.21
661.6813, 10085.13
662.1635, 10079.23
662.6456, 10081.96
663.1277, 10090.28
663.6099, 10097.33
664.0920, 10103.73
664.5741, 10120.23
665.0562, 10175.32
665.5383, 10228.21
666.0204, 10244.02
666.5026, 10203.45
666.9847, 10172.67
667.4668, 10164.03
667.9489, 10168.35
668.4310, 10181.42
668.9131, 10212.51
669.3953, 10224.20
669.8774, 10206.30
670.3595, 10177.44
670.8416, 10170.86
671.3237, 10185.42
671.8058, 10203.54
672.2880, 10223.23
672.7701, 10238.69
673.2522, 10234.87
673.7343, 10217.77
674.2164, 10208.21
674.6985, 10222.16
675.1807, 10243.31
675.6628, 10262.73
676.1449, 10280.04
676.6270, 10294.43
677.1091, 10302.13
677.5912, 10309.97
678.0734, 10323.32
678.5555, 10346.40
679.0376, 10349.96
679.5197, 10322.57
680.0018, 10298.97
680.4839, 10322.00
680.9661, 10386.37
681.4482, 10419.53
681.9303, 10407.38
682.4124, 10383.28
682.8945, 10386.92
683.3766, 10408.37
683.8588, 10427.71
684.3409, 10439.35
684.8230, 10446.34
685.3051, 10453.46
685.7872, 10457.21
686.2693, 10450.19
686.7515, 10400.69
687.2336, 10375.21
687.7157, 10399.98
688.1978, 10463.28
688.6799, 10497.83
689.1620, 10492.20
689.6442, 10492.00
690.1263, 10529.67
690.6084, 10593.79
691.0905, 10597.01
691.5726, 10538.56
692.0547, 10492.06
692.5369, 10534.16
693.0190, 10615.01
693.5011, 10665.22
693.9832, 10675.62
694.4653, 10665.72
694.9474, 10626.45
695.4296, 10583.04
695.9117, 10557.94
696.3938, 10560.99
696.8759, 10574.80
697.3580, 10606.10
697.8401, 10642.35
698.3223, 10666.89
698.8044, 10676.37
699.2865, 10689.20
699.7686, 10710.41
700.2507, 10733.77
700.7328, 10746.70
701.2150, 10750.19
701.6971, 10750.61
702.1792, 10748.22
702.6613, 10745.51
703.1434, 10742.65
703.6255, 10740.91
704.1077, 10745.41
704.5898, 10759.12
705.0719, 10778.67
705.5540, 10810.95
706.0361, 10856.93
706.5182, 10871.09
707.0004, 10832.58
707.4825, 10793.35
707.9646, 10785.15
708.4467, 10810.30
708.9288, 10813.07
709.4109, 10790.62
709.8931, 10765.08
710.3752, 10759.81
710.8573, 10766.96
711.3394, 10765.29
711.8215, 10748.87
712.3036, 10740.31
712.7858, 10771.85
713.2679, 10813.98
713.7500, 10830.72
714.2321, 10774.02
714.7142, 10746.83
715.1964, 10798.31
715.6785, 10876.49
716.1606, 10908.35
716.6427, 10874.01
717.1248, 10847.88
717.6069, 10844.82
718.0891, 10856.02
718.5712, 10862.58
719.0533, 10864.91
719.5354, 10865.63
720.0175, 10867.06
720.4996, 10867.09
720.9818, 10859.73
721.4639, 10848.13
721.9460, 10843.20
722.4281, 10857.65
722.9102, 10873.99
723.3923, 10884.25
723.8745, 10887.96
724.3566, 10889.81
724.8387, 10890.42
725.3208, 10888.38
725.8029, 10878.63
726.2850, 10860.06
726.7672, 10865.24
727.2493, 10896.82
727.7314, 10934.08
728.2135, 10963.00
728.6956, 10983.04
729.1777, 10992.95
729.6599, 10991.79
730.1420, 10983.68
730.6241, 10959.76
731.1062, 10936.42
731.5883, 10932.30
732.0704, 10965.52
732.5526, 10991.37
733.0347, 10989.24
733.5168, 10984.54
733.9989, 11008.48
734.4810, 11078.50
734.9631, 11118.35
735.4453, 11112.49
735.9274, 11083.58
736.4095, 11060.55
736.8916, 11046.05
737.3737, 11059.56
737.8558, 11125.12
738.3380, 11194.30
738.8201, 11209.31
739.3022, 11187.67
739.7843, 11170.00
740.2664, 11177.58
740.7485, 11186.33
741.2307, 11180.35
741.7128, 11165.98
742.1949, 11176.80
742.6770, 11233.06
743.1591, 11274.82
743.6412, 11275.33
744.1234, 11243.84
744.6055, 11231.67
745.0876, 11238.79
745.5697, 11261.41
746.0518, 11312.86
746.5339, 11371.16
747.0161, 11398.62
747.4982, 11396.18
747.9803, 11390.63
748.4624, 11393.26
748.9445, 11399.96
749.4266, 11409.81
749.9088, 11424.88
750.3909, 11432.13
750.8730, 11427.31
751.3551, 11420.62
751.8372, 11419.11
752.3193, 11423.62
752.8015, 11428.23
753.2836, 11432.71
753.7657, 11440.62
754.2478, 11462.75
754.7299, 11490.10
755.2120, 11498.79
755.6942, 11479.24
756.1763, 11465.32
756.6584, 11485.10
757.1405, 11519.05
757.6226, 11546.74
758.1047, 11555.96
758.5869, 11568.19
759.0690, 11586.60
759.5511, 11606.04
760.0332, 11621.37
760.5153, 11632.90
760.9974, 11635.70
761.4796, 11626.70
761.9617, 11614.77
762.4438, 11608.71
762.9259, 11611.39
763.4080, 11633.71
763.8901, 11705.72
764.3723, 11763.70
764.8544, 11738.31
765.3365, 11668.73
765.8186, 11635.21
766.3007, 11703.00
766.7828, 11753.53
767.2650, 11750.79
767.7471, 11715.36
768.2292, 11714.99
768.7113, 11755.33
769.1934, 11797.37
769.6755, 11828.71
770.1577, 11850.25
770.6398, 11863.29
771.1219, 11868.35
771.6040, 11868.34
772.0861, 11859.88
772.5682, 11851.40
773.0504, 11850.24
773.5325, 11855.55
774.0146, 11860.21
774.4967, 11861.46
774.9788, 11863.18
775.4609, 11867.45
775.9431, 11874.02
776.4252, 11873.20
776.9073, 11859.72
777.3894, 11863.00
777.8715, 11919.12
778.3536, 12004.83
778.8358, 12043.55
779.3179, 12036.64
779.8000, 12018.31
780.2821, 12002.08
780.7642, 11991.20
781.2463, 11987.59
781.7285, 11991.35
782.2106, 12004.79
782.6927, 12042.49
783.1748, 12077.10
783.6569, 12090.07
784.1390, 12075.38
784.6212, 12091.59
785.1033, 12146.87
785.5854, 12197.63
786.0675, 12197.51
786.5496, 12164.29
787.0317, 12146.60
787.5139, 12148.53
787.9960, 12163.20
788.4781, 12204.58
788.9602, 12244.91
789.4423, 12255.16
789.9244, 12213.61
790.4066, 12191.47
790.8887, 12210.48
791.3708, 12238.08
791.8529, 12246.73
792.3350, 12232.38
792.8171, 12231.91
793.2993, 12250.17
793.7814, 12271.27
794.2635, 12274.60
794.7456, 12267.95
795.2277, 12269.89
795.7098, 12285.98
796.1920, 12302.66
796.6741, 12308.08
797.1562, 12311.43
797.6383, 12322.31
798.1204, 12345.29
798.6025, 12373.08
799.0847, 12412.18
799.5668, 12448.89
800.0489, 12464.38
800.5310, 12457.57
801.0131, 12446.89
801.4952, 12431.85
801.9774, 12422.83
802.4595, 12436.43
802.9416, 12464.58
803.4237, 12493.42
803.9058, 12520.06
804.3879, 12543.92
804.8701, 12564.61
805.3522, 12582.55
805.8343, 12598.66
806.3164, 12617.24
806.7985, 12626.05
807.2806, 12620.60
807.7628, 12609.95
808.2449, 12607.08
808.7270, 12612.00
809.2091, 12624.08
809.6912, 12644.82
810.1733, 12668.06
810.6555, 12687.14
811.1376, 12703.38
811.6197, 12719.14
812.1018, 12737.76
812.5839, 12752.09
813.0660, 12748.38
813.5482, 12743.00
814.0303, 12765.85
814.5124, 12833.63
814.9945, 12877.86
815.4766, 12883.96
815.9587, 12869.52
816.4409, 12862.25
816.9230, 12861.41
817.4051, 12862.55
817.8872, 12864.16
818.3693, 12868.52
818.8514, 12877.38
819.3336, 12890.77
819.8157, 12908.58
820.2978, 12933.39
820.7799, 12959.69
821.2620, 12987.46
821.7441, 13014.79
822.2263, 13037.54
822.7084, 13054.03
823.1905, 13073.94
823.6726, 13100.15
824.1547, 13127.86
824.6368, 13151.53
825.1190, 13170.58
825.6011, 13185.32
826.0832, 13194.29
826.5653, 13200.72
827.0474, 13201.18
827.5295, 13201.52
828.0117, 13213.57
828.4938, 13243.46
828.9760, 13277.92
829.4581, 13323.74
829.9402, 13365.33
830.4223, 13359.23
830.9044, 13311.63
831.3865, 13289.10
831.8687, 13322.70
832.3508, 13366.08
832.8329, 13355.09
833.3150, 13318.23
833.7971, 13305.09
834.2792, 13359.35
834.7614, 13407.35
835.2435, 13429.43
835.7256, 13436.29
836.2077, 13442.93
836.6898, 13449.82
837.1719, 13453.78
837.6541, 13452.43
838.1362, 13451.75
838.6183, 13467.05
839.1004, 13491.72
839.5825, 13504.16
840.0646, 13487.95
840.5468, 13474.98
841.0289, 13484.61
841.5110, 13510.53
841.9931, 13543.33
842.4752, 13589.69
842.9573, 13630.64
843.4395, 13666.40
843.9216, 13694.05
844.4037, 13701.86
844.8858, 13691.39
845.3679, 13700.90
845.8500, 13745.03
846.3322, 13790.62
846.8143, 13790.27
847.2964, 13768.42
847.7785, 13765.19
848.2606, 13812.64
848.7427, 13846.82
849.2249, 13843.50
849.7070, 13822.40
850.1891, 13802.14
850.6712, 13778.50
851.1533, 13775.77
851.6354, 13799.32
852.1176, 13837.29
852.5997, 13891.10
853.0818, 13946.74
853.5639, 13958.69
854.0460, 13903.74
854.5281, 13853.24
855.0103, 13866.91
855.4924, 13902.04
855.9745, 13911.12
856.4566, 13848.43
856.9387, 13834.46
857.4208, 13889.45
857.9030, 13962.67
858.3851, 13994.63
858.8672, 13990.35
859.3493, 14012.55
859.8314, 14070.83
860.3135, 14132.42
860.7957, 14172.39
861.2778, 14196.16
861.7599, 14208.23
862.2420, 14205.09
862.7241, 14205.48
863.2062, 14218.79
863.6884, 14232.63
864.1705, 14238.50
864.6526, 14234.35
865.1347, 14233.34
865.6168, 14235.77
866.0989, 14238.39
866.5811, 14229.98
867.0632, 14222.68
867.5453, 14246.37
868.0274, 14304.76
868.5095, 14348.28
868.9916, 14341.99
869.4738, 14321.44
869.9559, 14308.46
870.4380, 14303.96
870.9201, 14310.18
871.4022, 14332.59
871.8843, 14351.67
872.3665, 14347.14
872.8486, 14328.78
873.3307, 14334.41
873.8128, 14363.22
874.2949, 14400.44
874.7770, 14446.98
875.2592, 14489.25
875.7413, 14513.52
876.2234, 14519.75
876.7055, 14532.80
877.1876, 14561.39
877.6697, 14584.62
878.1519, 14591.83
878.6340, 14587.31
879.1161, 14594.66
879.5982, 14612.84
880.0803, 14627.10
880.5624, 14617.13
881.0446, 14608.83
881.5267, 14642.18
882.0088, 14701.61
882.4909, 14734.11
882.9730, 14692.66
883.4551, 14660.25
883.9373, 14660.91
884.4194, 14682.68
884.9015, 14689.75
885.3836, 14681.19
885.8657, 14673.86
886.3478, 14668.68
886.8300, 14675.77
887.3121, 14729.47
887.7942, 14804.80
888.2763, 14848.96
888.7584, 14803.93
889.2405, 14769.04
889.7227, 14783.04
890.2048, 14820.23
890.6869, 14847.21
891.1690, 14864.54
891.6511, 14862.01
892.1332, 14830.30
892.6154, 14798.05
893.0975, 14816.06
893.5796, 14862.68
894.0617, 14888.38
894.5438, 14875.01
895.0259, 14860.03
895.5081, 14859.68
895.9902, 14869.80
896.4723, 14888.39
896.9544, 14927.81
897.4365, 14942.78
897.9186, 14924.18
898.4008, 14908.30
898.8829, 14940.41
899.3650, 15003.99
899.8471, 15046.37
900.3292, 15062.58
900.8113, 15062.65
901.2935, 15038.33
901.7756, 15011.19
902.2577, 14994.56
902.7398, 14988.51
903.2219, 15004.45
903.7040, 15050.38
904.1862, 15100.19
904.6683, 15141.72
905.1504, 15173.84
905.6325, 15192.11
906.1146, 15197.34
906.5967, 15200.37
907.0789, 15202.69
907.5610, 15210.20
908.0431, 15225.38
908.5252, 15249.17
909.0073, 15289.15
909.4894, 15371.14
909.9716, 15428.32
910.4537, 15438.17
910.9358, 15415.45
911.4179, 15397.51
911.9000, 15385.07
912.3821, 15385.19
912.8643, 15411.75
913.3464, 15435.65
913.8285, 15412.12
914.3106, 15370.59
914.7927, 15363.97
915.2748, 15447.62
915.7570, 15509.17
916.2391, 15527.75
916.7212, 15530.10
917.2033, 15561.96
917.6854, 15620.45
918.1675, 15641.82
918.6497, 15608.06
919.1318, 15572.24
919.6139, 15592.96
920.0960, 15639.04
920.5781, 15674.51
921.0602, 15690.26
921.5424, 15701.15
922.0245, 15698.36
922.5066, 15703.60
922.9887, 15740.54
923.4708, 15810.21
923.9529, 15836.29
924.4351, 15817.01
924.9172, 15799.89
925.3993, 15833.28
925.8814, 15881.13
926.3635, 15902.31
926.8456, 15896.34
927.3278, 15895.58
927.8099, 15905.94
928.2920, 15927.21
928.7741, 15963.54
929.2562, 16010.62
929.7383, 16052.30
930.2205, 16088.55
930.7026, 16106.89
931.1847, 16088.76
931.6668, 16063.90
932.1489, 16062.52
932.6310, 16080.43
933.1132, 16108.12
933.5953, 16161.97
934.0774, 16199.92
934.5595, 16212.76
935.0416, 16209.99
935.5237, 16200.92
936.0059, 16186.06
936.4880, 16194.38
936.9701, 16235.92
937.4522, 16282.25
937.9343, 16302.58
938.4164, 16310.65
938.8986, 16322.83
939.3807, 16339.45
939.8628, 16370.03
940.3449, 16431.85
940.8270, 16489.47
941.3091, 16512.17
941.7913, 16498.85
942.2734, 16519.13
942.7555, 16573.42
943.2376, 16620.41
943.7197, 16614.31
944.2018, 16593.84
944.6840, 16603.18
945.1661, 16640.14
945.6482, 16662.66
946.1303, 16640.58
946.6124, 16628.93
947.0945, 16644.70
947.5767, 16681.96
948.0588, 16721.35
948.5409, 16763.37
949.0230, 16807.96
949.5051, 16864.73
949.9872, 16910.26
950.4694, 16916.69
950.9515, 16898.27
951.4336, 16879.21
951.9157, 16852.41
952.3978, 16845.10
952.8799, 16861.73
953.3621, 16894.52
953.8442, 16941.89
954.3263, 16999.55
954.8084, 17028.93
955.2905, 17021.39
955.7726, 17019.20
956.2548, 17078.26
956.7369, 17145.16
957.2190, 17162.82
957.7011, 17110.80
958.1832, 17092.55
958.6653, 17119.73
959.1475, 17164.29
959.6296, 17217.89
960.1117, 17275.93
960.5938, 17315.96
961.0759, 17339.42
961.5580, 17356.91
962.0402, 17369.98
962.5223, 17383.77
963.0044, 17396.44
963.4865, 17412.81
963.9686, 17451.05
964.4507, 17536.12
964.9329, 17579.72
965.4150, 17553.48
965.8971, 17503.76
966.3792, 17508.95
966.8613, 17555.27
967.3434, 17606.50
967.8256, 17658.83
968.3077, 17698.05
968.7898, 17702.51
969.2719, 17700.18
969.7540, 17718.35
970.2361, 17764.54
970.7183, 17801.67
971.2004, 17829.46
971.6825, 17850.84
972.1646, 17863.05
972.6467, 17872.73
973.1288, 17897.17
973.6110, 17934.34
974.0931, 17963.05
974.5752, 17976.18
975.0573, 17975.21
975.5394, 17948.53
976.0215, 17909.88
976.5037, 17907.75
976.9858, 17945.52
977.4679, 17982.60
977.9500, 18008.63
978.4321, 18025.03
978.9142, 18026.50
979.3964, 18022.02
979.8785, 18027.00
980.3606, 18049.96
980.8427, 18076.96
981.3248, 18111.27
981.8069, 18143.94
982.2891, 18165.61
982.7712, 18176.63
983.2533, 18194.30
983.7354, 18219.63
984.2175, 18244.59
984.6996, 18259.78
985.1818, 18273.27
985.6639, 18287.81
986.1460, 18304.17
986.6281, 18341.16
987.1102, 18422.97
987.5923, 18479.63
988.0745, 18477.69
988.5566, 18444.00
989.0387, 18458.31
989.5208, 18510.48
990.0029, 18556.41
990.4850, 18576.11
990.9672, 18590.13
991.4493, 18611.71
991.9314, 18635.67
992.4135, 18655.43
992.8957, 18673.11
993.3778, 18679.38
993.8599, 18670.15
994.3420, 18663.78
994.8242, 18687.93
995.3063, 18725.79
995.7884, 18735.69
996.2705, 18716.06
996.7526, 18713.91
997.2347, 18792.19
997.7169, 18850.35
998.1990, 18821.06
998.6811, 18730.14
999.1632, 18722.28
999.6453, 18802.93
1000.127, 18875.99
1000.610, 18899.77
1001.092, 18906.31
1001.574, 18929.47
1002.056, 18965.76
1002.538, 19009.02
1003.020, 19079.96
1003.502, 19123.19
1003.984, 19121.16
1004.466, 19109.68
1004.949, 19127.22
1005.431, 19170.06
1005.913, 19199.12
1006.395, 19212.04
1006.877, 19240.51
1007.359, 19336.63
1007.841, 19433.79
1008.323, 19471.24
1008.806, 19448.97
1009.288, 19459.24
1009.770, 19513.19
1010.252, 19565.17
1010.734, 19594.95
1011.216, 19618.99
1011.698, 19684.48
1012.180, 19770.37
1012.662, 19821.00
1013.145, 19790.77
1013.627, 19769.19
1014.109, 19798.31
1014.591, 19844.38
1015.073, 19877.23
1015.555, 19895.69
1016.037, 19917.15
1016.519, 19943.46
1017.002, 19963.05
1017.484, 19957.79
1017.966, 19947.83
1018.448, 19953.88
1018.930, 19976.49
1019.412, 20007.76
1019.894, 20058.92
1020.376, 20097.76
1020.858, 20109.08
1021.341, 20110.54
1021.823, 20149.67
1022.305, 20217.25
1022.787, 20269.20
1023.269, 20282.58
1023.751, 20305.99
1024.233, 20399.34
1024.715, 20500.22
1025.198, 20537.38
1025.680, 20483.57
1026.162, 20484.80
1026.644, 20549.17
1027.126, 20624.13
1027.608, 20661.34
1028.090, 20687.30
1028.572, 20752.60
1029.054, 20848.86
1029.536, 20933.96
1030.019, 21000.49
1030.501, 21041.54
1030.983, 21054.82
1031.465, 21044.60
1031.947, 21003.89
1032.429, 20939.96
1032.911, 20931.02
1033.393, 21005.70
1033.876, 21079.41
1034.358, 21073.26
1034.840, 21039.00
1035.322, 21026.37
1035.804, 21046.38
1036.286, 21060.43
1036.768, 21072.40
1037.250, 21066.29
1037.733, 21012.44
1038.215, 20946.48
1038.697, 20953.24
1039.179, 21015.04
1039.661, 21078.16
1040.143, 21110.26
1040.625, 21151.38
1041.107, 21226.13
1041.589, 21303.37
1042.072, 21335.99
1042.554, 21324.22
1043.036, 21329.93
1043.518, 21361.09
1044.000, 21386.72
1044.482, 21365.30
1044.964, 21337.07
1045.446, 21337.33
1045.928, 21370.24
1046.411, 21412.03
1046.893, 21464.96
1047.375, 21516.80
1047.857, 21562.19
1048.339, 21604.63
1048.821, 21656.23
1049.303, 21709.49
1049.785, 21745.13
1050.268, 21747.30
1050.750, 21747.84
1051.232, 21750.90
1051.714, 21761.66
1052.196, 21790.21
1052.678, 21838.61
1053.160, 21856.26
1053.642, 21842.81
1054.125, 21838.45
1054.607, 21888.69
1055.089, 21946.31
1055.571, 21965.72
1056.053, 21956.61
1056.535, 21965.42
1057.017, 22003.86
1057.499, 22037.40
1057.981, 22057.55
1058.464, 22075.47
1058.946, 22100.03
1059.428, 22136.33
1059.910, 22201.30
1060.392, 22303.92
1060.874, 22392.48
1061.356, 22447.58
1061.838, 22480.47
1062.320, 22488.08
1062.803, 22476.79
1063.285, 22499.95
1063.767, 22555.21
1064.249, 22615.76
1064.731, 22674.02
1065.213, 22725.97
1065.695, 22759.24
1066.177, 22787.13
1066.660, 22834.33
1067.142, 22922.32
1067.624, 22964.69
1068.106, 22945.67
1068.588, 22931.14
1069.070, 23003.03
1069.552, 23111.05
1070.034, 23172.18
1070.516, 23186.34
1070.999, 23189.71
1071.481, 23185.03
1071.963, 23184.36
1072.445, 23194.98
1072.927, 23208.11
1073.409, 23195.03
1073.891, 23164.55
1074.373, 23167.29
1074.855, 23222.48
1075.338, 23275.43
1075.820, 23292.08
1076.302, 23289.68
1076.784, 23276.32
1077.266, 23251.97
1077.748, 23257.70
1078.230, 23296.52
1078.713, 23338.97
1079.195, 23366.78
1079.677, 23394.29
1080.159, 23450.12
1080.641, 23517.15
1081.123, 23560.81
1081.605, 23548.90
1082.087, 23547.12
1082.569, 23559.87
1083.052, 23576.50
1083.534, 23588.25
1084.016, 23594.59
1084.498, 23584.66
1084.980, 23561.80
1085.462, 23566.52
1085.944, 23669.64
1086.426, 23745.31
1086.908, 23735.08
1087.391, 23672.20
1087.873, 23625.89
1088.355, 23596.57
1088.837, 23596.56
1089.319, 23638.49
1089.801, 23663.23
1090.283, 23586.18
1090.765, 23491.12
1091.248, 23466.97
1091.730, 23525.29
1092.212, 23551.65
1092.694, 23540.14
1093.176, 23525.35
1093.658, 23528.94
1094.140, 23531.87
1094.622, 23496.40
1095.104, 23439.09
1095.587, 23392.99
1096.069, 23371.23
1096.551, 23355.87
1097.033, 23346.95
1097.515, 23340.63
1097.997, 23335.02
1098.479, 23328.64
1098.961, 23315.74
1099.443, 23296.55
1099.926, 23276.19
1100.408, 23269.28
1100.890, 23247.22
1101.372, 23194.81
1101.854, 23121.30
1102.336, 23032.88
1102.818, 22930.22
1103.300, 22878.32
1103.783, 22893.22
1104.265, 22910.74
1104.747, 22878.59
1105.229, 22825.35
1105.711, 22773.86
1106.193, 22726.49
1106.675, 22672.75
1107.157, 22610.55
1107.640, 22558.38
1108.122, 22523.11
1108.604, 22501.83
1109.086, 22498.95
1109.568, 22504.28
1110.050, 22500.07
1110.532, 22471.82
1111.014, 22460.27
1111.496, 22469.71
1111.979, 22487.86
1112.461, 22512.17
1112.943, 22536.05
1113.425, 22535.93
1113.907, 22516.75
1114.389, 22497.47
1114.871, 22494.86
1115.353, 22481.94
1115.835, 22446.86
1116.318, 22403.66
1116.800, 22366.11
1117.282, 22335.02
1117.764, 22313.25
1118.246, 22301.26
1118.728, 22284.68
1119.210, 22248.73
1119.692, 22211.44
1120.175, 22183.68
1120.657, 22164.67
1121.139, 22152.13
1121.621, 22147.27
1122.103, 22137.79
1122.585, 22122.41
1123.067, 22096.48
1123.549, 22028.37
1124.031, 21964.67
1124.514, 21968.85
1124.996, 22056.07
1125.478, 22080.33
1125.960, 22017.62
1126.442, 21973.41
1126.924, 21996.85
1127.406, 22045.90
1127.888, 22050.68
1128.370, 22031.04
1128.853, 22021.58
1129.335, 22034.38
1129.817, 22049.91
1130.299, 22072.52
1130.781, 22084.39
1131.263, 22067.68
1131.745, 22032.71
1132.227, 22006.37
1132.710, 21990.23
1133.192, 21989.85
1133.674, 22035.54
1134.156, 22060.65
1134.638, 22031.32
1135.120, 21993.33
1135.602, 22003.63
1136.084, 22054.18
1136.567, 22068.98
1137.049, 22046.61
1137.531, 22030.16
1138.013, 22059.02
1138.495, 22088.62
1138.977, 22085.67
1139.459, 22068.20
1139.941, 22080.32
1140.423, 22123.46
1140.906, 22125.45
1141.388, 22069.07
1141.870, 22017.82
1142.352, 22034.99
1142.834, 22075.41
1143.316, 22104.63
1143.798, 22120.95
1144.280, 22136.12
1144.762, 22152.09
1145.245, 22156.61
1145.727, 22144.19
1146.209, 22124.41
1146.691, 22103.90
1147.173, 22085.13
1147.655, 22066.42
1148.137, 22040.21
1148.619, 22060.50
1149.102, 22147.15
1149.584, 22214.81
1150.066, 22208.54
1150.548, 22169.72
1151.030, 22170.41
1151.512, 22193.11
1151.994, 22200.79
1152.476, 22152.55
1152.958, 22152.94
1153.441, 22236.42
1153.923, 22312.82
1154.405, 22302.62
1154.887, 22237.17
1155.369, 22196.20
1155.851, 22179.14
1156.333, 22180.79
1156.815, 22238.71
1157.297, 22256.74
1157.780, 22193.33
1158.262, 22118.79
1158.744, 22125.31
1159.226, 22192.38
1159.708, 22225.42
1160.190, 22221.57
1160.672, 22220.53
1161.154, 22241.30
1161.637, 22273.94
1162.119, 22330.39
1162.601, 22384.06
1163.083, 22375.15
1163.565, 22313.29
1164.047, 22281.15
1164.529, 22293.12
1165.011, 22303.72
1165.494, 22262.29
1165.976, 22230.74
1166.458, 22256.24
1166.940, 22320.31
1167.422, 22353.79
1167.904, 22357.69
1168.386, 22374.33
1168.868, 22417.83
1169.350, 22461.45
1169.833, 22480.24
1170.315, 22490.66
1170.797, 22507.29
1171.279, 22529.60
1171.761, 22545.46
1172.243, 22554.32
1172.725, 22564.51
1173.207, 22581.85
1173.689, 22596.76
1174.172, 22584.83
1174.654, 22573.51
1175.136, 22606.51
1175.618, 22699.28
1176.100, 22741.28
1176.582, 22727.64
1177.064, 22709.15
1177.546, 22716.77
1178.029, 22731.83
1178.511, 22726.95
1178.993, 22716.95
1179.475, 22730.12
1179.957, 22779.50
1180.439, 22825.53
1180.921, 22870.53
1181.403, 22899.75
1181.885, 22883.79
1182.368, 22858.27
1182.850, 22877.09
1183.332, 22924.51
1183.814, 22954.88
1184.296, 22956.71
1184.778, 22949.41
1185.260, 22931.22
1185.742, 22915.77
1186.224, 22916.96
1186.707, 22929.85
1187.189, 22953.01
1187.671, 22983.03
1188.153, 23003.64
1188.635, 23009.77
1189.117, 23009.48
1189.599, 22999.83
1190.081, 22995.45
1190.564, 23031.55
1191.046, 23077.01
1191.528, 23069.25
1192.010, 23007.18
1192.492, 22976.71
1192.974, 23012.12
1193.456, 23046.32
1193.938, 23065.92
1194.421, 23074.08
1194.903, 23064.57
1195.385, 23051.25
1195.867, 23065.11
1196.349, 23113.49
1196.831, 23146.47
1197.313, 23144.36
1197.795, 23142.16
1198.277, 23146.84
1198.760, 23163.69
1199.242, 23220.94
1199.724, 23293.49
1200.206, 23325.31
1200.688, 23294.91
1201.170, 23269.20
1201.652, 23260.17
1202.134, 23257.50
1202.616, 23255.11
1203.099, 23257.86
1203.581, 23281.56
1204.063, 23319.63
1204.545, 23355.50
1205.027, 23385.44
1205.509, 23414.49
1205.991, 23452.08
1206.473, 23475.49
1206.956, 23467.72
1207.438, 23439.82
1207.920, 23411.29
1208.402, 23389.03
1208.884, 23389.71
1209.366, 23420.47
1209.848, 23475.90
1210.330, 23567.42
1210.813, 23657.94
1211.295, 23732.94
1211.777, 23782.84
1212.259, 23746.04
1212.741, 23653.35
1213.223, 23600.84
1213.705, 23663.17
1214.187, 23715.62
1214.669, 23743.50
1215.151, 23756.05
1215.634, 23745.70
1216.116, 23729.51
1216.598, 23766.19
1217.080, 23844.55
1217.562, 23917.26
1218.044, 23969.71
1218.526, 24003.27
1219.008, 24007.82
1219.491, 24010.65
1219.973, 24042.91
1220.455, 24093.30
1220.937, 24133.34
1221.419, 24162.64
1221.901, 24188.25
1222.383, 24219.05
1222.865, 24235.14
1223.348, 24230.38
1223.830, 24218.50
1224.312, 24224.97
1224.794, 24234.79
1225.276, 24198.19
1225.758, 24123.08
1226.240, 24080.13
1226.722, 24131.38
1227.204, 24165.86
1227.687, 24159.71
1228.169, 24148.25
1228.651, 24195.67
1229.133, 24265.48
1229.615, 24269.99
1230.097, 24209.50
1230.579, 24180.24
1231.061, 24222.90
1231.543, 24272.65
1232.026, 24323.29
1232.508, 24362.64
1232.990, 24364.42
1233.472, 24346.26
1233.954, 24338.93
1234.436, 24345.15
1234.918, 24354.43
1235.400, 24366.66
1235.883, 24375.61
1236.365, 24376.23
1236.847, 24381.34
1237.329, 24417.95
1237.811, 24466.90
1238.293, 24502.95
1238.775, 24522.64
1239.257, 24519.77
1239.740, 24483.34
1240.222, 24457.44
1240.704, 24453.51
1241.186, 24466.29
1241.668, 24503.64
1242.150, 24544.82
1242.632, 24553.53
1243.114, 24523.06
1243.596, 24530.28
1244.079, 24594.84
1244.561, 24632.67
1245.043, 24609.42
1245.525, 24572.98
1246.007, 24581.10
1246.489, 24613.51
1246.971, 24647.82
1247.453, 24681.65
1247.936, 24711.64
1248.418, 24737.01
1248.900, 24759.28
1249.382, 24775.93
1249.864, 24796.24
1250.346, 24846.99
1250.828, 24895.69
1251.310, 24893.30
1251.792, 24836.29
1252.275, 24833.24
1252.757, 24888.48
1253.239, 24924.88
1253.721, 24905.72
1254.203, 24883.31
1254.685, 24916.01
1255.167, 24964.18
1255.649, 24989.04
1256.131, 24991.60
1256.614, 24978.03
1257.096, 24949.93
1257.578, 24957.97
1258.060, 25037.96
1258.542, 25117.35
1259.024, 25128.27
1259.506, 25127.99
1259.988, 25171.70
1260.471, 25252.07
1260.953, 25279.58
1261.435, 25262.29
1261.917, 25271.00
1262.399, 25350.29
1262.881, 25419.23
1263.363, 25411.97
1263.845, 25401.13
1264.328, 25445.04
1264.810, 25526.65
1265.292, 25541.34
1265.774, 25506.32
1266.256, 25498.92
1266.738, 25566.34
1267.220, 25619.15
1267.702, 25607.01
1268.184, 25596.33
1268.667, 25630.54
1269.149, 25692.56
1269.631, 25729.04
1270.113, 25741.94
1270.595, 25732.90
1271.077, 25676.77
1271.559, 25662.62
1272.041, 25716.48
1272.523, 25782.81
1273.006, 25844.10
1273.488, 25885.01
1273.970, 25845.21
1274.452, 25762.42
1274.934, 25713.63
1275.416, 25719.37
1275.898, 25773.03
1276.380, 25893.11
1276.863, 25994.65
1277.345, 26014.37
1277.827, 26001.86
1278.309, 26041.65
1278.791, 26096.46
1279.273, 26097.86
1279.755, 26011.63
1280.237, 25964.40
1280.719, 25956.42
1281.202, 25990.77
1281.684, 26097.60
1282.166, 26208.43
1282.648, 26254.16
1283.130, 26264.02
1283.612, 26279.13
1284.094, 26304.00
1284.576, 26304.88
1285.058, 26282.52
1285.541, 26270.22
1286.023, 26278.72
1286.505, 26311.21
1286.987, 26392.56
1287.469, 26480.60
1287.951, 26535.71
1288.433, 26558.70
1288.915, 26572.46
1289.398, 26577.38
1289.880, 26577.73
1290.362, 26570.87
1290.844, 26567.49
1291.326, 26566.22
1291.808, 26577.18
1292.290, 26612.36
1292.772, 26664.40
##END=



