##NAMES=Minium
##RRUFFID=R050426
##IDEAL CHEMISTRY=Pb^2+^_2_Pb^4+^O_4_
##LOCALITY=El Chichi mine, Culiacan, Sinalog, Mexico
##OWNER=RRUFF
##SOURCE=University of Arizona Mineral Museum
##DESCRIPTION=Orange earthy coating
##STATUS=The identification of this mineral has been confirmed by X-ray diffraction and chemical analysis
##URL=rruff.info/R050426
##MEASURED CHEMISTRY=Pb^2+^_2.00_Pb^4+^_1.00_O_4_
117.0610, 1595.507
117.5431, 1750.710
118.0252, 1931.383
118.5073, 2142.088
118.9894, 2398.552
119.4715, 2653.927
119.9537, 2945.132
120.4358, 3218.162
120.9179, 3425.406
121.4000, 3554.529
121.8821, 3606.421
122.3642, 3564.014
122.8464, 3393.050
123.3285, 3235.739
123.8106, 3116.242
124.2927, 3023.626
124.7748, 2939.398
125.2569, 2855.937
125.7391, 2784.897
126.2212, 2753.767
126.7033, 2766.925
127.1854, 2788.765
127.6675, 2807.153
128.1496, 2824.712
128.6317, 2847.260
129.1139, 2874.376
129.5960, 2911.758
130.0781, 2966.400
130.5602, 3038.275
131.0423, 3124.210
131.5244, 3217.993
132.0066, 3322.025
132.4887, 3453.873
132.9708, 3630.330
133.4529, 3833.884
133.9350, 4034.453
134.4171, 4232.363
134.8993, 4426.526
135.3814, 4616.324
135.8635, 4800.990
136.3456, 4982.272
136.8277, 5151.562
137.3098, 5322.726
137.7920, 5511.732
138.2741, 5724.384
138.7562, 5949.585
139.2383, 6171.342
139.7204, 6383.170
140.2025, 6620.556
140.6847, 6913.929
141.1668, 7232.979
141.6489, 7552.588
142.1310, 7859.803
142.6131, 8171.806
143.0952, 8511.449
143.5774, 8872.565
144.0595, 9284.780
144.5416, 9761.431
145.0237, 10288.27
145.5058, 10854.25
145.9879, 11446.35
146.4701, 12086.17
146.9522, 12809.87
147.4343, 13603.32
147.9164, 14526.25
148.3985, 15667.68
148.8806, 16910.43
149.3627, 18160.19
149.8449, 19438.18
150.3270, 20618.14
150.8091, 21303.64
151.2912, 21460.31
151.7733, 21077.78
152.2554, 20015.69
152.7376, 18532.09
153.2197, 16919.23
153.7018, 15298.54
154.1839, 13711.70
154.6660, 12344.54
155.1481, 11260.35
155.6303, 10356.25
156.1124, 9630.731
156.5945, 9052.711
157.0766, 8583.146
157.5587, 8203.924
158.0408, 7909.875
158.5230, 7662.049
159.0051, 7486.513
159.4872, 7334.791
159.9693, 7188.031
160.4514, 7029.755
160.9335, 6885.989
161.4157, 6792.247
161.8978, 6743.248
162.3799, 6675.160
162.8620, 6553.278
163.3441, 6449.322
163.8262, 6390.803
164.3084, 6360.396
164.7905, 6325.678
165.2726, 6263.754
165.7547, 6176.960
166.2368, 6099.185
166.7189, 6037.946
167.2011, 5978.622
167.6832, 5918.686
168.1653, 5858.314
168.6474, 5798.827
169.1295, 5740.916
169.6116, 5684.791
170.0938, 5632.427
170.5759, 5585.816
171.0580, 5540.589
171.5401, 5489.056
172.0222, 5437.334
172.5043, 5399.996
172.9865, 5389.952
173.4686, 5407.223
173.9507, 5403.442
174.4328, 5345.099
174.9149, 5302.111
175.3970, 5310.558
175.8792, 5355.325
176.3613, 5396.214
176.8434, 5403.337
177.3255, 5376.393
177.8076, 5351.384
178.2897, 5319.733
178.7719, 5297.082
179.2540, 5295.138
179.7361, 5307.836
180.2182, 5317.876
180.7003, 5310.783
181.1824, 5286.509
181.6646, 5286.208
182.1467, 5331.725
182.6288, 5373.526
183.1109, 5394.272
183.5930, 5395.459
184.0751, 5383.455
184.5573, 5360.433
185.0394, 5327.013
185.5215, 5307.669
186.0036, 5319.857
186.4857, 5325.297
186.9678, 5301.027
187.4500, 5255.763
187.9321, 5216.269
188.4142, 5201.602
188.8963, 5210.289
189.3784, 5210.239
189.8605, 5185.793
190.3427, 5170.041
190.8248, 5183.938
191.3069, 5218.308
191.7890, 5247.867
192.2711, 5255.839
192.7532, 5243.959
193.2354, 5232.432
193.7175, 5216.839
194.1996, 5205.963
194.6817, 5202.915
195.1638, 5207.277
195.6459, 5218.182
196.1281, 5235.757
196.6102, 5259.178
197.0923, 5282.133
197.5744, 5309.224
198.0565, 5331.357
198.5386, 5339.753
199.0207, 5340.544
199.5029, 5347.535
199.9850, 5368.529
200.4671, 5402.081
200.9492, 5441.924
201.4313, 5492.056
201.9134, 5542.207
202.3956, 5585.155
202.8777, 5625.699
203.3598, 5674.043
203.8419, 5735.091
204.3240, 5807.978
204.8061, 5890.334
205.2883, 5985.920
205.7704, 6084.821
206.2525, 6185.065
206.7346, 6286.530
207.2167, 6388.724
207.6988, 6490.289
208.1810, 6593.189
208.6631, 6702.278
209.1452, 6817.334
209.6273, 6937.432
210.1094, 7058.244
210.5915, 7184.574
211.0737, 7327.988
211.5558, 7494.410
212.0379, 7672.390
212.5200, 7831.238
213.0021, 7947.466
213.4842, 8080.651
213.9664, 8240.582
214.4485, 8422.003
214.9306, 8622.180
215.4127, 8840.176
215.8948, 9069.415
216.3769, 9298.872
216.8591, 9525.838
217.3412, 9756.874
217.8233, 9981.616
218.3054, 10214.50
218.7875, 10481.93
219.2696, 10793.30
219.7518, 11113.44
220.2339, 11385.37
220.7160, 11584.61
221.1981, 11777.92
221.6802, 11995.27
222.1623, 12194.39
222.6445, 12332.10
223.1266, 12399.75
223.6087, 12419.74
224.0908, 12422.78
224.5729, 12418.55
225.0550, 12360.20
225.5371, 12212.86
226.0193, 12036.47
226.5014, 11868.04
226.9835, 11716.94
227.4656, 11581.61
227.9477, 11461.96
228.4298, 11362.33
228.9120, 11261.49
229.3941, 11153.91
229.8762, 11048.97
230.3583, 10953.07
230.8404, 10866.01
231.3225, 10783.89
231.8047, 10704.71
232.2868, 10630.07
232.7689, 10541.21
233.2510, 10437.60
233.7331, 10323.12
234.2152, 10193.96
234.6974, 10053.38
235.1795, 9915.203
235.6616, 9792.269
236.1437, 9685.024
236.6258, 9541.773
237.1079, 9332.321
237.5901, 9123.333
238.0722, 8935.254
238.5543, 8764.904
239.0364, 8600.687
239.5185, 8434.017
240.0006, 8267.131
240.4828, 8112.591
240.9649, 7977.074
241.4470, 7847.181
241.9291, 7721.864
242.4112, 7600.304
242.8933, 7481.450
243.3755, 7363.445
243.8576, 7249.963
244.3397, 7151.490
244.8218, 7080.459
245.3039, 7010.729
245.7860, 6942.490
246.2682, 6873.152
246.7503, 6797.567
247.2324, 6713.718
247.7145, 6629.196
248.1966, 6562.069
248.6787, 6525.791
249.1608, 6484.322
249.6430, 6432.921
250.1251, 6377.857
250.6072, 6322.975
251.0893, 6269.543
251.5714, 6218.324
252.0535, 6172.008
252.5357, 6135.216
253.0178, 6091.056
253.4999, 6029.873
253.9820, 5969.322
254.4641, 5921.304
254.9462, 5886.005
255.4284, 5854.380
255.9105, 5814.981
256.3926, 5764.533
256.8747, 5725.415
257.3568, 5709.758
257.8390, 5695.406
258.3211, 5673.838
258.8032, 5645.935
259.2853, 5616.938
259.7674, 5590.893
260.2495, 5567.617
260.7316, 5544.073
261.2137, 5517.291
261.6959, 5494.019
262.1780, 5483.073
262.6601, 5476.651
263.1422, 5459.335
263.6243, 5417.371
264.1064, 5361.402
264.5886, 5327.944
265.0707, 5324.742
265.5528, 5330.961
266.0349, 5347.706
266.5170, 5365.637
266.9991, 5373.476
267.4813, 5366.298
267.9634, 5348.525
268.4455, 5322.029
268.9276, 5280.597
269.4097, 5255.668
269.8918, 5276.423
270.3740, 5309.718
270.8561, 5328.452
271.3382, 5325.712
271.8203, 5316.202
272.3024, 5311.994
272.7845, 5313.042
273.2667, 5321.458
273.7488, 5342.427
274.2309, 5366.957
274.7130, 5386.837
275.1951, 5401.786
275.6772, 5413.949
276.1594, 5421.676
276.6415, 5427.121
277.1236, 5438.239
277.6057, 5456.930
278.0878, 5480.683
278.5699, 5508.527
279.0521, 5539.794
279.5342, 5570.623
280.0163, 5597.313
280.4984, 5623.614
280.9805, 5656.306
281.4626, 5696.729
281.9448, 5738.222
282.4269, 5773.891
282.9090, 5805.693
283.3911, 5843.842
283.8732, 5892.475
284.3553, 5945.596
284.8375, 5997.305
285.3196, 6048.088
285.8017, 6106.072
286.2838, 6180.436
286.7659, 6264.050
287.2480, 6329.813
287.7302, 6364.539
288.2123, 6397.605
288.6944, 6434.187
289.1765, 6478.048
289.6586, 6539.400
290.1407, 6624.225
290.6229, 6723.698
291.1050, 6816.925
291.5871, 6892.698
292.0692, 6983.722
292.5513, 7100.247
293.0334, 7231.514
293.5156, 7368.732
293.9977, 7508.868
294.4798, 7649.791
294.9619, 7785.065
295.4440, 7905.953
295.9261, 8050.004
296.4083, 8221.575
296.8904, 8409.924
297.3725, 8613.338
297.8546, 8827.152
298.3367, 9040.981
298.8188, 9242.828
299.3010, 9433.097
299.7831, 9632.464
300.2652, 9848.903
300.7473, 10065.74
301.2294, 10277.69
301.7115, 10486.57
302.1937, 10694.06
302.6758, 10899.36
303.1579, 11106.65
303.6400, 11336.18
304.1221, 11624.11
304.6042, 11875.02
305.0864, 12037.57
305.5685, 12177.25
306.0506, 12363.69
306.5327, 12619.03
307.0148, 12901.24
307.4969, 13148.18
307.9791, 13350.12
308.4612, 13547.53
308.9433, 13744.61
309.4254, 13938.58
309.9075, 14140.08
310.3896, 14343.53
310.8717, 14516.62
311.3539, 14628.89
311.8360, 14683.01
312.3181, 14709.29
312.8002, 14715.36
313.2823, 14680.40
313.7644, 14605.84
314.2466, 14487.83
314.7287, 14313.88
315.2108, 14063.81
315.6929, 13759.43
316.1750, 13438.80
316.6571, 13103.03
317.1393, 12740.50
317.6214, 12331.40
318.1035, 11891.42
318.5856, 11448.12
319.0677, 10988.48
319.5498, 10553.63
320.0320, 10178.75
320.5141, 9857.640
320.9962, 9571.773
321.4783, 9325.556
321.9604, 9096.039
322.4425, 8830.459
322.9247, 8512.211
323.4068, 8229.536
323.8889, 8018.054
324.3710, 7852.625
324.8531, 7704.373
325.3352, 7567.376
325.8174, 7435.778
326.2995, 7301.946
326.7816, 7164.773
327.2637, 7036.489
327.7458, 6917.594
328.2279, 6807.084
328.7101, 6702.665
329.1922, 6605.798
329.6743, 6519.181
330.1564, 6445.019
330.6385, 6382.669
331.1206, 6328.226
331.6028, 6296.591
332.0849, 6254.795
332.5670, 6185.876
333.0491, 6107.997
333.5312, 6042.528
334.0133, 5998.188
334.4955, 5968.684
334.9776, 5943.525
335.4597, 5926.011
335.9418, 5905.828
336.4239, 5880.990
336.9060, 5854.712
337.3882, 5827.099
337.8703, 5799.261
338.3524, 5774.897
338.8345, 5759.265
339.3166, 5752.168
339.7987, 5739.972
340.2809, 5714.967
340.7630, 5695.011
341.2451, 5689.968
341.7272, 5694.562
342.2093, 5699.368
342.6914, 5701.891
343.1736, 5700.168
343.6557, 5686.931
344.1378, 5658.831
344.6199, 5639.428
345.1020, 5647.481
345.5841, 5664.654
346.0663, 5667.904
346.5484, 5652.711
347.0305, 5633.097
347.5126, 5615.474
347.9947, 5600.680
348.4768, 5592.859
348.9590, 5595.226
349.4411, 5599.002
349.9232, 5590.072
350.4053, 5568.203
350.8874, 5556.891
351.3695, 5565.619
351.8517, 5583.208
352.3338, 5601.081
352.8159, 5618.315
353.2980, 5635.963
353.7801, 5655.497
354.2622, 5676.288
354.7444, 5690.170
355.2265, 5692.734
355.7086, 5694.943
356.1907, 5699.727
356.6728, 5706.128
357.1549, 5711.044
357.6371, 5713.268
358.1192, 5717.276
358.6013, 5732.679
359.0834, 5769.662
359.5655, 5799.294
360.0476, 5812.142
360.5297, 5825.916
361.0118, 5854.095
361.4940, 5895.580
361.9761, 5938.607
362.4582, 5972.986
362.9403, 5998.899
363.4224, 6022.119
363.9045, 6034.963
364.3867, 6055.908
364.8688, 6087.406
365.3509, 6130.819
365.8330, 6191.386
366.3151, 6275.621
366.7972, 6365.950
367.2794, 6428.479
367.7615, 6458.987
368.2436, 6507.383
368.7257, 6593.742
369.2078, 6701.919
369.6899, 6816.731
370.1721, 6937.592
370.6542, 7060.099
371.1363, 7172.629
371.6184, 7286.578
372.1005, 7422.434
372.5826, 7582.551
373.0648, 7767.412
373.5469, 7982.501
374.0290, 8227.633
374.5111, 8482.476
374.9932, 8747.527
375.4753, 9020.524
375.9575, 9303.533
376.4396, 9595.272
376.9217, 9895.039
377.4038, 10201.60
377.8859, 10513.59
378.3680, 10825.90
378.8502, 11135.42
379.3323, 11450.90
379.8144, 11753.17
380.2965, 12072.98
380.7786, 12443.69
381.2607, 12864.82
381.7429, 13298.66
382.2250, 13698.43
382.7071, 14057.79
383.1892, 14468.14
383.6713, 14946.80
384.1534, 15466.37
384.6356, 16037.29
385.1177, 16638.74
385.5998, 17238.89
386.0819, 17821.45
386.5640, 18399.47
387.0461, 19006.90
387.5283, 19656.42
388.0104, 20272.54
388.4925, 20890.49
388.9746, 21417.29
389.4567, 21803.76
389.9388, 22044.23
390.4210, 22106.63
390.9031, 21964.62
391.3852, 21633.32
391.8673, 21127.81
392.3494, 20438.30
392.8315, 19635.89
393.3137, 18752.46
393.7958, 17794.12
394.2779, 16824.16
394.7600, 15787.85
395.2421, 14786.00
395.7242, 13859.59
396.2064, 13008.08
396.6885, 12228.69
397.1706, 11521.73
397.6527, 10883.96
398.1348, 10317.01
398.6169, 9842.563
399.0991, 9407.754
399.5812, 9014.247
400.0633, 8655.644
400.5454, 8329.510
401.0275, 8036.548
401.5096, 7778.311
401.9918, 7559.959
402.4739, 7378.826
402.9560, 7194.247
403.4381, 6989.456
403.9202, 6808.871
404.4023, 6665.721
404.8845, 6547.650
405.3666, 6442.340
405.8487, 6346.247
406.3308, 6256.521
406.8129, 6171.997
407.2950, 6092.632
407.7772, 6007.471
408.2592, 5906.251
408.7414, 5811.477
409.2235, 5743.852
409.7056, 5698.880
410.1877, 5656.375
410.6698, 5613.486
411.1519, 5567.497
411.6341, 5509.592
412.1162, 5441.818
412.5983, 5384.550
413.0804, 5348.574
413.5625, 5330.040
414.0446, 5320.125
414.5268, 5330.401
415.0089, 5327.572
415.4910, 5294.571
415.9731, 5251.238
416.4552, 5219.280
416.9373, 5201.832
417.4195, 5187.097
417.9016, 5161.242
418.3837, 5121.998
418.8658, 5101.646
419.3479, 5125.293
419.8300, 5140.900
420.3122, 5132.861
420.7943, 5109.660
421.2764, 5081.898
421.7585, 5053.418
422.2406, 5028.697
422.7227, 5017.821
423.2049, 5023.760
423.6870, 5022.908
424.1691, 5002.780
424.6512, 4983.418
425.1333, 4979.659
425.6154, 4989.886
426.0976, 5002.616
426.5797, 5012.641
427.0618, 5021.830
427.5439, 5034.902
428.0260, 5051.963
428.5081, 5063.125
428.9903, 5059.646
429.4724, 5048.614
429.9545, 5051.508
430.4366, 5078.347
430.9187, 5098.571
431.4008, 5099.328
431.8830, 5091.388
432.3651, 5084.886
432.8472, 5082.702
433.3293, 5087.506
433.8114, 5102.702
434.2935, 5129.100
434.7757, 5155.106
435.2578, 5182.174
435.7399, 5207.132
436.2220, 5221.969
436.7041, 5236.633
437.1862, 5266.101
437.6684, 5316.436
438.1505, 5376.868
438.6326, 5431.991
439.1147, 5481.483
439.5968, 5527.689
440.0789, 5570.502
440.5611, 5609.834
441.0432, 5643.429
441.5253, 5673.199
442.0074, 5706.325
442.4895, 5744.314
442.9716, 5788.011
443.4538, 5839.201
443.9359, 5897.488
444.4180, 5961.008
444.9001, 6031.356
445.3822, 6103.211
445.8643, 6163.239
446.3465, 6203.339
446.8286, 6254.018
447.3107, 6329.513
447.7928, 6411.461
448.2749, 6483.259
448.7570, 6543.792
449.2392, 6599.396
449.7213, 6655.695
450.2034, 6712.168
450.6855, 6766.230
451.1676, 6810.852
451.6497, 6862.675
452.1319, 6937.434
452.6140, 7013.463
453.0961, 7068.595
453.5782, 7097.822
454.0603, 7113.887
454.5424, 7131.862
455.0246, 7150.182
455.5067, 7149.801
455.9888, 7124.344
456.4709, 7090.258
456.9530, 7057.720
457.4351, 7024.296
457.9172, 6984.181
458.3994, 6930.704
458.8815, 6877.597
459.3636, 6839.981
459.8457, 6810.163
460.3278, 6764.807
460.8099, 6695.695
461.2921, 6620.393
461.7742, 6563.339
462.2563, 6531.164
462.7384, 6490.625
463.2205, 6425.203
463.7026, 6368.706
464.1848, 6339.139
464.6669, 6330.680
465.1490, 6332.307
465.6311, 6339.280
466.1132, 6346.645
466.5953, 6342.167
467.0775, 6321.207
467.5596, 6304.673
468.0417, 6294.666
468.5238, 6290.736
469.0059, 6292.471
469.4880, 6300.104
469.9702, 6314.554
470.4523, 6342.091
470.9344, 6373.762
471.4165, 6395.209
471.8986, 6406.533
472.3807, 6415.728
472.8629, 6424.657
473.3450, 6434.915
473.8271, 6452.309
474.3092, 6483.262
474.7913, 6500.002
475.2734, 6483.545
475.7556, 6460.597
476.2377, 6459.719
476.7198, 6477.614
477.2019, 6487.748
477.6840, 6470.208
478.1661, 6430.730
478.6483, 6398.656
479.1304, 6386.504
479.6125, 6360.921
480.0946, 6307.155
480.5767, 6247.221
481.0588, 6199.167
481.5410, 6164.862
482.0231, 6133.088
482.5052, 6097.689
482.9873, 6058.044
483.4694, 6008.804
483.9515, 5947.638
484.4337, 5889.183
484.9158, 5846.736
485.3979, 5809.340
485.8800, 5751.368
486.3621, 5658.546
486.8442, 5577.806
487.3264, 5533.827
487.8085, 5508.745
488.2906, 5479.988
488.7727, 5444.542
489.2548, 5412.301
489.7369, 5392.842
490.2191, 5384.914
490.7012, 5368.924
491.1833, 5336.046
491.6654, 5305.380
492.1475, 5273.416
492.6296, 5248.113
493.1118, 5240.384
493.5939, 5250.982
494.0760, 5266.114
494.5581, 5273.882
495.0402, 5274.678
495.5223, 5269.643
496.0045, 5256.111
496.4866, 5244.274
496.9687, 5238.737
497.4508, 5239.343
497.9329, 5246.924
498.4150, 5266.144
498.8972, 5282.471
499.3793, 5280.820
499.8614, 5274.643
500.3435, 5285.173
500.8256, 5315.825
501.3077, 5356.970
501.7899, 5402.096
502.2720, 5450.598
502.7541, 5490.510
503.2362, 5510.249
503.7183, 5535.083
504.2004, 5568.384
504.6826, 5608.986
505.1647, 5657.782
505.6468, 5714.125
506.1289, 5770.381
506.6110, 5816.862
507.0931, 5855.572
507.5752, 5904.026
508.0573, 5967.840
508.5395, 6026.200
509.0216, 6055.731
509.5037, 6076.439
509.9858, 6125.257
510.4679, 6215.649
510.9500, 6309.651
511.4322, 6386.455
511.9143, 6457.837
512.3964, 6543.981
512.8785, 6646.350
513.3607, 6744.232
513.8428, 6817.457
514.3249, 6869.195
514.8070, 6937.813
515.2891, 7035.195
515.7712, 7135.395
516.2534, 7240.805
516.7355, 7344.483
517.2176, 7439.089
517.6997, 7523.796
518.1818, 7606.355
518.6639, 7687.685
519.1461, 7771.093
519.6282, 7878.888
520.1103, 8019.547
520.5924, 8144.063
521.0745, 8214.942
521.5566, 8261.181
522.0388, 8343.223
522.5209, 8473.730
523.0030, 8601.185
523.4851, 8698.731
523.9672, 8790.813
524.4493, 8902.942
524.9315, 9036.896
525.4136, 9183.494
525.8957, 9336.328
526.3778, 9496.858
526.8599, 9674.604
527.3420, 9878.604
527.8242, 10086.34
528.3063, 10284.96
528.7884, 10494.96
529.2705, 10725.17
529.7526, 10980.17
530.2347, 11268.44
530.7169, 11601.49
531.1990, 11969.66
531.6810, 12354.77
532.1631, 12756.16
532.6453, 13188.12
533.1274, 13656.77
533.6095, 14154.43
534.0916, 14660.81
534.5737, 15165.97
535.0558, 15724.26
535.5380, 16362.93
536.0201, 17037.02
536.5022, 17720.93
536.9843, 18416.99
537.4664, 19129.82
537.9485, 19867.43
538.4307, 20628.64
538.9128, 21407.11
539.3949, 22203.73
539.8770, 23025.46
540.3591, 23892.34
540.8412, 24773.52
541.3234, 25641.46
541.8055, 26513.38
542.2876, 27435.77
542.7697, 28443.34
543.2518, 29483.74
543.7339, 30525.69
544.2161, 31560.85
544.6982, 32569.24
545.1803, 33545.25
545.6624, 34487.39
546.1445, 35403.97
546.6266, 36304.70
547.1088, 37024.38
547.5909, 37603.24
548.0730, 37976.19
548.5551, 38147.50
549.0372, 38089.31
549.5193, 37761.79
550.0015, 37157.76
550.4836, 36333.16
550.9657, 35323.27
551.4478, 34136.12
551.9299, 32770.20
552.4120, 31194.02
552.8942, 29571.15
553.3763, 27950.86
553.8584, 26349.67
554.3405, 24785.47
554.8226, 23252.81
555.3047, 21780.98
555.7869, 20369.66
556.2690, 19036.98
556.7511, 17797.64
557.2332, 16653.84
557.7153, 15606.84
558.1974, 14652.70
558.6796, 13792.73
559.1617, 13029.73
559.6438, 12390.83
560.1259, 11790.99
560.6080, 11214.16
561.0901, 10679.51
561.5723, 10196.66
562.0544, 9764.514
562.5365, 9371.930
563.0186, 9019.714
563.5007, 8698.209
563.9828, 8396.190
564.4650, 8117.102
564.9471, 7876.445
565.4292, 7682.385
565.9113, 7508.660
566.3934, 7327.182
566.8755, 7136.068
567.3577, 6958.037
567.8398, 6796.063
568.3219, 6641.464
568.8040, 6490.065
569.2861, 6346.258
569.7682, 6214.849
570.2504, 6097.736
570.7325, 5992.216
571.2146, 5899.479
571.6967, 5817.711
572.1788, 5736.180
572.6609, 5654.370
573.1431, 5574.204
573.6252, 5493.697
574.1073, 5416.521
574.5894, 5349.770
575.0715, 5296.068
575.5536, 5241.334
576.0358, 5179.341
576.5179, 5117.275
577.0000, 5062.190
577.4821, 5012.511
577.9642, 4961.972
578.4464, 4907.230
578.9285, 4851.143
579.4106, 4798.723
579.8927, 4748.486
580.3748, 4709.780
580.8569, 4693.997
581.3391, 4677.134
581.8212, 4643.705
582.3033, 4599.485
582.7854, 4557.812
583.2675, 4523.061
583.7496, 4489.183
584.2318, 4447.512
584.7139, 4405.462
585.1960, 4380.434
585.6781, 4374.246
586.1602, 4368.999
586.6423, 4349.297
587.1245, 4317.192
587.6066, 4288.705
588.0887, 4265.302
588.5708, 4243.232
589.0529, 4220.522
589.5350, 4200.129
590.0172, 4186.361
590.4993, 4177.849
590.9814, 4166.986
591.4635, 4147.551
591.9456, 4124.957
592.4277, 4107.849
592.9099, 4095.077
593.3920, 4077.245
593.8741, 4049.445
594.3562, 4023.695
594.8383, 4016.550
595.3204, 4031.604
595.8026, 4037.794
596.2847, 4033.106
596.7668, 4023.100
597.2489, 4002.374
597.7310, 3980.705
598.2131, 3973.011
598.6953, 3981.105
599.1774, 3987.173
599.6595, 3969.626
600.1416, 3936.293
600.6237, 3917.034
601.1058, 3913.474
601.5880, 3912.037
602.0701, 3907.031
602.5522, 3900.667
603.0343, 3897.570
603.5164, 3899.406
603.9985, 3897.306
604.4807, 3890.001
604.9628, 3878.913
605.4449, 3860.380
605.9270, 3839.690
606.4091, 3826.477
606.8912, 3824.753
607.3734, 3828.554
607.8555, 3829.800
608.3376, 3828.606
608.8197, 3830.554
609.3018, 3838.750
609.7839, 3842.596
610.2661, 3832.263
610.7482, 3815.103
611.2303, 3807.030
611.7124, 3812.712
612.1945, 3815.561
612.6766, 3809.082
613.1588, 3798.914
613.6409, 3787.425
614.1230, 3776.679
614.6051, 3771.610
615.0872, 3775.240
615.5693, 3783.226
616.0515, 3787.350
616.5336, 3787.361
617.0157, 3784.406
617.4978, 3774.869
617.9799, 3767.719
618.4620, 3771.263
618.9442, 3780.569
619.4263, 3785.887
619.9084, 3784.361
620.3905, 3781.567
620.8726, 3781.951
621.3547, 3781.397
621.8369, 3772.971
622.3190, 3757.657
622.8011, 3743.175
623.2832, 3734.378
623.7653, 3730.881
624.2474, 3732.450
624.7296, 3741.101
625.2117, 3748.426
625.6938, 3759.722
626.1759, 3762.120
626.6580, 3740.982
627.1401, 3705.699
627.6223, 3681.755
628.1044, 3680.748
628.5865, 3682.670
629.0686, 3673.736
629.5507, 3660.968
630.0328, 3658.589
630.5149, 3666.373
630.9970, 3666.620
631.4791, 3644.065
631.9612, 3607.305
632.4434, 3590.692
632.9255, 3601.191
633.4076, 3614.098
633.8897, 3634.432
634.3718, 3648.245
634.8539, 3642.444
635.3361, 3622.703
635.8182, 3607.767
636.3003, 3607.341
636.7824, 3606.768
637.2645, 3592.853
637.7466, 3573.191
638.2288, 3561.727
638.7109, 3560.094
639.1930, 3558.618
639.6751, 3548.724
640.1572, 3533.690
640.6393, 3530.578
641.1215, 3549.199
641.6036, 3555.774
642.0857, 3536.262
642.5678, 3511.207
643.0499, 3490.159
643.5320, 3473.964
644.0142, 3463.950
644.4963, 3463.361
644.9784, 3465.010
645.4605, 3464.348
645.9426, 3462.469
646.4247, 3462.146
646.9069, 3463.374
647.3890, 3461.840
647.8711, 3453.451
648.3532, 3440.390
648.8353, 3432.832
649.3174, 3433.382
649.7996, 3432.440
650.2817, 3427.675
650.7638, 3421.867
651.2459, 3415.556
651.7280, 3409.605
652.2101, 3406.840
652.6923, 3411.437
653.1744, 3414.494
653.6565, 3409.813
654.1386, 3400.476
654.6207, 3389.174
655.1028, 3377.387
655.5850, 3369.388
656.0671, 3368.672
656.5492, 3373.557
657.0313, 3379.008
657.5134, 3386.234
657.9955, 3389.516
658.4777, 3383.364
658.9598, 3378.538
659.4419, 3389.313
659.9240, 3407.291
660.4061, 3406.281
660.8882, 3361.905
661.3704, 3329.266
661.8525, 3348.362
662.3346, 3386.483
662.8167, 3404.397
663.2988, 3399.022
663.7809, 3384.774
664.2631, 3369.895
664.7452, 3357.291
665.2273, 3356.240
665.7094, 3369.110
666.1915, 3377.835
666.6736, 3381.567
667.1558, 3378.668
667.6379, 3362.263
668.1200, 3338.767
668.6021, 3324.462
669.0842, 3324.921
669.5663, 3326.226
670.0485, 3319.241
670.5306, 3314.686
671.0127, 3328.513
671.4948, 3354.284
671.9769, 3369.428
672.4590, 3360.895
672.9412, 3342.802
673.4233, 3341.304
673.9054, 3355.766
674.3875, 3358.190
674.8696, 3342.182
675.3517, 3326.738
675.8339, 3324.967
676.3160, 3331.071
676.7981, 3329.093
677.2802, 3315.805
677.7623, 3303.400
678.2444, 3289.723
678.7266, 3281.010
679.2087, 3286.938
679.6908, 3299.607
680.1729, 3301.996
680.6550, 3287.322
681.1371, 3270.429
681.6193, 3268.540
682.1014, 3278.280
682.5835, 3289.728
683.0656, 3302.844
683.5477, 3306.740
684.0298, 3293.711
684.5120, 3272.973
684.9941, 3261.557
685.4762, 3263.438
685.9583, 3261.620
686.4404, 3252.167
686.9225, 3243.743
687.4047, 3237.810
687.8868, 3235.433
688.3689, 3240.335
688.8510, 3252.544
689.3331, 3260.599
689.8152, 3252.392
690.2974, 3237.357
690.7795, 3229.874
691.2616, 3229.107
691.7437, 3228.254
692.2258, 3224.692
692.7079, 3224.850
693.1901, 3239.081
693.6722, 3268.055
694.1543, 3277.774
694.6364, 3252.194
695.1185, 3233.299
695.6006, 3238.089
696.0828, 3247.232
696.5649, 3242.574
697.0470, 3225.640
697.5291, 3215.059
698.0112, 3224.834
698.4933, 3236.017
698.9755, 3235.385
699.4576, 3226.930
699.9397, 3213.448
700.4218, 3197.665
700.9039, 3191.251
701.3860, 3206.117
701.8682, 3233.005
702.3503, 3239.638
702.8324, 3221.534
703.3145, 3208.248
703.7966, 3206.146
704.2787, 3207.134
704.7609, 3206.635
705.2430, 3204.332
705.7251, 3198.890
706.2072, 3186.524
706.6893, 3177.279
707.1714, 3178.146
707.6536, 3179.293
708.1357, 3169.109
708.6178, 3152.349
709.0999, 3143.446
709.5820, 3149.527
710.0641, 3160.731
710.5463, 3164.854
711.0284, 3163.207
711.5105, 3161.260
711.9926, 3159.434
712.4747, 3156.956
712.9568, 3152.919
713.4390, 3148.979
713.9211, 3148.878
714.4032, 3155.420
714.8853, 3156.664
715.3674, 3144.969
715.8495, 3137.123
716.3317, 3143.584
716.8138, 3154.042
717.2959, 3155.498
717.7780, 3145.980
718.2601, 3134.958
718.7422, 3124.622
719.2244, 3117.914
719.7065, 3122.512
720.1886, 3133.016
720.6707, 3133.327
721.1528, 3119.490
721.6349, 3103.782
722.1171, 3098.490
722.5992, 3102.395
723.0813, 3109.284
723.5634, 3122.995
724.0455, 3125.472
724.5276, 3105.609
725.0098, 3081.964
725.4919, 3069.077
725.9740, 3065.702
726.4561, 3067.848
726.9382, 3082.121
727.4203, 3092.485
727.9025, 3095.211
728.3846, 3091.440
728.8667, 3077.675
729.3488, 3058.307
729.8309, 3045.401
730.3130, 3045.690
730.7951, 3049.741
731.2772, 3042.119
731.7593, 3027.840
732.2415, 3028.324
732.7236, 3045.697
733.2057, 3062.680
733.6878, 3071.123
734.1699, 3071.435
734.6520, 3062.671
735.1342, 3038.660
735.6163, 3028.635
736.0984, 3050.203
736.5805, 3064.204
737.0626, 3054.468
737.5447, 3034.520
738.0269, 3015.194
738.5090, 2998.543
738.9911, 2994.626
739.4732, 3022.386
739.9553, 3050.404
740.4374, 3051.211
740.9196, 3035.632
741.4017, 3022.008
741.8838, 3014.860
742.3659, 3011.143
742.8480, 3008.737
743.3301, 3007.398
743.8123, 3007.191
744.2944, 3008.353
744.7765, 3005.652
745.2586, 2996.717
745.7407, 2988.219
746.2228, 2986.328
746.7050, 2988.753
747.1871, 2985.749
747.6692, 2971.351
748.1513, 2961.440
748.6334, 2957.010
749.1155, 2956.706
749.5977, 2965.136
750.0798, 2975.483
750.5619, 2973.776
751.0440, 2955.177
751.5261, 2940.688
752.0082, 2952.006
752.4904, 2971.392
752.9725, 2973.921
753.4546, 2962.939
753.9367, 2952.382
754.4188, 2947.226
754.9009, 2946.611
755.3831, 2950.348
755.8652, 2957.818
756.3473, 2963.225
756.8294, 2965.542
757.3115, 2970.566
757.7936, 2983.291
758.2758, 2993.823
758.7579, 2990.181
759.2400, 2974.493
759.7221, 2966.275
760.2042, 2973.828
760.6863, 2977.560
761.1685, 2971.719
761.6506, 2962.962
762.1327, 2953.223
762.6148, 2945.161
763.0969, 2945.086
763.5790, 2956.945
764.0612, 2967.132
764.5433, 2961.920
765.0254, 2947.660
765.5075, 2931.701
765.9896, 2916.628
766.4717, 2912.626
766.9539, 2924.336
767.4360, 2939.265
767.9181, 2939.184
768.4002, 2924.563
768.8823, 2918.635
769.3644, 2924.229
769.8466, 2929.988
770.3287, 2933.936
770.8108, 2935.336
771.2929, 2930.219
771.7750, 2919.901
772.2571, 2919.417
772.7393, 2940.807
773.2214, 2956.599
773.7035, 2961.142
774.1856, 2957.268
774.6677, 2943.471
775.1498, 2923.530
775.6320, 2904.244
776.1141, 2887.075
776.5962, 2877.845
777.0783, 2886.131
777.5604, 2903.991
778.0425, 2921.835
778.5247, 2936.785
779.0068, 2938.860
779.4889, 2923.552
779.9710, 2904.232
780.4531, 2900.329
780.9352, 2910.803
781.4174, 2912.871
781.8995, 2905.029
782.3816, 2893.874
782.8637, 2876.927
783.3458, 2863.836
783.8279, 2867.921
784.3101, 2887.580
784.7922, 2895.559
785.2743, 2882.274
785.7564, 2870.955
786.2385, 2863.987
786.7206, 2860.987
787.2028, 2866.852
787.6849, 2875.570
788.1670, 2871.574
788.6491, 2846.403
789.1312, 2826.176
789.6133, 2837.000
790.0955, 2858.794
790.5776, 2866.026
791.0597, 2860.821
791.5418, 2853.918
792.0239, 2849.365
792.5060, 2847.308
792.9882, 2849.024
793.4703, 2853.125
793.9524, 2851.485
794.4345, 2843.373
794.9166, 2839.104
795.3987, 2841.460
795.8809, 2847.853
796.3630, 2858.337
796.8451, 2870.838
797.3272, 2872.987
797.8093, 2856.754
798.2914, 2843.311
798.7736, 2830.493
799.2557, 2823.191
799.7378, 2827.342
800.2199, 2837.291
800.7020, 2843.195
801.1841, 2842.701
801.6663, 2843.327
802.1484, 2852.599
802.6305, 2860.028
803.1126, 2854.536
803.5947, 2842.528
804.0768, 2834.237
804.5590, 2832.305
805.0411, 2835.707
805.5232, 2847.300
806.0053, 2858.367
806.4874, 2847.154
806.9695, 2819.715
807.4517, 2809.056
807.9338, 2820.625
808.4159, 2831.718
808.8980, 2827.201
809.3801, 2812.853
809.8622, 2801.979
810.3444, 2794.552
810.8265, 2791.323
811.3086, 2794.571
811.7907, 2797.894
812.2728, 2801.587
812.7549, 2801.951
813.2371, 2789.248
813.7192, 2762.377
814.2013, 2752.912
814.6834, 2778.395
815.1655, 2802.655
815.6476, 2817.450
816.1298, 2824.278
816.6119, 2824.525
817.0940, 2818.254
817.5761, 2802.495
818.0582, 2770.509
818.5403, 2746.318
819.0225, 2757.430
819.5046, 2782.674
819.9867, 2794.646
820.4688, 2793.577
820.9509, 2787.267
821.4330, 2779.118
821.9152, 2773.579
822.3973, 2776.661
822.8794, 2786.564
823.3615, 2798.307
823.8436, 2811.928
824.3257, 2814.375
824.8079, 2800.753
825.2900, 2783.174
825.7721, 2770.433
826.2542, 2763.412
826.7363, 2768.111
827.2184, 2795.499
827.7006, 2807.688
828.1826, 2793.869
828.6647, 2776.088
829.1469, 2763.476
829.6290, 2753.917
830.1111, 2743.072
830.5932, 2729.465
831.0753, 2724.283
831.5574, 2735.063
832.0396, 2748.223
832.5217, 2759.656
833.0038, 2769.076
833.4859, 2777.528
833.9680, 2784.078
834.4501, 2785.008
834.9323, 2777.855
835.4144, 2766.000
835.8965, 2746.038
836.3786, 2726.816
836.8607, 2723.835
837.3428, 2735.258
837.8250, 2750.833
838.3071, 2766.087
838.7892, 2777.523
839.2713, 2778.594
839.7534, 2772.280
840.2355, 2774.060
840.7177, 2783.789
841.1998, 2783.826
841.6819, 2768.207
842.1640, 2750.136
842.6461, 2741.540
843.1282, 2740.058
843.6104, 2734.482
844.0925, 2720.607
844.5746, 2715.144
845.0567, 2724.067
845.5388, 2733.695
846.0209, 2736.420
846.5031, 2735.943
846.9852, 2739.275
847.4673, 2747.649
847.9494, 2751.044
848.4315, 2746.145
848.9136, 2739.120
849.3958, 2727.035
849.8779, 2717.547
850.3600, 2721.386
850.8421, 2734.843
851.3242, 2741.358
851.8063, 2730.238
852.2885, 2722.495
852.7706, 2740.229
853.2527, 2761.643
853.7348, 2758.815
854.2169, 2739.582
854.6990, 2726.048
855.1812, 2725.713
855.6633, 2732.486
856.1454, 2745.724
856.6275, 2758.543
857.1096, 2752.628
857.5917, 2733.051
858.0739, 2722.559
858.5560, 2725.267
859.0381, 2728.465
859.5202, 2723.620
860.0023, 2712.122
860.4844, 2692.604
860.9666, 2663.257
861.4487, 2658.215
861.9308, 2684.885
862.4129, 2708.914
862.8950, 2716.309
863.3771, 2715.329
863.8593, 2715.914
864.3414, 2718.046
864.8235, 2718.864
865.3056, 2719.386
865.7877, 2716.821
866.2698, 2701.285
866.7520, 2692.091
867.2341, 2709.489
867.7162, 2739.097
868.1983, 2748.496
868.6804, 2728.878
869.1625, 2711.207
869.6447, 2700.988
870.1268, 2695.521
870.6089, 2694.828
871.0910, 2697.319
871.5731, 2704.028
872.0552, 2712.997
872.5374, 2714.804
873.0195, 2699.127
873.5016, 2685.674
873.9837, 2695.228
874.4658, 2711.379
874.9479, 2709.941
875.4301, 2696.217
875.9122, 2693.648
876.3943, 2710.473
876.8764, 2725.053
877.3585, 2706.505
877.8406, 2674.369
878.3228, 2674.389
878.8049, 2697.947
879.2870, 2710.908
879.7691, 2706.346
880.2512, 2694.249
880.7333, 2680.876
881.2155, 2668.182
881.6976, 2659.646
882.1797, 2655.269
882.6618, 2658.953
883.1439, 2672.622
883.6260, 2681.032
884.1082, 2677.386
884.5903, 2668.682
885.0724, 2662.136
885.5545, 2658.059
886.0366, 2661.778
886.5187, 2679.168
887.0009, 2689.522
887.4830, 2687.493
887.9651, 2682.022
888.4472, 2678.392
888.9293, 2674.938
889.4114, 2666.712
889.8936, 2650.558
890.3757, 2642.905
890.8578, 2651.516
891.3399, 2659.509
891.8220, 2660.583
892.3041, 2660.242
892.7863, 2664.856
893.2684, 2672.791
893.7505, 2676.185
894.2326, 2670.420
894.7147, 2666.207
895.1968, 2669.645
895.6790, 2674.102
896.1611, 2676.559
896.6432, 2675.812
897.1253, 2668.995
897.6074, 2656.451
898.0895, 2645.444
898.5717, 2640.858
899.0538, 2638.756
899.5359, 2633.720
900.0180, 2629.899
900.5001, 2636.490
900.9822, 2650.489
901.4644, 2658.958
901.9465, 2656.156
902.4286, 2649.886
902.9107, 2650.395
903.3928, 2652.580
903.8749, 2640.727
904.3571, 2620.665
904.8392, 2618.366
905.3213, 2637.792
905.8034, 2655.084
906.2855, 2652.815
906.7676, 2640.107
907.2498, 2635.521
907.7319, 2638.128
908.2140, 2639.454
908.6961, 2639.175
909.1782, 2632.762
909.6603, 2617.068
910.1425, 2603.516
910.6246, 2605.271
911.1067, 2619.931
911.5888, 2633.918
912.0709, 2647.853
912.5530, 2658.361
913.0352, 2666.065
913.5173, 2666.982
913.9994, 2656.975
914.4815, 2641.184
914.9636, 2627.060
915.4457, 2613.659
915.9279, 2611.100
916.4100, 2628.417
916.8921, 2640.327
917.3742, 2640.555
917.8563, 2635.846
918.3384, 2629.583
918.8206, 2622.179
919.3027, 2614.297
919.7848, 2604.407
920.2669, 2598.509
920.7490, 2597.199
921.2311, 2599.648
921.7133, 2613.695
922.1954, 2625.322
922.6775, 2614.562
923.1596, 2587.145
923.6417, 2574.896
924.1238, 2594.103
924.6060, 2611.105
925.0881, 2612.353
925.5702, 2611.112
926.0523, 2618.278
926.5344, 2627.636
927.0165, 2630.317
927.4986, 2624.572
927.9807, 2611.640
928.4628, 2579.931
928.9449, 2557.203
929.4271, 2569.135
929.9092, 2592.517
930.3913, 2605.383
930.8734, 2607.424
931.3555, 2602.296
931.8376, 2591.652
932.3198, 2585.206
932.8019, 2595.722
933.2840, 2609.243
933.7661, 2608.413
934.2482, 2600.581
934.7303, 2599.045
935.2125, 2604.082
935.6946, 2607.309
936.1767, 2604.478
936.6588, 2600.994
937.1409, 2604.437
937.6230, 2610.603
938.1052, 2611.721
938.5873, 2608.355
939.0694, 2600.247
939.5515, 2588.927
940.0336, 2585.517
940.5157, 2599.173
940.9979, 2617.353
941.4800, 2616.147
941.9621, 2601.528
942.4442, 2598.697
942.9263, 2606.952
943.4084, 2608.556
943.8906, 2597.931
944.3727, 2587.441
944.8548, 2589.483
945.3369, 2597.585
945.8190, 2590.175
946.3011, 2568.813
946.7833, 2563.919
947.2654, 2578.534
947.7475, 2593.963
948.2296, 2603.179
948.7117, 2604.284
949.1938, 2592.330
949.6760, 2571.685
950.1581, 2572.953
950.6402, 2600.468
951.1223, 2607.410
951.6044, 2583.013
952.0865, 2562.311
952.5687, 2564.735
953.0508, 2578.386
953.5329, 2585.783
954.0150, 2586.942
954.4971, 2584.708
954.9792, 2577.748
955.4614, 2571.558
955.9435, 2565.551
956.4256, 2564.467
956.9077, 2574.376
957.3898, 2587.720
957.8719, 2587.663
958.3541, 2571.010
958.8362, 2563.714
959.3183, 2571.905
959.8004, 2576.008
960.2825, 2568.342
960.7646, 2560.747
961.2468, 2564.056
961.7289, 2573.130
962.2110, 2572.748
962.6931, 2557.285
963.1752, 2550.826
963.6573, 2562.352
964.1395, 2569.285
964.6216, 2559.273
965.1037, 2548.739
965.5858, 2554.461
966.0679, 2571.323
966.5500, 2578.513
967.0322, 2568.160
967.5143, 2565.527
967.9964, 2578.155
968.4785, 2589.777
968.9606, 2595.233
969.4427, 2597.369
969.9249, 2599.152
970.4070, 2600.189
970.8891, 2597.944
971.3712, 2590.572
971.8533, 2583.066
972.3354, 2572.564
972.8176, 2566.070
973.2997, 2571.813
973.7818, 2579.543
974.2639, 2575.899
974.7460, 2562.260
975.2281, 2553.713
975.7103, 2554.689
976.1924, 2557.605
976.6745, 2562.555
977.1566, 2567.286
977.6387, 2568.770
978.1208, 2570.416
978.6030, 2579.943
979.0851, 2596.099
979.5672, 2601.475
980.0493, 2579.803
980.5314, 2565.025
981.0135, 2575.354
981.4957, 2586.198
981.9778, 2576.976
982.4599, 2560.795
982.9420, 2559.252
983.4241, 2573.911
983.9063, 2585.887
984.3884, 2583.889
984.8705, 2585.652
985.3526, 2607.312
985.8347, 2624.954
986.3168, 2615.599
986.7990, 2592.615
987.2811, 2578.333
987.7632, 2576.134
988.2453, 2576.211
988.7274, 2578.448
989.2095, 2577.673
989.6917, 2565.157
990.1738, 2555.003
990.6559, 2562.808
991.1380, 2579.556
991.6201, 2588.763
992.1022, 2587.380
992.5844, 2582.519
993.0665, 2570.065
993.5486, 2563.820
994.0307, 2576.208
994.5128, 2592.163
994.9949, 2601.533
995.4771, 2603.547
995.9592, 2594.766
996.4413, 2575.408
996.9234, 2568.242
997.4055, 2601.926
997.8876, 2626.347
998.3698, 2604.250
998.8519, 2572.326
999.3340, 2563.154
999.8161, 2569.846
1000.298, 2572.096
1000.780, 2565.705
1001.262, 2566.003
1001.745, 2591.034
1002.227, 2610.228
1002.709, 2596.498
1003.191, 2579.589
1003.673, 2590.376
1004.155, 2618.143
1004.637, 2641.210
1005.119, 2654.388
1005.602, 2651.123
1006.084, 2611.160
1006.566, 2576.104
1007.048, 2569.540
1007.530, 2575.221
1008.012, 2580.751
1008.494, 2586.062
1008.976, 2595.875
1009.458, 2610.917
1009.941, 2620.119
1010.423, 2610.611
1010.905, 2604.716
1011.387, 2620.770
1011.869, 2638.273
1012.351, 2635.193
1012.833, 2621.601
1013.315, 2619.654
1013.797, 2633.448
1014.280, 2646.135
1014.762, 2651.653
1015.244, 2653.945
1015.726, 2654.984
1016.208, 2653.275
1016.690, 2645.252
1017.172, 2634.513
1017.654, 2627.079
1018.137, 2624.005
1018.619, 2623.192
1019.101, 2623.702
1019.583, 2626.647
1020.065, 2633.717
1020.547, 2642.109
1021.029, 2653.599
1021.511, 2663.220
1021.993, 2660.491
1022.476, 2644.972
1022.958, 2635.632
1023.440, 2640.690
1023.922, 2648.716
1024.404, 2662.552
1024.886, 2671.645
1025.368, 2663.928
1025.850, 2649.868
1026.333, 2645.122
1026.815, 2650.955
1027.297, 2657.625
1027.779, 2668.919
1028.261, 2672.235
1028.743, 2654.299
1029.225, 2639.256
1029.707, 2645.403
1030.189, 2659.482
1030.672, 2663.900
1031.154, 2658.100
1031.636, 2651.711
1032.118, 2636.590
1032.600, 2635.792
1033.082, 2669.731
1033.564, 2698.238
1034.046, 2697.948
1034.528, 2685.960
1035.011, 2680.392
1035.493, 2681.506
1035.975, 2684.930
1036.457, 2692.825
1036.939, 2698.790
1037.421, 2703.757
1037.903, 2705.356
1038.385, 2700.729
1038.868, 2693.970
1039.350, 2688.441
1039.832, 2684.047
1040.314, 2680.094
1040.796, 2672.871
1041.278, 2674.904
1041.760, 2691.981
1042.242, 2709.120
1042.724, 2725.655
1043.207, 2735.869
1043.689, 2731.548
1044.171, 2718.303
1044.653, 2714.960
1045.135, 2725.548
1045.617, 2730.202
1046.099, 2725.535
1046.581, 2722.874
1047.063, 2724.288
1047.546, 2730.042
1048.028, 2741.856
1048.510, 2756.439
1048.992, 2765.842
1049.474, 2769.371
1049.956, 2774.318
1050.438, 2779.031
1050.920, 2793.169
1051.403, 2820.753
1051.885, 2850.411
1052.367, 2875.634
1052.849, 2897.247
1053.331, 2917.131
1053.813, 2935.072
1054.295, 2946.364
1054.777, 2950.370
1055.260, 2958.611
1055.742, 2974.045
1056.224, 2980.048
1056.706, 2967.861
1057.188, 2945.105
1057.670, 2921.258
1058.152, 2895.802
1058.634, 2862.564
1059.116, 2823.479
1059.599, 2801.958
1060.081, 2799.449
1060.563, 2798.815
1061.045, 2793.271
1061.527, 2781.204
1062.009, 2759.146
1062.491, 2733.489
1062.973, 2717.005
1063.455, 2709.179
1063.938, 2712.887
1064.420, 2724.628
1064.902, 2726.253
1065.384, 2713.980
1065.866, 2705.286
1066.348, 2714.546
1066.830, 2727.451
1067.312, 2721.892
1067.795, 2707.707
1068.277, 2700.966
1068.759, 2701.577
1069.241, 2709.883
1069.723, 2723.287
1070.205, 2730.729
1070.687, 2725.385
1071.169, 2720.278
1071.651, 2726.526
1072.134, 2739.656
1072.616, 2762.434
1073.098, 2784.394
1073.580, 2788.515
1074.062, 2777.222
1074.544, 2761.899
1075.026, 2745.792
1075.508, 2738.032
1075.990, 2746.480
1076.473, 2761.688
1076.955, 2785.604
1077.437, 2806.510
1077.919, 2810.242
1078.401, 2803.159
1078.883, 2799.900
1079.365, 2802.904
1079.847, 2801.169
1080.329, 2782.573
1080.812, 2771.292
1081.294, 2781.285
1081.776, 2793.194
1082.258, 2796.082
1082.740, 2793.663
1083.222, 2790.967
1083.704, 2788.271
1084.186, 2784.620
1084.669, 2773.879
1085.151, 2772.982
1085.633, 2796.889
1086.115, 2810.728
1086.597, 2794.346
1087.079, 2774.328
1087.561, 2774.374
1088.043, 2788.979
1088.526, 2802.532
1089.008, 2818.391
1089.490, 2814.861
1089.972, 2781.998
1090.454, 2760.036
1090.936, 2759.612
1091.418, 2765.600
1091.900, 2768.723
1092.382, 2771.877
1092.865, 2780.705
1093.347, 2794.367
1093.829, 2804.700
1094.311, 2811.844
1094.793, 2809.068
1095.275, 2795.244
1095.757, 2785.354
1096.239, 2786.132
1096.721, 2790.075
1097.204, 2789.812
1097.686, 2785.672
1098.168, 2778.115
1098.650, 2767.388
1099.132, 2752.073
1099.614, 2734.260
1100.096, 2722.488
1100.578, 2719.260
1101.061, 2725.669
1101.543, 2744.929
1102.025, 2760.663
1102.507, 2746.338
1102.989, 2721.847
1103.471, 2717.303
1103.953, 2723.997
1104.435, 2723.253
1104.917, 2715.232
1105.400, 2712.429
1105.882, 2719.851
1106.364, 2725.595
1106.846, 2726.759
1107.328, 2718.090
1107.810, 2679.420
1108.292, 2644.049
1108.774, 2653.903
1109.256, 2687.057
1109.739, 2699.740
1110.221, 2685.878
1110.703, 2669.592
1111.185, 2648.342
1111.667, 2638.950
1112.149, 2661.198
1112.631, 2676.608
1113.113, 2657.804
1113.596, 2629.806
1114.078, 2619.553
1114.560, 2623.531
1115.042, 2626.922
1115.524, 2630.035
1116.006, 2631.363
1116.488, 2630.161
1116.970, 2629.365
1117.453, 2631.846
1117.935, 2629.293
1118.417, 2615.209
1118.899, 2594.745
1119.381, 2574.518
1119.863, 2555.922
1120.345, 2559.756
1120.827, 2587.057
1121.309, 2590.567
1121.792, 2564.905
1122.274, 2547.219
1122.756, 2552.444
1123.238, 2561.159
1123.720, 2554.357
1124.202, 2541.499
1124.684, 2544.025
1125.166, 2554.405
1125.648, 2550.590
1126.131, 2536.329
1126.613, 2525.862
1127.095, 2521.965
1127.577, 2521.498
1128.059, 2523.156
1128.541, 2524.071
1129.023, 2522.324
1129.505, 2518.018
1129.988, 2506.812
1130.470, 2496.511
1130.952, 2498.632
1131.434, 2508.906
1131.916, 2516.552
1132.398, 2519.257
1132.880, 2520.164
1133.362, 2522.017
1133.844, 2519.708
1134.327, 2504.431
1134.809, 2493.033
1135.291, 2500.453
1135.773, 2511.975
1136.255, 2512.393
1136.737, 2502.355
1137.219, 2487.266
1137.701, 2463.948
1138.183, 2446.702
1138.666, 2433.571
1139.148, 2432.889
1139.630, 2452.170
1140.112, 2469.260
1140.594, 2471.318
1141.076, 2463.750
1141.558, 2452.827
1142.040, 2440.411
1142.523, 2439.521
1143.005, 2449.434
1143.487, 2451.437
1143.969, 2444.715
1144.451, 2441.174
1144.933, 2444.582
1145.415, 2453.884
1145.897, 2469.640
1146.380, 2483.229
1146.862, 2479.467
1147.344, 2467.183
1147.826, 2462.160
1148.308, 2460.829
1148.790, 2454.096
1149.272, 2443.011
1149.754, 2434.706
1150.236, 2431.644
1150.719, 2432.471
1151.201, 2441.725
1151.683, 2447.568
1152.165, 2436.506
1152.647, 2426.830
1153.129, 2439.613
1153.611, 2458.068
1154.093, 2454.424
1154.575, 2432.158
1155.058, 2423.294
1155.540, 2439.756
1156.022, 2448.362
1156.504, 2439.373
1156.986, 2437.707
1157.468, 2453.535
1157.950, 2469.084
1158.432, 2472.455
1158.915, 2470.691
1159.397, 2475.764
1159.879, 2486.063
1160.361, 2487.344
1160.843, 2479.346
1161.325, 2472.680
1161.807, 2468.201
1162.289, 2465.157
1162.771, 2463.298
1163.254, 2462.896
1163.736, 2464.028
1164.218, 2467.445
1164.700, 2477.636
1165.182, 2488.552
1165.664, 2484.211
1166.146, 2474.417
1166.628, 2485.484
1167.110, 2509.521
1167.593, 2509.969
1168.075, 2478.102
1168.557, 2456.734
1169.039, 2480.151
1169.521, 2501.699
1170.003, 2492.385
1170.485, 2479.800
1170.967, 2482.258
1171.450, 2491.668
1171.932, 2502.538
1172.414, 2511.094
1172.896, 2502.962
1173.378, 2469.155
1173.860, 2456.346
1174.342, 2479.643
1174.824, 2487.466
1175.306, 2462.842
1175.789, 2447.590
1176.271, 2464.513
1176.753, 2492.771
1177.235, 2508.909
1177.717, 2515.852
1178.199, 2524.717
1178.681, 2533.635
1179.163, 2522.309
1179.646, 2495.434
1180.128, 2487.397
1180.610, 2502.479
1181.092, 2516.264
1181.574, 2516.219
1182.056, 2512.518
1182.538, 2514.185
1183.020, 2517.724
1183.502, 2517.328
1183.984, 2518.557
1184.467, 2532.288
1184.949, 2550.270
1185.431, 2557.112
1185.913, 2552.228
1186.395, 2546.233
1186.877, 2539.697
1187.359, 2538.105
1187.841, 2545.819
1188.324, 2554.120
1188.806, 2563.593
1189.288, 2568.963
1189.770, 2564.035
1190.252, 2556.748
1190.734, 2559.254
1191.216, 2570.213
1191.698, 2579.975
1192.181, 2588.675
1192.663, 2592.279
1193.145, 2590.573
1193.627, 2591.929
1194.109, 2598.318
1194.591, 2601.692
1195.073, 2596.776
1195.555, 2590.516
1196.037, 2591.163
1196.520, 2596.098
1197.002, 2604.628
1197.484, 2612.375
1197.966, 2609.839
1198.448, 2601.771
1198.930, 2600.346
1199.412, 2606.614
1199.894, 2610.357
1200.376, 2606.036
1200.859, 2604.689
1201.341, 2617.898
1201.823, 2624.005
1202.305, 2600.851
1202.787, 2582.735
1203.269, 2597.088
1203.751, 2627.608
1204.233, 2652.333
1204.716, 2670.527
1205.198, 2673.407
1205.680, 2658.529
1206.162, 2645.448
1206.644, 2634.588
1207.126, 2639.395
1207.608, 2663.180
1208.090, 2677.165
1208.573, 2663.175
1209.055, 2641.693
1209.537, 2635.189
1210.019, 2640.377
1210.501, 2660.521
1210.983, 2682.915
1211.465, 2682.002
1211.947, 2669.062
1212.429, 2674.677
1212.911, 2698.240
1213.394, 2706.978
1213.876, 2684.992
1214.358, 2667.601
1214.840, 2667.699
1215.322, 2671.694
1215.804, 2676.167
1216.286, 2682.085
1216.768, 2689.625
1217.251, 2699.632
1217.733, 2714.731
1218.215, 2732.560
1218.697, 2741.232
1219.179, 2740.324
1219.661, 2735.485
1220.143, 2727.035
1220.625, 2727.402
1221.108, 2738.391
1221.590, 2750.697
1222.072, 2759.665
1222.554, 2762.947
1223.036, 2754.680
1223.518, 2746.139
1224.000, 2754.706
1224.482, 2767.631
1224.964, 2772.261
1225.447, 2768.918
1225.929, 2752.265
1226.411, 2730.295
1226.893, 2730.330
1227.375, 2762.146
1227.857, 2780.905
1228.339, 2764.454
1228.821, 2758.395
1229.303, 2775.045
1229.786, 2789.290
1230.268, 2791.588
1230.750, 2788.434
1231.232, 2785.809
1231.714, 2781.288
1232.196, 2766.863
1232.678, 2745.604
1233.160, 2739.722
1233.643, 2745.518
1234.125, 2743.214
1234.607, 2734.625
1235.089, 2743.032
1235.571, 2771.210
1236.053, 2782.588
1236.535, 2748.689
1237.017, 2721.734
1237.500, 2753.448
1237.982, 2787.127
1238.464, 2780.018
1238.946, 2762.645
1239.428, 2763.899
1239.910, 2774.572
1240.392, 2775.590
1240.874, 2767.337
1241.356, 2756.898
1241.839, 2742.326
1242.321, 2732.359
1242.803, 2727.132
1243.285, 2726.361
1243.767, 2730.065
1244.249, 2738.845
1244.731, 2753.422
1245.213, 2761.831
1245.695, 2748.130
1246.178, 2727.531
1246.660, 2726.530
1247.142, 2733.241
1247.624, 2729.587
1248.106, 2719.723
1248.588, 2711.727
1249.070, 2706.190
1249.552, 2698.869
1250.035, 2688.413
1250.517, 2687.713
1250.999, 2716.697
1251.481, 2728.295
1251.963, 2706.529
1252.445, 2682.575
1252.927, 2661.296
1253.409, 2651.509
1253.891, 2663.803
1254.374, 2681.271
1254.856, 2672.374
1255.338, 2645.472
1255.820, 2637.756
1256.302, 2644.520
1256.784, 2646.951
1257.266, 2645.720
1257.748, 2652.912
1258.230, 2666.995
1258.713, 2665.393
1259.195, 2636.561
1259.677, 2614.124
1260.159, 2627.033
1260.641, 2638.035
1261.123, 2627.271
1261.605, 2611.790
1262.087, 2598.645
1262.570, 2589.855
1263.052, 2589.375
1263.534, 2592.477
1264.016, 2584.966
1264.498, 2566.732
1264.980, 2566.536
1265.462, 2584.308
1265.944, 2589.688
1266.427, 2580.824
1266.909, 2575.180
1267.391, 2577.177
1267.873, 2573.248
1268.355, 2553.761
1268.837, 2537.251
1269.319, 2547.232
##END=



