##NAMES=Minyulite
##RRUFFID=R070151
##IDEAL CHEMISTRY=KAl_2_(PO_4_)_2_F&#183;4H_2_O
##LOCALITY=Minyulo Well, Dandaragan, Western Australia, Australia
##OWNER=RRUFF
##SOURCE=James Shigley
##DESCRIPTION=Radiating colorless transparent thin prismatic crystals
##STATUS=The identification of this mineral is confirmed by single-crystal X-ray diffraction and chemical analysis.
##URL=rruff.info/R070151
##MEASURED CHEMISTRY=K_1.00_Al_2.00_(P_1.00_O_4_)_2_F_1.00_Â·4H_2_O;  H_2_O estimated by difference
162.2346, 22878.97
162.7167, 23007.42
163.1988, 23140.50
163.6809, 23261.87
164.1631, 23353.27
164.6452, 23431.99
165.1273, 23520.89
165.6094, 23642.21
166.0915, 23766.97
166.5736, 23879.05
167.0558, 23978.05
167.5379, 24058.93
168.0200, 24103.23
168.5021, 24126.38
168.9842, 24158.16
169.4663, 24227.16
169.9485, 24305.40
170.4306, 24360.69
170.9127, 24376.20
171.3948, 24398.37
171.8769, 24478.41
172.3590, 24601.13
172.8412, 24717.08
173.3233, 24791.25
173.8054, 24840.78
174.2875, 24888.67
174.7696, 24942.93
175.2517, 24993.09
175.7339, 25015.79
176.2160, 25016.68
176.6981, 25033.38
177.1802, 25105.21
177.6623, 25212.89
178.1444, 25315.64
178.6266, 25403.00
179.1087, 25480.05
179.5908, 25556.66
180.0729, 25632.40
180.5550, 25695.98
181.0371, 25729.24
181.5193, 25739.78
182.0014, 25750.68
182.4835, 25767.00
182.9656, 25789.96
183.4477, 25830.07
183.9298, 25890.12
184.4120, 25943.75
184.8941, 25949.82
185.3762, 25916.92
185.8583, 25895.92
186.3404, 25924.00
186.8225, 25984.17
187.3047, 26006.83
187.7868, 25982.49
188.2689, 25947.70
188.7510, 25959.75
189.2331, 26016.19
189.7152, 26071.24
190.1974, 26103.21
190.6795, 26113.38
191.1616, 26107.31
191.6437, 26080.20
192.1258, 26046.31
192.6080, 26031.48
193.0901, 26035.91
193.5722, 26050.60
194.0543, 26065.61
194.5364, 26081.74
195.0185, 26125.09
195.5007, 26205.46
195.9828, 26307.83
196.4649, 26390.62
196.9470, 26451.83
197.4291, 26512.68
197.9112, 26598.64
198.3934, 26712.66
198.8755, 26789.06
199.3576, 26802.57
199.8397, 26776.88
200.3218, 26805.91
200.8039, 26899.04
201.2861, 27015.17
201.7682, 27120.70
202.2503, 27213.11
202.7324, 27313.07
203.2145, 27425.32
203.6966, 27548.72
204.1788, 27678.58
204.6609, 27818.81
205.1430, 27953.42
205.6251, 28061.19
206.1072, 28134.26
206.5893, 28217.09
207.0715, 28331.03
207.5536, 28472.88
208.0357, 28566.10
208.5178, 28600.03
208.9999, 28602.43
209.4820, 28602.52
209.9642, 28598.37
210.4463, 28599.00
210.9284, 28613.62
211.4105, 28645.14
211.8926, 28643.85
212.3747, 28601.88
212.8569, 28536.08
213.3390, 28463.08
213.8211, 28373.04
214.3032, 28303.23
214.7853, 28267.67
215.2674, 28270.60
215.7496, 28286.17
216.2317, 28320.49
216.7138, 28362.64
217.1959, 28392.99
217.6780, 28406.50
218.1601, 28419.55
218.6423, 28438.85
219.1244, 28467.49
219.6065, 28488.98
220.0886, 28491.09
220.5707, 28493.02
221.0528, 28544.00
221.5350, 28682.66
222.0171, 28801.16
222.4992, 28844.58
222.9813, 28763.29
223.4634, 28739.30
223.9455, 28792.37
224.4277, 28897.97
224.9098, 28988.61
225.3919, 29063.38
225.8740, 29127.12
226.3561, 29180.68
226.8382, 29215.29
227.3204, 29259.36
227.8025, 29314.69
228.2846, 29379.42
228.7667, 29451.35
229.2488, 29539.35
229.7310, 29619.53
230.2131, 29678.02
230.6952, 29702.00
231.1773, 29730.64
231.6594, 29763.72
232.1415, 29802.92
232.6237, 29859.43
233.1058, 29950.79
233.5879, 30036.35
234.0700, 30089.51
234.5521, 30089.42
235.0342, 30099.77
235.5164, 30121.68
235.9985, 30156.97
236.4806, 30220.58
236.9627, 30332.21
237.4448, 30445.87
237.9269, 30531.84
238.4091, 30575.81
238.8912, 30618.62
239.3733, 30659.96
239.8554, 30701.68
240.3375, 30761.36
240.8196, 30854.88
241.3018, 30947.84
241.7839, 31017.64
242.2660, 31062.59
242.7481, 31086.46
243.2302, 31080.50
243.7123, 31048.36
244.1945, 31037.78
244.6766, 31064.12
245.1587, 31094.23
245.6408, 31103.13
246.1229, 31083.61
246.6050, 31057.20
247.0872, 31024.38
247.5693, 30985.70
248.0514, 30950.55
248.5335, 30919.72
249.0156, 30891.43
249.4977, 30863.26
249.9799, 30830.01
250.4620, 30809.24
250.9441, 30811.86
251.4262, 30835.99
251.9083, 30828.21
252.3904, 30761.98
252.8726, 30695.39
253.3547, 30684.07
253.8368, 30755.52
254.3189, 30821.42
254.8010, 30869.46
255.2831, 30899.72
255.7653, 30913.92
256.2474, 30903.95
256.7295, 30887.84
257.2116, 30880.39
257.6937, 30878.98
258.1758, 30893.18
258.6580, 30928.63
259.1401, 30984.66
259.6222, 31036.39
260.1043, 31085.15
260.5864, 31127.14
261.0685, 31156.85
261.5507, 31170.32
262.0328, 31182.24
262.5149, 31194.90
262.9970, 31208.38
263.4791, 31221.24
263.9612, 31227.86
264.4434, 31242.70
264.9255, 31287.45
265.4076, 31379.22
265.8897, 31442.97
266.3718, 31451.04
266.8539, 31408.73
267.3361, 31412.95
267.8182, 31479.81
268.3003, 31564.61
268.7824, 31620.57
269.2645, 31635.55
269.7466, 31669.63
270.2288, 31746.53
270.7109, 31859.31
271.1930, 31929.20
271.6751, 31943.46
272.1572, 31943.73
272.6393, 31968.39
273.1215, 32019.17
273.6036, 32086.64
274.0857, 32176.29
274.5678, 32282.90
275.0499, 32364.04
275.5320, 32413.53
276.0142, 32456.48
276.4963, 32515.96
276.9784, 32593.12
277.4605, 32680.21
277.9426, 32779.26
278.4247, 32886.83
278.9069, 32984.91
279.3890, 33068.74
279.8711, 33158.57
280.3532, 33284.00
280.8354, 33447.39
281.3175, 33583.69
281.7996, 33664.88
282.2817, 33711.08
282.7638, 33802.68
283.2459, 33946.35
283.7281, 34097.17
284.2102, 34210.04
284.6923, 34286.77
285.1744, 34372.96
285.6565, 34476.36
286.1386, 34596.29
286.6208, 34739.54
287.1029, 34909.90
287.5850, 35069.90
288.0671, 35176.11
288.5492, 35237.40
289.0313, 35320.63
289.5135, 35445.59
289.9956, 35596.91
290.4777, 35741.51
290.9598, 35879.98
291.4419, 36017.83
291.9240, 36174.56
292.4062, 36339.41
292.8883, 36461.64
293.3704, 36525.15
293.8525, 36550.30
294.3346, 36567.48
294.8167, 36577.00
295.2989, 36585.35
295.7810, 36611.86
296.2631, 36641.55
296.7452, 36633.14
297.2273, 36571.55
297.7094, 36480.26
298.1916, 36376.65
298.6737, 36265.50
299.1558, 36171.01
299.6379, 36126.64
300.1200, 36108.13
300.6021, 36070.12
301.0843, 36003.65
301.5664, 35917.64
302.0485, 35811.03
302.5306, 35689.08
303.0127, 35576.84
303.4948, 35488.43
303.9770, 35418.22
304.4591, 35348.79
304.9412, 35263.66
305.4233, 35216.89
305.9054, 35190.01
306.3875, 35153.26
306.8697, 35107.16
307.3518, 35023.75
307.8339, 34988.53
308.3160, 34933.99
308.7981, 34878.66
309.2802, 34850.21
309.7624, 34772.22
310.2445, 34730.60
310.7266, 34711.50
311.2087, 34723.08
311.6908, 34747.70
312.1729, 34776.45
312.6551, 34811.52
313.1372, 34835.91
313.6193, 34825.57
314.1014, 34800.81
314.5835, 34793.09
315.0656, 34821.43
315.5478, 34864.56
316.0299, 34919.61
316.5120, 34990.82
316.9941, 35040.59
317.4762, 35027.01
317.9583, 34992.16
318.4405, 34985.45
318.9226, 35056.65
319.4047, 35127.04
319.8868, 35163.41
320.3689, 35161.04
320.8510, 35162.59
321.3332, 35174.62
321.8153, 35196.91
322.2974, 35229.28
322.7795, 35280.36
323.2616, 35332.80
323.7437, 35381.12
324.2259, 35425.04
324.7080, 35474.87
325.1901, 35553.20
325.6722, 35626.03
326.1543, 35668.11
326.6364, 35641.06
327.1186, 35625.76
327.6007, 35625.10
328.0828, 35639.92
328.5649, 35681.70
329.0470, 35784.56
329.5291, 35887.08
330.0113, 35953.03
330.4934, 35963.48
330.9755, 35967.04
331.4576, 35952.46
331.9397, 35930.98
332.4218, 35952.66
332.9040, 36034.69
333.3861, 36137.66
333.8682, 36250.00
334.3503, 36399.98
334.8324, 36481.77
335.3145, 36461.38
335.7967, 36385.07
336.2788, 36377.38
336.7609, 36458.94
337.2430, 36558.49
337.7251, 36645.55
338.2072, 36722.07
338.6894, 36779.25
339.1715, 36811.75
339.6536, 36832.80
340.1357, 36866.85
340.6178, 36916.91
341.0999, 36963.25
341.5821, 36998.50
342.0642, 37022.41
342.5463, 37039.14
343.0284, 37046.40
343.5105, 37053.07
343.9926, 37071.74
344.4748, 37101.78
344.9569, 37133.55
345.4390, 37173.61
345.9211, 37211.73
346.4032, 37197.77
346.8853, 37126.73
347.3675, 37063.91
347.8496, 37091.38
348.3317, 37186.47
348.8138, 37266.73
349.2959, 37300.97
349.7780, 37309.80
350.2602, 37328.31
350.7423, 37355.35
351.2244, 37376.35
351.7065, 37357.39
352.1887, 37327.86
352.6708, 37344.15
353.1529, 37435.68
353.6350, 37554.50
354.1171, 37668.80
354.5992, 37775.29
355.0814, 37856.52
355.5635, 37877.59
356.0456, 37879.61
356.5277, 37907.26
357.0098, 37977.60
357.4919, 38051.86
357.9741, 38100.92
358.4562, 38136.05
358.9383, 38181.70
359.4204, 38236.98
359.9025, 38314.15
360.3846, 38428.13
360.8668, 38589.69
361.3489, 38747.57
361.8310, 38889.90
362.3131, 39013.73
362.7952, 39114.51
363.2773, 39153.81
363.7595, 39202.59
364.2416, 39283.31
364.7237, 39398.23
365.2058, 39536.47
365.6879, 39708.58
366.1700, 39896.12
366.6522, 40082.41
367.1343, 40259.27
367.6164, 40442.16
368.0985, 40642.11
368.5806, 40857.15
369.0627, 41052.10
369.5449, 41205.47
370.0270, 41356.83
370.5091, 41536.49
370.9912, 41783.38
371.4733, 41988.96
371.9554, 42138.54
372.4376, 42242.16
372.9197, 42330.40
373.4018, 42399.28
373.8839, 42458.65
374.3660, 42527.71
374.8481, 42628.92
375.3303, 42629.59
375.8124, 42499.27
376.2945, 42300.23
376.7766, 42139.69
377.2587, 42025.06
377.7408, 41911.57
378.2230, 41774.25
378.7051, 41617.49
379.1872, 41485.25
379.6693, 41381.83
380.1514, 41290.57
380.6335, 41199.24
381.1157, 41106.16
381.5978, 41002.27
382.0799, 40880.27
382.5620, 40747.57
383.0441, 40614.60
383.5262, 40480.47
384.0084, 40365.45
384.4905, 40294.68
384.9726, 40254.23
385.4547, 40210.71
385.9368, 40149.78
386.4189, 40091.64
386.9011, 40066.78
387.3832, 40067.14
387.8653, 40061.59
388.3474, 40021.18
388.8295, 39969.73
389.3116, 39929.60
389.7938, 39901.74
390.2759, 39895.51
390.7580, 39938.82
391.2401, 40006.25
391.7222, 40051.25
392.2043, 40043.13
392.6865, 40016.71
393.1686, 39976.76
393.6507, 39918.64
394.1328, 39900.18
394.6149, 39971.34
395.0970, 40078.10
395.5792, 40166.81
396.0613, 40229.29
396.5434, 40269.89
397.0255, 40271.03
397.5076, 40235.98
397.9897, 40240.38
398.4719, 40326.31
398.9540, 40426.90
399.4361, 40505.55
399.9182, 40540.63
400.4003, 40586.97
400.8824, 40655.40
401.3646, 40735.69
401.8467, 40796.06
402.3288, 40831.30
402.8109, 40855.36
403.2930, 40867.27
403.7751, 40858.34
404.2573, 40885.37
404.7394, 40959.89
405.2215, 41054.71
405.7036, 41142.62
406.1857, 41229.94
406.6678, 41258.46
407.1500, 41181.48
407.6321, 41025.44
408.1142, 40944.39
408.5963, 40944.51
409.0784, 40981.84
409.5605, 41038.23
410.0427, 41104.16
410.5248, 41124.01
411.0069, 41064.66
411.4890, 40981.91
411.9711, 40971.89
412.4532, 41026.42
412.9354, 41095.11
413.4175, 41157.45
413.8996, 41207.80
414.3817, 41236.10
414.8638, 41239.21
415.3459, 41225.83
415.8281, 41181.75
416.3102, 41127.36
416.7923, 41102.18
417.2744, 41154.89
417.7565, 41220.75
418.2386, 41255.57
418.7208, 41256.43
419.2029, 41255.85
419.6850, 41259.46
420.1671, 41272.05
420.6492, 41298.15
421.1313, 41358.92
421.6135, 41411.66
422.0956, 41432.57
422.5777, 41431.36
423.0598, 41462.57
423.5420, 41583.57
424.0241, 41697.84
424.5062, 41758.52
424.9883, 41711.88
425.4704, 41709.38
425.9525, 41771.06
426.4347, 41868.42
426.9168, 41952.95
427.3989, 42025.44
427.8810, 42084.83
428.3631, 42127.84
428.8452, 42153.64
429.3274, 42182.00
429.8095, 42210.14
430.2916, 42245.91
430.7737, 42303.35
431.2558, 42384.17
431.7379, 42449.34
432.2201, 42481.10
432.7022, 42499.11
433.1843, 42561.02
433.6664, 42666.35
434.1485, 42776.63
434.6306, 42864.82
435.1128, 42937.45
435.5949, 43011.66
436.0770, 43088.43
436.5591, 43169.99
437.0412, 43262.19
437.5233, 43360.20
438.0055, 43450.84
438.4876, 43524.31
438.9697, 43590.02
439.4518, 43650.87
439.9339, 43707.73
440.4160, 43775.78
440.8982, 43861.80
441.3803, 43964.32
441.8624, 44083.94
442.3445, 44246.84
442.8266, 44395.78
443.3087, 44504.14
443.7909, 44581.73
444.2730, 44658.91
444.7551, 44764.11
445.2372, 44853.73
445.7193, 44911.39
446.2014, 44937.61
446.6836, 44925.89
447.1657, 44846.79
447.6478, 44744.05
448.1299, 44672.01
448.6120, 44639.77
449.0941, 44626.34
449.5763, 44644.02
450.0584, 44687.65
450.5405, 44657.64
451.0226, 44524.07
451.5047, 44381.95
451.9868, 44303.55
452.4690, 44293.69
452.9511, 44294.91
453.4332, 44305.82
453.9153, 44317.58
454.3974, 44306.21
454.8795, 44272.88
455.3617, 44249.99
455.8438, 44264.16
456.3259, 44300.24
456.8080, 44318.90
457.2901, 44318.35
457.7722, 44309.50
458.2544, 44285.27
458.7365, 44261.71
459.2186, 44272.46
459.7007, 44362.64
460.1828, 44454.29
460.6649, 44464.70
461.1471, 44414.27
461.6292, 44386.85
462.1113, 44450.28
462.5934, 44534.51
463.0755, 44585.00
463.5576, 44575.28
464.0398, 44586.36
464.5219, 44667.06
465.0040, 44776.14
465.4861, 44855.19
465.9682, 44838.86
466.4503, 44850.55
466.9325, 44935.45
467.4146, 45093.48
467.8967, 45211.65
468.3788, 45273.93
468.8609, 45313.62
469.3430, 45348.47
469.8252, 45371.30
470.3073, 45409.72
470.7894, 45465.09
471.2715, 45537.38
471.7536, 45627.50
472.2357, 45736.17
472.7179, 45858.19
473.2000, 45993.89
473.6821, 46141.87
474.1642, 46295.28
474.6463, 46454.99
475.1284, 46613.37
475.6106, 46755.82
476.0927, 46890.31
476.5748, 47037.88
477.0569, 47202.52
477.5390, 47386.66
478.0211, 47604.09
478.5033, 47846.68
478.9854, 48085.61
479.4675, 48284.96
479.9496, 48482.67
480.4317, 48710.91
480.9138, 48973.41
481.3960, 49254.04
481.8781, 49564.71
482.3602, 49883.52
482.8423, 50181.00
483.3244, 50420.72
483.8065, 50672.76
484.2887, 50953.73
484.7708, 51261.85
485.2529, 51586.70
485.7350, 51944.04
486.2171, 52303.97
486.6992, 52657.03
487.1814, 53006.60
487.6635, 53330.43
488.1456, 53624.07
488.6277, 53897.20
489.1098, 54164.73
489.5919, 54429.80
490.0741, 54687.93
490.5562, 54955.39
491.0383, 55215.77
491.5204, 55383.64
492.0026, 55457.15
492.4847, 55478.12
492.9668, 55490.35
493.4489, 55478.02
493.9310, 55387.52
494.4131, 55205.58
494.8953, 54965.42
495.3774, 54690.56
495.8595, 54385.23
496.3416, 54073.14
496.8237, 53760.02
497.3058, 53441.70
497.7880, 53110.39
498.2701, 52768.82
498.7522, 52416.67
499.2343, 52020.38
499.7164, 51638.18
500.1985, 51311.15
500.6807, 51093.54
501.1628, 50872.98
501.6449, 50609.05
502.1270, 50331.04
502.6091, 50099.51
503.0912, 49933.97
503.5734, 49790.10
504.0555, 49670.44
504.5376, 49579.55
505.0197, 49421.41
505.5018, 49155.62
505.9839, 48895.17
506.4661, 48747.59
506.9482, 48725.68
507.4303, 48680.36
507.9124, 48588.66
508.3945, 48472.25
508.8766, 48367.56
509.3588, 48274.38
509.8409, 48196.32
510.3230, 48139.30
510.8051, 48097.27
511.2872, 48063.71
511.7693, 48038.30
512.2515, 48009.53
512.7336, 47954.71
513.2157, 47895.63
513.6978, 47862.29
514.1799, 47875.14
514.6620, 47892.81
515.1442, 47893.50
515.6263, 47882.41
516.1084, 47870.99
516.5905, 47879.11
517.0726, 47872.51
517.5547, 47834.41
518.0369, 47760.36
518.5190, 47683.27
519.0011, 47573.27
519.4832, 47485.52
519.9653, 47466.30
520.4474, 47565.48
520.9296, 47615.82
521.4117, 47586.23
521.8938, 47516.76
522.3759, 47495.78
522.8580, 47527.97
523.3401, 47583.98
523.8223, 47671.35
524.3044, 47775.27
524.7865, 47809.31
525.2686, 47768.68
525.7507, 47731.86
526.2328, 47793.74
526.7150, 47909.74
527.1971, 47979.00
527.6792, 47972.91
528.1613, 47933.84
528.6434, 47876.48
529.1255, 47816.23
529.6077, 47784.84
530.0898, 47809.66
530.5719, 47856.37
531.0540, 47920.48
531.5361, 48000.43
532.0182, 48049.32
532.5004, 48029.35
532.9825, 47991.07
533.4646, 47966.12
533.9467, 47940.73
534.4288, 47953.71
534.9109, 48026.02
535.3931, 48127.18
535.8752, 48207.90
536.3573, 48271.43
536.8394, 48302.57
537.3215, 48280.06
537.8036, 48218.74
538.2858, 48229.65
538.7679, 48323.65
539.2500, 48415.31
539.7321, 48426.50
540.2142, 48378.40
540.6964, 48352.48
541.1785, 48359.32
541.6606, 48383.46
542.1427, 48412.18
542.6248, 48445.09
543.1069, 48481.32
543.5891, 48532.88
544.0712, 48577.45
544.5533, 48592.00
545.0354, 48582.65
545.5175, 48581.35
545.9996, 48606.67
546.4818, 48639.23
546.9639, 48665.52
547.4460, 48673.96
547.9281, 48704.34
548.4102, 48796.34
548.8923, 48891.08
549.3745, 48921.19
549.8566, 48836.75
550.3387, 48792.43
550.8208, 48815.37
551.3029, 48893.31
551.7850, 49000.19
552.2672, 49148.26
552.7493, 49254.48
553.2314, 49240.22
553.7135, 49135.79
554.1956, 49110.64
554.6777, 49171.34
555.1599, 49260.55
555.6420, 49333.92
556.1241, 49393.28
556.6062, 49439.27
557.0883, 49463.02
557.5704, 49489.42
558.0526, 49544.63
558.5347, 49617.02
559.0168, 49681.41
559.4989, 49723.29
559.9810, 49757.07
560.4631, 49777.99
560.9453, 49784.57
561.4274, 49825.21
561.9095, 49946.36
562.3916, 50072.95
562.8737, 50160.26
563.3558, 50173.33
563.8380, 50226.77
564.3201, 50350.60
564.8022, 50486.13
565.2843, 50524.27
565.7664, 50446.71
566.2485, 50416.67
566.7307, 50510.41
567.2128, 50667.39
567.6949, 50700.05
568.1770, 50615.71
568.6591, 50530.30
569.1412, 50510.39
569.6234, 50542.55
570.1055, 50617.14
570.5876, 50737.74
571.0697, 50856.80
571.5518, 50928.88
572.0339, 50985.24
572.5161, 51061.31
572.9982, 51203.37
573.4803, 51325.94
573.9624, 51397.88
574.4445, 51431.48
574.9266, 51458.05
575.4088, 51468.42
575.8909, 51485.89
576.3730, 51507.68
576.8551, 51531.68
577.3372, 51619.53
577.8193, 51795.13
578.3015, 51983.20
578.7836, 52138.52
579.2657, 52259.13
579.7478, 52314.16
580.2299, 52280.37
580.7120, 52241.24
581.1942, 52325.47
581.6763, 52508.48
582.1584, 52701.86
582.6405, 52869.52
583.1226, 53030.58
583.6047, 53212.86
584.0869, 53407.18
584.5690, 53574.19
585.0511, 53633.96
585.5332, 53704.66
586.0153, 53883.92
586.4974, 54216.98
586.9796, 54482.23
587.4617, 54589.89
587.9438, 54643.58
588.4259, 54731.54
588.9080, 54887.82
589.3901, 55017.46
589.8723, 55120.50
590.3544, 55188.12
590.8365, 55193.52
591.3186, 55131.48
591.8007, 55046.50
592.2828, 54966.23
592.7650, 54871.86
593.2471, 54666.88
593.7292, 54354.49
594.2113, 54078.72
594.6934, 53995.03
595.1755, 53993.82
595.6577, 53901.00
596.1398, 53682.06
596.6219, 53456.31
597.1040, 53295.05
597.5862, 53174.01
598.0683, 53061.92
598.5504, 52930.62
599.0325, 52830.91
599.5146, 52798.03
599.9968, 52807.62
600.4789, 52784.65
600.9610, 52685.37
601.4431, 52617.88
601.9252, 52628.19
602.4073, 52712.01
602.8895, 52745.79
603.3716, 52716.49
603.8537, 52682.88
604.3358, 52701.96
604.8179, 52761.56
605.3000, 52783.21
605.7822, 52757.36
606.2643, 52702.96
606.7464, 52607.65
607.2285, 52502.23
607.7106, 52448.77
608.1927, 52493.43
608.6749, 52567.15
609.1570, 52638.25
609.6391, 52703.68
610.1212, 52751.99
610.6033, 52767.59
611.0854, 52777.28
611.5676, 52791.59
612.0497, 52811.92
612.5318, 52826.44
613.0139, 52831.87
613.4960, 52835.53
613.9781, 52837.86
614.4603, 52834.04
614.9424, 52862.76
615.4245, 52938.36
615.9066, 53015.07
616.3887, 53013.25
616.8708, 52947.88
617.3530, 52924.15
617.8351, 52991.98
618.3172, 53082.81
618.7993, 53094.37
619.2814, 53053.02
619.7635, 53041.20
620.2457, 53150.15
620.7278, 53262.96
621.2099, 53290.63
621.6920, 53231.35
622.1741, 53193.85
622.6563, 53225.28
623.1384, 53272.74
623.6205, 53302.56
624.1026, 53291.84
624.5847, 53327.95
625.0668, 53448.09
625.5490, 53571.81
626.0311, 53585.00
626.5132, 53472.77
626.9953, 53409.77
627.4774, 53439.61
627.9595, 53516.97
628.4417, 53562.82
628.9238, 53580.85
629.4059, 53590.13
629.8880, 53579.05
630.3701, 53577.48
630.8522, 53639.33
631.3344, 53752.70
631.8165, 53833.53
632.2986, 53784.82
632.7807, 53729.41
633.2628, 53757.64
633.7449, 53912.67
634.2271, 54030.21
634.7092, 54080.56
635.1913, 54098.18
635.6734, 54108.67
636.1555, 54109.36
636.6376, 54108.62
637.1198, 54102.79
637.6019, 54101.41
638.0840, 54124.67
638.5661, 54171.86
639.0482, 54221.10
639.5303, 54259.05
640.0125, 54298.97
640.4946, 54375.57
640.9767, 54478.81
641.4588, 54563.82
641.9409, 54570.19
642.4230, 54570.40
642.9052, 54636.15
643.3873, 54777.20
643.8694, 54885.06
644.3515, 54907.88
644.8336, 54898.24
645.3157, 54886.80
645.7979, 54833.03
646.2800, 54868.94
646.7621, 55034.80
647.2442, 55249.14
647.7263, 55407.06
648.2084, 55506.61
648.6906, 55573.71
649.1727, 55605.41
649.6548, 55618.87
650.1369, 55636.04
650.6190, 55659.85
651.1011, 55705.52
651.5833, 55795.99
652.0654, 55901.66
652.5475, 56009.95
653.0296, 56114.14
653.5117, 56172.53
653.9938, 56103.23
654.4760, 56031.17
654.9581, 56042.37
655.4402, 56178.70
655.9223, 56261.13
656.4044, 56251.15
656.8865, 56215.57
657.3687, 56208.89
657.8508, 56244.49
658.3329, 56247.39
658.8150, 56201.79
659.2971, 56143.34
659.7792, 56130.25
660.2614, 56155.97
660.7435, 56179.00
661.2256, 56198.69
661.7077, 56193.04
662.1898, 56100.98
662.6719, 55956.44
663.1541, 55857.99
663.6362, 55889.87
664.1183, 55949.25
664.6004, 55994.61
665.0825, 56022.52
665.5646, 56010.38
666.0468, 55903.63
666.5289, 55802.00
667.0110, 55746.29
667.4931, 55742.20
667.9752, 55760.09
668.4573, 55811.98
668.9395, 55856.83
669.4216, 55846.05
669.9037, 55786.75
670.3858, 55735.13
670.8679, 55696.59
671.3500, 55676.39
671.8322, 55688.58
672.3143, 55722.85
672.7964, 55760.61
673.2785, 55810.75
673.7606, 55844.22
674.2427, 55836.70
674.7249, 55800.41
675.2070, 55765.15
675.6891, 55697.16
676.1712, 55677.87
676.6533, 55753.66
677.1354, 55908.95
677.6176, 55987.53
678.0997, 55966.00
678.5818, 55931.34
679.0639, 55938.34
679.5460, 55979.63
680.0281, 55972.17
680.5103, 55913.10
680.9924, 55862.15
681.4745, 55892.44
681.9566, 55958.67
682.4387, 55977.34
682.9208, 55916.61
683.4030, 55889.62
683.8851, 56013.58
684.3672, 56184.32
684.8493, 56286.07
685.3314, 56223.14
685.8135, 56183.94
686.2957, 56203.29
686.7778, 56247.43
687.2599, 56245.16
687.7420, 56173.92
688.2241, 56141.00
688.7062, 56190.73
689.1884, 56284.29
689.6705, 56297.11
690.1526, 56238.16
690.6347, 56200.81
691.1168, 56262.31
691.5989, 56359.98
692.0811, 56417.18
692.5632, 56435.41
693.0453, 56446.21
693.5274, 56454.63
694.0095, 56469.30
694.4916, 56498.24
694.9738, 56547.67
695.4559, 56590.95
695.9380, 56643.20
696.4201, 56672.66
696.9022, 56643.23
697.3843, 56534.02
697.8665, 56479.05
698.3486, 56494.70
698.8307, 56541.53
699.3128, 56567.64
699.7949, 56579.98
700.2770, 56606.14
700.7592, 56658.65
701.2413, 56716.21
701.7234, 56760.25
702.2055, 56794.03
702.6876, 56823.97
703.1697, 56864.26
703.6519, 56887.83
704.1340, 56867.36
704.6161, 56818.05
705.0982, 56808.96
705.5803, 56864.14
706.0624, 56919.61
706.5446, 56953.88
707.0267, 56970.07
707.5088, 56996.87
707.9909, 57036.61
708.4730, 57058.28
708.9551, 57013.66
709.4373, 56942.93
709.9194, 56939.74
710.4015, 57008.27
710.8836, 57076.61
711.3657, 57090.40
711.8478, 57086.28
712.3300, 57097.65
712.8121, 57137.60
713.2942, 57169.19
713.7763, 57165.63
714.2584, 57163.65
714.7405, 57195.87
715.2227, 57275.14
715.7048, 57350.74
716.1869, 57419.99
716.6690, 57481.50
717.1511, 57547.29
717.6332, 57610.21
718.1154, 57605.02
718.5975, 57479.43
719.0796, 57339.11
719.5617, 57316.22
720.0438, 57372.00
720.5259, 57418.21
721.0081, 57399.15
721.4902, 57381.07
721.9723, 57394.20
722.4544, 57433.12
722.9365, 57465.38
723.4186, 57468.55
723.9008, 57498.65
724.3829, 57593.65
724.8650, 57738.91
725.3471, 57791.34
725.8292, 57742.45
726.3113, 57678.66
726.7935, 57656.10
727.2756, 57658.69
727.7577, 57647.23
728.2398, 57620.99
728.7219, 57608.86
729.2040, 57630.18
729.6862, 57674.49
730.1683, 57739.56
730.6504, 57835.86
731.1325, 57911.24
731.6146, 57954.57
732.0967, 57974.73
732.5789, 57972.68
733.0610, 57937.31
733.5431, 57919.65
734.0252, 57925.15
734.5073, 57942.70
734.9894, 57956.85
735.4716, 57969.98
735.9537, 57992.56
736.4358, 58025.13
736.9179, 58073.01
737.4000, 58170.10
737.8821, 58280.29
738.3643, 58341.73
738.8464, 58279.13
739.3286, 58223.96
739.8107, 58226.41
740.2928, 58264.77
740.7749, 58276.69
741.2570, 58226.70
741.7391, 58228.14
742.2213, 58331.37
742.7034, 58494.99
743.1855, 58575.10
743.6676, 58574.15
744.1497, 58545.30
744.6318, 58504.83
745.1140, 58458.83
745.5961, 58399.98
746.0782, 58336.63
746.5603, 58315.27
747.0424, 58403.71
747.5245, 58503.90
748.0067, 58561.15
748.4888, 58568.39
748.9709, 58570.41
749.4530, 58556.65
749.9351, 58555.64
750.4172, 58588.46
750.8994, 58657.55
751.3815, 58708.79
751.8636, 58742.26
752.3457, 58760.06
752.8278, 58743.95
753.3099, 58718.53
753.7921, 58738.71
754.2742, 58815.56
754.7563, 58899.02
755.2384, 58962.42
755.7205, 59014.66
756.2026, 59067.73
756.6848, 59145.93
757.1669, 59177.64
757.6490, 59147.62
758.1311, 59082.66
758.6132, 58996.53
759.0953, 58878.96
759.5775, 58818.60
760.0596, 58833.30
760.5417, 58888.05
761.0238, 58941.09
761.5059, 58993.49
761.9880, 59048.03
762.4702, 59113.86
762.9523, 59167.16
763.4344, 59180.43
763.9165, 59171.00
764.3986, 59168.78
764.8807, 59174.74
765.3629, 59197.02
765.8450, 59242.39
766.3271, 59302.16
766.8092, 59359.58
767.2913, 59417.53
767.7734, 59455.93
768.2556, 59464.14
768.7377, 59452.61
769.2198, 59427.83
769.7019, 59398.46
770.1840, 59401.87
770.6661, 59510.50
771.1483, 59614.45
771.6304, 59612.08
772.1125, 59526.28
772.5946, 59472.55
773.0767, 59512.93
773.5588, 59553.78
774.0410, 59561.46
774.5231, 59540.96
775.0052, 59544.41
775.4873, 59572.97
775.9694, 59620.84
776.4515, 59719.91
776.9337, 59832.54
777.4158, 59807.90
777.8979, 59659.59
778.3800, 59548.91
778.8621, 59623.02
779.3442, 59749.42
779.8264, 59825.90
780.3085, 59841.43
780.7906, 59845.68
781.2727, 59834.29
781.7548, 59827.66
782.2369, 59836.47
782.7191, 59862.31
783.2012, 59886.05
783.6833, 59905.20
784.1654, 59932.59
784.6475, 59985.00
785.1296, 60053.81
785.6118, 60120.64
786.0939, 60185.20
786.5760, 60227.23
787.0581, 60207.91
787.5402, 60172.81
788.0223, 60158.87
788.5045, 60169.10
788.9866, 60213.75
789.4687, 60346.16
789.9508, 60462.37
790.4329, 60462.13
790.9150, 60316.56
791.3972, 60245.54
791.8793, 60268.62
792.3614, 60326.72
792.8435, 60363.06
793.3256, 60382.76
793.8077, 60396.98
794.2899, 60406.89
794.7720, 60416.27
795.2541, 60404.61
795.7362, 60404.75
796.2183, 60452.81
796.7004, 60638.15
797.1826, 60748.46
797.6647, 60746.40
798.1468, 60701.14
798.6289, 60702.89
799.1110, 60754.30
799.5931, 60786.75
800.0753, 60789.55
800.5574, 60772.10
801.0395, 60720.04
801.5216, 60661.12
802.0037, 60654.60
802.4858, 60753.41
802.9680, 60847.69
803.4501, 60883.63
803.9322, 60883.84
804.4143, 60881.64
804.8964, 60876.02
805.3785, 60873.62
805.8607, 60870.04
806.3428, 60875.63
806.8249, 60919.72
807.3070, 60998.46
807.7891, 61052.13
808.2712, 61056.09
808.7534, 61047.35
809.2355, 61075.47
809.7176, 61122.50
810.1997, 61153.68
810.6818, 61136.07
811.1639, 61124.56
811.6461, 61146.28
812.1282, 61182.30
812.6103, 61188.95
813.0924, 61140.01
813.5745, 61140.51
814.0566, 61225.07
814.5388, 61349.57
815.0209, 61432.45
815.5030, 61476.90
815.9851, 61495.95
816.4672, 61481.03
816.9493, 61461.53
817.4315, 61469.33
817.9136, 61490.86
818.3957, 61498.25
818.8778, 61445.46
819.3599, 61426.41
819.8420, 61478.15
820.3242, 61566.48
820.8063, 61602.92
821.2884, 61577.88
821.7705, 61563.25
822.2526, 61575.96
822.7347, 61615.33
823.2169, 61710.29
823.6990, 61833.59
824.1811, 61908.41
824.6632, 61874.78
825.1453, 61808.58
825.6274, 61716.25
826.1096, 61621.10
826.5917, 61588.69
827.0738, 61666.52
827.5559, 61729.55
828.0380, 61749.63
828.5201, 61742.54
829.0023, 61749.54
829.4844, 61769.43
829.9665, 61782.81
830.4486, 61767.64
830.9307, 61761.22
831.4128, 61829.48
831.8950, 61940.96
832.3771, 62023.96
832.8592, 62033.82
833.3413, 62027.79
833.8234, 62008.21
834.3055, 61987.05
834.7877, 61996.05
835.2698, 62047.09
835.7519, 62084.88
836.2340, 62090.36
836.7161, 62080.09
837.1982, 62086.95
837.6804, 62107.86
838.1625, 62131.30
838.6446, 62159.75
839.1267, 62180.85
839.6088, 62176.98
840.0909, 62160.19
840.5731, 62159.10
841.0552, 62188.55
841.5373, 62219.83
842.0194, 62245.31
842.5015, 62272.30
842.9836, 62329.42
843.4658, 62416.16
843.9479, 62464.79
844.4300, 62427.16
844.9121, 62384.29
845.3942, 62471.17
845.8763, 62629.77
846.3585, 62736.55
846.8406, 62707.39
847.3227, 62661.36
847.8048, 62632.26
848.2869, 62610.42
848.7690, 62566.43
849.2512, 62474.46
849.7333, 62462.55
850.2154, 62582.23
850.6975, 62747.96
851.1796, 62800.46
851.6617, 62766.52
852.1439, 62734.79
852.6260, 62724.65
853.1081, 62742.37
853.5902, 62822.27
854.0723, 62925.47
854.5544, 62985.36
855.0366, 62940.54
855.5187, 62931.46
856.0008, 62989.96
856.4829, 63066.56
856.9650, 63062.05
857.4471, 62983.47
857.9293, 62962.81
858.4114, 63046.93
858.8935, 63147.27
859.3756, 63145.02
859.8577, 63098.84
860.3398, 63100.67
860.8220, 63231.54
861.3041, 63327.73
861.7862, 63306.21
862.2683, 63259.09
862.7504, 63296.36
863.2325, 63447.51
863.7147, 63515.58
864.1968, 63463.42
864.6789, 63379.07
865.1610, 63354.82
865.6431, 63383.66
866.1252, 63465.37
866.6074, 63625.18
867.0895, 63743.88
867.5716, 63728.64
868.0537, 63660.19
868.5358, 63618.92
869.0179, 63615.98
869.5001, 63625.17
869.9822, 63651.60
870.4643, 63679.68
870.9464, 63700.42
871.4285, 63710.12
871.9106, 63674.96
872.3928, 63585.65
872.8749, 63525.46
873.3570, 63581.91
873.8391, 63687.61
874.3212, 63783.13
874.8033, 63864.15
875.2855, 63921.61
875.7676, 63941.88
876.2497, 63957.50
876.7318, 63996.57
877.2139, 64059.86
877.6960, 64080.87
878.1782, 64057.70
878.6603, 64022.83
879.1424, 63979.04
879.6245, 63951.38
880.1067, 63981.24
880.5888, 64070.85
881.0709, 64151.12
881.5530, 64215.16
882.0352, 64246.07
882.5173, 64220.57
882.9994, 64141.89
883.4815, 64142.93
883.9636, 64235.44
884.4457, 64322.20
884.9279, 64331.50
885.4100, 64301.26
885.8921, 64299.87
886.3742, 64324.22
886.8563, 64356.53
887.3384, 64409.20
887.8206, 64447.23
888.3027, 64443.38
888.7848, 64407.19
889.2669, 64386.19
889.7490, 64378.63
890.2311, 64394.59
890.7133, 64445.86
891.1954, 64514.64
891.6775, 64559.84
892.1596, 64585.95
892.6417, 64611.16
893.1238, 64647.30
893.6060, 64681.34
894.0881, 64706.64
894.5702, 64724.87
895.0523, 64741.03
895.5344, 64764.99
896.0165, 64764.57
896.4987, 64722.16
896.9808, 64670.10
897.4629, 64670.19
897.9450, 64714.32
898.4271, 64767.65
898.9092, 64823.54
899.3914, 64876.91
899.8735, 64929.40
900.3556, 64974.28
900.8377, 65001.33
901.3198, 64964.00
901.8019, 64982.55
902.2841, 65098.18
902.7662, 65216.26
903.2483, 65208.79
903.7304, 65090.70
904.2125, 65020.93
904.6946, 65021.16
905.1768, 65049.72
905.6589, 65079.00
906.1410, 65111.85
906.6231, 65153.98
907.1052, 65210.41
907.5873, 65257.62
908.0695, 65307.71
908.5516, 65329.27
909.0337, 65283.18
909.5158, 65170.49
909.9979, 65151.41
910.4800, 65228.88
910.9622, 65318.07
911.4443, 65343.48
911.9264, 65354.47
912.4085, 65429.59
912.8906, 65561.26
913.3727, 65627.38
913.8549, 65501.11
914.3370, 65404.17
914.8191, 65427.94
915.3012, 65545.67
915.7833, 65589.82
916.2654, 65557.32
916.7476, 65539.69
917.2297, 65598.59
917.7118, 65676.46
918.1939, 65693.73
918.6760, 65669.68
919.1581, 65653.74
919.6403, 65643.94
920.1224, 65671.41
920.6045, 65770.10
921.0866, 65894.74
921.5687, 65957.73
922.0508, 65953.95
922.5330, 65946.51
923.0151, 65948.88
923.4972, 65951.22
923.9793, 65926.53
924.4614, 65897.52
924.9435, 65905.48
925.4257, 65986.65
925.9078, 66050.41
926.3899, 66076.98
926.8720, 66069.49
927.3541, 66015.16
927.8362, 65899.77
928.3184, 65846.74
928.8005, 65865.73
929.2826, 65913.35
929.7647, 65954.78
930.2468, 65996.53
930.7289, 66056.36
931.2111, 66137.34
931.6932, 66194.16
932.1753, 66149.49
932.6574, 66138.71
933.1395, 66256.17
933.6216, 66490.66
934.1038, 66582.91
934.5859, 66520.82
935.0680, 66427.93
935.5501, 66349.53
936.0322, 66297.39
936.5143, 66296.67
936.9965, 66338.29
937.4786, 66391.00
937.9607, 66483.02
938.4428, 66534.56
938.9249, 66504.09
939.4070, 66427.47
939.8892, 66374.18
940.3713, 66340.73
940.8534, 66377.07
941.3355, 66517.54
941.8176, 66677.33
942.2997, 66738.66
942.7819, 66738.08
943.2640, 66735.42
943.7461, 66749.83
944.2282, 66758.24
944.7103, 66729.21
945.1924, 66712.50
945.6746, 66766.85
946.1567, 66903.16
946.6388, 66966.04
947.1209, 66941.27
947.6030, 66910.57
948.0851, 66977.72
948.5673, 67067.63
949.0494, 67066.91
949.5315, 66962.48
950.0136, 66895.88
950.4957, 66949.15
950.9778, 67005.69
951.4600, 67013.88
951.9421, 66983.25
952.4242, 66994.85
952.9063, 67048.66
953.3884, 67107.25
953.8705, 67149.48
954.3527, 67186.71
954.8348, 67241.55
955.3169, 67301.08
955.7990, 67333.08
956.2811, 67287.50
956.7632, 67267.88
957.2454, 67298.66
957.7275, 67355.73
958.2096, 67397.84
958.6917, 67426.11
959.1738, 67451.89
959.6559, 67477.81
960.1381, 67500.66
960.6202, 67507.82
961.1023, 67514.81
961.5844, 67542.05
962.0665, 67606.44
962.5486, 67652.94
963.0308, 67670.34
963.5129, 67683.32
963.9950, 67713.70
964.4771, 67757.92
964.9592, 67772.11
965.4413, 67758.91
965.9235, 67771.19
966.4056, 67875.71
966.8877, 67993.20
967.3698, 68068.04
967.8519, 68100.84
968.3340, 68126.85
968.8162, 68152.45
969.2983, 68162.72
969.7804, 68148.29
970.2625, 68121.92
970.7446, 68108.26
971.2267, 68107.60
971.7089, 68123.18
972.1910, 68169.37
972.6731, 68209.72
973.1552, 68208.77
973.6373, 68197.41
974.1194, 68214.87
974.6016, 68260.95
975.0837, 68341.07
975.5658, 68462.13
976.0479, 68595.27
976.5300, 68738.12
977.0121, 68866.77
977.4943, 68911.20
977.9764, 68864.75
978.4585, 68846.85
978.9406, 68959.70
979.4227, 69075.99
979.9048, 69116.98
980.3870, 69092.62
980.8691, 69111.52
981.3512, 69176.27
981.8333, 69264.12
982.3154, 69388.22
982.7975, 69505.55
983.2797, 69522.62
983.7618, 69483.96
984.2439, 69493.64
984.7260, 69642.47
985.2081, 69770.96
985.6902, 69839.95
986.1724, 69887.21
986.6545, 69966.47
987.1366, 70076.09
987.6187, 70178.89
988.1008, 70266.82
988.5829, 70370.55
989.0651, 70544.13
989.5472, 70732.49
990.0293, 70870.52
990.5114, 70936.18
990.9935, 71041.23
991.4756, 71210.58
991.9578, 71383.45
992.4399, 71510.70
992.9220, 71618.77
993.4041, 71849.02
993.8862, 72179.11
994.3683, 72479.52
994.8505, 72629.50
995.3326, 72786.09
995.8147, 73048.22
996.2968, 73382.13
996.7789, 73695.31
997.2610, 73959.20
997.7432, 74274.51
998.2253, 74658.78
998.7074, 75095.75
999.1895, 75592.16
999.6716, 76131.83
1000.154, 76662.78
1000.636, 77168.44
1001.118, 77737.99
1001.600, 78457.70
1002.082, 79220.23
1002.564, 79958.25
1003.046, 80677.46
1003.529, 81387.99
1004.011, 82091.82
1004.493, 82863.27
1004.975, 83832.33
1005.457, 84841.28
1005.939, 85731.63
1006.421, 86529.96
1006.903, 87289.37
1007.385, 88033.67
1007.868, 88739.88
1008.350, 89417.20
1008.832, 90039.96
1009.314, 90582.56
1009.796, 91025.55
1010.278, 91293.95
1010.760, 91363.88
1011.242, 91301.07
1011.725, 91136.06
1012.207, 90871.16
1012.689, 90505.68
1013.171, 90048.02
1013.653, 89461.48
1014.135, 88722.45
1014.617, 87917.55
1015.099, 87074.30
1015.581, 86209.93
1016.064, 85354.23
1016.546, 84508.96
1017.028, 83680.21
1017.510, 82872.50
1017.992, 82079.62
1018.474, 81282.24
1018.956, 80507.48
1019.438, 79795.98
1019.921, 79147.84
1020.403, 78560.24
1020.885, 78040.00
1021.367, 77568.80
1021.849, 77159.49
1022.331, 76773.77
1022.813, 76356.41
1023.295, 75884.48
1023.778, 75502.27
1024.260, 75271.36
1024.742, 75026.67
1025.224, 74659.27
1025.706, 74231.93
1026.188, 73976.27
1026.670, 73860.68
1027.152, 73747.13
1027.634, 73526.84
1028.117, 73337.07
1028.599, 73275.84
1029.081, 73267.24
1029.563, 73175.24
1030.045, 72968.78
1030.527, 72852.81
1031.009, 72858.30
1031.491, 72898.55
1031.974, 72890.65
1032.456, 72855.18
1032.938, 72821.50
1033.420, 72794.00
1033.902, 72741.63
1034.384, 72616.02
1034.866, 72521.48
1035.348, 72505.72
1035.830, 72546.82
1036.313, 72571.99
1036.795, 72580.40
1037.277, 72565.09
1037.759, 72492.92
1038.241, 72442.55
1038.723, 72526.48
1039.205, 72635.43
1039.687, 72601.56
1040.169, 72333.76
1040.652, 72215.34
1041.134, 72283.42
1041.616, 72386.04
1042.098, 72363.53
1042.580, 72291.35
1043.062, 72308.37
1043.544, 72411.02
1044.026, 72471.80
1044.509, 72398.21
1044.991, 72331.18
1045.473, 72312.21
1045.955, 72326.61
1046.437, 72342.46
1046.919, 72356.90
1047.401, 72341.40
1047.883, 72272.23
1048.365, 72215.15
1048.848, 72239.58
1049.330, 72292.05
1049.812, 72313.90
1050.294, 72297.46
1050.776, 72260.72
1051.258, 72192.21
1051.740, 72151.25
1052.222, 72226.21
1052.704, 72333.09
1053.187, 72302.13
1053.669, 72163.67
1054.151, 72053.24
1054.633, 72031.84
1055.115, 72032.45
1055.597, 72041.78
1056.079, 72061.34
1056.561, 72111.70
1057.044, 72183.34
1057.526, 72178.86
1058.008, 72070.72
1058.490, 71977.65
1058.972, 71986.02
1059.454, 72049.04
1059.936, 72142.63
1060.418, 72265.47
1060.901, 72362.24
1061.383, 72431.22
1061.865, 72478.26
1062.347, 72497.48
1062.829, 72506.78
1063.311, 72526.36
1063.793, 72559.70
1064.275, 72613.56
1064.757, 72729.94
1065.240, 72807.72
1065.722, 72817.25
1066.204, 72815.38
1066.686, 72860.59
1067.168, 72945.92
1067.650, 73026.46
1068.132, 73100.66
1068.614, 73166.91
1069.096, 73217.62
1069.579, 73268.59
1070.061, 73336.74
1070.543, 73413.32
1071.025, 73453.23
1071.507, 73444.91
1071.989, 73492.20
1072.471, 73640.73
1072.953, 73795.65
1073.436, 73841.01
1073.918, 73825.54
1074.400, 73807.21
1074.882, 73786.30
1075.364, 73806.27
1075.846, 73873.41
1076.328, 73972.82
1076.810, 74124.41
1077.292, 74291.91
1077.775, 74345.46
1078.257, 74305.45
1078.739, 74257.45
1079.221, 74193.16
1079.703, 74185.70
1080.185, 74333.77
1080.667, 74509.23
1081.149, 74547.45
1081.631, 74440.67
1082.114, 74384.97
1082.596, 74396.15
1083.078, 74450.30
1083.560, 74583.55
1084.042, 74705.66
1084.524, 74719.51
1085.006, 74629.85
1085.488, 74580.24
1085.971, 74576.02
1086.453, 74609.49
1086.935, 74693.09
1087.417, 74783.87
1087.899, 74816.75
1088.381, 74807.85
1088.863, 74782.66
1089.345, 74739.06
1089.828, 74706.62
1090.310, 74712.56
1090.792, 74702.12
1091.274, 74622.11
1091.756, 74495.98
1092.238, 74498.40
1092.720, 74601.03
1093.202, 74633.73
1093.684, 74443.41
1094.167, 74228.77
1094.649, 74069.40
1095.131, 73954.55
1095.613, 73870.79
1096.095, 73820.47
1096.577, 73787.27
1097.059, 73772.34
1097.541, 73753.55
1098.024, 73706.47
1098.506, 73649.66
1098.988, 73596.12
1099.470, 73548.54
1099.952, 73526.59
1100.434, 73557.22
1100.916, 73535.66
1101.398, 73410.39
1101.880, 73270.64
1102.363, 73292.43
1102.845, 73404.34
1103.327, 73472.12
1103.809, 73460.04
1104.291, 73432.76
1104.773, 73392.06
1105.255, 73359.13
1105.737, 73350.25
1106.219, 73358.14
1106.702, 73340.19
1107.184, 73303.65
1107.666, 73286.95
1108.148, 73316.75
1108.630, 73359.86
1109.112, 73415.08
1109.594, 73466.45
1110.076, 73491.36
1110.559, 73484.34
1111.041, 73511.71
1111.523, 73578.92
1112.005, 73625.48
1112.487, 73556.61
1112.969, 73485.43
1113.451, 73543.63
1113.933, 73695.55
1114.416, 73744.82
1114.898, 73638.14
1115.380, 73578.71
1115.862, 73611.77
1116.344, 73678.95
1116.826, 73704.39
1117.308, 73711.19
1117.790, 73734.51
1118.272, 73781.51
1118.755, 73828.73
1119.237, 73892.30
1119.719, 73918.49
1120.201, 73867.41
1120.683, 73781.39
1121.165, 73767.89
1121.647, 73812.26
1122.129, 73875.94
1122.611, 73972.17
1123.094, 74030.47
1123.576, 73969.01
1124.058, 73909.89
1124.540, 73953.23
1125.022, 74091.79
1125.504, 74168.17
1125.986, 74187.12
1126.468, 74201.26
1126.951, 74237.34
1127.433, 74283.07
1127.915, 74367.02
1128.397, 74439.94
1128.879, 74399.48
1129.361, 74213.67
1129.843, 74143.07
1130.325, 74218.42
1130.807, 74310.71
1131.290, 74259.98
1131.772, 74203.16
1132.254, 74315.02
1132.736, 74569.93
1133.218, 74687.26
1133.700, 74612.65
1134.182, 74538.57
1134.664, 74504.33
1135.146, 74495.55
1135.629, 74490.40
1136.111, 74497.60
1136.593, 74539.83
1137.075, 74630.35
1137.557, 74684.35
1138.039, 74670.18
1138.521, 74661.35
1139.003, 74688.68
1139.486, 74742.19
1139.968, 74815.07
1140.450, 74893.55
1140.932, 74941.74
1141.414, 74936.80
1141.896, 74919.10
1142.378, 74882.28
1142.860, 74856.13
1143.343, 74871.89
1143.825, 74921.72
1144.307, 74923.13
1144.789, 74888.02
1145.271, 74890.90
1145.753, 75021.20
1146.235, 75142.41
1146.717, 75186.64
1147.199, 75194.55
1147.682, 75215.63
1148.164, 75250.35
1148.646, 75263.53
1149.128, 75252.20
1149.610, 75251.68
1150.092, 75325.17
1150.574, 75384.97
1151.056, 75334.50
1151.538, 75219.96
1152.021, 75211.70
1152.503, 75328.16
1152.985, 75403.41
1153.467, 75399.77
1153.949, 75378.69
1154.431, 75402.98
1154.913, 75440.39
1155.395, 75458.49
1155.878, 75452.34
1156.360, 75449.45
1156.842, 75448.99
1157.324, 75454.26
1157.806, 75463.80
1158.288, 75484.79
1158.770, 75548.31
1159.252, 75621.28
1159.734, 75649.61
1160.217, 75599.02
1160.699, 75581.27
1161.181, 75608.63
1161.663, 75645.20
1162.145, 75669.59
1162.627, 75691.23
1163.109, 75740.82
1163.591, 75801.91
1164.073, 75836.09
1164.556, 75815.59
1165.038, 75784.98
1165.520, 75735.58
1166.002, 75700.04
1166.484, 75712.10
1166.966, 75758.55
1167.448, 75809.56
1167.930, 75860.89
1168.413, 75897.27
1168.895, 75889.39
1169.377, 75898.69
1169.859, 75946.14
1170.341, 76003.38
1170.823, 76033.93
1171.305, 76042.53
1171.787, 76046.36
1172.270, 76047.42
1172.752, 76053.84
1173.234, 76056.07
1173.716, 76084.05
1174.198, 76166.16
1174.680, 76265.16
1175.162, 76301.28
1175.644, 76282.33
1176.126, 76248.19
1176.609, 76201.15
1177.091, 76189.56
1177.573, 76303.76
1178.055, 76401.34
1178.537, 76383.30
1179.019, 76286.76
1179.501, 76266.13
1179.983, 76316.27
1180.465, 76389.82
1180.948, 76498.89
1181.430, 76543.84
1181.912, 76341.50
1182.394, 76137.90
1182.876, 76171.71
1183.358, 76427.61
1183.840, 76509.82
1184.322, 76424.24
1184.805, 76365.98
1185.287, 76453.66
1185.769, 76544.74
1186.251, 76466.90
1186.733, 76370.31
1187.215, 76458.06
1187.697, 76785.05
1188.179, 76875.91
1188.661, 76722.21
1189.144, 76593.86
1189.626, 76714.43
1190.108, 76879.09
1190.590, 76938.66
1191.072, 76922.30
1191.554, 76877.33
1192.036, 76787.07
1192.518, 76766.45
1193.000, 76825.14
1193.483, 76894.76
1193.965, 76943.94
1194.447, 76961.16
1194.929, 76900.91
1195.411, 76802.34
1195.893, 76785.48
1196.375, 76873.92
1196.857, 76963.98
1197.340, 77047.34
1197.822, 77103.77
1198.304, 77118.16
1198.786, 77091.78
1199.268, 76979.30
1199.750, 76813.38
1200.232, 76797.29
1200.714, 76987.58
1201.197, 77112.05
1201.679, 77109.79
1202.161, 77074.70
1202.643, 77118.88
1203.125, 77182.25
1203.607, 77177.59
1204.089, 77101.73
1204.571, 77132.34
1205.053, 77313.76
1205.536, 77421.56
1206.018, 77371.18
1206.500, 77284.20
1206.982, 77312.43
1207.464, 77398.26
1207.946, 77484.35
1208.428, 77568.88
1208.910, 77556.88
1209.392, 77407.83
1209.875, 77334.88
1210.357, 77458.28
1210.839, 77623.73
1211.321, 77594.66
1211.803, 77484.14
1212.285, 77454.61
1212.767, 77560.82
1213.249, 77653.52
1213.732, 77740.80
1214.214, 77779.92
1214.696, 77719.52
1215.178, 77638.26
1215.660, 77653.88
1216.142, 77721.62
1216.624, 77767.74
1217.106, 77775.80
1217.589, 77770.41
1218.071, 77749.11
1218.553, 77724.91
1219.035, 77680.57
1219.517, 77659.64
1219.999, 77761.87
1220.481, 77921.02
1220.963, 77997.59
1221.445, 77929.30
1221.927, 77876.58
1222.410, 77835.08
1222.892, 77841.30
1223.374, 77969.88
1223.856, 78125.82
1224.338, 78211.75
1224.820, 78228.47
1225.302, 78164.65
1225.784, 77939.84
1226.267, 77903.65
1226.749, 78109.15
1227.231, 78320.16
1227.713, 78305.81
1228.195, 78200.05
1228.677, 78119.00
1229.159, 78077.23
1229.641, 78106.84
1230.124, 78233.70
1230.606, 78332.91
1231.088, 78392.59
1231.570, 78414.82
1232.052, 78377.13
1232.534, 78321.90
1233.016, 78281.00
1233.498, 78261.94
1233.980, 78283.16
1234.463, 78354.98
1234.945, 78413.71
1235.427, 78448.28
1235.909, 78475.38
1236.391, 78484.55
1236.873, 78515.24
1237.355, 78639.30
1237.837, 78832.38
1238.320, 78910.07
1238.802, 78854.15
1239.284, 78820.28
1239.766, 78846.77
1240.248, 78867.33
1240.730, 78777.70
1241.212, 78684.00
1241.694, 78685.47
1242.177, 78775.21
1242.659, 78897.93
1243.141, 79058.08
1243.623, 79144.22
1244.105, 79113.05
1244.587, 79063.87
1245.069, 79093.87
1245.551, 79135.72
1246.033, 79118.10
1246.516, 79055.76
1246.998, 79054.39
1247.480, 79112.84
1247.962, 79165.37
1248.444, 79192.16
1248.926, 79211.18
1249.408, 79235.73
1249.890, 79257.56
1250.372, 79267.41
1250.855, 79268.63
1251.337, 79282.16
1251.819, 79308.34
1252.301, 79355.98
1252.783, 79438.84
1253.265, 79511.26
1253.747, 79551.74
1254.229, 79562.34
1254.712, 79529.71
1255.194, 79469.85
1255.676, 79521.71
1256.158, 79654.52
1256.640, 79699.63
1257.122, 79539.11
1257.604, 79418.98
1258.086, 79477.80
1258.568, 79588.59
1259.051, 79688.13
1259.533, 79776.08
1260.015, 79859.34
1260.497, 79929.23
1260.979, 79949.47
1261.461, 79863.29
1261.943, 79819.26
1262.425, 79876.08
1262.907, 79954.29
1263.390, 80009.95
1263.872, 80046.98
1264.354, 80090.30
1264.836, 80124.08
1265.318, 80099.25
1265.800, 79916.06
1266.282, 79837.73
1266.764, 79904.68
1267.247, 80033.48
1267.729, 80223.56
1268.211, 80401.02
1268.693, 80360.82
1269.175, 80188.37
1269.657, 80088.12
1270.139, 80162.42
1270.621, 80241.44
1271.104, 80334.34
1271.586, 80395.80
1272.068, 80386.34
1272.550, 80330.40
1273.032, 80211.22
1273.514, 80085.13
1273.996, 80077.55
1274.478, 80258.20
1274.960, 80396.38
1275.443, 80486.62
1275.925, 80559.89
1276.407, 80655.18
1276.889, 80730.32
1277.371, 80728.70
1277.853, 80683.94
1278.335, 80659.93
1278.817, 80664.64
1279.299, 80653.76
1279.782, 80625.77
1280.264, 80612.40
1280.746, 80634.23
1281.228, 80678.85
1281.710, 80755.32
1282.192, 80839.84
1282.674, 80903.57
1283.156, 80947.14
1283.639, 80947.59
1284.121, 80908.59
1284.603, 80882.30
1285.085, 80909.80
1285.567, 80944.38
1286.049, 80975.43
1286.531, 80994.78
1287.013, 80980.30
1287.495, 80942.83
1287.978, 80963.66
1288.460, 81033.61
1288.942, 81084.07
1289.424, 81052.73
1289.906, 81040.98
1290.388, 81072.86
1290.870, 81121.55
1291.352, 81165.55
1291.834, 81203.22
1292.317, 81227.66
1292.799, 81242.11
1293.281, 81259.96
1293.763, 81273.27
1294.245, 81319.49
1294.727, 81418.73
1295.209, 81498.24
1295.691, 81473.82
1296.174, 81400.05
1296.656, 81325.20
1297.138, 81267.75
1297.620, 81296.24
1298.102, 81462.34
1298.584, 81536.45
1299.066, 81496.76
1299.548, 81430.38
1300.031, 81378.70
1300.513, 81362.05
##END=



