##NAMES=Miserite
##RRUFFID=R060393
##IDEAL CHEMISTRY=K_1.5-x_(Ca,Y,REE)_5_[Si_6_O_15_][Si_2_O_7_](OH,F)_2_&#183;yH_2_O
##LOCALITY=Wilson Springs, Garland County, Arkansas, USA
##OWNER=RRUFF
##SOURCE=Michael Scott
##DESCRIPTION=Pale purple mass of prismatic to flaky fragments
##STATUS=The identification of this mineral has been confirmed by X-ray diffraction.
##URL=rruff.info/R060393
177.3341, 618.5607
177.8163, 618.7924
178.2984, 618.4053
178.7805, 617.8249
179.2626, 617.6848
179.7447, 617.9990
180.2268, 618.5997
180.7090, 619.2307
181.1911, 619.9814
181.6732, 621.1471
182.1553, 623.4528
182.6374, 626.1876
183.1195, 627.6104
183.6017, 627.5579
184.0838, 627.0427
184.5659, 626.8869
185.0480, 627.1534
185.5301, 628.2009
186.0123, 631.0964
186.4944, 634.9880
186.9765, 636.7963
187.4586, 636.0967
187.9407, 634.5723
188.4228, 634.6858
188.9050, 636.2756
189.3871, 637.7413
189.8692, 637.9611
190.3513, 637.2474
190.8334, 637.2762
191.3155, 638.2491
191.7977, 639.6566
192.2798, 640.7601
192.7619, 641.5667
193.2440, 642.2416
193.7261, 642.9279
194.2082, 643.6091
194.6904, 643.9968
195.1725, 644.0108
195.6546, 643.8770
196.1367, 644.1288
196.6188, 644.8192
197.1009, 645.2488
197.5831, 644.5313
198.0652, 642.6666
198.5473, 642.6479
199.0294, 645.1663
199.5115, 648.8339
199.9937, 650.6412
200.4758, 650.2928
200.9579, 649.8190
201.4400, 650.4011
201.9221, 652.1219
202.4042, 653.6357
202.8864, 654.8538
203.3685, 655.8276
203.8506, 656.6714
204.3327, 657.3701
204.8148, 657.9544
205.2969, 658.2501
205.7791, 658.1100
206.2612, 658.9020
206.7433, 661.1864
207.2254, 664.0818
207.7075, 665.1606
208.1896, 663.9440
208.6718, 662.3235
209.1539, 661.2374
209.6360, 660.7357
210.1181, 660.5898
210.6002, 660.8541
211.0823, 661.4418
211.5645, 662.2527
212.0466, 663.6006
212.5287, 664.4747
213.0108, 664.0720
213.4929, 661.8369
213.9750, 660.6219
214.4572, 660.9704
214.9393, 662.2839
215.4214, 662.7078
215.9035, 661.8156
216.3856, 660.8905
216.8678, 660.5988
217.3499, 660.9944
217.8320, 661.8287
218.3141, 663.3090
218.7962, 665.1264
219.2783, 666.2249
219.7605, 666.1723
220.2426, 666.1278
220.7247, 666.7557
221.2068, 668.3524
221.6889, 669.7302
222.1710, 670.7557
222.6532, 671.5502
223.1353, 672.4826
223.6174, 673.7161
224.0995, 674.8544
224.5816, 675.5869
225.0637, 675.4605
225.5459, 676.2337
226.0280, 678.5763
226.5101, 681.7294
226.9922, 683.1072
227.4743, 681.5447
227.9564, 680.0634
228.4386, 680.2911
228.9207, 683.3217
229.4028, 685.3553
229.8849, 686.0555
230.3670, 685.7872
230.8492, 685.5859
231.3313, 685.5329
231.8134, 685.4235
232.2955, 685.0545
232.7776, 683.9240
233.2597, 683.8209
233.7419, 685.3410
234.2240, 687.7510
234.7061, 688.9836
235.1882, 688.2449
235.6703, 687.5674
236.1524, 687.8832
236.6346, 689.7871
237.1167, 691.3848
237.5988, 692.8499
238.0809, 693.9637
238.5630, 694.0336
239.0451, 691.9830
239.5273, 690.4985
240.0094, 690.9750
240.4915, 694.9091
240.9736, 696.7162
241.4557, 695.2690
241.9378, 692.1882
242.4200, 690.9161
242.9021, 692.3468
243.3842, 694.1572
243.8663, 695.4354
244.3484, 695.8269
244.8306, 696.8240
245.3127, 698.9799
245.7948, 701.4427
246.2769, 702.5148
246.7590, 701.3834
247.2411, 700.2231
247.7233, 699.6106
248.2054, 699.3384
248.6875, 700.5729
249.1696, 704.2354
249.6517, 708.7834
250.1338, 711.6530
250.6160, 712.2170
251.0981, 712.2630
251.5802, 712.5354
252.0623, 713.4105
252.5444, 712.4064
253.0265, 708.3752
253.5087, 703.4213
253.9908, 700.6797
254.4729, 700.9832
254.9550, 701.7499
255.4371, 702.0985
255.9192, 701.8028
256.4014, 703.0139
256.8835, 706.4335
257.3656, 710.6660
257.8477, 714.3145
258.3298, 717.7873
258.8120, 719.6906
259.2941, 719.1367
259.7762, 715.8830
260.2583, 714.3153
260.7404, 715.0472
261.2225, 716.6627
261.7047, 717.7116
262.1868, 718.0790
262.6689, 718.1005
263.1510, 717.5973
263.6331, 716.6042
264.1152, 716.6752
264.5974, 718.3420
265.0795, 720.2482
265.5616, 720.8663
266.0437, 719.6130
266.5258, 719.1252
267.0079, 720.2270
267.4901, 722.6622
267.9722, 723.9155
268.4543, 723.6941
268.9364, 722.9447
269.4185, 722.4221
269.9006, 722.2044
270.3828, 721.9045
270.8649, 721.4127
271.3470, 720.7933
271.8291, 720.3116
272.3112, 719.9055
272.7933, 719.7386
273.2755, 720.1158
273.7576, 721.1935
274.2397, 721.6062
274.7218, 721.0717
275.2039, 719.8162
275.6860, 718.3885
276.1682, 716.6343
276.6503, 715.2410
277.1324, 714.7394
277.6145, 715.2044
278.0966, 715.8807
278.5787, 716.9689
279.0609, 717.9842
279.5430, 717.5087
280.0251, 715.2758
280.5072, 713.3496
280.9893, 713.2197
281.4715, 714.8817
281.9536, 715.5237
282.4357, 714.7576
282.9178, 713.4570
283.3999, 713.2543
283.8820, 714.2061
284.3642, 714.9975
284.8463, 714.7526
285.3284, 713.5871
285.8105, 713.0762
286.2926, 713.2826
286.7747, 713.8799
287.2569, 714.5842
287.7390, 715.3736
288.2211, 715.8780
288.7032, 715.5472
289.1853, 714.7445
289.6674, 715.5353
290.1496, 718.2043
290.6317, 720.6802
291.1138, 719.9689
291.5959, 716.5872
292.0780, 714.1417
292.5602, 714.2311
293.0423, 715.9001
293.5244, 716.7796
294.0065, 716.8517
294.4886, 716.5753
294.9707, 716.1028
295.4529, 715.5684
295.9350, 715.5035
296.4171, 716.2683
296.8992, 717.3630
297.3813, 717.7897
297.8634, 717.6068
298.3456, 717.4938
298.8277, 718.0002
299.3098, 718.9523
299.7919, 720.0344
300.2740, 721.2984
300.7561, 722.4446
301.2383, 722.7924
301.7204, 722.5423
302.2025, 722.5829
302.6846, 723.8112
303.1667, 725.5901
303.6488, 726.9811
304.1310, 727.7853
304.6131, 728.3252
305.0952, 728.6803
305.5773, 728.9800
306.0594, 729.5723
306.5415, 731.0666
307.0237, 732.7354
307.5058, 733.7754
307.9879, 734.0448
308.4700, 734.0834
308.9521, 734.3585
309.4343, 734.6774
309.9164, 734.7112
310.3985, 733.8587
310.8806, 732.9747
311.3627, 732.7694
311.8448, 733.2772
312.3270, 733.9319
312.8091, 734.4896
313.2912, 734.9750
313.7733, 735.4177
314.2554, 735.5105
314.7375, 735.8391
315.2197, 736.9601
315.7018, 738.7634
316.1839, 740.2341
316.6660, 740.6929
317.1481, 740.7470
317.6302, 740.8945
318.1124, 741.4941
318.5945, 741.9103
319.0766, 741.7001
319.5587, 741.0811
320.0408, 740.8027
320.5229, 741.3876
321.0051, 742.1735
321.4872, 742.7852
321.9693, 743.0278
322.4514, 743.3395
322.9335, 743.7903
323.4156, 744.3711
323.8978, 745.0625
324.3799, 745.8802
324.8620, 746.7942
325.3441, 747.9257
325.8262, 749.5518
326.3083, 750.5101
326.7905, 750.5679
327.2726, 749.9576
327.7547, 748.9691
328.2368, 745.9227
328.7189, 744.2605
329.2010, 745.2656
329.6832, 749.2917
330.1653, 751.9526
330.6474, 752.7292
331.1295, 752.5138
331.6116, 751.9935
332.0938, 750.9498
332.5759, 749.9281
333.0580, 748.8861
333.5401, 747.8729
334.0222, 747.3324
334.5043, 747.3340
334.9865, 747.6986
335.4686, 748.4678
335.9507, 750.1000
336.4328, 750.8105
336.9149, 750.1524
337.3970, 748.6852
337.8792, 747.9694
338.3613, 748.2260
338.8434, 748.5842
339.3255, 748.6390
339.8076, 748.3409
340.2898, 748.0578
340.7719, 747.5869
341.2540, 747.4941
341.7361, 749.1364
342.2182, 752.7756
342.7003, 755.3978
343.1825, 755.4473
343.6646, 753.4238
344.1467, 752.8502
344.6288, 753.9528
345.1109, 755.3220
345.5930, 755.2087
346.0752, 753.8109
346.5573, 753.2230
347.0394, 754.2045
347.5215, 756.0623
348.0036, 757.3414
348.4857, 758.0377
348.9679, 758.4963
349.4500, 758.8175
349.9321, 759.0943
350.4142, 759.7109
350.8963, 760.9095
351.3784, 762.0038
351.8606, 761.8031
352.3427, 760.6306
352.8248, 759.6695
353.3069, 759.7474
353.7890, 760.3837
354.2711, 760.9003
354.7533, 761.2190
355.2354, 761.6684
355.7175, 762.8664
356.1996, 764.3497
356.6817, 765.3090
357.1638, 765.0532
357.6460, 764.3959
358.1281, 764.0417
358.6102, 763.9518
359.0923, 763.5127
359.5744, 761.5146
360.0565, 759.3846
360.5387, 758.5552
361.0208, 760.2839
361.5029, 762.3116
361.9850, 763.8993
362.4671, 765.0414
362.9492, 765.6858
363.4314, 764.9551
363.9135, 764.3502
364.3956, 764.9044
364.8777, 767.5993
365.3598, 769.4423
365.8419, 769.0436
366.3241, 767.5909
366.8062, 766.8638
367.2883, 767.3917
367.7704, 768.3926
368.2526, 769.9356
368.7347, 772.2581
369.2168, 773.6724
369.6989, 772.7233
370.1810, 771.7464
370.6631, 772.7816
371.1453, 778.2707
371.6274, 782.1337
372.1095, 783.3732
372.5916, 782.3097
373.0737, 780.9285
373.5558, 778.6277
374.0380, 776.8778
374.5201, 776.6864
375.0022, 778.7262
375.4843, 780.0170
375.9664, 780.1511
376.4485, 779.7639
376.9307, 780.2497
377.4128, 781.8519
377.8949, 783.2656
378.3770, 783.8829
378.8591, 783.7439
379.3412, 783.6913
379.8234, 783.7167
380.3055, 783.8557
380.7876, 784.1005
381.2697, 784.4645
381.7518, 785.1853
382.2339, 786.6287
382.7161, 788.2422
383.1982, 788.4370
383.6803, 787.2648
384.1624, 786.2158
384.6445, 787.0499
385.1266, 788.8432
385.6088, 788.9354
386.0909, 786.4135
386.5730, 783.7545
387.0551, 784.0117
387.5372, 786.5302
388.0193, 789.4580
388.5015, 792.7145
388.9836, 795.3915
389.4657, 796.1954
389.9478, 795.0096
390.4299, 793.5290
390.9120, 792.2178
391.3942, 791.4906
391.8763, 791.9052
392.3584, 795.4794
392.8405, 798.4894
393.3226, 798.4007
393.8047, 795.8749
394.2869, 793.9315
394.7690, 794.2502
395.2511, 795.1771
395.7332, 795.7197
396.2154, 795.6338
396.6975, 795.3545
397.1796, 794.3718
397.6617, 793.3476
398.1438, 793.4108
398.6259, 796.0149
399.1081, 798.4392
399.5902, 799.9455
400.0723, 800.4426
400.5544, 800.5720
401.0365, 800.0348
401.5186, 799.3304
402.0008, 798.8798
402.4829, 798.8455
402.9650, 798.6910
403.4471, 798.1353
403.9292, 797.4095
404.4113, 797.6663
404.8935, 799.4247
405.3756, 800.9764
405.8577, 801.3953
406.3398, 800.5629
406.8219, 799.3545
407.3040, 797.4952
407.7862, 795.8279
408.2683, 795.9481
408.7504, 797.9362
409.2325, 799.3685
409.7146, 799.2328
410.1967, 797.9827
410.6789, 796.8436
411.1610, 795.8026
411.6431, 795.4193
412.1252, 797.0302
412.6073, 799.7503
413.0894, 800.7376
413.5716, 798.7958
414.0537, 796.3336
414.5358, 796.5936
415.0179, 798.8814
415.5000, 800.9531
415.9821, 801.4235
416.4643, 801.1032
416.9464, 800.7133
417.4285, 800.2888
417.9106, 799.9151
418.3927, 799.4383
418.8748, 799.0958
419.3570, 799.1814
419.8391, 799.9675
420.3212, 801.0255
420.8033, 802.6566
421.2854, 804.5878
421.7675, 805.5755
422.2497, 804.6385
422.7318, 803.1311
423.2139, 801.6995
423.6960, 800.2521
424.1781, 799.2882
424.6602, 798.9657
425.1424, 799.1561
425.6245, 799.6833
426.1066, 800.7722
426.5887, 801.9104
427.0709, 803.1638
427.5530, 804.5276
428.0351, 804.9706
428.5172, 803.7996
428.9993, 802.6447
429.4814, 802.9001
429.9636, 805.1667
430.4457, 806.3676
430.9278, 805.8376
431.4099, 804.5109
431.8920, 804.6615
432.3741, 806.5194
432.8563, 808.0527
433.3384, 807.8265
433.8205, 806.2748
434.3026, 806.7351
434.7847, 809.4410
435.2668, 812.2920
435.7490, 812.6779
436.2311, 811.3220
436.7132, 810.8372
437.1953, 812.1917
437.6774, 814.3315
438.1595, 816.2758
438.6417, 817.9113
439.1238, 818.7654
439.6059, 818.0983
440.0880, 816.7443
440.5701, 815.3538
441.0522, 813.8899
441.5344, 813.1852
442.0165, 814.1794
442.4986, 816.0936
442.9807, 817.9700
443.4628, 820.3428
443.9449, 821.7859
444.4271, 821.1368
444.9092, 818.7987
445.3913, 817.0760
445.8734, 817.3237
446.3555, 817.7480
446.8376, 817.2513
447.3198, 814.1771
447.8019, 813.3752
448.2840, 816.4807
448.7661, 821.2388
449.2482, 824.6647
449.7303, 827.0258
450.2125, 827.4613
450.6946, 825.0966
451.1767, 820.2053
451.6588, 817.0172
452.1409, 815.8427
452.6230, 815.5973
453.1052, 815.7958
453.5873, 816.5170
454.0694, 816.4127
454.5515, 814.9784
455.0337, 813.5033
455.5158, 814.6396
455.9979, 818.2006
456.4800, 821.3032
456.9621, 822.4359
457.4442, 822.3625
457.9264, 822.8897
458.4085, 823.9969
458.8906, 825.1643
459.3727, 826.2591
459.8548, 827.0673
460.3369, 826.9861
460.8191, 825.3193
461.3012, 824.1236
461.7833, 826.0027
462.2654, 829.5559
462.7475, 831.8567
463.2296, 830.4961
463.7118, 828.4948
464.1939, 827.6009
464.6760, 827.9247
465.1581, 828.0272
465.6402, 827.1636
466.1223, 826.0727
466.6045, 825.2820
467.0866, 825.9316
467.5687, 825.5227
468.0508, 822.6291
468.5329, 818.6990
469.0150, 817.0943
469.4972, 819.7488
469.9793, 821.7883
470.4614, 821.2556
470.9435, 817.9338
471.4256, 816.7775
471.9077, 818.6331
472.3899, 820.9926
472.8720, 821.4195
473.3541, 819.7161
473.8362, 818.5739
474.3183, 818.4083
474.8004, 818.9037
475.2826, 819.6735
475.7647, 820.6765
476.2468, 821.3627
476.7289, 820.7718
477.2110, 819.7887
477.6931, 820.8892
478.1753, 824.0771
478.6574, 826.9426
479.1395, 827.3028
479.6216, 826.1258
480.1037, 824.7219
480.5858, 823.0733
481.0680, 821.9398
481.5501, 822.0483
482.0322, 823.0494
482.5143, 824.2150
482.9964, 825.8939
483.4786, 827.1453
483.9607, 827.1718
484.4428, 825.8085
484.9249, 825.2203
485.4070, 826.9484
485.8892, 828.9047
486.3713, 829.5697
486.8534, 827.4894
487.3355, 826.2409
487.8176, 826.1933
488.2997, 826.9266
488.7819, 827.5463
489.2640, 827.9290
489.7461, 828.4570
490.2282, 829.2061
490.7103, 830.1834
491.1924, 831.6182
491.6746, 833.6427
492.1567, 835.5818
492.6388, 836.7081
493.1209, 837.1280
493.6030, 837.7630
494.0851, 838.8597
494.5673, 839.8779
495.0494, 839.7644
495.5315, 838.8277
496.0136, 838.1896
496.4957, 838.6364
496.9778, 839.5009
497.4600, 840.0330
497.9421, 840.2667
498.4242, 840.5725
498.9063, 841.4435
499.3884, 842.3390
499.8705, 842.7338
500.3527, 842.2719
500.8348, 841.9354
501.3169, 842.4874
501.7990, 843.2685
502.2811, 843.3478
502.7632, 841.1879
503.2454, 839.7963
503.7275, 840.1054
504.2096, 841.9561
504.6917, 843.6881
505.1738, 845.6964
505.6559, 847.0499
506.1381, 846.9637
506.6202, 844.7893
507.1023, 843.9402
507.5844, 844.7104
508.0665, 846.2921
508.5486, 847.6790
509.0308, 848.8713
509.5129, 849.9981
509.9950, 851.0173
510.4771, 852.0505
510.9592, 853.6869
511.4413, 855.7920
511.9235, 857.2893
512.4056, 857.0513
512.8877, 855.9210
513.3698, 855.2210
513.8519, 855.0787
514.3340, 854.7953
514.8162, 853.4511
515.2983, 851.8242
515.7804, 850.8318
516.2625, 850.5949
516.7446, 851.2590
517.2267, 854.2241
517.7089, 858.1992
518.1910, 859.9496
518.6731, 856.1620
519.1552, 852.5287
519.6373, 851.1005
520.1194, 852.0305
520.6016, 853.4402
521.0837, 855.9572
521.5658, 858.2238
522.0479, 858.9935
522.5300, 857.5217
523.0121, 857.3760
523.4943, 859.2860
523.9764, 861.9489
524.4585, 862.9285
524.9406, 862.1755
525.4227, 861.2755
525.9048, 860.5251
526.3870, 860.1552
526.8691, 861.0930
527.3513, 863.2504
527.8334, 865.1899
528.3155, 865.7916
528.7976, 865.5826
529.2797, 865.2503
529.7618, 864.8457
530.2440, 864.5370
530.7261, 864.3030
531.2082, 864.2755
531.6903, 864.6276
532.1724, 865.5872
532.6545, 866.7450
533.1367, 868.0945
533.6188, 869.5608
534.1009, 870.9333
534.5830, 872.4092
535.0651, 873.5467
535.5472, 874.1116
536.0294, 874.0114
536.5115, 874.0404
536.9936, 874.1390
537.4757, 874.4592
537.9578, 875.1783
538.4399, 876.3690
538.9221, 877.5599
539.4042, 878.7388
539.8863, 879.8593
540.3684, 881.1888
540.8505, 882.6252
541.3326, 882.8798
541.8148, 880.4500
542.2969, 877.1078
542.7790, 876.1364
543.2611, 877.3327
543.7432, 879.0055
544.2253, 880.2516
544.7075, 881.2662
545.1896, 882.3809
545.6717, 883.7674
546.1538, 884.5343
546.6359, 884.0773
547.1180, 882.8483
547.6002, 881.3300
548.0823, 878.6060
548.5644, 876.7823
549.0465, 876.3803
549.5286, 877.1492
550.0107, 878.4816
550.4929, 881.4099
550.9750, 883.3031
551.4571, 882.9744
551.9392, 880.4006
552.4213, 878.7870
552.9034, 878.3051
553.3856, 878.1984
553.8677, 877.8936
554.3498, 877.4103
554.8319, 876.9301
555.3140, 876.4055
555.7961, 876.1282
556.2783, 876.7206
556.7604, 877.8976
557.2425, 878.8464
557.7246, 879.2497
558.2067, 879.3307
558.6888, 879.2936
559.1710, 879.1231
559.6531, 878.7448
560.1352, 877.6222
560.6173, 876.6913
561.0994, 876.5854
561.5815, 877.4330
562.0637, 878.3983
562.5458, 879.5738
563.0279, 880.6360
563.5100, 881.3398
563.9921, 881.2344
564.4742, 881.6142
564.9564, 882.9187
565.4385, 884.3761
565.9206, 884.4772
566.4027, 882.8827
566.8848, 881.5865
567.3669, 881.2513
567.8491, 881.5643
568.3312, 881.4481
568.8133, 880.9276
569.2954, 880.6908
569.7775, 881.3186
570.2596, 882.5004
570.7418, 883.8828
571.2239, 885.4825
571.7060, 886.5434
572.1881, 885.4792
572.6702, 884.0193
573.1523, 884.2681
573.6345, 888.0721
574.1166, 891.2347
574.5987, 891.7672
575.0808, 890.7180
575.5629, 889.8281
576.0450, 889.1773
576.5272, 888.9732
577.0093, 889.6635
577.4914, 890.9818
577.9735, 890.8792
578.4556, 888.2675
578.9377, 886.5140
579.4199, 887.9490
579.9020, 892.6559
580.3841, 894.9968
580.8662, 894.7475
581.3483, 893.3985
581.8304, 891.6692
582.3126, 889.9725
582.7947, 890.0443
583.2768, 892.6987
583.7589, 895.6815
584.2410, 896.2526
584.7231, 895.4058
585.2053, 895.1125
585.6874, 896.7125
586.1696, 898.5869
586.6517, 900.1689
587.1338, 901.3515
587.6159, 901.7700
588.0980, 900.5515
588.5801, 899.2031
589.0623, 898.2706
589.5444, 897.7318
590.0265, 897.7568
590.5086, 898.5922
590.9907, 899.6870
591.4728, 900.7352
591.9550, 901.8157
592.4371, 902.3182
592.9192, 902.0706
593.4013, 901.5916
593.8834, 901.7864
594.3655, 902.5240
594.8477, 902.8488
595.3298, 902.2068
595.8119, 901.3382
596.2940, 901.3143
596.7761, 901.9304
597.2582, 902.4957
597.7404, 902.0576
598.2225, 901.8691
598.7046, 903.1698
599.1867, 905.9782
599.6688, 908.1357
600.1509, 907.7131
600.6331, 907.3605
601.1152, 908.9926
601.5973, 914.4410
602.0794, 917.5425
602.5615, 917.0555
603.0436, 915.3832
603.5258, 915.2850
604.0079, 917.0705
604.4900, 918.7740
604.9721, 920.0216
605.4542, 921.1269
605.9363, 922.5775
606.4185, 924.3907
606.9006, 926.8044
607.3827, 930.7650
607.8648, 934.8340
608.3469, 936.2341
608.8290, 935.4600
609.3112, 935.2082
609.7933, 937.3287
610.2754, 940.4025
610.7575, 943.4404
611.2396, 946.2390
611.7217, 949.2373
612.2039, 952.5566
612.6860, 956.0524
613.1681, 959.6827
613.6502, 963.7858
614.1323, 967.2478
614.6144, 969.4559
615.0966, 971.4880
615.5787, 975.2092
616.0608, 980.9119
616.5429, 986.3904
617.0250, 991.1749
617.5071, 995.4071
617.9893, 999.0042
618.4714, 1002.102
618.9535, 1005.527
619.4356, 1010.245
619.9177, 1015.337
620.3998, 1019.616
620.8820, 1023.138
621.3641, 1026.495
621.8462, 1029.392
622.3283, 1032.736
622.8104, 1037.611
623.2925, 1044.972
623.7747, 1050.561
624.2568, 1051.887
624.7389, 1052.183
625.2210, 1054.088
625.7031, 1058.562
626.1852, 1062.611
626.6674, 1066.290
627.1495, 1069.175
627.6316, 1069.845
628.1137, 1068.149
628.5958, 1067.958
629.0779, 1070.466
629.5601, 1075.042
630.0422, 1081.182
630.5243, 1088.521
631.0064, 1095.550
631.4885, 1100.598
631.9706, 1105.519
632.4528, 1112.104
632.9349, 1120.284
633.4170, 1129.115
633.8991, 1138.835
634.3812, 1148.581
634.8633, 1157.754
635.3455, 1165.615
635.8276, 1174.928
636.3097, 1187.106
636.7918, 1199.485
637.2739, 1209.750
637.7560, 1217.271
638.2382, 1224.950
638.7203, 1233.281
639.2024, 1241.125
639.6845, 1246.860
640.1666, 1250.574
640.6487, 1253.169
641.1309, 1255.729
641.6130, 1256.148
642.0951, 1250.338
642.5772, 1239.818
643.0594, 1229.118
643.5415, 1221.845
644.0236, 1213.751
644.5057, 1201.260
644.9879, 1184.826
645.4700, 1169.863
645.9521, 1157.797
646.4342, 1147.253
646.9163, 1137.785
647.3984, 1129.575
647.8806, 1120.648
648.3627, 1110.168
648.8448, 1100.462
649.3269, 1093.585
649.8090, 1089.559
650.2911, 1085.651
650.7733, 1081.621
651.2554, 1077.621
651.7375, 1074.202
652.2196, 1070.890
652.7017, 1066.299
653.1838, 1059.263
653.6660, 1052.342
654.1481, 1047.719
654.6302, 1044.543
655.1123, 1041.261
655.5944, 1036.858
656.0765, 1032.808
656.5587, 1029.646
657.0408, 1027.233
657.5229, 1024.858
658.0050, 1022.535
658.4871, 1020.234
658.9692, 1017.814
659.4514, 1015.341
659.9335, 1013.856
660.4156, 1013.521
660.8977, 1012.884
661.3798, 1010.781
661.8619, 1007.610
662.3441, 1004.053
662.8262, 1000.129
663.3083, 996.8896
663.7904, 995.6738
664.2725, 995.3663
664.7546, 994.7919
665.2368, 993.7361
665.7189, 992.3741
666.2010, 990.8033
666.6831, 988.7711
667.1652, 986.7274
667.6473, 983.8686
668.1295, 981.0129
668.6116, 977.8493
669.0937, 974.9552
669.5758, 974.0800
670.0579, 975.5979
670.5400, 975.2957
671.0222, 971.1449
671.5043, 965.2538
671.9864, 961.6502
672.4685, 960.1371
672.9506, 959.7868
673.4327, 961.1286
673.9149, 962.6249
674.3970, 962.6547
674.8791, 961.3961
675.3612, 960.4033
675.8433, 960.7845
676.3254, 961.1687
676.8076, 960.7877
677.2897, 959.4760
677.7718, 958.2612
678.2539, 957.0677
678.7360, 956.1382
679.2181, 955.6801
679.7003, 955.7434
680.1824, 956.0440
680.6645, 956.6638
681.1466, 957.1875
681.6287, 956.6337
682.1108, 955.6106
682.5930, 956.1862
683.0751, 959.3594
683.5572, 962.0928
684.0393, 960.9193
684.5214, 957.9324
685.0035, 956.1341
685.4857, 957.6185
685.9678, 959.0488
686.4499, 959.2604
686.9320, 958.8890
687.4141, 959.3933
687.8962, 961.3272
688.3784, 963.1281
688.8605, 964.5895
689.3426, 965.6358
689.8247, 965.7552
690.3068, 964.9141
690.7889, 964.3036
691.2711, 964.4620
691.7532, 965.2670
692.2353, 966.8304
692.7174, 968.9778
693.1995, 970.6860
693.6816, 971.6691
694.1638, 971.7245
694.6459, 970.3990
695.1280, 967.6187
695.6101, 964.9354
696.0922, 961.3243
696.5743, 959.1797
697.0565, 960.3215
697.5386, 966.3291
698.0207, 968.7245
698.5028, 966.3223
698.9849, 962.8508
699.4670, 961.7458
699.9492, 962.8209
700.4313, 964.2940
700.9135, 966.0566
701.3956, 967.5963
701.8777, 968.1742
702.3598, 968.1595
702.8419, 968.2179
703.3240, 968.6743
703.8062, 968.8812
704.2883, 967.9564
704.7704, 966.7111
705.2525, 966.3555
705.7346, 967.9716
706.2167, 969.4035
706.6989, 970.7305
707.1810, 971.6437
707.6631, 970.9974
708.1452, 968.3427
708.6273, 967.0606
709.1094, 968.6124
709.5916, 971.7652
710.0737, 974.0120
710.5558, 975.3718
711.0379, 976.0117
711.5200, 975.2869
712.0021, 974.4180
712.4843, 974.5120
712.9664, 975.4421
713.4485, 976.5012
713.9306, 977.7113
714.4127, 978.6974
714.8948, 979.2550
715.3770, 979.3910
715.8591, 979.2328
716.3412, 978.6423
716.8233, 978.0311
717.3054, 977.4707
717.7875, 976.9903
718.2697, 977.6125
718.7518, 979.4388
719.2339, 981.1619
719.7160, 981.5384
720.1981, 981.1307
720.6802, 980.6539
721.1624, 980.1513
721.6445, 980.1889
722.1266, 981.5075
722.6087, 983.2764
723.0908, 984.8045
723.5729, 985.9972
724.0551, 986.8303
724.5372, 986.9617
725.0193, 987.0511
725.5014, 987.8405
725.9835, 989.4833
726.4656, 990.8380
726.9478, 991.6930
727.4299, 992.5228
727.9120, 994.2157
728.3941, 996.4672
728.8762, 998.2510
729.3583, 999.2514
729.8405, 999.7612
730.3226, 999.0506
730.8047, 998.2217
731.2868, 999.1091
731.7689, 1004.799
732.2510, 1009.299
732.7332, 1010.469
733.2153, 1009.742
733.6974, 1009.885
734.1795, 1011.111
734.6616, 1012.736
735.1437, 1014.893
735.6259, 1017.059
736.1080, 1017.290
736.5901, 1015.870
737.0722, 1015.362
737.5543, 1018.197
738.0364, 1021.648
738.5186, 1022.119
739.0007, 1020.359
739.4828, 1019.079
739.9649, 1020.365
740.4470, 1021.509
740.9291, 1020.980
741.4113, 1018.902
741.8934, 1017.773
742.3755, 1017.919
742.8576, 1018.468
743.3397, 1019.252
743.8218, 1020.192
744.3040, 1020.489
744.7861, 1020.132
745.2682, 1019.653
745.7503, 1019.023
746.2324, 1018.666
746.7145, 1019.717
747.1967, 1022.071
747.6788, 1023.738
748.1609, 1022.659
748.6430, 1021.247
749.1251, 1021.154
749.6072, 1022.831
750.0894, 1024.318
750.5715, 1025.390
751.0536, 1026.465
751.5357, 1027.781
752.0178, 1029.362
752.4999, 1031.208
752.9821, 1033.411
753.4642, 1035.375
753.9463, 1036.331
754.4284, 1036.672
754.9105, 1036.938
755.3926, 1037.102
755.8748, 1038.147
756.3569, 1041.824
756.8390, 1045.992
757.3211, 1048.547
757.8032, 1047.538
758.2853, 1048.605
758.7675, 1053.525
759.2496, 1059.075
759.7318, 1062.035
760.2139, 1061.849
760.6960, 1063.344
761.1781, 1067.157
761.6602, 1071.803
762.1423, 1075.725
762.6245, 1079.061
763.1066, 1082.029
763.5887, 1084.513
764.0708, 1087.219
764.5529, 1090.343
765.0350, 1094.068
765.5172, 1098.608
765.9993, 1105.474
766.4814, 1111.100
766.9635, 1114.553
767.4456, 1117.240
767.9277, 1121.177
768.4099, 1126.704
768.8920, 1131.210
769.3741, 1134.030
769.8562, 1136.312
770.3383, 1139.513
770.8204, 1143.594
771.3026, 1148.563
771.7847, 1154.922
772.2668, 1161.252
772.7489, 1166.437
773.2310, 1171.048
773.7131, 1175.907
774.1953, 1182.918
774.6774, 1187.910
775.1595, 1189.283
775.6416, 1189.166
776.1237, 1191.851
776.6058, 1197.853
777.0880, 1202.508
777.5701, 1204.095
778.0522, 1204.836
778.5343, 1209.727
779.0164, 1216.955
779.4985, 1221.222
779.9807, 1218.594
780.4628, 1214.459
780.9449, 1211.150
781.4270, 1208.803
781.9091, 1207.633
782.3912, 1210.131
782.8734, 1210.654
783.3555, 1207.729
783.8376, 1202.680
784.3197, 1198.934
784.8018, 1196.616
785.2839, 1193.871
785.7661, 1190.206
786.2482, 1185.714
786.7303, 1180.140
787.2124, 1173.867
787.6945, 1167.835
788.1766, 1162.082
788.6588, 1157.096
789.1409, 1153.043
789.6230, 1149.881
790.1051, 1147.435
790.5872, 1146.295
791.0693, 1144.893
791.5515, 1142.781
792.0336, 1140.301
792.5157, 1138.660
792.9978, 1137.870
793.4799, 1136.692
793.9620, 1134.542
794.4442, 1131.896
794.9263, 1129.198
795.4084, 1126.538
795.8905, 1124.135
796.3726, 1121.685
796.8547, 1119.921
797.3369, 1120.020
797.8190, 1121.097
798.3011, 1120.053
798.7832, 1115.341
799.2653, 1111.480
799.7474, 1109.746
800.2296, 1109.417
800.7117, 1108.722
801.1938, 1107.647
801.6759, 1105.982
802.1580, 1103.000
802.6401, 1100.092
803.1223, 1099.990
803.6044, 1101.322
804.0865, 1100.508
804.5686, 1092.890
805.0507, 1086.640
805.5328, 1085.787
806.0150, 1088.132
806.4971, 1087.653
806.9792, 1083.080
807.4613, 1079.922
807.9434, 1080.256
808.4255, 1082.295
808.9077, 1081.920
809.3898, 1079.529
809.8719, 1076.925
810.3540, 1074.634
810.8361, 1072.697
811.3182, 1070.941
811.8004, 1069.564
812.2825, 1069.001
812.7646, 1070.264
813.2467, 1071.284
813.7288, 1071.908
814.2109, 1071.966
814.6931, 1070.604
815.1752, 1067.546
815.6573, 1065.750
816.1394, 1066.422
816.6215, 1068.210
817.1037, 1069.133
817.5858, 1069.330
818.0679, 1069.176
818.5500, 1068.798
819.0322, 1068.128
819.5143, 1066.561
819.9964, 1064.746
820.4785, 1064.174
820.9606, 1065.802
821.4427, 1066.902
821.9249, 1066.910
822.4070, 1066.321
822.8891, 1066.184
823.3712, 1066.449
823.8533, 1066.558
824.3354, 1066.310
824.8176, 1065.969
825.2997, 1065.937
825.7818, 1066.023
826.2639, 1065.882
826.7460, 1065.489
827.2281, 1064.781
827.7103, 1063.065
828.1924, 1061.343
828.6745, 1061.039
829.1566, 1062.510
829.6387, 1064.051
830.1208, 1065.533
830.6030, 1066.667
831.0851, 1066.723
831.5672, 1066.036
832.0493, 1065.643
832.5314, 1066.091
833.0135, 1066.140
833.4957, 1063.843
833.9778, 1061.146
834.4599, 1060.312
834.9420, 1064.510
835.4241, 1066.623
835.9063, 1065.686
836.3884, 1063.838
836.8705, 1063.789
837.3526, 1065.482
837.8347, 1066.327
838.3168, 1065.877
838.7990, 1065.349
839.2811, 1066.297
839.7632, 1067.849
840.2453, 1068.842
840.7274, 1069.039
841.2095, 1068.671
841.6917, 1066.711
842.1738, 1065.003
842.6559, 1065.038
843.1380, 1067.408
843.6201, 1069.503
844.1022, 1071.412
844.5844, 1072.735
845.0665, 1072.807
845.5486, 1072.035
846.0307, 1071.469
846.5128, 1071.210
846.9949, 1071.219
847.4771, 1071.849
847.9592, 1072.476
848.4413, 1072.310
848.9234, 1070.845
849.4055, 1071.248
849.8876, 1074.793
850.3698, 1078.231
850.8519, 1079.396
851.3340, 1078.511
851.8161, 1078.422
852.2982, 1079.117
852.7803, 1080.157
853.2625, 1081.481
853.7446, 1082.802
854.2267, 1084.023
854.7088, 1085.080
855.1909, 1085.455
855.6730, 1084.335
856.1552, 1083.169
856.6373, 1082.484
857.1194, 1082.254
857.6015, 1082.359
858.0836, 1082.946
858.5657, 1082.783
859.0479, 1080.417
859.5300, 1077.539
860.0121, 1078.132
860.4942, 1081.230
860.9763, 1083.431
861.4584, 1081.865
861.9406, 1080.175
862.4227, 1080.018
862.9048, 1081.114
863.3869, 1082.357
863.8690, 1084.217
864.3511, 1084.943
864.8333, 1083.755
865.3154, 1081.665
865.7975, 1080.817
866.2796, 1080.963
866.7617, 1081.004
867.2438, 1080.422
867.7260, 1079.820
868.2081, 1079.546
868.6902, 1079.569
869.1723, 1079.828
869.6544, 1080.980
870.1365, 1081.313
870.6187, 1080.139
871.1008, 1078.805
871.5829, 1079.677
872.0650, 1082.591
872.5471, 1083.688
873.0292, 1082.072
873.5114, 1080.250
873.9935, 1081.741
874.4756, 1084.146
874.9577, 1083.932
875.4399, 1078.986
875.9220, 1076.068
876.4041, 1078.705
876.8862, 1082.410
877.3683, 1084.423
877.8505, 1084.512
878.3326, 1084.414
878.8147, 1084.137
879.2968, 1083.528
879.7789, 1081.927
880.2610, 1080.128
880.7432, 1079.547
881.2253, 1080.239
881.7074, 1081.075
882.1895, 1081.539
882.6716, 1082.001
883.1537, 1082.819
883.6359, 1083.954
884.1180, 1084.474
884.6001, 1084.341
885.0822, 1083.770
885.5643, 1082.433
886.0464, 1080.989
886.5286, 1081.348
887.0107, 1083.119
887.4928, 1084.677
887.9749, 1085.120
888.4570, 1085.134
888.9391, 1084.427
889.4213, 1083.549
889.9034, 1084.316
890.3855, 1087.828
890.8676, 1090.375
891.3497, 1091.068
891.8318, 1090.634
892.3140, 1090.187
892.7961, 1089.796
893.2782, 1089.730
893.7603, 1090.039
894.2424, 1090.764
894.7245, 1092.562
895.2067, 1094.511
895.6888, 1095.474
896.1709, 1094.088
896.6530, 1093.760
897.1351, 1095.261
897.6172, 1096.618
898.0994, 1094.915
898.5815, 1090.823
899.0636, 1089.563
899.5457, 1091.741
900.0278, 1094.836
900.5099, 1097.761
900.9921, 1100.016
901.4742, 1100.841
901.9563, 1099.885
902.4384, 1099.746
902.9205, 1100.922
903.4026, 1102.632
903.8848, 1104.832
904.3669, 1107.330
904.8490, 1108.453
905.3311, 1108.234
905.8132, 1107.862
906.2953, 1107.666
906.7775, 1107.959
907.2596, 1109.427
907.7417, 1111.700
908.2238, 1113.520
908.7059, 1114.339
909.1880, 1114.841
909.6702, 1114.944
910.1523, 1114.966
910.6344, 1115.560
911.1165, 1116.734
911.5986, 1118.940
912.0807, 1122.938
912.5629, 1126.440
913.0450, 1126.426
913.5271, 1124.345
914.0092, 1122.144
914.4913, 1118.742
914.9734, 1118.421
915.4556, 1123.835
915.9377, 1130.555
916.4198, 1134.524
916.9019, 1135.555
917.3840, 1137.107
917.8661, 1139.397
918.3483, 1141.854
918.8304, 1144.995
919.3125, 1147.455
919.7946, 1146.684
920.2767, 1142.406
920.7589, 1139.831
921.2410, 1142.179
921.7231, 1144.896
922.2052, 1146.346
922.6873, 1146.607
923.1694, 1146.050
923.6516, 1144.636
924.1337, 1143.772
924.6158, 1144.468
925.0979, 1145.823
925.5800, 1147.068
926.0621, 1147.995
926.5443, 1148.104
927.0264, 1146.123
927.5085, 1144.699
927.9906, 1144.557
928.4727, 1145.098
928.9548, 1145.407
929.4370, 1145.491
929.9191, 1145.413
930.4012, 1145.205
930.8833, 1144.797
931.3654, 1144.141
931.8475, 1143.223
932.3297, 1141.874
932.8118, 1139.795
933.2939, 1138.285
933.7761, 1137.633
934.2582, 1137.641
934.7403, 1138.651
935.2224, 1140.726
935.7045, 1140.275
936.1866, 1137.193
936.6688, 1134.225
937.1509, 1133.544
937.6330, 1133.859
938.1151, 1133.788
938.5972, 1133.393
939.0793, 1133.185
939.5615, 1133.531
940.0436, 1133.859
940.5257, 1133.904
941.0078, 1133.927
941.4899, 1134.947
941.9720, 1136.896
942.4542, 1137.803
942.9363, 1136.808
943.4184, 1135.299
943.9005, 1134.200
944.3826, 1133.755
944.8647, 1134.434
945.3469, 1137.879
945.8290, 1139.303
946.3111, 1137.188
946.7932, 1134.496
947.2753, 1134.013
947.7574, 1135.590
948.2396, 1135.984
948.7217, 1135.083
949.2038, 1134.353
949.6859, 1135.510
950.1680, 1136.947
950.6501, 1137.001
951.1323, 1135.698
951.6144, 1135.072
952.0965, 1135.898
952.5786, 1136.493
953.0607, 1136.180
953.5428, 1135.392
954.0250, 1135.539
954.5071, 1136.459
954.9892, 1137.213
955.4713, 1137.205
955.9534, 1137.277
956.4355, 1138.162
956.9177, 1139.471
957.3998, 1140.668
957.8819, 1141.695
958.3640, 1142.558
958.8461, 1143.173
959.3282, 1143.828
959.8104, 1145.197
960.2925, 1146.862
960.7746, 1146.777
961.2567, 1144.802
961.7388, 1143.831
962.2209, 1147.289
962.7031, 1151.073
963.1852, 1151.772
963.6673, 1153.689
964.1494, 1155.583
964.6315, 1153.983
965.1136, 1156.366
965.5958, 1154.515
966.0779, 1150.015
966.5600, 1144.881
967.0421, 1139.800
967.5242, 1136.855
968.0063, 1138.436
968.4885, 1140.064
968.9706, 1140.011
969.4527, 1139.135
969.9348, 1138.529
970.4169, 1138.360
970.8990, 1137.463
971.3812, 1135.586
971.8633, 1134.061
972.3454, 1134.699
972.8275, 1136.315
973.3096, 1137.365
973.7917, 1137.677
974.2739, 1137.197
974.7560, 1134.803
975.2381, 1132.802
975.7202, 1132.042
976.2023, 1132.384
976.6844, 1133.186
977.1666, 1134.458
977.6487, 1136.102
978.1308, 1138.518
978.6129, 1140.593
979.0950, 1141.192
979.5771, 1140.654
980.0593, 1139.543
980.5414, 1136.608
981.0235, 1135.267
981.5056, 1136.211
981.9877, 1137.918
982.4698, 1139.000
982.9520, 1139.498
983.4341, 1139.495
983.9162, 1138.999
984.3983, 1138.806
984.8804, 1139.983
985.3625, 1141.251
985.8447, 1141.362
986.3268, 1140.396
986.8089, 1140.809
987.2910, 1143.468
987.7731, 1145.049
988.2552, 1144.207
988.7374, 1142.062
989.2195, 1140.596
989.7016, 1139.731
990.1837, 1139.312
990.6658, 1139.505
991.1479, 1139.710
991.6301, 1139.396
992.1122, 1139.171
992.5944, 1139.722
993.0765, 1141.283
993.5586, 1142.068
994.0407, 1141.928
994.5228, 1142.013
995.0049, 1143.455
995.4871, 1145.564
995.9692, 1147.689
996.4513, 1149.727
996.9334, 1151.264
997.4155, 1151.914
997.8976, 1152.332
998.3798, 1152.672
998.8619, 1152.877
999.3440, 1152.475
999.8261, 1151.626
1000.308, 1152.074
1000.790, 1154.721
1001.272, 1157.230
1001.755, 1157.102
1002.237, 1156.113
1002.719, 1156.383
1003.201, 1159.149
1003.683, 1159.693
1004.165, 1157.072
1004.647, 1154.647
1005.129, 1154.799
1005.612, 1156.797
1006.094, 1158.943
1006.576, 1161.087
1007.058, 1162.584
1007.540, 1163.021
1008.022, 1162.832
1008.504, 1161.457
1008.986, 1159.858
1009.468, 1159.873
1009.951, 1161.758
1010.433, 1163.237
1010.915, 1164.035
1011.397, 1164.009
1011.879, 1161.903
1012.361, 1159.462
1012.843, 1159.159
1013.325, 1161.659
1013.807, 1163.520
1014.290, 1163.911
1014.772, 1163.918
1015.254, 1163.896
1015.736, 1163.877
1016.218, 1164.028
1016.700, 1164.322
1017.182, 1164.646
1017.664, 1165.592
1018.147, 1165.723
1018.629, 1163.171
1019.111, 1159.618
1019.593, 1157.560
1020.075, 1157.205
1020.557, 1158.114
1021.039, 1160.537
1021.521, 1163.177
1022.003, 1165.354
1022.486, 1166.668
1022.968, 1165.745
1023.450, 1162.795
1023.932, 1160.711
1024.414, 1161.607
1024.896, 1162.390
1025.378, 1161.646
1025.860, 1162.957
1026.343, 1161.280
1026.825, 1164.435
1027.307, 1166.783
1027.789, 1167.499
1028.271, 1167.243
1028.753, 1165.809
1029.235, 1164.160
1029.717, 1163.405
1030.199, 1163.873
1030.682, 1164.746
1031.164, 1166.361
1031.646, 1167.441
1032.128, 1166.539
1032.610, 1164.766
1033.092, 1165.306
1033.574, 1167.599
1034.056, 1169.567
1034.539, 1170.317
1035.021, 1170.509
1035.503, 1169.603
1035.985, 1168.723
1036.467, 1169.549
1036.949, 1172.114
1037.431, 1174.830
1037.913, 1177.610
1038.396, 1179.460
1038.878, 1178.753
1039.360, 1177.248
1039.842, 1176.316
1040.324, 1176.134
1040.806, 1177.287
1041.288, 1180.882
1041.770, 1183.061
1042.252, 1181.986
1042.734, 1179.665
1043.217, 1180.964
1043.699, 1184.380
1044.181, 1185.692
1044.663, 1182.228
1045.145, 1179.877
1045.627, 1182.080
1046.109, 1185.351
1046.591, 1187.103
1047.074, 1187.266
1047.556, 1187.590
1048.038, 1188.078
1048.520, 1189.120
1049.002, 1191.544
1049.484, 1194.109
1049.966, 1195.879
1050.448, 1196.917
1050.931, 1197.326
1051.413, 1196.047
1051.895, 1196.760
1052.377, 1200.398
1052.859, 1204.822
1053.341, 1207.903
1053.823, 1209.733
1054.305, 1210.092
1054.787, 1208.954
1055.270, 1208.458
1055.752, 1210.245
1056.234, 1212.147
1056.716, 1213.165
1057.198, 1213.567
1057.680, 1214.334
1058.162, 1215.454
1058.644, 1216.874
1059.126, 1218.864
1059.609, 1220.397
1060.091, 1219.541
1060.573, 1218.254
1061.055, 1219.125
1061.537, 1223.462
1062.019, 1225.288
1062.501, 1223.941
1062.983, 1222.588
1063.466, 1224.587
1063.948, 1227.328
1064.430, 1225.124
1064.912, 1219.445
1065.394, 1214.653
1065.876, 1213.061
1066.358, 1211.795
1066.840, 1210.723
1067.323, 1209.307
1067.805, 1206.364
1068.287, 1202.245
1068.769, 1199.647
1069.251, 1198.759
1069.733, 1199.061
1070.215, 1201.297
1070.697, 1203.566
1071.179, 1204.642
1071.661, 1204.614
1072.144, 1203.743
1072.626, 1201.852
1073.108, 1200.390
1073.590, 1199.841
1074.072, 1199.585
1074.554, 1198.933
1075.036, 1198.091
1075.518, 1197.248
1076.001, 1196.359
1076.483, 1196.085
1076.965, 1196.773
1077.447, 1197.460
1077.929, 1197.442
1078.411, 1197.193
1078.893, 1198.326
1079.375, 1200.427
1079.858, 1202.139
1080.340, 1202.234
1080.822, 1202.779
1081.304, 1205.453
1081.786, 1208.115
1082.268, 1208.393
1082.750, 1206.200
1083.232, 1205.891
1083.714, 1207.546
1084.197, 1209.328
1084.679, 1209.836
1085.161, 1210.070
1085.643, 1211.294
1086.125, 1212.858
1086.607, 1212.582
1087.089, 1209.814
1087.571, 1207.435
1088.054, 1205.801
1088.536, 1204.936
1089.018, 1205.548
1089.500, 1206.594
1089.982, 1206.315
1090.464, 1204.491
1090.946, 1203.262
1091.428, 1203.204
1091.911, 1203.467
1092.393, 1203.722
1092.875, 1204.187
1093.357, 1205.686
1093.839, 1207.848
1094.321, 1209.636
1094.803, 1210.888
1095.285, 1211.339
1095.767, 1209.389
1096.250, 1207.980
1096.732, 1209.511
1097.214, 1213.745
1097.696, 1215.855
1098.178, 1215.922
1098.660, 1215.490
1099.142, 1215.231
1099.624, 1214.932
1100.106, 1213.984
1100.589, 1213.080
1101.071, 1213.272
1101.553, 1214.540
1102.035, 1217.197
1102.517, 1221.480
1102.999, 1225.881
1103.481, 1229.325
1103.963, 1231.977
1104.446, 1233.539
1104.928, 1234.355
1105.410, 1235.855
1105.892, 1238.816
1106.374, 1241.586
1106.856, 1243.789
1107.338, 1246.008
1107.820, 1249.402
1108.302, 1253.368
1108.785, 1256.438
1109.267, 1258.433
1109.749, 1260.774
1110.231, 1264.236
1110.713, 1268.072
1111.195, 1272.248
1111.677, 1276.485
1112.159, 1279.780
1112.641, 1282.358
1113.124, 1285.616
1113.606, 1290.031
1114.088, 1294.817
1114.570, 1299.734
1115.052, 1304.604
1115.534, 1309.259
1116.016, 1313.676
1116.498, 1318.039
1116.981, 1322.387
1117.463, 1326.512
1117.945, 1330.202
1118.427, 1333.824
1118.909, 1337.576
1119.391, 1341.551
1119.873, 1345.989
1120.355, 1351.381
1120.838, 1355.848
1121.320, 1359.480
1121.802, 1361.717
1122.284, 1361.390
1122.766, 1359.917
1123.248, 1360.205
1123.730, 1361.140
1124.212, 1359.705
1124.694, 1355.071
1125.177, 1347.290
1125.659, 1335.030
1126.141, 1322.363
1126.623, 1314.351
1127.105, 1309.136
1127.587, 1301.293
1128.069, 1290.949
1128.551, 1281.582
1129.033, 1275.393
1129.516, 1269.537
1129.998, 1262.870
1130.480, 1256.359
1130.962, 1251.788
1131.444, 1248.833
1131.926, 1245.672
1132.408, 1242.051
1132.890, 1238.352
1133.373, 1234.542
1133.855, 1231.020
1134.337, 1227.942
1134.819, 1225.340
1135.301, 1223.576
1135.783, 1222.641
1136.265, 1221.370
1136.747, 1219.288
1137.229, 1217.530
1137.712, 1217.025
1138.194, 1217.302
1138.676, 1218.291
1139.158, 1219.941
1139.640, 1220.350
1140.122, 1219.389
1140.604, 1218.470
1141.086, 1218.391
1141.569, 1218.173
1142.051, 1215.888
1142.533, 1213.151
1143.015, 1212.277
1143.497, 1214.289
1143.979, 1215.932
1144.461, 1217.315
1144.943, 1217.786
1145.426, 1216.155
1145.908, 1214.008
1146.390, 1214.074
1146.872, 1215.579
1147.354, 1216.921
1147.836, 1217.890
1148.318, 1218.179
1148.800, 1217.660
1149.282, 1216.771
1149.765, 1215.723
1150.247, 1214.656
1150.729, 1213.978
1151.211, 1213.589
1151.693, 1213.009
1152.175, 1211.245
1152.657, 1210.530
1153.139, 1211.442
1153.621, 1213.132
1154.104, 1215.076
1154.586, 1216.928
1155.068, 1217.291
1155.550, 1216.192
1156.032, 1214.951
1156.514, 1213.524
1156.996, 1212.951
1157.478, 1213.670
1157.961, 1215.161
1158.443, 1216.547
1158.925, 1217.872
1159.407, 1219.626
1159.889, 1221.892
1160.371, 1223.434
1160.853, 1223.034
1161.335, 1222.138
1161.818, 1221.120
1162.300, 1220.322
1162.782, 1221.143
1163.264, 1223.386
1163.746, 1224.692
1164.228, 1224.466
1164.710, 1223.770
1165.192, 1223.045
1165.674, 1222.446
1166.156, 1222.213
1166.639, 1222.248
1167.121, 1221.736
1167.603, 1220.701
1168.085, 1220.319
1168.567, 1221.117
1169.049, 1222.251
1169.531, 1223.325
1170.013, 1224.152
1170.496, 1224.252
1170.978, 1223.595
1171.460, 1224.764
1171.942, 1227.939
1172.424, 1229.441
1172.906, 1226.379
1173.388, 1223.129
1173.870, 1225.146
1174.353, 1229.102
1174.835, 1230.233
1175.317, 1227.484
1175.799, 1227.072
1176.281, 1229.370
1176.763, 1231.055
1177.245, 1229.347
1177.727, 1227.083
1178.209, 1227.916
1178.692, 1230.311
1179.174, 1231.613
1179.656, 1231.074
1180.138, 1230.780
1180.620, 1230.893
1181.102, 1230.342
1181.584, 1227.194
1182.066, 1223.806
1182.548, 1223.535
1183.031, 1225.340
1183.513, 1226.733
1183.995, 1226.662
1184.477, 1228.081
1184.959, 1231.788
1185.441, 1234.410
1185.923, 1231.403
1186.405, 1226.579
1186.888, 1224.980
1187.370, 1226.230
1187.852, 1228.645
1188.334, 1233.170
1188.816, 1236.094
1189.298, 1236.937
1189.780, 1236.551
1190.262, 1234.889
1190.745, 1233.069
1191.227, 1232.866
1191.709, 1234.163
1192.191, 1235.938
1192.673, 1239.227
1193.155, 1240.208
1193.637, 1237.709
1194.119, 1234.603
1194.601, 1234.760
1195.084, 1236.367
1195.566, 1235.772
1196.048, 1233.148
1196.530, 1233.483
1197.012, 1240.811
1197.494, 1244.552
1197.976, 1241.749
1198.458, 1236.941
1198.941, 1236.750
1199.423, 1238.879
1199.905, 1239.253
1200.387, 1237.488
1200.869, 1236.580
1201.351, 1237.667
1201.833, 1238.587
1202.315, 1239.034
1202.797, 1238.629
1203.280, 1235.405
1203.762, 1231.466
1204.244, 1231.154
1204.726, 1235.350
1205.208, 1237.584
1205.690, 1235.164
1206.172, 1234.114
1206.654, 1236.639
1207.136, 1240.713
1207.619, 1243.529
1208.101, 1245.057
1208.583, 1244.919
1209.065, 1242.751
1209.547, 1241.232
1210.029, 1240.715
1210.511, 1240.801
1210.993, 1241.424
1211.476, 1242.424
1211.958, 1243.664
1212.440, 1245.034
1212.922, 1246.500
1213.404, 1248.305
1213.886, 1248.691
1214.368, 1246.842
1214.850, 1245.217
1215.333, 1244.618
1215.815, 1245.175
1216.297, 1248.468
1216.779, 1252.664
1217.261, 1254.375
1217.743, 1252.404
1218.225, 1249.424
1218.707, 1244.744
1219.189, 1241.807
1219.672, 1242.735
1220.154, 1245.660
1220.636, 1247.233
1221.118, 1248.254
1221.600, 1250.393
1222.082, 1254.971
1222.564, 1257.272
1223.046, 1256.453
1223.528, 1255.294
1224.011, 1255.285
1224.493, 1255.730
1224.975, 1255.584
1225.457, 1254.991
1225.939, 1254.122
1226.421, 1252.670
1226.903, 1251.958
1227.385, 1252.042
1227.868, 1252.741
1228.350, 1254.479
1228.832, 1256.172
1229.314, 1255.695
1229.796, 1254.135
1230.278, 1253.390
1230.760, 1254.246
1231.242, 1254.750
1231.724, 1254.947
1232.207, 1254.546
1232.689, 1252.591
1233.171, 1250.784
1233.653, 1251.887
1234.135, 1254.469
1234.617, 1256.192
1235.099, 1256.897
1235.581, 1256.032
1236.063, 1253.279
1236.546, 1251.335
1237.028, 1252.777
1237.510, 1254.955
1237.992, 1254.436
1238.474, 1252.994
1238.956, 1253.953
1239.438, 1258.660
1239.920, 1260.321
1240.403, 1258.731
1240.885, 1256.498
1241.367, 1254.133
1241.849, 1253.000
1242.331, 1255.712
1242.813, 1259.738
1243.295, 1261.014
1243.777, 1258.615
1244.260, 1258.604
1244.742, 1260.974
1245.224, 1262.920
1245.706, 1261.608
1246.188, 1260.488
1246.670, 1262.810
1247.152, 1266.238
1247.634, 1267.472
1248.116, 1266.349
1248.599, 1265.884
1249.081, 1266.057
1249.563, 1266.088
1250.045, 1265.443
1250.527, 1264.621
1251.009, 1263.850
1251.491, 1263.045
1251.973, 1261.834
1252.455, 1260.285
1252.938, 1260.619
1253.420, 1262.610
1253.902, 1264.383
1254.384, 1264.692
1254.866, 1264.881
1255.348, 1265.585
1255.830, 1266.259
1256.313, 1266.205
1256.795, 1265.648
1257.277, 1265.990
1257.759, 1267.145
1258.241, 1268.552
1258.723, 1270.859
1259.205, 1271.990
1259.687, 1270.865
1260.169, 1269.630
1260.651, 1270.450
1261.134, 1272.595
1261.616, 1274.141
1262.098, 1274.947
1262.580, 1274.712
1263.062, 1272.377
1263.544, 1270.273
1264.026, 1268.359
1264.508, 1267.245
1264.991, 1267.825
1265.473, 1269.373
1265.955, 1270.794
1266.437, 1272.000
1266.919, 1272.777
1267.401, 1272.818
1267.883, 1272.876
1268.365, 1272.922
1268.848, 1273.228
1269.330, 1274.168
1269.812, 1275.371
1270.294, 1276.876
1270.776, 1278.166
1271.258, 1277.771
1271.740, 1274.196
1272.222, 1273.938
1272.704, 1277.413
1273.187, 1280.976
1273.669, 1281.904
1274.151, 1281.983
1274.633, 1283.172
1275.115, 1284.302
1275.597, 1283.375
1276.079, 1279.930
1276.561, 1277.639
1277.043, 1276.526
1277.526, 1276.081
1278.008, 1276.482
1278.490, 1276.958
1278.972, 1277.064
1279.454, 1277.042
1279.936, 1277.120
1280.418, 1277.299
1280.900, 1277.513
1281.383, 1277.763
1281.865, 1278.120
1282.347, 1278.640
1282.829, 1279.182
1283.311, 1279.174
1283.793, 1279.756
1284.275, 1282.473
1284.757, 1286.426
1285.240, 1287.661
1285.722, 1286.841
1286.204, 1286.098
1286.686, 1286.668
1287.168, 1286.516
1287.650, 1285.057
1288.132, 1283.807
1288.614, 1283.886
1289.096, 1284.856
1289.578, 1286.298
1290.061, 1287.808
1290.543, 1288.528
1291.025, 1287.863
1291.507, 1287.192
1291.989, 1286.534
1292.471, 1285.626
1292.953, 1283.712
1293.435, 1282.225
1293.918, 1283.630
1294.400, 1286.205
1294.882, 1287.469
1295.364, 1287.287
1295.846, 1285.792
1296.328, 1282.958
1296.810, 1282.143
1297.292, 1286.148
1297.775, 1290.249
1298.257, 1291.313
1298.739, 1290.487
1299.221, 1288.515
1299.703, 1285.655
1300.185, 1285.132
1300.667, 1286.589
1301.149, 1287.760
1301.631, 1287.537
1302.114, 1287.050
1302.596, 1288.083
##END=



