##NAMES=Mixite
##RRUFFID=R070503
##IDEAL CHEMISTRY=Cu^2+^_6_Bi^3+^(As^5+^O_4_)_3_(OH)_6_&#183;3H_2_O
##LOCALITY=Hilarion mine, near Kamariza, Lavrion District, Greece
##OWNER=RRUFF
##SOURCE=Bob Jenkins
##DESCRIPTION=Radiating aggregates of bluish-green acicular crystals
##STATUS=The identification of this mineral is confirmed by single-crystal X-ray diffraction and chemical analysis.
##URL=rruff.info/R070503
##MEASURED CHEMISTRY=(Cu_5.73_Ca_0.22_Zn_0.06_Fe_0.01_)_Σ=6.02_(Bi_0.52_Ca_0.48_)_Σ=1.00_(AsO_4_)_2.86_(OH)_6_·3.58H_2_O
118.5067, 314.0470
118.9888, 315.2372
119.4709, 321.7173
119.9530, 330.3748
120.4351, 343.2973
120.9172, 358.2225
121.3994, 368.4618
121.8815, 368.3311
122.3636, 357.9004
122.8457, 349.5748
123.3278, 343.3956
123.8099, 339.0563
124.2921, 336.4499
124.7742, 335.5672
125.2563, 336.6400
125.7384, 340.9402
126.2205, 347.9560
126.7026, 351.6746
127.1848, 346.3129
127.6669, 340.8799
128.1490, 345.6681
128.6311, 361.9624
129.1132, 378.0521
129.5953, 381.6010
130.0775, 376.1093
130.5596, 375.6939
131.0417, 391.6202
131.5238, 410.9453
132.0059, 412.1931
132.4880, 388.7880
132.9702, 366.2668
133.4523, 371.7284
133.9344, 395.1407
134.4165, 412.6276
134.8986, 412.1669
135.3807, 400.0312
135.8629, 390.2445
136.3450, 383.8655
136.8271, 379.1004
137.3092, 372.1373
137.7913, 365.0885
138.2734, 364.2237
138.7556, 379.0562
139.2377, 404.4764
139.7198, 417.2059
140.2019, 408.9986
140.6840, 398.0689
141.1661, 393.0894
141.6483, 393.6997
142.1304, 398.7118
142.6125, 409.7020
143.0946, 425.9437
143.5767, 438.5145
144.0588, 447.0177
144.5410, 451.4449
145.0231, 447.6920
145.5052, 439.1668
145.9873, 435.1453
146.4694, 446.3181
146.9515, 473.5366
147.4337, 492.4371
147.9158, 497.7609
148.3979, 498.4376
148.8800, 493.6265
149.3621, 485.9972
149.8442, 481.9287
150.3264, 488.5216
150.8085, 507.4750
151.2906, 523.3066
151.7727, 541.9430
152.2548, 552.1733
152.7369, 543.8237
153.2191, 520.8600
153.7012, 496.8671
154.1833, 485.5487
154.6654, 489.2300
155.1475, 493.7281
155.6296, 502.5187
156.1118, 509.1391
156.5939, 508.1823
157.0760, 501.2349
157.5581, 495.1603
158.0402, 497.4525
158.5223, 510.3621
159.0045, 522.3787
159.4866, 536.8525
159.9687, 548.0154
160.4508, 550.3462
160.9329, 543.5700
161.4150, 534.1700
161.8972, 532.6402
162.3793, 543.9877
162.8614, 541.4646
163.3435, 514.8495
163.8256, 486.5201
164.3077, 466.4502
164.7899, 456.3089
165.2720, 455.2553
165.7541, 464.0389
166.2362, 487.6533
166.7183, 498.5332
167.2004, 490.7139
167.6826, 477.8860
168.1647, 466.1359
168.6468, 456.9573
169.1289, 450.9467
169.6110, 449.0187
170.0931, 452.1945
170.5753, 455.0520
171.0574, 459.2513
171.5395, 462.0080
172.0216, 461.2543
172.5037, 456.9809
172.9858, 450.8978
173.4680, 444.9644
173.9501, 439.7725
174.4322, 429.6947
174.9143, 404.7071
175.3964, 382.3830
175.8785, 377.7891
176.3607, 391.0390
176.8428, 407.8656
177.3249, 415.2119
177.8070, 411.4130
178.2891, 406.6469
178.7712, 398.0563
179.2534, 390.5114
179.7355, 389.7684
180.2176, 395.5805
180.6997, 399.5506
181.1818, 392.9804
181.6639, 374.6275
182.1461, 363.3495
182.6282, 361.6669
183.1103, 365.1670
183.5924, 372.9857
184.0745, 384.4157
184.5566, 393.5906
185.0388, 394.1324
185.5209, 386.2210
186.0030, 384.1299
186.4851, 399.0391
186.9672, 412.0551
187.4493, 404.9138
187.9315, 377.8882
188.4136, 349.1973
188.8957, 330.4496
189.3778, 322.6599
189.8599, 323.5086
190.3420, 342.2905
190.8242, 362.8789
191.3063, 372.3939
191.7884, 370.9152
192.2705, 366.2653
192.7526, 362.9756
193.2347, 360.8163
193.7169, 358.3169
194.1990, 356.9415
194.6811, 354.0808
195.1632, 345.1532
195.6453, 330.8402
196.1274, 321.2763
196.6096, 325.2113
197.0917, 338.4242
197.5738, 344.5462
198.0559, 338.3013
198.5380, 329.5065
199.0201, 325.0275
199.5023, 324.4552
199.9844, 323.6696
200.4665, 318.8813
200.9486, 313.2615
201.4307, 314.8963
201.9128, 330.2264
202.3950, 344.7052
202.8771, 347.9313
203.3592, 341.1075
203.8413, 332.2743
204.3234, 324.1354
204.8055, 316.8887
205.2877, 310.2784
205.7698, 302.9270
206.2519, 298.4729
206.7340, 302.3623
207.2161, 312.4535
207.6982, 316.9847
208.1804, 308.4311
208.6625, 294.7322
209.1446, 290.5391
209.6267, 298.5296
210.1088, 307.7667
210.5909, 312.9388
211.0731, 314.5542
211.5552, 313.8788
212.0373, 309.9743
212.5194, 305.6918
213.0015, 305.6281
213.4836, 310.4071
213.9658, 315.1474
214.4479, 318.0846
214.9300, 319.2352
215.4121, 317.8885
215.8942, 312.4693
216.3763, 307.0720
216.8584, 308.8298
217.3406, 318.1750
217.8227, 323.2160
218.3048, 314.8667
218.7869, 299.3177
219.2690, 289.6856
219.7511, 289.0038
220.2333, 293.2148
220.7154, 298.6476
221.1975, 305.1557
221.6796, 312.5483
222.1617, 324.4134
222.6438, 336.1299
223.1260, 339.2136
223.6081, 331.3110
224.0902, 320.0374
224.5723, 310.4884
225.0544, 302.8268
225.5365, 299.9108
226.0187, 307.5678
226.5008, 317.9771
226.9829, 319.7798
227.4650, 311.3116
227.9471, 303.1393
228.4292, 306.2498
228.9114, 317.1864
229.3935, 321.4768
229.8756, 310.8381
230.3577, 296.7663
230.8398, 290.8899
231.3219, 293.4144
231.8041, 296.2993
232.2862, 293.3925
232.7683, 286.9868
233.2504, 285.0558
233.7325, 290.6722
234.2146, 298.4888
234.6968, 306.5189
235.1789, 314.2607
235.6610, 318.4623
236.1431, 317.3579
236.6252, 311.1974
237.1073, 301.5671
237.5895, 284.1071
238.0716, 269.7979
238.5537, 266.8783
239.0358, 272.3256
239.5179, 275.6271
240.0000, 271.3393
240.4822, 264.2810
240.9643, 266.2066
241.4464, 282.9311
241.9285, 292.2639
242.4106, 279.0196
242.8927, 253.5818
243.3749, 236.5428
243.8570, 234.5420
244.3391, 241.5438
244.8212, 249.8138
245.3033, 260.2627
245.7854, 267.7156
246.2676, 269.8188
246.7497, 268.7989
247.2318, 267.7767
247.7139, 267.4717
248.1960, 266.0013
248.6781, 259.7668
249.1603, 247.3379
249.6424, 241.3973
250.1245, 248.6191
250.6066, 259.1864
251.0887, 263.2724
251.5708, 260.3000
252.0530, 258.4499
252.5351, 266.3984
253.0172, 284.9067
253.4993, 293.9197
253.9814, 287.7678
254.4635, 277.5784
254.9457, 267.7885
255.4278, 259.3190
255.9099, 254.1530
256.3920, 254.4532
256.8741, 259.3066
257.3563, 259.5980
257.8384, 251.2202
258.3205, 243.6293
258.8026, 240.7296
259.2847, 240.9696
259.7668, 240.6410
260.2490, 237.6140
260.7311, 233.4785
261.2132, 233.6695
261.6953, 242.2771
262.1774, 249.8760
262.6595, 255.0997
263.1417, 258.8896
263.6238, 262.3489
264.1059, 265.8842
264.5880, 269.4088
265.0701, 273.0960
265.5522, 281.5660
266.0344, 281.3759
266.5165, 262.9050
266.9986, 242.3040
267.4807, 233.0745
267.9628, 237.0774
268.4449, 246.6691
268.9271, 252.8401
269.4092, 254.3295
269.8913, 256.9854
270.3734, 263.5175
270.8555, 268.6022
271.3376, 268.1920
271.8198, 263.4566
272.3019, 259.1591
272.7840, 259.8482
273.2661, 265.6119
273.7482, 265.6641
274.2303, 251.6763
274.7125, 240.5554
275.1946, 237.6903
275.6767, 240.4433
276.1588, 244.1941
276.6409, 246.2993
277.1230, 247.2666
277.6052, 249.1253
278.0873, 252.6318
278.5694, 255.9579
279.0515, 261.4843
279.5336, 265.5325
280.0157, 262.9448
280.4979, 251.9521
280.9800, 238.1970
281.4621, 231.5101
281.9442, 233.8977
282.4263, 238.0654
282.9084, 247.9001
283.3906, 255.7668
283.8727, 255.4364
284.3548, 246.7284
284.8369, 235.7979
285.3190, 227.2798
285.8011, 220.7597
286.2833, 222.1272
286.7654, 240.8437
287.2475, 258.4325
287.7296, 266.3022
288.2117, 265.4670
288.6938, 260.3641
289.1760, 251.4613
289.6581, 240.4021
290.1402, 234.5147
290.6223, 235.5148
291.1044, 238.5256
291.5865, 242.3078
292.0687, 246.1546
292.5508, 249.0170
293.0329, 250.7203
293.5150, 250.9828
293.9971, 248.8123
294.4792, 243.8509
294.9614, 239.1221
295.4435, 234.0785
295.9256, 231.0391
296.4077, 233.4669
296.8898, 243.0099
297.3719, 253.3681
297.8541, 260.7704
298.3362, 265.2118
298.8183, 265.8463
299.3004, 260.6035
299.7825, 254.2153
300.2646, 252.8843
300.7468, 256.5793
301.2289, 259.9770
301.7110, 260.4044
302.1931, 259.5776
302.6752, 260.9013
303.1573, 265.2139
303.6395, 268.3832
304.1216, 265.1442
304.6037, 256.1833
305.0858, 252.0661
305.5679, 257.2920
306.0500, 264.6089
306.5322, 270.0403
307.0143, 273.1348
307.4964, 272.4717
307.9785, 266.2708
308.4606, 256.0291
308.9427, 249.6981
309.4249, 248.2057
309.9070, 248.6199
310.3891, 252.9276
310.8712, 258.0075
311.3533, 257.3662
311.8354, 248.3426
312.3176, 236.9460
312.7997, 234.6501
313.2818, 249.6582
313.7639, 259.6914
314.2460, 260.0146
314.7281, 258.5932
315.2103, 263.7885
315.6924, 275.3393
316.1745, 284.2363
316.6566, 279.6615
317.1387, 258.2163
317.6208, 248.8389
318.1030, 266.8940
318.5851, 280.5857
319.0672, 273.0291
319.5493, 252.7652
320.0314, 239.2328
320.5135, 245.4969
320.9957, 265.4298
321.4778, 273.1248
321.9599, 259.3279
322.4420, 247.2440
322.9241, 240.8442
323.4063, 238.0172
323.8884, 238.1470
324.3705, 240.9416
324.8526, 242.5181
325.3347, 235.0182
325.8168, 215.3369
326.2990, 203.7984
326.7811, 209.7428
327.2632, 219.4017
327.7453, 226.4354
328.2274, 230.3255
328.7095, 232.0293
329.1917, 231.4928
329.6738, 229.1762
330.1559, 227.1538
330.6380, 225.8844
331.1201, 224.0159
331.6022, 219.6995
332.0844, 214.3511
332.5665, 210.6463
333.0486, 210.7099
333.5307, 211.3702
334.0128, 208.5067
334.4949, 202.2858
334.9771, 196.6774
335.4592, 193.1493
335.9413, 191.5130
336.4234, 191.4458
336.9055, 193.6907
337.3876, 195.1418
337.8698, 194.9196
338.3519, 192.8734
338.8340, 187.9368
339.3161, 179.4939
339.7982, 170.6608
340.2803, 164.3340
340.7624, 160.5230
341.2445, 161.2669
341.7267, 172.0455
342.2088, 183.1494
342.6909, 186.8523
343.1730, 184.0892
343.6551, 181.6537
344.1372, 184.6923
344.6194, 191.8395
345.1015, 192.6117
345.5836, 178.3831
346.0657, 168.5402
346.5478, 169.9815
347.0299, 176.4319
347.5121, 179.4183
347.9942, 176.0909
348.4763, 170.7536
348.9584, 171.3304
349.4405, 182.7302
349.9226, 189.0046
350.4048, 187.5232
350.8869, 183.9265
351.3690, 180.5792
351.8511, 177.9305
352.3332, 175.9168
352.8153, 175.1574
353.2975, 175.2135
353.7796, 171.0330
354.2617, 157.0765
354.7438, 147.5599
355.2259, 149.1634
355.7080, 156.8043
356.1902, 164.1876
356.6723, 169.1950
357.1544, 172.6660
357.6365, 175.2517
358.1186, 176.8221
358.6007, 179.7814
359.0829, 188.0805
359.5650, 194.7863
360.0471, 191.4456
360.5292, 177.8431
361.0113, 166.5838
361.4934, 167.5915
361.9756, 174.6067
362.4577, 173.9589
362.9398, 163.0917
363.4219, 151.6370
363.9040, 146.0671
364.3861, 146.5179
364.8683, 151.6358
365.3504, 168.2592
365.8325, 183.1161
366.3146, 188.0623
366.7967, 184.8711
367.2788, 177.3502
367.7610, 166.1952
368.2431, 154.6806
368.7252, 150.2327
369.2073, 155.6078
369.6894, 163.5298
370.1715, 178.2060
370.6537, 192.3375
371.1358, 198.7973
371.6179, 197.3508
372.1000, 193.4229
372.5821, 192.5606
373.0642, 195.1691
373.5464, 194.0485
374.0285, 181.7951
374.5106, 173.7301
374.9927, 174.7018
375.4748, 182.2156
375.9569, 193.8853
376.4391, 209.1972
376.9212, 223.5069
377.4033, 225.6247
377.8854, 210.3963
378.3675, 199.7200
378.8496, 198.9153
379.3318, 203.1553
379.8139, 213.5172
380.2960, 228.5345
380.7781, 238.4707
381.2602, 231.6281
381.7423, 213.4936
382.2245, 204.8420
382.7066, 209.1661
383.1887, 215.5358
383.6708, 217.1879
384.1529, 215.7626
384.6350, 214.1492
385.1172, 212.4769
385.5993, 211.1974
386.0814, 210.5318
386.5635, 210.5198
387.0456, 211.2010
387.5277, 212.4567
388.0099, 214.7463
388.4920, 219.3553
388.9741, 227.3208
389.4562, 233.4964
389.9383, 240.0387
390.4204, 242.6651
390.9026, 233.8543
391.3847, 215.7335
391.8668, 200.7578
392.3489, 199.2693
392.8310, 210.0700
393.3131, 217.4488
393.7953, 219.3450
394.2774, 220.1021
394.7595, 219.8497
395.2416, 219.0499
395.7237, 218.2729
396.2058, 217.6814
396.6880, 216.7680
397.1701, 214.2940
397.6522, 209.4398
398.1343, 206.8181
398.6164, 207.0431
399.0985, 209.3736
399.5807, 217.6636
400.0628, 228.1777
400.5449, 230.6676
401.0270, 214.2917
401.5091, 189.8918
401.9912, 181.3085
402.4734, 190.9799
402.9555, 201.0535
403.4376, 203.8882
403.9197, 203.1867
404.4018, 204.0189
404.8839, 206.5770
405.3661, 210.6889
405.8482, 217.7430
406.3303, 225.9620
406.8124, 232.7928
407.2945, 237.9045
407.7766, 239.0007
408.2588, 231.5852
408.7409, 215.3742
409.2230, 210.8935
409.7051, 232.9044
410.1872, 250.7342
410.6693, 245.0677
411.1515, 226.3361
411.6336, 215.9753
412.1157, 223.5796
412.5978, 239.7138
413.0799, 244.2867
413.5620, 227.2653
414.0442, 218.5038
414.5263, 221.3443
415.0084, 228.2597
415.4905, 236.6387
415.9726, 245.2818
416.4547, 252.6867
416.9369, 257.4971
417.4190, 260.2782
417.9011, 263.8349
418.3832, 269.4513
418.8653, 272.7119
419.3474, 270.1476
419.8296, 265.3607
420.3117, 261.1257
420.7938, 257.6745
421.2759, 256.6095
421.7580, 262.8705
422.2401, 272.7359
422.7223, 273.1100
423.2044, 260.1493
423.6865, 244.1635
424.1686, 232.3009
424.6507, 224.9651
425.1328, 224.0233
425.6150, 236.4716
426.0971, 248.7325
426.5792, 252.3601
427.0613, 249.9637
427.5434, 248.9484
428.0255, 252.7065
428.5077, 256.1772
428.9898, 249.0379
429.4719, 221.9653
429.9540, 204.1102
430.4361, 198.9004
430.9182, 198.8952
431.4004, 200.8241
431.8825, 204.0677
432.3646, 209.2948
432.8467, 217.8591
433.3288, 227.7013
433.8109, 230.2030
434.2931, 221.3163
434.7752, 214.4193
435.2573, 216.8096
435.7394, 220.3893
436.2215, 217.2543
436.7036, 206.2945
437.1858, 196.0112
437.6679, 192.6103
438.1500, 194.6899
438.6321, 198.9788
439.1142, 205.7536
439.5963, 211.8326
440.0785, 214.3280
440.5606, 214.1610
441.0427, 215.4768
441.5248, 221.9970
442.0069, 225.9329
442.4890, 220.7950
442.9712, 211.3829
443.4533, 206.9945
443.9354, 210.3879
444.4175, 215.4133
444.8996, 213.0893
445.3817, 199.7034
445.8639, 195.2594
446.3460, 206.8903
446.8281, 218.7378
447.3102, 225.2175
447.7923, 227.0691
448.2744, 225.7971
448.7566, 221.8020
449.2387, 217.4099
449.7208, 218.1817
450.2029, 226.0233
450.6850, 230.2922
451.1671, 224.0789
451.6493, 218.4437
452.1314, 222.5175
452.6135, 234.5845
453.0956, 244.5017
453.5777, 245.3650
454.0598, 241.9465
454.5420, 241.3071
455.0241, 243.4545
455.5062, 245.5926
455.9883, 246.1532
456.4704, 246.1102
456.9525, 247.9109
457.4347, 252.1674
457.9168, 256.2668
458.3989, 258.9392
458.8810, 261.6982
459.3631, 267.0934
459.8452, 274.5781
460.3274, 279.9815
460.8095, 279.3116
461.2916, 273.7707
461.7737, 274.1207
462.2558, 285.0263
462.7379, 295.6349
463.2201, 304.7717
463.7022, 312.6646
464.1843, 320.4154
464.6664, 327.8662
465.1485, 332.1341
465.6306, 328.1840
466.1128, 317.5636
466.5949, 311.1303
467.0770, 309.3944
467.5591, 311.5441
468.0412, 319.6370
468.5233, 330.7969
469.0055, 340.4084
469.4876, 347.8093
469.9697, 353.5138
470.4518, 357.3312
470.9339, 359.7446
471.4160, 362.1975
471.8982, 365.0513
472.3803, 366.1903
472.8624, 363.1780
473.3445, 355.6382
473.8266, 348.1227
474.3087, 338.1217
474.7909, 330.9027
475.2730, 329.1823
475.7551, 330.9052
476.2372, 334.5568
476.7193, 339.2994
477.2014, 341.6821
477.6836, 335.0272
478.1657, 317.5141
478.6478, 304.5829
479.1299, 297.3027
479.6120, 294.4244
480.0941, 298.8996
480.5763, 306.4828
481.0584, 308.2620
481.5405, 299.1830
482.0226, 286.7577
482.5047, 277.4475
482.9868, 271.0795
483.4690, 267.5426
483.9511, 267.7667
484.4332, 267.5504
484.9153, 260.7965
485.3974, 245.9549
485.8795, 236.7381
486.3617, 237.2261
486.8438, 239.4371
487.3259, 239.7594
487.8080, 238.6838
488.2901, 238.1805
488.7722, 239.1007
489.2544, 239.4110
489.7365, 234.9197
490.2186, 223.5527
490.7007, 214.0906
491.1828, 206.9148
491.6649, 201.6950
492.1471, 198.9891
492.6292, 198.0903
493.1113, 197.3255
493.5934, 195.4279
494.0755, 194.2757
494.5576, 197.8386
495.0398, 205.4063
495.5219, 209.7922
496.0040, 209.1468
496.4861, 204.3706
496.9682, 194.0403
497.4503, 177.7066
497.9325, 168.6299
498.4146, 174.0700
498.8967, 181.4585
499.3788, 182.8989
499.8609, 180.3679
500.3430, 179.1704
500.8252, 181.6340
501.3073, 185.6683
501.7894, 187.2757
502.2715, 185.0845
502.7536, 184.4203
503.2357, 188.8477
503.7179, 191.3479
504.2000, 187.4491
504.6821, 179.6181
505.1642, 172.8472
505.6463, 168.9712
506.1284, 167.9003
506.6106, 170.7832
507.0927, 177.1462
507.5748, 181.7583
508.0569, 183.0608
508.5390, 182.9760
509.0211, 183.5631
509.5033, 184.7721
509.9854, 185.0555
510.4675, 183.6958
510.9496, 181.9580
511.4317, 179.0680
511.9138, 176.5832
512.3960, 179.0191
512.8781, 187.8320
513.3602, 196.4917
513.8423, 193.6706
514.3245, 175.1475
514.8066, 164.1109
515.2887, 168.0036
515.7708, 171.7872
516.2529, 170.9430
516.7350, 166.5356
517.2172, 159.3183
517.6993, 148.2498
518.1814, 140.2843
518.6635, 146.6852
519.1456, 163.9421
519.6277, 174.2554
520.1099, 173.6178
520.5920, 168.9184
521.0741, 164.3824
521.5562, 160.5106
522.0383, 160.8441
522.5204, 168.6282
523.0026, 176.8805
523.4847, 185.6173
523.9668, 192.2724
524.4489, 192.3861
524.9310, 185.4430
525.4131, 176.4951
525.8953, 171.1301
526.3774, 169.3895
526.8595, 166.5239
527.3416, 159.9644
527.8237, 156.3316
528.3058, 159.2215
528.7880, 164.9234
529.2701, 169.1409
529.7522, 170.8562
530.2343, 173.3091
530.7164, 180.3025
531.1985, 189.3479
531.6807, 195.8788
532.1628, 199.4675
532.6449, 198.5023
533.1270, 190.2488
533.6091, 177.4818
534.0912, 171.6940
534.5734, 179.4513
535.0555, 183.7717
535.5376, 179.1832
536.0197, 173.2070
536.5018, 173.7289
536.9839, 179.5581
537.4661, 182.5194
537.9482, 176.0502
538.4303, 163.3319
538.9124, 154.5851
539.3945, 150.2935
539.8766, 148.3109
540.3588, 149.8733
540.8409, 152.0862
541.3230, 151.7008
541.8051, 149.0354
542.2872, 148.4741
542.7693, 155.1592
543.2515, 161.9449
543.7336, 160.4374
544.2157, 152.7160
544.6978, 146.5218
545.1799, 144.8949
545.6620, 146.9371
546.1442, 152.1377
546.6263, 164.3039
547.1084, 166.9279
547.5905, 149.6965
548.0726, 134.8394
548.5547, 131.6064
549.0369, 136.3410
549.5190, 143.6255
550.0011, 151.8107
550.4832, 157.6512
550.9653, 155.2255
551.4474, 146.0271
551.9296, 140.7925
552.4117, 141.1306
552.8938, 144.7323
553.3759, 152.1748
553.8580, 161.6384
554.3401, 165.7580
554.8223, 161.2120
555.3044, 155.8289
555.7865, 149.9957
556.2686, 145.7312
556.7507, 146.7009
557.2328, 152.4235
557.7150, 157.8687
558.1971, 159.0485
558.6792, 156.2910
559.1613, 150.6754
559.6434, 139.4602
560.1255, 131.5788
560.6077, 130.8859
561.0898, 133.0767
561.5719, 136.0879
562.0540, 139.5144
562.5361, 141.9137
563.0182, 142.5068
563.5004, 141.7817
563.9825, 140.9916
564.4646, 139.6005
564.9467, 132.9906
565.4288, 117.9421
565.9109, 104.6022
566.3931, 110.5618
566.8752, 145.0193
567.3573, 163.3115
567.8394, 155.7064
568.3215, 144.7045
568.8036, 136.4025
569.2858, 130.8041
569.7679, 126.9535
570.2500, 124.5636
570.7321, 123.8400
571.2142, 125.4527
571.6964, 129.0636
572.1785, 133.6952
572.6606, 140.2207
573.1427, 143.6224
573.6248, 139.6631
574.1069, 130.6528
574.5891, 123.4684
575.0712, 117.3595
575.5533, 114.3535
576.0354, 118.5113
576.5175, 123.3517
576.9996, 121.8434
577.4818, 115.1106
577.9639, 109.8437
578.4460, 110.5519
578.9281, 114.7711
579.4102, 115.4450
579.8923, 110.9241
580.3745, 110.1339
580.8566, 117.3783
581.3387, 125.4719
581.8208, 127.6343
582.3029, 126.1314
582.7850, 129.0461
583.2672, 143.7240
583.7493, 157.4791
584.2314, 160.4605
584.7135, 156.4963
585.1956, 152.9878
585.6777, 151.6385
586.1598, 149.2076
586.6419, 141.5549
587.1240, 129.2449
587.6061, 125.2874
588.0883, 138.3970
588.5704, 146.9445
589.0525, 142.6534
589.5346, 135.7375
590.0167, 137.0251
590.4988, 146.1962
590.9810, 150.8893
591.4631, 137.1117
591.9452, 117.9404
592.4273, 113.7054
592.9094, 122.8571
593.3915, 134.6721
593.8737, 146.3218
594.3558, 154.4553
594.8379, 153.1444
595.3200, 138.9742
595.8021, 130.9953
596.2842, 132.6846
596.7664, 135.8096
597.2485, 139.0083
597.7306, 141.2913
598.2127, 141.3618
598.6948, 138.9422
599.1769, 135.6142
599.6591, 132.3150
600.1412, 129.3382
600.6233, 128.5007
601.1054, 130.3592
601.5875, 129.8869
602.0696, 122.6933
602.5518, 113.3925
603.0339, 112.1285
603.5160, 121.4686
603.9981, 129.5281
604.4802, 138.7895
604.9623, 142.9570
605.4445, 132.9915
605.9266, 115.6994
606.4087, 105.6761
606.8908, 109.4008
607.3729, 118.2795
607.8550, 118.2410
608.3372, 109.6115
608.8193, 110.6003
609.3014, 127.5864
609.7835, 140.8982
610.2656, 134.3759
610.7477, 117.4955
611.2299, 112.8006
611.7120, 127.1918
612.1941, 138.3498
612.6762, 136.9195
613.1583, 131.4220
613.6404, 130.2512
614.1226, 132.4049
614.6047, 131.1632
615.0868, 122.3924
615.5689, 110.7764
616.0510, 106.2346
616.5331, 109.7290
617.0153, 114.5518
617.4974, 122.9945
617.9795, 128.4634
618.4616, 122.3573
618.9437, 110.9570
619.4258, 108.0872
619.9080, 120.8012
620.3901, 131.9004
620.8722, 129.8965
621.3543, 123.7395
621.8364, 126.4073
622.3185, 137.1409
622.8007, 144.1728
623.2828, 139.3338
623.7649, 126.8286
624.2470, 117.4686
624.7291, 109.7475
625.2112, 110.9994
625.6934, 132.1107
626.1755, 151.0584
626.6576, 152.0961
627.1397, 141.1681
627.6218, 133.6607
628.1039, 135.4233
628.5861, 137.0830
629.0682, 128.7777
629.5503, 118.6596
630.0324, 122.5105
630.5145, 140.0131
630.9966, 153.9969
631.4788, 151.3336
631.9609, 136.8432
632.4430, 127.3635
632.9251, 124.4217
633.4072, 122.5554
633.8893, 121.9674
634.3715, 121.5483
634.8536, 119.0474
635.3357, 116.1965
635.8178, 118.1115
636.2999, 129.2753
636.7820, 140.2737
637.2642, 146.2470
637.7463, 147.2547
638.2284, 140.4265
638.7105, 126.8724
639.1926, 117.1925
639.6747, 120.1085
640.1569, 131.7140
640.6390, 136.2665
641.1211, 129.3599
641.6032, 126.3617
642.0853, 134.7330
642.5674, 141.9982
643.0496, 139.9380
643.5317, 131.1419
644.0138, 122.8164
644.4959, 115.3556
644.9780, 111.9526
645.4601, 118.4176
645.9423, 128.9807
646.4244, 133.6532
646.9065, 131.4308
647.3886, 127.8147
647.8707, 126.7309
648.3528, 127.3672
648.8350, 126.6716
649.3171, 123.5385
649.7992, 122.0550
650.2813, 122.7176
650.7634, 125.1504
651.2455, 131.5462
651.7277, 139.3582
652.2098, 141.8369
652.6919, 134.0171
653.1740, 127.0376
653.6561, 129.9204
654.1382, 136.7915
654.6204, 138.5552
655.1025, 134.8419
655.5846, 131.4694
656.0667, 132.4297
656.5488, 135.8353
657.0309, 136.3083
657.5131, 133.0260
657.9952, 129.5785
658.4773, 124.1331
658.9594, 121.2441
659.4415, 126.1430
659.9236, 134.8315
660.4058, 138.1763
660.8879, 131.1696
661.3700, 126.9163
661.8521, 136.9112
662.3342, 149.8357
662.8163, 151.2140
663.2985, 142.1280
663.7806, 132.6371
664.2627, 128.4380
664.7448, 127.6327
665.2269, 126.2522
665.7090, 123.9210
666.1912, 124.0906
666.6733, 128.8110
667.1554, 132.8847
667.6375, 132.3840
668.1196, 129.5492
668.6017, 128.3371
669.0839, 129.6358
669.5660, 130.6589
670.0481, 130.1651
670.5302, 129.3204
671.0123, 128.6694
671.4944, 128.5487
671.9766, 129.9503
672.4587, 133.3118
672.9408, 136.6310
673.4229, 136.4281
673.9050, 132.8703
674.3871, 131.3676
674.8693, 133.1861
675.3514, 132.9895
675.8335, 125.4182
676.3156, 116.2364
676.7977, 117.8199
677.2798, 133.4312
677.7620, 143.0863
678.2441, 141.1812
678.7262, 135.6637
679.2083, 127.9976
679.6904, 120.7454
680.1725, 117.7564
680.6547, 119.9694
681.1368, 124.0690
681.6189, 128.1194
682.1010, 131.2846
682.5831, 128.0993
683.0652, 117.9515
683.5474, 116.7331
684.0295, 133.9385
684.5116, 154.5652
684.9937, 156.8396
685.4758, 137.0271
685.9579, 126.8350
686.4401, 134.9569
686.9222, 141.1732
687.4043, 137.0325
687.8864, 130.1982
688.3685, 130.4532
688.8506, 137.5719
689.3328, 141.0861
689.8149, 130.5612
690.2970, 116.0747
690.7791, 113.1938
691.2612, 119.3062
691.7433, 123.1800
692.2255, 121.8540
692.7076, 120.7452
693.1897, 125.3474
693.6718, 134.7950
694.1539, 141.1452
694.6360, 144.8594
695.1182, 144.5180
695.6003, 133.0843
696.0824, 123.8704
696.5645, 128.6975
697.0466, 143.0362
697.5287, 151.8694
698.0109, 149.3739
698.4930, 142.1084
698.9751, 130.5379
699.4572, 118.9262
699.9393, 114.2094
700.4214, 116.5257
700.9036, 122.0749
701.3857, 128.9649
701.8678, 135.3882
702.3499, 137.2417
702.8320, 134.0899
703.3141, 128.2464
703.7963, 115.5647
704.2784, 107.8282
704.7605, 114.3154
705.2426, 129.2987
705.7247, 143.4418
706.2068, 158.4419
706.6890, 165.7333
707.1711, 157.7589
707.6532, 146.4358
708.1353, 137.0995
708.6174, 131.4477
709.0995, 133.3019
709.5817, 143.4011
710.0638, 153.0680
710.5459, 152.1734
711.0280, 143.0000
711.5101, 131.8982
711.9922, 118.5526
712.4744, 114.2292
712.9565, 125.9604
713.4386, 141.2700
713.9207, 143.0236
714.4028, 129.0439
714.8849, 123.2538
715.3671, 133.6620
715.8492, 141.4929
716.3313, 141.4213
716.8134, 138.3867
717.2955, 136.7276
717.7776, 136.6651
718.2598, 135.9983
718.7419, 131.2940
719.2240, 128.6049
719.7061, 138.8303
720.1882, 154.6721
720.6703, 158.5543
721.1525, 148.2172
721.6346, 133.6798
722.1167, 121.3930
722.5988, 112.9021
723.0809, 114.9676
723.5630, 132.1138
724.0452, 141.9176
724.5273, 140.2906
725.0094, 133.9199
725.4915, 119.9624
725.9736, 105.6976
726.4557, 106.9563
726.9379, 132.7313
727.4200, 150.8236
727.9021, 145.3929
728.3842, 135.0686
728.8663, 132.0580
729.3484, 135.2902
729.8306, 141.1713
730.3127, 148.2173
730.7948, 154.2152
731.2769, 157.8705
731.7590, 158.4980
732.2411, 150.6163
732.7233, 134.2329
733.2054, 126.2062
733.6875, 134.0664
734.1696, 147.4520
734.6517, 154.5105
735.1339, 155.1421
735.6160, 151.4698
736.0981, 137.7696
736.5802, 127.4226
737.0623, 124.3226
737.5444, 123.6861
738.0266, 122.5340
738.5087, 120.4914
738.9908, 117.1793
739.4729, 109.6361
739.9550, 105.4652
740.4371, 114.8755
740.9193, 128.7528
741.4014, 132.2441
741.8835, 125.4417
742.3656, 118.0729
742.8477, 115.6616
743.3298, 117.4894
743.8120, 122.9453
744.2941, 132.1373
744.7762, 142.3956
745.2583, 155.7877
745.7404, 162.3968
746.2225, 153.6951
746.7047, 138.0810
747.1868, 131.2077
747.6689, 135.4653
748.1510, 138.7108
748.6331, 137.7170
749.1152, 138.9613
749.5974, 149.3791
750.0795, 160.8970
750.5616, 163.5645
751.0437, 156.4357
751.5258, 146.3527
752.0079, 134.8069
752.4901, 125.1277
752.9722, 122.3290
753.4543, 124.5204
753.9364, 126.7078
754.4185, 127.9143
754.9006, 130.4449
755.3828, 136.4841
755.8649, 144.4061
756.3470, 148.9786
756.8291, 149.9528
757.3112, 148.0959
757.7933, 140.2648
758.2755, 135.3008
758.7576, 142.1641
759.2397, 154.6890
759.7218, 157.9818
760.2039, 148.1291
760.6860, 140.5206
761.1682, 136.8303
761.6503, 136.7179
762.1324, 145.2568
762.6145, 154.9980
763.0966, 152.2555
763.5787, 135.0479
764.0609, 120.3496
764.5430, 123.0919
765.0251, 135.5269
765.5072, 148.3141
765.9893, 160.2991
766.4714, 167.0039
766.9536, 167.2984
767.4357, 164.6482
767.9178, 161.8183
768.3999, 159.0079
768.8820, 156.4930
769.3641, 152.6938
769.8463, 155.5081
770.3284, 172.0647
770.8105, 186.4089
771.2926, 186.3155
771.7747, 176.6581
772.2568, 168.2578
772.7390, 160.2617
773.2211, 156.7748
773.7032, 164.0741
774.1853, 170.6733
774.6674, 168.5164
775.1495, 161.2316
775.6317, 154.0240
776.1138, 148.6187
776.5959, 146.6002
777.0780, 150.1673
777.5601, 157.3060
778.0422, 166.6978
778.5244, 177.1018
779.0065, 184.5686
779.4886, 188.0445
779.9707, 186.5819
780.4528, 177.8442
780.9349, 165.6085
781.4171, 168.2172
781.8992, 191.0785
782.3813, 203.9246
782.8634, 199.6497
783.3455, 190.6806
783.8276, 182.8673
784.3098, 176.6058
784.7919, 172.7388
785.2740, 171.2400
785.7561, 172.0996
786.2382, 178.9015
786.7203, 184.2081
787.2025, 182.7272
787.6846, 178.2055
788.1667, 176.0638
788.6488, 177.2903
789.1309, 178.6001
789.6130, 177.5731
790.0952, 175.7982
790.5773, 173.8385
791.0594, 172.7763
791.5415, 176.3166
792.0236, 184.4828
792.5057, 191.6777
792.9879, 193.3569
793.4700, 192.0369
793.9521, 194.5557
794.4342, 201.1939
794.9163, 205.5505
795.3984, 206.1557
795.8806, 207.6764
796.3627, 213.6317
796.8448, 221.2184
797.3269, 224.3092
797.8090, 220.4652
798.2911, 220.5719
798.7733, 227.5527
799.2554, 234.6437
799.7375, 241.1035
800.2196, 245.9127
800.7017, 247.7635
801.1838, 246.8042
801.6660, 244.8958
802.1481, 239.4285
802.6302, 237.2810
803.1123, 246.1157
803.5944, 258.9814
804.0765, 267.1936
804.5587, 270.2824
805.0408, 271.7776
805.5229, 273.5653
806.0050, 274.4248
806.4871, 270.8406
806.9692, 264.7355
807.4514, 265.4911
807.9335, 273.3873
808.4156, 278.2072
808.8977, 274.8515
809.3798, 271.1645
809.8619, 278.7650
810.3441, 297.6963
810.8262, 306.7233
811.3083, 300.6168
811.7904, 296.0600
812.2725, 297.0089
812.7546, 299.9911
813.2368, 303.1346
813.7189, 306.1288
814.2010, 307.7627
814.6831, 306.5262
815.1652, 306.5654
815.6473, 311.3402
816.1295, 315.1486
816.6116, 312.9123
817.0937, 307.4724
817.5758, 303.6434
818.0579, 302.7838
818.5400, 304.0312
819.0222, 307.7944
819.5043, 312.5305
819.9864, 317.2708
820.4685, 321.3535
820.9506, 321.2498
821.4327, 317.4021
821.9149, 319.4437
822.3970, 336.6261
822.8791, 359.6651
823.3612, 363.0602
823.8433, 347.6776
824.3254, 342.9498
824.8076, 353.9633
825.2897, 362.2138
825.7718, 356.2117
826.2539, 344.0047
826.7360, 340.8120
827.2181, 348.6232
827.7003, 354.9224
828.1824, 361.9832
828.6645, 364.0380
829.1466, 354.1099
829.6287, 342.8957
830.1108, 339.8084
830.5930, 343.9415
831.0751, 347.8039
831.5572, 350.3357
832.0393, 352.0141
832.5214, 352.5947
833.0035, 352.7071
833.4857, 351.0813
833.9678, 349.8025
834.4499, 354.0589
834.9320, 365.7703
835.4141, 376.8579
835.8962, 380.5089
836.3784, 380.1491
836.8605, 378.4176
837.3426, 376.8015
837.8247, 379.2845
838.3068, 386.5625
838.7889, 395.1266
839.2711, 401.8506
839.7532, 408.2316
840.2353, 418.6019
840.7174, 432.8045
841.1995, 447.8563
841.6816, 464.2896
842.1638, 473.7408
842.6459, 469.1859
843.1280, 459.6707
843.6101, 462.5695
844.0922, 479.8392
844.5743, 498.0105
845.0565, 520.8451
845.5386, 538.0471
846.0207, 540.7111
846.5028, 541.7805
846.9849, 556.3542
847.4670, 581.1984
847.9492, 596.6151
848.4313, 595.0510
848.9134, 592.2466
849.3955, 587.9683
849.8776, 586.5170
850.3597, 593.9407
850.8419, 605.2965
851.3240, 612.1107
851.8061, 612.2078
852.2882, 607.6639
852.7703, 596.4421
853.2524, 584.1482
853.7346, 578.8459
854.2167, 575.1846
854.6988, 562.3785
855.1809, 539.8746
855.6630, 516.4241
856.1451, 497.8625
856.6273, 481.3433
857.1094, 461.7923
857.5915, 440.5713
858.0736, 422.7491
858.5557, 408.5792
859.0378, 395.0709
859.5200, 380.7707
860.0021, 367.9464
860.4842, 360.7346
860.9663, 358.3373
861.4484, 348.6862
861.9305, 329.7740
862.4127, 312.5688
862.8948, 298.0598
863.3769, 289.1950
863.8590, 290.6079
864.3411, 298.6183
864.8232, 299.5591
865.3054, 288.7970
865.7875, 280.6722
866.2696, 274.9326
866.7517, 272.1996
867.2338, 277.5786
867.7159, 283.1680
868.1981, 278.2524
868.6802, 262.7248
869.1623, 249.9043
869.6444, 244.8185
870.1265, 240.1843
870.6086, 231.5870
871.0908, 223.9004
871.5729, 222.8784
872.0550, 226.2192
872.5371, 227.5043
873.0192, 224.4267
873.5013, 220.1561
873.9835, 215.5854
874.4656, 211.9570
874.9477, 210.7688
875.4298, 211.5449
875.9119, 215.2188
876.3940, 220.6668
876.8762, 220.0643
877.3583, 204.8011
877.8404, 187.3327
878.3225, 192.6077
878.8046, 212.4673
879.2867, 217.8510
879.7689, 207.3633
880.2510, 199.6817
880.7331, 203.7983
881.2152, 210.5025
881.6973, 206.7427
882.1794, 193.7483
882.6616, 181.6703
883.1437, 169.6346
883.6258, 167.8538
884.1079, 181.3857
884.5900, 195.7297
885.0721, 199.9458
885.5543, 196.4523
886.0364, 192.6447
886.5185, 187.8482
887.0006, 184.7955
887.4827, 185.6314
887.9648, 184.6115
888.4470, 178.3439
888.9291, 170.1692
889.4112, 162.4511
889.8933, 155.3815
890.3754, 154.4998
890.8575, 167.1482
891.3397, 175.7677
891.8218, 173.1353
892.3039, 170.2563
892.7860, 175.7724
893.2681, 185.4648
893.7502, 191.5985
894.2324, 192.9046
894.7145, 189.5698
895.1966, 174.9831
895.6787, 163.2948
896.1608, 166.5366
896.6429, 175.0314
897.1251, 177.0706
897.6072, 172.5564
898.0893, 167.8108
898.5714, 165.4027
899.0535, 164.7201
899.5356, 166.5389
900.0178, 168.8793
900.4999, 168.7507
900.9820, 167.0596
901.4641, 166.6454
901.9462, 168.1535
902.4283, 169.6390
902.9105, 169.6679
903.3926, 168.4384
903.8747, 166.8741
904.3568, 164.2944
904.8389, 155.8744
905.3210, 142.6353
905.8032, 136.9482
906.2853, 145.2580
906.7674, 158.3362
907.2495, 163.6984
907.7316, 162.2991
908.2137, 158.5687
908.6959, 152.4554
909.1780, 149.8251
909.6601, 152.2366
910.1422, 157.1369
910.6243, 163.6385
911.1064, 169.2613
911.5886, 166.4300
912.0707, 153.0998
912.5528, 142.5854
913.0349, 134.3765
913.5170, 131.4038
913.9991, 137.2384
914.4813, 144.3100
914.9634, 143.0844
915.4455, 135.0027
915.9276, 135.5558
916.4097, 153.1074
916.8918, 162.6449
917.3740, 158.2246
917.8561, 151.1902
918.3382, 146.4551
918.8203, 142.6224
919.3024, 137.7638
919.7845, 131.8363
920.2667, 125.3033
920.7488, 111.7511
921.2309, 106.4443
921.7130, 117.6070
922.1951, 133.6094
922.6772, 150.3892
923.1594, 164.5516
923.6415, 169.0103
924.1236, 160.6792
924.6057, 152.1233
925.0878, 147.5589
925.5699, 143.4251
926.0521, 134.9620
926.5342, 127.9260
927.0163, 130.4632
927.4984, 140.9594
927.9805, 150.1053
928.4626, 154.4964
928.9448, 156.5046
929.4269, 159.1185
929.9090, 158.5987
930.3911, 147.0532
930.8732, 131.5483
931.3553, 125.7770
931.8375, 131.3297
932.3196, 136.9499
932.8017, 134.7604
933.2838, 131.3221
933.7659, 134.4508
934.2480, 139.9485
934.7302, 140.7742
935.2123, 137.9474
935.6944, 137.4348
936.1765, 141.0349
936.6586, 142.8468
937.1407, 135.2066
937.6229, 124.3216
938.1050, 120.4793
938.5871, 122.3150
939.0692, 128.7115
939.5513, 137.8011
940.0334, 139.5685
940.5156, 128.5319
940.9977, 116.7407
941.4798, 123.8674
941.9619, 143.2059
942.4440, 149.3974
942.9261, 144.4226
943.4083, 142.6132
943.8904, 146.8225
944.3725, 146.4234
944.8546, 132.8903
945.3367, 115.4783
945.8188, 115.0435
946.3010, 129.7561
946.7831, 133.4723
947.2652, 125.2497
947.7473, 120.9294
948.2294, 125.7183
948.7115, 132.2607
949.1937, 134.0233
949.6758, 132.4600
950.1579, 131.2157
950.6400, 129.6890
951.1221, 137.7473
951.6042, 159.9894
952.0864, 169.8759
952.5685, 153.5355
953.0506, 130.7612
953.5327, 124.6971
954.0148, 132.3464
954.4969, 130.1052
954.9791, 112.5826
955.4612, 106.8236
955.9433, 120.6288
956.4254, 132.0943
956.9075, 128.4373
957.3896, 120.1626
957.8718, 123.4631
958.3539, 138.4785
958.8360, 145.4059
959.3181, 140.0509
959.8002, 136.0927
960.2823, 136.1639
960.7645, 136.3407
961.2466, 132.7005
961.7287, 128.9671
962.2108, 133.8044
962.6929, 150.2807
963.1750, 154.1785
963.6572, 131.7663
964.1393, 118.6855
964.6214, 128.6869
965.1035, 141.3613
965.5856, 141.7302
966.0677, 135.2824
966.5499, 136.2867
967.0320, 149.6753
967.5141, 152.2168
967.9962, 130.3080
968.4783, 115.0427
968.9604, 117.7162
969.4426, 126.1597
969.9247, 133.2714
970.4068, 138.3764
970.8889, 139.8395
971.3710, 135.6351
971.8531, 133.4916
972.3353, 134.6006
972.8174, 137.4804
973.2995, 144.7093
973.7816, 150.9969
974.2637, 149.9410
974.7458, 143.4806
975.2280, 140.1934
975.7101, 143.6205
976.1922, 144.7788
976.6743, 138.1499
977.1564, 133.2869
977.6385, 136.8478
978.1207, 142.8185
978.6028, 143.8515
979.0849, 140.6338
979.5670, 140.1123
980.0491, 147.2525
980.5313, 149.9518
981.0134, 140.2856
981.4955, 130.3794
981.9776, 128.3370
982.4597, 129.2335
982.9418, 125.1353
983.4240, 116.7005
983.9061, 113.7315
984.3882, 124.0662
984.8703, 131.0334
985.3524, 123.7438
985.8345, 116.5479
986.3167, 121.7201
986.7988, 131.4994
987.2809, 132.8470
987.7630, 125.4652
988.2451, 122.7685
988.7272, 133.8367
989.2094, 143.1031
989.6915, 144.3288
990.1736, 141.5043
990.6557, 132.5702
991.1378, 124.1013
991.6199, 129.5057
992.1021, 148.6364
992.5842, 158.2896
993.0663, 139.2583
993.5484, 123.7662
994.0305, 132.9736
994.5126, 145.0660
994.9948, 140.6934
995.4769, 127.4716
995.9590, 119.2103
996.4411, 118.6003
996.9232, 122.2057
997.4053, 134.9879
997.8875, 143.2387
998.3696, 133.7521
998.8517, 123.1495
999.3338, 128.5675
999.8159, 141.9803
1000.298, 147.1474
1000.780, 141.2294
1001.262, 134.2135
1001.744, 129.0240
1002.227, 125.6593
1002.709, 126.4775
1003.191, 126.9871
1003.673, 121.8924
1004.155, 114.0311
1004.637, 108.0292
1005.119, 105.0665
1005.601, 107.3649
1006.083, 121.0658
1006.566, 133.6143
1007.048, 138.5166
1007.530, 139.8890
1008.012, 142.6286
1008.494, 144.1293
1008.976, 136.3354
1009.458, 118.3483
1009.940, 107.2328
1010.422, 118.0654
1010.905, 127.2128
1011.387, 118.5532
1011.869, 107.8861
1012.351, 108.1948
1012.833, 116.7312
1013.315, 129.5749
1013.797, 145.2651
1014.279, 151.9466
1014.762, 137.7278
1015.244, 123.1054
1015.726, 116.4387
1016.208, 113.2947
1016.690, 111.2038
1017.172, 109.4029
1017.654, 105.6990
1018.136, 100.0418
1018.618, 100.7283
1019.101, 117.7589
1019.583, 132.0036
1020.065, 134.7538
1020.547, 133.3716
1021.029, 132.1283
1021.511, 131.1940
1021.993, 129.9286
1022.475, 128.2775
1022.958, 127.2548
1023.440, 127.9190
1023.922, 128.1974
1024.404, 128.5346
1024.886, 127.1532
1025.368, 119.1258
1025.850, 110.4724
1026.332, 112.6782
1026.814, 126.3119
1027.297, 133.5369
1027.779, 121.1196
1028.261, 115.5156
1028.743, 132.4972
1029.225, 147.7907
1029.707, 143.1221
1030.189, 130.1658
1030.671, 126.7781
1031.154, 133.6569
1031.636, 136.2635
1032.118, 129.2818
1032.600, 122.7755
1033.082, 116.6486
1033.564, 113.1894
1034.046, 115.0407
1034.528, 119.2458
1035.010, 122.3425
1035.493, 124.2431
1035.975, 126.1061
1036.457, 128.0961
1036.939, 129.8839
1037.421, 131.5853
1037.903, 132.9431
1038.385, 133.8843
1038.867, 134.4084
1039.349, 134.3667
1039.832, 133.8449
1040.314, 133.5137
1040.796, 132.9238
1041.278, 133.4232
1041.760, 136.0984
1042.242, 138.2787
1042.724, 140.3456
1043.206, 139.9480
1043.689, 133.3517
1044.171, 122.3618
1044.653, 116.0857
1045.135, 116.5201
1045.617, 115.8679
1046.099, 112.6374
1046.581, 111.9423
1047.063, 116.5009
1047.546, 121.9574
1048.028, 124.6728
1048.510, 125.2304
1048.992, 125.6469
1049.474, 126.4446
1049.956, 123.3507
1050.438, 114.1698
1050.920, 110.6820
1051.402, 117.9656
1051.885, 124.1908
1052.367, 119.3937
1052.849, 109.6945
1053.331, 108.7849
1053.813, 116.8835
1054.295, 126.7136
1054.777, 138.8483
1055.259, 146.8420
1055.741, 149.5470
1056.224, 145.3902
1056.706, 132.3708
1057.188, 116.8692
1057.670, 108.9492
1058.152, 108.2236
1058.634, 115.6493
1059.116, 129.9389
1059.598, 131.4433
1060.081, 117.6327
1060.563, 103.1033
1061.045, 94.90554
1061.527, 95.36826
1062.009, 111.8652
1062.491, 135.2180
1062.973, 136.8720
1063.455, 122.9192
1063.938, 117.2337
1064.420, 120.7814
1064.902, 120.0730
1065.384, 110.2312
1065.866, 101.4903
1066.348, 104.0457
1066.830, 112.0936
1067.312, 118.3394
1067.794, 122.3498
1068.276, 122.1864
1068.759, 118.9772
1069.241, 115.5704
1069.723, 113.0742
1070.205, 112.4258
1070.687, 114.2875
1071.169, 118.1938
1071.651, 127.8540
1072.133, 135.8759
1072.616, 129.1964
1073.098, 115.8996
1073.580, 113.3274
1074.062, 121.7450
1074.544, 125.5420
1075.026, 115.2281
1075.508, 108.0886
1075.990, 120.7618
1076.473, 134.0385
1076.955, 131.9983
1077.437, 123.2968
1077.919, 117.6044
1078.401, 115.9124
1078.883, 117.1240
1079.365, 121.9374
1079.847, 124.4125
1080.329, 119.4111
1080.812, 115.8354
1081.294, 116.7332
1081.776, 121.1310
1082.258, 133.4861
1082.740, 146.9996
1083.222, 145.5469
1083.704, 125.3122
1084.186, 112.1137
1084.668, 113.3853
1085.151, 114.3095
1085.633, 111.7061
1086.115, 109.5443
1086.597, 109.3689
1087.079, 111.1392
1087.561, 115.9360
1088.043, 123.3625
1088.525, 124.9949
1089.007, 116.9464
1089.490, 114.4224
1089.972, 120.5720
1090.454, 126.3328
1090.936, 128.4857
1091.418, 128.2151
1091.900, 125.7820
1092.382, 122.9339
1092.864, 128.7467
1093.347, 144.6802
1093.829, 139.3144
1094.311, 109.9469
1094.793, 90.96418
1095.275, 91.73521
1095.757, 97.38235
1096.239, 97.42320
1096.721, 95.93973
1097.203, 101.9716
1097.686, 112.5233
1098.168, 112.1813
1098.650, 104.1399
1099.132, 105.2894
1099.614, 116.4720
1100.096, 123.8025
1100.578, 120.8101
1101.060, 114.6728
1101.542, 111.6505
1102.025, 111.1102
1102.507, 113.3766
1102.989, 116.7423
1103.471, 118.2358
1103.953, 118.1113
1104.435, 117.3616
1104.917, 116.5655
1105.399, 117.6758
1105.882, 123.5914
1106.364, 128.1460
1106.846, 123.2884
1107.328, 118.7907
1107.810, 127.2951
1108.292, 139.2115
1108.774, 138.5565
1109.256, 126.7564
1109.739, 119.3889
1110.221, 122.9537
1110.703, 123.4641
1111.185, 112.7235
1111.667, 103.7033
1112.149, 102.0289
1112.631, 103.7731
1113.113, 107.7237
1113.595, 111.9726
1114.078, 111.8455
1114.560, 106.4569
1115.042, 102.6199
1115.524, 100.8225
1116.006, 99.23721
1116.488, 95.24479
1116.970, 96.86452
1117.452, 111.3721
1117.934, 127.5425
1118.417, 130.1725
1118.899, 122.2007
1119.381, 120.5754
1119.863, 125.8012
1120.345, 133.8811
1120.827, 145.4681
1121.309, 143.5225
1121.791, 122.0024
1122.274, 100.0450
1122.756, 92.35725
1123.238, 94.67143
1123.720, 102.8438
1124.202, 113.6902
1124.684, 113.5018
1125.166, 106.3647
1125.648, 109.3043
1126.130, 122.6504
1126.613, 133.3675
1127.095, 135.5876
1127.577, 131.0073
1128.059, 113.9892
1128.541, 98.87847
1129.023, 106.9539
1129.505, 122.3248
1129.987, 123.8200
1130.469, 116.1759
1130.952, 113.3647
1131.434, 117.4018
1131.916, 118.5771
1132.398, 110.9262
1132.880, 104.1925
1133.362, 100.5047
1133.844, 100.8039
1134.326, 108.9728
1134.809, 118.6955
1135.291, 124.1077
1135.773, 125.3933
1136.255, 123.9953
1136.737, 118.7327
1137.219, 115.5125
1137.701, 115.6649
1138.183, 115.1989
1138.666, 112.3241
1139.148, 111.0450
1139.630, 114.1763
1140.112, 119.0259
1140.594, 122.0944
1141.076, 123.4094
1141.558, 123.3591
1142.040, 121.9904
1142.522, 116.2958
1143.005, 105.9333
1143.487, 103.7680
1143.969, 113.8357
1144.451, 121.6523
1144.933, 115.0802
1145.415, 105.7324
1145.897, 117.0810
1146.379, 137.4660
1146.861, 139.4108
1147.344, 128.3109
1147.826, 114.5564
1148.308, 103.0679
1148.790, 104.9253
1149.272, 123.8757
1149.754, 139.7543
1150.236, 135.8547
1150.718, 126.9692
1151.201, 123.0859
1151.683, 119.5890
1152.165, 110.1536
1152.647, 99.48573
1153.129, 93.98561
1153.611, 94.67480
1154.093, 102.5084
1154.575, 126.8173
1155.057, 136.7856
1155.540, 113.1810
1156.022, 95.67338
1156.504, 97.75735
1156.986, 105.8913
1157.468, 112.6807
1157.950, 117.8414
1158.432, 121.0421
1158.914, 122.2671
1159.396, 118.5625
1159.879, 108.6498
1160.361, 104.5936
1160.843, 108.2222
1161.325, 110.6225
1161.807, 108.2028
1162.289, 106.8557
1162.771, 112.9429
1163.253, 119.9706
1163.736, 113.0168
1164.218, 98.29043
1164.700, 90.19292
1165.182, 89.14262
1165.664, 99.51154
1166.146, 116.8163
1166.628, 120.4213
1167.110, 101.7413
1167.593, 84.72604
1168.075, 90.16353
1168.557, 98.59560
1169.039, 94.63895
1169.521, 89.19015
1170.003, 93.44100
1170.485, 102.1670
1170.967, 106.0480
1171.449, 104.8765
1171.932, 105.3161
1172.414, 110.7268
1172.896, 112.3662
1173.378, 107.3190
1173.860, 102.1041
1174.342, 96.21285
1174.824, 94.19183
1175.306, 100.4259
1175.788, 110.3587
1176.271, 116.5704
1176.753, 119.1655
1177.235, 118.8397
1177.717, 115.5969
1178.199, 108.7631
1178.681, 98.92369
1179.163, 102.6717
1179.645, 124.2645
1180.128, 137.4644
1180.610, 120.4521
1181.092, 96.49933
1181.574, 98.79115
1182.056, 112.7368
1182.538, 118.4426
1183.020, 118.4422
1183.502, 116.6093
1183.984, 114.6751
1184.467, 115.2485
1184.949, 118.9532
1185.431, 122.3133
1185.913, 125.8754
1186.395, 125.8240
1186.877, 118.3657
1187.359, 109.8605
1187.841, 101.6830
1188.323, 96.02882
1188.806, 95.27697
1189.288, 98.73022
1189.770, 104.8025
1190.252, 114.4460
1190.734, 120.7698
1191.216, 123.9481
1191.698, 122.1644
1192.180, 114.2088
1192.663, 108.9572
1193.145, 111.0155
1193.627, 112.4775
1194.109, 103.7532
1194.591, 91.60326
1195.073, 91.73389
1195.555, 99.17323
1196.037, 101.3266
1196.520, 99.96033
1197.002, 102.3908
1197.484, 108.4226
1197.966, 111.2569
1198.448, 107.9800
1198.930, 104.9636
1199.412, 103.4565
1199.894, 106.7842
1200.376, 125.4825
1200.859, 140.5111
1201.341, 131.1998
1201.823, 113.6056
1202.305, 113.3034
1202.787, 127.2454
1203.269, 127.2965
1203.751, 105.8803
1204.233, 97.08570
1204.715, 105.7800
1205.198, 110.7626
1205.680, 106.6055
1206.162, 104.8945
1206.644, 112.6930
1207.126, 120.1085
1207.608, 113.4577
1208.090, 100.2753
1208.572, 102.2866
1209.055, 113.0102
1209.537, 111.9376
1210.019, 102.2729
1210.501, 96.76550
1210.983, 97.43832
1211.465, 100.8464
1211.947, 106.0418
1212.429, 106.2246
1212.911, 87.55275
1213.394, 75.21742
1213.876, 92.17352
1214.358, 111.7711
1214.840, 111.8901
1215.322, 102.8515
1215.804, 101.8563
1216.286, 107.1090
1216.768, 102.8546
1217.250, 82.97977
1217.733, 77.28065
1218.215, 90.09098
1218.697, 99.31091
1219.179, 100.0429
1219.661, 102.9968
1220.143, 114.5487
1220.625, 122.1867
1221.107, 108.9365
1221.590, 87.95415
1222.072, 89.79503
1222.554, 104.1321
1223.036, 108.4722
1223.518, 105.5030
1224.000, 105.3238
1224.482, 108.2189
1224.964, 107.1254
1225.447, 99.25435
1225.929, 92.83132
1226.411, 94.54051
1226.893, 94.66296
1227.375, 84.73288
1227.857, 77.56854
1228.339, 84.11568
1228.821, 94.66489
1229.303, 99.27171
1229.786, 99.30319
1230.268, 98.62064
1230.750, 96.84261
1231.232, 100.1237
1231.714, 109.1376
1232.196, 111.9112
1232.678, 106.8371
1233.160, 101.5920
1233.642, 99.32740
1234.125, 99.56351
1234.607, 102.9203
1235.089, 105.0070
1235.571, 98.09040
1236.053, 88.34814
1236.535, 80.88467
1237.017, 77.78073
1237.499, 85.28835
1237.982, 98.37098
1238.464, 103.3903
1238.946, 97.80225
1239.428, 94.18330
1239.910, 96.84991
1240.392, 98.99635
1240.874, 101.0723
1241.356, 100.4172
1241.839, 93.97923
1242.321, 90.32056
1242.803, 97.70429
1243.285, 105.8866
1243.767, 93.96103
1244.249, 69.72807
1244.731, 72.13849
1245.213, 93.83816
1245.695, 104.5126
1246.177, 103.9318
1246.660, 102.0019
1247.142, 101.1974
1247.624, 99.26862
1248.106, 95.03993
1248.588, 90.09371
1249.070, 81.30959
1249.552, 77.58203
1250.034, 90.45338
1250.517, 103.2244
1250.999, 99.76527
1251.481, 91.10023
1251.963, 94.47225
1252.445, 106.3683
1252.927, 111.1465
1253.409, 107.3882
1253.891, 106.7949
1254.374, 110.0885
1254.856, 106.6608
1255.338, 94.92889
1255.820, 86.29459
1256.302, 85.54510
1256.784, 87.81768
1257.266, 89.16632
1257.748, 90.76595
1258.230, 96.97083
1258.713, 101.4946
1259.195, 93.24582
1259.677, 81.45473
1260.159, 77.67029
1260.641, 81.24587
1261.123, 89.80621
1261.605, 102.7525
1262.087, 106.5358
1262.569, 93.16628
1263.052, 82.11107
1263.534, 70.44070
1264.016, 70.67686
1264.498, 89.03040
1264.980, 109.0030
1265.462, 121.3096
1265.944, 124.7902
1266.426, 115.6768
1266.909, 100.3065
##END=



