##NAMES=Mixite
##RRUFFID=R070503
##IDEAL CHEMISTRY=Cu^2+^_6_Bi^3+^(As^5+^O_4_)_3_(OH)_6_&#183;3H_2_O
##LOCALITY=Hilarion mine, near Kamariza, Lavrion District, Greece
##OWNER=RRUFF
##SOURCE=Bob Jenkins
##DESCRIPTION=Radiating aggregates of bluish-green acicular crystals
##STATUS=The identification of this mineral is confirmed by single-crystal X-ray diffraction and chemical analysis.
##URL=rruff.info/R070503
##MEASURED CHEMISTRY=(Cu_5.73_Ca_0.22_Zn_0.06_Fe_0.01_)_Σ=6.02_(Bi_0.52_Ca_0.48_)_Σ=1.00_(AsO_4_)_2.86_(OH)_6_·3.58H_2_O
137.6203, 1419.994
138.1024, 1453.456
138.5845, 1491.668
139.0667, 1529.355
139.5488, 1567.449
140.0309, 1607.018
140.5130, 1633.453
140.9951, 1640.977
141.4772, 1641.385
141.9594, 1657.654
142.4415, 1696.586
142.9236, 1737.163
143.4057, 1770.674
143.8878, 1792.746
144.3699, 1818.684
144.8521, 1848.628
145.3342, 1882.608
145.8163, 1920.192
146.2984, 1966.685
146.7805, 2011.030
147.2626, 2047.556
147.7448, 2068.241
148.2269, 2093.242
148.7090, 2124.930
149.1911, 2163.250
149.6732, 2201.141
150.1554, 2237.695
150.6375, 2274.606
151.1196, 2312.141
151.6017, 2351.306
152.0838, 2390.823
152.5659, 2429.187
153.0481, 2466.040
153.5302, 2507.864
154.0123, 2561.246
154.4944, 2617.480
154.9765, 2667.529
155.4586, 2706.619
155.9408, 2742.860
156.4229, 2776.689
156.9050, 2794.811
157.3871, 2805.603
157.8692, 2833.701
158.3513, 2866.436
158.8335, 2882.371
159.3156, 2856.092
159.7977, 2828.765
160.2798, 2819.620
160.7619, 2838.258
161.2440, 2859.251
161.7262, 2876.950
162.2083, 2891.610
162.6904, 2903.683
163.1725, 2914.188
163.6546, 2921.628
164.1367, 2923.589
164.6189, 2908.995
165.1010, 2903.449
165.5831, 2925.493
166.0652, 2969.001
166.5473, 3009.287
167.0294, 3027.301
167.5116, 3038.131
167.9937, 3055.731
168.4758, 3096.322
168.9579, 3134.173
169.4400, 3151.484
169.9221, 3149.479
170.4043, 3141.131
170.8864, 3133.769
171.3685, 3125.338
171.8506, 3112.860
172.3327, 3093.588
172.8148, 3070.941
173.2970, 3047.146
173.7791, 3022.205
174.2612, 2997.920
174.7433, 2979.898
175.2254, 2963.952
175.7076, 2941.385
176.1897, 2898.573
176.6718, 2851.022
177.1539, 2819.992
177.6360, 2808.661
178.1181, 2801.505
178.6003, 2783.218
179.0824, 2755.943
179.5645, 2727.801
180.0466, 2702.221
180.5287, 2678.268
181.0108, 2654.276
181.4930, 2629.493
181.9751, 2605.712
182.4572, 2584.752
182.9393, 2566.554
183.4214, 2552.206
183.9035, 2548.081
184.3857, 2548.642
184.8678, 2537.199
185.3499, 2507.975
185.8320, 2471.345
186.3141, 2444.387
186.7962, 2426.593
187.2784, 2413.172
187.7605, 2400.235
188.2426, 2388.474
188.7247, 2381.875
189.2068, 2384.202
189.6889, 2389.554
190.1711, 2385.762
190.6532, 2372.866
191.1353, 2351.330
191.6174, 2315.766
192.0995, 2268.685
192.5816, 2229.874
193.0638, 2206.372
193.5459, 2194.244
194.0280, 2182.915
194.5101, 2173.572
194.9922, 2158.201
195.4743, 2121.763
195.9565, 2065.023
196.4386, 2019.894
196.9207, 1999.064
197.4028, 1998.763
197.8849, 1997.390
198.3671, 1996.155
198.8492, 1990.276
199.3313, 1971.131
199.8134, 1937.109
200.2955, 1905.583
200.7776, 1883.133
201.2598, 1869.193
201.7419, 1851.690
202.2240, 1828.491
202.7061, 1805.484
203.1882, 1792.149
203.6703, 1790.197
204.1525, 1788.540
204.6346, 1782.203
205.1167, 1770.607
205.5988, 1762.636
206.0809, 1758.735
206.5630, 1757.805
207.0452, 1758.799
207.5273, 1762.689
208.0094, 1765.128
208.4915, 1763.168
208.9736, 1755.431
209.4557, 1751.194
209.9379, 1748.932
210.4200, 1751.560
210.9021, 1767.595
211.3842, 1802.307
211.8663, 1836.388
212.3484, 1859.326
212.8306, 1867.767
213.3127, 1879.379
213.7948, 1894.400
214.2769, 1912.963
214.7590, 1936.414
215.2411, 1966.755
215.7233, 1997.227
216.2054, 2023.509
216.6875, 2043.675
217.1696, 2065.710
217.6517, 2089.593
218.1338, 2115.792
218.6160, 2146.560
219.0981, 2185.931
219.5802, 2223.051
220.0623, 2249.373
220.5444, 2257.988
221.0265, 2275.220
221.5087, 2304.463
221.9908, 2344.014
222.4729, 2385.684
222.9550, 2432.475
223.4371, 2477.407
223.9192, 2516.989
224.4014, 2550.310
224.8835, 2579.035
225.3656, 2603.594
225.8477, 2623.800
226.3298, 2636.957
226.8119, 2642.973
227.2941, 2642.210
227.7762, 2634.880
228.2583, 2621.312
228.7404, 2600.464
229.2225, 2571.281
229.7046, 2534.410
230.1868, 2494.558
230.6689, 2453.246
231.1510, 2407.613
231.6331, 2353.952
232.1152, 2287.142
232.5974, 2223.656
233.0795, 2165.656
233.5616, 2113.025
234.0437, 2058.400
234.5258, 1995.665
235.0079, 1937.266
235.4901, 1894.390
235.9722, 1875.972
236.4543, 1855.179
236.9364, 1825.140
237.4185, 1786.374
237.9006, 1760.618
238.3828, 1755.057
238.8649, 1754.696
239.3470, 1745.307
239.8291, 1717.093
240.3112, 1698.413
240.7933, 1696.014
241.2755, 1709.691
241.7576, 1723.616
242.2397, 1741.459
242.7218, 1755.653
243.2039, 1757.787
243.6860, 1739.089
244.1682, 1725.272
244.6503, 1722.996
245.1324, 1732.476
245.6145, 1735.457
246.0966, 1727.262
246.5787, 1717.472
247.0609, 1715.786
247.5430, 1726.864
248.0251, 1737.116
248.5072, 1744.829
248.9893, 1750.008
249.4714, 1750.759
249.9536, 1747.379
250.4357, 1739.266
250.9178, 1724.748
251.3999, 1699.709
251.8820, 1677.001
252.3641, 1659.005
252.8463, 1645.916
253.3284, 1636.268
253.8105, 1633.814
254.2926, 1630.760
254.7747, 1618.978
255.2568, 1595.409
255.7390, 1569.342
256.2211, 1540.457
256.7032, 1508.852
257.1853, 1484.545
257.6674, 1469.017
258.1495, 1459.277
258.6317, 1453.224
259.1138, 1452.930
259.5959, 1451.532
260.0780, 1448.094
260.5601, 1442.572
261.0422, 1432.857
261.5244, 1416.501
262.0065, 1399.273
262.4886, 1387.685
262.9707, 1383.651
263.4528, 1379.688
263.9349, 1373.563
264.4171, 1365.297
264.8992, 1360.751
265.3813, 1360.498
265.8634, 1362.916
266.3455, 1366.301
266.8276, 1370.334
267.3098, 1376.799
267.7919, 1388.145
268.2740, 1403.657
268.7561, 1409.794
269.2382, 1402.726
269.7203, 1393.142
270.2025, 1392.189
270.6846, 1402.459
271.1667, 1410.622
271.6488, 1412.947
272.1309, 1410.251
272.6130, 1411.115
273.0952, 1416.178
273.5773, 1423.338
274.0594, 1430.610
274.5415, 1437.787
275.0236, 1446.196
275.5057, 1456.042
275.9879, 1467.322
276.4700, 1481.970
276.9521, 1502.582
277.4342, 1518.890
277.9163, 1519.071
278.3984, 1501.403
278.8806, 1485.241
279.3627, 1473.693
279.8448, 1466.724
280.3269, 1466.092
280.8090, 1473.714
281.2911, 1480.105
281.7733, 1476.277
282.2554, 1461.987
282.7375, 1446.143
283.2196, 1428.816
283.7017, 1411.840
284.1838, 1402.434
284.6660, 1401.394
285.1481, 1402.428
285.6302, 1401.083
286.1123, 1397.421
286.5944, 1391.951
287.0765, 1383.803
287.5587, 1374.775
288.0408, 1370.639
288.5229, 1371.776
289.0050, 1371.977
289.4871, 1365.670
289.9692, 1353.867
290.4514, 1342.160
290.9335, 1330.358
291.4156, 1320.575
291.8977, 1319.566
292.3798, 1326.964
292.8619, 1333.091
293.3441, 1327.764
293.8262, 1314.807
294.3083, 1309.458
294.7904, 1316.161
295.2726, 1326.875
295.7547, 1326.151
296.2368, 1315.636
296.7189, 1309.167
297.2010, 1320.524
297.6831, 1342.410
298.1653, 1357.072
298.6474, 1360.431
299.1295, 1360.779
299.6116, 1370.208
300.0937, 1386.599
300.5758, 1401.072
301.0580, 1403.505
301.5401, 1401.677
302.0222, 1409.926
302.5043, 1431.599
302.9864, 1456.209
303.4685, 1471.637
303.9507, 1480.801
304.4328, 1491.661
304.9149, 1510.087
305.3970, 1531.780
305.8791, 1552.778
306.3612, 1572.907
306.8434, 1590.105
307.3255, 1600.954
307.8076, 1607.382
308.2897, 1613.392
308.7718, 1620.844
309.2539, 1628.638
309.7361, 1633.923
310.2182, 1635.907
310.7003, 1642.960
311.1824, 1665.959
311.6645, 1696.608
312.1466, 1722.546
312.6288, 1736.908
313.1109, 1746.577
313.5930, 1754.910
314.0751, 1762.108
314.5572, 1770.532
315.0393, 1780.514
315.5215, 1792.739
316.0036, 1807.901
316.4857, 1833.408
316.9678, 1855.798
317.4499, 1869.044
317.9320, 1873.306
318.4142, 1873.298
318.8963, 1869.460
319.3784, 1862.801
319.8605, 1854.060
320.3426, 1844.997
320.8247, 1832.249
321.3069, 1813.815
321.7890, 1790.288
322.2711, 1765.954
322.7532, 1742.369
323.2353, 1717.891
323.7174, 1691.506
324.1996, 1661.651
324.6817, 1631.334
325.1638, 1603.348
325.6459, 1575.928
326.1280, 1542.851
326.6101, 1492.895
327.0923, 1445.078
327.5744, 1408.676
328.0565, 1392.984
328.5386, 1375.257
329.0207, 1354.301
329.5028, 1331.304
329.9850, 1308.656
330.4671, 1290.972
330.9492, 1268.835
331.4313, 1237.016
331.9134, 1187.085
332.3955, 1149.245
332.8777, 1128.221
333.3598, 1117.151
333.8419, 1104.550
334.3240, 1089.927
334.8061, 1074.401
335.2882, 1057.409
335.7704, 1038.054
336.2525, 1023.289
336.7346, 1015.863
337.2167, 1009.695
337.6988, 995.8397
338.1809, 970.6176
338.6631, 949.2291
339.1452, 937.2601
339.6273, 933.9279
340.1094, 925.7814
340.5915, 911.2773
341.0736, 895.5396
341.5558, 884.7450
342.0379, 879.3915
342.5200, 872.0095
343.0021, 860.2633
343.4842, 845.6458
343.9663, 832.7222
344.4485, 821.5543
344.9306, 812.4283
345.4127, 806.7347
345.8948, 804.0430
346.3769, 800.4247
346.8590, 794.7806
347.3412, 788.6637
347.8233, 785.8846
348.3054, 786.2399
348.7875, 786.1992
349.2696, 782.3610
349.7517, 776.3173
350.2339, 772.3566
350.7160, 771.1928
351.1981, 771.5628
351.6802, 773.0911
352.1623, 775.1538
352.6444, 775.4296
353.1266, 770.4013
353.6087, 763.6258
354.0908, 760.6630
354.5729, 762.2034
355.0550, 764.5445
355.5371, 764.4645
356.0193, 762.9328
356.5014, 761.7515
356.9835, 760.6137
357.4656, 760.9366
357.9477, 766.4424
358.4298, 776.9514
358.9120, 782.5978
359.3941, 770.1069
359.8762, 752.5657
360.3583, 743.7380
360.8404, 756.6572
361.3225, 771.6850
361.8047, 779.7098
362.2868, 781.8621
362.7689, 784.4595
363.2510, 789.7275
363.7331, 796.3357
364.2152, 803.5898
364.6974, 813.4325
365.1795, 820.7715
365.6616, 821.1916
366.1437, 818.0112
366.6258, 820.1100
367.1079, 836.4583
367.5901, 852.1996
368.0722, 859.8944
368.5543, 850.3036
369.0364, 851.6569
369.5185, 875.3897
370.0006, 907.6913
370.4828, 927.6132
370.9649, 923.6146
371.4470, 921.4631
371.9291, 928.4969
372.4112, 946.5603
372.8933, 960.4013
373.3755, 965.6190
373.8576, 970.6034
374.3397, 985.0522
374.8218, 1013.942
375.3039, 1038.770
375.7861, 1054.123
376.2682, 1061.719
376.7503, 1077.048
377.2324, 1102.820
377.7145, 1129.054
378.1967, 1146.142
378.6788, 1152.483
379.1609, 1167.994
379.6430, 1198.334
380.1251, 1235.840
380.6072, 1263.017
381.0894, 1279.328
381.5715, 1292.481
382.0536, 1305.410
382.5357, 1318.698
383.0178, 1334.849
383.4999, 1354.540
383.9821, 1375.862
384.4642, 1396.873
384.9463, 1417.739
385.4284, 1437.709
385.9105, 1454.868
386.3926, 1471.750
386.8748, 1495.374
387.3569, 1526.178
387.8390, 1552.946
388.3211, 1562.245
388.8032, 1561.669
389.2853, 1564.202
389.7675, 1579.773
390.2496, 1594.588
390.7317, 1593.304
391.2138, 1579.240
391.6959, 1569.309
392.1780, 1577.474
392.6602, 1591.434
393.1423, 1600.370
393.6244, 1600.922
394.1065, 1598.688
394.5886, 1595.030
395.0707, 1590.267
395.5529, 1585.050
396.0350, 1582.328
396.5171, 1576.902
396.9992, 1566.316
397.4813, 1549.872
397.9634, 1530.357
398.4456, 1503.670
398.9277, 1475.556
399.4098, 1452.579
399.8919, 1444.768
400.3740, 1431.619
400.8561, 1405.039
401.3383, 1365.275
401.8204, 1339.624
402.3025, 1335.975
402.7846, 1338.434
403.2667, 1336.032
403.7488, 1326.537
404.2310, 1316.923
404.7131, 1304.365
405.1952, 1293.290
405.6773, 1299.206
406.1594, 1327.037
406.6415, 1356.910
407.1237, 1375.737
407.6058, 1381.962
408.0879, 1402.980
408.5700, 1442.137
409.0521, 1489.880
409.5342, 1532.311
410.0164, 1569.436
410.4985, 1605.894
410.9806, 1641.674
411.4627, 1678.491
411.9448, 1721.861
412.4269, 1772.096
412.9091, 1823.989
413.3912, 1872.188
413.8733, 1917.729
414.3554, 1962.076
414.8375, 2004.756
415.3196, 2046.848
415.8018, 2090.559
416.2839, 2134.739
416.7660, 2176.770
417.2481, 2218.006
417.7302, 2253.822
418.2123, 2278.156
418.6945, 2287.775
419.1766, 2294.285
419.6587, 2309.423
420.1408, 2324.674
420.6229, 2326.784
421.1050, 2300.752
421.5872, 2270.116
422.0693, 2245.094
422.5514, 2226.612
423.0335, 2204.274
423.5156, 2175.729
423.9977, 2142.356
424.4799, 2104.601
424.9620, 2052.585
425.4441, 2009.072
425.9262, 1983.198
426.4083, 1968.246
426.8904, 1937.300
427.3726, 1876.585
427.8547, 1816.295
428.3368, 1769.507
428.8189, 1739.772
429.3010, 1710.971
429.7831, 1684.896
430.2653, 1657.756
430.7474, 1622.582
431.2295, 1577.761
431.7116, 1532.638
432.1937, 1488.176
432.6758, 1445.417
433.1580, 1411.821
433.6401, 1388.028
434.1222, 1369.390
434.6043, 1352.919
435.0864, 1338.381
435.5685, 1324.679
436.0507, 1311.844
436.5328, 1299.148
437.0149, 1284.118
437.4970, 1267.712
437.9791, 1254.558
438.4612, 1244.386
438.9434, 1240.401
439.4255, 1252.071
439.9076, 1282.473
440.3897, 1307.515
440.8718, 1298.724
441.3539, 1274.617
441.8361, 1261.146
442.3182, 1273.073
442.8003, 1293.737
443.2824, 1315.804
443.7645, 1339.358
444.2466, 1365.711
444.7288, 1400.368
445.2109, 1434.508
445.6930, 1461.464
446.1751, 1472.507
446.6572, 1489.564
447.1393, 1515.729
447.6215, 1549.833
448.1036, 1589.472
448.5857, 1648.139
449.0678, 1696.443
449.5499, 1721.042
450.0320, 1716.877
450.5142, 1737.238
450.9963, 1792.487
451.4784, 1859.594
451.9605, 1916.815
452.4426, 1962.069
452.9247, 2008.817
453.4069, 2060.878
453.8890, 2115.578
454.3711, 2161.870
454.8532, 2198.820
455.3353, 2238.455
455.8174, 2289.073
456.2996, 2349.009
456.7817, 2407.080
457.2638, 2462.529
457.7459, 2516.486
458.2281, 2569.259
458.7102, 2621.509
459.1923, 2677.026
459.6744, 2733.842
460.1565, 2796.865
460.6386, 2874.348
461.1208, 2964.969
461.6029, 3052.939
462.0850, 3114.901
462.5671, 3176.833
463.0492, 3265.331
463.5313, 3398.973
464.0135, 3532.461
464.4956, 3635.448
464.9777, 3725.719
465.4598, 3831.291
465.9419, 3978.305
466.4240, 4124.683
466.9062, 4252.414
467.3883, 4358.018
467.8704, 4469.759
468.3525, 4590.180
468.8346, 4717.490
469.3167, 4853.789
469.7989, 5013.211
470.2810, 5154.035
470.7631, 5271.580
471.2452, 5369.726
471.7273, 5460.676
472.2094, 5544.638
472.6916, 5621.906
473.1737, 5700.334
473.6558, 5779.945
474.1379, 5821.391
474.6200, 5824.300
475.1021, 5793.247
475.5843, 5728.672
476.0664, 5632.813
476.5485, 5518.095
477.0306, 5384.997
477.5127, 5240.055
477.9948, 5094.982
478.4770, 4948.608
478.9591, 4794.846
479.4412, 4618.056
479.9233, 4435.841
480.4054, 4270.669
480.8875, 4126.114
481.3697, 3995.505
481.8518, 3880.183
482.3339, 3775.031
482.8160, 3673.264
483.2981, 3574.406
483.7802, 3475.947
484.2624, 3378.091
484.7445, 3280.430
485.2266, 3186.196
485.7087, 3096.011
486.1908, 3009.146
486.6729, 2926.136
487.1551, 2846.708
487.6372, 2770.450
488.1193, 2694.973
488.6014, 2624.409
489.0835, 2564.038
489.5656, 2519.292
490.0478, 2470.808
490.5299, 2412.007
491.0120, 2344.327
491.4941, 2280.559
491.9762, 2219.844
492.4583, 2164.399
492.9405, 2117.861
493.4226, 2078.712
493.9047, 2038.348
494.3868, 1994.661
494.8689, 1951.654
495.3510, 1912.553
495.8332, 1877.848
496.3153, 1848.697
496.7974, 1830.940
497.2795, 1815.797
497.7616, 1792.711
498.2437, 1762.076
498.7259, 1732.299
499.2080, 1706.197
499.6901, 1684.162
500.1722, 1666.995
500.6543, 1657.590
501.1364, 1647.850
501.6186, 1631.762
502.1007, 1613.991
502.5828, 1602.991
503.0649, 1610.472
503.5470, 1614.470
504.0291, 1607.485
504.5113, 1588.935
504.9934, 1573.308
505.4755, 1563.325
505.9576, 1553.169
506.4397, 1537.758
506.9218, 1514.509
507.4040, 1495.780
507.8861, 1483.732
508.3682, 1475.017
508.8503, 1464.632
509.3324, 1452.736
509.8145, 1435.105
510.2967, 1405.272
510.7788, 1368.950
511.2609, 1345.760
511.7430, 1335.721
512.2252, 1328.691
512.7073, 1316.765
513.1894, 1301.907
513.6715, 1287.477
514.1536, 1274.129
514.6357, 1261.445
515.1179, 1247.744
515.6000, 1234.500
516.0821, 1224.870
516.5642, 1218.897
517.0463, 1217.805
517.5284, 1223.965
518.0106, 1237.392
518.4927, 1249.986
518.9748, 1260.627
519.4569, 1269.328
519.9390, 1275.683
520.4211, 1274.197
520.9033, 1279.735
521.3854, 1298.473
521.8675, 1321.202
522.3496, 1328.348
522.8317, 1311.506
523.3138, 1303.692
523.7960, 1317.269
524.2781, 1348.817
524.7602, 1375.126
525.2423, 1396.366
525.7244, 1412.495
526.2065, 1419.047
526.6887, 1419.484
527.1708, 1430.036
527.6529, 1454.841
528.1350, 1481.834
528.6171, 1500.019
529.0992, 1510.054
529.5814, 1513.322
530.0635, 1508.145
530.5456, 1498.248
531.0277, 1484.004
531.5098, 1466.364
531.9919, 1451.250
532.4741, 1444.588
532.9562, 1438.732
533.4383, 1428.441
533.9204, 1411.055
534.4025, 1394.101
534.8846, 1378.598
535.3668, 1364.088
535.8489, 1350.957
536.3310, 1343.415
536.8131, 1330.078
537.2952, 1309.355
537.7773, 1281.373
538.2595, 1242.248
538.7416, 1185.223
539.2237, 1138.552
539.7058, 1126.090
540.1879, 1144.251
540.6700, 1145.184
541.1522, 1126.128
541.6343, 1099.424
542.1164, 1077.432
542.5985, 1059.040
543.0806, 1040.920
543.5627, 1021.455
544.0449, 1002.786
544.5270, 986.6031
545.0091, 972.8657
545.4912, 961.9709
545.9733, 957.9056
546.4554, 953.7847
546.9376, 943.5798
547.4197, 926.1523
547.9018, 912.8407
548.3839, 909.8007
548.8660, 910.4166
549.3481, 909.6307
549.8303, 908.5883
550.3124, 903.8441
550.7945, 892.5443
551.2766, 878.6326
551.7587, 870.3715
552.2408, 869.4800
552.7230, 869.3685
553.2051, 868.0953
553.6872, 865.7911
554.1693, 863.5051
554.6514, 861.3002
555.1335, 858.5225
555.6157, 851.9977
556.0978, 844.2979
556.5799, 845.8618
557.0620, 860.3475
557.5441, 873.9431
558.0262, 871.1716
558.5084, 857.1640
558.9905, 841.8758
559.4726, 826.0445
559.9547, 812.8587
560.4368, 803.9795
560.9189, 799.3440
561.4011, 798.2112
561.8832, 807.5287
562.3653, 814.4382
562.8474, 811.8842
563.3295, 795.8528
563.8116, 781.3228
564.2938, 767.0975
564.7759, 755.4003
565.2580, 748.9319
565.7401, 750.1105
566.2222, 749.2692
566.7043, 745.7916
567.1865, 739.0143
567.6686, 725.6772
568.1507, 705.4596
568.6328, 686.8397
569.1149, 672.6997
569.5970, 663.0361
570.0792, 660.6243
570.5613, 665.1107
571.0434, 667.2230
571.5255, 657.7240
572.0076, 642.6366
572.4897, 628.9253
572.9719, 617.7967
573.4540, 608.9050
573.9361, 603.1326
574.4182, 599.2910
574.9003, 595.7305
575.3824, 594.7083
575.8646, 591.0350
576.3467, 580.2932
576.8288, 564.7329
577.3109, 556.8791
577.7930, 563.1447
578.2751, 567.9301
578.7573, 563.4321
579.2394, 548.2862
579.7215, 539.5059
580.2036, 538.7159
580.6857, 539.3563
581.1678, 533.5247
581.6500, 522.3448
582.1321, 514.4955
582.6142, 512.3377
583.0963, 512.4504
583.5784, 510.1666
584.0605, 506.3555
584.5427, 503.3680
585.0248, 502.5958
585.5069, 502.9312
585.9890, 503.4049
586.4711, 504.1040
586.9532, 505.8644
587.4354, 510.5866
587.9175, 515.2913
588.3996, 518.8056
588.8817, 522.5593
589.3638, 520.5500
589.8459, 505.9942
590.3281, 490.2602
590.8102, 485.9526
591.2923, 498.7492
591.7744, 506.2063
592.2565, 503.6140
592.7386, 495.2802
593.2208, 492.0894
593.7029, 494.1692
594.1850, 496.3553
594.6671, 496.0979
595.1492, 494.2507
595.6313, 492.5668
596.1135, 491.0581
596.5956, 489.9346
597.0777, 488.1670
597.5598, 487.4230
598.0419, 490.5393
598.5240, 499.5665
599.0062, 506.5066
599.4883, 505.4676
599.9704, 501.2367
600.4525, 499.4188
600.9346, 507.9238
601.4167, 510.7292
601.8989, 502.2027
602.3810, 486.6311
602.8631, 475.8472
603.3452, 470.1523
603.8273, 468.7809
604.3094, 473.1730
604.7916, 482.6079
605.2737, 486.7338
605.7558, 485.1680
606.2379, 481.1174
606.7200, 475.1416
607.2021, 468.6647
607.6843, 466.6814
608.1664, 470.4144
608.6485, 475.3947
609.1306, 478.5331
609.6127, 479.8634
610.0948, 479.4897
610.5770, 474.2804
611.0591, 470.8194
611.5412, 474.9052
612.0233, 483.2484
612.5054, 486.4697
612.9875, 476.2025
613.4697, 467.1413
613.9518, 464.0384
614.4339, 466.9308
614.9160, 470.2389
615.3981, 474.1914
615.8802, 478.0628
616.3624, 482.3854
616.8445, 487.2542
617.3266, 486.6224
617.8087, 479.2557
618.2908, 470.0461
618.7729, 463.9694
619.2551, 460.8318
619.7372, 460.2723
620.2193, 463.0825
620.7014, 466.9915
621.1835, 469.8923
621.6656, 472.1954
622.1478, 474.9638
622.6299, 480.1290
623.1120, 484.4856
623.5941, 486.4092
624.0762, 485.8831
624.5583, 484.6775
625.0405, 482.2201
625.5226, 479.8573
626.0047, 477.5027
626.4868, 473.8959
626.9689, 477.6737
627.4510, 493.2499
627.9332, 507.0163
628.4153, 498.9525
628.8974, 470.9377
629.3795, 454.8132
629.8616, 458.2703
630.3438, 470.4520
630.8259, 479.3200
631.3080, 484.8452
631.7901, 486.9619
632.2722, 481.0207
632.7543, 475.4865
633.2365, 479.4848
633.7186, 490.3461
634.2007, 495.4252
634.6828, 480.6416
635.1649, 467.4361
635.6470, 468.3515
636.1292, 487.7652
636.6113, 499.1572
637.0934, 498.9834
637.5755, 495.1136
638.0576, 494.0021
638.5397, 496.6922
639.0219, 493.7325
639.5040, 482.5667
639.9861, 470.5279
640.4682, 469.1339
640.9503, 476.5234
641.4324, 483.8020
641.9146, 488.2292
642.3967, 491.2425
642.8788, 495.0709
643.3609, 498.8130
643.8430, 500.0782
644.3251, 491.5733
644.8073, 485.7173
645.2894, 491.9308
645.7715, 510.0897
646.2536, 522.0757
646.7357, 521.1379
647.2178, 517.3692
647.7000, 515.0531
648.1821, 514.8460
648.6642, 513.2720
649.1463, 510.2084
649.6284, 506.0947
650.1105, 499.9135
650.5927, 492.1810
651.0748, 489.3866
651.5569, 493.3060
652.0390, 500.4185
652.5211, 507.7684
653.0032, 514.7241
653.4854, 519.7802
653.9675, 521.6080
654.4496, 522.0898
654.9317, 523.3969
655.4138, 524.4962
655.8959, 522.0895
656.3781, 509.1834
656.8602, 498.4898
657.3423, 495.7843
657.8244, 501.0781
658.3065, 503.8960
658.7886, 502.3259
659.2708, 501.6143
659.7529, 505.9967
660.2350, 515.7382
660.7171, 521.6837
661.1992, 523.1148
661.6813, 523.8038
662.1635, 529.1747
662.6456, 536.8907
663.1277, 540.9290
663.6099, 539.2925
664.0920, 535.3933
664.5741, 529.7997
665.0562, 524.2568
665.5383, 521.5869
666.0204, 524.4554
666.5026, 528.4556
666.9847, 533.0154
667.4668, 537.8472
667.9489, 541.7786
668.4310, 544.9580
668.9131, 547.1066
669.3953, 548.2462
669.8774, 548.3176
670.3595, 546.5318
670.8416, 542.7257
671.3237, 538.1148
671.8058, 530.9780
672.2880, 523.9091
672.7701, 525.0366
673.2522, 535.2510
673.7343, 546.3635
674.2164, 552.6049
674.6985, 555.9617
675.1807, 558.6272
675.6628, 561.0883
676.1449, 562.7660
676.6270, 563.5794
677.1091, 563.4542
677.5912, 562.1249
678.0734, 557.1596
678.5555, 555.4070
679.0376, 559.1642
679.5197, 565.6907
680.0018, 568.3640
680.4839, 566.9998
680.9661, 563.9164
681.4482, 558.6091
681.9303, 553.0541
682.4124, 551.8725
682.8945, 554.6410
683.3766, 558.6095
683.8588, 564.3431
684.3409, 569.0026
684.8230, 568.5157
685.3051, 562.6469
685.7872, 559.7061
686.2693, 566.7084
686.7515, 574.5478
687.2336, 576.9871
687.7157, 571.7659
688.1978, 567.7983
688.6799, 565.4093
689.1620, 563.8130
689.6442, 561.9300
690.1263, 559.6904
690.6084, 559.7023
691.0905, 562.9749
691.5726, 566.6599
692.0547, 566.9327
692.5369, 564.5307
693.0190, 561.2730
693.5011, 556.6729
693.9832, 552.9022
694.4653, 551.6868
694.9474, 552.5001
695.4296, 554.0889
695.9117, 557.8542
696.3938, 560.4926
696.8759, 561.0007
697.3580, 559.5588
697.8401, 557.0283
698.3223, 553.4202
698.8044, 548.5013
699.2865, 540.3096
699.7686, 529.9407
700.2507, 529.0942
700.7328, 538.1213
701.2150, 548.0845
701.6971, 552.9339
702.1792, 553.6798
702.6613, 550.6480
703.1434, 543.4132
703.6255, 537.9557
704.1077, 539.7341
704.5898, 543.9380
705.0719, 546.1830
705.5540, 544.4280
706.0361, 542.9208
706.5182, 542.3852
707.0004, 541.9900
707.4825, 540.5876
707.9646, 537.8080
708.4467, 535.7862
708.9288, 535.0256
709.4109, 534.9288
709.8931, 535.1317
710.3752, 535.2867
710.8573, 533.1589
711.3394, 524.5130
711.8215, 516.7875
712.3036, 520.7581
712.7858, 532.5267
713.2679, 540.8221
713.7500, 536.6356
714.2321, 531.9073
714.7142, 532.8472
715.1964, 539.2239
715.6785, 540.8762
716.1606, 534.7526
716.6427, 528.6944
717.1248, 526.2030
717.6069, 527.2110
718.0891, 528.5570
718.5712, 530.2442
719.0533, 532.0433
719.5354, 534.7646
720.0175, 537.2450
720.4996, 536.0981
720.9818, 530.6979
721.4639, 526.2748
721.9460, 527.8323
722.4281, 531.3906
722.9102, 533.0878
723.3923, 530.9765
723.8745, 529.5536
724.3566, 530.0228
724.8387, 531.0732
725.3208, 531.5382
725.8029, 531.6010
726.2850, 529.8678
726.7672, 525.0859
727.2493, 520.3691
727.7314, 521.8397
728.2135, 528.5164
728.6956, 535.4774
729.1777, 542.9880
729.6599, 547.3740
730.1420, 540.7400
730.6241, 528.1813
731.1062, 521.3091
731.5883, 528.6466
732.0704, 538.6758
732.5526, 550.6510
733.0347, 562.7250
733.5168, 564.5609
733.9989, 548.3644
734.4810, 537.1642
734.9631, 541.6367
735.4453, 558.4610
735.9274, 564.4261
736.4095, 559.2740
736.8916, 551.5623
737.3737, 543.8533
737.8558, 538.5401
738.3380, 540.7420
738.8201, 550.3761
739.3022, 561.4418
739.7843, 574.6722
740.2664, 584.9698
740.7485, 586.9475
741.2307, 576.0338
741.7128, 572.2834
742.1949, 581.7462
742.6770, 593.0363
743.1591, 597.8968
743.6412, 595.4926
744.1234, 591.8406
744.6055, 586.7729
745.0876, 582.1847
745.5697, 579.3080
746.0518, 578.6748
746.5339, 582.8422
747.0161, 594.0166
747.4982, 604.0026
747.9803, 604.8635
748.4624, 601.3790
748.9445, 599.8302
749.4266, 602.3223
749.9088, 606.3136
750.3909, 614.7095
750.8730, 622.8588
751.3551, 621.8244
751.8372, 607.8079
752.3193, 599.6486
752.8015, 601.9707
753.2836, 611.3144
753.7657, 623.6534
754.2478, 637.7955
754.7299, 647.6887
755.2120, 645.8819
755.6942, 643.2236
756.1763, 652.4280
756.6584, 669.1362
757.1405, 680.7141
757.6226, 672.5072
758.1047, 669.4284
758.5869, 684.0228
759.0690, 712.2472
759.5511, 730.8541
760.0332, 737.6672
760.5153, 741.0655
760.9974, 744.0695
761.4796, 746.6563
761.9617, 747.8239
762.4438, 747.7852
762.9259, 749.3302
763.4080, 754.1617
763.8901, 761.7022
764.3723, 772.4827
764.8544, 786.2991
765.3365, 798.8239
765.8186, 807.4112
766.3007, 815.0659
766.7828, 823.2109
767.2650, 831.8557
767.7471, 841.2565
768.2292, 851.9680
768.7113, 861.8715
769.1934, 868.0380
769.6755, 871.2801
770.1577, 880.4332
770.6398, 896.2826
771.1219, 911.5748
771.6040, 918.7972
772.0861, 921.9849
772.5682, 925.4061
773.0504, 929.2401
773.5325, 935.8672
774.0146, 947.2451
774.4967, 961.1985
774.9788, 976.1655
775.4609, 994.3517
775.9431, 1008.136
776.4252, 1016.075
776.9073, 1022.343
777.3894, 1031.783
777.8715, 1044.076
778.3536, 1056.655
778.8358, 1069.287
779.3179, 1081.615
779.8000, 1090.794
780.2821, 1100.230
780.7642, 1115.667
781.2463, 1146.621
781.7285, 1170.955
782.2106, 1173.469
782.6927, 1168.179
783.1748, 1175.473
783.6569, 1201.246
784.1390, 1225.666
784.6212, 1246.874
785.1033, 1265.169
785.5854, 1277.672
786.0675, 1286.043
786.5496, 1302.546
787.0317, 1333.684
787.5139, 1368.556
787.9960, 1396.382
788.4781, 1419.271
788.9602, 1441.846
789.4423, 1459.945
789.9244, 1484.458
790.4066, 1522.363
790.8887, 1568.183
791.3708, 1611.596
791.8529, 1650.625
792.3350, 1692.683
792.8171, 1740.811
793.2993, 1791.408
793.7814, 1831.816
794.2635, 1864.773
794.7456, 1902.835
795.2277, 1950.325
795.7098, 2007.203
796.1920, 2075.995
796.6741, 2154.279
797.1562, 2233.267
797.6383, 2304.735
798.1204, 2383.272
798.6025, 2474.725
799.0847, 2575.276
799.5668, 2671.183
800.0489, 2761.311
800.5310, 2849.195
801.0131, 2934.884
801.4952, 3020.109
801.9774, 3104.662
802.4595, 3189.405
802.9416, 3282.395
803.4237, 3396.610
803.9058, 3514.501
804.3879, 3625.268
804.8701, 3728.890
805.3522, 3827.739
805.8343, 3923.541
806.3164, 4012.619
806.7985, 4094.196
807.2806, 4168.830
807.7628, 4245.183
808.2449, 4324.718
808.7270, 4393.741
809.2091, 4439.803
809.6912, 4472.192
810.1733, 4512.709
810.6555, 4558.704
811.1376, 4595.253
811.6197, 4614.842
812.1018, 4621.551
812.5839, 4613.074
813.0660, 4589.979
813.5482, 4572.146
814.0303, 4563.459
814.5124, 4555.794
814.9945, 4548.790
815.4766, 4540.772
815.9587, 4517.272
816.4409, 4478.420
816.9230, 4432.787
817.4051, 4375.910
817.8872, 4322.561
818.3693, 4296.932
818.8514, 4296.646
819.3336, 4294.548
819.8157, 4270.127
820.2978, 4249.128
820.7799, 4249.318
821.2620, 4269.799
821.7441, 4274.073
822.2263, 4254.579
822.7084, 4239.546
823.1905, 4247.389
823.6726, 4271.983
824.1547, 4286.600
824.6368, 4291.909
825.1190, 4296.065
825.6011, 4306.929
826.0832, 4317.294
826.5653, 4317.838
827.0474, 4308.839
827.5295, 4307.900
828.0117, 4329.642
828.4938, 4349.650
828.9760, 4360.135
829.4581, 4361.322
829.9402, 4351.212
830.4223, 4328.070
830.9044, 4309.379
831.3865, 4308.297
831.8687, 4318.230
832.3508, 4324.845
832.8329, 4329.159
833.3150, 4341.955
833.7971, 4368.267
834.2792, 4405.526
834.7614, 4456.854
835.2435, 4523.189
835.7256, 4577.079
836.2077, 4607.251
836.6898, 4647.137
837.1719, 4714.345
837.6541, 4804.530
838.1362, 4888.958
838.6183, 4969.523
839.1004, 5066.242
839.5825, 5201.357
840.0646, 5353.595
840.5468, 5493.179
841.0289, 5623.800
841.5110, 5782.949
841.9931, 6004.651
842.4752, 6232.456
842.9573, 6436.949
843.4395, 6624.072
843.9216, 6861.146
844.4037, 7151.751
844.8858, 7456.197
845.3679, 7760.448
845.8500, 8060.414
846.3322, 8333.701
846.8143, 8589.403
847.2964, 8873.417
847.7785, 9246.833
848.2606, 9621.871
848.7427, 9953.459
849.2249, 10242.77
849.7070, 10527.64
850.1891, 10817.30
850.6712, 11088.45
851.1533, 11337.40
851.6354, 11564.15
852.1176, 11772.58
852.5997, 11960.41
853.0818, 12095.97
853.5639, 12154.40
854.0460, 12157.75
854.5281, 12125.68
855.0103, 12055.07
855.4924, 11935.84
855.9745, 11768.16
856.4566, 11544.65
856.9387, 11257.32
857.4208, 10917.47
857.9030, 10549.84
858.3851, 10151.29
858.8672, 9737.940
859.3493, 9304.850
859.8314, 8865.625
860.3135, 8435.320
860.7957, 8013.219
861.2778, 7609.943
861.7599, 7232.115
862.2420, 6866.462
862.7241, 6492.391
863.2062, 6126.386
863.6884, 5804.925
864.1705, 5535.625
864.6526, 5283.875
865.1347, 5039.165
865.6168, 4809.012
866.0989, 4613.361
866.5811, 4443.549
867.0632, 4273.838
867.5453, 4080.748
868.0274, 3904.462
868.5095, 3785.694
868.9916, 3699.347
869.4738, 3608.664
869.9559, 3489.399
870.4380, 3390.259
870.9201, 3322.493
871.4022, 3269.570
871.8843, 3206.210
872.3665, 3133.370
872.8486, 3067.018
873.3307, 3010.996
873.8128, 2959.113
874.2949, 2905.414
874.7770, 2852.543
875.2592, 2803.855
875.7413, 2757.024
876.2234, 2721.021
876.7055, 2710.943
877.1876, 2703.712
877.6697, 2677.614
878.1519, 2627.819
878.6340, 2587.653
879.1161, 2559.917
879.5982, 2535.888
880.0803, 2511.396
880.5624, 2482.654
881.0446, 2438.904
881.5267, 2375.537
882.0088, 2319.868
882.4909, 2290.570
882.9730, 2269.250
883.4551, 2242.294
883.9373, 2208.016
884.4194, 2175.523
884.9015, 2145.263
885.3836, 2115.520
885.8657, 2084.928
886.3478, 2053.974
886.8300, 2023.069
887.3121, 1992.163
887.7942, 1961.903
888.2763, 1935.076
888.7584, 1906.697
889.2405, 1872.964
889.7227, 1833.435
890.2048, 1790.879
890.6869, 1737.884
891.1690, 1696.524
891.6511, 1682.456
892.1332, 1687.269
892.6154, 1669.918
893.0975, 1632.455
893.5796, 1598.013
894.0617, 1582.702
894.5438, 1572.744
895.0259, 1557.463
895.5081, 1538.035
895.9902, 1520.051
896.4723, 1504.689
896.9544, 1491.318
897.4365, 1480.881
897.9186, 1472.117
898.4008, 1461.989
898.8829, 1450.493
899.3650, 1437.904
899.8471, 1422.333
900.3292, 1408.705
900.8113, 1405.034
901.2935, 1406.615
901.7756, 1404.955
902.2577, 1398.323
902.7398, 1386.402
903.2219, 1364.795
903.7040, 1341.536
904.1862, 1328.137
904.6683, 1325.153
905.1504, 1323.869
905.6325, 1323.363
906.1146, 1322.410
906.5967, 1320.165
907.0789, 1316.347
907.5610, 1310.628
908.0431, 1303.031
908.5252, 1293.252
909.0073, 1279.166
909.4894, 1264.258
909.9716, 1251.004
910.4537, 1239.657
910.9358, 1229.678
911.4179, 1221.710
911.9000, 1210.575
912.3821, 1187.923
912.8643, 1160.831
913.3464, 1141.229
913.8285, 1129.934
914.3106, 1119.324
914.7927, 1108.615
915.2748, 1095.226
915.7570, 1074.978
916.2391, 1048.801
916.7212, 1036.481
917.2033, 1041.403
917.6854, 1041.141
918.1675, 1022.616
918.6497, 991.8101
919.1318, 954.6489
919.6139, 914.8568
920.0960, 885.4016
920.5781, 879.6165
921.0602, 877.6979
921.5424, 874.3461
922.0245, 868.4747
922.5066, 856.5942
922.9887, 836.5042
923.4708, 819.1493
923.9529, 807.3842
924.4351, 798.9614
924.9172, 793.3142
925.3993, 787.9591
925.8814, 776.1977
926.3635, 749.9775
926.8456, 728.0715
927.3278, 721.6718
927.8099, 722.8875
928.2920, 722.2974
928.7741, 719.7204
929.2562, 714.9532
929.7383, 706.8279
930.2205, 700.3533
930.7026, 704.5076
931.1847, 713.5911
931.6668, 714.6910
932.1489, 706.0162
932.6310, 695.1330
933.1132, 682.2832
933.5953, 671.8069
934.0774, 667.5098
934.5595, 669.6194
935.0416, 671.9149
935.5237, 674.9668
936.0059, 675.9809
936.4880, 669.7446
936.9701, 661.6374
937.4522, 667.5162
937.9343, 684.1259
938.4164, 695.6148
938.8986, 692.2015
939.3807, 684.2089
939.8628, 671.6852
940.3449, 658.4136
940.8270, 657.0481
941.3091, 671.3892
941.7913, 681.1738
942.2734, 680.3566
942.7555, 674.1804
943.2376, 668.8261
943.7197, 664.9518
944.2018, 664.7136
944.6840, 673.0574
945.1661, 676.7366
945.6482, 664.9664
946.1303, 649.1252
946.6124, 641.5379
947.0945, 644.1121
947.5767, 647.0280
948.0588, 649.7462
948.5409, 653.6455
949.0230, 662.1027
949.5051, 671.9050
949.9872, 677.1490
950.4694, 677.2176
950.9515, 676.4224
951.4336, 678.2894
951.9157, 678.0975
952.3978, 672.2269
952.8799, 661.2522
953.3621, 654.9474
953.8442, 653.5464
954.3263, 655.2253
954.8084, 661.4529
955.2905, 668.3066
955.7726, 667.0969
956.2548, 661.1883
956.7369, 660.3992
957.2190, 675.9024
957.7011, 687.8781
958.1832, 689.8324
958.6653, 686.3716
959.1475, 686.1144
959.6296, 689.5146
960.1117, 686.3546
960.5938, 672.4298
961.0759, 660.3547
961.5580, 670.6057
962.0402, 688.9918
962.5223, 694.1641
963.0044, 674.4745
963.4865, 665.0125
963.9686, 680.9241
964.4507, 699.3568
964.9329, 705.1812
965.4150, 698.5661
965.8971, 691.3442
966.3792, 683.5433
966.8613, 681.0259
967.3434, 693.8036
967.8256, 709.6990
968.3077, 715.5323
968.7898, 712.6856
969.2719, 712.5427
969.7540, 717.4396
970.2361, 725.0035
970.7183, 735.7000
971.2004, 747.8838
971.6825, 757.7283
972.1646, 765.1111
972.6467, 768.5585
973.1288, 764.8136
973.6110, 762.7936
974.0931, 771.0323
974.5752, 784.5089
975.0573, 797.0481
975.5394, 810.7847
976.0215, 816.7741
976.5037, 812.1470
976.9858, 806.2708
977.4679, 807.2910
977.9500, 814.5871
978.4321, 828.2908
978.9142, 848.1508
979.3964, 865.3891
979.8785, 871.4694
980.3606, 875.9318
980.8427, 886.8315
981.3248, 903.1280
981.8069, 908.8914
982.2891, 899.9243
982.7712, 898.5654
983.2533, 918.4138
983.7354, 945.4421
984.2175, 951.8889
984.6996, 944.5669
985.1818, 940.4352
985.6639, 945.7657
986.1460, 955.8143
986.6281, 973.7482
987.1102, 993.1285
987.5923, 1006.654
988.0745, 1014.077
988.5566, 1017.243
989.0387, 1015.558
989.5208, 1014.688
990.0029, 1023.640
990.4850, 1034.833
990.9672, 1037.812
991.4493, 1030.987
991.9314, 1025.071
992.4135, 1025.065
992.8957, 1023.004
993.3778, 1014.839
993.8599, 1002.188
994.3420, 992.9373
994.8242, 986.9967
995.3063, 982.9959
995.7884, 982.3969
996.2705, 981.0744
996.7526, 975.9081
997.2347, 967.7366
997.7169, 958.0039
998.1990, 946.3908
998.6811, 934.1817
999.1632, 921.1704
999.6453, 907.8381
1000.127, 894.7784
1000.610, 881.9918
1001.092, 869.4332
1001.574, 857.1057
1002.056, 845.7982
1002.538, 837.4688
1003.020, 829.0298
1003.502, 818.1028
1003.984, 804.9100
1004.466, 793.2418
1004.949, 783.7191
1005.431, 771.9846
1005.913, 753.0439
1006.395, 733.5075
1006.877, 726.0233
1007.359, 726.1265
1007.841, 723.0605
1008.323, 710.5296
1008.806, 697.5723
1009.288, 685.0165
1009.770, 673.6016
1010.252, 664.1794
1010.734, 656.7042
1011.216, 650.2161
1011.698, 644.7565
1012.180, 637.8231
1012.662, 625.7640
1013.145, 612.2535
1013.627, 599.2394
1014.109, 586.7868
1014.591, 582.3242
1015.073, 590.7277
1015.555, 595.5914
1016.037, 588.5295
1016.519, 574.1277
1017.002, 563.6419
1017.484, 556.4011
1017.966, 550.4284
1018.448, 547.3387
1018.930, 542.1819
1019.412, 530.4263
1019.894, 516.7738
1020.376, 507.8326
1020.858, 504.8625
1021.341, 498.4456
1021.823, 487.3078
1022.305, 476.9332
1022.787, 472.0074
1023.269, 471.3253
1023.751, 475.5717
1024.233, 484.6890
1024.715, 488.4067
1025.198, 480.3435
1025.680, 472.1470
1026.162, 467.2279
1026.644, 465.0307
1027.126, 464.5835
1027.608, 465.3882
1028.090, 464.6523
1028.572, 461.1447
1029.054, 456.0082
1029.536, 447.3073
1030.019, 438.7366
1030.501, 435.5324
1030.983, 440.4041
1031.465, 443.0141
1031.947, 442.9850
1032.429, 441.7339
1032.911, 440.4270
1033.393, 438.8260
1033.876, 436.5773
1034.358, 433.6487
1034.840, 429.9226
1035.322, 424.4877
1035.804, 419.1318
1036.286, 413.3541
1036.768, 408.4803
1037.250, 410.5799
1037.733, 418.7193
1038.215, 419.4632
1038.697, 405.4471
1039.179, 393.6053
1039.661, 403.1445
1040.143, 419.9565
1040.625, 428.1756
1041.107, 422.9974
1041.589, 418.7349
1042.072, 415.1943
1042.554, 413.2452
1043.036, 416.8883
1043.518, 421.4288
1044.000, 411.9078
1044.482, 392.2942
1044.964, 380.4341
1045.446, 394.8180
1045.928, 405.0195
1046.411, 397.6420
1046.893, 383.3684
1047.375, 382.1159
1047.857, 393.4446
1048.339, 399.7643
1048.821, 397.9007
1049.303, 391.9802
1049.785, 381.7441
1050.268, 372.0286
1050.750, 367.9270
1051.232, 371.1056
1051.714, 372.0958
1052.196, 369.2570
1052.678, 368.6584
1053.160, 374.2308
1053.642, 383.0001
1054.125, 389.4356
1054.607, 393.4319
1055.089, 394.3965
1055.571, 390.7368
1056.053, 385.7323
1056.535, 377.7668
1057.017, 370.8023
1057.499, 370.1413
1057.981, 375.8120
1058.464, 377.4114
1058.946, 374.2190
1059.428, 370.8907
1059.910, 372.9140
1060.392, 374.9588
1060.874, 371.4122
1061.356, 362.8802
1061.838, 358.0591
1062.320, 358.0329
1062.803, 359.4206
1063.285, 362.1520
1063.767, 364.2356
1064.249, 361.0883
1064.731, 355.0539
1065.213, 350.9250
1065.695, 350.1227
1066.177, 350.5042
1066.660, 351.7660
1067.142, 353.8292
1067.624, 357.7373
1068.106, 362.9843
1068.588, 361.9608
1069.070, 355.1671
1069.552, 347.9853
1070.034, 340.6849
1070.516, 337.0605
1070.999, 342.7627
1071.481, 353.3153
1071.963, 359.1328
1072.445, 359.4650
1072.927, 355.8661
1073.409, 347.2674
1073.891, 340.2549
1074.373, 345.0332
1074.855, 354.4832
1075.338, 358.3274
1075.820, 355.5592
1076.302, 351.3593
1076.784, 345.8534
1077.266, 340.5856
1077.748, 335.6864
1078.230, 331.5447
1078.713, 329.4375
1079.195, 329.0216
1079.677, 329.3080
1080.159, 331.0372
1080.641, 330.7557
1081.123, 322.5830
1081.605, 314.5363
1082.087, 314.3195
1082.569, 323.1595
1083.052, 329.9161
1083.534, 334.6999
1084.016, 335.4306
1084.498, 326.4989
1084.980, 316.3673
1085.462, 313.5152
1085.944, 316.4521
1086.426, 320.7725
1086.908, 326.9378
1087.391, 332.0844
1087.873, 335.9906
1088.355, 338.6037
1088.837, 340.2530
1089.319, 340.4519
1089.801, 337.4977
1090.283, 331.1904
1090.765, 325.3584
1091.248, 320.5171
1091.730, 317.9720
1092.212, 319.2032
1092.694, 322.5507
1093.176, 321.7346
1093.658, 317.4970
1094.140, 315.4594
1094.622, 318.9117
1095.104, 321.1776
1095.587, 314.7982
1096.069, 306.8147
1096.551, 304.6668
1097.033, 309.4610
1097.515, 312.9826
1097.997, 315.1634
1098.479, 316.6559
1098.961, 316.9658
1099.443, 317.5148
1099.926, 321.3969
1100.408, 326.7660
1100.890, 328.7463
1101.372, 321.9178
1101.854, 320.1090
1102.336, 326.0892
1102.818, 333.3810
1103.300, 334.3900
1103.783, 331.1135
1104.265, 327.9164
1104.747, 325.1881
1105.229, 321.9083
1105.711, 315.7274
1106.193, 311.4203
1106.675, 311.1578
1107.157, 313.3509
1107.640, 313.6475
1108.122, 312.4232
1108.604, 312.2209
1109.086, 313.9245
1109.568, 315.8396
1110.050, 317.0909
1110.532, 317.8189
1111.014, 318.3159
1111.496, 318.6320
1111.979, 316.1046
1112.461, 310.3257
1112.943, 308.0858
1113.425, 314.9508
1113.907, 324.6071
1114.389, 334.6880
1114.871, 341.7084
1115.353, 338.6380
1115.835, 313.4516
1116.318, 302.2708
1116.800, 308.8356
1117.282, 319.7079
1117.764, 324.1177
1118.246, 324.4818
1118.728, 324.9127
1119.210, 325.4960
1119.692, 325.5934
1120.175, 325.4579
1120.657, 323.8485
1121.139, 319.4068
1121.621, 314.9320
1122.103, 316.1791
1122.585, 321.3013
1123.067, 322.6314
1123.549, 318.6430
1124.031, 317.3909
1124.514, 328.7554
1124.996, 338.1729
1125.478, 336.2222
1125.960, 326.5113
1126.442, 325.3778
1126.924, 332.2644
1127.406, 339.7639
1127.888, 346.1765
1128.370, 350.3564
1128.853, 349.4553
1129.335, 347.0583
1129.817, 347.1967
1130.299, 350.5034
1130.781, 351.6360
1131.263, 350.2791
1131.745, 349.6045
1132.227, 353.7159
1132.710, 357.3620
1133.192, 352.8639
1133.674, 343.8116
1134.156, 337.5938
1134.638, 337.5486
1135.120, 335.3581
1135.602, 329.8402
1136.084, 325.1018
1136.567, 326.4488
1137.049, 330.5008
1137.531, 331.1032
1138.013, 328.5861
1138.495, 326.7925
1138.977, 326.3181
1139.459, 328.0717
1139.941, 333.6437
1140.423, 339.2946
1140.906, 337.8950
1141.388, 331.7778
1141.870, 327.4464
1142.352, 325.8068
1142.834, 325.7549
1143.316, 332.6138
1143.798, 333.6982
1144.280, 320.7013
1144.762, 299.9445
1145.245, 292.3288
1145.727, 296.2856
1146.209, 302.5816
1146.691, 310.1676
1147.173, 314.5206
1147.655, 309.3123
1148.137, 302.6605
1148.619, 301.1313
1149.102, 304.6261
1149.584, 308.8145
1150.066, 313.5193
1150.548, 313.7214
1151.030, 301.7480
1151.512, 291.1050
1151.994, 295.8811
1152.476, 307.0571
1152.958, 311.4702
1153.441, 306.8326
1153.923, 302.5465
1154.405, 298.6235
1154.887, 295.3574
1155.369, 293.3669
1155.851, 291.8250
1156.333, 288.8488
1156.815, 285.5829
1157.297, 286.3883
1157.780, 294.7125
1158.262, 297.3955
1158.744, 292.0427
1159.226, 284.9326
1159.708, 282.4031
1160.190, 282.5398
1160.672, 283.4690
1161.154, 284.7929
1161.637, 284.0576
1162.119, 277.8349
1162.601, 276.3898
1163.083, 283.8773
1163.565, 292.9049
1164.047, 289.7348
1164.529, 280.3318
1165.011, 277.2902
1165.494, 283.6673
1165.976, 285.1071
1166.458, 272.8082
1166.940, 263.1710
1167.422, 262.7266
1167.904, 268.2354
1168.386, 271.2135
1168.868, 273.0900
1169.350, 278.7753
1169.833, 293.1432
1170.315, 300.9204
1170.797, 291.8159
1171.279, 280.0618
1171.761, 271.0614
1172.243, 265.8549
1172.725, 273.7372
1173.207, 291.0536
1173.689, 301.4201
1174.172, 292.6417
1174.654, 282.6583
1175.136, 279.7929
1175.618, 277.6916
1176.100, 269.0382
1176.582, 254.4996
1177.064, 253.2905
1177.546, 264.2066
1178.029, 273.6827
1178.511, 271.9258
1178.993, 268.7913
1179.475, 269.0989
1179.957, 271.1153
1180.439, 273.1156
1180.921, 275.1279
1181.403, 274.7803
1181.885, 271.9226
1182.368, 267.4700
1182.850, 258.7477
1183.332, 252.0527
1183.814, 252.9415
1184.296, 258.6271
1184.778, 262.4391
1185.260, 264.3116
1185.742, 265.1898
1186.224, 264.9948
1186.707, 265.7410
1187.189, 272.6932
1187.671, 278.2815
1188.153, 274.2886
1188.635, 262.7929
1189.117, 256.7191
1189.599, 256.4224
1190.081, 257.9592
1190.564, 260.8910
1191.046, 263.1449
1191.528, 262.7256
1192.010, 260.5844
1192.492, 256.9159
1192.974, 251.8236
1193.456, 248.9073
1193.938, 248.2315
1194.421, 249.4703
1194.903, 252.9608
1195.385, 257.2990
1195.867, 263.0056
1196.349, 267.5507
1196.831, 266.6949
1197.313, 258.5348
1197.795, 255.7223
1198.277, 259.0362
1198.760, 262.3451
1199.242, 262.5583
1199.724, 261.3054
1200.206, 259.1946
1200.688, 257.3939
1201.170, 258.4094
1201.652, 264.9659
1202.134, 265.3228
1202.616, 258.2876
1203.099, 251.4990
1203.581, 249.4856
1204.063, 250.9093
1204.545, 257.0188
1205.027, 264.7238
1205.509, 266.8639
1205.991, 259.7412
1206.473, 254.9825
1206.956, 253.0270
1207.438, 253.1818
1207.920, 256.1353
1208.402, 259.9099
1208.884, 263.0224
1209.366, 264.9645
1209.848, 264.0126
1210.330, 258.7207
1210.813, 254.6862
1211.295, 252.6256
1211.777, 251.1380
1212.259, 248.4638
1212.741, 245.8496
1213.223, 244.7085
1213.705, 245.0887
1214.187, 246.6583
1214.669, 248.5638
1215.151, 254.7518
1215.634, 267.5909
1216.116, 278.2467
1216.598, 273.6499
1217.080, 263.2144
1217.562, 258.5524
1218.044, 260.2813
1218.526, 262.3356
1219.008, 265.4515
1219.491, 264.0611
1219.973, 255.3640
1220.455, 247.1581
1220.937, 252.6174
1221.419, 262.5263
1221.901, 264.4912
1222.383, 256.8743
1222.865, 252.9077
1223.348, 253.7760
1223.830, 255.6887
1224.312, 258.1517
1224.794, 259.5536
1225.276, 255.4606
1225.758, 250.3534
1226.240, 251.1170
1226.722, 260.0220
1227.204, 261.5264
1227.687, 253.2630
1228.169, 248.4794
1228.651, 253.8099
1229.133, 261.2031
1229.615, 258.5636
1230.097, 252.4339
1230.579, 252.7658
1231.061, 262.8414
1231.543, 263.4411
1232.026, 252.4399
1232.508, 244.5583
1232.990, 248.2487
1233.472, 255.4864
1233.954, 256.5666
1234.436, 254.9724
1234.918, 256.2431
1235.400, 262.7115
1235.883, 260.2232
1236.365, 247.2666
1236.847, 238.4918
1237.329, 245.9231
1237.811, 256.2998
1238.293, 255.9841
1238.775, 249.8939
1239.257, 244.9093
1239.740, 240.6389
1240.222, 242.1465
1240.704, 249.8494
1241.186, 257.4644
1241.668, 261.1941
1242.150, 263.0247
1242.632, 265.2640
1243.114, 266.2613
1243.596, 262.5577
1244.079, 251.8984
1244.561, 250.6872
1245.043, 259.2741
1245.525, 267.1583
1246.007, 266.8751
1246.489, 263.9708
1246.971, 261.8834
1247.453, 259.9452
1247.936, 256.7930
1248.418, 252.1837
1248.900, 249.1657
1249.382, 247.8550
1249.864, 248.5366
1250.346, 251.9518
1250.828, 256.8464
1251.310, 264.6460
1251.792, 272.2615
1252.275, 275.0454
1252.757, 273.1045
1253.239, 268.4723
1253.721, 261.4300
1254.203, 255.6629
1254.685, 253.8239
1255.167, 253.5302
1255.649, 253.9325
1256.131, 255.0172
1256.614, 257.2433
1257.096, 260.3746
1257.578, 263.0182
1258.060, 264.9754
1258.542, 265.0568
1259.024, 259.5263
1259.506, 256.0293
1259.988, 258.2172
1260.471, 262.2086
1260.953, 261.9769
1261.435, 258.5849
1261.917, 255.6694
1262.399, 253.6134
1262.881, 252.7718
1263.363, 256.3152
1263.845, 256.4284
1264.328, 249.0367
1264.810, 240.9166
1265.292, 244.1644
1265.774, 253.9935
1266.256, 258.4833
1266.738, 256.8334
1267.220, 255.8362
1267.702, 258.5328
1268.184, 260.3540
1268.667, 260.2554
1269.149, 259.3585
1269.631, 257.7804
1270.113, 257.2154
1270.595, 263.1364
1271.077, 275.2836
1271.559, 277.3009
1272.041, 262.7265
1272.523, 251.8612
1273.006, 249.1819
1273.488, 250.8264
1273.970, 254.4014
1274.452, 257.8340
1274.934, 258.1836
1275.416, 255.3467
1275.898, 252.7526
1276.380, 250.3470
1276.863, 248.8748
1277.345, 248.5248
1277.827, 249.0913
1278.309, 252.2134
1278.791, 254.6911
1279.273, 251.2006
1279.755, 243.5643
1280.237, 245.1239
1280.719, 256.5607
1281.202, 264.1823
1281.684, 264.8970
1282.166, 262.4205
1282.648, 255.1849
1283.130, 250.3601
1283.612, 256.0002
1284.094, 267.5575
1284.576, 268.6396
1285.058, 260.5316
1285.541, 254.2487
1286.023, 252.2342
1286.505, 251.8705
1286.987, 253.5073
1287.469, 254.2465
1287.951, 252.5805
1288.433, 249.2641
1288.915, 244.7796
1289.398, 240.2821
1289.880, 241.0752
##END=



