##NAMES=Molybdophyllite
##RRUFFID=R070222
##IDEAL CHEMISTRY=Pb^2+^_8_Mg_9_[Si_10_O_30_(OH)_8_(CO_3_)_3_]&#183;H_2_O
##LOCALITY=Langban, Filipstad, Varmland, Sweden
##OWNER=RRUFF
##SOURCE=Michael Scott
##DESCRIPTION=Colorless tabular crystals associated with hausmannite, with cell parameters that match the so-called molybdophyllite-18 phase (Kolitsch et al, 2012)
##STATUS=The identification of this mineral has been confirmed only by single crystal X-ray diffraction.
##URL=rruff.info/R070222
132.5902, 1955.976
133.0723, 2060.166
133.5544, 2147.738
134.0366, 2207.303
134.5187, 2246.626
135.0008, 2278.387
135.4829, 2310.300
135.9650, 2342.458
136.4471, 2377.440
136.9293, 2411.288
137.4114, 2451.450
137.8935, 2497.838
138.3756, 2552.190
138.8577, 2618.085
139.3398, 2698.082
139.8220, 2792.498
140.3041, 2900.343
140.7862, 3024.266
141.2683, 3155.452
141.7504, 3290.149
142.2325, 3428.130
142.7147, 3570.236
143.1968, 3718.819
143.6789, 3873.384
144.1610, 4024.133
144.6431, 4167.856
145.1252, 4310.360
145.6074, 4459.476
146.0895, 4613.087
146.5716, 4757.868
147.0537, 4883.408
147.5358, 4987.636
148.0179, 5082.753
148.5001, 5183.750
148.9822, 5265.116
149.4643, 5304.860
149.9464, 5302.974
150.4285, 5280.754
150.9106, 5252.660
151.3928, 5217.623
151.8749, 5172.785
152.3570, 5121.891
152.8391, 5058.711
153.3212, 4971.689
153.8033, 4859.504
154.2855, 4744.103
154.7676, 4641.512
155.2497, 4549.666
155.7318, 4460.960
156.2139, 4371.561
156.6960, 4286.073
157.1782, 4211.842
157.6603, 4150.687
158.1424, 4091.329
158.6245, 4016.939
159.1066, 3937.146
159.5887, 3878.377
160.0709, 3860.150
160.5530, 3862.081
161.0351, 3854.730
161.5172, 3834.807
161.9993, 3815.678
162.4814, 3806.360
162.9636, 3804.580
163.4457, 3807.764
163.9278, 3820.317
164.4099, 3835.890
164.8920, 3841.829
165.3741, 3835.288
165.8563, 3826.985
166.3384, 3822.016
166.8205, 3819.972
167.3026, 3820.613
167.7847, 3823.265
168.2668, 3828.728
168.7490, 3841.796
169.2311, 3869.993
169.7132, 3888.183
170.1953, 3874.360
170.6774, 3843.968
171.1595, 3821.793
171.6417, 3826.323
172.1238, 3843.347
172.6059, 3833.526
173.0880, 3780.851
173.5701, 3733.266
174.0522, 3712.903
174.5344, 3710.014
175.0165, 3712.223
175.4986, 3715.126
175.9807, 3718.210
176.4628, 3719.338
176.9449, 3715.375
177.4271, 3715.583
177.9092, 3729.008
178.3913, 3746.829
178.8734, 3756.373
179.3555, 3749.656
179.8376, 3732.434
180.3197, 3722.027
180.8019, 3722.626
181.2840, 3722.889
181.7661, 3719.951
182.2482, 3714.450
182.7303, 3707.071
183.2124, 3698.051
183.6946, 3687.515
184.1767, 3675.277
184.6588, 3658.776
185.1409, 3645.406
185.6230, 3637.875
186.1051, 3633.746
186.5873, 3630.624
187.0694, 3627.688
187.5515, 3624.328
188.0336, 3618.707
188.5157, 3609.804
188.9978, 3600.274
189.4800, 3588.123
189.9621, 3576.828
190.4442, 3570.870
190.9263, 3572.704
191.4084, 3578.400
191.8905, 3577.854
192.3727, 3565.584
192.8548, 3556.794
193.3369, 3556.469
193.8190, 3559.092
194.3011, 3558.196
194.7832, 3551.114
195.2654, 3542.702
195.7475, 3544.492
196.2296, 3564.856
196.7117, 3579.833
197.1938, 3588.101
197.6759, 3589.835
198.1581, 3582.252
198.6402, 3564.834
199.1223, 3544.966
199.6044, 3539.018
200.0865, 3563.606
200.5686, 3567.791
201.0508, 3533.449
201.5329, 3489.429
202.0150, 3455.249
202.4971, 3436.943
202.9792, 3432.077
203.4613, 3439.948
203.9435, 3473.503
204.4256, 3489.860
204.9077, 3480.714
205.3898, 3461.239
205.8719, 3438.704
206.3540, 3415.797
206.8362, 3394.492
207.3183, 3376.859
207.8004, 3361.993
208.2825, 3354.124
208.7646, 3359.806
209.2467, 3366.515
209.7289, 3367.207
210.2110, 3361.040
210.6931, 3351.367
211.1752, 3340.892
211.6573, 3327.579
212.1395, 3321.519
212.6216, 3330.351
213.1037, 3339.417
213.5858, 3343.004
214.0679, 3340.235
214.5500, 3331.988
215.0322, 3317.517
215.5143, 3294.808
215.9964, 3279.763
216.4785, 3278.184
216.9606, 3278.689
217.4427, 3281.534
217.9249, 3283.472
218.4070, 3277.485
218.8891, 3255.963
219.3712, 3218.279
219.8533, 3187.962
220.3354, 3168.458
220.8176, 3153.531
221.2997, 3144.092
221.7818, 3138.044
222.2639, 3132.450
222.7460, 3125.983
223.2281, 3118.086
223.7103, 3103.299
224.1924, 3072.154
224.6745, 3044.048
225.1566, 3023.522
225.6387, 3008.379
226.1208, 2994.671
226.6030, 2979.945
227.0851, 2965.531
227.5672, 2957.429
228.0493, 2962.630
228.5314, 2964.880
229.0135, 2961.669
229.4957, 2954.177
229.9778, 2943.008
230.4599, 2928.285
230.9420, 2911.938
231.4241, 2899.028
231.9062, 2893.493
232.3884, 2884.583
232.8705, 2866.506
233.3526, 2847.394
233.8347, 2833.908
234.3168, 2828.336
234.7989, 2828.617
235.2811, 2832.164
235.7632, 2841.733
236.2453, 2847.942
236.7274, 2847.202
237.2095, 2845.273
237.6916, 2846.955
238.1738, 2852.719
238.6559, 2858.273
239.1380, 2856.952
239.6201, 2845.396
240.1022, 2839.526
240.5843, 2845.221
241.0665, 2852.351
241.5486, 2856.397
242.0307, 2857.131
242.5128, 2856.631
242.9949, 2855.175
243.4770, 2852.033
243.9592, 2857.173
244.4413, 2884.249
244.9234, 2906.874
245.4055, 2913.171
245.8876, 2906.616
246.3697, 2897.302
246.8519, 2891.044
247.3340, 2888.030
247.8161, 2890.634
248.2982, 2903.874
248.7803, 2916.253
249.2624, 2921.515
249.7446, 2923.720
250.2267, 2930.865
250.7088, 2950.342
251.1909, 2974.200
251.6730, 2976.571
252.1551, 2942.901
252.6373, 2917.373
253.1194, 2921.639
253.6015, 2937.377
254.0836, 2944.447
254.5657, 2934.591
255.0478, 2917.419
255.5300, 2911.118
256.0121, 2921.805
256.4942, 2919.952
256.9763, 2875.131
257.4584, 2827.146
257.9406, 2808.408
258.4227, 2826.453
258.9048, 2854.515
259.3869, 2866.968
259.8690, 2863.438
260.3511, 2852.200
260.8333, 2829.444
261.3154, 2803.492
261.7975, 2778.255
262.2796, 2754.414
262.7617, 2735.252
263.2438, 2724.256
263.7260, 2720.390
264.2081, 2718.272
264.6902, 2719.255
265.1723, 2718.927
265.6544, 2711.479
266.1365, 2699.533
266.6187, 2692.186
267.1008, 2698.611
267.5829, 2711.651
268.0650, 2715.597
268.5471, 2708.316
269.0292, 2697.745
269.5114, 2688.410
269.9935, 2679.590
270.4756, 2669.617
270.9577, 2653.966
271.4398, 2640.350
271.9219, 2641.426
272.4041, 2657.776
272.8862, 2668.357
273.3683, 2659.681
273.8504, 2639.680
274.3325, 2624.558
274.8146, 2616.606
275.2968, 2610.669
275.7789, 2604.351
276.2610, 2597.458
276.7431, 2587.588
277.2252, 2570.315
277.7073, 2554.818
278.1895, 2560.636
278.6716, 2594.167
279.1537, 2615.619
279.6358, 2598.549
280.1179, 2562.751
280.6000, 2542.598
281.0822, 2546.346
281.5643, 2561.508
282.0464, 2575.952
282.5285, 2589.886
283.0106, 2599.485
283.4927, 2602.776
283.9749, 2602.488
284.4570, 2597.658
284.9391, 2589.333
285.4212, 2587.260
285.9033, 2601.461
286.3854, 2631.553
286.8676, 2652.219
287.3497, 2659.361
287.8318, 2662.068
288.3139, 2660.439
288.7960, 2657.531
289.2781, 2661.862
289.7603, 2679.487
290.2424, 2705.689
290.7245, 2720.042
291.2066, 2709.057
291.6887, 2703.751
292.1708, 2710.198
292.6530, 2724.322
293.1351, 2742.670
293.6172, 2763.859
294.0993, 2785.022
294.5814, 2800.574
295.0635, 2804.682
295.5457, 2814.376
296.0278, 2838.532
296.5099, 2861.436
296.9920, 2869.050
297.4741, 2861.751
297.9562, 2852.069
298.4384, 2853.036
298.9205, 2866.192
299.4026, 2879.638
299.8847, 2895.254
300.3668, 2909.279
300.8489, 2918.979
301.3311, 2926.118
301.8131, 2934.846
302.2953, 2948.522
302.7774, 2965.341
303.2595, 2975.912
303.7416, 2977.009
304.2237, 2976.056
304.7058, 2969.962
305.1880, 2964.827
305.6701, 2968.800
306.1522, 2985.173
306.6343, 3005.923
307.1164, 3018.789
307.5985, 3023.459
308.0807, 3021.129
308.5628, 3006.503
309.0449, 2988.492
309.5270, 2971.105
310.0091, 2955.068
310.4912, 2940.989
310.9734, 2931.708
311.4555, 2926.318
311.9376, 2913.535
312.4197, 2885.195
312.9018, 2860.371
313.3839, 2855.762
313.8661, 2863.927
314.3482, 2865.347
314.8303, 2846.580
315.3124, 2817.740
315.7945, 2795.979
316.2766, 2781.837
316.7588, 2771.938
317.2409, 2768.372
317.7230, 2766.794
318.2051, 2759.918
318.6872, 2745.553
319.1693, 2728.209
319.6515, 2709.785
320.1336, 2690.860
320.6157, 2673.316
321.0978, 2657.169
321.5799, 2643.893
322.0620, 2636.669
322.5442, 2636.150
323.0263, 2635.669
323.5084, 2634.051
323.9905, 2631.122
324.4726, 2626.615
324.9547, 2620.465
325.4369, 2612.832
325.9190, 2603.317
326.4011, 2591.657
326.8832, 2582.463
327.3653, 2579.837
327.8474, 2575.801
328.3296, 2562.087
328.8117, 2542.599
329.2938, 2529.161
329.7759, 2528.889
330.2580, 2539.520
330.7401, 2550.857
331.2223, 2571.147
331.7044, 2581.897
332.1865, 2577.011
332.6686, 2563.577
333.1507, 2547.109
333.6328, 2529.927
334.1150, 2514.820
334.5971, 2507.355
335.0792, 2514.668
335.5613, 2509.896
336.0434, 2481.594
336.5255, 2452.835
337.0077, 2438.244
337.4898, 2434.679
337.9719, 2428.074
338.4540, 2405.540
338.9361, 2369.771
339.4182, 2345.600
339.9004, 2340.866
340.3825, 2336.906
340.8646, 2328.666
341.3467, 2317.728
341.8288, 2305.665
342.3109, 2292.690
342.7931, 2280.401
343.2752, 2271.045
343.7573, 2264.698
344.2394, 2260.782
344.7215, 2260.361
345.2036, 2261.526
345.6858, 2262.482
346.1679, 2263.193
346.6500, 2265.261
347.1321, 2274.647
347.6142, 2286.120
348.0963, 2281.834
348.5785, 2254.719
349.0606, 2228.393
349.5427, 2224.126
350.0248, 2235.922
350.5069, 2247.016
350.9890, 2257.810
351.4712, 2264.273
351.9533, 2261.298
352.4354, 2250.313
352.9175, 2239.092
353.3996, 2231.920
353.8817, 2226.043
354.3639, 2213.141
354.8460, 2188.828
355.3281, 2168.340
355.8102, 2157.942
356.2923, 2151.861
356.7744, 2142.113
357.2566, 2127.336
357.7387, 2114.657
358.2208, 2113.063
358.7029, 2125.917
359.1850, 2130.908
359.6671, 2121.637
360.1493, 2112.093
360.6314, 2108.596
361.1135, 2109.744
361.5956, 2111.827
362.0777, 2112.849
362.5598, 2112.537
363.0420, 2109.631
363.5241, 2101.104
364.0062, 2094.891
364.4883, 2095.047
364.9704, 2095.712
365.4525, 2092.183
365.9347, 2083.424
366.4168, 2071.187
366.8989, 2054.664
367.3810, 2032.886
367.8631, 2021.552
368.3452, 2028.080
368.8274, 2037.420
369.3095, 2038.842
369.7916, 2036.826
370.2737, 2043.047
370.7558, 2069.286
371.2379, 2101.702
371.7201, 2115.036
372.2022, 2107.479
372.6843, 2097.970
373.1664, 2092.680
373.6485, 2091.077
374.1306, 2091.883
374.6128, 2095.190
375.0949, 2100.457
375.5770, 2109.690
376.0591, 2120.281
376.5412, 2127.032
377.0233, 2128.826
377.5055, 2127.100
377.9876, 2122.332
378.4697, 2114.107
378.9518, 2108.430
379.4339, 2106.083
379.9160, 2105.681
380.3982, 2107.602
380.8803, 2110.916
381.3624, 2113.279
381.8445, 2113.361
382.3266, 2111.874
382.8087, 2110.919
383.2909, 2108.008
383.7730, 2109.272
384.2551, 2115.798
384.7372, 2125.824
385.2193, 2141.339
385.7014, 2160.661
386.1836, 2175.367
386.6657, 2174.196
387.1478, 2155.783
387.6299, 2148.016
388.1120, 2158.669
388.5941, 2171.662
389.0763, 2180.954
389.5584, 2189.203
390.0405, 2201.627
390.5226, 2221.783
391.0047, 2243.478
391.4868, 2257.070
391.9690, 2261.975
392.4511, 2263.570
392.9332, 2260.836
393.4153, 2257.332
393.8974, 2255.557
394.3795, 2255.605
394.8617, 2259.038
395.3438, 2269.344
395.8259, 2282.582
396.3080, 2291.238
396.7901, 2294.338
397.2722, 2298.609
397.7544, 2309.225
398.2365, 2325.064
398.7186, 2339.319
399.2007, 2354.452
399.6828, 2365.212
400.1649, 2365.612
400.6471, 2361.186
401.1292, 2361.049
401.6113, 2368.223
402.0934, 2380.135
402.5755, 2393.745
403.0576, 2411.353
403.5398, 2423.013
404.0219, 2422.970
404.5040, 2423.285
404.9861, 2430.976
405.4682, 2444.316
405.9503, 2458.351
406.4325, 2470.465
406.9146, 2479.800
407.3967, 2481.782
407.8788, 2469.468
408.3609, 2464.251
408.8430, 2474.316
409.3252, 2489.765
409.8073, 2502.916
410.2894, 2512.649
410.7715, 2523.192
411.2536, 2538.690
411.7357, 2558.303
412.2179, 2578.368
412.7000, 2600.722
413.1821, 2618.362
413.6642, 2623.810
414.1463, 2621.172
414.6284, 2617.492
415.1106, 2613.385
415.5927, 2609.407
416.0748, 2604.946
416.5569, 2600.806
417.0390, 2600.507
417.5211, 2606.115
418.0033, 2612.785
418.4854, 2613.097
418.9675, 2605.040
419.4496, 2596.950
419.9317, 2587.508
420.4138, 2579.457
420.8960, 2578.750
421.3781, 2581.703
421.8602, 2576.170
422.3423, 2553.203
422.8244, 2517.896
423.3065, 2492.580
423.7887, 2484.797
424.2708, 2475.527
424.7529, 2459.064
425.2350, 2442.897
425.7171, 2434.471
426.1992, 2434.088
426.6814, 2434.848
427.1635, 2430.878
427.6456, 2422.306
428.1277, 2410.258
428.6098, 2391.848
429.0919, 2375.578
429.5741, 2368.435
430.0562, 2365.395
430.5383, 2359.354
431.0204, 2348.916
431.5025, 2334.576
431.9846, 2313.057
432.4668, 2287.340
432.9489, 2268.948
433.4310, 2261.902
433.9131, 2259.331
434.3952, 2254.310
434.8773, 2246.884
435.3595, 2235.187
435.8416, 2213.980
436.3237, 2193.110
436.8058, 2177.673
437.2879, 2167.512
437.7701, 2162.214
438.2522, 2162.031
438.7343, 2163.581
439.2164, 2157.803
439.6985, 2137.455
440.1806, 2122.729
440.6628, 2115.266
441.1449, 2111.643
441.6270, 2111.009
442.1091, 2112.375
442.5912, 2114.168
443.0733, 2117.068
443.5555, 2118.746
444.0376, 2108.338
444.5197, 2080.883
445.0018, 2055.208
445.4839, 2038.765
445.9660, 2027.439
446.4482, 2017.512
446.9303, 2008.454
447.4124, 2001.823
447.8945, 2001.182
448.3766, 2003.142
448.8587, 1999.857
449.3409, 1989.958
449.8230, 1979.625
450.3051, 1974.971
450.7872, 1974.623
451.2693, 1966.043
451.7514, 1942.858
452.2336, 1919.563
452.7157, 1898.844
453.1978, 1881.644
453.6799, 1871.259
454.1620, 1868.007
454.6441, 1865.096
455.1263, 1852.158
455.6084, 1825.301
456.0905, 1810.579
456.5726, 1820.714
457.0547, 1830.564
457.5368, 1833.874
458.0190, 1831.590
458.5011, 1825.840
458.9832, 1817.344
459.4653, 1806.467
459.9474, 1791.839
460.4295, 1773.388
460.9117, 1760.137
461.3938, 1755.812
461.8759, 1754.540
462.3580, 1752.557
462.8401, 1749.532
463.3222, 1743.017
463.8044, 1727.938
464.2865, 1712.513
464.7686, 1704.166
465.2507, 1701.966
465.7328, 1702.607
466.2149, 1705.389
466.6971, 1707.644
467.1792, 1703.900
467.6613, 1689.808
468.1434, 1678.660
468.6255, 1671.078
469.1076, 1665.801
469.5898, 1664.396
470.0719, 1664.798
470.5540, 1661.234
471.0361, 1649.064
471.5182, 1633.115
472.0003, 1628.815
472.4825, 1642.050
472.9646, 1650.943
473.4467, 1647.390
473.9288, 1640.383
474.4109, 1636.236
474.8930, 1634.756
475.3752, 1630.299
475.8573, 1615.084
476.3394, 1596.646
476.8215, 1589.083
477.3036, 1592.810
477.7857, 1597.425
478.2679, 1597.709
478.7500, 1595.641
479.2321, 1596.620
479.7142, 1603.451
480.1963, 1606.019
480.6784, 1599.698
481.1606, 1590.111
481.6427, 1581.937
482.1248, 1575.637
482.6069, 1569.454
483.0890, 1561.661
483.5711, 1553.266
484.0533, 1550.244
484.5354, 1558.714
485.0175, 1562.402
485.4996, 1557.476
485.9817, 1548.584
486.4638, 1536.700
486.9460, 1523.277
487.4281, 1514.662
487.9102, 1520.794
488.3923, 1535.312
488.8744, 1538.249
489.3565, 1528.199
489.8387, 1513.502
490.3208, 1495.553
490.8029, 1476.961
491.2850, 1462.427
491.7671, 1451.388
492.2492, 1445.729
492.7314, 1449.625
493.2135, 1457.340
493.6956, 1463.582
494.1777, 1467.265
494.6598, 1467.656
495.1419, 1463.772
495.6241, 1456.388
496.1062, 1450.442
496.5883, 1447.417
497.0704, 1443.828
497.5525, 1439.100
498.0346, 1433.843
498.5168, 1427.861
498.9989, 1421.565
499.4810, 1416.736
499.9631, 1414.686
500.4452, 1415.279
500.9273, 1419.350
501.4095, 1428.588
501.8916, 1434.008
502.3737, 1429.679
502.8558, 1420.306
503.3379, 1413.549
503.8200, 1410.108
504.3022, 1406.973
504.7843, 1401.516
505.2664, 1396.649
505.7485, 1396.095
506.2306, 1399.858
506.7127, 1406.039
507.1949, 1414.077
507.6770, 1422.572
508.1591, 1425.291
508.6412, 1418.200
509.1233, 1410.917
509.6054, 1399.892
510.0876, 1391.960
510.5697, 1395.464
511.0518, 1408.090
511.5339, 1417.829
512.0161, 1414.362
512.4982, 1402.908
512.9803, 1399.317
513.4624, 1405.745
513.9445, 1406.185
514.4266, 1387.843
514.9088, 1367.218
515.3909, 1367.643
515.8730, 1390.874
516.3551, 1411.165
516.8372, 1421.446
517.3193, 1424.924
517.8015, 1422.856
518.2836, 1416.427
518.7657, 1408.742
519.2478, 1401.334
519.7299, 1394.263
520.2120, 1387.694
520.6942, 1381.794
521.1763, 1376.056
521.6584, 1369.322
522.1405, 1363.799
522.6226, 1362.639
523.1047, 1363.647
523.5869, 1360.710
524.0690, 1348.892
524.5511, 1335.357
525.0332, 1333.455
525.5153, 1343.097
525.9974, 1350.110
526.4796, 1350.663
526.9617, 1348.353
527.4438, 1345.487
527.9259, 1342.329
528.4080, 1342.631
528.8901, 1351.735
529.3723, 1359.686
529.8544, 1359.429
530.3365, 1353.994
530.8186, 1349.289
531.3007, 1347.338
531.7828, 1346.621
532.2650, 1344.870
532.7471, 1341.606
533.2292, 1340.337
533.7113, 1344.825
534.1934, 1346.918
534.6755, 1342.044
535.1577, 1334.165
535.6398, 1328.754
536.1219, 1327.489
536.6040, 1327.532
537.0861, 1326.386
537.5682, 1324.430
538.0504, 1322.518
538.5325, 1320.557
539.0146, 1320.251
539.4967, 1323.407
539.9788, 1329.211
540.4609, 1333.491
540.9431, 1337.141
541.4252, 1338.321
541.9073, 1334.345
542.3894, 1329.231
542.8715, 1328.309
543.3536, 1330.921
543.8358, 1330.010
544.3179, 1318.079
544.8000, 1299.909
545.2821, 1298.985
545.7642, 1324.413
546.2463, 1342.051
546.7285, 1335.838
547.2106, 1324.017
547.6927, 1321.584
548.1748, 1328.121
548.6569, 1331.490
549.1390, 1322.695
549.6211, 1310.722
550.1032, 1304.487
550.5853, 1303.717
551.0674, 1307.035
551.5496, 1314.396
552.0317, 1323.175
552.5138, 1329.280
552.9959, 1332.451
553.4780, 1333.708
553.9601, 1329.486
554.4423, 1327.432
554.9244, 1333.863
555.4065, 1343.481
555.8886, 1346.234
556.3707, 1338.183
556.8528, 1330.173
557.3350, 1339.436
557.8171, 1362.810
558.2992, 1373.328
558.7813, 1365.923
559.2634, 1353.574
559.7455, 1340.772
560.2277, 1330.204
560.7098, 1329.781
561.1919, 1348.005
561.6740, 1361.549
562.1561, 1359.299
562.6382, 1351.103
563.1204, 1345.966
563.6025, 1345.502
564.0846, 1349.580
564.5667, 1359.260
565.0488, 1371.395
565.5309, 1371.645
566.0131, 1350.954
566.4952, 1341.332
566.9773, 1364.487
567.4594, 1387.283
567.9415, 1384.985
568.4236, 1362.134
568.9058, 1343.724
569.3879, 1341.383
569.8700, 1347.004
570.3521, 1355.142
570.8342, 1364.587
571.3163, 1371.595
571.7985, 1375.116
572.2806, 1374.691
572.7627, 1368.836
573.2448, 1356.428
573.7269, 1349.139
574.2090, 1348.604
574.6912, 1350.867
575.1733, 1356.969
575.6554, 1364.306
576.1375, 1371.738
576.6196, 1378.394
577.1017, 1380.088
577.5839, 1369.171
578.0660, 1350.301
578.5481, 1338.700
579.0302, 1334.723
579.5123, 1337.318
579.9944, 1348.283
580.4766, 1363.610
580.9587, 1375.972
581.4408, 1385.682
581.9229, 1392.365
582.4050, 1393.930
582.8871, 1394.205
583.3693, 1394.564
583.8514, 1395.793
584.3335, 1400.338
584.8156, 1409.364
585.2977, 1417.549
585.7798, 1412.768
586.2620, 1392.701
586.7441, 1388.873
587.2262, 1413.127
587.7083, 1436.666
588.1904, 1440.071
588.6725, 1432.812
589.1547, 1430.500
589.6368, 1437.975
590.1189, 1443.071
590.6010, 1439.810
591.0831, 1430.941
591.5652, 1415.198
592.0474, 1395.567
592.5295, 1386.114
593.0116, 1397.390
593.4937, 1422.047
593.9758, 1437.989
594.4579, 1444.244
594.9401, 1443.907
595.4222, 1429.867
595.9043, 1415.858
596.3864, 1407.969
596.8685, 1405.636
597.3506, 1407.306
597.8328, 1415.342
598.3149, 1421.444
598.7970, 1415.384
599.2791, 1401.766
599.7612, 1393.469
600.2433, 1392.963
600.7255, 1391.942
601.2076, 1382.685
601.6897, 1366.670
602.1718, 1356.001
602.6539, 1355.332
603.1360, 1353.858
603.6182, 1350.024
604.1003, 1345.707
604.5824, 1342.095
605.0645, 1339.322
605.5466, 1337.151
606.0287, 1335.422
606.5109, 1334.233
606.9930, 1334.162
607.4751, 1334.983
607.9572, 1334.649
608.4393, 1332.328
608.9214, 1330.098
609.4036, 1330.613
609.8857, 1333.879
610.3678, 1333.641
610.8499, 1326.786
611.3320, 1320.734
611.8141, 1318.586
612.2963, 1317.177
612.7784, 1311.995
613.2605, 1303.532
613.7426, 1297.666
614.2247, 1300.288
614.7068, 1307.450
615.1890, 1308.646
615.6711, 1303.542
616.1532, 1300.508
616.6353, 1303.540
617.1174, 1306.611
617.5995, 1301.936
618.0817, 1289.307
618.5638, 1279.599
619.0459, 1273.357
619.5280, 1269.950
620.0101, 1262.046
620.4922, 1272.337
620.9744, 1277.999
621.4565, 1279.280
621.9386, 1263.058
622.4207, 1269.437
622.9028, 1266.759
623.3849, 1263.709
623.8671, 1273.269
624.3492, 1259.593
624.8313, 1268.953
625.3134, 1269.117
625.7955, 1273.491
626.2776, 1268.750
626.7598, 1266.825
627.2419, 1274.016
627.7240, 1276.159
628.2061, 1270.369
628.6882, 1275.010
629.1703, 1261.016
629.6525, 1263.374
630.1346, 1272.787
630.6167, 1267.456
631.0988, 1272.263
631.5809, 1273.209
632.0630, 1256.607
632.5452, 1270.523
633.0273, 1271.241
633.5094, 1258.407
633.9915, 1271.277
634.4736, 1260.312
634.9557, 1257.854
635.4379, 1261.799
635.9200, 1259.070
636.4021, 1266.864
636.8842, 1264.520
637.3663, 1261.270
637.8484, 1261.973
638.3306, 1251.475
638.8127, 1261.757
639.2948, 1257.845
639.7769, 1260.988
640.2590, 1265.731
640.7411, 1258.228
641.2233, 1263.689
641.7054, 1249.045
642.1875, 1251.224
642.6696, 1251.592
643.1517, 1262.712
643.6339, 1248.166
644.1160, 1249.878
644.5981, 1258.511
645.0802, 1257.459
645.5623, 1260.457
646.0444, 1251.466
646.5266, 1253.737
647.0087, 1252.904
647.4908, 1262.798
647.9729, 1264.224
648.4550, 1255.437
648.9371, 1246.693
649.4193, 1257.359
649.9014, 1245.564
650.3835, 1250.954
650.8656, 1267.393
651.3477, 1282.091
651.8298, 1293.119
652.3120, 1301.789
652.7941, 1306.594
653.2762, 1310.508
653.7583, 1318.720
654.2404, 1331.115
654.7225, 1341.502
655.2047, 1344.108
655.6868, 1341.941
656.1689, 1345.523
656.6510, 1356.033
657.1331, 1364.161
657.6152, 1363.266
658.0974, 1366.162
658.5795, 1388.369
659.0616, 1425.403
659.5437, 1457.177
660.0258, 1478.303
660.5079, 1498.514
660.9901, 1527.532
661.4722, 1553.151
661.9543, 1556.922
662.4364, 1542.605
662.9185, 1533.502
663.4006, 1546.085
663.8828, 1570.500
664.3649, 1586.002
664.8470, 1592.360
665.3291, 1596.395
665.8112, 1596.906
666.2933, 1601.006
666.7755, 1618.592
667.2576, 1644.222
667.7397, 1654.620
668.2218, 1640.688
668.7039, 1626.502
669.1860, 1620.606
669.6682, 1612.947
670.1503, 1591.298
670.6324, 1560.824
671.1145, 1537.187
671.5966, 1528.378
672.0787, 1526.869
672.5609, 1524.077
673.0430, 1519.628
673.5251, 1510.376
674.0072, 1495.405
674.4893, 1478.909
674.9714, 1462.899
675.4536, 1447.365
675.9357, 1432.155
676.4178, 1414.462
676.8999, 1403.281
677.3820, 1402.353
677.8641, 1404.412
678.3463, 1407.225
678.8284, 1409.905
679.3105, 1410.228
679.7926, 1407.501
680.2747, 1408.250
680.7568, 1426.693
681.2390, 1451.171
681.7211, 1448.632
682.2032, 1419.450
682.6853, 1395.233
683.1674, 1390.094
683.6495, 1394.629
684.1317, 1393.899
684.6138, 1385.727
685.0959, 1383.878
685.5780, 1395.401
686.0601, 1404.820
686.5422, 1410.399
687.0244, 1410.864
687.5065, 1401.040
687.9886, 1382.079
688.4707, 1369.859
688.9528, 1381.061
689.4349, 1397.706
689.9171, 1396.193
690.3992, 1383.042
690.8813, 1379.876
691.3634, 1392.300
691.8455, 1404.947
692.3276, 1401.831
692.8098, 1384.921
693.2919, 1371.330
693.7740, 1361.120
694.2561, 1354.136
694.7382, 1352.733
695.2203, 1352.455
695.7025, 1351.647
696.1846, 1349.558
696.6667, 1343.616
697.1488, 1330.529
697.6309, 1317.460
698.1130, 1308.440
698.5952, 1301.512
699.0773, 1294.119
699.5594, 1286.236
700.0415, 1279.445
700.5236, 1274.734
701.0057, 1271.443
701.4879, 1268.366
701.9700, 1265.508
702.4521, 1262.893
702.9342, 1261.142
703.4163, 1257.931
703.8984, 1250.589
704.3806, 1241.369
704.8627, 1235.913
705.3448, 1235.954
705.8269, 1234.491
706.3090, 1224.568
706.7911, 1218.854
707.2733, 1228.514
707.7554, 1246.420
708.2375, 1262.432
708.7196, 1272.983
709.2017, 1274.858
709.6838, 1259.166
710.1660, 1233.924
710.6481, 1219.676
711.1302, 1216.271
711.6123, 1216.280
712.0944, 1217.294
712.5765, 1219.934
713.0587, 1225.356
713.5408, 1233.765
714.0229, 1240.651
714.5050, 1248.449
714.9871, 1251.128
715.4692, 1244.589
715.9514, 1235.177
716.4335, 1226.551
716.9156, 1219.600
717.3977, 1215.851
717.8798, 1218.021
718.3619, 1220.568
718.8441, 1216.432
719.3262, 1210.699
719.8083, 1212.696
720.2904, 1222.993
720.7725, 1236.884
721.2546, 1252.047
721.7368, 1265.046
722.2189, 1266.664
722.7010, 1255.410
723.1831, 1242.297
723.6652, 1225.362
724.1473, 1211.951
724.6295, 1205.792
725.1116, 1206.307
725.5937, 1213.469
726.0758, 1231.521
726.5579, 1241.109
727.0400, 1234.225
727.5222, 1222.552
728.0043, 1209.543
728.4864, 1197.775
728.9685, 1189.732
729.4506, 1186.313
729.9327, 1188.459
730.4149, 1202.743
730.8970, 1220.891
731.3791, 1219.961
731.8612, 1202.499
732.3433, 1194.328
732.8254, 1204.146
733.3076, 1217.033
733.7897, 1217.026
734.2718, 1205.479
734.7539, 1200.444
735.2360, 1205.741
735.7181, 1211.221
736.2003, 1220.900
736.6824, 1225.704
737.1645, 1214.576
737.6466, 1194.243
738.1287, 1183.913
738.6108, 1192.909
739.0930, 1202.116
739.5751, 1198.651
740.0572, 1191.077
740.5393, 1189.838
741.0214, 1193.945
741.5035, 1197.427
741.9857, 1197.486
742.4678, 1194.142
742.9499, 1183.840
743.4320, 1167.917
743.9141, 1166.885
744.3962, 1183.856
744.8784, 1200.552
745.3605, 1212.004
745.8426, 1216.804
746.3247, 1211.117
746.8068, 1193.125
747.2889, 1181.657
747.7711, 1179.822
748.2532, 1179.955
748.7353, 1180.308
749.2174, 1181.813
749.6995, 1185.607
750.1816, 1191.462
750.6638, 1198.611
751.1459, 1208.938
751.6280, 1216.095
752.1101, 1211.349
752.5922, 1200.289
753.0743, 1194.227
753.5565, 1193.655
754.0386, 1190.533
754.5207, 1179.657
755.0028, 1167.254
755.4849, 1166.177
755.9670, 1177.640
756.4492, 1190.716
756.9313, 1209.391
757.4134, 1218.440
757.8955, 1203.664
758.3776, 1181.341
758.8597, 1178.932
759.3419, 1198.800
759.8240, 1210.209
760.3061, 1201.612
760.7882, 1195.076
761.2703, 1201.029
761.7524, 1211.789
762.2346, 1220.256
762.7167, 1225.017
763.1988, 1226.459
763.6809, 1223.469
764.1630, 1219.646
764.6451, 1219.313
765.1273, 1221.356
765.6094, 1221.543
766.0915, 1220.000
766.5736, 1224.125
767.0557, 1239.099
767.5378, 1259.684
768.0200, 1275.871
768.5021, 1288.506
768.9842, 1289.321
769.4663, 1269.349
769.9484, 1256.660
770.4305, 1268.278
770.9127, 1290.570
771.3948, 1304.034
771.8769, 1308.090
772.3590, 1311.740
772.8411, 1318.503
773.3232, 1321.925
773.8054, 1314.951
774.2875, 1306.409
774.7696, 1307.338
775.2517, 1316.771
775.7338, 1324.109
776.2159, 1322.833
776.6981, 1318.613
777.1802, 1317.859
777.6623, 1319.000
778.1444, 1318.214
778.6265, 1315.260
779.1086, 1312.227
779.5908, 1310.272
780.0729, 1309.058
780.5550, 1307.729
781.0371, 1306.074
781.5192, 1307.117
782.0013, 1312.992
782.4835, 1315.793
782.9656, 1311.354
783.4477, 1303.479
783.9298, 1295.356
784.4119, 1286.813
784.8940, 1284.711
785.3762, 1296.112
785.8583, 1305.238
786.3404, 1306.745
786.8225, 1305.129
787.3046, 1305.340
787.7867, 1306.153
788.2689, 1301.370
788.7510, 1286.008
789.2331, 1272.233
789.7152, 1273.755
790.1973, 1281.661
790.6794, 1281.707
791.1616, 1274.124
791.6437, 1264.997
792.1258, 1256.880
792.6079, 1250.544
793.0900, 1247.234
793.5721, 1246.719
794.0543, 1247.058
794.5364, 1248.557
795.0185, 1248.680
795.5006, 1245.769
795.9827, 1243.363
796.4648, 1245.949
796.9470, 1252.697
797.4291, 1254.608
797.9112, 1242.346
798.3933, 1238.737
798.8754, 1256.297
799.3575, 1271.333
799.8397, 1266.464
800.3218, 1250.367
800.8039, 1239.945
801.2860, 1239.225
801.7681, 1243.085
802.2502, 1254.770
802.7324, 1264.798
803.2145, 1260.624
803.6966, 1249.526
804.1787, 1246.515
804.6608, 1254.698
805.1429, 1265.326
805.6251, 1271.786
806.1072, 1274.801
806.5893, 1274.455
807.0714, 1271.491
807.5535, 1271.999
808.0356, 1277.189
808.5178, 1282.156
808.9999, 1282.319
809.4820, 1282.918
809.9641, 1299.793
810.4462, 1343.291
810.9283, 1363.891
811.4105, 1343.917
811.8926, 1329.968
812.3747, 1344.797
812.8568, 1371.540
813.3389, 1394.264
813.8210, 1412.597
814.3032, 1419.767
814.7853, 1404.121
815.2674, 1390.651
815.7495, 1386.264
816.2316, 1388.979
816.7137, 1400.846
817.1959, 1417.889
817.6780, 1429.419
818.1601, 1429.664
818.6422, 1429.729
819.1243, 1440.025
819.6064, 1455.737
820.0886, 1473.568
820.5707, 1490.147
821.0528, 1492.596
821.5349, 1477.128
822.0170, 1461.693
822.4991, 1468.612
822.9813, 1490.652
823.4634, 1495.248
823.9455, 1481.497
824.4276, 1469.337
824.9097, 1462.713
825.3918, 1459.269
825.8740, 1458.545
826.3561, 1458.668
826.8382, 1453.171
827.3203, 1439.612
827.8024, 1426.034
828.2845, 1411.802
828.7667, 1398.348
829.2488, 1385.622
829.7309, 1374.243
830.2130, 1364.878
830.6951, 1357.556
831.1772, 1352.474
831.6594, 1358.687
832.1415, 1356.125
832.6236, 1324.662
833.1057, 1288.574
833.5878, 1274.398
834.0699, 1278.832
834.5521, 1283.033
835.0342, 1279.379
835.5163, 1269.144
835.9984, 1248.359
836.4805, 1224.482
836.9626, 1208.229
837.4448, 1200.179
837.9269, 1202.788
838.4090, 1215.948
838.8911, 1224.950
839.3732, 1211.005
839.8553, 1183.294
840.3375, 1178.609
840.8196, 1197.518
841.3017, 1208.980
841.7838, 1206.216
842.2659, 1202.033
842.7480, 1204.872
843.2302, 1212.598
843.7123, 1220.150
844.1944, 1228.232
844.6765, 1233.842
845.1586, 1237.170
845.6407, 1237.738
846.1229, 1233.448
846.6050, 1227.630
847.0871, 1223.538
847.5692, 1221.069
848.0513, 1218.203
848.5334, 1219.056
849.0156, 1213.510
849.4977, 1190.996
849.9798, 1168.055
850.4619, 1158.154
850.9440, 1157.829
851.4261, 1157.713
851.9083, 1154.883
852.3904, 1152.865
852.8725, 1153.259
853.3546, 1156.212
853.8367, 1167.782
854.3188, 1180.252
854.8010, 1174.522
855.2831, 1149.816
855.7652, 1127.034
856.2473, 1122.282
856.7294, 1125.903
857.2115, 1119.439
857.6937, 1106.173
858.1758, 1100.742
858.6579, 1104.498
859.1400, 1114.657
859.6221, 1131.056
860.1042, 1145.335
860.5864, 1144.483
861.0685, 1129.146
861.5506, 1117.556
862.0327, 1110.684
862.5148, 1102.916
862.9969, 1089.496
863.4791, 1081.968
863.9612, 1092.636
864.4433, 1115.549
864.9254, 1129.072
865.4075, 1130.388
865.8896, 1128.153
866.3718, 1119.536
866.8539, 1110.884
867.3360, 1103.474
867.8181, 1097.751
868.3002, 1092.945
868.7823, 1089.489
869.2645, 1092.567
869.7466, 1114.511
870.2287, 1128.914
870.7108, 1117.193
871.1929, 1100.652
871.6750, 1097.257
872.1572, 1105.190
872.6393, 1118.048
873.1214, 1134.141
873.6035, 1144.614
874.0856, 1138.002
874.5677, 1126.692
875.0499, 1124.669
875.5320, 1128.798
876.0141, 1130.626
876.4962, 1129.554
876.9783, 1133.818
877.4604, 1150.278
877.9426, 1169.579
878.4247, 1175.910
878.9068, 1172.123
879.3889, 1166.724
879.8710, 1161.006
880.3531, 1162.744
880.8353, 1175.594
881.3174, 1188.724
881.7995, 1188.677
882.2816, 1177.689
882.7637, 1168.561
883.2458, 1160.512
883.7280, 1161.547
884.2101, 1175.416
884.6922, 1190.738
885.1743, 1201.252
885.6564, 1206.978
886.1385, 1206.657
886.6207, 1196.589
887.1028, 1197.602
887.5849, 1217.164
888.0670, 1235.868
888.5491, 1252.836
889.0313, 1263.212
889.5134, 1256.491
889.9955, 1238.431
890.4776, 1236.225
890.9597, 1267.929
891.4418, 1286.030
891.9240, 1269.961
892.4061, 1254.219
892.8882, 1260.440
893.3703, 1276.256
893.8524, 1283.841
894.3345, 1281.163
894.8167, 1278.059
895.2988, 1273.030
895.7809, 1275.145
896.2630, 1297.437
896.7451, 1323.080
897.2272, 1332.244
897.7094, 1329.502
898.1915, 1331.365
898.6736, 1343.749
899.1557, 1356.891
899.6378, 1362.083
900.1199, 1364.397
900.6021, 1369.037
901.0842, 1376.010
901.5663, 1386.843
902.0484, 1400.377
902.5305, 1410.147
903.0126, 1411.872
903.4948, 1409.260
903.9769, 1406.526
904.4590, 1404.030
904.9411, 1403.767
905.4232, 1405.285
905.9053, 1405.327
906.3875, 1402.814
906.8696, 1396.183
907.3517, 1382.335
907.8338, 1365.895
908.3159, 1364.666
908.7980, 1378.819
909.2802, 1382.581
909.7623, 1371.739
910.2444, 1363.714
910.7265, 1369.138
911.2086, 1374.509
911.6907, 1358.127
912.1729, 1320.421
912.6550, 1296.892
913.1371, 1291.963
913.6192, 1286.936
914.1013, 1277.880
914.5834, 1269.574
915.0656, 1264.922
915.5477, 1263.324
916.0298, 1263.816
916.5119, 1267.754
916.9940, 1268.554
917.4761, 1259.861
917.9583, 1257.048
918.4404, 1271.830
918.9225, 1286.764
919.4046, 1286.385
919.8867, 1274.480
920.3688, 1265.799
920.8510, 1263.772
921.3331, 1259.724
921.8152, 1250.434
922.2973, 1241.159
922.7794, 1233.231
923.2615, 1227.288
923.7437, 1225.371
924.2258, 1226.655
924.7079, 1225.286
925.1900, 1216.780
925.6721, 1209.844
926.1542, 1208.999
926.6364, 1210.215
927.1185, 1211.556
927.6006, 1212.127
928.0827, 1210.608
928.5648, 1206.890
929.0469, 1203.122
929.5291, 1199.464
930.0112, 1197.394
930.4933, 1199.929
930.9754, 1203.386
931.4575, 1204.531
931.9396, 1202.202
932.4218, 1192.033
932.9039, 1172.749
933.3860, 1160.133
933.8681, 1174.396
934.3502, 1197.622
934.8323, 1208.079
935.3145, 1209.237
935.7966, 1207.293
936.2787, 1203.715
936.7608, 1198.477
937.2429, 1191.483
937.7250, 1184.332
938.2072, 1180.766
938.6893, 1177.732
939.1714, 1163.252
939.6535, 1142.468
940.1356, 1140.372
940.6177, 1160.163
941.0999, 1173.560
941.5820, 1159.128
942.0641, 1134.955
942.5462, 1138.690
943.0283, 1162.605
943.5104, 1160.892
943.9926, 1134.499
944.4747, 1124.013
944.9568, 1142.321
945.4389, 1163.373
945.9210, 1163.177
946.4031, 1149.717
946.8853, 1145.863
947.3674, 1151.547
947.8495, 1152.739
948.3316, 1148.023
948.8137, 1145.240
949.2958, 1147.691
949.7780, 1151.595
950.2601, 1152.208
950.7422, 1150.961
951.2243, 1156.586
951.7064, 1170.783
952.1885, 1180.615
952.6707, 1184.243
953.1528, 1185.475
953.6349, 1185.549
954.1170, 1184.925
954.5991, 1183.042
955.0812, 1180.389
955.5634, 1189.089
956.0455, 1215.652
956.5276, 1233.453
957.0097, 1238.675
957.4918, 1235.693
957.9739, 1222.987
958.4561, 1207.596
958.9382, 1200.807
959.4203, 1202.922
959.9024, 1209.981
960.3845, 1230.651
960.8666, 1238.111
961.3488, 1216.517
961.8309, 1197.350
962.3130, 1203.294
962.7951, 1222.738
963.2772, 1231.912
963.7593, 1227.245
964.2415, 1231.526
964.7236, 1255.476
965.2057, 1272.783
965.6878, 1275.719
966.1699, 1273.986
966.6520, 1269.489
967.1342, 1265.851
967.6163, 1273.758
968.0984, 1299.828
968.5805, 1311.629
969.0626, 1296.015
969.5447, 1281.560
970.0269, 1272.230
970.5090, 1269.494
970.9911, 1275.298
971.4732, 1288.352
971.9553, 1307.031
972.4374, 1335.720
972.9196, 1353.737
973.4017, 1345.926
973.8838, 1342.964
974.3659, 1359.689
974.8480, 1382.382
975.3301, 1400.266
975.8123, 1413.515
976.2944, 1423.805
976.7765, 1428.457
977.2586, 1440.031
977.7407, 1465.429
978.2228, 1493.262
978.7050, 1526.565
979.1871, 1553.604
979.6692, 1556.821
980.1513, 1543.503
980.6334, 1541.253
981.1155, 1558.749
981.5977, 1578.745
982.0798, 1596.389
982.5619, 1614.966
983.0440, 1639.081
983.5261, 1663.120
984.0082, 1680.089
984.4904, 1691.095
984.9725, 1702.237
985.4546, 1714.474
985.9367, 1728.908
986.4188, 1746.756
986.9009, 1766.088
987.3831, 1788.030
987.8652, 1809.321
988.3473, 1822.379
988.8294, 1830.524
989.3115, 1850.085
989.7936, 1892.227
990.2758, 1927.431
990.7579, 1939.235
991.2400, 1944.817
991.7221, 1950.541
992.2042, 1959.493
992.6863, 1980.936
993.1685, 2009.459
993.6506, 2020.767
994.1327, 2001.734
994.6148, 1979.664
995.0969, 1963.290
995.5790, 1951.595
996.0612, 1950.752
996.5433, 1949.840
997.0254, 1937.083
997.5075, 1910.979
997.9896, 1872.365
998.4717, 1815.769
998.9539, 1764.306
999.4360, 1732.333
999.9181, 1704.913
1000.400, 1672.289
1000.882, 1637.936
1001.364, 1606.493
1001.847, 1578.398
1002.329, 1552.871
1002.811, 1530.262
1003.293, 1508.098
1003.775, 1485.659
1004.257, 1462.616
1004.739, 1437.695
1005.221, 1412.931
1005.703, 1390.603
1006.186, 1371.089
1006.668, 1354.419
1007.150, 1342.068
1007.632, 1328.009
1008.114, 1305.928
1008.596, 1285.212
1009.078, 1271.245
1009.560, 1262.663
1010.043, 1258.494
1010.525, 1257.742
1011.007, 1258.961
1011.489, 1263.635
1011.971, 1263.012
1012.453, 1246.423
1012.935, 1231.276
1013.417, 1227.194
1013.899, 1231.068
1014.382, 1245.690
1014.864, 1264.427
1015.346, 1266.416
1015.828, 1240.654
1016.310, 1221.080
1016.792, 1228.285
1017.274, 1236.096
1017.756, 1225.474
1018.239, 1212.075
1018.721, 1215.343
1019.203, 1230.314
1019.685, 1236.680
1020.167, 1226.967
1020.649, 1223.005
1021.131, 1235.298
1021.613, 1250.702
1022.095, 1266.650
1022.578, 1280.010
1023.060, 1284.167
1023.542, 1284.309
1024.024, 1293.598
1024.506, 1315.229
1024.988, 1340.467
1025.470, 1372.075
1025.952, 1400.214
1026.435, 1413.395
1026.917, 1428.615
1027.399, 1460.931
1027.881, 1505.237
1028.363, 1550.318
1028.845, 1594.974
1029.327, 1637.484
1029.809, 1667.061
1030.292, 1708.905
1030.774, 1773.411
1031.256, 1848.934
1031.738, 1935.856
1032.220, 2024.887
1032.702, 2094.912
1033.184, 2141.516
1033.666, 2212.873
1034.148, 2335.555
1034.630, 2450.919
1035.113, 2550.837
1035.595, 2639.835
1036.077, 2711.774
1036.559, 2778.601
1037.041, 2859.616
1037.523, 2955.982
1038.005, 3042.336
1038.487, 3113.168
1038.970, 3182.374
1039.452, 3251.991
1039.934, 3318.985
1040.416, 3381.602
1040.898, 3440.894
1041.380, 3502.475
1041.862, 3563.936
1042.344, 3598.624
1042.826, 3598.305
1043.309, 3588.700
1043.791, 3571.000
1044.273, 3543.391
1044.755, 3505.111
1045.237, 3456.006
1045.719, 3393.194
1046.201, 3319.731
1046.683, 3249.900
1047.166, 3185.640
1047.648, 3117.277
1048.130, 3046.864
1048.612, 2964.578
1049.094, 2863.109
1049.576, 2760.618
1050.058, 2674.208
1050.540, 2596.666
1051.022, 2508.438
1051.505, 2408.866
1051.987, 2304.458
1052.469, 2193.522
1052.951, 2093.222
1053.433, 2008.895
1053.915, 1927.750
1054.397, 1839.596
1054.879, 1751.492
1055.361, 1675.042
1055.844, 1610.019
1056.326, 1552.269
1056.808, 1501.412
1057.290, 1458.993
1057.772, 1425.309
1058.254, 1393.881
1058.736, 1361.218
1059.218, 1330.855
1059.701, 1307.525
1060.183, 1290.515
1060.665, 1276.868
1061.147, 1267.178
1061.629, 1267.857
1062.111, 1277.772
1062.593, 1283.521
1063.075, 1279.836
1063.557, 1268.727
1064.040, 1249.080
1064.522, 1229.618
1065.004, 1231.185
1065.486, 1243.898
1065.968, 1240.006
1066.450, 1224.249
1066.932, 1220.774
1067.414, 1234.896
1067.896, 1253.739
1068.379, 1270.433
1068.861, 1280.902
1069.343, 1276.471
1069.825, 1266.052
1070.307, 1260.849
1070.789, 1259.954
1071.271, 1261.383
1071.753, 1263.811
1072.236, 1263.917
1072.718, 1259.541
1073.200, 1257.523
1073.682, 1266.239
1074.164, 1275.718
1074.646, 1272.930
1075.128, 1269.462
1075.610, 1286.758
1076.093, 1314.889
1076.575, 1321.222
1077.057, 1296.308
1077.539, 1278.742
1078.021, 1290.967
1078.503, 1306.673
1078.985, 1316.387
1079.467, 1322.607
1079.949, 1324.657
1080.432, 1326.047
1080.914, 1334.502
1081.396, 1350.019
1081.878, 1356.962
1082.360, 1343.060
1082.842, 1334.988
1083.324, 1338.986
1083.806, 1346.940
1084.288, 1356.266
1084.771, 1366.975
1085.253, 1382.093
1085.735, 1399.070
1086.217, 1405.013
1086.699, 1395.304
1087.181, 1386.575
1087.663, 1377.844
1088.145, 1371.719
1088.628, 1366.416
1089.110, 1369.623
1089.592, 1392.839
1090.074, 1421.208
1090.556, 1419.425
1091.038, 1385.765
1091.520, 1373.644
1092.002, 1386.998
1092.484, 1397.058
1092.967, 1398.833
1093.449, 1400.560
1093.931, 1407.193
1094.413, 1410.932
1094.895, 1399.488
1095.377, 1379.854
1095.859, 1381.907
1096.341, 1401.634
1096.823, 1406.971
1097.306, 1396.450
1097.788, 1381.492
1098.270, 1366.578
1098.752, 1359.961
1099.234, 1369.776
1099.716, 1384.922
1100.198, 1388.080
1100.680, 1384.338
1101.163, 1387.465
1101.645, 1391.721
1102.127, 1375.952
1102.609, 1343.263
1103.091, 1322.923
1103.573, 1329.307
1104.055, 1340.350
1104.537, 1336.251
1105.020, 1330.307
1105.502, 1339.484
1105.984, 1350.311
1106.466, 1342.015
1106.948, 1322.798
1107.430, 1315.273
1107.912, 1323.513
1108.394, 1328.367
1108.876, 1318.679
1109.359, 1309.316
1109.841, 1305.703
1110.323, 1304.214
1110.805, 1305.691
1111.287, 1305.949
1111.769, 1297.166
1112.251, 1281.992
1112.733, 1275.613
1113.215, 1284.167
1113.698, 1289.691
1114.180, 1292.668
1114.662, 1290.564
1115.144, 1275.973
1115.626, 1266.096
1116.108, 1274.978
1116.590, 1293.747
1117.072, 1307.487
1117.555, 1316.225
1118.037, 1308.613
1118.519, 1278.574
1119.001, 1270.114
1119.483, 1292.861
1119.965, 1305.633
1120.447, 1289.393
1120.929, 1269.130
1121.411, 1271.375
1121.894, 1286.722
1122.376, 1291.375
1122.858, 1287.053
1123.340, 1281.071
1123.822, 1274.663
1124.304, 1272.095
1124.786, 1274.158
1125.268, 1279.644
1125.750, 1288.240
1126.233, 1293.623
1126.715, 1285.133
1127.197, 1272.158
1127.679, 1264.407
1128.161, 1263.222
1128.643, 1275.097
1129.125, 1294.285
1129.607, 1306.570
1130.090, 1308.382
1130.572, 1305.362
1131.054, 1296.854
1131.536, 1290.430
1132.018, 1291.110
1132.500, 1293.970
1132.982, 1296.158
1133.464, 1298.212
1133.947, 1302.596
1134.429, 1307.743
1134.911, 1305.606
1135.393, 1288.391
1135.875, 1287.397
1136.357, 1323.515
1136.839, 1348.571
1137.321, 1350.766
1137.803, 1344.915
1138.286, 1334.288
1138.768, 1326.848
1139.250, 1336.863
1139.732, 1361.349
1140.214, 1371.190
1140.696, 1364.260
1141.178, 1358.741
1141.660, 1355.676
1142.142, 1356.048
1142.625, 1360.422
1143.107, 1363.273
1143.589, 1359.462
1144.071, 1356.064
1144.553, 1367.236
1145.035, 1388.201
1145.517, 1408.690
1145.999, 1425.526
1146.482, 1426.568
1146.964, 1414.073
1147.446, 1404.094
1147.928, 1402.280
1148.410, 1397.329
1148.892, 1375.101
1149.374, 1356.287
1149.856, 1363.350
1150.339, 1379.012
1150.821, 1389.513
1151.303, 1394.782
1151.785, 1394.517
1152.267, 1390.838
1152.749, 1391.355
1153.231, 1399.273
1153.713, 1405.912
1154.195, 1406.850
1154.677, 1409.716
1155.160, 1424.483
1155.642, 1433.023
1156.124, 1415.942
1156.606, 1393.099
1157.088, 1396.475
1157.570, 1422.766
1158.052, 1431.175
1158.534, 1415.666
1159.017, 1410.565
1159.499, 1419.111
1159.981, 1429.893
1160.463, 1440.415
1160.945, 1443.655
1161.427, 1433.021
1161.909, 1420.280
1162.391, 1428.939
1162.874, 1450.367
1163.356, 1452.916
1163.838, 1443.525
1164.320, 1446.038
1164.802, 1459.477
1165.284, 1466.861
1165.766, 1463.530
1166.248, 1461.226
1166.730, 1468.742
1167.213, 1477.332
1167.695, 1477.645
1168.177, 1478.052
1168.659, 1490.307
1169.141, 1503.979
1169.623, 1501.917
1170.105, 1489.989
1170.587, 1489.768
1171.069, 1506.959
1171.552, 1519.491
1172.034, 1514.981
1172.516, 1519.291
1172.998, 1548.916
1173.480, 1569.609
1173.962, 1562.239
1174.444, 1545.783
1174.926, 1539.016
1175.409, 1539.941
1175.891, 1542.500
1176.373, 1546.980
1176.855, 1547.483
1177.337, 1543.772
1177.819, 1548.251
1178.301, 1563.043
1178.783, 1579.103
1179.266, 1592.073
1179.748, 1599.166
1180.230, 1595.135
1180.712, 1587.575
1181.194, 1591.613
1181.676, 1598.878
1182.158, 1590.474
1182.640, 1575.517
1183.122, 1576.314
1183.604, 1592.602
1184.087, 1606.347
1184.569, 1610.344
1185.051, 1616.379
1185.533, 1637.250
1186.015, 1651.154
1186.497, 1640.948
1186.979, 1629.133
1187.461, 1634.643
1187.944, 1645.947
1188.426, 1643.413
1188.908, 1630.569
1189.390, 1630.495
1189.872, 1648.638
1190.354, 1660.151
1190.836, 1663.977
1191.318, 1666.209
1191.801, 1668.441
1192.283, 1666.184
1192.765, 1656.115
1193.247, 1646.661
1193.729, 1649.237
1194.211, 1658.838
1194.693, 1663.798
1195.175, 1665.631
1195.657, 1669.417
1196.140, 1673.573
1196.622, 1671.343
1197.104, 1663.179
1197.586, 1657.634
1198.068, 1658.706
1198.550, 1660.290
1199.032, 1654.779
1199.514, 1653.607
1199.996, 1667.936
1200.479, 1684.376
1200.961, 1696.238
1201.443, 1701.067
1201.925, 1691.784
1202.407, 1671.458
1202.889, 1664.374
1203.371, 1678.194
1203.853, 1679.612
1204.336, 1662.016
1204.818, 1655.095
1205.300, 1667.955
1205.782, 1675.636
1206.264, 1663.119
1206.746, 1650.981
1207.228, 1666.801
1207.710, 1694.855
1208.193, 1692.829
1208.675, 1671.630
1209.157, 1660.657
1209.639, 1659.421
1210.121, 1662.246
1210.603, 1667.483
1211.085, 1675.268
1211.567, 1685.786
1212.049, 1693.592
1212.531, 1690.849
1213.014, 1690.676
1213.496, 1701.868
1213.978, 1715.999
1214.460, 1732.077
1214.942, 1744.117
1215.424, 1743.025
1215.906, 1731.922
1216.388, 1722.446
1216.871, 1714.174
1217.353, 1710.679
1217.835, 1713.170
1218.317, 1715.716
1218.799, 1717.883
1219.281, 1716.781
1219.763, 1710.916
1220.245, 1705.086
1220.728, 1703.488
1221.210, 1705.183
1221.692, 1709.955
1222.174, 1715.933
1222.656, 1720.157
1223.138, 1722.094
1223.620, 1718.981
1224.102, 1713.122
1224.584, 1711.005
1225.067, 1714.213
1225.549, 1719.505
1226.031, 1727.215
1226.513, 1733.388
1226.995, 1739.447
1227.477, 1740.145
1227.959, 1723.881
1228.441, 1711.578
##END=



