##NAMES=Molybdite
##RRUFFID=R100217
##IDEAL CHEMISTRY=Mo^6+^O_3_
##LOCALITY=Mining concentrate
##OWNER=RRUFF
##SOURCE=Mike Carducci, Climax Molybdenum Technology Center
##DESCRIPTION=Gray unconsolidated powder
##STATUS=The identification of this mineral has been confirmed by X-ray diffraction.
##URL=rruff.info/R100217
91.03516, 43.57317
91.51727, 45.05593
91.99939, 43.28659
92.48151, 39.52109
92.96362, 37.32553
93.44574, 40.75602
93.92786, 46.81928
94.40997, 48.50410
94.89210, 44.49949
95.37421, 38.60384
95.85633, 36.85368
96.33845, 39.04882
96.82056, 41.27194
97.30268, 40.27228
97.78480, 36.49755
98.26691, 34.69555
98.74903, 35.97684
99.23115, 39.19670
99.71326, 41.05339
100.1954, 41.28500
100.6775, 41.09255
101.1596, 41.68871
101.6417, 43.46643
102.1239, 43.95562
102.6060, 42.17228
103.0881, 38.32280
103.5702, 36.24242
104.0523, 36.30174
104.5344, 37.65118
105.0166, 39.73388
105.4987, 43.86077
105.9808, 46.29734
106.4629, 45.59438
106.9450, 40.61547
107.4271, 37.68506
107.9093, 37.98262
108.3914, 39.89550
108.8735, 41.01192
109.3556, 40.36063
109.8377, 39.80041
110.3198, 39.83226
110.8020, 40.62548
111.2841, 41.67929
111.7662, 42.94582
112.2483, 44.46576
112.7304, 46.32728
113.2125, 50.52334
113.6947, 53.68444
114.1768, 54.09454
114.6589, 49.29026
115.1410, 44.71555
115.6231, 40.88073
116.1052, 38.06315
116.5874, 37.26339
117.0695, 41.32524
117.5516, 46.34162
118.0337, 49.28785
118.5158, 47.84628
118.9980, 45.50933
119.4801, 43.51463
119.9622, 41.87775
120.4443, 40.64519
120.9264, 38.98267
121.4085, 37.95603
121.8907, 38.88457
122.3728, 45.46161
122.8549, 52.22953
123.3370, 54.17678
123.8191, 51.02857
124.3012, 46.69365
124.7834, 43.32124
125.2655, 41.03990
125.7476, 40.12364
126.2297, 41.58696
126.7118, 44.22700
127.1939, 46.54805
127.6761, 48.55606
128.1582, 49.76018
128.6403, 49.06343
129.1224, 46.81730
129.6045, 44.71773
130.0867, 43.84283
130.5688, 43.88736
131.0509, 43.68385
131.5330, 42.83081
132.0151, 42.30552
132.4972, 44.65624
132.9794, 49.88991
133.4615, 54.26173
133.9436, 53.49363
134.4257, 48.20124
134.9078, 47.17956
135.3899, 52.54771
135.8721, 62.17677
136.3542, 69.37595
136.8363, 73.16750
137.3184, 78.91557
137.8005, 90.45616
138.2826, 108.0363
138.7648, 130.4301
139.2469, 157.1740
139.7290, 188.6364
140.2111, 225.9990
140.6932, 270.5937
141.1753, 319.2270
141.6575, 367.6862
142.1396, 414.4570
142.6217, 466.6492
143.1038, 526.1191
143.5859, 593.6635
144.0681, 662.8853
144.5502, 734.3932
145.0323, 807.5574
145.5144, 883.0296
145.9965, 960.3127
146.4786, 1040.042
146.9608, 1120.960
147.4429, 1204.438
147.9250, 1288.402
148.4071, 1372.476
148.8892, 1457.403
149.3713, 1542.453
149.8535, 1627.545
150.3356, 1713.921
150.8177, 1799.915
151.2998, 1876.303
151.7819, 1972.244
152.2640, 2078.890
152.7462, 2206.300
153.2283, 2370.678
153.7104, 2563.275
154.1925, 2800.880
154.6746, 3090.592
155.1567, 3439.802
155.6389, 3822.098
156.1210, 4266.765
156.6031, 4746.180
157.0852, 5196.983
157.5673, 5680.964
158.0495, 6079.655
158.5316, 6342.286
159.0137, 6473.503
159.4958, 6441.905
159.9779, 6200.137
160.4600, 5780.709
160.9422, 5289.842
161.4243, 4686.976
161.9064, 4068.320
162.3885, 3498.668
162.8706, 2968.562
163.3527, 2510.045
163.8349, 2140.169
164.3170, 1852.243
164.7991, 1614.237
165.2812, 1425.418
165.7633, 1273.589
166.2454, 1148.041
166.7276, 1052.841
167.2097, 976.4738
167.6918, 914.8768
168.1739, 867.6907
168.6560, 827.1198
169.1381, 788.9750
169.6203, 754.6407
170.1024, 724.4473
170.5845, 695.2102
171.0666, 674.2949
171.5487, 655.7098
172.0309, 639.4421
172.5130, 625.1832
172.9951, 612.9213
173.4772, 602.4586
173.9593, 593.4811
174.4414, 585.4850
174.9236, 579.0834
175.4057, 575.3833
175.8878, 574.3220
176.3699, 574.5091
176.8520, 573.1198
177.3341, 571.9677
177.8163, 575.1027
178.2984, 584.7471
178.7805, 599.3379
179.2626, 617.2650
179.7447, 638.2601
180.2268, 661.2652
180.7090, 686.5101
181.1911, 713.0062
181.6732, 737.3837
182.1553, 759.4509
182.6374, 778.1706
183.1195, 789.1628
183.6017, 791.5328
184.0838, 791.8310
184.5659, 797.4857
185.0480, 807.7845
185.5301, 819.5405
186.0123, 830.6678
186.4944, 841.9717
186.9765, 855.6530
187.4586, 871.9866
187.9407, 890.3378
188.4228, 909.8367
188.9050, 930.4268
189.3871, 952.9147
189.8692, 975.9535
190.3513, 1000.366
190.8334, 1030.390
191.3155, 1065.044
191.7977, 1107.764
192.2798, 1163.179
192.7619, 1231.185
193.2440, 1311.695
193.7261, 1406.726
194.2082, 1515.451
194.6904, 1634.502
195.1725, 1765.370
195.6546, 1903.345
196.1367, 2039.539
196.6188, 2175.697
197.1009, 2298.020
197.5831, 2417.965
198.0652, 2536.501
198.5473, 2565.017
199.0294, 2490.418
199.5115, 2336.527
199.9937, 2130.536
200.4758, 1864.860
200.9579, 1611.653
201.4400, 1410.060
201.9221, 1260.998
202.4042, 1149.186
202.8864, 1078.365
203.3685, 1039.297
203.8506, 1012.947
204.3327, 1000.669
204.8148, 996.2656
205.2969, 997.3674
205.7791, 1004.365
206.2612, 1013.805
206.7433, 1025.319
207.2254, 1039.249
207.7075, 1056.529
208.1896, 1077.383
208.6718, 1101.058
209.1539, 1127.421
209.6360, 1156.159
210.1181, 1187.222
210.6002, 1218.794
211.0823, 1253.629
211.5645, 1299.030
212.0466, 1354.917
212.5287, 1422.161
213.0108, 1501.540
213.4929, 1594.457
213.9750, 1695.947
214.4572, 1808.270
214.9393, 1927.753
215.4214, 2048.309
215.9035, 2173.141
216.3856, 2293.623
216.8678, 2409.954
217.3499, 2539.141
217.8320, 2614.269
218.3141, 2628.578
218.7962, 2587.801
219.2783, 2502.340
219.7605, 2355.751
220.2426, 2195.661
220.7247, 2044.849
221.2068, 1899.626
221.6889, 1775.050
222.1710, 1673.669
222.6532, 1593.266
223.1353, 1530.957
223.6174, 1488.828
224.0995, 1460.196
224.5816, 1442.040
225.0637, 1434.871
225.5459, 1436.429
226.0280, 1446.490
226.5101, 1465.237
226.9922, 1493.341
227.4743, 1533.681
227.9564, 1579.138
228.4386, 1627.265
228.9207, 1677.437
229.4028, 1729.711
229.8849, 1785.115
230.3670, 1842.422
230.8492, 1899.999
231.3313, 1957.105
231.8134, 2014.704
232.2955, 2073.477
232.7776, 2130.072
233.2597, 2193.738
233.7419, 2266.557
234.2240, 2346.162
234.7061, 2424.057
235.1882, 2497.417
235.6703, 2573.134
236.1524, 2655.135
236.6346, 2745.239
237.1167, 2836.597
237.5988, 2927.067
238.0809, 3019.634
238.5630, 3123.456
239.0451, 3241.119
239.5273, 3365.074
240.0094, 3491.753
240.4915, 3618.947
240.9736, 3756.237
241.4557, 3909.630
241.9378, 4071.156
242.4200, 4225.124
242.9021, 4377.693
243.3842, 4515.835
243.8663, 4639.075
244.3484, 4758.661
244.8306, 4831.001
245.3127, 4859.750
245.7948, 4839.211
246.2769, 4756.046
246.7590, 4602.022
247.2411, 4401.290
247.7233, 4154.273
248.2054, 3845.241
248.6875, 3545.883
249.1696, 3252.381
249.6517, 2973.927
250.1338, 2727.554
250.6160, 2516.083
251.0981, 2330.819
251.5802, 2172.139
252.0623, 2040.829
252.5444, 1926.914
253.0265, 1832.929
253.5087, 1755.040
253.9908, 1690.138
254.4729, 1639.379
254.9550, 1598.298
255.4371, 1566.475
255.9192, 1544.802
256.4014, 1526.850
256.8835, 1510.859
257.3656, 1500.353
257.8477, 1499.509
258.3298, 1510.044
258.8120, 1526.433
259.2941, 1547.223
259.7762, 1572.402
260.2583, 1603.866
260.7404, 1641.130
261.2225, 1685.589
261.7047, 1739.642
262.1868, 1803.597
262.6689, 1876.471
263.1510, 1957.295
263.6331, 2045.550
264.1152, 2150.267
264.5974, 2268.473
265.0795, 2406.943
265.5616, 2572.198
266.0437, 2775.323
266.5258, 2976.126
267.0079, 3163.165
267.4901, 3341.126
267.9722, 3536.743
268.4543, 3755.796
268.9364, 3985.325
269.4185, 4214.805
269.9006, 4442.050
270.3828, 4677.317
270.8649, 4921.753
271.3470, 5176.776
271.8291, 5451.468
272.3112, 5747.344
272.7933, 6067.470
273.2755, 6409.552
273.7576, 6772.077
274.2397, 7167.032
274.7218, 7596.835
275.2039, 8056.038
275.6860, 8526.932
276.1682, 9012.986
276.6503, 9514.164
277.1324, 10034.08
277.6145, 10568.47
278.0966, 11117.87
278.5787, 11682.42
279.0609, 12259.70
279.5430, 12858.55
280.0251, 13479.45
280.5072, 14104.05
280.9893, 14737.36
281.4715, 15374.23
281.9536, 15972.21
282.4357, 16535.96
282.9178, 17048.42
283.3999, 17498.79
283.8820, 17890.28
284.3642, 18158.58
284.8463, 18261.84
285.3284, 18205.47
285.8105, 18040.30
286.2926, 17746.25
286.7747, 17406.06
287.2569, 17110.71
287.7390, 16860.85
288.2211, 16678.44
288.7032, 16588.02
289.1853, 16575.23
289.6674, 16592.50
290.1496, 16648.21
290.6317, 16681.76
291.1138, 16676.18
291.5959, 16612.99
292.0780, 16371.77
292.5602, 15924.39
293.0423, 15268.77
293.5244, 14348.70
294.0065, 13160.96
294.4886, 11874.05
294.9707, 10554.86
295.4529, 9232.187
295.9350, 8037.435
296.4171, 6994.020
296.8992, 6088.029
297.3813, 5318.816
297.8634, 4685.962
298.3456, 4152.266
298.8277, 3719.695
299.3098, 3369.557
299.7919, 3067.349
300.2740, 2813.596
300.7561, 2595.783
301.2383, 2411.506
301.7204, 2255.987
302.2025, 2120.334
302.6846, 2001.400
303.1667, 1896.781
303.6488, 1800.643
304.1310, 1713.134
304.6131, 1633.820
305.0952, 1564.262
305.5773, 1503.658
306.0594, 1450.073
306.5415, 1405.205
307.0237, 1365.084
307.5058, 1324.163
307.9879, 1281.657
308.4700, 1242.085
308.9521, 1208.183
309.4343, 1179.503
309.9164, 1154.397
310.3985, 1133.432
310.8806, 1114.654
311.3627, 1096.603
311.8448, 1079.046
312.3270, 1062.742
312.8091, 1046.969
313.2912, 1033.035
313.7733, 1022.484
314.2554, 1016.672
314.7375, 1013.681
315.2197, 1012.853
315.7018, 1014.109
316.1839, 1017.009
316.6660, 1018.056
317.1481, 1022.398
317.6302, 1034.117
318.1124, 1054.222
318.5945, 1081.692
319.0766, 1114.038
319.5587, 1153.043
320.0408, 1205.109
320.5229, 1276.920
321.0051, 1359.036
321.4872, 1447.673
321.9693, 1546.137
322.4514, 1641.844
322.9335, 1737.199
323.4156, 1827.696
323.8978, 1904.643
324.3799, 1957.796
324.8620, 2004.793
325.3441, 2050.823
325.8262, 2094.381
326.3083, 2141.429
326.7905, 2189.396
327.2726, 2242.283
327.7547, 2304.303
328.2368, 2374.046
328.7189, 2454.964
329.2010, 2545.844
329.6832, 2644.827
330.1653, 2764.310
330.6474, 2900.487
331.1295, 3059.756
331.6116, 3248.046
332.0938, 3458.907
332.5759, 3710.861
333.0580, 4011.020
333.5401, 4357.299
334.0222, 4714.014
334.5043, 5091.142
334.9865, 5469.017
335.4686, 5842.251
335.9507, 6219.405
336.4328, 6578.346
336.9149, 6948.786
337.3970, 7290.095
337.8792, 7503.946
338.3613, 7619.786
338.8434, 7538.239
339.3255, 7183.362
339.8076, 6522.141
340.2898, 5807.005
340.7719, 5000.253
341.2540, 4193.879
341.7361, 3495.260
342.2182, 2916.599
342.7003, 2440.595
343.1825, 2080.787
343.6646, 1825.155
344.1467, 1622.729
344.6288, 1474.810
345.1109, 1364.483
345.5930, 1277.484
346.0752, 1214.101
346.5573, 1166.031
347.0394, 1133.197
347.5215, 1112.364
348.0036, 1095.898
348.4857, 1083.931
348.9679, 1077.989
349.4500, 1081.322
349.9321, 1091.724
350.4142, 1102.557
350.8963, 1112.486
351.3784, 1123.407
351.8606, 1136.901
352.3427, 1153.071
352.8248, 1172.722
353.3069, 1197.204
353.7890, 1224.874
354.2711, 1253.833
354.7533, 1283.734
355.2354, 1315.650
355.7175, 1350.807
356.1996, 1388.269
356.6817, 1426.399
357.1638, 1462.982
357.6460, 1501.037
358.1281, 1542.808
358.6102, 1588.147
359.0923, 1637.535
359.5744, 1690.236
360.0565, 1747.099
360.5387, 1809.179
361.0208, 1879.966
361.5029, 1952.301
361.9850, 2022.568
362.4671, 2091.529
362.9492, 2160.595
363.4314, 2233.124
363.9135, 2303.823
364.3956, 2370.931
364.8777, 2437.641
365.3598, 2493.005
365.8419, 2533.551
366.3241, 2561.774
366.8062, 2581.016
367.2883, 2584.110
367.7704, 2585.633
368.2526, 2587.904
368.7347, 2590.109
369.2168, 2598.637
369.6989, 2612.085
370.1810, 2632.695
370.6631, 2662.284
371.1453, 2698.994
371.6274, 2747.463
372.1095, 2807.513
372.5916, 2879.977
373.0737, 2967.775
373.5558, 3074.087
374.0380, 3192.021
374.5201, 3319.247
375.0022, 3453.947
375.4843, 3603.508
375.9664, 3781.382
376.4485, 3962.536
376.9307, 4100.927
377.4128, 4191.307
377.8949, 4256.881
378.3770, 4313.839
378.8591, 4359.827
379.3412, 4345.951
379.8234, 4271.256
380.3055, 4140.570
380.7876, 3952.485
381.2697, 3707.175
381.7518, 3432.876
382.2339, 3124.059
382.7161, 2801.968
383.1982, 2505.731
383.6803, 2237.806
384.1624, 1996.362
384.6445, 1783.758
385.1266, 1598.976
385.6088, 1441.263
386.0909, 1313.092
386.5730, 1204.713
387.0551, 1109.558
387.5372, 1027.365
388.0193, 955.7548
388.5015, 897.2830
388.9836, 847.6606
389.4657, 802.7603
389.9478, 762.3571
390.4299, 726.5447
390.9120, 696.7271
391.3942, 671.0118
391.8763, 647.5175
392.3584, 625.0900
392.8405, 605.1508
393.3226, 589.6022
393.8047, 577.6086
394.2869, 565.3422
394.7690, 548.9183
395.2511, 533.3920
395.7332, 522.3198
396.2154, 518.8206
396.6975, 514.4357
397.1796, 506.3708
397.6617, 496.4081
398.1438, 487.6772
398.6259, 481.0970
399.1081, 475.2074
399.5902, 469.9538
400.0723, 465.5457
400.5544, 460.0914
401.0365, 451.5263
401.5186, 443.4190
402.0008, 439.1425
402.4829, 442.0858
402.9650, 442.1852
403.4471, 436.8765
403.9292, 427.8835
404.4113, 423.0381
404.8935, 424.1081
405.3756, 425.1833
405.8577, 422.9402
406.3398, 416.8961
406.8219, 411.1584
407.3040, 405.4935
407.7862, 400.6636
408.2683, 397.8551
408.7504, 397.1084
409.2325, 397.2313
409.7146, 398.5406
410.1967, 400.2609
410.6789, 399.4955
411.1610, 396.1761
411.6431, 392.2905
412.1252, 389.2363
412.6073, 386.9738
413.0894, 385.5751
413.5716, 385.3593
414.0537, 385.3961
414.5358, 384.5898
415.0179, 383.0921
415.5000, 381.3758
415.9821, 379.9430
416.4643, 378.2979
416.9464, 375.2570
417.4285, 370.5748
417.9106, 367.3326
418.3927, 368.9930
418.8748, 372.7238
419.3570, 375.1352
419.8391, 373.7172
420.3212, 372.1048
420.8033, 371.8808
421.2854, 372.7979
421.7675, 373.6528
422.2497, 374.7337
422.7318, 375.1790
423.2139, 374.2950
423.6960, 370.8971
424.1781, 368.6337
424.6602, 369.2642
425.1424, 370.8998
425.6245, 370.7046
426.1066, 366.2634
426.5887, 363.0496
427.0709, 362.4366
427.5530, 364.4202
428.0351, 366.6773
428.5172, 369.9488
428.9993, 372.5014
429.4814, 372.5883
429.9636, 369.0609
430.4457, 367.7071
430.9278, 369.7140
431.4099, 373.4329
431.8920, 375.0382
432.3741, 374.2468
432.8563, 373.6388
433.3384, 374.3394
433.8205, 376.2426
434.3026, 379.0335
434.7847, 382.9217
435.2668, 386.1561
435.7490, 385.7732
436.2311, 382.9989
436.7132, 382.4002
437.1953, 386.0099
437.6774, 391.1608
438.1595, 394.5020
438.6417, 396.3070
439.1238, 397.7056
439.6059, 398.4807
440.0880, 399.6577
440.5701, 402.7529
441.0522, 408.2529
441.5344, 413.4643
442.0165, 415.4502
442.4986, 416.5732
442.9807, 419.7218
443.4628, 428.6074
443.9449, 436.9948
444.4271, 441.6307
444.9092, 443.2654
445.3913, 446.3600
445.8734, 452.3649
446.3555, 459.7424
446.8376, 467.7774
447.3198, 476.5538
447.8019, 485.7510
448.2840, 495.1622
448.7661, 504.9802
449.2482, 515.4928
449.7303, 526.8970
450.2125, 538.4651
450.6946, 549.8392
451.1767, 561.1840
451.6588, 574.0082
452.1409, 588.4182
452.6230, 604.2869
453.1052, 621.2493
453.5873, 639.4034
454.0694, 659.6403
454.5515, 682.4513
455.0337, 706.4012
455.5158, 726.9305
455.9979, 744.7116
456.4800, 767.1600
456.9621, 801.6747
457.4442, 842.0421
457.9264, 873.2701
458.4085, 895.5091
458.8906, 915.8226
459.3727, 937.2582
459.8548, 961.0075
460.3369, 988.7088
460.8191, 1021.594
461.3012, 1057.200
461.7833, 1095.495
462.2654, 1135.086
462.7475, 1172.911
463.2296, 1204.945
463.7118, 1237.562
464.1939, 1275.344
464.6760, 1318.956
465.1581, 1360.972
465.6402, 1397.640
466.1223, 1432.397
466.6045, 1467.163
467.0866, 1504.395
467.5687, 1538.740
468.0508, 1572.037
468.5329, 1602.230
469.0150, 1625.155
469.4972, 1640.231
469.9793, 1648.567
470.4614, 1650.136
470.9435, 1644.883
471.4256, 1634.353
471.9077, 1618.863
472.3899, 1597.541
472.8720, 1568.882
473.3541, 1532.079
473.8362, 1492.962
474.3183, 1451.956
474.8004, 1409.143
475.2826, 1364.136
475.7647, 1317.060
476.2468, 1269.740
476.7289, 1221.970
477.2110, 1174.629
477.6931, 1130.618
478.1753, 1089.752
478.6574, 1050.811
479.1395, 1012.457
479.6216, 975.4747
480.1037, 941.0380
480.5858, 909.4633
481.0680, 880.2540
481.5501, 853.9360
482.0322, 829.6323
482.5143, 805.7504
482.9964, 780.3698
483.4786, 756.4012
483.9607, 735.7974
484.4428, 719.1095
484.9249, 701.7499
485.4070, 680.7950
485.8892, 660.3392
486.3713, 643.4315
486.8534, 634.3696
487.3355, 622.6285
487.8176, 605.9960
488.2997, 587.2319
488.7819, 572.1082
489.2640, 562.1003
489.7461, 552.2075
490.2282, 540.3639
490.7103, 526.7273
491.1924, 516.1641
491.6746, 509.0804
492.1567, 503.0895
492.6388, 496.0870
493.1209, 488.1890
493.6030, 481.5045
494.0851, 476.5479
494.5673, 471.9385
495.0494, 464.9457
495.5315, 456.4020
496.0136, 449.5730
496.4957, 447.4850
496.9778, 446.9610
497.4600, 444.2589
497.9421, 439.5615
498.4242, 434.8082
498.9063, 430.7884
499.3884, 427.4071
499.8705, 424.6666
500.3527, 423.0082
500.8348, 420.9496
501.3169, 418.1037
501.7990, 414.5580
502.2811, 410.3983
502.7632, 403.1833
503.2454, 398.0618
503.7275, 397.4982
504.2096, 400.8861
504.6917, 401.3640
505.1738, 397.1213
505.6559, 392.4437
506.1381, 389.5733
506.6202, 388.8610
507.1023, 388.7169
507.5844, 389.4653
508.0665, 390.2100
508.5486, 389.4922
509.0308, 387.2658
509.5129, 385.3386
509.9950, 384.0953
510.4771, 383.4914
510.9592, 383.6792
511.4413, 384.5712
511.9235, 385.3870
512.4056, 385.2582
512.8877, 384.8729
513.3698, 385.6654
513.8519, 387.8578
514.3340, 389.3295
514.8162, 387.2487
515.2983, 384.0266
515.7804, 382.6057
516.2625, 385.1823
516.7446, 388.0397
517.2267, 389.7047
517.7089, 390.5479
518.1910, 391.4497
518.6731, 392.8856
519.1552, 394.1562
519.6373, 395.0205
520.1194, 395.4825
520.6016, 395.5854
521.0837, 394.7717
521.5658, 394.2111
522.0479, 394.8741
522.5300, 397.1618
523.0121, 399.1338
523.4943, 400.5335
523.9764, 401.7272
524.4585, 403.4660
524.9406, 405.7349
525.4227, 407.8881
525.9048, 409.7415
526.3870, 411.2881
526.8691, 412.3132
527.3513, 412.8769
527.8334, 413.7762
528.3155, 416.3612
528.7976, 419.3737
529.2797, 420.9931
529.7618, 420.9446
530.2440, 419.9054
530.7261, 417.6261
531.2082, 414.8640
531.6903, 412.6313
532.1724, 410.7184
532.6545, 409.9193
533.1367, 411.3055
533.6188, 414.1524
534.1009, 415.9273
534.5830, 415.5768
535.0651, 414.7274
535.5472, 413.9653
536.0294, 413.3899
536.5115, 411.9919
536.9936, 409.0303
537.4757, 406.2852
537.9578, 405.6282
538.4399, 407.5810
538.9221, 408.0441
539.4042, 406.0821
539.8863, 403.3702
540.3684, 403.2577
540.8505, 405.5064
541.3326, 407.2398
541.8148, 406.7109
542.2969, 405.2903
542.7790, 405.7015
543.2611, 407.7147
543.7432, 409.4995
544.2253, 409.5045
544.7075, 408.8190
545.1896, 408.7148
545.6717, 409.5519
546.1538, 409.8973
546.6359, 407.9672
547.1180, 405.6315
547.6002, 404.9043
548.0823, 407.8942
548.5644, 410.6378
549.0465, 411.9371
549.5286, 412.4666
550.0107, 414.3126
550.4929, 419.0181
550.9750, 422.6789
551.4571, 423.6443
551.9392, 421.8950
552.4213, 421.4586
552.9034, 422.5659
553.3856, 424.2370
553.8677, 425.7067
554.3498, 427.0094
554.8319, 428.6014
555.3140, 430.5683
555.7961, 432.6874
556.2783, 435.0026
556.7604, 437.2579
557.2425, 438.7067
557.7246, 439.1878
558.2067, 438.6303
558.6888, 435.3874
559.1710, 430.6830
559.6531, 428.7410
560.1352, 434.9213
560.6173, 441.8953
561.0994, 444.8220
561.5815, 442.7556
562.0637, 441.7364
562.5458, 443.8011
563.0279, 446.7752
563.5100, 449.1022
563.9921, 450.6444
564.4742, 451.6916
564.9564, 451.8637
565.4385, 451.8327
565.9206, 452.7851
566.4027, 454.8471
566.8848, 457.2858
567.3669, 460.2540
567.8491, 463.2433
568.3312, 463.7702
568.8133, 461.9579
569.2954, 461.2132
569.7775, 465.4990
570.2596, 471.8508
570.7418, 474.3769
571.2239, 472.6671
571.7060, 470.2065
572.1881, 468.6278
572.6702, 468.1944
573.1523, 469.3498
573.6345, 473.1144
574.1166, 476.8123
574.5987, 480.0778
575.0808, 482.4814
575.5629, 483.3434
576.0450, 480.1125
576.5272, 478.0701
577.0093, 478.8264
577.4914, 481.8292
577.9735, 483.2517
578.4556, 482.0897
578.9377, 481.4174
579.4199, 483.2887
579.9020, 487.7615
580.3841, 490.0757
580.8662, 489.9480
581.3483, 489.2022
581.8304, 489.7048
582.3126, 491.1109
582.7947, 492.2682
583.2768, 493.0196
583.7589, 493.2982
584.2410, 492.0273
584.7231, 490.3063
585.2053, 490.3147
585.6874, 495.1811
586.1696, 499.9570
586.6517, 501.5067
587.1338, 500.5159
587.6159, 500.1650
588.0980, 501.6976
588.5801, 503.6469
589.0623, 505.1850
589.5444, 506.0178
590.0265, 508.4493
590.5086, 514.0021
590.9907, 519.2128
591.4728, 520.7875
591.9550, 517.8328
592.4371, 517.1774
592.9192, 519.7452
593.4013, 523.7498
593.8834, 526.3893
594.3655, 527.9933
594.8477, 530.7084
595.3298, 535.7369
595.8119, 541.5253
596.2940, 546.3006
596.7761, 550.0778
597.2582, 553.0565
597.7404, 554.5811
598.2225, 555.9073
598.7046, 557.4935
599.1867, 559.3921
599.6688, 562.8196
600.1509, 570.2796
600.6331, 577.8536
601.1152, 582.8734
601.5973, 583.9250
602.0794, 585.7600
602.5615, 589.0343
603.0436, 592.4476
603.5258, 594.0526
604.0079, 593.1736
604.4900, 594.1942
604.9721, 598.0727
605.4542, 603.7994
605.9363, 609.7927
606.4185, 615.9454
606.9006, 621.7623
607.3827, 627.3866
607.8648, 632.2070
608.3469, 633.8319
608.8290, 633.0819
609.3112, 634.4796
609.7933, 640.6318
610.2754, 650.0121
610.7575, 662.5831
611.2396, 678.6498
611.7217, 693.3837
612.2039, 707.2830
612.6860, 717.9623
613.1681, 723.5421
613.6502, 721.5929
614.1323, 718.4818
614.6144, 712.6301
615.0966, 707.0850
615.5787, 706.7611
616.0608, 712.5152
616.5429, 718.1390
617.0250, 722.2057
617.5071, 725.2935
617.9893, 727.9291
618.4714, 730.3624
618.9535, 734.3116
619.4356, 742.4771
619.9177, 751.7756
620.3998, 757.7140
620.8820, 760.6534
621.3641, 764.2173
621.8462, 770.9392
622.3283, 778.7828
622.8104, 786.3188
623.2925, 793.4166
623.7747, 800.1459
624.2568, 805.3325
624.7389, 810.9000
625.2210, 818.5606
625.7031, 829.9135
626.1852, 839.8027
626.6674, 847.5504
627.1495, 854.0524
627.6316, 860.4022
628.1137, 866.5617
628.5958, 873.5211
629.0779, 881.6899
629.5601, 890.6895
630.0422, 900.1149
630.5243, 909.7792
631.0064, 919.1647
631.4885, 927.5555
631.9706, 935.8192
632.4528, 942.8533
632.9349, 949.2413
633.4170, 961.5702
633.8991, 987.7064
634.3812, 1016.904
634.8633, 1044.768
635.3455, 1073.771
635.8276, 1089.866
636.3097, 1083.481
636.7918, 1072.819
637.2739, 1073.411
637.7560, 1087.877
638.2382, 1102.684
638.7203, 1115.850
639.2024, 1130.531
639.6845, 1153.318
640.1666, 1183.262
640.6487, 1211.313
641.1309, 1233.045
641.6130, 1254.527
642.0951, 1283.659
642.5772, 1319.150
643.0594, 1356.200
643.5415, 1391.939
644.0236, 1429.340
644.5057, 1469.477
644.9879, 1512.873
645.4700, 1561.534
645.9521, 1617.120
646.4342, 1677.849
646.9163, 1742.428
647.3984, 1810.932
647.8806, 1886.551
648.3627, 1970.017
648.8448, 2060.459
649.3269, 2157.941
649.8090, 2262.602
650.2911, 2375.834
650.7733, 2498.972
651.2554, 2632.268
651.7375, 2779.266
652.2196, 2938.180
652.7017, 3105.875
653.1838, 3281.304
653.6660, 3465.673
654.1481, 3661.490
654.6302, 3865.799
655.1123, 4076.478
655.5944, 4285.126
656.0765, 4505.793
656.5587, 4743.243
657.0408, 4995.792
657.5229, 5261.059
658.0050, 5536.482
658.4871, 5821.203
658.9692, 6115.599
659.4514, 6419.052
659.9335, 6727.842
660.4156, 7041.700
660.8977, 7353.419
661.3798, 7661.195
661.8619, 7958.467
662.3441, 8238.438
662.8262, 8500.896
663.3083, 8737.209
663.7904, 8951.049
664.2725, 9130.121
664.7546, 9262.837
665.2368, 9351.137
665.7189, 9382.010
666.2010, 9356.568
666.6831, 9270.438
667.1652, 9115.541
667.6473, 8884.617
668.1295, 8600.898
668.6116, 8256.156
669.0937, 7863.324
669.5758, 7447.505
670.0579, 7004.639
670.5400, 6557.522
671.0222, 6104.396
671.5043, 5659.759
671.9864, 5240.627
672.4685, 4847.358
672.9506, 4480.677
673.4327, 4145.430
673.9149, 3838.680
674.3970, 3556.675
674.8791, 3297.906
675.3612, 3061.892
675.8433, 2847.875
676.3254, 2653.360
676.8076, 2480.553
677.2897, 2331.770
677.7718, 2193.150
678.2539, 2065.507
678.7360, 1949.045
679.2181, 1844.721
679.7003, 1753.920
680.1824, 1669.977
680.6645, 1593.289
681.1466, 1523.107
681.6287, 1459.386
682.1108, 1401.227
682.5930, 1348.313
683.0751, 1300.349
683.5572, 1256.424
684.0393, 1215.837
684.5214, 1178.152
685.0035, 1142.493
685.4857, 1107.987
685.9678, 1076.153
686.4499, 1047.860
686.9320, 1022.847
687.4141, 1000.044
687.8962, 980.6022
688.3784, 961.4199
688.8605, 941.4043
689.3426, 921.3576
689.8247, 904.2762
690.3068, 890.0975
690.7889, 877.1025
691.2711, 865.1923
691.7532, 853.5084
692.2353, 839.4926
692.7174, 823.8630
693.1995, 810.3546
693.6816, 802.6813
694.1638, 796.9590
694.6459, 790.7184
695.1280, 783.7441
695.6101, 776.1708
696.0922, 766.4561
696.5743, 757.5176
697.0565, 751.0354
697.5386, 747.6437
698.0207, 743.8300
698.5028, 739.4200
698.9849, 734.9766
699.4670, 731.0207
699.9492, 727.5225
700.4313, 723.9941
700.9135, 720.2811
701.3956, 717.2253
701.8777, 716.9168
702.3598, 717.6168
702.8419, 716.1588
703.3240, 710.5887
703.8062, 704.8782
704.2883, 700.2986
704.7704, 697.0851
705.2525, 695.6738
705.7346, 698.7759
706.2167, 700.2352
706.6989, 698.8052
707.1810, 695.6951
707.6631, 693.5389
708.1452, 692.4942
708.6273, 691.8458
709.1094, 691.7350
709.5916, 691.5681
710.0737, 689.1007
710.5558, 684.9760
711.0379, 682.3868
711.5200, 684.9277
712.0021, 688.3527
712.4843, 688.9068
712.9664, 686.9132
713.4485, 684.4076
713.9306, 680.4814
714.4127, 677.7325
714.8948, 677.8371
715.3770, 680.8004
715.8591, 683.7167
716.3412, 687.3478
716.8233, 689.4213
717.3054, 687.5485
717.7875, 681.9893
718.2697, 680.2177
718.7518, 682.4293
719.2339, 685.6442
719.7160, 687.1424
720.1981, 688.0120
720.6802, 690.1835
721.1624, 693.9749
721.6445, 697.8691
722.1266, 701.2762
722.6087, 704.1797
723.0908, 706.5326
723.5729, 708.2727
724.0551, 709.3987
724.5372, 708.9084
725.0193, 708.7217
725.5014, 711.1215
725.9835, 716.6772
726.4656, 721.3931
726.9478, 724.9152
727.4299, 727.4718
727.9120, 728.2491
728.3941, 728.2175
728.8762, 730.7997
729.3583, 738.1567
729.8405, 745.7560
730.3226, 749.6724
730.8047, 751.3242
731.2868, 752.9353
731.7689, 753.7147
732.2510, 756.2675
732.7332, 761.9078
733.2153, 769.5275
733.6974, 777.5649
734.1795, 787.0278
734.6616, 793.7892
735.1437, 795.9023
735.6259, 795.4261
736.1080, 797.6276
736.5901, 802.2789
737.0722, 807.3992
737.5543, 812.6670
738.0364, 817.4183
738.5186, 819.6713
739.0007, 820.4604
739.4828, 823.5601
739.9649, 833.2941
740.4470, 843.1110
740.9291, 849.5071
741.4113, 852.6774
741.8934, 857.9847
742.3755, 866.7407
742.8576, 875.3152
743.3397, 882.2520
743.8218, 887.7479
744.3040, 893.3898
744.7861, 899.1442
745.2682, 904.7368
745.7503, 909.3954
746.2324, 914.0460
746.7145, 920.2821
747.1967, 928.0980
747.6788, 935.9173
748.1609, 943.0043
748.6430, 949.6796
749.1251, 956.0038
749.6072, 961.7794
750.0894, 968.5749
750.5715, 977.0134
751.0536, 985.6984
751.5357, 993.6292
752.0178, 1000.805
752.4999, 1007.831
752.9821, 1014.592
753.4642, 1022.243
753.9463, 1032.990
754.4284, 1045.091
754.9105, 1054.533
755.3926, 1060.603
755.8748, 1066.936
756.3569, 1075.615
756.8390, 1085.830
757.3211, 1097.224
757.8032, 1110.816
758.2853, 1122.764
758.7675, 1131.016
759.2496, 1139.355
759.7318, 1152.189
760.2139, 1170.435
760.6960, 1184.905
761.1781, 1194.098
761.6602, 1201.941
762.1423, 1213.322
762.6245, 1227.085
763.1066, 1240.260
763.5887, 1251.804
764.0708, 1263.954
764.5529, 1279.156
765.0350, 1295.350
765.5172, 1310.083
765.9993, 1318.379
766.4814, 1331.408
766.9635, 1352.021
767.4456, 1375.723
767.9277, 1396.658
768.4099, 1414.637
768.8920, 1432.053
769.3741, 1449.221
769.8562, 1466.189
770.3383, 1481.938
770.8204, 1497.758
771.3026, 1517.527
771.7847, 1544.354
772.2668, 1571.863
772.7489, 1596.613
773.2310, 1619.106
773.7131, 1639.793
774.1953, 1655.915
774.6774, 1674.374
775.1595, 1696.907
775.6416, 1721.554
776.1237, 1744.364
776.6058, 1764.888
777.0880, 1787.118
777.5701, 1811.716
778.0522, 1838.485
778.5343, 1867.894
779.0164, 1899.131
779.4985, 1929.966
779.9807, 1958.314
780.4628, 1986.881
780.9449, 2016.856
781.4270, 2048.101
781.9091, 2081.087
782.3912, 2112.426
782.8734, 2149.962
783.3555, 2197.734
783.8376, 2251.148
784.3197, 2296.395
784.8018, 2332.782
785.2839, 2374.241
785.7661, 2425.789
786.2482, 2483.508
786.7303, 2541.213
787.2124, 2599.192
787.6945, 2659.797
788.1766, 2722.265
788.6588, 2789.399
789.1409, 2864.400
789.6230, 2945.780
790.1051, 3031.760
790.5872, 3121.733
791.0693, 3215.369
791.5515, 3310.253
792.0336, 3409.504
792.5157, 3519.543
792.9978, 3640.404
793.4799, 3768.751
793.9620, 3905.175
794.4442, 4047.816
794.9263, 4193.475
795.4084, 4344.770
795.8905, 4510.404
796.3726, 4692.581
796.8547, 4890.852
797.3369, 5107.629
797.8190, 5341.982
798.3011, 5589.171
798.7832, 5843.370
799.2653, 6125.397
799.7474, 6439.487
800.2296, 6785.381
800.7117, 7159.659
801.1938, 7563.258
801.6759, 8006.703
802.1580, 8487.680
802.6401, 9017.510
803.1223, 9592.727
803.6044, 10224.15
804.0865, 10928.21
804.5686, 11712.29
805.0507, 12572.47
805.5328, 13521.58
806.0150, 14551.00
806.4971, 15652.85
806.9792, 16826.02
807.4613, 18077.80
807.9434, 19421.55
808.4255, 20833.86
808.9077, 22288.03
809.3898, 23788.71
809.8719, 25355.61
810.3540, 26970.71
810.8361, 28683.28
811.3182, 30533.57
811.8004, 32503.74
812.2825, 34593.31
812.7646, 36812.97
813.2467, 39144.88
813.7288, 41608.50
814.2109, 44176.72
814.6931, 46761.48
815.1752, 49396.41
815.6573, 51945.73
816.1394, 54423.47
816.6215, 56751.55
817.1037, 58894.59
817.5858, 60775.26
818.0679, 62245.26
818.5500, 63343.68
819.0322, 63900.85
819.5143, 63878.37
819.9964, 63241.38
820.4785, 61853.30
820.9606, 59656.17
821.4427, 56904.67
821.9249, 53528.76
822.4070, 49714.23
822.8891, 45779.32
823.3712, 41747.28
823.8533, 37866.88
824.3354, 34147.34
824.8176, 30665.73
825.2997, 27546.32
825.7818, 24740.16
826.2639, 22229.69
826.7460, 20013.06
827.2281, 18047.77
827.7103, 16333.70
828.1924, 14834.33
828.6745, 13495.86
829.1566, 12340.19
829.6387, 11303.32
830.1208, 10392.49
830.6030, 9578.602
831.0851, 8854.860
831.5672, 8214.148
832.0493, 7637.163
832.5314, 7132.220
833.0135, 6670.787
833.4957, 6240.922
833.9778, 5847.765
834.4599, 5490.897
834.9420, 5194.172
835.4241, 4913.062
835.9063, 4646.186
836.3884, 4397.001
836.8705, 4175.651
837.3526, 3981.689
837.8347, 3799.198
838.3168, 3624.107
838.7990, 3459.698
839.2811, 3306.482
839.7632, 3163.927
840.2453, 3032.141
840.7274, 2910.512
841.2095, 2797.043
841.6917, 2693.747
842.1738, 2596.608
842.6559, 2501.095
843.1380, 2406.125
843.6201, 2316.543
844.1022, 2232.402
844.5844, 2153.511
845.0665, 2080.222
845.5486, 2011.752
846.0307, 1947.809
846.5128, 1888.099
846.9949, 1830.364
847.4771, 1771.721
847.9592, 1715.450
848.4413, 1664.149
848.9234, 1618.625
849.4055, 1576.223
849.8876, 1538.829
850.3698, 1501.750
850.8519, 1461.810
851.3340, 1419.387
851.8161, 1381.730
852.2982, 1348.814
852.7803, 1318.756
853.2625, 1292.354
853.7446, 1266.735
854.2267, 1236.666
854.7088, 1202.639
855.1909, 1172.208
855.6730, 1151.199
856.1552, 1131.250
856.6373, 1109.021
857.1194, 1085.015
857.6015, 1062.560
858.0836, 1041.535
858.5657, 1021.730
859.0479, 1003.024
859.5300, 985.1812
860.0121, 968.3895
860.4942, 952.3254
860.9763, 935.9496
861.4584, 918.5062
861.9406, 901.2906
862.4227, 884.8294
862.9048, 869.1867
863.3869, 855.0172
863.8690, 843.1931
864.3511, 830.2025
864.8333, 814.3672
865.3154, 797.7909
865.7975, 784.6221
866.2796, 774.2242
866.7617, 763.6317
867.2438, 751.5208
867.7260, 739.1784
868.2081, 727.1263
868.6902, 715.5027
869.1723, 704.2937
869.6544, 693.4965
870.1365, 683.0038
870.6187, 673.0264
871.1008, 663.1279
871.5829, 652.7838
872.0650, 642.0308
872.5471, 631.5919
873.0292, 621.6481
873.5114, 611.6840
873.9935, 600.7833
874.4756, 589.7256
874.9577, 579.4811
875.4399, 570.0995
875.9220, 561.6498
876.4041, 554.9559
876.8862, 548.6195
877.3683, 541.7687
877.8505, 534.2993
878.3326, 526.8336
878.8147, 519.3079
879.2968, 512.3785
879.7789, 506.5104
880.2610, 501.7679
880.7432, 498.8664
881.2253, 497.7097
881.7074, 495.3241
882.1895, 488.9491
882.6716, 482.2067
883.1537, 477.4881
883.6359, 474.6523
884.1180, 469.5596
884.6001, 461.4836
885.0822, 454.1209
885.5643, 449.4597
886.0464, 446.6177
886.5286, 443.8292
887.0107, 441.0408
887.4928, 438.0026
887.9749, 434.6887
888.4570, 431.0710
888.9391, 426.8111
889.4213, 422.2332
889.9034, 418.2964
890.3855, 415.0464
890.8676, 412.5062
891.3497, 410.8690
891.8318, 409.6719
892.3140, 408.3180
892.7961, 406.6394
893.2782, 403.8964
893.7603, 399.6570
894.2424, 394.8502
894.7245, 389.3827
895.2067, 384.1479
895.6888, 380.2114
896.1709, 378.9541
896.6530, 376.9757
897.1351, 373.5877
897.6172, 370.5851
898.0994, 370.6439
898.5815, 373.1494
899.0636, 373.4155
899.5457, 370.9271
900.0278, 367.6793
900.5099, 364.6533
900.9921, 362.0434
901.4742, 360.1928
901.9563, 359.3097
902.4384, 357.8566
902.9205, 355.6574
903.4026, 352.8893
903.8848, 348.8633
904.3669, 344.1048
904.8490, 343.9601
905.3311, 348.2193
905.8132, 351.2205
906.2953, 348.1558
906.7775, 343.2397
907.2596, 340.1075
907.7417, 338.6478
908.2238, 338.1761
908.7059, 339.8317
909.1880, 340.8348
909.6702, 340.4813
910.1523, 339.2261
910.6344, 338.0335
911.1165, 336.9074
911.5986, 336.1646
912.0807, 336.3664
912.5629, 335.7977
913.0450, 330.6896
913.5271, 324.1454
914.0092, 320.9160
914.4913, 324.8528
914.9734, 327.6698
915.4556, 327.5246
915.9377, 326.3615
916.4198, 326.1529
916.9019, 327.0510
917.3840, 325.6040
917.8661, 321.3300
918.3483, 317.5550
918.8304, 317.9291
919.3125, 320.1425
919.7946, 321.7841
920.2767, 322.5927
920.7589, 321.9966
921.2410, 318.3048
921.7231, 314.6921
922.2052, 312.0831
922.6873, 310.5521
923.1694, 311.3997
923.6516, 314.7068
924.1337, 317.2068
924.6158, 316.5826
925.0979, 314.8386
925.5800, 314.7303
926.0621, 315.6286
926.5443, 315.9632
927.0264, 314.3518
927.5085, 313.2254
927.9906, 313.6721
928.4727, 314.4435
928.9548, 313.0401
929.4370, 309.3474
929.9191, 307.1717
930.4012, 307.4452
930.8833, 308.2728
931.3654, 307.0648
931.8475, 305.2969
932.3297, 305.2113
932.8118, 307.8855
933.2939, 309.8569
933.7761, 310.4901
934.2582, 309.9779
934.7403, 307.9028
935.2224, 304.1706
935.7045, 302.7123
936.1866, 303.5997
936.6688, 304.3965
937.1509, 302.5394
937.6330, 300.2524
938.1151, 300.6989
938.5972, 303.2794
939.0793, 304.5856
939.5615, 301.6438
940.0436, 299.7904
940.5257, 301.0017
941.0078, 303.8120
941.4899, 303.8979
941.9720, 301.3856
942.4542, 299.6384
942.9363, 299.7507
943.4184, 300.6033
943.9005, 300.8485
944.3826, 301.0999
944.8647, 302.3786
945.3469, 306.5671
945.8290, 308.4401
946.3111, 306.4868
946.7932, 303.6492
947.2753, 302.2867
947.7574, 302.3521
948.2396, 303.5650
948.7217, 305.9291
949.2038, 307.4284
949.6859, 304.8357
950.1680, 301.9149
950.6501, 302.2812
951.1323, 305.9722
951.6144, 309.7682
952.0965, 314.3248
952.5786, 316.9862
953.0607, 316.2527
953.5428, 313.5230
954.0250, 313.2354
954.5071, 314.9570
954.9892, 316.0616
955.4713, 314.8872
955.9534, 313.8589
956.4355, 315.7147
956.9177, 318.5151
957.3998, 319.3457
957.8819, 315.6732
958.3640, 314.4964
958.8461, 317.0217
959.3282, 319.9102
959.8104, 318.4929
960.2925, 314.4750
960.7746, 314.2385
961.2567, 318.2879
961.7388, 322.5449
962.2209, 324.1778
962.7031, 325.3199
963.1852, 327.6363
963.6673, 331.0647
964.1494, 333.0892
964.6315, 333.0056
965.1136, 334.0923
965.5958, 338.6911
966.0779, 343.9798
966.5600, 342.4274
967.0421, 336.7101
967.5242, 334.2318
968.0063, 340.6835
968.4885, 346.9870
968.9706, 349.5173
969.4527, 350.1876
969.9348, 351.1219
970.4169, 352.0637
970.8990, 354.6935
971.3812, 359.2311
971.8633, 364.6797
972.3454, 370.0991
972.8275, 375.6872
973.3096, 382.0732
973.7917, 387.4902
974.2739, 395.8787
974.7560, 399.1512
975.2381, 404.0683
975.7202, 410.1864
976.2023, 419.5410
976.6844, 448.5690
977.1666, 497.0948
977.6487, 530.5360
978.1308, 526.1776
978.6129, 514.0895
979.0950, 522.6256
979.5771, 546.1282
980.0593, 575.2535
980.5414, 603.7885
981.0235, 642.6974
981.5056, 685.7350
981.9877, 749.0634
982.4698, 836.9695
982.9520, 956.5004
983.4341, 1148.222
983.9162, 1414.898
984.3983, 1761.890
984.8804, 2267.929
985.3625, 2795.090
985.8447, 3259.099
986.3268, 3649.312
986.8089, 3938.996
987.2910, 4091.677
987.7731, 4241.646
988.2552, 4416.545
988.7374, 4635.967
989.2195, 4890.419
989.7016, 5220.978
990.1837, 5720.648
990.6658, 6353.726
991.1479, 7293.943
991.6301, 8772.245
992.1122, 10500.41
992.5944, 12222.14
993.0765, 13920.13
993.5586, 15462.36
994.0407, 16797.28
994.5228, 18380.68
995.0049, 21024.29
995.4871, 23871.97
995.9692, 26450.92
996.4513, 28452.12
996.9334, 28182.78
997.4155, 23388.86
997.8976, 18253.58
998.3798, 13394.32
998.8619, 9101.235
999.3440, 6056.022
999.8261, 4184.684
1000.308, 2918.270
1000.790, 2191.627
1001.272, 1743.039
1001.755, 1448.817
1002.237, 1254.339
1002.719, 1109.877
1003.201, 1016.214
1003.683, 949.5624
1004.165, 919.2086
1004.647, 890.8654
1005.129, 841.0148
1005.612, 775.4610
1006.094, 704.0233
1006.576, 629.8453
1007.058, 564.4471
1007.540, 515.1859
1008.022, 475.4068
1008.504, 443.8898
1008.986, 418.9747
1009.468, 398.8596
1009.951, 384.2643
1010.433, 369.1833
1010.915, 352.2555
1011.397, 336.0330
1011.879, 323.6161
1012.361, 313.6190
1012.843, 304.2078
1013.325, 295.0582
1013.807, 287.6571
1014.290, 282.8923
1014.772, 278.9023
1015.254, 275.1843
1015.736, 271.5939
1016.218, 267.1847
1016.700, 262.1284
1017.182, 257.4214
1017.664, 253.4253
1018.147, 249.9621
1018.629, 246.9330
1019.111, 244.3739
1019.593, 242.2808
1020.075, 240.6985
1020.557, 239.6102
1021.039, 239.2984
1021.521, 238.3610
1022.003, 234.0775
1022.486, 228.8180
1022.968, 227.5804
1023.450, 230.2116
1023.932, 231.8811
1024.414, 229.5006
1024.896, 227.2564
1025.378, 226.7874
1025.860, 227.2798
1026.343, 225.8960
1026.825, 222.8845
1027.307, 221.7227
1027.789, 223.9931
1028.271, 226.3127
1028.753, 224.8374
1029.235, 222.2018
1029.717, 221.4807
1030.199, 223.8073
1030.682, 225.4284
1031.164, 226.1604
1031.646, 226.7407
1032.128, 227.9788
1032.610, 229.2870
1033.092, 228.7673
1033.574, 226.8867
1034.056, 225.3759
1034.539, 225.3700
1035.021, 225.4277
1035.503, 224.8812
1035.985, 224.2988
1036.467, 224.4320
1036.949, 225.2858
1037.431, 226.7905
1037.913, 229.0389
1038.396, 230.8160
1038.878, 230.9404
1039.360, 230.1633
1039.842, 229.1131
1040.324, 227.8442
1040.806, 226.2477
1041.288, 224.0293
1041.770, 222.1053
1042.252, 220.5896
1042.734, 219.7233
1043.217, 220.2885
1043.699, 221.8756
1044.181, 223.4310
1044.663, 224.7143
1045.145, 225.7818
1045.627, 226.9948
1046.109, 227.7018
1046.591, 227.1814
1047.074, 225.3520
1047.556, 224.5169
1048.038, 224.6725
1048.520, 225.0314
1049.002, 225.1672
1049.484, 225.1902
1049.966, 225.5856
1050.448, 225.9356
1050.931, 224.9129
1051.413, 221.2771
1051.895, 218.9330
1052.377, 218.5778
1052.859, 218.9469
1053.341, 218.7259
1053.823, 217.9797
1054.305, 216.3889
1054.787, 213.9151
1055.270, 212.7943
1055.752, 215.7856
1056.234, 218.4345
1056.716, 218.6958
1057.198, 217.1873
1057.680, 216.0027
1058.162, 215.1722
1058.644, 215.2775
1059.126, 216.7860
1059.609, 218.5723
1060.091, 220.5550
1060.573, 221.7327
1061.055, 220.4059
1061.537, 215.1090
1062.019, 213.0428
1062.501, 214.9174
1062.983, 217.4272
1063.466, 218.5311
1063.948, 218.7344
1064.430, 219.0793
1064.912, 219.3465
1065.394, 218.8711
1065.876, 215.9398
1066.358, 214.3103
1066.840, 215.0987
1067.323, 216.7770
1067.805, 217.8681
1068.287, 218.2688
1068.769, 216.5018
1069.251, 212.4733
1069.733, 209.5385
1070.215, 211.0701
1070.697, 213.5698
1071.179, 214.6665
1071.661, 214.7064
1072.144, 215.5597
1072.626, 217.4301
1073.108, 218.6451
1073.590, 218.6892
1074.072, 218.1617
1074.554, 217.7989
1075.036, 217.3311
1075.518, 216.1726
1076.001, 213.8203
1076.483, 212.8688
1076.965, 214.0428
1077.447, 215.4756
1077.929, 216.3291
1078.411, 216.6750
1078.893, 216.4735
1079.375, 215.9190
1079.858, 215.6584
1080.340, 216.3361
1080.822, 216.7962
1081.304, 216.2949
1081.786, 215.6474
1082.268, 215.6664
1082.750, 216.3679
1083.232, 216.4436
1083.714, 215.8794
1084.197, 216.0377
1084.679, 219.6143
1085.161, 222.7082
1085.643, 221.4912
1086.125, 217.3327
1086.607, 215.0404
1087.089, 215.2424
1087.571, 214.5172
1088.054, 211.0751
1088.536, 211.5315
1089.018, 229.3868
1089.500, 253.3273
1089.982, 268.1647
1090.464, 272.2338
1090.946, 266.0865
1091.428, 240.9940
1091.911, 220.5288
1092.393, 212.7775
1092.875, 213.3701
1093.357, 212.9014
1093.839, 211.9133
1094.321, 212.4355
1094.803, 215.9007
1095.285, 218.0860
1095.767, 215.5665
1096.250, 212.3239
1096.732, 211.0509
1097.214, 211.6452
1097.696, 212.1199
1098.178, 212.4352
1098.660, 211.7679
1099.142, 208.8467
1099.624, 205.7904
1100.106, 203.4529
1100.589, 202.3626
1101.071, 203.5639
1101.553, 208.1894
1102.035, 211.3688
1102.517, 213.0614
1102.999, 213.0568
1103.481, 209.5238
1103.963, 205.2610
1104.446, 204.4153
1104.928, 206.3212
1105.410, 207.7433
1105.892, 207.9336
1106.374, 207.5616
1106.856, 206.5318
1107.338, 205.2979
1107.820, 204.1956
1108.302, 203.4229
1108.785, 203.6385
1109.267, 204.9118
1109.749, 205.9504
1110.231, 205.8288
1110.713, 205.8387
1111.195, 206.6718
1111.677, 207.8364
1112.159, 207.9711
1112.641, 207.1707
1113.124, 205.8211
1113.606, 203.7387
1114.088, 202.3079
1114.570, 203.1112
1115.052, 204.4232
1115.534, 204.9228
1116.016, 204.6189
1116.498, 203.9905
1116.981, 203.0134
1117.463, 202.2797
1117.945, 202.0234
1118.427, 202.1563
1118.909, 203.0076
1119.391, 204.0131
1119.873, 204.1834
1120.355, 202.5334
1120.838, 203.2206
1121.320, 206.9636
1121.802, 209.9366
1122.284, 208.7200
1122.766, 205.5714
1123.248, 203.5005
1123.730, 202.3581
1124.212, 201.6615
1124.694, 201.3266
1125.177, 201.4407
1125.659, 202.1311
1126.141, 203.0316
1126.623, 203.6338
1127.105, 204.1716
1127.587, 205.5960
1128.069, 207.7547
1128.551, 209.1679
1129.033, 209.0289
1129.516, 208.1335
1129.998, 206.3936
1130.480, 204.4289
1130.962, 202.2948
1131.444, 200.6418
1131.926, 204.1153
1132.408, 213.6570
1132.890, 221.2288
1133.373, 220.8403
1133.855, 217.8562
1134.337, 214.9312
1134.819, 212.0804
1135.301, 208.7621
1135.783, 205.0678
1136.265, 203.0715
1136.747, 203.6397
1137.229, 204.6823
1137.712, 204.4674
1138.194, 203.8761
1138.676, 203.6591
1139.158, 203.8382
1139.640, 204.2039
1140.122, 204.7434
1140.604, 205.8354
1141.086, 208.6284
1141.569, 210.2237
1142.051, 205.4115
1142.533, 198.3326
1143.015, 194.7908
1143.497, 197.0182
1143.979, 197.9362
1144.461, 197.1660
1144.943, 196.5943
1145.426, 198.3739
1145.908, 200.2078
1146.390, 196.8784
1146.872, 190.9924
1147.354, 187.9742
1147.836, 191.4345
1148.318, 195.1604
1148.800, 199.6771
1149.282, 202.8301
1149.765, 201.8858
1150.247, 198.5951
1150.729, 196.4635
1151.211, 195.5321
1151.693, 195.5121
1152.175, 198.1270
1152.657, 198.8871
1153.139, 196.2632
1153.621, 192.9154
1154.104, 191.9955
1154.586, 192.9709
1155.068, 194.3719
1155.550, 196.0277
1156.032, 197.2251
1156.514, 198.2019
1156.996, 197.7603
1157.478, 194.6084
1157.961, 190.8801
1158.443, 190.9310
1158.925, 194.0191
1159.407, 196.2719
1159.889, 197.1658
1160.371, 196.4579
1160.853, 191.6384
1161.335, 187.7021
1161.818, 187.6324
1162.300, 190.1338
1162.782, 191.8265
1163.264, 192.7002
1163.746, 192.5817
1164.228, 191.2645
1164.710, 190.0188
1165.192, 190.1970
1165.674, 190.4175
1166.156, 189.5247
1166.639, 187.7299
1167.121, 186.3673
1167.603, 185.4425
1168.085, 184.6582
1168.567, 184.0567
1169.049, 183.1466
1169.531, 180.9499
1170.013, 178.6153
1170.496, 177.1568
1170.978, 176.5665
1171.460, 177.6419
1171.942, 180.5351
1172.424, 182.3440
1172.906, 181.2315
1173.388, 179.4371
1173.870, 179.3662
1174.353, 178.1901
1174.835, 177.3613
1175.317, 177.2299
1175.799, 176.3139
1176.281, 176.7021
1176.763, 177.2833
1177.245, 177.6738
1177.727, 177.6750
1178.209, 176.6526
1178.692, 175.2263
1179.174, 174.5598
1179.656, 175.5791
1180.138, 174.9760
1180.620, 172.4548
1181.102, 169.7914
1181.584, 167.8013
1182.066, 166.7443
1182.548, 167.6190
1183.031, 169.5907
1183.513, 170.7216
1183.995, 170.6067
1184.477, 169.8216
1184.959, 168.2523
1185.441, 166.5185
1185.923, 164.8558
1186.405, 163.5793
1186.888, 163.3284
1187.370, 163.8763
1187.852, 164.4533
1188.334, 165.3547
1188.816, 165.2945
1189.298, 164.0289
1189.780, 162.2230
1190.262, 159.9339
1190.745, 157.9077
1191.227, 157.6290
1191.709, 158.8167
1192.191, 159.6438
1192.673, 160.1536
1193.155, 159.2996
1193.637, 156.5632
1194.119, 153.4467
1194.601, 150.9710
1195.084, 149.6700
1195.566, 151.3731
1196.048, 155.7498
1196.530, 158.0341
1197.012, 156.2679
1197.494, 154.4715
1197.976, 153.2216
1198.458, 152.6265
1198.941, 153.4311
1199.423, 154.7405
1199.905, 154.9944
1200.387, 154.0447
1200.869, 152.7263
1201.351, 150.5118
1201.833, 149.4286
1202.315, 150.2115
1202.797, 151.8680
1203.280, 153.3063
1203.762, 154.2740
1204.244, 154.4139
1204.726, 153.6819
1205.208, 151.6310
1205.690, 146.6559
1206.172, 143.5863
1206.654, 144.1543
1207.136, 146.7968
1207.619, 149.9413
1208.101, 152.7378
1208.583, 153.3203
1209.065, 150.9735
1209.547, 149.6173
1210.029, 150.1299
1210.511, 150.8894
1210.993, 151.3033
1211.476, 151.6821
1211.958, 152.6430
1212.440, 153.9829
1212.922, 155.6841
1213.404, 158.2430
1213.886, 158.0595
1214.368, 153.3606
1214.850, 149.6064
1215.333, 149.3391
1215.815, 150.8945
1216.297, 151.5685
1216.779, 151.7265
1217.261, 152.1628
1217.743, 153.3820
1218.225, 153.2266
1218.707, 150.6661
1219.189, 149.2086
1219.672, 151.1435
1220.154, 154.2935
1220.636, 154.4769
1221.118, 153.0098
1221.600, 152.2192
1222.082, 152.8407
1222.564, 153.6937
1223.046, 154.9949
1223.528, 155.6621
1224.011, 154.8056
1224.493, 153.3777
1224.975, 152.9984
1225.457, 153.2271
1225.939, 153.3404
1226.421, 153.3478
1226.903, 152.5315
1227.385, 150.5515
1227.868, 148.9528
1228.350, 148.6804
1228.832, 149.1889
1229.314, 150.0619
1229.796, 150.9776
1230.278, 151.3771
1230.760, 151.0937
1231.242, 150.1852
1231.724, 148.3304
1232.207, 147.3854
1232.689, 149.2610
1233.171, 151.7840
1233.653, 152.1780
1234.135, 151.2489
1234.617, 150.3277
1235.099, 149.6361
1235.581, 148.7337
1236.063, 147.5523
1236.546, 146.7119
1237.028, 146.1813
1237.510, 147.6330
1237.992, 145.4240
1238.474, 146.0769
1238.956, 145.9441
1239.438, 145.0936
1239.920, 146.2154
1240.403, 145.1097
1240.885, 144.3464
1241.367, 146.6154
1241.849, 148.8308
1242.331, 147.8799
1242.813, 145.3072
1243.295, 143.3942
1243.777, 142.2139
1244.260, 141.6814
1244.742, 141.7891
1245.224, 142.0349
1245.706, 141.7939
1246.188, 141.9225
1246.670, 143.6926
1247.152, 145.7820
1247.634, 146.7763
1248.116, 146.8073
1248.599, 142.9807
1249.081, 135.6556
1249.563, 129.9609
1250.045, 129.5546
1250.527, 130.9898
1251.009, 133.7457
1251.491, 136.5004
1251.973, 137.7015
1252.455, 139.1088
1252.938, 140.2142
1253.420, 139.8227
1253.902, 140.6925
1254.384, 139.7627
1254.866, 138.1015
1255.348, 135.0719
1255.830, 132.5148
1256.313, 132.8279
1256.795, 135.2776
1257.277, 134.6440
1257.759, 131.5744
1258.241, 129.5806
1258.723, 131.2749
1259.205, 132.8547
1259.687, 133.7041
1260.169, 133.9962
1260.651, 133.2664
1261.134, 132.2188
1261.616, 133.7259
1262.098, 137.0050
1262.580, 139.3107
1263.062, 139.4561
1263.544, 138.5660
1264.026, 136.3632
1264.508, 134.1368
1264.991, 132.9694
1265.473, 132.5363
1265.955, 132.1531
1266.437, 131.9727
1266.919, 132.4244
1267.401, 133.9563
1267.883, 135.7243
1268.365, 137.9821
1268.848, 139.4778
1269.330, 139.0626
1269.812, 137.4702
1270.294, 134.2420
1270.776, 130.8515
1271.258, 131.0080
1271.740, 136.7899
1272.222, 139.6580
1272.704, 139.2531
1273.187, 138.0687
1273.669, 137.0575
1274.151, 136.7806
1274.633, 138.5889
1275.115, 141.0666
1275.597, 141.9925
1276.079, 141.1485
1276.561, 139.9060
1277.043, 138.2946
1277.526, 136.7214
1278.008, 134.9687
1278.490, 133.8919
1278.972, 134.9708
1279.454, 136.2834
1279.936, 135.4057
1280.418, 132.4928
1280.900, 132.3593
1281.383, 134.5751
1281.865, 136.3545
1282.347, 135.7372
1282.829, 135.3164
1283.311, 136.4232
1283.793, 137.4557
1284.275, 137.0287
1284.757, 135.5367
1285.240, 133.1644
1285.722, 131.0949
1286.204, 133.5536
1286.686, 149.4226
1287.168, 155.9390
1287.650, 147.6540
1288.132, 137.5925
1288.614, 134.7159
1289.096, 136.1610
1289.578, 137.0841
1290.061, 137.5404
1290.543, 137.6075
1291.025, 137.0262
1291.507, 136.7640
1291.989, 136.9359
1292.471, 136.8559
1292.953, 135.8375
1293.435, 134.7391
1293.918, 134.9074
1294.400, 135.5085
1294.882, 135.0440
1295.364, 133.1753
1295.846, 133.2114
1296.328, 135.1893
1296.810, 137.1552
1297.292, 138.5820
1297.775, 138.9525
1298.257, 136.8448
1298.739, 134.3344
1299.221, 133.4736
1299.703, 134.0529
1300.185, 133.9511
1300.667, 133.3001
1301.149, 132.9116
1301.631, 133.2625
1302.114, 133.4147
1302.596, 133.2139
##END=



