##NAMES=Molybdophyllite
##RRUFFID=R070222
##IDEAL CHEMISTRY=Pb^2+^_8_Mg_9_[Si_10_O_30_(OH)_8_(CO_3_)_3_]&#183;H_2_O
##LOCALITY=Langban, Filipstad, Varmland, Sweden
##OWNER=RRUFF
##SOURCE=Michael Scott
##DESCRIPTION=Colorless tabular crystals associated with hausmannite, with cell parameters that match the so-called molybdophyllite-18 phase (Kolitsch et al, 2012)
##STATUS=The identification of this mineral has been confirmed only by single crystal X-ray diffraction.
##URL=rruff.info/R070222
131.8235, 11229.78
132.3056, 11717.33
132.7877, 12209.99
133.2699, 12697.94
133.7520, 13182.69
134.2341, 13677.80
134.7162, 14191.72
135.1983, 14726.67
135.6804, 15254.50
136.1626, 15763.98
136.6447, 16273.21
137.1268, 16821.02
137.6089, 17413.13
138.0910, 18009.52
138.5731, 18576.58
139.0553, 19116.62
139.5374, 19646.29
140.0195, 20157.34
140.5016, 20659.21
140.9837, 21171.75
141.4658, 21714.46
141.9480, 22245.04
142.4301, 22735.24
142.9122, 23194.17
143.3943, 23592.24
143.8764, 23931.64
144.3585, 24209.51
144.8407, 24417.88
145.3228, 24540.76
145.8049, 24604.59
146.2870, 24633.49
146.7691, 24649.19
147.2512, 24601.68
147.7334, 24477.66
148.2155, 24266.81
148.6976, 24018.77
149.1797, 23693.40
149.6618, 23341.58
150.1439, 23033.40
150.6261, 22809.53
151.1082, 22596.35
151.5903, 22385.57
152.0724, 22202.36
152.5545, 21964.79
153.0366, 21638.26
153.5188, 21255.36
154.0009, 20881.76
154.4830, 20540.06
154.9651, 20195.84
155.4472, 19828.00
155.9293, 19404.98
156.4115, 19002.95
156.8936, 18632.49
157.3757, 18292.62
157.8578, 17973.77
158.3399, 17678.65
158.8221, 17401.15
159.3042, 17134.33
159.7863, 16881.00
160.2684, 16634.09
160.7505, 16389.05
161.2326, 16145.25
161.7148, 15915.39
162.1969, 15702.34
162.6790, 15505.50
163.1611, 15326.85
163.6432, 15173.00
164.1253, 15030.56
164.6075, 14892.06
165.0896, 14757.24
165.5717, 14631.82
166.0538, 14525.38
166.5359, 14429.21
167.0180, 14330.61
167.5002, 14214.71
167.9823, 14099.49
168.4644, 13999.07
168.9465, 13915.45
169.4286, 13839.97
169.9107, 13769.99
170.3929, 13703.99
170.8750, 13636.91
171.3571, 13566.48
171.8392, 13494.34
172.3213, 13421.46
172.8034, 13347.81
173.2856, 13276.41
173.7677, 13204.08
174.2498, 13134.44
174.7319, 13080.95
175.2140, 13068.42
175.6961, 13073.25
176.1783, 13058.18
176.6604, 13012.10
177.1425, 12952.42
177.6246, 12895.91
178.1067, 12843.28
178.5888, 12795.20
179.0710, 12755.23
179.5531, 12720.92
180.0352, 12688.04
180.5173, 12657.11
180.9994, 12625.88
181.4815, 12589.00
181.9637, 12546.44
182.4458, 12507.10
182.9279, 12486.11
183.4100, 12476.53
183.8921, 12450.57
184.3742, 12389.47
184.8564, 12311.57
185.3385, 12262.82
185.8206, 12244.22
186.3027, 12237.58
186.7848, 12227.49
187.2669, 12214.04
187.7491, 12197.50
188.2312, 12175.03
188.7133, 12149.49
189.1954, 12131.02
189.6775, 12120.01
190.1596, 12114.97
190.6418, 12119.40
191.1239, 12132.80
191.6060, 12136.77
192.0881, 12115.45
192.5702, 12073.37
193.0524, 12053.68
193.5345, 12061.24
194.0166, 12078.58
194.4987, 12081.19
194.9808, 12068.75
195.4629, 12045.89
195.9451, 12008.78
196.4272, 11957.47
196.9093, 11922.20
197.3914, 11908.47
197.8735, 11903.62
198.3556, 11880.86
198.8378, 11837.00
199.3199, 11796.08
199.8020, 11775.07
200.2841, 11776.16
200.7662, 11768.54
201.2483, 11751.85
201.7305, 11724.26
202.2126, 11675.63
202.6947, 11599.31
203.1768, 11526.88
203.6589, 11478.71
204.1410, 11458.20
204.6232, 11442.41
205.1053, 11433.68
205.5874, 11426.53
206.0695, 11398.49
206.5516, 11341.21
207.0337, 11284.96
207.5159, 11250.14
207.9980, 11240.00
208.4801, 11240.14
208.9622, 11254.16
209.4443, 11277.04
209.9264, 11283.54
210.4086, 11270.50
210.8907, 11247.29
211.3728, 11218.00
211.8549, 11177.16
212.3370, 11149.39
212.8191, 11144.70
213.3013, 11158.49
213.7834, 11149.32
214.2655, 11108.40
214.7476, 11058.50
215.2297, 11021.31
215.7118, 11004.11
216.1940, 10977.51
216.6761, 10931.33
217.1582, 10866.99
217.6403, 10824.00
218.1224, 10818.05
218.6045, 10813.21
219.0867, 10771.17
219.5688, 10674.26
220.0509, 10582.57
220.5330, 10511.56
221.0151, 10460.80
221.4972, 10407.42
221.9794, 10351.28
222.4615, 10292.21
222.9436, 10224.39
223.4257, 10128.92
223.9078, 10064.96
224.3899, 10059.74
224.8721, 10121.03
225.3542, 10135.31
225.8363, 10081.64
226.3184, 10000.99
226.8005, 9940.102
227.2827, 9905.256
227.7648, 9879.577
228.2469, 9862.568
228.7290, 9857.015
229.2111, 9837.403
229.6932, 9792.955
230.1754, 9743.415
230.6575, 9714.324
231.1396, 9711.906
231.6217, 9720.120
232.1038, 9741.378
232.5859, 9783.992
233.0681, 9793.407
233.5502, 9758.100
234.0323, 9698.070
234.5144, 9638.392
234.9965, 9569.304
235.4786, 9518.283
235.9608, 9498.404
236.4429, 9519.287
236.9250, 9525.971
237.4071, 9506.405
237.8892, 9480.092
238.3713, 9480.140
238.8535, 9523.779
239.3356, 9564.887
239.8177, 9587.014
240.2998, 9583.098
240.7819, 9588.012
241.2640, 9606.772
241.7462, 9631.518
242.2283, 9648.464
242.7104, 9653.275
243.1925, 9657.271
243.6746, 9662.099
244.1567, 9663.700
244.6389, 9681.572
245.1210, 9722.866
245.6031, 9776.033
246.0852, 9821.424
246.5673, 9859.914
247.0494, 9889.005
247.5316, 9905.614
248.0137, 9904.092
248.4958, 9909.975
248.9779, 9928.253
249.4600, 9951.108
249.9421, 9962.559
250.4243, 9955.684
250.9064, 9950.039
251.3885, 9954.951
251.8706, 9977.617
252.3527, 9986.133
252.8348, 9976.184
253.3170, 9954.849
253.7991, 9937.113
254.2812, 9931.028
254.7633, 9913.365
255.2454, 9870.348
255.7275, 9790.066
256.2097, 9731.509
256.6918, 9703.986
257.1739, 9692.440
257.6560, 9667.685
258.1381, 9622.591
258.6202, 9578.881
259.1024, 9545.648
259.5845, 9527.106
260.0666, 9501.474
260.5487, 9462.354
261.0308, 9421.080
261.5129, 9400.363
261.9951, 9411.182
262.4772, 9416.603
262.9593, 9397.501
263.4414, 9344.063
263.9235, 9314.309
264.4056, 9316.994
264.8878, 9334.922
265.3699, 9336.442
265.8520, 9315.405
266.3341, 9295.608
266.8162, 9288.215
267.2983, 9296.613
267.7805, 9294.440
268.2626, 9276.511
268.7447, 9253.789
269.2268, 9249.586
269.7089, 9272.111
270.1910, 9283.499
270.6732, 9261.487
271.1553, 9200.194
271.6374, 9167.950
272.1195, 9174.150
272.6016, 9195.597
273.0837, 9195.705
273.5659, 9172.427
274.0480, 9138.396
274.5301, 9088.739
275.0122, 9022.078
275.4943, 8992.542
275.9764, 9008.354
276.4586, 9045.833
276.9407, 9073.562
277.4228, 9091.307
277.9049, 9098.936
278.3870, 9093.938
278.8691, 9076.814
279.3513, 9055.752
279.8334, 9026.828
280.3155, 9004.050
280.7976, 9013.478
281.2798, 9056.717
281.7619, 9092.448
282.2440, 9097.439
282.7261, 9077.953
283.2082, 9086.338
283.6903, 9128.185
284.1725, 9177.334
284.6546, 9194.576
285.1367, 9181.456
285.6188, 9183.249
286.1009, 9225.791
286.5830, 9297.145
287.0652, 9343.354
287.5473, 9361.072
288.0294, 9371.159
288.5115, 9398.507
288.9936, 9440.769
289.4757, 9477.007
289.9579, 9495.200
290.4400, 9503.740
290.9221, 9526.878
291.4042, 9565.209
291.8863, 9610.736
292.3684, 9657.416
292.8506, 9704.985
293.3327, 9752.962
293.8148, 9801.805
294.2969, 9850.914
294.7790, 9900.494
295.2611, 9950.755
295.7433, 10000.18
296.2254, 10042.16
296.7075, 10082.52
297.1896, 10137.47
297.6717, 10225.68
298.1538, 10320.12
298.6360, 10375.17
299.1181, 10393.75
299.6002, 10404.44
300.0823, 10421.80
300.5644, 10447.90
301.0465, 10489.29
301.5287, 10559.92
302.0108, 10631.13
302.4929, 10665.73
302.9750, 10668.74
303.4571, 10666.92
303.9392, 10674.46
304.4214, 10689.29
304.9035, 10711.72
305.3856, 10751.70
305.8677, 10782.46
306.3498, 10776.12
306.8319, 10739.21
307.3141, 10694.28
307.7962, 10646.18
308.2783, 10600.93
308.7604, 10566.74
309.2425, 10554.10
309.7246, 10534.79
310.2068, 10485.72
310.6889, 10415.13
311.1710, 10344.04
311.6531, 10282.27
312.1352, 10223.99
312.6173, 10165.36
313.0995, 10105.87
313.5816, 10047.59
314.0637, 9992.321
314.5458, 9938.602
315.0279, 9883.239
315.5100, 9830.153
315.9922, 9771.238
316.4743, 9696.242
316.9564, 9595.799
317.4385, 9513.399
317.9206, 9482.715
318.4027, 9474.282
318.8849, 9446.927
319.3670, 9369.510
319.8491, 9288.972
320.3312, 9219.783
320.8133, 9162.315
321.2954, 9119.829
321.7776, 9108.844
322.2597, 9106.662
322.7418, 9089.089
323.2239, 9034.176
323.7060, 8982.000
324.1881, 8945.928
324.6703, 8928.487
325.1524, 8899.151
325.6345, 8837.061
326.1166, 8772.579
326.5987, 8729.799
327.0808, 8736.954
327.5630, 8732.796
328.0451, 8709.111
328.5272, 8666.505
329.0093, 8616.881
329.4914, 8551.572
329.9735, 8488.263
330.4557, 8440.467
330.9378, 8426.133
331.4199, 8394.390
331.9020, 8327.803
332.3841, 8238.372
332.8662, 8188.565
333.3484, 8202.751
333.8305, 8220.335
334.3126, 8207.859
334.7947, 8157.841
335.2768, 8100.059
335.7589, 8031.429
336.2411, 7958.453
336.7232, 7896.729
337.2053, 7849.913
337.6874, 7804.955
338.1695, 7752.897
338.6516, 7692.103
339.1338, 7644.095
339.6159, 7613.513
340.0980, 7589.667
340.5801, 7554.330
341.0622, 7505.748
341.5443, 7457.700
342.0265, 7414.700
342.5086, 7376.755
342.9907, 7339.100
343.4728, 7301.016
343.9549, 7267.307
344.4370, 7247.103
344.9192, 7239.138
345.4013, 7230.312
345.8834, 7214.288
346.3655, 7194.756
346.8476, 7182.658
347.3297, 7178.191
347.8119, 7176.318
348.2940, 7178.388
348.7761, 7180.101
349.2582, 7167.292
349.7403, 7126.820
350.2225, 7079.089
350.7046, 7056.490
351.1867, 7055.905
351.6688, 7054.842
352.1509, 7035.162
352.6331, 7005.118
353.1152, 6977.783
353.5973, 6958.805
354.0794, 6938.032
354.5615, 6901.198
355.0436, 6853.992
355.5258, 6813.728
356.0079, 6800.524
356.4900, 6792.543
356.9721, 6767.695
357.4542, 6716.289
357.9363, 6669.401
358.4185, 6650.634
358.9006, 6647.529
359.3827, 6638.533
359.8648, 6604.413
360.3469, 6570.826
360.8290, 6554.464
361.3112, 6559.841
361.7933, 6559.012
362.2754, 6535.919
362.7575, 6504.708
363.2396, 6480.650
363.7217, 6466.461
364.2039, 6460.803
364.6860, 6470.576
365.1681, 6495.930
365.6502, 6505.480
366.1323, 6478.716
366.6144, 6445.407
367.0966, 6426.043
367.5787, 6435.589
368.0608, 6441.714
368.5429, 6439.147
369.0250, 6430.548
369.5071, 6430.541
369.9893, 6451.114
370.4714, 6466.379
370.9535, 6460.508
371.4356, 6413.565
371.9177, 6392.182
372.3998, 6405.845
372.8820, 6441.181
373.3641, 6469.042
373.8462, 6487.796
374.3283, 6503.237
374.8104, 6518.359
375.2925, 6533.926
375.7747, 6538.422
376.2568, 6526.089
376.7389, 6514.152
377.2210, 6532.646
377.7031, 6584.536
378.1852, 6622.918
378.6674, 6625.263
379.1495, 6603.099
379.6316, 6608.423
380.1137, 6643.178
380.5958, 6687.417
381.0779, 6722.207
381.5601, 6750.314
382.0422, 6783.907
382.5243, 6830.505
383.0064, 6878.749
383.4885, 6907.848
383.9706, 6919.993
384.4528, 6929.317
384.9349, 6943.525
385.4170, 6961.815
385.8991, 6982.864
386.3812, 7006.354
386.8633, 7033.677
387.3455, 7068.807
387.8276, 7108.807
388.3097, 7147.592
388.7918, 7184.346
389.2739, 7216.757
389.7560, 7240.106
390.2382, 7252.974
390.7203, 7269.673
391.2024, 7308.827
391.6845, 7352.277
392.1666, 7379.521
392.6487, 7355.235
393.1309, 7339.948
393.6130, 7363.270
394.0951, 7422.242
394.5772, 7478.221
395.0593, 7523.470
395.5414, 7561.387
396.0236, 7593.624
396.5057, 7618.499
396.9878, 7640.090
397.4699, 7651.033
397.9520, 7657.828
398.4341, 7680.814
398.9163, 7733.240
399.3984, 7788.128
399.8805, 7835.612
400.3626, 7872.340
400.8447, 7911.643
401.3268, 7954.635
401.8090, 7999.339
402.2911, 8044.107
402.7732, 8088.999
403.2553, 8133.114
403.7374, 8179.085
404.2195, 8225.973
404.7017, 8252.298
405.1838, 8250.696
405.6659, 8248.674
406.1480, 8273.647
406.6301, 8326.077
407.1122, 8378.372
407.5944, 8425.550
408.0765, 8469.999
408.5586, 8518.831
409.0407, 8572.077
409.5228, 8619.766
410.0049, 8653.907
410.4871, 8676.948
410.9692, 8696.162
411.4513, 8712.449
411.9334, 8724.303
412.4155, 8725.446
412.8976, 8720.204
413.3798, 8720.894
413.8619, 8737.932
414.3440, 8760.918
414.8261, 8784.910
415.3082, 8809.547
415.7903, 8818.338
416.2725, 8789.395
416.7546, 8743.008
417.2367, 8701.474
417.7188, 8678.185
418.2009, 8655.137
418.6830, 8622.413
419.1652, 8582.714
419.6473, 8547.227
420.1294, 8522.673
420.6115, 8500.798
421.0937, 8477.573
421.5758, 8455.568
422.0579, 8426.440
422.5400, 8382.784
423.0221, 8332.638
423.5042, 8288.364
423.9864, 8260.273
424.4685, 8227.451
424.9506, 8183.393
425.4327, 8127.684
425.9148, 8072.375
426.3969, 8011.889
426.8791, 7958.157
427.3612, 7926.241
427.8433, 7927.894
428.3254, 7913.913
428.8075, 7873.673
429.2896, 7814.628
429.7718, 7762.451
430.2539, 7717.783
430.7360, 7675.900
431.2181, 7637.061
431.7002, 7600.611
432.1823, 7554.347
432.6645, 7494.786
433.1466, 7434.812
433.6287, 7397.778
434.1108, 7378.798
434.5929, 7352.926
435.0750, 7301.471
435.5572, 7240.629
436.0393, 7198.917
436.5214, 7175.837
437.0035, 7160.718
437.4856, 7152.901
437.9677, 7145.787
438.4499, 7129.875
438.9320, 7100.560
439.4141, 7065.630
439.8962, 7022.208
440.3783, 6976.854
440.8604, 6945.201
441.3426, 6951.169
441.8247, 6960.382
442.3068, 6955.486
442.7889, 6934.832
443.2710, 6898.693
443.7531, 6828.891
444.2353, 6750.848
444.7174, 6691.464
445.1995, 6676.106
445.6816, 6656.918
446.1637, 6621.456
446.6458, 6572.320
447.1280, 6534.910
447.6101, 6517.775
448.0922, 6502.849
448.5743, 6480.149
449.0564, 6445.832
449.5385, 6413.225
450.0207, 6382.817
450.5028, 6354.243
450.9849, 6328.457
451.4670, 6307.137
451.9491, 6281.244
452.4312, 6246.127
452.9134, 6202.983
453.3955, 6157.399
453.8776, 6108.288
454.3597, 6065.405
454.8418, 6046.612
455.3239, 6044.708
455.8061, 6029.150
456.2882, 5987.618
456.7703, 5937.520
457.2524, 5903.291
457.7345, 5882.265
458.2166, 5862.834
458.6988, 5839.113
459.1809, 5813.095
459.6630, 5787.000
460.1451, 5760.718
460.6272, 5734.922
461.1093, 5710.542
461.5915, 5686.837
462.0736, 5663.380
462.5557, 5638.940
463.0378, 5615.745
463.5199, 5595.585
464.0020, 5578.101
464.4842, 5559.758
464.9663, 5542.307
465.4484, 5522.151
465.9305, 5496.478
466.4126, 5455.240
466.8947, 5425.960
467.3769, 5417.489
467.8590, 5417.177
468.3411, 5403.210
468.8232, 5367.720
469.3053, 5334.039
469.7874, 5306.948
470.2696, 5286.498
470.7517, 5274.999
471.2338, 5274.480
471.7159, 5276.711
472.1980, 5275.479
472.6801, 5270.778
473.1623, 5263.348
473.6444, 5252.749
474.1265, 5240.454
474.6086, 5229.580
475.0907, 5219.658
475.5728, 5207.667
476.0550, 5190.349
476.5371, 5170.446
477.0192, 5151.226
477.5013, 5132.646
477.9834, 5118.611
478.4655, 5114.212
478.9477, 5115.521
479.4298, 5117.559
479.9119, 5119.859
480.3940, 5121.279
480.8761, 5124.596
481.3582, 5127.050
481.8404, 5120.550
482.3225, 5092.218
482.8046, 5062.771
483.2867, 5042.298
483.7688, 5034.946
484.2509, 5025.147
484.7331, 5007.798
485.2152, 4989.450
485.6973, 4975.686
486.1794, 4966.483
486.6615, 4962.391
487.1436, 4966.537
487.6258, 4975.983
488.1079, 4975.323
488.5900, 4960.778
489.0721, 4946.576
489.5542, 4941.932
490.0363, 4946.930
490.5185, 4948.909
491.0006, 4948.222
491.4827, 4942.187
491.9648, 4918.273
492.4470, 4882.003
492.9291, 4866.131
493.4112, 4895.557
493.8933, 4939.816
494.3754, 4950.297
494.8575, 4930.912
495.3397, 4905.679
495.8218, 4884.477
496.3039, 4868.295
496.7860, 4860.122
497.2681, 4862.726
497.7502, 4863.327
498.2324, 4854.554
498.7145, 4839.851
499.1966, 4823.726
499.6787, 4794.568
500.1608, 4777.380
500.6429, 4788.204
501.1251, 4824.577
501.6072, 4846.031
502.0893, 4840.194
502.5714, 4827.617
503.0535, 4816.899
503.5356, 4806.184
504.0178, 4802.641
504.4999, 4810.641
504.9820, 4821.857
505.4641, 4823.324
505.9462, 4813.620
506.4283, 4801.522
506.9105, 4788.971
507.3926, 4776.125
507.8747, 4760.014
508.3568, 4739.895
508.8389, 4730.093
509.3210, 4752.543
509.8032, 4793.378
510.2853, 4811.854
510.7674, 4799.329
511.2495, 4779.673
511.7316, 4776.682
512.2137, 4784.680
512.6959, 4792.125
513.1780, 4795.306
513.6601, 4795.436
514.1422, 4791.494
514.6243, 4784.292
515.1064, 4779.150
515.5886, 4779.686
516.0707, 4781.851
516.5528, 4783.213
517.0349, 4783.062
517.5170, 4782.972
517.9991, 4784.810
518.4813, 4786.115
518.9634, 4783.768
519.4455, 4777.390
519.9276, 4767.629
520.4097, 4752.004
520.8918, 4732.616
521.3740, 4723.847
521.8561, 4729.575
522.3382, 4733.068
522.8203, 4719.521
523.3024, 4690.545
523.7845, 4673.351
524.2667, 4671.044
524.7488, 4674.149
525.2309, 4673.435
525.7130, 4668.684
526.1951, 4658.542
526.6772, 4635.155
527.1594, 4613.089
527.6415, 4617.261
528.1236, 4640.840
528.6057, 4653.787
529.0878, 4624.692
529.5699, 4587.655
530.0521, 4570.621
530.5342, 4581.964
531.0163, 4590.667
531.4984, 4585.942
531.9805, 4573.979
532.4626, 4561.385
532.9448, 4546.452
533.4269, 4533.919
533.9090, 4522.912
534.3911, 4514.534
534.8732, 4514.613
535.3553, 4528.791
535.8375, 4540.817
536.3196, 4541.891
536.8017, 4531.220
537.2838, 4526.968
537.7659, 4529.875
538.2480, 4536.656
538.7302, 4545.244
539.2123, 4555.226
539.6944, 4564.028
540.1765, 4572.916
540.6586, 4577.053
541.1407, 4566.119
541.6229, 4543.734
542.1050, 4522.814
542.5871, 4505.552
543.0692, 4495.922
543.5513, 4502.470
544.0334, 4525.330
544.5156, 4543.207
544.9977, 4545.646
545.4798, 4539.271
545.9619, 4528.486
546.4440, 4504.255
546.9261, 4490.349
547.4083, 4498.680
547.8904, 4517.709
548.3725, 4526.100
548.8546, 4515.943
549.3367, 4508.336
549.8188, 4509.404
550.3010, 4518.208
550.7831, 4522.956
551.2652, 4522.007
551.7473, 4522.494
552.2294, 4530.254
552.7115, 4544.621
553.1937, 4559.217
553.6758, 4573.864
554.1579, 4587.375
554.6400, 4599.938
555.1221, 4610.373
555.6042, 4614.251
556.0864, 4598.387
556.5685, 4587.150
557.0506, 4613.562
557.5327, 4667.271
558.0148, 4709.387
558.4969, 4710.609
558.9791, 4702.222
559.4612, 4703.503
559.9433, 4718.730
560.4254, 4731.806
560.9075, 4739.166
561.3896, 4743.431
561.8718, 4746.994
562.3539, 4748.792
562.8360, 4752.036
563.3181, 4758.986
563.8002, 4766.534
564.2823, 4765.921
564.7645, 4755.088
565.2466, 4745.277
565.7287, 4740.355
566.2108, 4740.072
566.6929, 4745.853
567.1750, 4758.037
567.6572, 4767.498
568.1393, 4763.351
568.6214, 4751.389
569.1035, 4744.628
569.5856, 4746.956
570.0677, 4746.717
570.5499, 4725.459
571.0320, 4697.022
571.5141, 4683.131
571.9962, 4703.213
572.4783, 4727.900
572.9604, 4746.615
573.4426, 4760.046
573.9247, 4773.251
574.4068, 4793.810
574.8889, 4807.614
575.3710, 4805.453
575.8531, 4780.955
576.3353, 4775.296
576.8174, 4795.797
577.2995, 4824.363
577.7816, 4843.236
578.2637, 4851.018
578.7458, 4863.757
579.2280, 4885.152
579.7101, 4909.953
580.1922, 4929.028
580.6743, 4943.052
581.1564, 4955.816
581.6385, 4967.717
582.1207, 4980.104
582.6028, 4994.813
583.0849, 5011.562
583.5670, 5029.107
584.0491, 5047.987
584.5313, 5066.523
585.0134, 5082.708
585.4955, 5094.564
585.9776, 5109.441
586.4597, 5134.812
586.9418, 5161.728
587.4240, 5179.607
587.9061, 5183.033
588.3882, 5185.585
588.8703, 5187.326
589.3524, 5189.492
589.8345, 5196.253
590.3167, 5208.651
590.7988, 5221.900
591.2809, 5235.576
591.7630, 5248.539
592.2451, 5252.385
592.7272, 5246.787
593.2094, 5240.100
593.6915, 5243.278
594.1736, 5249.503
594.6557, 5243.216
595.1378, 5218.821
595.6199, 5195.708
596.1021, 5193.188
596.5842, 5199.919
597.0663, 5199.723
597.5485, 5186.387
598.0306, 5166.128
598.5127, 5132.862
598.9948, 5092.121
599.4769, 5067.540
599.9590, 5074.979
600.4412, 5080.610
600.9233, 5072.653
601.4054, 5050.044
601.8875, 5030.125
602.3696, 5013.302
602.8517, 4998.527
603.3339, 4986.181
603.8160, 4975.909
604.2981, 4964.140
604.7802, 4950.284
605.2623, 4935.913
605.7444, 4920.634
606.2266, 4906.360
606.7087, 4899.150
607.1908, 4907.310
607.6729, 4916.769
608.1550, 4918.643
608.6371, 4912.986
609.1193, 4900.047
609.6014, 4864.213
610.0835, 4834.653
610.5656, 4831.605
611.0477, 4861.737
611.5298, 4873.488
612.0120, 4851.071
612.4941, 4823.958
612.9762, 4811.872
613.4583, 4818.729
613.9404, 4828.215
614.4225, 4843.204
614.9047, 4854.389
615.3868, 4841.431
615.8689, 4806.917
616.3510, 4787.472
616.8331, 4798.655
617.3152, 4823.906
617.7974, 4843.264
618.2795, 4855.854
618.7616, 4859.505
619.2437, 4842.466
619.7258, 4823.862
620.2079, 4820.843
620.6901, 4834.111
621.1722, 4842.508
621.6543, 4835.446
622.1364, 4823.377
622.6185, 4812.345
623.1006, 4799.598
623.5828, 4795.262
624.0649, 4804.342
624.5470, 4817.242
625.0291, 4823.338
625.5112, 4822.601
625.9933, 4814.393
626.4755, 4796.769
626.9576, 4774.248
627.4397, 4753.883
627.9218, 4736.179
628.4039, 4724.979
628.8860, 4726.462
629.3682, 4733.296
629.8503, 4735.331
630.3324, 4733.183
630.8145, 4731.776
631.2966, 4737.861
631.7787, 4743.023
632.2609, 4740.059
632.7430, 4725.329
633.2251, 4713.270
633.7072, 4706.177
634.1893, 4703.357
634.6714, 4704.550
635.1536, 4711.956
635.6357, 4719.098
636.1178, 4727.223
636.5999, 4733.019
637.0820, 4727.695
637.5641, 4710.663
638.0463, 4696.933
638.5284, 4688.178
639.0105, 4688.361
639.4926, 4716.681
639.9747, 4766.660
640.4568, 4800.194
640.9390, 4776.818
641.4211, 4738.058
641.9032, 4724.637
642.3853, 4739.432
642.8674, 4751.982
643.3495, 4742.390
643.8317, 4731.502
644.3138, 4734.955
644.7959, 4769.245
645.2780, 4788.647
645.7601, 4784.627
646.2422, 4773.196
646.7244, 4773.272
647.2065, 4786.716
647.6886, 4802.759
648.1707, 4821.099
648.6528, 4838.686
649.1349, 4848.632
649.6171, 4851.728
650.0992, 4853.898
650.5813, 4850.046
651.0634, 4851.658
651.5455, 4878.948
652.0276, 4927.386
652.5098, 4971.353
652.9919, 4983.849
653.4740, 4998.023
653.9561, 5042.479
654.4382, 5129.492
654.9203, 5187.188
655.4025, 5178.215
655.8846, 5160.688
656.3667, 5174.000
656.8488, 5229.812
657.3309, 5281.744
657.8130, 5327.377
658.2952, 5370.856
658.7773, 5418.366
659.2594, 5469.843
659.7415, 5518.628
660.2236, 5559.712
660.7057, 5603.112
661.1879, 5668.288
661.6700, 5747.771
662.1521, 5819.979
662.6342, 5875.822
663.1163, 5919.860
663.5984, 5951.864
664.0806, 5973.062
664.5627, 5992.310
665.0448, 6003.770
665.5269, 6021.231
666.0090, 6057.938
666.4911, 6121.475
666.9733, 6141.709
667.4554, 6104.009
667.9375, 6052.014
668.4196, 6022.929
668.9017, 6015.675
669.3839, 5999.943
669.8660, 5972.966
670.3481, 5938.104
670.8302, 5893.735
671.3123, 5844.941
671.7944, 5803.051
672.2766, 5775.434
672.7587, 5750.034
673.2408, 5717.237
673.7229, 5681.102
674.2050, 5648.914
674.6871, 5628.261
675.1693, 5605.729
675.6514, 5571.737
676.1335, 5530.857
676.6156, 5508.449
677.0977, 5508.370
677.5798, 5518.265
678.0620, 5535.971
678.5441, 5560.281
679.0262, 5577.856
679.5083, 5588.670
679.9904, 5595.500
680.4725, 5596.073
680.9547, 5595.528
681.4368, 5604.723
681.9189, 5625.823
682.4010, 5647.021
682.8831, 5655.870
683.3652, 5662.846
683.8474, 5678.791
684.3295, 5713.861
684.8116, 5745.708
685.2937, 5770.636
685.7758, 5790.886
686.2579, 5808.449
686.7401, 5822.421
687.2222, 5836.284
687.7043, 5851.287
688.1864, 5865.779
688.6685, 5874.684
689.1506, 5878.367
689.6328, 5882.788
690.1149, 5892.929
690.5970, 5903.914
691.0791, 5910.619
691.5612, 5912.391
692.0433, 5906.010
692.5255, 5887.831
693.0076, 5862.422
693.4897, 5828.640
693.9718, 5785.054
694.4539, 5752.279
694.9360, 5740.315
695.4182, 5733.220
695.9003, 5725.303
696.3824, 5720.990
696.8645, 5694.043
697.3466, 5638.070
697.8287, 5576.233
698.3109, 5535.609
698.7930, 5512.004
699.2751, 5481.971
699.7572, 5440.057
700.2393, 5397.298
700.7214, 5362.500
701.2036, 5335.455
701.6857, 5315.953
702.1678, 5310.240
702.6499, 5304.675
703.1320, 5294.666
703.6141, 5281.056
704.0963, 5265.943
704.5784, 5250.688
705.0605, 5231.560
705.5426, 5203.743
706.0247, 5171.660
706.5068, 5158.886
706.9890, 5167.917
707.4711, 5174.673
707.9532, 5162.720
708.4353, 5140.239
708.9174, 5131.214
709.3995, 5134.046
709.8817, 5133.365
710.3638, 5107.057
710.8459, 5080.093
711.3280, 5078.954
711.8101, 5109.834
712.2922, 5134.129
712.7744, 5136.100
713.2565, 5131.445
713.7386, 5131.349
714.2207, 5139.671
714.7028, 5142.296
715.1849, 5137.954
715.6671, 5130.144
716.1492, 5122.662
716.6313, 5115.385
717.1134, 5105.404
717.5955, 5091.475
718.0776, 5077.444
718.5598, 5063.682
719.0419, 5053.988
719.5240, 5056.561
720.0061, 5096.327
720.4882, 5122.146
720.9703, 5092.603
721.4525, 5033.280
721.9346, 5002.365
722.4167, 5029.673
722.8988, 5057.070
723.3809, 5074.911
723.8630, 5084.769
724.3452, 5094.089
724.8273, 5103.880
725.3094, 5105.681
725.7915, 5091.217
726.2736, 5067.392
726.7557, 5049.917
727.2379, 5038.895
727.7200, 5035.122
728.2021, 5047.183
728.6842, 5060.970
729.1663, 5060.395
729.6484, 5043.483
730.1306, 5039.596
730.6127, 5076.964
731.0948, 5113.032
731.5769, 5122.892
732.0590, 5098.191
732.5411, 5082.677
733.0233, 5078.266
733.5054, 5078.741
733.9875, 5078.016
734.4696, 5076.753
734.9517, 5081.760
735.4338, 5095.241
735.9160, 5106.345
736.3981, 5107.412
736.8802, 5097.924
737.3623, 5075.051
737.8444, 5026.917
738.3266, 4986.932
738.8087, 4969.305
739.2908, 4966.625
739.7729, 4968.663
740.2551, 4976.495
740.7372, 4985.697
741.2193, 4996.580
741.7014, 5007.888
742.1835, 5019.142
742.6656, 5030.360
743.1478, 5031.003
743.6299, 5010.759
744.1120, 4986.862
744.5941, 4993.199
745.0762, 5019.884
745.5583, 5036.394
746.0405, 5007.790
746.5226, 4983.222
747.0047, 4998.659
747.4868, 5045.983
747.9689, 5075.159
748.4510, 5069.883
748.9332, 5058.922
749.4153, 5050.426
749.8974, 5043.991
750.3795, 5032.315
750.8616, 5014.010
751.3438, 5001.405
751.8259, 5004.782
752.3080, 5019.124
752.7901, 5034.495
753.2722, 5050.382
753.7543, 5063.635
754.2365, 5073.012
754.7186, 5078.310
755.2007, 5075.864
755.6828, 5061.989
756.1649, 5060.893
756.6470, 5087.638
757.1292, 5118.599
757.6113, 5140.890
758.0934, 5154.293
758.5755, 5157.876
759.0576, 5148.892
759.5397, 5139.403
760.0219, 5141.510
760.5040, 5153.425
760.9861, 5170.576
761.4682, 5192.886
761.9503, 5215.905
762.4324, 5236.792
762.9146, 5256.266
763.3967, 5274.818
763.8788, 5286.796
764.3609, 5307.357
764.8430, 5351.627
765.3251, 5398.324
765.8073, 5420.835
766.2894, 5410.368
766.7715, 5408.847
767.2536, 5420.024
767.7357, 5446.235
768.2178, 5505.148
768.7000, 5586.189
769.1821, 5642.167
769.6642, 5646.139
770.1463, 5639.630
770.6284, 5660.021
771.1105, 5695.515
771.5927, 5723.311
772.0748, 5725.407
772.5569, 5731.972
773.0390, 5753.566
773.5211, 5783.726
774.0032, 5805.733
774.4854, 5817.645
774.9675, 5829.103
775.4496, 5844.709
775.9317, 5860.201
776.4138, 5861.117
776.8959, 5850.443
777.3781, 5844.422
777.8602, 5855.537
778.3423, 5871.721
778.8244, 5887.336
779.3065, 5900.429
779.7886, 5903.561
780.2708, 5891.055
780.7529, 5870.914
781.2350, 5838.523
781.7171, 5797.649
782.1992, 5787.988
782.6813, 5817.311
783.1635, 5847.367
783.6456, 5859.951
784.1277, 5858.044
784.6098, 5851.083
785.0919, 5838.992
785.5740, 5821.153
786.0562, 5783.768
786.5383, 5749.986
787.0204, 5746.424
787.5025, 5774.094
787.9846, 5788.631
788.4667, 5772.860
788.9489, 5747.401
789.4310, 5716.581
789.9131, 5679.534
790.3952, 5659.812
790.8773, 5660.108
791.3594, 5665.907
791.8416, 5671.548
792.3237, 5673.753
792.8058, 5657.141
793.2879, 5621.375
793.7700, 5596.350
794.2521, 5613.665
794.7343, 5643.107
795.2164, 5660.957
795.6985, 5663.437
796.1806, 5657.622
796.6627, 5632.575
797.1448, 5612.799
797.6270, 5618.750
798.1091, 5656.005
798.5912, 5672.033
799.0733, 5664.206
799.5554, 5648.060
800.0375, 5633.925
800.5197, 5623.593
801.0018, 5621.254
801.4839, 5627.997
801.9660, 5638.654
802.4481, 5646.348
802.9302, 5658.905
803.4124, 5685.577
803.8945, 5745.439
804.3766, 5775.743
804.8587, 5756.219
805.3408, 5733.864
805.8229, 5759.107
806.3051, 5831.515
806.7872, 5880.042
807.2693, 5896.169
807.7514, 5904.266
808.2335, 5929.607
808.7156, 5963.682
809.1978, 5992.813
809.6799, 6011.781
810.1620, 6033.785
810.6441, 6068.082
811.1262, 6105.999
811.6083, 6137.655
812.0905, 6153.675
812.5726, 6186.708
813.0547, 6242.944
813.5368, 6304.824
814.0189, 6350.213
814.5010, 6382.001
814.9832, 6417.697
815.4653, 6460.612
815.9474, 6504.053
816.4295, 6548.594
816.9116, 6587.573
817.3937, 6610.239
817.8759, 6596.213
818.3580, 6600.630
818.8401, 6661.625
819.3222, 6727.994
819.8043, 6747.773
820.2864, 6708.127
820.7686, 6681.613
821.2507, 6676.773
821.7328, 6680.209
822.2149, 6678.952
822.6970, 6672.159
823.1791, 6656.542
823.6613, 6629.677
824.1434, 6599.993
824.6255, 6569.107
825.1076, 6540.459
825.5897, 6518.428
826.0718, 6527.779
826.5540, 6506.448
827.0361, 6440.892
827.5182, 6359.824
828.0003, 6296.110
828.4824, 6250.051
828.9645, 6205.384
829.4467, 6161.339
829.9288, 6112.770
830.4109, 6044.098
830.8930, 5970.348
831.3751, 5915.825
831.8572, 5896.955
832.3394, 5875.639
832.8215, 5837.574
833.3036, 5790.539
833.7857, 5741.417
834.2678, 5684.386
834.7499, 5645.538
835.2321, 5630.510
835.7142, 5625.153
836.1963, 5614.049
836.6784, 5597.779
837.1605, 5576.437
837.6426, 5547.675
838.1248, 5525.609
838.6069, 5519.760
839.0890, 5527.351
839.5711, 5547.827
840.0532, 5605.998
840.5353, 5628.676
841.0175, 5592.170
841.4996, 5540.077
841.9817, 5515.121
842.4638, 5517.729
842.9459, 5536.213
843.4280, 5572.857
843.9102, 5607.625
844.3923, 5613.832
844.8744, 5604.946
845.3565, 5604.727
845.8386, 5622.923
846.3207, 5630.916
846.8029, 5606.111
847.2850, 5573.041
847.7671, 5555.070
848.2492, 5566.017
848.7313, 5553.774
849.2134, 5513.500
849.6956, 5462.535
850.1777, 5416.166
850.6598, 5373.147
851.1419, 5325.421
851.6240, 5270.229
852.1061, 5227.908
852.5883, 5229.259
853.0704, 5240.744
853.5525, 5228.008
854.0346, 5171.717
854.5167, 5137.449
854.9988, 5140.298
855.4810, 5150.576
855.9631, 5148.906
856.4452, 5135.150
856.9273, 5108.924
857.4094, 5068.721
857.8915, 5037.603
858.3737, 5045.331
858.8558, 5069.692
859.3379, 5082.288
859.8200, 5078.935
860.3021, 5075.640
860.7842, 5081.831
861.2664, 5086.557
861.7485, 5082.191
862.2306, 5067.004
862.7127, 5061.834
863.1948, 5069.258
863.6769, 5075.160
864.1591, 5054.702
864.6412, 5028.708
865.1233, 5065.910
865.6054, 5161.478
866.0875, 5223.678
866.5696, 5155.826
867.0518, 5072.773
867.5339, 5055.532
868.0160, 5113.134
868.4981, 5134.691
868.9802, 5102.563
869.4623, 5071.152
869.9445, 5069.139
870.4266, 5088.647
870.9087, 5089.068
871.3908, 5072.863
871.8729, 5065.774
872.3550, 5094.875
872.8372, 5130.410
873.3193, 5147.743
873.8014, 5148.792
874.2835, 5147.613
874.7656, 5141.473
875.2477, 5140.619
875.7299, 5148.012
876.2120, 5162.575
876.6941, 5182.448
877.1762, 5207.536
877.6583, 5229.707
878.1404, 5243.754
878.6226, 5254.468
879.1047, 5266.479
879.5869, 5280.207
880.0690, 5296.994
880.5511, 5326.335
881.0332, 5348.248
881.5153, 5350.175
881.9974, 5343.072
882.4796, 5349.003
882.9617, 5369.382
883.4438, 5395.708
883.9259, 5427.409
884.4080, 5460.704
884.8901, 5492.104
885.3723, 5520.071
885.8544, 5540.156
886.3365, 5542.337
886.8186, 5549.971
887.3007, 5579.649
887.7828, 5618.133
888.2650, 5646.749
888.7471, 5661.591
889.2292, 5674.323
889.7113, 5683.356
890.1934, 5696.319
890.6755, 5727.304
891.1577, 5770.573
891.6398, 5808.733
892.1219, 5837.378
892.6040, 5865.008
893.0861, 5890.711
893.5682, 5921.727
894.0504, 5967.260
894.5325, 6040.686
895.0146, 6095.770
895.4967, 6126.386
895.9788, 6149.865
896.4609, 6177.215
896.9431, 6209.078
897.4252, 6254.505
897.9073, 6314.200
898.3894, 6363.740
898.8715, 6370.333
899.3536, 6370.054
899.8358, 6398.101
900.3179, 6460.515
900.8000, 6509.777
901.2821, 6527.763
901.7642, 6552.030
902.2463, 6611.641
902.7285, 6695.264
903.2106, 6712.788
903.6927, 6666.469
904.1748, 6619.888
904.6569, 6627.425
905.1390, 6641.722
905.6212, 6604.128
906.1033, 6528.078
906.5854, 6473.250
907.0675, 6481.125
907.5496, 6483.285
908.0317, 6464.152
908.5139, 6428.175
908.9960, 6383.009
909.4781, 6328.776
909.9602, 6287.018
910.4423, 6271.696
910.9244, 6262.752
911.4066, 6234.252
911.8887, 6195.071
912.3708, 6161.122
912.8529, 6139.500
913.3350, 6122.117
913.8171, 6112.235
914.2993, 6102.502
914.7814, 6081.342
915.2635, 6047.543
915.7456, 6018.758
916.2277, 5998.052
916.7098, 5980.229
917.1920, 5962.036
917.6741, 5942.005
918.1562, 5915.941
918.6383, 5879.160
919.1204, 5851.381
919.6025, 5842.849
920.0847, 5842.272
920.5668, 5846.063
921.0489, 5857.791
921.5310, 5843.320
922.0131, 5799.813
922.4952, 5754.508
922.9774, 5721.616
923.4595, 5704.859
923.9416, 5720.640
924.4237, 5766.419
924.9058, 5796.035
925.3879, 5780.497
925.8701, 5755.102
926.3522, 5731.261
926.8343, 5710.021
927.3164, 5704.520
927.7985, 5717.529
928.2806, 5719.660
928.7628, 5686.804
929.2449, 5645.443
929.7270, 5644.297
930.2091, 5669.120
930.6912, 5681.268
931.1733, 5643.490
931.6555, 5615.912
932.1376, 5627.575
932.6197, 5655.816
933.1018, 5661.589
933.5839, 5641.292
934.0660, 5625.923
934.5482, 5621.400
935.0303, 5622.136
935.5124, 5623.946
935.9945, 5624.980
936.4766, 5623.354
936.9587, 5622.258
937.4409, 5608.345
937.9230, 5559.466
938.4051, 5509.514
938.8872, 5485.826
939.3693, 5493.487
939.8514, 5497.875
940.3336, 5499.126
940.8157, 5495.074
941.2978, 5479.425
941.7799, 5459.497
942.2620, 5443.259
942.7441, 5431.790
943.2263, 5430.750
943.7084, 5460.484
944.1905, 5481.733
944.6726, 5475.848
945.1547, 5447.776
945.6368, 5424.710
946.1190, 5405.805
946.6011, 5404.797
947.0832, 5440.664
947.5653, 5483.580
948.0474, 5491.079
948.5295, 5474.667
949.0117, 5461.111
949.4938, 5454.538
949.9759, 5458.957
950.4580, 5478.498
950.9401, 5506.063
951.4222, 5533.413
951.9044, 5560.840
952.3865, 5576.298
952.8686, 5575.471
953.3507, 5573.915
953.8328, 5588.217
954.3149, 5611.657
954.7971, 5637.322
955.2792, 5665.537
955.7613, 5687.377
956.2434, 5694.394
956.7255, 5703.512
957.2076, 5728.229
957.6898, 5767.830
958.1719, 5791.971
958.6540, 5800.993
959.1361, 5805.304
959.6182, 5806.826
960.1003, 5811.170
960.5825, 5822.070
961.0646, 5840.070
961.5467, 5868.007
962.0288, 5920.813
962.5109, 5960.707
962.9930, 5974.942
963.4752, 5973.366
963.9573, 5978.824
964.4394, 5990.261
964.9215, 6000.756
965.4036, 6005.119
965.8857, 6013.874
966.3679, 6041.960
966.8500, 6076.761
967.3321, 6101.638
967.8142, 6104.633
968.2963, 6114.431
968.7784, 6130.583
969.2606, 6154.529
969.7427, 6187.119
970.2248, 6228.528
970.7069, 6285.348
971.1890, 6357.512
971.6711, 6419.215
972.1533, 6441.307
972.6354, 6456.633
973.1175, 6488.135
973.5996, 6536.294
974.0817, 6574.078
974.5638, 6591.869
975.0460, 6635.072
975.5281, 6736.278
976.0102, 6862.841
976.4923, 6939.156
976.9744, 6981.984
977.4565, 7040.561
977.9387, 7169.080
978.4208, 7278.693
978.9029, 7313.738
979.3850, 7323.610
979.8671, 7376.153
980.3492, 7477.729
980.8314, 7585.920
981.3135, 7698.092
981.7956, 7809.013
982.2777, 7912.399
982.7598, 8012.757
983.2419, 8115.837
983.7241, 8222.284
984.2062, 8333.329
984.6883, 8445.653
985.1704, 8567.273
985.6525, 8705.778
986.1346, 8859.070
986.6168, 9006.187
987.0989, 9147.111
987.5810, 9281.449
988.0631, 9395.899
988.5452, 9515.150
989.0273, 9678.062
989.5095, 9862.912
989.9916, 10011.83
990.4737, 10099.41
990.9558, 10171.56
991.4379, 10229.23
991.9200, 10278.51
992.4022, 10345.83
992.8843, 10415.59
993.3664, 10414.11
993.8485, 10319.75
994.3306, 10205.08
994.8127, 10118.68
995.2949, 10034.69
995.7770, 9936.506
996.2591, 9828.153
996.7412, 9666.211
997.2233, 9437.100
997.7054, 9209.315
998.1876, 9035.054
998.6697, 8887.895
999.1518, 8700.230
999.6339, 8482.168
1000.116, 8272.119
1000.598, 8083.570
1001.080, 7908.208
1001.562, 7742.703
1002.044, 7587.086
1002.527, 7439.149
1003.009, 7300.187
1003.491, 7164.792
1003.973, 7032.621
1004.455, 6911.877
1004.937, 6820.536
1005.419, 6744.082
1005.901, 6664.462
1006.384, 6575.196
1006.866, 6499.114
1007.348, 6448.462
1007.830, 6396.398
1008.312, 6322.542
1008.794, 6233.770
1009.276, 6168.667
1009.758, 6126.324
1010.240, 6096.376
1010.723, 6084.214
1011.205, 6071.253
1011.687, 6039.385
1012.169, 5998.376
1012.651, 5976.934
1013.133, 5988.190
1013.615, 5977.484
1014.097, 5929.035
1014.580, 5876.467
1015.062, 5872.635
1015.544, 5897.083
1016.026, 5909.393
1016.508, 5899.128
1016.990, 5894.420
1017.472, 5906.454
1017.954, 5928.161
1018.436, 5958.456
1018.919, 5996.299
1019.401, 6016.579
1019.883, 6019.202
1020.365, 6040.399
1020.847, 6115.770
1021.329, 6207.454
1021.811, 6278.819
1022.293, 6336.533
1022.776, 6398.259
1023.258, 6454.562
1023.740, 6537.594
1024.222, 6654.549
1024.704, 6793.119
1025.186, 6929.716
1025.668, 7073.019
1026.150, 7248.695
1026.632, 7461.716
1027.115, 7698.331
1027.597, 7952.252
1028.079, 8225.428
1028.561, 8520.302
1029.043, 8835.945
1029.525, 9183.633
1030.007, 9557.595
1030.489, 9964.453
1030.972, 10419.22
1031.454, 10893.29
1031.936, 11344.25
1032.418, 11792.12
1032.900, 12272.21
1033.382, 12837.44
1033.864, 13385.81
1034.346, 13900.99
1034.828, 14403.25
1035.311, 14916.95
1035.793, 15437.77
1036.275, 15900.10
1036.757, 16302.39
1037.239, 16689.25
1037.721, 17110.57
1038.203, 17513.97
1038.685, 17859.55
1039.167, 18146.26
1039.650, 18401.87
1040.132, 18632.76
1040.614, 18793.54
1041.096, 18855.80
1041.578, 18856.30
1042.060, 18858.32
1042.542, 18838.62
1043.024, 18752.51
1043.507, 18579.30
1043.989, 18352.07
1044.471, 18069.85
1044.953, 17743.78
1045.435, 17368.13
1045.917, 16948.11
1046.399, 16524.31
1046.881, 16099.68
1047.364, 15683.46
1047.846, 15303.86
1048.328, 14914.50
1048.810, 14476.42
1049.292, 13999.19
1049.774, 13535.65
1050.256, 13099.44
1050.738, 12628.61
1051.220, 12107.31
1051.703, 11557.65
1052.185, 11011.35
1052.667, 10474.03
1053.149, 9955.054
1053.631, 9451.531
1054.113, 8990.099
1054.595, 8585.126
1055.077, 8215.784
1055.559, 7871.903
1056.042, 7556.803
1056.524, 7269.582
1057.006, 7012.023
1057.488, 6798.664
1057.970, 6653.887
1058.452, 6538.898
1058.934, 6431.458
1059.416, 6335.548
1059.899, 6258.717
1060.381, 6202.326
1060.863, 6160.396
1061.345, 6135.638
1061.827, 6111.223
1062.309, 6064.792
1062.791, 6009.342
1063.273, 5961.775
1063.755, 5923.526
1064.238, 5899.439
1064.720, 5892.335
1065.202, 5899.191
1065.684, 5925.932
1066.166, 5961.377
1066.648, 5973.619
1067.130, 5965.533
1067.612, 5949.674
1068.094, 5924.370
1068.577, 5905.811
1069.059, 5906.064
1069.541, 5916.310
1070.023, 5927.326
1070.505, 5938.069
1070.987, 5956.239
1071.469, 5982.918
1071.951, 6008.536
1072.434, 6028.448
1072.916, 6042.514
1073.398, 6044.855
1073.880, 6040.810
1074.362, 6048.937
1074.844, 6089.015
1075.326, 6113.131
1075.808, 6108.355
1076.291, 6098.544
1076.773, 6121.852
1077.255, 6167.090
1077.737, 6200.818
1078.219, 6217.358
1078.701, 6234.898
1079.183, 6272.017
1079.665, 6301.601
1080.147, 6304.111
1080.630, 6287.491
1081.112, 6302.019
1081.594, 6346.755
1082.076, 6392.988
1082.558, 6430.136
1083.040, 6464.303
1083.522, 6505.625
1084.004, 6545.195
1084.486, 6569.133
1084.969, 6567.588
1085.451, 6576.805
1085.933, 6598.828
1086.415, 6623.583
1086.897, 6646.692
1087.379, 6665.685
1087.861, 6674.690
1088.343, 6675.244
1088.826, 6674.157
1089.308, 6660.123
1089.790, 6665.466
1090.272, 6704.981
1090.754, 6754.613
1091.236, 6774.810
1091.718, 6771.411
1092.200, 6770.974
1092.682, 6777.565
1093.165, 6784.646
1093.647, 6793.859
1094.129, 6796.638
1094.611, 6782.236
1095.093, 6755.159
1095.575, 6751.628
1096.057, 6772.980
1096.539, 6784.788
1097.022, 6774.039
1097.504, 6748.947
1097.986, 6711.490
1098.468, 6667.493
1098.950, 6624.614
1099.432, 6580.116
1099.914, 6548.412
1100.396, 6534.040
1100.879, 6519.539
1101.361, 6496.976
1101.843, 6463.697
1102.325, 6400.539
1102.807, 6319.070
1103.289, 6263.409
1103.771, 6283.254
1104.253, 6283.517
1104.735, 6239.644
1105.218, 6180.183
1105.700, 6144.729
1106.182, 6129.005
1106.664, 6118.040
1107.146, 6110.185
1107.628, 6092.230
1108.110, 6041.558
1108.592, 5992.847
1109.074, 5969.356
1109.557, 5963.847
1110.039, 5948.776
1110.521, 5923.926
1111.003, 5895.178
1111.485, 5861.262
1111.967, 5834.036
1112.449, 5831.297
1112.931, 5838.196
1113.414, 5839.991
1113.896, 5836.130
1114.378, 5818.771
1114.860, 5784.652
1115.342, 5750.924
1115.824, 5721.733
1116.306, 5703.428
1116.788, 5712.542
1117.271, 5739.665
1117.753, 5764.008
1118.235, 5789.220
1118.717, 5793.260
1119.199, 5767.479
1119.681, 5735.164
1120.163, 5715.530
1120.645, 5708.458
1121.127, 5719.033
1121.609, 5745.055
1122.092, 5765.644
1122.574, 5764.020
1123.056, 5762.660
1123.538, 5769.671
1124.020, 5780.971
1124.502, 5792.259
1124.984, 5802.000
1125.466, 5791.431
1125.949, 5753.879
1126.431, 5726.516
1126.913, 5745.565
1127.395, 5775.989
1127.877, 5793.873
1128.359, 5799.897
1128.841, 5803.394
1129.323, 5804.589
1129.806, 5796.815
1130.288, 5770.978
1130.770, 5749.621
1131.252, 5763.159
1131.734, 5791.518
1132.216, 5807.499
1132.698, 5803.065
1133.180, 5805.230
1133.662, 5815.214
1134.145, 5826.642
1134.627, 5833.691
1135.109, 5840.987
1135.591, 5862.149
1136.073, 5889.164
1136.555, 5901.185
1137.037, 5870.302
1137.519, 5858.595
1138.001, 5874.947
1138.484, 5899.871
1138.966, 5915.233
1139.448, 5922.870
1139.930, 5923.310
1140.412, 5918.162
1140.894, 5919.681
1141.376, 5938.878
1141.858, 5958.059
1142.341, 5972.417
1142.823, 5984.407
1143.305, 5999.977
1143.787, 6017.618
1144.269, 6030.667
1144.751, 6037.835
1145.233, 6042.390
1145.715, 6042.185
1146.198, 6044.187
1146.680, 6053.042
1147.162, 6067.001
1147.644, 6077.258
1148.126, 6084.151
1148.608, 6091.667
1149.090, 6101.229
1149.572, 6111.738
1150.054, 6120.545
1150.536, 6131.288
1151.019, 6150.125
1151.501, 6178.585
1151.983, 6188.513
1152.465, 6178.923
1152.947, 6176.381
1153.429, 6202.118
1153.911, 6233.535
1154.393, 6249.437
1154.876, 6255.760
1155.358, 6262.055
1155.840, 6267.007
1156.322, 6277.756
1156.804, 6294.126
1157.286, 6317.957
1157.768, 6362.842
1158.250, 6407.553
1158.733, 6419.939
1159.215, 6407.767
1159.697, 6403.325
1160.179, 6413.627
1160.661, 6426.758
1161.143, 6440.917
1161.625, 6459.055
1162.107, 6490.275
1162.589, 6525.519
1163.072, 6547.766
1163.554, 6556.601
1164.036, 6566.222
1164.518, 6580.618
1165.000, 6593.915
1165.482, 6601.108
1165.964, 6612.453
1166.446, 6655.846
1166.928, 6715.390
1167.411, 6753.093
1167.893, 6758.462
1168.375, 6768.599
1168.857, 6807.020
1169.339, 6837.711
1169.821, 6843.404
1170.303, 6834.091
1170.785, 6831.678
1171.268, 6839.140
1171.750, 6870.068
1172.232, 6942.713
1172.714, 7001.951
1173.196, 7013.335
1173.678, 7015.416
1174.160, 7029.745
1174.642, 7054.399
1175.125, 7073.893
1175.607, 7090.213
1176.089, 7113.392
1176.571, 7154.351
1177.053, 7195.461
1177.535, 7235.463
1178.017, 7266.779
1178.499, 7279.973
1178.981, 7275.353
1179.464, 7268.504
1179.946, 7260.408
1180.428, 7261.444
1180.910, 7274.190
1181.392, 7302.018
1181.874, 7368.954
1182.356, 7441.400
1182.838, 7461.645
1183.320, 7427.368
1183.803, 7417.440
1184.285, 7438.606
1184.767, 7465.087
1185.249, 7478.949
1185.731, 7490.182
1186.213, 7508.514
1186.695, 7528.962
1187.177, 7535.412
1187.660, 7526.661
1188.142, 7522.051
1188.624, 7524.687
1189.106, 7532.186
1189.588, 7550.370
1190.070, 7566.012
1190.552, 7556.656
1191.034, 7530.665
1191.516, 7558.050
1191.999, 7648.513
1192.481, 7696.206
1192.963, 7667.047
1193.445, 7617.674
1193.927, 7596.357
1194.409, 7589.066
1194.891, 7585.091
1195.373, 7583.448
1195.855, 7568.825
1196.338, 7538.295
1196.820, 7520.845
1197.302, 7533.907
1197.784, 7552.088
1198.266, 7544.083
1198.748, 7526.574
1199.230, 7522.404
1199.712, 7537.427
1200.195, 7541.423
1200.677, 7533.188
1201.159, 7522.731
1201.641, 7520.126
1202.123, 7512.225
1202.605, 7474.412
1203.087, 7424.481
1203.569, 7391.282
1204.052, 7381.623
1204.534, 7377.490
1205.016, 7380.150
1205.498, 7380.544
1205.980, 7368.163
1206.462, 7353.535
1206.944, 7354.717
1207.426, 7362.108
1207.908, 7350.693
1208.391, 7303.332
1208.873, 7283.243
1209.355, 7296.310
1209.837, 7318.219
1210.319, 7334.016
1210.801, 7342.885
1211.283, 7337.655
1211.765, 7324.068
1212.247, 7323.414
1212.730, 7343.356
1213.212, 7356.571
1213.694, 7360.727
1214.176, 7355.243
1214.658, 7326.373
1215.140, 7296.999
1215.622, 7299.506
1216.104, 7328.476
1216.587, 7343.392
1217.069, 7340.563
1217.551, 7326.833
1218.033, 7300.851
1218.515, 7274.911
1218.997, 7256.898
1219.479, 7250.428
1219.961, 7267.299
1220.443, 7305.113
1220.926, 7320.269
1221.408, 7301.257
1221.890, 7302.419
1222.372, 7342.428
1222.854, 7385.290
1223.336, 7390.381
1223.818, 7372.607
1224.300, 7342.136
1224.782, 7299.952
1225.265, 7280.845
1225.747, 7290.556
1226.229, 7295.105
1226.711, 7282.614
1227.193, 7264.865
1227.675, 7247.955
1228.157, 7238.752
1228.639, 7249.508
1229.122, 7283.922
1229.604, 7308.429
1230.086, 7323.514
1230.568, 7325.612
1231.050, 7310.013
1231.532, 7287.890
1232.014, 7266.675
1232.496, 7249.552
1232.979, 7241.008
1233.461, 7241.901
1233.943, 7246.277
1234.425, 7255.505
1234.907, 7252.807
1235.389, 7220.045
1235.871, 7188.561
1236.353, 7198.354
1236.835, 7222.817
1237.318, 7224.435
1237.800, 7197.680
1238.282, 7183.221
1238.764, 7181.607
1239.246, 7183.363
1239.728, 7187.068
1240.210, 7187.299
1240.692, 7180.513
1241.175, 7166.532
1241.657, 7143.665
1242.139, 7108.626
1242.621, 7088.661
1243.103, 7083.686
1243.585, 7079.729
1244.067, 7062.662
1244.549, 7049.323
1245.031, 7059.787
1245.514, 7075.875
1245.996, 7070.268
1246.478, 7040.026
1246.960, 7028.934
1247.442, 7036.254
1247.924, 7030.759
1248.406, 6973.723
1248.888, 6919.057
1249.370, 6899.262
1249.853, 6898.298
1250.335, 6892.979
1250.817, 6884.021
1251.299, 6903.604
1251.781, 6950.000
1252.263, 6978.953
1252.745, 6949.227
1253.227, 6911.939
1253.710, 6881.514
1254.192, 6862.579
1254.674, 6869.484
1255.156, 6896.438
1255.638, 6900.647
1256.120, 6880.757
1256.602, 6853.476
1257.084, 6813.733
1257.567, 6787.176
1258.049, 6785.820
1258.531, 6795.198
1259.013, 6793.237
1259.495, 6785.135
1259.977, 6795.198
1260.459, 6822.657
1260.941, 6838.643
1261.423, 6826.394
1261.906, 6803.284
1262.388, 6767.398
1262.870, 6732.760
1263.352, 6720.599
1263.834, 6725.220
1264.316, 6737.072
1264.798, 6754.281
1265.280, 6768.035
1265.762, 6776.616
1266.245, 6779.288
1266.727, 6774.662
1267.209, 6766.961
1267.691, 6761.725
1268.173, 6757.464
1268.655, 6751.267
1269.137, 6743.021
1269.619, 6735.753
1270.102, 6726.674
1270.584, 6726.997
1271.066, 6740.364
1271.548, 6759.370
1272.030, 6781.023
1272.512, 6798.379
1272.994, 6798.917
1273.476, 6783.346
1273.958, 6779.139
1274.441, 6790.636
1274.923, 6793.345
1275.405, 6778.771
1275.887, 6768.539
1276.369, 6802.053
1276.851, 6837.650
1277.333, 6825.329
1277.815, 6774.278
1278.297, 6752.914
1278.780, 6762.423
1279.262, 6783.634
1279.744, 6815.771
1280.226, 6836.181
1280.708, 6813.954
1281.190, 6784.502
1281.672, 6770.779
1282.154, 6771.502
1282.637, 6784.833
1283.119, 6809.772
1283.601, 6841.352
1284.083, 6882.926
1284.565, 6900.459
1285.047, 6839.001
1285.529, 6787.055
1286.011, 6789.798
1286.494, 6830.244
1286.976, 6869.588
1287.458, 6905.121
1287.940, 6927.168
1288.422, 6933.583
1288.904, 6927.595
1289.386, 6891.351
1289.868, 6869.209
1290.350, 6877.930
1290.833, 6906.032
1291.315, 6940.022
1291.797, 6973.249
1292.279, 6989.757
1292.761, 6984.032
1293.243, 6986.342
1293.725, 7005.303
1294.207, 7017.669
1294.689, 7012.901
1295.172, 7005.141
1295.654, 7015.610
1296.136, 7035.473
1296.618, 7056.974
1297.100, 7079.552
1297.582, 7076.169
1298.064, 7039.150
1298.546, 7028.291
1299.029, 7069.104
1299.511, 7120.218
1299.993, 7146.606
1300.475, 7155.461
1300.957, 7144.348
1301.439, 7119.485
1301.921, 7118.578
1302.403, 7140.904
1302.885, 7166.042
1303.368, 7191.437
##END=



