##NAMES=Molybdofornacite
##RRUFFID=R061057
##IDEAL CHEMISTRY=Cu^2+^Pb^2+^_2_Mo^6+^O_4_As^5+^O_4_(OH)
##LOCALITY=Mina Dulcinea, Carreras Pintos, Inca de Oro, Atacama Region, Chile
##OWNER=RRUFF
##SOURCE=Bob Jenkins
##DESCRIPTION=Apple green tabular crystals associated with yellow wulfenite
##STATUS=The identification of this mineral is confirmed by single-crystal X-ray diffraction and chemical analysis.
##URL=rruff.info/R061057
##MEASURED CHEMISTRY=Cu_1.00_Pb_2.00_(Mo_0.82_Cr^6+^_0.18_)_Σ=1_O_4_(As_0.93_P_0.07_)_Σ=1_O_4_(OH); OH estimated by difference and charge balance
172.1504, 606.8347
172.6325, 600.2257
173.1146, 595.0009
173.5967, 591.1946
174.0788, 588.2955
174.5610, 587.5441
175.0431, 586.8030
175.5252, 583.7564
176.0073, 577.5471
176.4894, 570.8800
176.9715, 567.4674
177.4537, 567.9773
177.9358, 566.2437
178.4179, 556.5594
178.9000, 545.7170
179.3821, 539.9565
179.8642, 541.2981
180.3464, 544.0420
180.8285, 540.6168
181.3106, 529.7357
181.7927, 520.7120
182.2748, 518.8511
182.7569, 518.7686
183.2391, 516.3452
183.7212, 510.4033
184.2033, 503.6772
184.6854, 499.1777
185.1675, 496.9822
185.6496, 496.6095
186.1318, 500.7462
186.6139, 505.1832
187.0960, 506.7466
187.5781, 504.5743
188.0602, 500.7133
188.5423, 497.9637
189.0245, 496.9604
189.5066, 494.0012
189.9887, 485.6906
190.4708, 476.4728
190.9529, 468.5512
191.4350, 462.4079
191.9172, 459.0133
192.3993, 460.7203
192.8814, 468.8905
193.3635, 475.3657
193.8456, 478.6763
194.3277, 479.3406
194.8099, 476.6456
195.2920, 470.4181
195.7741, 463.2466
196.2562, 457.8652
196.7383, 454.2535
197.2204, 452.4422
197.7026, 453.2993
198.1847, 455.5336
198.6668, 459.4762
199.1489, 465.1092
199.6310, 469.6194
200.1131, 468.8430
200.5953, 461.6269
201.0774, 456.1942
201.5595, 456.3725
202.0416, 457.3109
202.5237, 456.5342
203.0058, 453.6187
203.4880, 449.3189
203.9701, 443.4996
204.4522, 435.5948
204.9343, 430.4516
205.4164, 431.9141
205.8985, 434.2700
206.3807, 434.0006
206.8628, 430.9057
207.3449, 427.7646
207.8270, 428.0826
208.3091, 432.3405
208.7912, 434.2936
209.2734, 431.0873
209.7555, 426.9833
210.2376, 424.6192
210.7197, 423.9448
211.2018, 422.8885
211.6839, 418.5832
212.1660, 410.8647
212.6482, 406.2151
213.1303, 407.1274
213.6124, 409.7322
214.0945, 412.9149
214.5766, 416.1971
215.0587, 418.2207
215.5409, 417.3475
216.0230, 413.6995
216.5051, 410.3364
216.9872, 406.9555
217.4693, 404.5145
217.9514, 404.7065
218.4336, 406.5874
218.9157, 406.8245
219.3978, 400.9921
219.8799, 390.2352
220.3620, 384.8232
220.8441, 388.1820
221.3263, 392.9506
221.8084, 395.5060
222.2905, 396.2276
222.7726, 396.2707
223.2547, 395.8825
223.7368, 395.2917
224.2190, 395.5712
224.7011, 396.8981
225.1832, 398.8826
225.6653, 401.6828
226.1474, 404.8936
226.6295, 407.8105
227.1117, 411.0661
227.5938, 413.5293
228.0759, 411.3687
228.5580, 402.2018
229.0401, 393.5779
229.5222, 390.1979
230.0044, 389.7008
230.4865, 388.4818
230.9686, 384.1456
231.4507, 378.9500
231.9328, 377.4402
232.4149, 380.6886
232.8971, 384.2589
233.3792, 385.7286
233.8613, 386.3202
234.3434, 387.6989
234.8255, 391.2140
235.3076, 394.5603
235.7898, 393.6479
236.2719, 387.5544
236.7540, 383.2973
237.2361, 386.4408
237.7182, 392.0886
238.2003, 394.3586
238.6825, 391.0215
239.1646, 386.6072
239.6467, 385.8679
240.1288, 388.8245
240.6109, 391.7763
241.0930, 394.1544
241.5752, 395.2407
242.0573, 393.6314
242.5394, 388.1486
243.0215, 383.7387
243.5036, 385.0457
243.9857, 391.2324
244.4679, 396.6666
244.9500, 399.6969
245.4321, 401.2080
245.9142, 402.4205
246.3963, 403.2989
246.8784, 404.1012
247.3606, 405.4144
247.8427, 406.7939
248.3248, 406.5861
248.8069, 403.5987
249.2890, 400.4149
249.7711, 400.5247
250.2533, 403.8242
250.7354, 407.1110
251.2175, 409.4509
251.6996, 410.9767
252.1817, 411.5658
252.6638, 410.9227
253.1460, 410.5361
253.6281, 412.5207
254.1102, 416.6837
254.5923, 419.9433
255.0744, 421.2881
255.5565, 421.7045
256.0387, 422.1680
256.5208, 422.7819
257.0029, 423.4186
257.4850, 423.8193
257.9671, 424.0595
258.4492, 425.1012
258.9314, 427.1172
259.4135, 429.8401
259.8956, 433.1604
260.3777, 437.0590
260.8598, 441.5847
261.3419, 447.2581
261.8241, 453.6353
262.3062, 457.6377
262.7883, 457.6544
263.2704, 457.2078
263.7525, 457.5928
264.2346, 458.6971
264.7168, 459.8247
265.1989, 460.3359
265.6810, 461.0042
266.1631, 465.0679
266.6452, 477.1148
267.1273, 486.5755
267.6095, 489.6238
268.0916, 489.2851
268.5737, 489.2942
269.0558, 491.0281
269.5379, 494.9251
270.0201, 501.9413
270.5022, 517.1401
270.9843, 528.3676
271.4664, 532.7177
271.9485, 534.6072
272.4306, 537.9648
272.9128, 543.7540
273.3949, 550.5673
273.8770, 556.1188
274.3591, 558.3426
274.8412, 565.0659
275.3233, 580.8073
275.8055, 596.7649
276.2876, 605.6041
276.7697, 608.3757
277.2518, 612.6709
277.7339, 626.4495
278.2160, 651.0351
278.6982, 673.6781
279.1803, 694.2334
279.6624, 712.9985
280.1445, 728.7160
280.6266, 742.6962
281.1087, 757.5166
281.5909, 774.8768
282.0730, 794.6904
282.5551, 815.7983
283.0372, 836.7075
283.5193, 861.5665
284.0014, 895.1769
284.4836, 931.7552
284.9657, 963.2814
285.4478, 985.2885
285.9299, 1002.484
286.4120, 1024.576
286.8941, 1051.553
287.3763, 1083.727
287.8584, 1127.391
288.3405, 1172.244
288.8226, 1209.293
289.3047, 1236.000
289.7868, 1258.276
290.2690, 1282.641
290.7511, 1309.222
291.2332, 1336.227
291.7153, 1362.779
292.1974, 1390.137
292.6795, 1420.204
293.1617, 1452.680
293.6438, 1483.668
294.1259, 1509.325
294.6080, 1530.613
295.0901, 1552.803
295.5722, 1576.802
296.0544, 1601.046
296.5365, 1625.190
297.0186, 1648.960
297.5007, 1671.156
297.9828, 1690.239
298.4649, 1707.937
298.9471, 1727.312
299.4292, 1748.922
299.9113, 1769.908
300.3934, 1788.211
300.8755, 1804.440
301.3576, 1820.368
301.8398, 1836.702
302.3219, 1852.241
302.8040, 1864.705
303.2861, 1874.989
303.7682, 1888.287
304.2503, 1908.551
304.7325, 1932.121
305.2146, 1949.247
305.6967, 1958.156
306.1788, 1965.135
306.6609, 1971.393
307.1430, 1977.261
307.6252, 1982.766
308.1073, 1987.741
308.5894, 1993.863
309.0715, 2003.865
309.5536, 2019.914
310.0357, 2035.034
310.5179, 2050.689
311.0000, 2064.344
311.4821, 2070.870
311.9642, 2071.401
312.4463, 2075.415
312.9284, 2093.417
313.4106, 2128.124
313.8927, 2153.029
314.3748, 2158.927
314.8569, 2166.174
315.3390, 2182.111
315.8211, 2205.704
316.3033, 2233.681
316.7854, 2264.585
317.2675, 2297.366
317.7496, 2326.792
318.2317, 2344.634
318.7138, 2370.415
319.1960, 2411.544
319.6781, 2459.318
320.1602, 2504.497
320.6423, 2543.748
321.1244, 2580.790
321.6065, 2621.548
322.0887, 2666.714
322.5708, 2712.831
323.0529, 2760.779
323.5350, 2808.640
324.0171, 2856.885
324.4992, 2904.716
324.9814, 2947.948
325.4635, 2980.472
325.9456, 3003.712
326.4277, 3031.694
326.9098, 3072.168
327.3919, 3106.176
327.8741, 3120.544
328.3562, 3120.549
328.8383, 3118.537
329.3204, 3120.442
329.8025, 3122.912
330.2846, 3122.920
330.7668, 3121.354
331.2489, 3109.342
331.7310, 3076.805
332.2131, 3032.218
332.6952, 2993.015
333.1773, 2963.932
333.6595, 2934.449
334.1415, 2898.231
334.6237, 2856.540
335.1058, 2813.900
335.5879, 2772.181
336.0700, 2729.379
336.5521, 2680.194
337.0342, 2621.137
337.5164, 2570.351
337.9985, 2533.350
338.4806, 2504.791
338.9627, 2481.662
339.4448, 2462.750
339.9269, 2443.161
340.4091, 2418.583
340.8912, 2388.860
341.3733, 2353.928
341.8554, 2302.622
342.3375, 2258.033
342.8196, 2235.683
343.3018, 2227.395
343.7839, 2214.849
344.2660, 2187.208
344.7481, 2148.512
345.2302, 2114.120
345.7123, 2086.266
346.1945, 2060.267
346.6766, 2038.357
347.1587, 2016.274
347.6408, 1989.839
348.1229, 1957.956
348.6050, 1923.242
349.0872, 1888.859
349.5693, 1854.740
350.0514, 1820.578
350.5335, 1785.885
351.0156, 1751.619
351.4977, 1719.365
351.9799, 1688.148
352.4620, 1655.222
352.9441, 1618.309
353.4262, 1578.287
353.9083, 1538.279
354.3904, 1498.449
354.8726, 1457.984
355.3547, 1412.164
355.8368, 1366.783
356.3189, 1331.731
356.8010, 1313.498
357.2831, 1298.000
357.7653, 1272.114
358.2474, 1237.633
358.7295, 1204.536
359.2116, 1175.594
359.6937, 1150.089
360.1758, 1126.829
360.6580, 1105.726
361.1401, 1086.527
361.6222, 1069.508
362.1043, 1054.278
362.5864, 1040.820
363.0685, 1028.976
363.5507, 1017.507
364.0328, 1004.881
364.5149, 990.8654
364.9970, 981.3351
365.4791, 976.7424
365.9612, 975.3258
366.4434, 979.0345
366.9255, 985.1074
367.4076, 987.9960
367.8897, 984.6924
368.3718, 978.1672
368.8539, 976.7263
369.3361, 983.4226
369.8182, 990.4763
370.3003, 997.8171
370.7824, 1004.946
371.2645, 1011.404
371.7466, 1017.157
372.2288, 1022.658
372.7109, 1029.724
373.1930, 1038.640
373.6751, 1040.691
374.1572, 1029.067
374.6393, 1019.078
375.1215, 1018.866
375.6036, 1025.155
376.0857, 1031.573
376.5678, 1036.621
377.0499, 1038.912
377.5320, 1035.401
378.0142, 1025.729
378.4963, 1015.287
378.9784, 1007.394
379.4605, 998.8154
379.9426, 985.3578
380.4247, 966.6119
380.9069, 944.3094
381.3890, 916.5603
381.8711, 886.2576
382.3532, 857.8336
382.8353, 831.8918
383.3174, 809.7374
383.7996, 793.4667
384.2817, 783.9908
384.7638, 772.7552
385.2459, 757.3940
385.7280, 742.5350
386.2101, 730.4362
386.6923, 720.8455
387.1744, 712.9606
387.6565, 706.3770
388.1386, 700.9634
388.6207, 696.1542
389.1028, 689.3358
389.5850, 687.3406
390.0671, 694.5018
390.5492, 703.7739
391.0313, 710.0169
391.5134, 712.0975
391.9955, 711.3224
392.4777, 706.5052
392.9598, 696.9384
393.4419, 698.8063
393.9240, 723.0225
394.4061, 744.8789
394.8882, 751.1106
395.3704, 747.7864
395.8525, 746.4603
396.3346, 752.3474
396.8167, 761.7942
397.2988, 769.6143
397.7809, 775.7440
398.2631, 783.0192
398.7452, 793.8040
399.2273, 804.8661
399.7094, 810.8699
400.1915, 810.5971
400.6736, 812.6990
401.1558, 823.1979
401.6379, 836.8839
402.1200, 846.8929
402.6021, 852.3214
403.0842, 854.4578
403.5663, 853.8978
404.0485, 850.6461
404.5306, 848.0547
405.0127, 846.1654
405.4948, 844.7936
405.9769, 846.5399
406.4590, 848.1414
406.9412, 842.8765
407.4233, 828.0978
407.9054, 810.1489
408.3875, 802.2397
408.8696, 810.9911
409.3517, 814.6721
409.8339, 811.7288
410.3160, 804.9893
410.7981, 794.5767
411.2802, 781.4362
411.7623, 767.8347
412.2444, 755.0155
412.7266, 743.1239
413.2087, 732.4632
413.6908, 723.2141
414.1729, 714.7498
414.6550, 708.3245
415.1371, 701.8832
415.6193, 692.3597
416.1014, 678.2469
416.5835, 664.7743
417.0656, 656.7630
417.5477, 652.3635
418.0298, 646.4935
418.5120, 637.9858
418.9941, 627.9850
419.4762, 617.5462
419.9583, 606.6409
420.4404, 595.1517
420.9225, 582.5409
421.4047, 569.7776
421.8868, 555.8775
422.3689, 542.2416
422.8510, 532.7652
423.3331, 529.8088
423.8152, 530.5811
424.2974, 527.5898
424.7795, 518.7778
425.2616, 509.3578
425.7437, 496.9689
426.2258, 485.9952
426.7079, 480.3684
427.1901, 479.7239
427.6722, 480.0692
428.1543, 478.1494
428.6364, 474.2563
429.1185, 470.0958
429.6006, 464.6750
430.0828, 461.0175
430.5649, 462.6971
431.0470, 465.9797
431.5291, 466.1285
432.0112, 461.5927
432.4933, 455.4108
432.9755, 449.2032
433.4576, 443.2535
433.9397, 438.7034
434.4218, 435.9757
434.9039, 434.1028
435.3860, 432.7137
435.8682, 431.9077
436.3503, 428.2232
436.8324, 417.4749
437.3145, 407.4066
437.7966, 403.5234
438.2787, 404.2026
438.7609, 405.2259
439.2430, 404.5710
439.7251, 402.2820
440.2072, 398.2710
440.6893, 390.2286
441.1714, 384.5410
441.6536, 382.1620
442.1357, 381.2200
442.6178, 381.0609
443.0999, 381.2817
443.5820, 381.1978
444.0641, 380.4691
444.5463, 378.9771
445.0284, 375.8552
445.5105, 370.1872
445.9926, 365.3639
446.4747, 363.4101
446.9568, 362.8738
447.4390, 362.1613
447.9211, 360.8919
448.4032, 360.1605
448.8853, 361.2422
449.3674, 363.2590
449.8495, 364.3456
450.3317, 364.1401
450.8138, 363.2764
451.2959, 362.2377
451.7780, 361.0266
452.2601, 359.8283
452.7422, 358.6484
453.2244, 357.4875
453.7065, 357.3760
454.1886, 357.0067
454.6707, 353.3966
455.1528, 345.5365
455.6349, 337.0892
456.1171, 334.6482
456.5992, 340.8956
457.0813, 344.7029
457.5634, 345.9450
458.0455, 344.6546
458.5276, 338.9603
459.0098, 330.6858
459.4919, 323.9688
459.9740, 321.4143
460.4561, 320.8653
460.9382, 318.4581
461.4203, 314.0736
461.9025, 310.9971
462.3846, 311.4804
462.8667, 312.4488
463.3488, 308.7199
463.8309, 299.6397
464.3130, 293.6917
464.7952, 297.0595
465.2773, 302.1525
465.7594, 300.7034
466.2415, 293.1801
466.7236, 285.5025
467.2057, 281.3492
467.6879, 280.1008
468.1700, 279.1859
468.6521, 280.1091
469.1342, 279.2843
469.6163, 274.8257
470.0984, 269.7680
470.5806, 266.2545
471.0627, 264.6903
471.5448, 264.6046
472.0269, 266.7292
472.5090, 270.2246
472.9911, 268.6911
473.4733, 259.4904
473.9554, 251.2447
474.4375, 249.1452
474.9196, 249.6152
475.4017, 248.6386
475.8839, 245.2580
476.3660, 241.8459
476.8481, 240.1787
477.3302, 239.4429
477.8123, 237.6737
478.2944, 234.5000
478.7766, 232.0120
479.2587, 232.4467
479.7408, 235.7084
480.2229, 236.7994
480.7050, 234.9359
481.1871, 232.2020
481.6693, 228.2958
482.1514, 224.2301
482.6335, 221.2388
483.1156, 219.6786
483.5977, 218.9607
484.0798, 218.6406
484.5620, 218.8716
485.0441, 217.8706
485.5262, 214.1351
486.0083, 211.1987
486.4904, 210.4646
486.9725, 211.5114
487.4547, 213.9315
487.9368, 218.3085
488.4189, 222.3148
488.9010, 223.5378
489.3831, 222.4628
489.8652, 220.6622
490.3474, 218.2329
490.8295, 216.3163
491.3116, 216.5946
491.7937, 219.4193
492.2758, 219.7246
492.7579, 214.5759
493.2401, 210.0139
493.7222, 209.3110
494.2043, 210.9130
494.6864, 212.2381
495.1685, 212.2548
495.6506, 211.1105
496.1328, 208.7567
496.6149, 204.6604
497.0970, 201.4811
497.5791, 199.2953
498.0612, 198.0773
498.5433, 199.2116
499.0254, 201.1369
499.5075, 200.2510
499.9897, 193.5001
500.4718, 186.5112
500.9539, 186.7978
501.4360, 192.9318
501.9181, 196.7836
502.4002, 195.6955
502.8824, 193.1979
503.3645, 193.8339
503.8466, 198.2605
504.3287, 199.3600
504.8108, 193.2847
505.2929, 187.5271
505.7751, 186.0295
506.2572, 187.5703
506.7393, 189.9835
507.2214, 192.3365
507.7035, 194.0517
508.1856, 193.7891
508.6678, 190.7794
509.1499, 189.0532
509.6320, 190.9203
510.1141, 191.7213
510.5962, 187.7725
511.0783, 181.3471
511.5605, 177.5045
512.0426, 178.8429
512.5247, 182.1044
513.0068, 184.4722
513.4890, 185.9130
513.9711, 185.9397
514.4532, 184.0821
514.9353, 182.1158
515.4174, 182.3066
515.8995, 185.0716
516.3817, 186.3996
516.8638, 184.8472
517.3459, 183.4052
517.8280, 183.7331
518.3101, 184.9498
518.7922, 185.4034
519.2744, 184.5125
519.7565, 183.3311
520.2386, 183.6818
520.7207, 185.9390
521.2028, 186.8953
521.6849, 185.8838
522.1671, 184.3053
522.6492, 182.5974
523.1313, 180.9028
523.6134, 179.4429
524.0955, 178.1779
524.5776, 177.3764
525.0598, 177.6690
525.5419, 178.5703
526.0240, 178.7016
526.5061, 177.7348
526.9882, 176.5268
527.4703, 175.8963
527.9525, 175.8567
528.4346, 175.8202
528.9167, 175.0865
529.3988, 175.1909
529.8809, 178.7915
530.3630, 182.3397
530.8452, 180.4238
531.3273, 172.2756
531.8094, 164.0623
532.2915, 163.8326
532.7736, 170.8032
533.2557, 172.2925
533.7379, 165.0506
534.2200, 160.1897
534.7021, 166.8513
535.1842, 178.2014
535.6663, 183.0667
536.1484, 178.0553
536.6306, 173.6014
537.1127, 176.5619
537.5948, 181.8432
538.0769, 181.8951
538.5590, 176.3672
539.0411, 170.7395
539.5233, 168.9465
540.0054, 170.5712
540.4875, 173.4924
540.9696, 180.5541
541.4517, 184.3874
541.9338, 181.8718
542.4160, 177.9475
542.8981, 175.9542
543.3802, 176.2163
543.8623, 177.4913
544.3444, 179.5703
544.8265, 181.7892
545.3087, 183.2914
545.7908, 184.1212
546.2729, 181.8588
546.7550, 173.9610
547.2371, 164.6000
547.7192, 160.9525
548.2014, 163.9028
548.6835, 166.9893
549.1656, 171.0001
549.6477, 173.5699
550.1298, 171.8713
550.6119, 167.5809
551.0941, 164.6715
551.5762, 165.1044
552.0583, 167.2325
552.5404, 167.9717
553.0225, 166.9929
553.5046, 166.4046
553.9868, 166.2985
554.4689, 166.7157
554.9510, 167.6176
555.4331, 169.0021
555.9152, 171.1098
556.3973, 175.3974
556.8795, 178.1333
557.3616, 174.5485
557.8437, 167.6639
558.3258, 164.4760
558.8079, 166.5204
559.2900, 169.9917
559.7722, 171.3006
560.2543, 170.4709
560.7364, 169.8028
561.2185, 169.9555
561.7006, 169.4487
562.1827, 166.6707
562.6649, 163.9629
563.1470, 164.8199
563.6291, 169.1751
564.1112, 171.8468
564.5933, 166.0978
565.0754, 155.6818
565.5576, 152.4180
566.0397, 157.0358
566.5218, 160.5993
567.0039, 158.3049
567.4860, 153.4109
567.9681, 152.5163
568.4503, 156.5876
568.9324, 160.2933
569.4145, 162.7650
569.8966, 164.7838
570.3787, 167.3016
570.8608, 169.7893
571.3430, 170.5885
571.8251, 168.7405
572.3072, 166.0683
572.7893, 166.6390
573.2714, 171.2908
573.7535, 172.8356
574.2357, 168.8373
574.7178, 163.9944
575.1999, 160.4977
575.6820, 158.4807
576.1641, 158.5160
576.6462, 162.0862
577.1284, 165.6146
577.6105, 166.6253
578.0926, 166.3209
578.5747, 166.9567
579.0568, 168.8272
579.5389, 170.1472
580.0211, 169.2410
580.5032, 166.3492
580.9852, 163.7452
581.4673, 160.9555
581.9495, 159.2579
582.4316, 158.5364
582.9137, 159.0742
583.3958, 161.5241
583.8779, 165.6817
584.3600, 170.0071
584.8422, 175.4538
585.3243, 179.4919
585.8064, 176.1528
586.2885, 166.9143
586.7706, 162.5845
587.2527, 168.1245
587.7349, 176.7544
588.2170, 178.1551
588.6991, 169.8331
589.1812, 164.9761
589.6633, 165.3531
590.1454, 166.8607
590.6276, 168.9358
591.1097, 170.8354
591.5918, 171.9131
592.0739, 171.9393
592.5560, 170.5965
593.0381, 165.7703
593.5203, 158.9892
594.0024, 157.9682
594.4845, 164.1758
594.9666, 169.9290
595.4487, 170.8624
595.9308, 168.5844
596.4130, 167.2205
596.8951, 166.9208
597.3772, 167.0093
597.8593, 167.4246
598.3414, 168.1660
598.8235, 169.8787
599.3057, 171.9234
599.7878, 172.7104
600.2699, 171.3516
600.7520, 168.5325
601.2341, 164.7688
601.7162, 159.8616
602.1984, 157.7901
602.6805, 160.2708
603.1626, 163.5558
603.6447, 165.0137
604.1268, 165.1206
604.6089, 165.1271
605.0911, 164.6291
605.5732, 164.8013
606.0553, 166.7187
606.5374, 169.2222
607.0195, 171.3591
607.5016, 172.7556
607.9838, 172.6384
608.4659, 170.1243
608.9480, 166.0891
609.4301, 163.9622
609.9122, 164.3289
610.3943, 164.6611
610.8765, 164.4842
611.3586, 164.0959
611.8407, 163.4678
612.3228, 162.7512
612.8049, 162.7176
613.2870, 164.0051
613.7692, 165.6286
614.2513, 167.5465
614.7334, 169.1878
615.2155, 169.0112
615.6976, 166.8114
616.1797, 164.5599
616.6619, 164.2802
617.1440, 165.8493
617.6261, 167.7662
618.1082, 171.1022
618.5903, 172.7306
619.0724, 170.1037
619.5546, 166.7103
620.0367, 165.4112
620.5188, 166.2951
621.0009, 167.4253
621.4830, 168.8074
621.9651, 169.3861
622.4473, 166.6631
622.9294, 162.2238
623.4115, 161.0066
623.8936, 164.6966
624.3757, 170.4219
624.8578, 174.7622
625.3400, 177.6648
625.8221, 179.5811
626.3042, 180.7886
626.7863, 180.5282
627.2684, 177.5541
627.7505, 173.7870
628.2327, 170.9244
628.7148, 169.2448
629.1969, 168.7412
629.6790, 170.8470
630.1611, 173.2094
630.6432, 172.1353
631.1254, 168.4300
631.6075, 166.0425
632.0896, 166.6199
632.5717, 168.3473
633.0538, 168.2893
633.5359, 165.8281
634.0181, 165.0791
634.5002, 167.1022
634.9823, 169.6065
635.4644, 172.9892
635.9465, 175.9441
636.4286, 176.3560
636.9108, 173.7654
637.3929, 171.8582
637.8750, 173.8223
638.3571, 177.3016
638.8392, 179.1000
639.3214, 179.2503
639.8035, 178.8709
640.2856, 178.4672
640.7677, 177.6966
641.2498, 175.8016
641.7319, 172.2467
642.2141, 169.8457
642.6962, 167.4346
643.1783, 167.6818
643.6604, 174.3880
644.1425, 182.8202
644.6246, 186.5457
645.1068, 184.0865
645.5889, 180.6036
646.0710, 179.4014
646.5531, 179.0479
647.0352, 176.4169
647.5173, 172.2959
647.9995, 171.8597
648.4816, 177.8843
648.9637, 186.4952
649.4458, 191.0055
649.9279, 190.5846
650.4100, 189.4577
650.8922, 186.4238
651.3743, 184.1492
651.8564, 183.4933
652.3385, 184.0741
652.8206, 185.5801
653.3027, 188.0300
653.7849, 190.5168
654.2670, 193.4860
654.7491, 195.5963
655.2312, 194.4062
655.7133, 190.5780
656.1954, 186.7494
656.6776, 183.9726
657.1597, 183.3944
657.6418, 187.7713
658.1239, 198.8546
658.6060, 205.0752
659.0881, 203.4011
659.5703, 201.0432
660.0524, 200.4731
660.5345, 200.8073
661.0166, 200.9458
661.4987, 200.6866
661.9808, 200.8465
662.4630, 202.1342
662.9451, 203.7722
663.4272, 204.7802
663.9093, 205.4363
664.3914, 207.3044
664.8735, 210.9917
665.3557, 213.8958
665.8378, 211.5656
666.3199, 203.5124
666.8020, 197.5814
667.2841, 193.2266
667.7662, 192.0812
668.2484, 198.0546
668.7305, 205.8027
669.2126, 208.7477
669.6947, 206.0598
670.1768, 204.4042
670.6589, 207.7057
671.1411, 211.0741
671.6232, 209.8248
672.1053, 206.0649
672.5874, 204.5304
673.0695, 206.6793
673.5516, 209.8997
674.0338, 211.1836
674.5159, 210.7281
674.9980, 210.5792
675.4801, 210.9820
675.9622, 210.6831
676.4443, 208.4265
676.9265, 206.0184
677.4086, 206.5545
677.8907, 210.1810
678.3728, 211.4814
678.8549, 207.4987
679.3370, 203.5268
679.8192, 202.1875
680.3013, 202.3438
680.7834, 202.1500
681.2655, 201.3431
681.7476, 201.4077
682.2297, 204.4341
682.7119, 208.8464
683.1940, 209.4131
683.6761, 205.9681
684.1582, 204.5015
684.6403, 207.3594
685.1224, 211.2218
685.6046, 212.6499
686.0867, 211.5621
686.5688, 210.1113
687.0509, 206.5912
687.5330, 204.9483
688.0151, 208.9340
688.4973, 213.0662
688.9794, 210.6742
689.4615, 202.8781
689.9436, 197.7414
690.4257, 201.4453
690.9078, 208.0739
691.3900, 209.6225
691.8721, 207.1626
692.3542, 204.5430
692.8363, 202.5089
693.3184, 201.4550
693.8005, 201.7753
694.2827, 203.3419
694.7648, 205.4600
695.2469, 208.5133
695.7290, 211.4383
696.2111, 215.2193
696.6932, 217.8478
697.1754, 216.7523
697.6575, 213.6640
698.1396, 213.4231
698.6217, 219.4978
699.1038, 223.9577
699.5859, 220.4375
700.0681, 212.5009
700.5502, 203.5853
701.0323, 195.0624
701.5144, 190.3956
701.9965, 191.9203
702.4786, 196.4784
702.9608, 196.5101
703.4429, 190.5246
703.9250, 190.7795
704.4071, 202.4810
704.8892, 211.9250
705.3713, 209.0012
705.8535, 200.2024
706.3356, 197.1922
706.8177, 201.8241
707.2998, 206.5666
707.7819, 209.7512
708.2640, 212.3807
708.7462, 215.7841
709.2283, 218.9725
709.7104, 219.5818
710.1925, 216.9608
710.6746, 213.8360
711.1567, 212.8956
711.6389, 213.8982
712.1210, 216.6558
712.6031, 221.2940
713.0852, 224.1090
713.5673, 223.5010
714.0494, 220.9857
714.5316, 218.3493
715.0137, 215.4953
715.4958, 213.3569
715.9779, 211.7158
716.4600, 211.0552
716.9421, 211.2876
717.4243, 212.6858
717.9064, 216.6797
718.3885, 222.5636
718.8706, 226.2718
719.3527, 224.2691
719.8348, 220.7927
720.3170, 219.4229
720.7991, 219.9689
721.2812, 222.5985
721.7633, 227.1026
722.2454, 231.3904
722.7275, 233.8116
723.2097, 234.7024
723.6918, 235.2571
724.1739, 235.5253
724.6560, 235.2124
725.1381, 233.7911
725.6202, 232.4608
726.1024, 231.6913
726.5845, 231.6565
727.0666, 233.0060
727.5487, 236.6461
728.0308, 239.7560
728.5129, 241.4848
728.9951, 242.4451
729.4772, 242.3339
729.9593, 241.9885
730.4414, 243.3983
730.9235, 247.3838
731.4056, 251.5356
731.8878, 251.6812
732.3699, 249.7263
732.8520, 254.4134
733.3341, 266.1419
733.8162, 272.1022
734.2983, 265.6504
734.7805, 255.0130
735.2626, 252.6048
735.7447, 259.8958
736.2268, 264.4950
736.7089, 265.5496
737.1910, 264.8892
737.6732, 259.7287
738.1553, 255.2816
738.6374, 257.3289
739.1195, 265.4309
739.6016, 273.0245
740.0837, 277.1194
740.5659, 280.1094
741.0480, 283.6667
741.5301, 287.2529
742.0122, 290.4814
742.4943, 292.9849
742.9764, 293.2861
743.4586, 289.9247
743.9407, 284.8845
744.4228, 282.6338
744.9049, 283.1998
745.3870, 286.5456
745.8691, 293.8977
746.3513, 300.2734
746.8334, 301.8004
747.3155, 300.3483
747.7976, 301.2581
748.2797, 305.9211
748.7618, 309.9316
749.2440, 313.8129
749.7261, 316.3368
750.2082, 314.8793
750.6903, 312.5405
751.1724, 314.8782
751.6545, 323.1384
752.1367, 330.1043
752.6188, 328.4364
753.1009, 324.5239
753.5830, 327.4914
754.0651, 335.3250
754.5472, 340.9617
755.0294, 342.3891
755.5115, 343.1490
755.9936, 347.0484
756.4757, 353.3996
756.9578, 358.3923
757.4399, 362.1533
757.9221, 363.6506
758.4042, 360.6125
758.8863, 358.4106
759.3684, 362.3156
759.8505, 371.1446
760.3326, 378.2182
760.8148, 384.0533
761.2969, 387.3248
761.7790, 385.1440
762.2611, 382.7706
762.7432, 383.2164
763.2253, 386.4886
763.7075, 393.0992
764.1896, 403.8044
764.6717, 411.4645
765.1538, 405.5290
765.6359, 394.5857
766.1180, 394.0543
766.6002, 402.9215
767.0823, 412.8664
767.5644, 420.6604
768.0465, 426.6243
768.5286, 430.9542
769.0107, 433.6887
769.4929, 435.3302
769.9750, 434.4767
770.4571, 437.2238
770.9392, 447.1153
771.4213, 458.8939
771.9034, 468.5741
772.3856, 476.0199
772.8677, 479.8838
773.3498, 476.2350
773.8319, 474.2411
774.3140, 476.2607
774.7961, 480.2411
775.2783, 485.9333
775.7604, 492.0863
776.2425, 495.9009
776.7246, 495.8327
777.2067, 495.7091
777.6888, 500.1753
778.1710, 506.2557
778.6531, 507.1444
779.1352, 504.1587
779.6173, 505.5995
780.0994, 514.9734
780.5815, 527.5385
781.0637, 537.1967
781.5458, 544.0316
782.0279, 549.8492
782.5100, 553.6833
782.9921, 560.4953
783.4742, 573.4901
783.9564, 587.3348
784.4385, 596.2874
784.9206, 600.6260
785.4027, 606.4439
785.8848, 614.4947
786.3669, 622.8855
786.8491, 631.6153
787.3312, 640.3129
787.8133, 649.7112
788.2954, 658.7397
788.7775, 664.3229
789.2596, 664.2293
789.7418, 666.3593
790.2239, 678.2989
790.7060, 694.4281
791.1881, 707.8281
791.6702, 718.7874
792.1523, 730.2505
792.6345, 743.3031
793.1166, 756.3899
793.5987, 767.5155
794.0808, 777.1229
794.5629, 786.7905
795.0450, 796.1996
795.5272, 810.6318
796.0093, 833.0714
796.4914, 856.2117
796.9735, 872.5891
797.4556, 883.4443
797.9377, 898.5290
798.4199, 922.2039
798.9020, 943.0598
799.3841, 957.6189
799.8662, 972.2246
800.3483, 989.9858
800.8304, 1010.090
801.3126, 1031.051
801.7947, 1052.579
802.2768, 1074.525
802.7589, 1098.388
803.2410, 1121.212
803.7231, 1139.557
804.2053, 1155.468
804.6874, 1171.631
805.1695, 1189.294
805.6516, 1211.412
806.1337, 1241.675
806.6158, 1276.822
807.0980, 1310.806
807.5801, 1344.079
808.0622, 1378.634
808.5443, 1414.967
809.0264, 1448.532
809.5085, 1475.093
809.9907, 1498.379
810.4728, 1530.744
810.9549, 1576.433
811.4370, 1612.448
811.9191, 1628.302
812.4012, 1652.982
812.8834, 1707.806
813.3655, 1774.854
813.8476, 1822.903
814.3297, 1848.506
814.8118, 1881.863
815.2939, 1928.527
815.7761, 1979.599
816.2582, 2037.462
816.7403, 2094.324
817.2224, 2140.750
817.7045, 2178.402
818.1866, 2219.366
818.6688, 2272.137
819.1509, 2323.300
819.6330, 2355.071
820.1151, 2382.724
820.5972, 2431.529
821.0793, 2498.726
821.5615, 2564.421
822.0436, 2619.613
822.5257, 2669.589
823.0078, 2722.882
823.4899, 2777.393
823.9720, 2819.016
824.4542, 2847.545
824.9363, 2887.513
825.4184, 2949.512
825.9005, 3011.299
826.3826, 3046.927
826.8647, 3060.860
827.3469, 3096.664
827.8290, 3170.649
828.3111, 3228.384
828.7932, 3256.364
829.2753, 3275.453
829.7574, 3299.601
830.2396, 3323.652
830.7217, 3335.712
831.2038, 3329.856
831.6859, 3329.736
832.1680, 3352.421
832.6501, 3367.694
833.1323, 3357.060
833.6144, 3331.383
834.0965, 3300.897
834.5786, 3269.676
835.0607, 3246.531
835.5428, 3245.741
836.0250, 3243.703
836.5071, 3217.089
836.9892, 3174.826
837.4713, 3127.910
837.9534, 3080.289
838.4355, 3039.637
838.9177, 3010.795
839.3998, 2984.142
839.8819, 2942.093
840.3640, 2888.743
840.8461, 2847.609
841.3282, 2819.722
841.8104, 2790.581
842.2925, 2755.197
842.7746, 2714.742
843.2567, 2669.013
843.7388, 2618.989
844.2209, 2580.131
844.7031, 2558.394
845.1852, 2531.055
845.6673, 2488.586
846.1494, 2448.463
846.6315, 2429.041
847.1136, 2419.639
847.5958, 2388.097
848.0779, 2320.086
848.5600, 2267.983
849.0421, 2251.400
849.5242, 2234.237
850.0063, 2198.488
850.4885, 2154.369
850.9706, 2114.471
851.4527, 2080.239
851.9348, 2046.202
852.4169, 2007.575
852.8990, 1971.257
853.3812, 1944.714
853.8633, 1921.013
854.3454, 1890.044
854.8275, 1853.420
855.3096, 1820.321
855.7917, 1795.082
856.2739, 1771.978
856.7560, 1744.417
857.2381, 1714.322
857.7202, 1684.851
858.2023, 1656.710
858.6844, 1632.656
859.1666, 1613.437
859.6487, 1598.724
860.1308, 1589.529
860.6129, 1582.748
861.0950, 1564.700
861.5771, 1533.913
862.0593, 1509.292
862.5414, 1493.729
863.0235, 1483.759
863.5056, 1479.197
863.9877, 1476.628
864.4698, 1469.061
864.9520, 1455.630
865.4341, 1440.753
865.9162, 1419.107
866.3983, 1404.224
866.8804, 1404.473
867.3625, 1409.468
867.8447, 1411.673
868.3268, 1411.146
868.8089, 1408.845
869.2910, 1395.737
869.7731, 1394.902
870.2552, 1426.835
870.7374, 1457.152
871.2195, 1458.010
871.7016, 1443.014
872.1837, 1437.048
872.6658, 1445.970
873.1479, 1461.360
873.6301, 1484.003
874.1122, 1506.040
874.5943, 1517.548
875.0764, 1526.017
875.5585, 1544.177
876.0406, 1571.996
876.5228, 1599.574
877.0049, 1621.275
877.4870, 1640.515
877.9691, 1653.837
878.4512, 1670.431
878.9333, 1717.087
879.4155, 1790.012
879.8976, 1859.706
880.3797, 1915.376
880.8618, 1975.024
881.3439, 2059.759
881.8260, 2162.094
882.3082, 2250.289
882.7903, 2323.617
883.2724, 2406.470
883.7545, 2501.871
884.2366, 2609.869
884.7188, 2730.632
885.2009, 2862.340
885.6830, 3001.104
886.1651, 3147.741
886.6472, 3297.923
887.1293, 3449.010
887.6115, 3609.687
888.0936, 3788.499
888.5757, 3972.326
889.0578, 4153.861
889.5399, 4331.194
890.0220, 4487.201
890.5042, 4621.378
890.9863, 4737.084
891.4684, 4841.308
891.9505, 4919.652
892.4326, 4962.058
892.9147, 4975.573
893.3969, 4973.224
893.8790, 4956.929
894.3611, 4906.810
894.8432, 4810.712
895.3253, 4687.814
895.8074, 4539.783
896.2896, 4375.225
896.7717, 4203.419
897.2538, 4023.526
897.7359, 3825.113
898.2180, 3601.393
898.7001, 3381.010
899.1823, 3185.829
899.6644, 3003.896
900.1465, 2820.345
900.6286, 2639.742
901.1107, 2473.675
901.5928, 2323.419
902.0750, 2181.380
902.5571, 2039.956
903.0392, 1906.996
903.5213, 1795.675
904.0034, 1699.287
904.4855, 1601.182
904.9677, 1501.331
905.4498, 1410.451
905.9319, 1333.008
906.4140, 1264.102
906.8961, 1197.901
907.3782, 1135.125
907.8604, 1079.662
908.3425, 1031.338
908.8246, 985.2675
909.3067, 940.4539
909.7888, 898.6947
910.2709, 860.8442
910.7530, 827.2263
911.2351, 799.0396
911.7172, 776.8126
912.1993, 754.5532
912.6815, 732.2615
913.1636, 709.9147
913.6457, 687.3403
914.1278, 664.8417
914.6099, 641.6546
915.0920, 618.7704
915.5742, 603.0060
916.0563, 600.1807
916.5384, 590.3022
917.0205, 564.9546
917.5026, 544.1259
917.9847, 541.9167
918.4669, 545.9521
918.9490, 537.4826
919.4311, 515.4258
919.9132, 497.9825
920.3953, 486.5077
920.8774, 478.1154
921.3596, 475.2138
921.8417, 472.4724
922.3238, 465.0317
922.8059, 455.6621
923.2880, 451.0660
923.7701, 453.5659
924.2523, 452.7543
924.7344, 443.2633
925.2165, 433.2617
925.6986, 425.7624
926.1807, 420.1003
926.6628, 415.9888
927.1450, 412.8921
927.6271, 409.8211
928.1092, 407.3125
928.5913, 402.0342
929.0734, 388.8850
929.5555, 375.3600
930.0377, 367.9888
930.5198, 364.5498
931.0019, 360.6833
931.4840, 355.8230
931.9661, 353.1175
932.4482, 356.2971
932.9304, 358.6539
933.4125, 352.3008
933.8946, 342.6464
934.3767, 337.1265
934.8588, 335.0501
935.3409, 332.4945
935.8231, 328.1642
936.3052, 323.7405
936.7873, 321.2361
937.2694, 319.0149
937.7515, 314.5268
938.2336, 308.3757
938.7158, 300.9052
939.1979, 292.9223
939.6800, 288.4138
940.1621, 289.4382
940.6442, 291.4793
941.1263, 288.3434
941.6085, 281.7257
942.0906, 276.2681
942.5727, 272.0068
943.0548, 269.3181
943.5369, 268.2225
944.0190, 268.1967
944.5012, 269.1730
944.9833, 269.4345
945.4654, 264.2836
945.9475, 254.7729
946.4296, 250.7067
946.9117, 252.2953
947.3939, 254.4473
947.8760, 255.8252
948.3581, 254.6762
948.8402, 248.8231
949.3223, 240.3977
949.8044, 236.2050
950.2866, 236.4068
950.7687, 238.6567
951.2508, 243.3726
951.7329, 246.6338
952.2150, 246.6515
952.6971, 245.3795
953.1793, 245.1820
953.6614, 245.6976
954.1435, 243.8801
954.6256, 238.6781
955.1077, 236.0156
955.5898, 237.2679
956.0720, 238.9867
956.5541, 239.9876
957.0362, 239.5947
957.5183, 236.0313
958.0004, 229.1936
958.4825, 227.6131
958.9647, 234.5636
959.4468, 238.5093
959.9289, 236.3042
960.4110, 233.3334
960.8931, 233.1492
961.3752, 234.0333
961.8574, 232.4636
962.3395, 227.8872
962.8216, 224.2455
963.3037, 220.1855
963.7858, 219.4819
964.2679, 226.0874
964.7501, 232.6364
965.2322, 234.5812
965.7143, 232.5113
966.1964, 227.1682
966.6785, 215.6096
967.1606, 210.0100
967.6428, 217.1717
968.1249, 221.1715
968.6070, 213.4239
969.0891, 205.1912
969.5712, 207.7848
970.0533, 217.4204
970.5355, 220.3227
971.0176, 211.7708
971.4997, 206.3110
971.9818, 208.0277
972.4639, 209.5719
972.9460, 208.5269
973.4282, 205.9157
973.9103, 202.2266
974.3924, 197.8557
974.8745, 194.0148
975.3566, 189.3855
975.8387, 188.3829
976.3209, 195.5558
976.8030, 202.1170
977.2851, 204.0128
977.7672, 202.9974
978.2493, 200.9860
978.7314, 198.1649
979.2136, 194.2442
979.6957, 187.3419
980.1778, 182.4810
980.6599, 181.0094
981.1420, 181.8710
981.6241, 186.2116
982.1063, 191.4807
982.5884, 194.7202
983.0705, 195.5977
983.5526, 194.8455
984.0347, 190.6875
984.5168, 187.9528
984.9990, 190.1185
985.4811, 192.2902
985.9632, 190.7878
986.4453, 187.2597
986.9274, 184.1967
987.4095, 182.0227
987.8917, 180.3532
988.3738, 179.6179
988.8559, 178.5909
989.3380, 176.5702
989.8201, 174.2894
990.3022, 172.3788
990.7844, 170.5824
991.2665, 167.7135
991.7486, 163.7788
992.2307, 162.4249
992.7128, 167.4522
993.1949, 172.2754
993.6771, 174.3038
994.1592, 174.5594
994.6413, 173.0038
995.1234, 170.6718
995.6055, 168.9447
996.0876, 168.1442
996.5698, 168.8465
997.0519, 173.5279
997.5340, 176.9395
998.0161, 176.0028
998.4982, 173.0497
998.9803, 168.5576
999.4625, 164.2031
999.9446, 163.1628
1000.427, 166.1001
1000.909, 168.9573
1001.391, 169.5556
1001.873, 170.1402
1002.355, 174.0090
1002.837, 176.5712
1003.319, 171.3971
1003.802, 162.1841
1004.284, 157.1204
1004.766, 158.1481
1005.248, 160.3952
1005.730, 162.3322
1006.212, 164.1898
1006.694, 167.1045
1007.176, 169.1208
1007.658, 167.0529
1008.141, 163.0120
1008.623, 162.0950
1009.105, 165.5682
1009.587, 167.9031
1010.069, 165.0968
1010.551, 162.6015
1011.033, 164.1404
1011.515, 166.4431
1011.997, 166.5343
1012.480, 164.9444
1012.962, 163.2528
1013.444, 161.8126
1013.926, 160.4275
1014.408, 158.6295
1014.890, 157.3527
1015.372, 156.6320
1015.854, 156.9912
1016.337, 160.4786
1016.819, 164.8905
1017.301, 165.1849
1017.783, 160.2117
1018.265, 156.6317
1018.747, 158.9588
1019.229, 160.3738
1019.711, 155.7230
1020.193, 151.0427
1020.676, 152.6981
1021.158, 157.6505
1021.640, 159.2125
1022.122, 156.1290
1022.604, 153.3419
1023.086, 152.2602
1023.568, 151.8623
1024.050, 152.1889
1024.533, 152.6600
1025.015, 152.5205
1025.497, 152.3505
1025.979, 153.8565
1026.461, 157.3466
1026.943, 158.3273
1027.425, 152.3697
1027.907, 148.4896
1028.390, 151.6355
1028.872, 155.2789
1029.354, 154.2429
1029.836, 151.1495
1030.318, 151.0112
1030.800, 154.3667
1031.282, 156.2989
1031.764, 154.3968
1032.246, 153.3627
1032.729, 154.1246
1033.211, 156.0274
1033.693, 160.1784
1034.175, 164.4473
1034.657, 166.1043
1035.139, 164.9960
1035.621, 161.1209
1036.103, 148.7693
1036.585, 142.3238
1037.068, 147.5303
1037.550, 154.0057
1038.032, 158.2780
1038.514, 160.1411
1038.996, 158.3232
1039.478, 153.0534
1039.960, 150.3828
1040.442, 151.9975
1040.925, 153.3169
1041.407, 154.8474
1041.889, 155.0555
1042.371, 152.6408
1042.853, 149.2210
1043.335, 146.1089
1043.817, 143.4941
1044.299, 143.1156
1044.781, 145.8022
1045.264, 148.8873
1045.746, 153.2748
1046.228, 155.9098
1046.710, 154.7915
1047.192, 152.9680
1047.674, 153.8729
1048.156, 156.4639
1048.638, 155.5458
1049.120, 148.8988
1049.603, 148.2556
1050.085, 156.4182
1050.567, 161.4252
1051.049, 158.7286
1051.531, 154.2890
1052.013, 153.1106
1052.495, 154.1801
1052.977, 154.9688
1053.460, 155.6009
1053.942, 154.4358
1054.424, 151.2153
1054.906, 147.8453
1055.388, 144.5097
1055.870, 143.4725
1056.352, 146.7382
1056.834, 152.1447
1057.317, 155.9501
1057.799, 158.0846
1058.281, 157.2938
1058.763, 153.6685
1059.245, 150.0774
1059.727, 147.0969
1060.209, 144.8508
1060.691, 143.3785
1061.173, 142.9524
1061.656, 144.5390
1062.138, 147.2507
1062.620, 146.9764
1063.102, 144.8249
1063.584, 147.0635
1064.066, 153.7153
1064.548, 158.2862
1065.030, 157.8511
1065.512, 155.6889
1065.995, 155.3306
1066.477, 155.4806
1066.959, 153.2471
1067.441, 149.8067
1067.923, 148.1210
1068.405, 147.9630
1068.887, 147.3320
1069.369, 145.6235
1069.852, 143.8424
1070.334, 142.3086
1070.816, 141.9363
1071.298, 145.3536
1071.780, 149.3938
1072.262, 148.9687
1072.744, 145.8227
1073.226, 144.8568
1073.708, 146.5292
1074.191, 146.4114
1074.673, 141.1713
1075.155, 136.4147
1075.637, 136.0298
1076.119, 137.8196
1076.601, 141.1787
1077.083, 144.7003
1077.565, 146.8683
1078.047, 147.4931
1078.530, 146.6453
1079.012, 143.6815
1079.494, 141.8561
1079.976, 144.1412
1080.458, 145.7504
1080.940, 143.3683
1081.422, 140.0274
1081.904, 138.4388
1082.386, 138.2880
1082.869, 138.4784
1083.351, 139.1638
1083.833, 138.4742
1084.315, 133.5328
1084.797, 130.9394
1085.279, 134.1401
1085.761, 137.9711
1086.243, 139.9018
1086.726, 140.1370
1087.208, 138.0888
1087.690, 133.6106
1088.172, 133.6913
1088.654, 141.8890
1089.136, 146.3153
1089.618, 144.6416
1090.100, 141.7848
1090.583, 138.9185
1091.065, 137.7204
1091.547, 141.0537
1092.029, 147.1579
1092.511, 146.6216
1092.993, 138.0474
1093.475, 135.1404
1093.957, 139.2540
1094.439, 142.2237
1094.922, 141.5310
1095.404, 139.7189
1095.886, 138.6998
1096.368, 138.1962
1096.850, 137.7357
1097.332, 137.2800
1097.814, 136.0906
1098.296, 134.5087
1098.778, 135.4675
1099.261, 139.1442
1099.743, 142.0915
1100.225, 142.4942
1100.707, 141.4166
1101.189, 139.4369
1101.671, 137.3600
1102.153, 137.1839
1102.635, 137.7709
1103.118, 136.1320
1103.600, 133.0175
1104.082, 132.2172
1104.564, 134.5914
1105.046, 136.0058
1105.528, 132.8418
1106.010, 129.1691
1106.492, 126.6298
1106.974, 126.8767
1107.457, 134.8002
1107.939, 145.0514
1108.421, 148.4501
1108.903, 144.8977
1109.385, 141.7004
1109.867, 141.2401
1110.349, 141.3021
1110.831, 141.4687
1111.313, 141.4925
1111.796, 140.9053
1112.278, 140.4191
1112.760, 141.8021
1113.242, 143.6251
1113.724, 141.5683
1114.206, 134.0807
1114.688, 128.9441
1115.170, 126.3945
1115.653, 126.2272
1116.135, 130.0434
1116.617, 133.6958
1117.099, 135.1493
1117.581, 135.1620
1118.063, 134.6458
1118.545, 133.6566
1119.027, 132.5445
1119.510, 131.1121
1119.992, 130.9215
1120.474, 132.2502
1120.956, 133.5488
1121.438, 134.3013
1121.920, 134.7746
1122.402, 135.1106
1122.884, 135.5918
1123.366, 137.0513
1123.849, 139.1873
1124.331, 141.2826
1124.813, 142.7929
1125.295, 139.7439
1125.777, 132.5668
1126.259, 128.8021
1126.741, 132.2660
1127.223, 136.3869
1127.705, 133.2950
1128.188, 128.2570
1128.670, 128.2565
1129.152, 130.9050
1129.634, 133.4441
1130.116, 135.2652
1130.598, 135.9690
1131.080, 135.4954
1131.562, 133.9958
1132.045, 129.9089
1132.527, 128.3359
1133.009, 134.2205
1133.491, 140.8144
1133.973, 145.3212
1134.455, 146.8606
1134.937, 142.5647
1135.419, 134.7386
1135.901, 131.2711
1136.384, 134.3247
1136.866, 137.0115
1137.348, 139.8852
1137.830, 140.6460
1138.312, 137.4701
1138.794, 134.3241
1139.276, 133.9987
1139.758, 134.0307
1140.240, 129.9889
1140.723, 122.8837
1141.205, 123.2647
1141.687, 132.5736
1142.169, 137.0593
1142.651, 135.3837
1143.133, 133.4946
1143.615, 133.2396
1144.097, 134.8390
1144.580, 138.8672
1145.062, 142.8809
1145.544, 140.5996
1146.026, 135.2119
1146.508, 138.5699
1146.990, 147.0633
1147.472, 148.5218
1147.954, 142.5930
1148.437, 136.2165
1148.919, 132.3055
1149.401, 131.0999
1149.883, 134.8113
1150.365, 138.5510
1150.847, 136.7317
1151.329, 133.8871
1151.811, 135.6254
1152.293, 139.2203
1152.776, 139.3919
1153.258, 136.0903
1153.740, 133.4853
1154.222, 132.8929
1154.704, 132.3625
1155.186, 131.1236
1155.668, 130.3050
1156.150, 130.8094
1156.632, 131.3331
1157.115, 130.5072
1157.597, 129.3776
1158.079, 130.2479
1158.561, 133.1461
1159.043, 132.9732
1159.525, 128.3779
1160.007, 126.9443
1160.489, 129.9473
1160.972, 132.9798
1161.454, 134.5350
1161.936, 134.8151
1162.418, 133.8398
1162.900, 132.2963
1163.382, 131.5542
1163.864, 131.4815
1164.346, 131.9325
1164.828, 132.5936
1165.311, 131.8542
1165.793, 130.0481
1166.275, 130.0329
1166.757, 132.9536
1167.239, 136.1125
1167.721, 138.0690
1168.203, 138.4294
1168.685, 135.0494
1169.167, 131.5835
1169.650, 132.5203
1170.132, 135.4528
1170.614, 136.2582
1171.096, 134.8452
1171.578, 133.6425
1172.060, 132.7622
1172.542, 133.3691
1173.024, 136.9878
1173.507, 140.2657
1173.989, 142.9341
1174.471, 144.2509
1174.953, 143.2540
1175.435, 141.1951
1175.917, 139.9115
1176.399, 139.3543
1176.881, 139.0298
1177.364, 138.9361
1177.846, 139.4107
1178.328, 140.5469
1178.810, 139.6171
1179.292, 135.8190
1179.774, 132.5469
1180.256, 132.2493
1180.738, 133.7757
1181.220, 136.9186
1181.703, 139.7679
1182.185, 137.1845
1182.667, 132.1181
1183.149, 130.3024
1183.631, 131.5768
1184.113, 133.5575
1184.595, 135.5140
1185.077, 137.7869
1185.559, 141.8662
1186.042, 143.5737
1186.524, 138.0134
1187.006, 132.9763
1187.488, 135.0443
1187.970, 138.2139
1188.452, 134.5496
1188.934, 127.2559
1189.416, 126.7802
1189.899, 134.3547
1190.381, 137.9118
1190.863, 136.0113
1191.345, 134.2072
1191.827, 132.7528
1192.309, 132.9113
1192.791, 135.3197
1193.273, 139.2428
1193.755, 144.6515
1194.238, 149.0288
1194.720, 145.0632
1195.202, 135.7627
1195.684, 132.2092
1196.166, 133.1339
1196.648, 133.7817
1197.130, 133.6763
1197.612, 135.1785
1198.094, 138.9318
1198.577, 140.6125
1199.059, 135.3527
1199.541, 130.3505
1200.023, 131.5768
1200.505, 133.8850
1200.987, 131.9246
1201.469, 129.6351
1201.951, 133.5316
1202.434, 141.5317
1202.916, 145.2545
1203.398, 143.1272
1203.880, 139.8649
1204.362, 133.5415
1204.844, 131.0033
1205.326, 135.2599
1205.808, 136.7581
1206.291, 130.2703
1206.773, 123.5350
1207.255, 124.6417
1207.737, 130.4319
1208.219, 133.1888
1208.701, 133.6359
1209.183, 135.1006
1209.665, 137.2574
1210.147, 139.1681
1210.630, 140.2010
1211.112, 137.8827
1211.594, 131.5806
1212.076, 126.9977
1212.558, 128.8315
1213.040, 132.3358
1213.522, 134.8203
1214.004, 136.9222
1214.486, 140.4455
1214.969, 142.8503
1215.451, 139.0646
1215.933, 131.7487
1216.415, 130.5923
1216.897, 137.8547
1217.379, 140.9371
1217.861, 137.1243
1218.343, 136.7383
1218.826, 142.5204
1219.308, 145.7745
1219.790, 142.7208
1220.272, 137.8918
1220.754, 135.1205
1221.236, 134.0748
1221.718, 134.8048
1222.200, 136.5293
1222.682, 137.2819
1223.165, 136.7889
1223.647, 133.3402
1224.129, 128.0542
1224.611, 124.7612
1225.093, 124.5650
1225.575, 126.1012
1226.057, 129.9153
1226.539, 132.3717
1227.021, 130.3273
1227.504, 127.9741
1227.986, 127.1522
1228.468, 127.5765
1228.950, 128.8318
1229.432, 131.1878
1229.914, 135.8893
1230.396, 142.8367
1230.878, 145.3187
1231.361, 142.5430
1231.843, 139.2246
1232.325, 135.4491
1232.807, 133.9906
1233.289, 135.6878
1233.771, 135.5863
1234.253, 130.2114
1234.735, 124.6642
1235.218, 126.2427
1235.700, 130.9858
1236.182, 133.8097
1236.664, 134.7119
1237.146, 132.3032
1237.628, 128.6004
1238.110, 127.8446
1238.592, 129.9616
1239.074, 130.6647
1239.557, 128.0735
1240.039, 126.7725
1240.521, 129.2290
1241.003, 130.7994
1241.485, 129.4654
1241.967, 128.8687
1242.449, 131.2591
1242.931, 134.2410
1243.413, 135.1413
1243.896, 134.5750
1244.378, 134.5225
1244.860, 134.7987
1245.342, 133.1262
1245.824, 130.1646
1246.306, 129.9016
1246.788, 132.2347
1247.270, 133.2955
1247.753, 131.8618
1248.235, 131.1621
1248.717, 133.8660
1249.199, 136.6970
1249.681, 138.5058
1250.163, 138.3741
1250.645, 134.0852
1251.127, 128.9583
1251.609, 125.8772
1252.092, 124.6466
1252.574, 124.4991
1253.056, 125.3937
1253.538, 126.7749
1254.020, 128.6449
1254.502, 131.3934
1254.984, 135.3251
1255.466, 136.7486
1255.948, 134.6840
1256.431, 133.3854
1256.913, 135.4465
1257.395, 136.8214
1257.877, 131.5023
1258.359, 124.8424
1258.841, 124.7333
1259.323, 127.6212
1259.805, 130.1032
1260.288, 131.5080
1260.770, 130.4287
1261.252, 127.9126
1261.734, 128.1124
1262.216, 132.4713
1262.698, 135.0137
1263.180, 133.2760
1263.662, 133.0462
1264.145, 135.5199
1264.627, 138.0149
1265.109, 140.0406
1265.591, 139.7845
1266.073, 135.3316
1266.555, 129.6279
1267.037, 127.8103
##END=



