##NAMES=Monazite-(Ce)
##RRUFFID=R060925
##IDEAL CHEMISTRY=CePO_4_
##LOCALITY=Siglo Veinte mine, Llallagua, Bustillos Province, Potosi Department, Bolivia
##OWNER=RRUFF
##SOURCE=Alfredo Petrov
##DESCRIPTION=Pale peach semi-transparent crystals associated with quartz
##STATUS=The identification of this mineral is confirmed by single-crystal X-ray diffraction and chemical analysis.
##URL=rruff.info/R060925
##MEASURED CHEMISTRY=(Ce_0.52_La_0.21_Nd_0.19_Y_0.06_Ca_0.01_Th_0.01_)_Σ=1_P_1.00_O_4_ ; = light phase, and dark phase = (Ce_0.49_La_0.21_Nd_0.20_Y_0.07_Ca_0.02_Th_0.02_)_Σ=1_P_1.00_O_4_
120.0767, 2153.763
120.5588, 2288.703
121.0409, 2412.706
121.5230, 2519.588
122.0051, 2607.456
122.4873, 2677.709
122.9694, 2724.725
123.4515, 2752.513
123.9336, 2774.583
124.4157, 2794.437
124.8979, 2815.005
125.3800, 2840.683
125.8621, 2872.610
126.3442, 2910.283
126.8263, 2952.331
127.3084, 2998.560
127.7905, 3052.395
128.2727, 3113.094
128.7548, 3182.657
129.2369, 3267.422
129.7190, 3389.637
130.2011, 3527.052
130.6832, 3625.686
131.1654, 3686.656
131.6475, 3703.488
132.1296, 3658.119
132.6117, 3552.914
133.0938, 3427.759
133.5759, 3287.435
134.0581, 3134.707
134.5402, 3009.981
135.0223, 2914.969
135.5044, 2845.946
135.9865, 2799.846
136.4686, 2778.572
136.9508, 2769.277
137.4329, 2762.064
137.9150, 2754.900
138.3971, 2769.939
138.8792, 2817.626
139.3613, 2887.696
139.8434, 2936.313
140.3256, 2957.375
140.8077, 2970.662
141.2898, 2991.389
141.7719, 3021.903
142.2540, 3053.134
142.7361, 3084.296
143.2183, 3115.650
143.7004, 3142.188
144.1825, 3158.434
144.6646, 3174.904
145.1467, 3202.741
145.6288, 3247.548
146.1110, 3295.310
146.5931, 3340.948
147.0752, 3381.028
147.5573, 3434.191
148.0394, 3500.354
148.5215, 3579.000
149.0037, 3671.026
149.4858, 3786.986
149.9679, 3904.761
150.4500, 4020.760
150.9321, 4142.106
151.4142, 4247.044
151.8964, 4338.822
152.3785, 4414.653
152.8606, 4467.369
153.3427, 4475.336
153.8248, 4477.287
154.3069, 4489.542
154.7890, 4517.510
155.2712, 4551.789
155.7533, 4596.106
156.2354, 4647.575
156.7175, 4694.026
157.1996, 4745.793
157.6817, 4784.961
158.1639, 4800.017
158.6460, 4774.081
159.1281, 4737.113
159.6102, 4694.993
160.0923, 4647.670
160.5744, 4596.178
161.0566, 4536.242
161.5387, 4473.573
162.0208, 4413.695
162.5029, 4350.861
162.9850, 4297.002
163.4671, 4257.434
163.9493, 4232.995
164.4314, 4220.114
164.9135, 4218.763
165.3956, 4227.758
165.8777, 4245.458
166.3598, 4273.351
166.8420, 4308.498
167.3241, 4348.486
167.8062, 4392.842
168.2883, 4444.693
168.7704, 4504.903
169.2525, 4574.503
169.7346, 4655.914
170.2168, 4756.843
170.6989, 4866.442
171.1810, 4974.332
171.6631, 5079.404
172.1452, 5182.267
172.6273, 5290.693
173.1095, 5399.645
173.5916, 5495.851
174.0737, 5576.222
174.5558, 5637.657
175.0379, 5675.319
175.5201, 5689.438
176.0022, 5678.303
176.4843, 5633.870
176.9664, 5559.126
177.4485, 5471.121
177.9306, 5375.680
178.4128, 5276.554
178.8949, 5178.201
179.3770, 5075.599
179.8591, 4979.529
180.3412, 4908.402
180.8233, 4861.222
181.3055, 4824.808
181.7876, 4788.045
182.2697, 4752.521
182.7518, 4722.056
183.2339, 4699.638
183.7160, 4682.733
184.1982, 4665.957
184.6803, 4649.066
185.1624, 4634.746
185.6445, 4627.444
186.1266, 4625.966
186.6087, 4623.386
187.0908, 4613.855
187.5730, 4600.609
188.0551, 4596.639
188.5372, 4602.968
189.0193, 4614.159
189.5014, 4625.230
189.9835, 4636.115
190.4657, 4643.970
190.9478, 4646.979
191.4299, 4645.652
191.9120, 4644.385
192.3941, 4644.869
192.8762, 4641.593
193.3584, 4620.756
193.8405, 4581.800
194.3226, 4548.357
194.8047, 4538.882
195.2868, 4551.789
195.7689, 4550.157
196.2511, 4528.495
196.7332, 4496.835
197.2153, 4476.896
197.6974, 4470.074
198.1795, 4463.705
198.6616, 4448.278
199.1438, 4422.983
199.6259, 4405.074
200.1080, 4396.300
200.5901, 4395.551
201.0722, 4401.109
201.5543, 4414.027
202.0364, 4428.676
202.5186, 4440.932
203.0007, 4450.191
203.4828, 4460.216
203.9649, 4468.430
204.4470, 4478.539
204.9291, 4506.547
205.4113, 4556.437
205.8934, 4612.549
206.3755, 4664.185
206.8576, 4711.008
207.3397, 4753.252
207.8218, 4786.239
208.3040, 4814.004
208.7861, 4863.344
209.2682, 4939.199
209.7503, 5025.436
210.2324, 5105.356
210.7145, 5171.158
211.1967, 5258.691
211.6788, 5381.569
212.1609, 5536.404
212.6430, 5671.753
213.1251, 5774.524
213.6072, 5877.219
214.0894, 6014.846
214.5715, 6200.761
215.0536, 6383.935
215.5357, 6548.059
216.0178, 6693.784
216.4999, 6859.953
216.9820, 7053.431
217.4642, 7255.786
217.9463, 7450.507
218.4284, 7634.077
218.9105, 7813.045
219.3926, 7991.674
219.8747, 8169.484
220.3569, 8330.741
220.8390, 8480.952
221.3211, 8608.879
221.8032, 8704.130
222.2853, 8759.356
222.7674, 8796.882
223.2496, 8827.517
223.7317, 8857.287
224.2138, 8835.477
224.6959, 8741.958
225.1780, 8614.470
225.6601, 8500.509
226.1423, 8411.696
226.6244, 8315.923
227.1065, 8201.372
227.5886, 8059.815
228.0707, 7936.525
228.5528, 7840.499
229.0350, 7754.670
229.5171, 7655.955
229.9992, 7546.723
230.4813, 7416.891
230.9634, 7261.043
231.4455, 7071.119
231.9276, 6879.671
232.4098, 6685.746
232.8919, 6489.792
233.3740, 6300.066
233.8561, 6121.060
234.3382, 5939.428
234.8203, 5744.874
235.3025, 5526.644
235.7846, 5336.001
236.2667, 5182.064
236.7488, 5050.849
237.2309, 4918.720
237.7130, 4781.063
238.1952, 4652.105
238.6773, 4536.368
239.1594, 4433.360
239.6415, 4346.089
240.1236, 4278.343
240.6057, 4224.147
241.0879, 4170.816
241.5700, 4117.960
242.0521, 4067.481
242.5342, 4020.274
243.0163, 3976.931
243.4984, 3934.594
243.9806, 3890.302
244.4627, 3848.033
244.9448, 3816.584
245.4269, 3799.199
245.9090, 3787.407
246.3911, 3777.701
246.8732, 3768.825
247.3554, 3765.241
247.8375, 3768.619
248.3196, 3776.510
248.8017, 3783.504
249.2838, 3788.164
249.7659, 3794.133
250.2481, 3804.020
250.7302, 3822.115
251.2123, 3831.956
251.6944, 3826.715
252.1765, 3816.328
252.6586, 3824.206
253.1408, 3860.117
253.6229, 3898.503
254.1050, 3928.904
254.5871, 3946.844
255.0692, 3969.057
255.5513, 3995.956
256.0334, 4027.007
256.5156, 4062.536
256.9977, 4106.139
257.4798, 4148.078
257.9619, 4184.084
258.4440, 4213.090
258.9261, 4238.994
259.4083, 4258.042
259.8904, 4275.990
260.3725, 4308.792
260.8546, 4368.781
261.3367, 4419.333
261.8188, 4439.835
262.3010, 4415.705
262.7831, 4412.398
263.2652, 4433.995
263.7473, 4473.523
264.2294, 4518.653
264.7115, 4571.208
265.1937, 4624.125
265.6758, 4672.353
266.1579, 4711.836
266.6400, 4762.576
267.1221, 4827.374
267.6042, 4900.851
268.0864, 4967.986
268.5685, 5023.012
269.0506, 5089.837
269.5327, 5184.662
270.0148, 5315.734
270.4969, 5427.770
270.9791, 5516.349
271.4612, 5591.035
271.9433, 5666.673
272.4254, 5743.004
272.9075, 5820.794
273.3896, 5902.084
273.8718, 5987.512
274.3539, 6064.723
274.8360, 6134.659
275.3181, 6196.267
275.8002, 6251.738
276.2823, 6304.031
276.7645, 6334.658
277.2466, 6329.110
277.7287, 6284.753
278.2108, 6252.854
278.6929, 6239.997
279.1750, 6226.408
279.6572, 6174.473
280.1393, 6079.020
280.6214, 5989.781
281.1035, 5935.063
281.5856, 5912.378
282.0677, 5861.504
282.5499, 5777.871
283.0320, 5677.779
283.5141, 5578.285
283.9962, 5479.041
284.4783, 5391.868
284.9604, 5331.590
285.4425, 5291.862
285.9247, 5219.298
286.4068, 5108.329
286.8889, 4988.836
287.3710, 4898.182
287.8531, 4835.206
288.3352, 4778.209
288.8174, 4718.491
289.2995, 4658.280
289.7816, 4608.802
290.2637, 4572.368
290.7458, 4537.378
291.2279, 4486.601
291.7101, 4423.413
292.1922, 4370.533
292.6743, 4340.745
293.1564, 4325.923
293.6385, 4305.035
294.1206, 4277.719
294.6028, 4251.157
295.0849, 4233.005
295.5670, 4221.600
296.0491, 4210.451
296.5312, 4196.662
297.0133, 4182.667
297.4955, 4174.103
297.9776, 4171.132
298.4597, 4168.468
298.9418, 4158.461
299.4239, 4145.261
299.9060, 4139.707
300.3882, 4150.901
300.8703, 4166.013
301.3524, 4162.229
301.8345, 4141.515
302.3166, 4125.558
302.7987, 4136.134
303.2809, 4161.287
303.7630, 4181.205
304.2451, 4190.192
304.7272, 4191.854
305.2093, 4185.204
305.6914, 4172.106
306.1736, 4163.617
306.6557, 4172.708
307.1378, 4188.408
307.6199, 4197.112
308.1020, 4195.267
308.5841, 4186.992
309.0663, 4168.502
309.5484, 4144.503
310.0305, 4131.275
310.5126, 4152.147
310.9947, 4180.440
311.4768, 4189.059
311.9590, 4164.078
312.4411, 4139.638
312.9232, 4141.963
313.4053, 4161.129
313.8874, 4173.421
314.3695, 4168.430
314.8517, 4153.065
315.3337, 4130.251
315.8159, 4097.800
316.2980, 4066.485
316.7801, 4038.340
317.2622, 4014.541
317.7443, 3996.798
318.2264, 3995.736
318.7086, 3993.216
319.1907, 3977.234
319.6728, 3942.014
320.1549, 3915.735
320.6370, 3917.297
321.1191, 3929.313
321.6013, 3929.686
322.0834, 3898.862
322.5655, 3868.824
323.0476, 3850.946
323.5297, 3847.661
324.0118, 3842.315
324.4940, 3832.721
324.9761, 3819.707
325.4582, 3804.066
325.9403, 3780.347
326.4224, 3759.663
326.9045, 3743.630
327.3867, 3732.300
327.8688, 3724.978
328.3509, 3731.569
328.8330, 3736.057
329.3151, 3726.863
329.7972, 3688.016
330.2794, 3656.513
330.7615, 3637.624
331.2436, 3630.107
331.7257, 3622.936
332.2078, 3618.400
332.6899, 3611.822
333.1721, 3599.777
333.6542, 3578.480
334.1363, 3559.423
334.6184, 3541.414
335.1005, 3526.382
335.5826, 3522.692
336.0648, 3539.016
336.5469, 3550.796
337.0290, 3542.236
337.5111, 3504.468
337.9932, 3480.123
338.4753, 3474.322
338.9575, 3478.793
339.4396, 3476.381
339.9217, 3465.208
340.4038, 3454.027
340.8859, 3447.332
341.3680, 3445.501
341.8502, 3440.130
342.3323, 3430.220
342.8144, 3419.347
343.2965, 3414.511
343.7786, 3416.054
344.2607, 3413.874
344.7429, 3399.043
345.2250, 3376.266
345.7071, 3373.062
346.1892, 3392.106
346.6713, 3415.157
347.1534, 3423.869
347.6355, 3419.746
348.1176, 3411.313
348.5998, 3396.708
349.0819, 3381.832
349.5640, 3383.427
350.0461, 3401.058
350.5282, 3415.300
351.0103, 3404.796
351.4925, 3379.258
351.9746, 3360.791
352.4567, 3359.420
352.9388, 3361.215
353.4209, 3345.896
353.9030, 3317.196
354.3852, 3292.702
354.8673, 3291.368
355.3494, 3297.748
355.8315, 3292.478
356.3136, 3269.711
356.7957, 3241.564
357.2779, 3216.483
357.7600, 3193.231
358.2421, 3169.238
358.7242, 3140.944
359.2063, 3112.750
359.6884, 3088.661
360.1706, 3070.121
360.6527, 3050.281
361.1348, 3022.737
361.6169, 2992.482
362.0990, 2966.889
362.5811, 2948.823
363.0633, 2935.018
363.5454, 2927.061
364.0275, 2925.489
364.5096, 2917.685
364.9917, 2891.492
365.4738, 2862.068
365.9560, 2842.485
366.4381, 2848.379
366.9202, 2850.054
367.4023, 2837.504
367.8844, 2812.714
368.3665, 2799.022
368.8487, 2807.077
369.3308, 2819.668
369.8129, 2828.139
370.2950, 2832.744
370.7771, 2832.609
371.2592, 2823.875
371.7414, 2810.596
372.2235, 2804.531
372.7056, 2807.072
373.1877, 2814.773
373.6698, 2827.622
374.1519, 2848.555
374.6341, 2862.370
375.1162, 2864.779
375.5983, 2864.104
376.0804, 2874.388
376.5625, 2897.642
377.0446, 2923.616
377.5267, 2947.465
378.0089, 2969.945
378.4910, 3001.778
378.9731, 3043.779
379.4552, 3092.096
379.9373, 3143.341
380.4194, 3197.923
380.9016, 3251.098
381.3837, 3298.804
381.8658, 3346.986
382.3479, 3413.428
382.8300, 3497.813
383.3121, 3589.866
383.7943, 3681.300
384.2764, 3773.015
384.7585, 3868.145
385.2406, 3963.973
385.7227, 4068.817
386.2048, 4193.295
386.6870, 4334.126
387.1691, 4481.007
387.6512, 4621.550
388.1333, 4765.189
388.6154, 4927.159
389.0975, 5109.650
389.5797, 5300.567
390.0618, 5487.754
390.5439, 5676.575
391.0260, 5871.239
391.5081, 6077.979
391.9902, 6287.104
392.4724, 6492.533
392.9545, 6693.591
393.4366, 6903.625
393.9187, 7139.870
394.4008, 7380.940
394.8829, 7614.030
395.3651, 7866.197
395.8472, 8075.248
396.3293, 8233.822
396.8114, 8339.286
397.2935, 8380.313
397.7756, 8329.940
398.2578, 8233.472
398.7399, 8111.410
399.2220, 7966.856
399.7041, 7791.548
400.1862, 7567.032
400.6683, 7316.435
401.1505, 7078.991
401.6326, 6844.722
402.1147, 6637.445
402.5968, 6461.214
403.0789, 6315.814
403.5610, 6206.056
404.0432, 6140.104
404.5253, 6099.249
405.0074, 6062.387
405.4895, 6024.920
405.9716, 6010.183
406.4537, 6024.161
406.9359, 6063.896
407.4180, 6117.810
407.9001, 6186.353
408.3822, 6268.008
408.8643, 6366.454
409.3464, 6480.164
409.8285, 6591.601
410.3106, 6694.681
410.7928, 6801.881
411.2749, 6937.989
411.7570, 7100.554
412.2391, 7266.415
412.7212, 7426.977
413.2033, 7583.885
413.6855, 7745.595
414.1676, 7913.666
414.6497, 8060.290
415.1318, 8163.728
415.6139, 8226.375
416.0960, 8250.627
416.5782, 8248.175
417.0603, 8199.025
417.5424, 8078.720
418.0245, 7892.772
418.5066, 7676.587
418.9887, 7430.172
419.4709, 7170.428
419.9530, 6904.938
420.4351, 6628.004
420.9172, 6363.826
421.3993, 6118.108
421.8814, 5893.034
422.3636, 5692.971
422.8457, 5531.466
423.3278, 5383.930
423.8099, 5241.475
424.2920, 5097.490
424.7741, 4977.713
425.2563, 4890.699
425.7384, 4823.514
426.2205, 4766.068
426.7026, 4719.732
427.1847, 4680.183
427.6668, 4646.714
428.1490, 4619.529
428.6311, 4601.779
429.1132, 4597.221
429.5953, 4594.574
430.0774, 4584.981
430.5595, 4565.949
431.0417, 4555.836
431.5238, 4556.511
432.0059, 4565.614
432.4880, 4579.917
432.9701, 4599.542
433.4522, 4621.423
433.9344, 4640.759
434.4165, 4660.817
434.8986, 4699.561
435.3807, 4758.371
435.8628, 4821.688
436.3449, 4869.625
436.8271, 4909.542
437.3092, 4961.831
437.7913, 5034.020
438.2734, 5118.358
438.7555, 5208.348
439.2376, 5303.322
439.7197, 5400.357
440.2018, 5492.712
440.6840, 5588.808
441.1661, 5697.093
441.6482, 5818.462
442.1303, 5949.434
442.6124, 6087.001
443.0945, 6233.608
443.5767, 6390.848
444.0588, 6563.664
444.5409, 6744.512
445.0230, 6929.218
445.5051, 7118.278
445.9872, 7319.859
446.4694, 7527.901
446.9515, 7753.063
447.4336, 8002.559
447.9157, 8277.347
448.3978, 8576.029
448.8799, 8899.199
449.3621, 9246.127
449.8442, 9605.809
450.3263, 9975.903
450.8084, 10359.87
451.2905, 10756.21
451.7726, 11158.71
452.2548, 11597.84
452.7369, 12076.47
453.2190, 12587.75
453.7011, 13134.52
454.1832, 13714.73
454.6653, 14320.03
455.1475, 14958.95
455.6296, 15618.04
456.1117, 16274.66
456.5938, 16924.38
457.0759, 17605.19
457.5580, 18330.88
458.0402, 19102.92
458.5223, 19930.30
459.0044, 20831.15
459.4865, 21747.77
459.9686, 22638.96
460.4507, 23509.53
460.9329, 24395.81
461.4150, 25309.42
461.8971, 26223.68
462.3792, 27153.29
462.8613, 28085.46
463.3434, 28945.82
463.8256, 29683.45
464.3077, 30332.98
464.7898, 30933.24
465.2719, 31573.71
465.7540, 32045.16
466.2361, 32286.56
466.7183, 32334.93
467.2004, 32273.75
467.6825, 32168.08
468.1646, 31893.68
468.6467, 31397.12
469.1288, 30654.25
469.6110, 29813.67
470.0930, 28855.68
470.5752, 27819.44
471.0573, 26719.85
471.5394, 25547.92
472.0215, 24362.11
472.5036, 23157.61
472.9857, 21954.21
473.4679, 20807.98
473.9500, 19730.54
474.4321, 18695.66
474.9142, 17679.97
475.3963, 16694.21
475.8784, 15787.46
476.3606, 14965.04
476.8427, 14204.06
477.3248, 13495.04
477.8069, 12833.68
478.2890, 12217.27
478.7711, 11650.39
479.2533, 11123.21
479.7354, 10626.13
480.2175, 10159.77
480.6996, 9726.016
481.1817, 9329.319
481.6638, 8968.100
482.1460, 8645.074
482.6281, 8372.716
483.1102, 8113.211
483.5923, 7854.039
484.0744, 7599.863
484.5565, 7356.455
485.0387, 7124.472
485.5208, 6906.789
486.0029, 6703.771
486.4850, 6514.843
486.9671, 6336.973
487.4492, 6173.826
487.9314, 6020.328
488.4135, 5874.191
488.8956, 5737.961
489.3777, 5605.359
489.8598, 5474.757
490.3419, 5348.517
490.8241, 5225.332
491.3062, 5103.326
491.7883, 4999.073
492.2704, 4926.905
492.7525, 4876.259
493.2346, 4795.920
493.7168, 4686.048
494.1989, 4578.541
494.6810, 4504.758
495.1631, 4454.043
495.6452, 4400.545
496.1273, 4339.816
496.6095, 4274.499
497.0916, 4203.423
497.5737, 4131.031
498.0558, 4066.795
498.5379, 4019.043
499.0201, 3978.768
499.5022, 3943.809
499.9843, 3913.663
500.4664, 3879.582
500.9485, 3831.127
501.4306, 3782.157
501.9127, 3743.574
502.3948, 3731.978
502.8770, 3711.727
503.3591, 3673.122
503.8412, 3625.338
504.3233, 3587.391
504.8054, 3566.836
505.2875, 3544.369
505.7697, 3511.630
506.2518, 3467.648
506.7339, 3437.732
507.2160, 3425.992
507.6981, 3418.173
508.1802, 3401.101
508.6624, 3374.870
509.1445, 3349.630
509.6266, 3326.248
510.1087, 3305.888
510.5908, 3290.316
511.0729, 3279.513
511.5551, 3273.202
512.0372, 3276.364
512.5193, 3281.781
513.0014, 3279.306
513.4835, 3268.850
513.9656, 3253.676
514.4478, 3234.365
514.9299, 3212.207
515.4120, 3188.033
515.8941, 3158.902
516.3762, 3132.839
516.8583, 3110.446
517.3405, 3093.617
517.8226, 3086.496
518.3047, 3105.081
518.7868, 3118.862
519.2689, 3115.773
519.7510, 3094.168
520.2332, 3076.004
520.7153, 3057.484
521.1974, 3047.041
521.6795, 3052.602
522.1616, 3079.530
522.6437, 3104.014
523.1259, 3123.229
523.6080, 3140.292
524.0901, 3161.734
524.5722, 3188.049
525.0543, 3212.585
525.5364, 3228.410
526.0186, 3241.942
526.5007, 3274.829
526.9828, 3326.455
527.4649, 3380.965
527.9470, 3422.119
528.4291, 3458.429
528.9113, 3505.225
529.3934, 3566.057
529.8755, 3633.872
530.3576, 3701.797
530.8397, 3773.190
531.3218, 3855.292
531.8040, 3946.360
532.2861, 4052.489
532.7682, 4175.667
533.2503, 4316.816
533.7324, 4466.778
534.2145, 4635.815
534.6967, 4805.374
535.1788, 4971.971
535.6609, 5152.644
536.1430, 5292.553
536.6251, 5404.682
537.1072, 5461.531
537.5894, 5414.065
538.0715, 5250.189
538.5536, 5041.937
539.0357, 4795.537
539.5178, 4525.209
539.9999, 4262.313
540.4821, 4009.944
540.9642, 3786.940
541.4463, 3604.149
541.9284, 3459.041
542.4105, 3347.318
542.8926, 3270.212
543.3748, 3213.560
543.8569, 3177.730
544.3390, 3152.192
544.8211, 3120.540
545.3032, 3062.985
545.7853, 3013.746
546.2675, 2997.611
546.7495, 3004.571
547.2316, 3003.757
547.7137, 2977.811
548.1959, 2950.561
548.6780, 2930.045
549.1601, 2916.776
549.6422, 2911.183
550.1243, 2918.588
550.6064, 2928.492
551.0886, 2930.429
551.5707, 2918.231
552.0528, 2920.811
552.5349, 2945.886
553.0170, 2981.203
553.4991, 3000.262
553.9813, 3002.806
554.4634, 3005.968
554.9455, 3015.274
555.4276, 3031.009
555.9097, 3054.894
556.3918, 3086.554
556.8740, 3121.808
557.3561, 3155.599
557.8382, 3191.881
558.3203, 3238.073
558.8024, 3299.971
559.2845, 3357.387
559.7667, 3404.537
560.2488, 3438.844
560.7309, 3457.518
561.2130, 3454.333
561.6951, 3441.005
562.1772, 3410.893
562.6594, 3368.630
563.1415, 3347.064
563.6236, 3353.784
564.1057, 3372.252
564.5878, 3393.864
565.0699, 3415.213
565.5521, 3460.559
566.0342, 3533.463
566.5163, 3623.235
566.9984, 3716.484
567.4805, 3813.618
567.9626, 3934.841
568.4448, 4084.681
568.9269, 4261.122
569.4090, 4478.175
569.8911, 4724.737
570.3732, 4965.156
570.8553, 5234.298
571.3375, 5453.044
571.8196, 5543.158
572.3017, 5505.211
572.7838, 5349.919
573.2659, 5009.136
573.7480, 4600.310
574.2302, 4195.606
574.7123, 3776.373
575.1944, 3431.744
575.6765, 3201.366
576.1586, 3044.803
576.6407, 2910.662
577.1229, 2797.346
577.6050, 2707.502
578.0871, 2644.423
578.5692, 2604.484
579.0513, 2575.977
579.5334, 2559.458
580.0156, 2551.737
580.4977, 2554.881
580.9798, 2566.524
581.4619, 2572.392
581.9440, 2571.927
582.4261, 2571.096
582.9083, 2574.397
583.3904, 2581.497
583.8725, 2590.921
584.3546, 2599.769
584.8367, 2616.580
585.3188, 2654.812
585.8010, 2704.563
586.2831, 2747.689
586.7652, 2764.268
587.2473, 2786.384
587.7294, 2828.205
588.2115, 2888.953
588.6937, 2948.833
589.1758, 3003.862
589.6579, 3061.248
590.1400, 3130.031
590.6221, 3221.502
591.1042, 3276.532
591.5864, 3298.470
592.0685, 3276.577
592.5506, 3185.801
593.0327, 3028.447
593.5148, 2864.745
593.9969, 2700.673
594.4791, 2545.879
594.9612, 2411.818
595.4433, 2298.304
595.9254, 2207.108
596.4075, 2148.444
596.8896, 2105.858
597.3718, 2065.348
597.8539, 2027.014
598.3360, 1997.197
598.8181, 1980.086
599.3002, 1971.571
599.7823, 1969.820
600.2645, 1977.430
600.7466, 1984.626
601.2287, 1989.649
601.7108, 1994.489
602.1929, 2001.260
602.6750, 2010.503
603.1572, 2019.710
603.6393, 2027.080
604.1214, 2035.435
604.6035, 2052.150
605.0856, 2077.471
605.5677, 2107.803
606.0499, 2143.664
606.5320, 2183.050
607.0141, 2219.766
607.4962, 2254.151
607.9783, 2293.471
608.4604, 2343.128
608.9425, 2400.140
609.4246, 2459.066
609.9067, 2517.714
610.3889, 2586.895
610.8710, 2680.024
611.3531, 2782.739
611.8352, 2878.984
612.3173, 2942.831
612.7994, 3030.204
613.2816, 3152.908
613.7637, 3301.825
614.2458, 3454.824
614.7279, 3609.093
615.2100, 3774.230
615.6921, 3948.912
616.1743, 4137.288
616.6564, 4360.166
617.1385, 4618.980
617.6206, 4892.300
618.1027, 5178.012
618.5848, 5465.737
619.0670, 5755.080
619.5491, 6052.183
620.0312, 6292.095
620.5133, 6448.591
620.9954, 6508.962
621.4775, 6456.722
621.9597, 6255.348
622.4418, 5983.100
622.9239, 5633.706
623.4060, 5234.946
623.8881, 4838.740
624.3702, 4415.188
624.8524, 4041.630
625.3345, 3740.884
625.8166, 3506.831
626.2987, 3290.700
626.7808, 3087.858
627.2629, 2913.671
627.7451, 2785.467
628.2272, 2698.618
628.7093, 2609.166
629.1914, 2515.417
629.6735, 2426.904
630.1556, 2357.804
630.6378, 2301.091
631.1199, 2244.259
631.6020, 2181.364
632.0841, 2126.177
632.5662, 2092.003
633.0483, 2070.909
633.5305, 2050.211
634.0126, 2025.562
634.4947, 2001.959
634.9768, 1980.451
635.4589, 1960.978
635.9410, 1943.775
636.4232, 1929.637
636.9053, 1916.288
637.3874, 1903.581
637.8695, 1891.475
638.3516, 1874.002
638.8337, 1849.477
639.3159, 1827.652
639.7980, 1818.897
640.2801, 1819.486
640.7622, 1816.755
641.2443, 1808.990
641.7264, 1799.464
642.2086, 1772.732
642.6907, 1751.214
643.1728, 1772.417
643.6549, 1912.841
644.1370, 2012.724
644.6191, 1974.782
645.1013, 1851.332
645.5834, 1763.193
646.0655, 1758.322
646.5476, 1755.718
647.0297, 1737.117
647.5118, 1705.341
647.9940, 1689.030
648.4761, 1693.080
648.9582, 1697.254
649.4403, 1687.238
649.9224, 1665.522
650.4045, 1653.399
650.8867, 1651.227
651.3688, 1654.201
651.8509, 1663.072
652.3330, 1672.703
652.8151, 1673.047
653.2972, 1659.787
653.7794, 1645.460
654.2615, 1638.890
654.7436, 1635.759
655.2257, 1630.375
655.7078, 1617.612
656.1899, 1606.770
656.6721, 1600.279
657.1542, 1596.871
657.6363, 1593.198
658.1184, 1587.547
658.6005, 1585.845
659.0826, 1592.207
659.5648, 1604.182
660.0469, 1606.854
660.5290, 1599.814
661.0111, 1591.621
661.4932, 1589.136
661.9753, 1589.399
662.4575, 1586.291
662.9396, 1579.418
663.4217, 1572.147
663.9038, 1564.953
664.3859, 1559.603
664.8680, 1559.003
665.3502, 1568.936
665.8323, 1572.275
666.3144, 1559.151
666.7965, 1539.556
667.2786, 1526.283
667.7607, 1523.142
668.2429, 1518.502
668.7250, 1508.985
669.2071, 1498.278
669.6892, 1497.019
670.1713, 1505.624
670.6534, 1512.256
671.1355, 1511.000
671.6176, 1505.406
672.0997, 1502.600
672.5818, 1502.366
673.0640, 1503.298
673.5461, 1507.575
674.0282, 1510.653
674.5103, 1508.556
674.9924, 1500.911
675.4745, 1491.235
675.9567, 1478.932
676.4388, 1466.416
676.9209, 1454.645
677.4030, 1440.303
677.8851, 1436.229
678.3672, 1447.387
678.8494, 1462.317
679.3315, 1467.600
679.8136, 1462.756
680.2957, 1456.999
680.7778, 1451.238
681.2599, 1446.621
681.7421, 1445.895
682.2242, 1447.933
682.7063, 1449.553
683.1884, 1451.965
683.6705, 1450.951
684.1526, 1440.649
684.6348, 1424.006
685.1169, 1409.782
685.5990, 1398.573
686.0811, 1392.750
686.5632, 1396.733
687.0453, 1409.737
687.5275, 1414.715
688.0096, 1408.529
688.4917, 1400.079
688.9738, 1392.924
689.4559, 1387.124
689.9380, 1386.877
690.4202, 1392.986
690.9023, 1397.846
691.3844, 1392.258
691.8665, 1380.577
692.3486, 1371.172
692.8307, 1365.389
693.3129, 1361.584
693.7950, 1361.526
694.2771, 1361.558
694.7592, 1357.465
695.2413, 1344.401
695.7234, 1331.590
696.2056, 1317.106
696.6877, 1304.862
697.1698, 1303.412
697.6519, 1319.061
698.1340, 1327.759
698.6161, 1322.347
699.0983, 1307.739
699.5804, 1295.239
700.0625, 1285.224
700.5446, 1281.601
701.0267, 1293.882
701.5089, 1309.790
701.9910, 1310.094
702.4731, 1296.974
702.9552, 1284.628
703.4373, 1283.237
703.9194, 1283.085
704.4016, 1276.663
704.8837, 1261.540
705.3658, 1252.783
705.8479, 1254.842
706.3300, 1259.996
706.8121, 1264.560
707.2943, 1269.378
707.7764, 1268.324
708.2585, 1259.505
708.7406, 1250.558
709.2227, 1254.357
709.7048, 1266.139
710.1870, 1265.793
710.6691, 1245.651
711.1512, 1225.089
711.6333, 1223.397
712.1154, 1232.635
712.5975, 1240.573
713.0797, 1242.946
713.5618, 1243.754
714.0439, 1243.101
714.5260, 1241.729
715.0081, 1241.382
715.4902, 1242.482
715.9724, 1243.901
716.4545, 1245.861
716.9366, 1247.753
717.4187, 1247.464
717.9008, 1244.976
718.3829, 1240.544
718.8651, 1231.859
719.3472, 1222.333
719.8293, 1217.234
720.3114, 1216.548
720.7935, 1219.796
721.2756, 1229.603
721.7578, 1241.086
722.2399, 1253.302
722.7220, 1267.464
723.2041, 1270.056
723.6862, 1245.401
724.1683, 1221.554
724.6505, 1214.891
725.1326, 1229.901
725.6147, 1241.728
726.0968, 1250.533
726.5789, 1255.388
727.0610, 1254.301
727.5432, 1248.255
728.0253, 1239.773
728.5074, 1227.990
728.9895, 1219.918
729.4716, 1226.682
729.9537, 1240.025
730.4359, 1248.290
730.9180, 1246.156
731.4001, 1241.594
731.8822, 1233.257
732.3643, 1224.820
732.8464, 1222.370
733.3285, 1227.965
733.8106, 1236.061
734.2927, 1248.878
734.7748, 1260.972
735.2570, 1254.168
735.7391, 1229.663
736.2212, 1214.951
736.7033, 1226.972
737.1854, 1249.679
737.6675, 1263.065
738.1497, 1267.673
738.6318, 1265.945
739.1139, 1251.815
739.5960, 1238.275
740.0781, 1232.624
740.5602, 1234.882
741.0424, 1237.920
741.5245, 1244.611
742.0066, 1247.330
742.4887, 1240.392
742.9708, 1224.202
743.4529, 1219.365
743.9351, 1227.112
744.4172, 1237.125
744.8993, 1243.596
745.3814, 1246.040
745.8635, 1240.069
746.3456, 1225.092
746.8278, 1216.297
747.3099, 1231.203
747.7920, 1252.811
748.2741, 1266.892
748.7562, 1270.599
749.2383, 1268.214
749.7205, 1257.334
750.2026, 1243.349
750.6847, 1231.204
751.1668, 1222.311
751.6489, 1206.546
752.1310, 1179.615
752.6132, 1155.481
753.0953, 1157.350
753.5774, 1178.528
754.0595, 1194.597
754.5416, 1198.634
755.0237, 1200.072
755.5059, 1210.447
755.9880, 1222.477
756.4701, 1225.491
756.9522, 1203.822
757.4343, 1187.515
757.9164, 1185.018
758.3986, 1190.625
758.8807, 1195.165
759.3628, 1198.356
759.8449, 1201.291
760.3270, 1204.096
760.8091, 1206.978
761.2913, 1211.318
761.7734, 1216.598
762.2555, 1219.788
762.7376, 1219.396
763.2197, 1216.460
763.7018, 1208.465
764.1840, 1198.251
764.6661, 1194.833
765.1482, 1210.058
765.6303, 1224.166
766.1124, 1228.971
766.5945, 1225.812
767.0767, 1224.476
767.5588, 1226.437
768.0409, 1225.933
768.5230, 1217.814
769.0051, 1205.106
769.4872, 1203.015
769.9694, 1210.935
770.4515, 1218.970
770.9336, 1218.607
771.4157, 1215.873
771.8978, 1217.070
772.3799, 1222.574
772.8621, 1229.637
773.3442, 1242.888
773.8263, 1252.646
774.3084, 1251.707
774.7905, 1237.675
775.2726, 1230.931
775.7548, 1233.217
776.2369, 1238.850
776.7190, 1244.364
777.2011, 1249.768
777.6832, 1255.041
778.1653, 1260.284
778.6475, 1263.982
779.1296, 1262.464
779.6117, 1259.809
780.0938, 1262.172
780.5759, 1272.586
781.0580, 1278.284
781.5402, 1267.156
782.0223, 1255.045
782.5044, 1255.823
782.9865, 1279.264
783.4686, 1289.058
783.9507, 1281.488
784.4329, 1267.743
784.9150, 1257.158
785.3971, 1250.400
785.8792, 1252.844
786.3613, 1267.012
786.8434, 1282.007
787.3256, 1286.617
787.8077, 1285.959
788.2898, 1286.486
788.7719, 1289.460
789.2540, 1294.451
789.7361, 1304.539
790.2183, 1314.934
790.7004, 1319.303
791.1825, 1314.522
791.6646, 1314.370
792.1467, 1321.700
792.6288, 1331.316
793.1110, 1335.593
793.5930, 1335.328
794.0751, 1333.832
794.5573, 1331.675
795.0394, 1329.320
795.5215, 1326.581
796.0036, 1324.130
796.4857, 1323.009
796.9678, 1322.443
797.4500, 1324.875
797.9321, 1334.245
798.4142, 1345.181
798.8963, 1347.192
799.3784, 1338.023
799.8605, 1331.263
800.3427, 1330.562
800.8248, 1332.511
801.3069, 1331.246
801.7890, 1327.457
802.2711, 1323.192
802.7532, 1314.636
803.2354, 1311.326
803.7175, 1325.075
804.1996, 1348.071
804.6817, 1363.231
805.1638, 1360.221
805.6459, 1357.403
806.1281, 1357.710
806.6102, 1359.881
807.0923, 1360.953
807.5744, 1361.000
808.0565, 1358.614
808.5386, 1351.547
809.0208, 1344.008
809.5029, 1345.646
809.9850, 1353.107
810.4671, 1356.271
810.9492, 1341.568
811.4313, 1330.480
811.9135, 1336.867
812.3956, 1355.594
812.8777, 1367.313
813.3598, 1368.559
813.8419, 1367.531
814.3240, 1364.999
814.8062, 1362.248
815.2883, 1365.193
815.7704, 1373.235
816.2525, 1377.484
816.7346, 1371.416
817.2167, 1361.618
817.6989, 1356.128
818.1810, 1353.572
818.6631, 1349.510
819.1452, 1334.799
819.6273, 1326.057
820.1094, 1336.617
820.5916, 1358.832
821.0737, 1363.089
821.5558, 1342.660
822.0379, 1326.510
822.5200, 1326.779
823.0021, 1336.651
823.4843, 1336.724
823.9664, 1329.395
824.4485, 1326.948
824.9306, 1344.665
825.4127, 1362.234
825.8948, 1359.635
826.3770, 1342.844
826.8591, 1334.975
827.3412, 1354.567
827.8233, 1367.842
828.3054, 1364.394
828.7875, 1348.843
829.2697, 1341.543
829.7518, 1343.128
830.2339, 1344.340
830.7160, 1340.198
831.1981, 1334.101
831.6802, 1331.496
832.1624, 1331.891
832.6445, 1333.639
833.1266, 1325.438
833.6087, 1328.920
834.0908, 1357.774
834.5729, 1408.480
835.0551, 1461.961
835.5372, 1526.011
836.0193, 1573.224
836.5014, 1587.016
836.9835, 1583.568
837.4656, 1625.886
837.9478, 1704.995
838.4299, 1756.270
838.9120, 1731.706
839.3941, 1678.520
839.8762, 1620.423
840.3583, 1567.498
840.8405, 1550.240
841.3226, 1622.090
841.8047, 1679.051
842.2868, 1690.253
842.7689, 1670.194
843.2510, 1671.418
843.7332, 1699.772
844.2153, 1700.190
844.6974, 1637.875
845.1795, 1553.951
845.6616, 1528.927
846.1437, 1545.913
846.6259, 1556.528
847.1080, 1550.366
847.5901, 1520.285
848.0722, 1438.956
848.5543, 1330.767
849.0364, 1268.359
849.5186, 1271.960
850.0007, 1278.976
850.4828, 1277.123
850.9649, 1270.008
851.4470, 1265.140
851.9291, 1262.457
852.4113, 1261.313
852.8934, 1261.583
853.3755, 1263.142
853.8576, 1268.353
854.3397, 1274.407
854.8218, 1275.924
855.3040, 1266.913
855.7860, 1258.761
856.2681, 1252.801
856.7502, 1249.035
857.2324, 1247.509
857.7145, 1248.250
858.1966, 1251.140
858.6787, 1256.923
859.1608, 1263.033
859.6429, 1264.136
860.1251, 1263.155
860.6072, 1266.439
861.0893, 1282.233
861.5714, 1293.550
862.0535, 1289.686
862.5356, 1279.347
863.0178, 1275.859
863.4999, 1282.730
863.9820, 1286.597
864.4641, 1285.313
864.9462, 1282.094
865.4283, 1282.699
865.9105, 1285.392
866.3926, 1283.676
866.8747, 1274.576
867.3568, 1265.895
867.8389, 1263.025
868.3210, 1264.104
868.8032, 1267.225
869.2853, 1274.084
869.7674, 1279.611
870.2495, 1282.990
870.7316, 1286.198
871.2137, 1292.729
871.6959, 1302.084
872.1780, 1305.204
872.6601, 1300.536
873.1422, 1294.895
873.6243, 1294.096
874.1064, 1296.242
874.5886, 1299.558
875.0707, 1304.424
875.5528, 1307.468
876.0349, 1281.330
876.5170, 1276.672
876.9991, 1344.257
877.4813, 1508.081
877.9634, 1554.324
878.4455, 1467.237
878.9276, 1366.444
879.4097, 1355.427
879.8918, 1399.876
880.3740, 1460.213
880.8561, 1532.213
881.3382, 1569.176
881.8203, 1519.279
882.3024, 1452.670
882.7845, 1408.164
883.2667, 1386.946
883.7488, 1376.556
884.2309, 1379.867
884.7130, 1383.883
885.1951, 1378.111
885.6772, 1367.822
886.1594, 1370.266
886.6415, 1383.589
887.1236, 1395.680
887.6057, 1396.680
888.0878, 1396.849
888.5699, 1402.834
889.0521, 1414.195
889.5342, 1424.352
890.0163, 1432.876
890.4984, 1440.791
890.9805, 1448.558
891.4626, 1456.024
891.9448, 1462.451
892.4269, 1467.957
892.9090, 1473.646
893.3911, 1479.461
893.8732, 1486.167
894.3553, 1493.461
894.8375, 1502.127
895.3196, 1513.950
895.8017, 1534.621
896.2838, 1550.900
896.7659, 1560.321
897.2480, 1565.298
897.7302, 1573.363
898.2123, 1583.347
898.6944, 1579.028
899.1765, 1549.553
899.6586, 1522.757
900.1407, 1530.639
900.6229, 1559.033
901.1050, 1587.781
901.5871, 1617.988
902.0692, 1638.050
902.5513, 1642.589
903.0334, 1641.750
903.5156, 1646.258
903.9977, 1656.460
904.4798, 1662.519
904.9619, 1662.035
905.4440, 1667.373
905.9261, 1703.912
906.4083, 1747.720
906.8904, 1762.465
907.3725, 1735.289
907.8546, 1720.477
908.3367, 1745.461
908.8188, 1778.707
909.3010, 1801.495
909.7831, 1812.849
910.2652, 1829.475
910.7473, 1851.712
911.2294, 1876.226
911.7115, 1903.670
912.1937, 1930.587
912.6758, 1950.690
913.1579, 1964.326
913.6400, 1977.987
914.1221, 1995.981
914.6042, 2012.801
915.0864, 2024.312
915.5685, 2032.178
916.0506, 2047.810
916.5327, 2072.721
917.0148, 2096.272
917.4969, 2113.210
917.9790, 2127.611
918.4611, 2143.786
918.9432, 2163.245
919.4254, 2190.069
919.9075, 2237.018
920.3896, 2279.506
920.8717, 2302.871
921.3538, 2317.502
921.8359, 2341.381
922.3181, 2376.588
922.8002, 2412.435
923.2823, 2447.762
923.7644, 2481.330
924.2465, 2509.169
924.7286, 2533.532
925.2108, 2558.912
925.6929, 2587.544
926.1750, 2614.189
926.6571, 2634.207
927.1392, 2652.921
927.6213, 2675.955
928.1035, 2705.238
928.5856, 2729.976
929.0677, 2748.971
929.5498, 2768.524
930.0319, 2795.275
930.5140, 2826.663
930.9962, 2859.313
931.4783, 2893.118
931.9604, 2923.248
932.4425, 2951.125
932.9246, 2971.838
933.4067, 2975.555
933.8889, 2964.201
934.3710, 2982.609
934.8531, 3039.451
935.3352, 3086.552
935.8173, 3093.293
936.2994, 3078.719
936.7816, 3079.695
937.2637, 3092.992
937.7458, 3107.558
938.2279, 3109.427
938.7100, 3120.988
939.1921, 3159.824
939.6743, 3212.785
940.1564, 3252.427
940.6385, 3274.472
941.1206, 3302.964
941.6027, 3347.169
942.0848, 3388.757
942.5670, 3388.449
943.0491, 3367.731
943.5312, 3371.770
944.0133, 3420.523
944.4954, 3473.750
944.9775, 3514.813
945.4597, 3553.492
945.9418, 3597.046
946.4239, 3644.691
946.9060, 3702.055
947.3881, 3770.240
947.8702, 3843.723
948.3524, 3916.707
948.8345, 3992.208
949.3166, 4073.047
949.7987, 4160.460
950.2808, 4260.237
950.7629, 4377.880
951.2451, 4504.749
951.7272, 4635.382
952.2093, 4770.659
952.6914, 4914.554
953.1735, 5064.885
953.6556, 5245.039
954.1378, 5471.566
954.6199, 5724.002
955.1020, 5967.660
955.5841, 6215.575
956.0662, 6498.664
956.5483, 6809.147
957.0305, 7181.996
957.5126, 7633.992
957.9947, 8146.223
958.4768, 8688.643
958.9589, 9260.926
959.4410, 9915.410
959.9232, 10666.49
960.4053, 11479.64
960.8874, 12330.98
961.3695, 13230.22
961.8516, 14175.45
962.3337, 15153.29
962.8159, 16221.70
963.2980, 17392.78
963.7801, 18655.21
964.2622, 20009.00
964.7443, 21461.27
965.2264, 23026.95
965.7086, 24707.04
966.1907, 26552.42
966.6728, 28586.73
967.1549, 30836.13
967.6370, 33270.02
968.1191, 35927.09
968.6013, 38877.63
969.0834, 42125.94
969.5655, 45735.15
970.0476, 49779.86
970.5297, 54205.70
971.0118, 59264.48
971.4940, 64776.05
971.9761, 69976.82
972.4582, 75241.96
972.9403, 78729.86
973.4224, 79500.63
973.9045, 77573.85
974.3867, 72775.48
974.8688, 63614.21
975.3509, 54663.58
975.8330, 45719.15
976.3151, 37481.46
976.7972, 30611.18
977.2794, 25096.03
977.7615, 20713.46
978.2436, 17452.89
978.7257, 14891.50
979.2078, 12986.47
979.6899, 11516.11
980.1720, 10406.05
980.6541, 9637.058
981.1362, 9045.521
981.6183, 8648.540
982.1005, 8360.400
982.5826, 8160.024
983.0647, 8039.364
983.5468, 7995.292
984.0289, 8022.108
984.5110, 8106.262
984.9932, 8258.050
985.4753, 8444.932
985.9574, 8633.616
986.4395, 8870.171
986.9216, 9214.222
987.4037, 9676.954
987.8859, 10146.07
988.3680, 10606.43
988.8501, 11100.54
989.3322, 11695.21
989.8143, 12329.85
990.2964, 12950.45
990.7786, 13546.93
991.2607, 14073.36
991.7428, 14571.01
992.2249, 14924.70
992.7070, 15110.66
993.1891, 15112.54
993.6713, 14837.56
994.1534, 14296.57
994.6355, 13581.35
995.1176, 12664.64
995.5997, 11668.54
996.0818, 10626.54
996.5640, 9586.192
997.0461, 8643.201
997.5282, 7815.306
998.0103, 7081.750
998.4924, 6447.071
998.9745, 5890.710
999.4567, 5390.749
999.9388, 4943.831
1000.421, 4556.856
1000.903, 4228.823
1001.385, 3948.886
1001.867, 3732.573
1002.349, 3547.314
1002.831, 3375.850
1003.314, 3217.058
1003.796, 3079.530
1004.278, 2963.701
1004.760, 2859.435
1005.242, 2760.141
1005.724, 2670.015
1006.206, 2595.595
1006.688, 2534.510
1007.171, 2478.707
1007.653, 2419.879
1008.135, 2373.876
1008.617, 2347.874
1009.099, 2329.678
1009.581, 2303.312
1010.063, 2268.883
1010.545, 2237.481
1011.027, 2210.153
1011.510, 2186.383
1011.992, 2164.871
1012.474, 2147.687
1012.956, 2137.287
1013.438, 2134.260
1013.920, 2133.449
1014.402, 2133.226
1014.884, 2138.144
1015.367, 2150.727
1015.849, 2169.410
1016.331, 2189.441
1016.813, 2211.877
1017.295, 2240.486
1017.777, 2281.236
1018.259, 2322.749
1018.741, 2359.007
1019.223, 2394.123
1019.706, 2432.975
1020.188, 2474.778
1020.670, 2523.660
1021.152, 2579.721
1021.634, 2644.533
1022.116, 2721.152
1022.598, 2805.762
1023.080, 2894.016
1023.563, 2985.789
1024.045, 3078.681
1024.527, 3165.407
1025.009, 3263.929
1025.491, 3380.697
1025.973, 3512.462
1026.455, 3658.149
1026.937, 3811.693
1027.419, 3940.195
1027.901, 4047.521
1028.384, 4094.947
1028.866, 4043.655
1029.348, 3920.675
1029.830, 3756.661
1030.312, 3540.002
1030.794, 3330.819
1031.276, 3127.350
1031.758, 2941.838
1032.241, 2788.520
1032.723, 2662.004
1033.205, 2552.216
1033.687, 2459.258
1034.169, 2381.300
1034.651, 2324.741
1035.133, 2276.927
1035.615, 2231.641
1036.098, 2192.269
1036.580, 2173.359
1037.062, 2172.993
1037.544, 2163.993
1038.026, 2133.963
1038.508, 2104.385
1038.990, 2097.186
1039.472, 2099.605
1039.954, 2095.707
1040.437, 2078.421
1040.919, 2069.743
1041.401, 2070.328
1041.883, 2077.618
1042.365, 2087.932
1042.847, 2104.236
1043.329, 2139.401
1043.811, 2189.366
1044.293, 2232.687
1044.776, 2242.670
1045.258, 2264.836
1045.740, 2320.985
1046.222, 2394.198
1046.704, 2449.131
1047.186, 2485.747
1047.668, 2545.248
1048.150, 2636.863
1048.633, 2743.292
1049.115, 2847.447
1049.597, 2956.998
1050.079, 3081.003
1050.561, 3222.940
1051.043, 3364.538
1051.525, 3495.623
1052.007, 3645.773
1052.490, 3826.334
1052.972, 4038.325
1053.454, 4296.217
1053.936, 4588.796
1054.418, 4882.103
1054.900, 5149.747
1055.382, 5425.494
1055.864, 5725.269
1056.346, 6033.037
1056.828, 6373.939
1057.311, 6751.615
1057.793, 6889.125
1058.275, 6757.441
1058.757, 6504.598
1059.239, 6193.091
1059.721, 5861.016
1060.203, 5532.503
1060.685, 5212.063
1061.168, 4916.425
1061.650, 4640.631
1062.132, 4409.824
1062.614, 4236.241
1063.096, 4108.777
1063.578, 4009.598
1064.060, 3942.455
1064.542, 3914.896
1065.025, 3935.756
1065.507, 3980.656
1065.989, 4050.562
1066.471, 4133.820
1066.953, 4224.535
1067.435, 4323.061
1067.917, 4427.653
1068.399, 4538.839
1068.881, 4649.917
1069.364, 4767.875
1069.846, 4875.360
1070.328, 4949.700
1070.810, 5005.014
1071.292, 5078.933
1071.774, 5177.607
1072.256, 5278.957
1072.738, 5380.268
1073.220, 5479.566
1073.703, 5575.786
1074.185, 5665.084
1074.667, 5747.965
1075.149, 5827.764
1075.631, 5855.127
1076.113, 5821.982
1076.595, 5726.231
1077.077, 5558.254
1077.559, 5330.741
1078.042, 5075.358
1078.524, 4797.899
1079.006, 4511.950
1079.488, 4188.043
1079.970, 3926.111
1080.452, 3835.247
1080.934, 3801.574
1081.416, 3694.243
1081.899, 3501.331
1082.381, 3286.407
1082.863, 3045.544
1083.345, 2835.014
1083.827, 2707.618
1084.309, 2625.360
1084.791, 2553.048
1085.273, 2488.826
1085.755, 2430.690
1086.238, 2379.162
1086.720, 2330.846
1087.202, 2284.533
1087.684, 2242.857
1088.166, 2212.210
1088.648, 2188.409
1089.130, 2158.516
1089.612, 2119.341
1090.094, 2088.016
1090.577, 2076.568
1091.059, 2070.641
1091.541, 2067.371
1092.023, 2063.698
1092.505, 2035.200
1092.987, 1986.437
1093.469, 1957.932
1093.951, 1976.670
1094.434, 2001.320
1094.916, 2004.197
1095.398, 1994.727
1095.880, 1984.144
1096.362, 1971.435
1096.844, 1963.273
1097.326, 1959.620
1097.808, 1960.310
1098.291, 1968.539
1098.773, 1978.903
1099.255, 1984.929
1099.737, 1986.856
1100.219, 1985.709
1100.701, 1976.241
1101.183, 1973.434
1101.665, 1981.135
1102.147, 1992.709
1102.630, 2001.599
1103.112, 2006.203
1103.594, 1998.441
1104.076, 1976.367
1104.558, 1963.178
1105.040, 1980.978
1105.522, 1997.774
1106.004, 1997.610
1106.486, 1985.735
1106.969, 1986.214
1107.451, 1997.048
1107.933, 2000.388
1108.415, 1986.794
1108.897, 1971.883
1109.379, 1966.640
1109.861, 1966.535
1110.343, 1967.171
1110.826, 1968.667
1111.308, 1967.819
1111.790, 1964.058
1112.272, 1963.385
1112.754, 1978.300
1113.236, 1991.747
1113.718, 1975.596
1114.200, 1942.452
1114.682, 1926.042
1115.165, 1943.755
1115.647, 1955.574
1116.129, 1957.943
1116.611, 1954.586
1117.093, 1946.836
1117.575, 1937.352
1118.057, 1932.425
1118.539, 1932.167
1119.021, 1930.555
1119.504, 1920.205
1119.986, 1915.223
1120.468, 1922.037
1120.950, 1934.193
1121.432, 1937.337
1121.914, 1932.755
1122.396, 1925.313
1122.878, 1915.357
1123.361, 1906.605
1123.843, 1900.080
1124.325, 1896.930
1124.807, 1900.432
1125.289, 1909.179
1125.771, 1901.564
1126.253, 1878.114
1126.735, 1859.662
1127.218, 1856.888
1127.700, 1860.735
1128.182, 1868.785
1128.664, 1876.366
1129.146, 1875.660
1129.628, 1861.004
1130.110, 1858.465
1130.592, 1870.711
1131.074, 1878.658
1131.557, 1861.876
1132.039, 1836.324
1132.521, 1823.496
1133.003, 1820.038
1133.485, 1813.269
1133.967, 1795.964
1134.449, 1785.405
1134.931, 1785.159
1135.413, 1788.069
1135.896, 1785.149
1136.378, 1779.089
1136.860, 1776.657
1137.342, 1778.249
1137.824, 1773.877
1138.306, 1751.858
1138.788, 1733.323
1139.270, 1723.271
1139.752, 1720.717
1140.235, 1728.533
1140.717, 1741.985
1141.199, 1742.772
1141.681, 1722.751
1142.163, 1707.208
1142.645, 1714.620
1143.127, 1724.993
1143.609, 1727.134
1144.092, 1721.744
1144.574, 1711.289
1145.056, 1696.620
1145.538, 1686.271
1146.020, 1687.011
1146.502, 1688.212
1146.984, 1681.569
1147.466, 1672.666
1147.948, 1667.652
1148.431, 1666.998
1148.913, 1669.118
1149.395, 1674.245
1149.877, 1676.788
1150.359, 1670.067
1150.841, 1661.609
1151.323, 1655.585
1151.805, 1653.102
1152.287, 1657.240
1152.770, 1671.294
1153.252, 1678.966
1153.734, 1677.817
1154.216, 1675.658
1154.698, 1682.122
1155.180, 1690.806
1155.662, 1692.750
1156.144, 1688.578
1156.627, 1689.097
1157.109, 1698.357
1157.591, 1704.810
1158.073, 1706.085
1158.555, 1703.736
1159.037, 1700.547
1159.519, 1695.067
1160.001, 1682.026
1160.484, 1659.187
1160.966, 1647.549
1161.448, 1659.353
1161.930, 1667.385
1162.412, 1660.488
1162.894, 1645.355
1163.376, 1636.225
1163.858, 1631.508
1164.340, 1627.163
1164.823, 1621.367
1165.305, 1618.129
1165.787, 1621.925
1166.269, 1624.195
1166.751, 1619.635
1167.233, 1609.754
1167.715, 1599.077
1168.197, 1588.578
1168.679, 1582.704
1169.162, 1591.240
1169.644, 1593.572
1170.126, 1577.295
1170.608, 1556.270
1171.090, 1540.624
1171.572, 1530.401
1172.054, 1527.057
1172.536, 1529.817
1173.019, 1530.388
1173.501, 1521.387
1173.983, 1511.677
1174.465, 1505.062
1174.947, 1500.657
1175.429, 1497.741
1175.911, 1496.336
1176.393, 1494.282
1176.875, 1491.478
1177.358, 1486.241
1177.840, 1471.448
1178.322, 1459.466
1178.804, 1463.424
1179.286, 1476.278
1179.768, 1476.348
1180.250, 1462.927
1180.732, 1455.114
1181.214, 1457.121
1181.697, 1460.229
1182.179, 1454.630
1182.661, 1448.377
1183.143, 1450.271
1183.625, 1459.148
1184.107, 1461.061
1184.589, 1455.247
1185.071, 1449.936
1185.554, 1447.041
1186.036, 1447.056
1186.518, 1454.319
1187.000, 1462.514
1187.482, 1463.393
1187.964, 1455.640
1188.446, 1452.149
1188.928, 1453.800
1189.411, 1453.285
1189.893, 1445.093
1190.375, 1436.981
1190.857, 1439.932
1191.339, 1448.249
1191.821, 1453.990
1192.303, 1455.869
1192.785, 1455.544
1193.267, 1452.332
1193.750, 1450.367
1194.232, 1452.734
1194.714, 1457.307
1195.196, 1462.844
1195.678, 1468.200
1196.160, 1470.985
1196.642, 1470.687
1197.124, 1467.270
1197.606, 1459.487
1198.089, 1453.633
1198.571, 1456.988
1199.053, 1464.023
1199.535, 1467.894
1200.017, 1468.904
1200.499, 1468.685
1200.981, 1466.616
1201.463, 1464.985
1201.945, 1463.327
1202.428, 1464.535
1202.910, 1475.062
1203.392, 1488.281
1203.874, 1492.435
1204.356, 1489.089
1204.838, 1493.698
1205.320, 1518.119
1205.802, 1527.360
1206.285, 1511.897
1206.767, 1490.946
1207.249, 1488.747
1207.731, 1497.187
1208.213, 1504.896
1208.695, 1510.687
1209.177, 1518.367
1209.659, 1531.703
1210.141, 1538.618
1210.624, 1534.347
1211.106, 1526.354
1211.588, 1526.048
1212.070, 1529.417
1212.552, 1529.917
1213.034, 1526.226
1213.516, 1523.059
1213.998, 1519.962
1214.480, 1519.565
1214.963, 1522.585
1215.445, 1529.133
1215.927, 1542.475
1216.409, 1558.353
1216.891, 1569.504
1217.373, 1573.737
1217.855, 1575.979
1218.337, 1575.690
1218.820, 1576.518
1219.302, 1580.994
1219.784, 1586.508
1220.266, 1586.845
1220.748, 1585.058
1221.230, 1586.802
1221.712, 1595.102
1222.194, 1602.465
1222.677, 1607.683
1223.159, 1613.436
1223.641, 1612.437
1224.123, 1621.053
1224.605, 1698.274
1225.087, 1801.621
1225.569, 1842.182
1226.051, 1738.523
1226.533, 1677.565
1227.016, 1671.562
1227.498, 1679.155
1227.980, 1668.540
1228.462, 1653.500
1228.944, 1660.008
1229.426, 1680.149
1229.908, 1694.572
1230.390, 1693.172
1230.872, 1697.332
1231.355, 1709.371
1231.837, 1720.600
1232.319, 1719.853
1232.801, 1716.276
1233.283, 1725.537
1233.765, 1743.224
1234.247, 1754.235
1234.729, 1752.694
1235.212, 1752.291
1235.694, 1753.608
1236.176, 1757.546
1236.658, 1768.600
1237.140, 1780.087
1237.622, 1780.448
1238.104, 1773.075
1238.586, 1775.261
1239.068, 1794.152
1239.551, 1801.405
1240.033, 1791.631
1240.515, 1781.085
1240.997, 1788.249
1241.479, 1801.537
1241.961, 1809.643
1242.443, 1812.123
1242.925, 1811.575
1243.407, 1807.728
1243.890, 1802.770
1244.372, 1796.730
1244.854, 1791.510
1245.336, 1790.391
1245.818, 1790.075
1246.300, 1784.822
1246.782, 1776.602
1247.264, 1780.541
1247.747, 1799.160
1248.229, 1810.996
1248.711, 1811.738
1249.193, 1804.974
1249.675, 1786.740
1250.157, 1768.483
1250.639, 1762.542
1251.121, 1766.526
1251.604, 1765.084
1252.086, 1757.981
1252.568, 1752.049
1253.050, 1748.825
1253.532, 1747.793
1254.014, 1750.108
1254.496, 1753.189
1254.978, 1755.584
1255.460, 1756.930
1255.943, 1754.674
1256.425, 1749.021
1256.907, 1745.143
1257.389, 1744.489
1257.871, 1744.843
1258.353, 1748.339
1258.835, 1748.327
1259.317, 1738.787
1259.799, 1722.518
1260.281, 1712.509
1260.764, 1708.302
1261.246, 1707.936
1261.728, 1711.900
1262.210, 1715.918
1262.692, 1718.670
1263.174, 1720.094
1263.656, 1721.702
1264.138, 1721.500
1264.621, 1707.125
1265.103, 1683.583
1265.585, 1670.240
1266.067, 1676.950
1266.549, 1681.758
1267.031, 1677.686
1267.513, 1668.198
1267.995, 1650.169
1268.478, 1630.821
1268.960, 1636.500
1269.442, 1658.012
1269.924, 1670.638
1270.406, 1664.865
1270.888, 1655.705
1271.370, 1645.370
1271.852, 1632.828
1272.334, 1614.514
1272.817, 1596.525
1273.299, 1594.755
1273.781, 1602.243
1274.263, 1604.953
1274.745, 1597.384
1275.227, 1589.210
1275.709, 1580.085
1276.191, 1573.086
1276.673, 1571.745
1277.156, 1571.386
1277.638, 1566.324
1278.120, 1556.813
1278.602, 1541.606
1279.084, 1515.976
1279.566, 1502.569
1280.048, 1502.385
1280.530, 1507.004
1281.013, 1514.746
1281.495, 1521.237
1281.977, 1523.725
1282.459, 1521.189
1282.941, 1511.270
1283.423, 1492.964
1283.905, 1474.786
1284.387, 1456.544
1284.870, 1445.530
1285.352, 1451.944
1285.834, 1459.126
1286.316, 1456.723
1286.798, 1448.319
1287.280, 1437.337
1287.762, 1423.764
1288.244, 1415.313
1288.726, 1411.453
##END=



