##NAMES=Montmorillonite
##RRUFFID=R110053
##IDEAL CHEMISTRY=(Na,Ca)_0.3_(Al,Mg)_2_Si_4_O_10_(OH)_2_&#183;nH_2_O
##LOCALITY=Chambers, Arizona, USA
##OWNER=RRUFF
##SOURCE=Ward's Natural Science Establishment, Inc.
##DESCRIPTION=Tan colored consolidated powder
##STATUS=The identification of this mineral has been confirmed only by X-ray diffraction
##URL=rruff.info/R110053
150.4218, 1814.770
150.9039, 1814.755
151.3860, 1816.082
151.8681, 1818.436
152.3502, 1821.605
152.8323, 1823.635
153.3145, 1822.940
153.7966, 1822.556
154.2787, 1823.034
154.7608, 1824.284
155.2429, 1826.140
155.7250, 1828.648
156.2072, 1831.955
156.6893, 1833.275
157.1714, 1831.126
157.6535, 1828.764
158.1356, 1827.321
158.6177, 1826.893
159.0999, 1827.196
159.5820, 1828.131
160.0641, 1829.871
160.5462, 1830.672
161.0283, 1830.489
161.5104, 1829.477
161.9926, 1826.750
162.4747, 1822.275
162.9568, 1819.010
163.4389, 1821.134
163.9210, 1828.337
164.4031, 1834.192
164.8853, 1836.363
165.3674, 1836.947
165.8495, 1839.531
166.3316, 1845.578
166.8137, 1850.958
167.2958, 1850.688
167.7780, 1846.138
168.2601, 1842.189
168.7422, 1841.515
169.2243, 1843.417
169.7064, 1845.099
170.1885, 1846.084
170.6707, 1847.061
171.1528, 1848.003
171.6349, 1849.137
172.1170, 1851.328
172.5991, 1856.517
173.0812, 1865.010
173.5634, 1869.945
174.0455, 1868.284
174.5276, 1864.807
175.0097, 1860.311
175.4918, 1855.409
175.9739, 1851.336
176.4561, 1849.682
176.9382, 1851.242
177.4203, 1852.535
177.9024, 1854.019
178.3845, 1854.920
178.8666, 1854.262
179.3488, 1852.221
179.8309, 1850.119
180.3130, 1849.814
180.7951, 1852.157
181.2772, 1854.565
181.7593, 1857.357
182.2415, 1860.005
182.7236, 1861.925
183.2057, 1863.045
183.6878, 1863.977
184.1699, 1865.635
184.6520, 1868.302
185.1342, 1871.341
185.6163, 1875.764
186.0984, 1880.138
186.5805, 1882.231
187.0626, 1881.221
187.5447, 1879.766
188.0269, 1883.152
188.5090, 1892.883
188.9911, 1900.504
189.4732, 1902.203
189.9553, 1900.867
190.4374, 1901.848
190.9196, 1907.378
191.4017, 1914.123
191.8838, 1916.767
192.3659, 1915.044
192.8480, 1913.969
193.3301, 1916.487
193.8123, 1921.659
194.2944, 1926.000
194.7765, 1928.256
195.2586, 1929.803
195.7407, 1932.654
196.2228, 1936.842
196.7050, 1939.943
197.1871, 1939.694
197.6692, 1936.248
198.1513, 1933.081
198.6334, 1931.920
199.1155, 1930.269
199.5977, 1925.945
200.0798, 1918.972
200.5619, 1911.848
201.0440, 1907.265
201.5261, 1905.678
202.0082, 1903.470
202.4904, 1900.605
202.9725, 1896.667
203.4546, 1891.140
203.9367, 1884.060
204.4188, 1876.063
204.9009, 1867.443
205.3831, 1857.162
205.8652, 1849.634
206.3473, 1847.775
206.8294, 1846.378
207.3115, 1842.572
207.7936, 1835.872
208.2758, 1827.495
208.7579, 1818.775
209.2400, 1808.034
209.7221, 1801.025
210.2042, 1800.052
210.6863, 1800.510
211.1685, 1799.652
211.6506, 1796.779
212.1327, 1792.475
212.6148, 1787.310
213.0969, 1779.647
213.5790, 1775.024
214.0612, 1776.118
214.5433, 1778.365
215.0254, 1778.040
215.5075, 1774.316
215.9896, 1769.027
216.4718, 1764.699
216.9539, 1761.594
217.4360, 1759.026
217.9181, 1757.394
218.4002, 1756.083
218.8823, 1754.194
219.3645, 1751.507
219.8466, 1749.119
220.3287, 1748.721
220.8108, 1750.661
221.2929, 1752.551
221.7750, 1754.711
222.2572, 1756.422
222.7393, 1756.688
223.2214, 1755.235
223.7035, 1752.767
224.1856, 1749.588
224.6677, 1745.751
225.1499, 1742.878
225.6320, 1741.956
226.1141, 1742.120
226.5962, 1741.946
227.0783, 1741.139
227.5604, 1740.200
228.0426, 1739.598
228.5247, 1739.277
229.0068, 1739.082
229.4889, 1738.989
229.9710, 1738.981
230.4531, 1739.299
230.9353, 1740.577
231.4174, 1740.809
231.8995, 1737.466
232.3816, 1731.782
232.8637, 1727.156
233.3458, 1725.135
233.8280, 1725.417
234.3101, 1727.490
234.7922, 1733.021
235.2743, 1737.391
235.7564, 1736.936
236.2385, 1733.581
236.7207, 1731.266
237.2028, 1733.030
237.6849, 1737.667
238.1670, 1739.975
238.6491, 1739.001
239.1312, 1736.877
239.6134, 1733.931
240.0955, 1730.695
240.5776, 1728.048
241.0597, 1726.705
241.5418, 1726.324
242.0239, 1725.217
242.5061, 1722.546
242.9882, 1720.291
243.4703, 1718.443
243.9524, 1717.435
244.4345, 1718.294
244.9166, 1722.109
245.3988, 1727.673
245.8809, 1729.030
246.3630, 1722.050
246.8451, 1715.940
247.3272, 1712.695
247.8093, 1711.332
248.2915, 1710.635
248.7736, 1709.986
249.2557, 1709.365
249.7378, 1708.688
250.2199, 1707.756
250.7020, 1707.029
251.1842, 1706.340
251.6663, 1705.961
252.1484, 1706.500
252.6305, 1708.286
253.1126, 1710.604
253.5947, 1711.195
254.0769, 1708.062
254.5590, 1705.482
255.0411, 1703.382
255.5232, 1702.087
256.0053, 1702.509
256.4874, 1705.013
256.9695, 1708.137
257.4517, 1708.341
257.9338, 1700.378
258.4159, 1695.743
258.8980, 1697.358
259.3801, 1701.089
259.8622, 1702.369
260.3444, 1699.649
260.8265, 1695.017
261.3086, 1692.413
261.7907, 1693.523
262.2728, 1694.123
262.7549, 1693.496
263.2371, 1692.646
263.7192, 1692.960
264.2013, 1694.747
264.6834, 1696.525
265.1655, 1695.912
265.6476, 1691.245
266.1298, 1688.224
266.6119, 1687.385
267.0940, 1687.994
267.5761, 1690.028
268.0582, 1693.378
268.5403, 1696.479
269.0225, 1697.427
269.5046, 1695.656
269.9867, 1693.897
270.4688, 1691.539
270.9509, 1689.646
271.4330, 1689.809
271.9152, 1692.058
272.3973, 1693.815
272.8794, 1692.003
273.3615, 1686.335
273.8436, 1683.839
274.3257, 1686.964
274.8079, 1691.627
275.2900, 1695.154
275.7721, 1697.310
276.2542, 1697.971
276.7363, 1696.317
277.2184, 1692.837
277.7006, 1691.570
278.1827, 1695.021
278.6648, 1698.706
279.1469, 1699.133
279.6290, 1696.618
280.1111, 1693.961
280.5933, 1692.545
281.0754, 1692.418
281.5575, 1693.165
282.0396, 1695.389
282.5217, 1697.745
283.0038, 1699.647
283.4860, 1701.064
283.9681, 1701.708
284.4502, 1700.962
284.9323, 1699.783
285.4144, 1700.216
285.8965, 1702.906
286.3787, 1705.559
286.8608, 1707.596
287.3429, 1708.724
287.8250, 1707.360
288.3071, 1701.538
288.7892, 1695.009
289.2714, 1694.008
289.7535, 1699.316
290.2356, 1703.107
290.7177, 1700.619
291.1998, 1693.810
291.6819, 1687.867
292.1641, 1684.102
292.6462, 1681.071
293.1283, 1676.580
293.6104, 1670.885
294.0925, 1666.846
294.5746, 1667.361
295.0568, 1670.021
295.5389, 1669.553
296.0210, 1664.464
296.5031, 1658.902
296.9852, 1656.771
297.4673, 1657.052
297.9495, 1657.208
298.4316, 1656.287
298.9137, 1654.831
299.3958, 1653.755
299.8779, 1653.220
300.3600, 1652.368
300.8422, 1650.142
301.3243, 1647.274
301.8064, 1645.081
302.2885, 1644.219
302.7706, 1643.765
303.2527, 1642.891
303.7349, 1641.625
304.2170, 1639.393
304.6991, 1634.331
305.1812, 1628.957
305.6633, 1626.922
306.1454, 1629.549
306.6276, 1633.392
307.1097, 1635.825
307.5918, 1636.879
308.0739, 1637.081
308.5560, 1636.463
309.0381, 1635.076
309.5203, 1632.854
310.0024, 1629.680
310.4845, 1626.759
310.9666, 1624.691
311.4487, 1623.494
311.9308, 1623.548
312.4130, 1625.808
312.8951, 1628.033
313.3772, 1627.682
313.8593, 1625.176
314.3414, 1623.318
314.8235, 1624.328
315.3057, 1626.978
315.7878, 1628.110
316.2699, 1627.295
316.7520, 1625.336
317.2341, 1621.701
317.7162, 1617.369
318.1984, 1614.629
318.6805, 1614.980
319.1626, 1617.100
319.6447, 1619.318
320.1268, 1621.845
320.6089, 1623.416
321.0911, 1622.345
321.5732, 1620.121
322.0553, 1618.765
322.5374, 1618.824
323.0195, 1619.615
323.5016, 1621.021
323.9838, 1623.069
324.4659, 1623.514
324.9480, 1619.674
325.4301, 1615.117
325.9122, 1614.690
326.3943, 1619.420
326.8765, 1624.147
327.3586, 1624.715
327.8407, 1621.849
328.3228, 1619.569
328.8049, 1618.920
329.2870, 1618.957
329.7692, 1618.569
330.2513, 1617.815
330.7334, 1617.493
331.2155, 1618.954
331.6976, 1621.038
332.1797, 1620.423
332.6619, 1615.693
333.1440, 1611.280
333.6261, 1612.096
334.1082, 1616.139
334.5903, 1618.720
335.0724, 1618.065
335.5546, 1615.379
336.0367, 1611.266
336.5188, 1605.454
337.0009, 1601.487
337.4830, 1602.979
337.9651, 1607.246
338.4473, 1609.023
338.9294, 1606.326
339.4115, 1603.313
339.8936, 1603.930
340.3758, 1607.625
340.8579, 1610.247
341.3400, 1610.373
341.8221, 1608.460
342.3042, 1604.902
342.7863, 1599.128
343.2685, 1594.743
343.7506, 1594.250
344.2327, 1596.417
344.7148, 1598.649
345.1969, 1600.785
345.6790, 1601.835
346.1612, 1598.905
346.6433, 1592.770
347.1254, 1589.834
347.6075, 1594.652
348.0896, 1602.156
348.5717, 1606.041
349.0539, 1605.722
349.5360, 1604.033
350.0181, 1603.001
350.5002, 1602.257
350.9823, 1600.310
351.4644, 1594.843
351.9466, 1590.082
352.4287, 1589.738
352.9108, 1592.944
353.3929, 1595.344
353.8750, 1594.356
354.3571, 1591.756
354.8393, 1592.281
355.3214, 1597.720
355.8035, 1601.821
356.2856, 1601.765
356.7677, 1598.970
357.2498, 1595.431
357.7320, 1591.447
358.2141, 1588.321
358.6962, 1588.475
359.1783, 1592.713
359.6604, 1595.092
360.1425, 1592.883
360.6247, 1589.815
361.1068, 1589.701
361.5889, 1592.764
362.0710, 1596.360
362.5531, 1598.478
363.0352, 1599.051
363.5174, 1598.711
363.9995, 1597.544
364.4816, 1595.491
364.9637, 1591.632
365.4458, 1586.803
365.9279, 1582.882
366.4101, 1580.745
366.8922, 1580.397
367.3743, 1582.069
367.8564, 1587.670
368.3385, 1592.430
368.8206, 1596.401
369.3028, 1598.937
369.7849, 1598.706
370.2670, 1595.458
370.7491, 1591.043
371.2312, 1587.992
371.7133, 1586.809
372.1955, 1585.653
372.6776, 1584.219
373.1597, 1583.064
373.6418, 1582.404
374.1239, 1582.318
374.6060, 1583.054
375.0882, 1585.035
375.5703, 1588.170
376.0524, 1589.361
376.5345, 1586.600
377.0166, 1584.267
377.4987, 1583.904
377.9809, 1584.433
378.4630, 1583.909
378.9451, 1581.423
379.4272, 1578.265
379.9093, 1577.633
380.3914, 1581.789
380.8736, 1584.766
381.3557, 1586.457
381.8378, 1586.963
382.3199, 1585.979
382.8020, 1583.682
383.2841, 1580.926
383.7663, 1578.354
384.2484, 1575.655
384.7305, 1575.234
385.2126, 1580.761
385.6947, 1585.063
386.1768, 1584.731
386.6590, 1581.475
387.1411, 1579.081
387.6232, 1580.070
388.1053, 1583.185
388.5874, 1583.485
389.0695, 1577.974
389.5517, 1575.420
390.0338, 1580.064
390.5159, 1586.906
390.9980, 1591.446
391.4801, 1592.442
391.9622, 1591.726
392.4444, 1591.430
392.9265, 1591.631
393.4086, 1591.547
393.8907, 1590.593
394.3728, 1589.826
394.8549, 1590.068
395.3371, 1591.095
395.8192, 1591.982
396.3013, 1592.021
396.7834, 1591.475
397.2655, 1590.935
397.7477, 1589.896
398.2298, 1590.195
398.7119, 1595.156
399.1940, 1601.317
399.6761, 1603.662
400.1582, 1599.681
400.6404, 1594.375
401.1225, 1593.071
401.6046, 1595.518
402.0867, 1597.828
402.5688, 1599.419
403.0509, 1599.645
403.5331, 1596.754
404.0152, 1590.588
404.4973, 1587.113
404.9794, 1590.830
405.4615, 1598.395
405.9436, 1604.447
406.4258, 1608.407
406.9079, 1610.295
407.3900, 1609.070
407.8721, 1605.465
408.3542, 1603.447
408.8363, 1604.886
409.3185, 1606.562
409.8006, 1605.915
410.2827, 1603.659
410.7648, 1602.430
411.2469, 1603.578
411.7290, 1606.031
412.2112, 1607.359
412.6933, 1607.266
413.1754, 1607.004
413.6575, 1606.351
414.1396, 1605.855
414.6217, 1606.528
415.1039, 1608.380
415.5860, 1609.797
416.0681, 1608.986
416.5502, 1605.624
417.0323, 1603.551
417.5144, 1602.458
417.9966, 1602.709
418.4787, 1605.192
418.9608, 1609.044
419.4429, 1613.042
419.9250, 1616.631
420.4071, 1619.298
420.8893, 1619.393
421.3714, 1612.805
421.8535, 1610.015
422.3356, 1615.356
422.8177, 1621.534
423.2998, 1622.264
423.7820, 1617.215
424.2641, 1611.016
424.7462, 1608.656
425.2283, 1610.492
425.7104, 1610.650
426.1925, 1605.972
426.6747, 1603.062
427.1568, 1605.676
427.6389, 1610.845
428.1210, 1613.881
428.6031, 1612.440
429.0852, 1608.217
429.5674, 1604.296
430.0495, 1600.461
430.5316, 1597.685
431.0137, 1596.676
431.4958, 1596.571
431.9779, 1597.029
432.4601, 1597.978
432.9422, 1599.287
433.4243, 1602.167
433.9064, 1605.605
434.3885, 1604.248
434.8706, 1595.284
435.3528, 1587.512
435.8349, 1589.334
436.3170, 1595.712
436.7991, 1597.951
437.2812, 1591.813
437.7633, 1583.874
438.2455, 1580.211
438.7276, 1580.322
439.2097, 1580.932
439.6918, 1581.063
440.1739, 1581.007
440.6560, 1581.565
441.1382, 1582.960
441.6203, 1582.891
442.1024, 1578.422
442.5845, 1573.415
443.0666, 1573.491
443.5487, 1578.757
444.0309, 1583.082
444.5130, 1581.377
444.9951, 1574.472
445.4772, 1570.495
445.9593, 1572.577
446.4414, 1573.526
446.9236, 1569.877
447.4057, 1564.103
447.8878, 1560.034
448.3699, 1558.964
448.8520, 1559.348
449.3341, 1558.946
449.8163, 1557.902
450.2984, 1555.488
450.7805, 1549.228
451.2626, 1544.084
451.7447, 1543.820
452.2268, 1546.958
452.7090, 1549.231
453.1911, 1547.706
453.6732, 1543.271
454.1553, 1539.495
454.6374, 1535.767
455.1195, 1533.900
455.6017, 1535.301
456.0838, 1537.670
456.5659, 1539.513
457.0480, 1540.396
457.5301, 1539.961
458.0122, 1537.152
458.4944, 1532.027
458.9765, 1528.415
459.4586, 1527.094
459.9407, 1526.362
460.4228, 1526.068
460.9049, 1525.574
461.3871, 1523.455
461.8692, 1518.327
462.3513, 1512.854
462.8334, 1511.152
463.3155, 1513.018
463.7976, 1512.925
464.2798, 1508.297
464.7619, 1501.997
465.2440, 1497.617
465.7261, 1495.140
466.2082, 1492.993
466.6903, 1490.559
467.1725, 1488.208
467.6546, 1486.156
468.1367, 1484.481
468.6188, 1483.917
469.1009, 1485.377
469.5830, 1488.241
470.0652, 1489.375
470.5473, 1487.471
471.0294, 1485.742
471.5115, 1486.411
471.9936, 1487.119
472.4757, 1484.065
472.9579, 1476.538
473.4400, 1468.122
473.9221, 1463.094
474.4042, 1461.952
474.8863, 1461.437
475.3684, 1462.302
475.8506, 1462.912
476.3327, 1462.708
476.8148, 1461.821
477.2969, 1460.485
477.7790, 1458.812
478.2611, 1456.908
478.7433, 1455.003
479.2254, 1453.104
479.7075, 1451.215
480.1896, 1449.113
480.6717, 1447.228
481.1538, 1445.657
481.6360, 1444.502
482.1181, 1444.113
482.6002, 1445.988
483.0823, 1448.420
483.5644, 1445.376
484.0465, 1434.822
484.5287, 1426.344
485.0108, 1425.170
485.4929, 1427.953
485.9750, 1431.466
486.4571, 1435.839
486.9392, 1438.565
487.4214, 1436.689
487.9035, 1432.264
488.3856, 1430.364
488.8677, 1432.108
489.3498, 1433.605
489.8319, 1430.903
490.3141, 1424.452
490.7962, 1420.820
491.2783, 1423.023
491.7604, 1424.797
492.2425, 1422.461
492.7246, 1417.845
493.2068, 1414.420
493.6889, 1413.412
494.1710, 1413.683
494.6531, 1413.539
495.1352, 1412.799
495.6173, 1412.211
496.0995, 1412.301
496.5816, 1412.017
497.0637, 1410.618
497.5458, 1408.458
498.0279, 1406.338
498.5100, 1404.702
498.9922, 1403.377
499.4743, 1401.701
499.9564, 1398.962
500.4385, 1397.711
500.9206, 1400.295
501.4027, 1402.872
501.8849, 1402.560
502.3670, 1399.713
502.8491, 1397.219
503.3312, 1397.408
503.8133, 1399.302
504.2954, 1400.284
504.7776, 1400.232
505.2597, 1399.857
505.7418, 1399.596
506.2239, 1399.112
506.7060, 1397.740
507.1881, 1395.123
507.6703, 1393.012
508.1524, 1392.888
508.6345, 1393.640
509.1166, 1393.048
509.5987, 1390.775
510.0808, 1389.000
510.5630, 1389.682
511.0451, 1392.579
511.5272, 1394.699
512.0093, 1395.837
512.4914, 1396.560
512.9735, 1397.538
513.4556, 1397.996
513.9377, 1396.592
514.4199, 1393.105
514.9020, 1388.873
515.3841, 1385.488
515.8662, 1382.933
516.3483, 1381.406
516.8304, 1382.103
517.3126, 1382.593
517.7947, 1382.251
518.2768, 1381.266
518.7589, 1379.610
519.2410, 1377.195
519.7231, 1375.311
520.2053, 1376.663
520.6874, 1381.636
521.1695, 1384.034
521.6516, 1382.121
522.1337, 1378.527
522.6158, 1374.500
523.0980, 1370.335
523.5801, 1366.909
524.0622, 1365.014
524.5443, 1363.533
525.0264, 1360.767
525.5085, 1357.122
525.9907, 1355.398
526.4728, 1357.068
526.9549, 1359.958
527.4370, 1360.670
527.9191, 1358.756
528.4012, 1357.758
528.8834, 1359.271
529.3655, 1360.742
529.8476, 1359.891
530.3297, 1357.434
530.8118, 1355.931
531.2939, 1356.868
531.7761, 1358.867
532.2582, 1358.183
532.7403, 1351.701
533.2224, 1348.303
533.7045, 1350.955
534.1866, 1353.828
534.6688, 1353.177
535.1509, 1349.576
535.6330, 1345.709
536.1151, 1343.119
536.5972, 1341.727
537.0793, 1341.606
537.5615, 1343.208
538.0436, 1344.264
538.5257, 1343.981
539.0078, 1342.978
539.4899, 1341.437
539.9720, 1339.460
540.4542, 1338.207
540.9363, 1339.292
541.4184, 1340.932
541.9005, 1339.538
542.3826, 1335.277
542.8647, 1333.733
543.3469, 1339.184
543.8290, 1347.802
544.3111, 1348.986
544.7932, 1338.701
545.2753, 1331.619
545.7574, 1332.391
546.2396, 1335.273
546.7217, 1335.025
547.2038, 1331.865
547.6859, 1329.533
548.1680, 1330.883
548.6501, 1334.706
549.1323, 1335.482
549.6144, 1330.936
550.0965, 1327.225
550.5786, 1324.270
551.0607, 1322.824
551.5428, 1324.437
552.0250, 1328.506
552.5071, 1331.963
552.9892, 1332.516
553.4713, 1330.835
553.9534, 1328.451
554.4355, 1325.023
554.9177, 1322.730
555.3998, 1323.382
555.8819, 1324.935
556.3640, 1324.369
556.8461, 1321.326
557.3282, 1318.801
557.8104, 1319.073
558.2925, 1319.810
558.7746, 1317.245
559.2567, 1311.762
559.7388, 1308.037
560.2209, 1308.998
560.7031, 1313.503
561.1852, 1317.930
561.6673, 1324.347
562.1494, 1327.665
562.6315, 1326.292
563.1136, 1322.993
563.5958, 1319.312
564.0779, 1315.549
564.5600, 1311.356
565.0421, 1305.999
565.5242, 1300.844
566.0063, 1301.273
566.4885, 1309.762
566.9706, 1316.580
567.4527, 1319.173
567.9348, 1319.417
568.4169, 1317.967
568.8990, 1315.085
569.3812, 1311.770
569.8633, 1307.491
570.3454, 1303.663
570.8275, 1302.910
571.3096, 1305.037
571.7917, 1307.122
572.2739, 1308.214
572.7560, 1308.191
573.2381, 1306.453
573.7202, 1302.273
574.2023, 1299.358
574.6844, 1299.192
575.1666, 1299.400
575.6487, 1298.065
576.1308, 1295.723
576.6129, 1294.159
577.0950, 1294.330
577.5771, 1295.381
578.0593, 1295.302
578.5414, 1293.402
579.0235, 1292.251
579.5056, 1291.988
579.9877, 1292.496
580.4698, 1294.614
580.9520, 1297.422
581.4341, 1298.889
581.9162, 1297.857
582.3983, 1295.611
582.8804, 1293.332
583.3625, 1291.129
583.8447, 1290.636
584.3268, 1292.995
584.8089, 1295.417
585.2910, 1294.721
585.7732, 1291.217
586.2553, 1288.048
586.7374, 1284.526
587.2195, 1282.411
587.7017, 1284.071
588.1838, 1287.400
588.6659, 1288.316
589.1480, 1285.714
589.6301, 1282.486
590.1122, 1282.338
590.5944, 1285.691
591.0765, 1288.111
591.5586, 1290.580
592.0407, 1290.803
592.5228, 1285.944
593.0049, 1279.638
593.4871, 1276.452
593.9692, 1277.483
594.4513, 1279.462
594.9334, 1279.531
595.4155, 1277.962
595.8976, 1275.479
596.3798, 1271.601
596.8619, 1269.276
597.3440, 1271.493
597.8261, 1275.985
598.3082, 1276.902
598.7903, 1272.295
599.2725, 1269.068
599.7546, 1271.200
600.2367, 1274.722
600.7188, 1274.805
601.2009, 1271.628
601.6830, 1269.176
602.1652, 1270.313
602.6473, 1273.783
603.1294, 1274.857
603.6115, 1271.970
604.0936, 1269.506
604.5757, 1268.324
605.0579, 1267.124
605.5400, 1264.238
606.0221, 1260.537
606.5042, 1258.831
606.9863, 1261.243
607.4684, 1265.651
607.9506, 1269.467
608.4327, 1272.642
608.9148, 1272.623
609.3969, 1267.625
609.8790, 1261.294
610.3611, 1257.314
610.8433, 1255.535
611.3254, 1254.820
611.8075, 1255.928
612.2896, 1257.166
612.7717, 1257.858
613.2538, 1258.012
613.7360, 1257.433
614.2181, 1256.141
614.7002, 1255.044
615.1823, 1255.484
615.6644, 1257.634
616.1465, 1257.586
616.6287, 1253.299
617.1108, 1249.583
617.5929, 1247.847
618.0750, 1247.141
618.5571, 1246.512
619.0392, 1245.782
619.5214, 1245.313
620.0035, 1246.140
620.4856, 1247.248
620.9677, 1245.778
621.4498, 1241.522
621.9319, 1237.977
622.4141, 1237.046
622.8962, 1237.681
623.3783, 1237.541
623.8604, 1235.972
624.3425, 1235.781
624.8246, 1238.760
625.3068, 1241.905
625.7889, 1243.924
626.2710, 1244.370
626.7531, 1241.894
627.2352, 1235.732
627.7173, 1229.220
628.1995, 1229.511
628.6816, 1238.507
629.1637, 1243.678
629.6458, 1242.656
630.1279, 1239.775
630.6100, 1235.780
631.0922, 1231.941
631.5743, 1231.095
632.0564, 1235.229
632.5385, 1238.527
633.0206, 1235.076
633.5027, 1228.263
633.9849, 1225.402
634.4670, 1227.471
634.9491, 1229.485
635.4312, 1227.528
635.9133, 1222.747
636.3954, 1220.550
636.8776, 1223.208
637.3597, 1225.535
637.8418, 1228.375
638.3239, 1230.019
638.8060, 1228.521
639.2881, 1224.633
639.7703, 1220.785
640.2524, 1218.299
640.7345, 1216.997
641.2166, 1216.740
641.6987, 1217.557
642.1808, 1218.950
642.6630, 1221.976
643.1451, 1223.670
643.6272, 1219.583
644.1093, 1211.550
644.5914, 1206.466
645.0735, 1206.811
645.5557, 1208.544
646.0378, 1210.896
646.5199, 1213.032
647.0020, 1213.494
647.4841, 1212.149
647.9662, 1210.331
648.4484, 1209.302
648.9305, 1208.817
649.4126, 1206.744
649.8947, 1200.824
650.3768, 1197.662
650.8589, 1200.757
651.3411, 1204.975
651.8232, 1207.268
652.3053, 1207.413
652.7874, 1206.073
653.2695, 1202.962
653.7516, 1199.114
654.2338, 1195.128
654.7159, 1191.355
655.1980, 1189.713
655.6801, 1190.944
656.1622, 1193.298
656.6443, 1195.036
657.1265, 1196.156
657.6086, 1196.574
658.0907, 1196.036
658.5728, 1195.232
659.0549, 1194.185
659.5370, 1193.041
660.0192, 1191.732
660.5013, 1190.379
660.9834, 1189.527
661.4655, 1189.777
661.9476, 1190.780
662.4297, 1192.062
662.9119, 1194.023
663.3940, 1192.711
663.8761, 1184.629
664.3582, 1175.515
664.8403, 1172.988
665.3224, 1176.453
665.8046, 1178.919
666.2867, 1177.672
666.7688, 1176.842
667.2509, 1180.084
667.7330, 1184.828
668.2151, 1186.496
668.6973, 1184.064
669.1794, 1180.276
669.6615, 1177.621
670.1436, 1176.179
670.6257, 1177.231
671.1078, 1182.217
671.5900, 1186.721
672.0721, 1190.016
672.5542, 1192.017
673.0363, 1191.895
673.5184, 1189.927
674.0005, 1188.840
674.4827, 1191.570
674.9648, 1194.268
675.4469, 1192.448
675.9290, 1187.367
676.4111, 1182.244
676.8932, 1178.030
677.3754, 1176.346
677.8575, 1179.899
678.3396, 1189.079
678.8217, 1193.374
679.3038, 1188.514
679.7859, 1184.064
680.2681, 1180.988
680.7502, 1179.446
681.2323, 1180.067
681.7144, 1182.576
682.1965, 1185.248
682.6786, 1186.727
683.1608, 1187.838
683.6429, 1190.167
684.1250, 1193.539
684.6071, 1196.692
685.0892, 1199.607
685.5714, 1200.725
686.0535, 1197.479
686.5356, 1189.433
687.0177, 1185.091
687.4998, 1186.573
687.9819, 1188.704
688.4641, 1190.436
688.9462, 1192.031
689.4283, 1193.386
689.9104, 1194.796
690.3925, 1197.519
690.8746, 1203.140
691.3568, 1210.109
691.8389, 1214.531
692.3210, 1216.322
692.8031, 1217.713
693.2852, 1218.909
693.7673, 1220.619
694.2495, 1223.848
694.7316, 1228.505
695.2137, 1232.750
695.6958, 1235.747
696.1779, 1239.291
696.6600, 1245.172
697.1422, 1251.230
697.6243, 1254.532
698.1064, 1255.148
698.5885, 1255.848
699.0706, 1258.811
699.5527, 1263.228
700.0349, 1266.154
700.5170, 1266.835
700.9991, 1271.449
701.4812, 1284.205
701.9633, 1296.991
702.4454, 1302.040
702.9276, 1301.357
703.4097, 1301.424
703.8918, 1303.228
704.3739, 1305.711
704.8560, 1308.627
705.3381, 1311.881
705.8203, 1316.113
706.3024, 1320.830
706.7845, 1323.907
707.2666, 1323.829
707.7487, 1321.326
708.2308, 1318.273
708.7130, 1314.642
709.1951, 1310.577
709.6772, 1306.069
710.1593, 1301.158
710.6414, 1296.156
711.1235, 1290.779
711.6057, 1284.445
712.0878, 1277.284
712.5699, 1268.648
713.0520, 1256.455
713.5341, 1243.777
714.0162, 1234.398
714.4984, 1228.285
714.9805, 1223.449
715.4626, 1218.824
715.9447, 1214.113
716.4268, 1208.638
716.9089, 1202.283
717.3911, 1195.480
717.8732, 1186.797
718.3553, 1179.614
718.8374, 1176.967
719.3195, 1176.084
719.8016, 1172.570
720.2838, 1165.184
720.7659, 1158.734
721.2480, 1156.257
721.7301, 1155.340
722.2122, 1153.991
722.6943, 1151.853
723.1765, 1147.846
723.6586, 1141.446
724.1407, 1135.347
724.6228, 1134.274
725.1049, 1139.073
725.5870, 1140.634
726.0692, 1136.977
726.5513, 1133.259
727.0334, 1131.225
727.5155, 1129.976
727.9976, 1128.813
728.4797, 1127.654
728.9619, 1126.323
729.4440, 1124.373
729.9261, 1122.539
730.4082, 1121.350
730.8903, 1120.829
731.3724, 1121.484
731.8546, 1123.329
732.3367, 1124.476
732.8188, 1122.727
733.3009, 1118.377
733.7830, 1114.902
734.2651, 1112.469
734.7473, 1110.565
735.2294, 1109.306
735.7115, 1108.382
736.1936, 1107.648
736.6757, 1107.081
737.1578, 1106.605
737.6400, 1106.181
738.1221, 1105.865
738.6042, 1106.321
739.0863, 1106.656
739.5684, 1104.757
740.0505, 1100.772
740.5327, 1097.602
741.0148, 1097.416
741.4969, 1099.369
741.9790, 1101.079
742.4611, 1102.752
742.9432, 1103.389
743.4254, 1102.577
743.9075, 1101.073
744.3896, 1099.131
744.8717, 1096.884
745.3538, 1094.543
745.8359, 1092.104
746.3181, 1089.696
746.8002, 1086.667
747.2823, 1084.229
747.7644, 1084.049
748.2465, 1085.641
748.7286, 1087.177
749.2108, 1087.824
749.6929, 1088.354
750.1750, 1090.497
750.6571, 1094.482
751.1392, 1094.867
751.6213, 1089.820
752.1035, 1085.388
752.5856, 1084.341
753.0677, 1084.867
753.5498, 1084.599
754.0319, 1083.458
754.5140, 1083.290
754.9962, 1086.488
755.4783, 1088.732
755.9604, 1085.807
756.4425, 1080.863
756.9246, 1079.422
757.4067, 1082.183
757.8889, 1084.655
758.3710, 1082.494
758.8531, 1077.626
759.3352, 1077.261
759.8173, 1082.143
760.2994, 1085.059
760.7816, 1083.870
761.2637, 1081.455
761.7458, 1079.542
762.2279, 1078.384
762.7100, 1079.060
763.1921, 1084.368
763.6743, 1087.216
764.1564, 1084.225
764.6385, 1079.585
765.1206, 1075.608
765.6027, 1073.071
766.0848, 1073.420
766.5670, 1077.514
767.0491, 1081.654
767.5312, 1079.438
768.0133, 1072.518
768.4954, 1071.118
768.9775, 1076.622
769.4597, 1080.559
769.9418, 1077.965
770.4239, 1072.846
770.9060, 1072.589
771.3881, 1079.236
771.8702, 1082.486
772.3524, 1079.776
772.8345, 1076.854
773.3166, 1075.406
773.7987, 1074.946
774.2808, 1074.973
774.7629, 1075.323
775.2451, 1075.779
775.7272, 1076.137
776.2093, 1076.583
776.6914, 1077.974
777.1735, 1079.798
777.6556, 1079.530
778.1378, 1076.516
778.6199, 1073.118
779.1020, 1071.151
779.5841, 1070.634
780.0662, 1071.909
780.5483, 1077.140
781.0305, 1080.025
781.5126, 1078.229
781.9947, 1076.018
782.4768, 1075.111
782.9589, 1075.354
783.4410, 1076.567
783.9232, 1079.048
784.4053, 1080.734
784.8874, 1080.241
785.3695, 1078.384
785.8516, 1075.349
786.3337, 1071.810
786.8159, 1069.891
787.2980, 1070.423
787.7801, 1071.667
788.2622, 1071.141
788.7443, 1068.951
789.2264, 1068.487
789.7086, 1070.344
790.1907, 1072.289
790.6728, 1073.769
791.1549, 1075.002
791.6370, 1076.644
792.1191, 1078.460
792.6013, 1078.584
793.0834, 1075.390
793.5655, 1072.146
794.0476, 1069.558
794.5297, 1067.885
795.0118, 1068.016
795.4940, 1069.374
795.9761, 1069.808
796.4582, 1067.950
796.9403, 1065.822
797.4224, 1067.246
797.9045, 1071.460
798.3867, 1073.362
798.8688, 1072.468
799.3509, 1069.444
799.8330, 1063.627
800.3151, 1057.443
800.7972, 1055.716
801.2794, 1059.943
801.7615, 1062.735
802.2436, 1064.805
802.7257, 1064.741
803.2078, 1059.537
803.6899, 1053.690
804.1721, 1052.150
804.6542, 1055.034
805.1363, 1058.566
805.6184, 1061.842
806.1005, 1063.571
806.5826, 1060.647
807.0648, 1055.509
807.5469, 1054.340
808.0290, 1057.808
808.5111, 1061.306
808.9932, 1061.607
809.4753, 1059.591
809.9575, 1057.275
810.4396, 1054.253
810.9217, 1052.855
811.4038, 1054.294
811.8859, 1055.538
812.3680, 1054.954
812.8502, 1053.311
813.3323, 1051.516
813.8144, 1049.510
814.2965, 1048.083
814.7786, 1046.977
815.2607, 1046.949
815.7429, 1050.674
816.2250, 1054.689
816.7071, 1052.830
817.1892, 1045.031
817.6713, 1038.022
818.1534, 1037.078
818.6356, 1039.885
819.1177, 1042.786
819.5998, 1045.599
820.0819, 1046.745
820.5640, 1045.834
821.0461, 1044.058
821.5283, 1041.903
822.0104, 1039.881
822.4925, 1039.691
822.9746, 1042.782
823.4567, 1044.464
823.9388, 1043.458
824.4210, 1042.534
824.9031, 1042.924
825.3852, 1043.832
825.8673, 1044.432
826.3494, 1044.582
826.8315, 1043.831
827.3137, 1040.722
827.7958, 1037.829
828.2779, 1037.717
828.7600, 1039.282
829.2421, 1040.516
829.7242, 1041.023
830.2064, 1041.453
830.6885, 1042.305
831.1706, 1043.413
831.6527, 1044.832
832.1348, 1046.637
832.6169, 1045.567
833.0991, 1040.001
833.5812, 1035.674
834.0633, 1036.785
834.5454, 1040.716
835.0275, 1041.599
835.5096, 1038.002
835.9918, 1035.531
836.4739, 1034.540
836.9560, 1034.275
837.4381, 1034.954
837.9202, 1035.903
838.4023, 1036.650
838.8845, 1037.005
839.3666, 1036.498
839.8487, 1034.230
840.3308, 1031.815
840.8129, 1031.877
841.2950, 1032.706
841.7772, 1029.566
842.2593, 1022.701
842.7414, 1018.428
843.2235, 1020.984
843.7056, 1026.987
844.1877, 1029.924
844.6699, 1029.708
845.1520, 1026.770
845.6341, 1019.367
846.1162, 1014.367
846.5983, 1015.942
847.0804, 1020.152
847.5626, 1021.286
848.0447, 1019.101
848.5268, 1018.117
849.0089, 1019.906
849.4910, 1021.111
849.9731, 1020.052
850.4553, 1018.586
850.9374, 1019.218
851.4195, 1021.032
851.9016, 1020.155
852.3837, 1013.841
852.8658, 1008.303
853.3480, 1011.332
853.8301, 1017.999
854.3122, 1018.899
854.7943, 1014.600
855.2764, 1011.643
855.7585, 1012.866
856.2407, 1014.890
856.7228, 1012.874
857.2049, 1007.304
857.6870, 1004.994
858.1691, 1007.146
858.6512, 1007.734
859.1334, 1004.728
859.6155, 1000.557
860.0976, 996.8263
860.5797, 993.6764
861.0618, 991.6914
861.5439, 990.1960
862.0261, 990.9478
862.5082, 997.2067
862.9903, 1002.671
863.4724, 1003.310
863.9545, 1000.717
864.4366, 997.4908
864.9188, 994.3077
865.4009, 991.5027
865.8830, 988.7744
866.3651, 986.9411
866.8472, 987.6585
867.3293, 989.8806
867.8115, 991.2058
868.2936, 991.0924
868.7757, 990.0643
869.2578, 988.4227
869.7399, 986.4646
870.2220, 984.8463
870.7042, 983.5558
871.1863, 982.9482
871.6684, 983.2411
872.1505, 983.4318
872.6326, 982.6633
873.1147, 981.9174
873.5969, 983.2939
874.0790, 987.7472
874.5611, 989.0848
875.0432, 984.6945
875.5253, 980.7782
876.0074, 978.3692
876.4896, 977.2751
876.9717, 977.6728
877.4538, 979.2197
877.9359, 980.9940
878.4180, 983.2006
878.9001, 984.3340
879.3823, 983.0024
879.8644, 980.4600
880.3465, 978.0802
880.8286, 975.7629
881.3107, 972.0414
881.7928, 966.6513
882.2750, 963.2161
882.7571, 967.2734
883.2392, 975.6243
883.7213, 977.4774
884.2034, 973.2402
884.6855, 969.5120
885.1677, 967.7514
885.6498, 967.2245
886.1319, 967.5483
886.6140, 968.4278
887.0961, 968.9716
887.5782, 969.6785
888.0604, 968.6312
888.5425, 963.6888
889.0246, 959.9349
889.5067, 960.7930
889.9888, 963.0518
890.4709, 962.7305
890.9531, 959.6969
891.4352, 957.5450
891.9173, 958.1112
892.3994, 958.3098
892.8815, 955.7678
893.3636, 953.1166
893.8458, 954.1363
894.3279, 957.3829
894.8100, 957.4200
895.2921, 951.4642
895.7742, 945.9224
896.2563, 948.4143
896.7385, 954.5485
897.2206, 956.9422
897.7027, 955.9128
898.1848, 953.7100
898.6669, 951.1465
899.1490, 949.5751
899.6312, 950.8127
900.1133, 953.4156
900.5954, 950.7618
901.0775, 942.0317
901.5596, 938.0265
902.0417, 941.6042
902.5239, 945.4332
903.0060, 944.9296
903.4881, 942.1339
903.9702, 941.2307
904.4523, 942.7091
904.9344, 944.1041
905.4166, 946.1351
905.8987, 947.1340
906.3808, 946.1335
906.8629, 944.4266
907.3450, 942.5881
907.8271, 940.9860
908.3093, 940.8248
908.7914, 943.3033
909.2735, 945.4027
909.7556, 945.6885
910.2377, 945.1070
910.7198, 944.1819
911.2020, 943.1552
911.6841, 942.4147
912.1662, 942.0297
912.6483, 941.4236
913.1304, 939.5544
913.6125, 937.6716
914.0947, 938.6996
914.5768, 941.4288
915.0589, 941.5577
915.5410, 938.5915
916.0231, 935.6381
916.5052, 934.6746
916.9874, 934.7115
917.4695, 933.2461
917.9516, 930.1049
918.4337, 931.2542
918.9158, 938.2437
919.3979, 942.2838
919.8801, 939.5441
920.3622, 934.3539
920.8443, 930.9451
921.3264, 929.2100
921.8085, 928.1449
922.2906, 928.0510
922.7728, 928.1449
923.2549, 930.1673
923.7370, 930.4456
924.2191, 925.2066
924.7012, 918.0550
925.1833, 914.7430
925.6655, 916.0638
926.1476, 917.2663
926.6297, 917.3755
927.1118, 916.5225
927.5939, 913.1326
928.0760, 909.9656
928.5582, 910.5968
929.0403, 914.3345
929.5224, 918.0089
930.0045, 920.3946
930.4866, 921.3029
930.9688, 919.7335
931.4509, 917.0829
931.9330, 915.3525
932.4151, 914.5074
932.8972, 914.4246
933.3793, 914.9080
933.8615, 914.5375
934.3436, 911.7158
934.8257, 908.0159
935.3078, 907.7772
935.7899, 910.7150
936.2720, 912.7013
936.7542, 913.2629
937.2363, 913.0356
937.7184, 912.0820
938.2005, 911.3654
938.6826, 912.7667
939.1647, 910.9943
939.6469, 916.1810
940.1290, 909.6345
940.6111, 905.2911
941.0932, 905.8882
941.5753, 907.6451
942.0574, 909.0930
942.5396, 909.4854
943.0217, 906.2363
943.5038, 896.6799
943.9859, 891.6830
944.4680, 895.6531
944.9501, 900.0032
945.4323, 901.8022
945.9144, 902.2356
946.3965, 902.6281
946.8786, 902.9839
947.3607, 902.4707
947.8428, 900.0315
948.3250, 898.3624
948.8071, 899.6334
949.2892, 901.7151
949.7713, 903.1935
950.2534, 903.7086
950.7355, 902.4858
951.2177, 899.5792
951.6998, 896.9013
952.1819, 896.0526
952.6640, 896.0148
953.1461, 895.8201
953.6282, 895.2535
954.1104, 893.0758
954.5925, 889.7150
955.0746, 888.4238
955.5567, 890.8517
956.0388, 894.2266
956.5209, 894.6892
957.0031, 892.8304
957.4852, 891.6604
957.9673, 891.1708
958.4494, 890.2775
958.9315, 888.6430
959.4136, 887.3757
959.8958, 887.4193
960.3779, 888.1329
960.8600, 887.7556
961.3421, 885.9319
961.8242, 884.9423
962.3063, 885.3713
962.7885, 885.1748
963.2706, 883.4774
963.7527, 881.1489
964.2348, 878.7207
964.7169, 876.3427
965.1990, 875.1091
965.6812, 875.0058
966.1633, 876.1147
966.6454, 880.3336
967.1275, 883.5851
967.6096, 883.9991
968.0917, 882.5924
968.5739, 879.8284
969.0560, 876.0047
969.5381, 874.4449
970.0202, 878.4434
970.5023, 881.4841
970.9844, 880.6495
971.4666, 878.5175
971.9487, 876.6349
972.4308, 875.2675
972.9129, 874.8527
973.3950, 875.4500
973.8771, 875.0521
974.3593, 871.2477
974.8414, 867.1588
975.3235, 865.5864
975.8056, 865.4557
976.2877, 865.4626
976.7698, 865.2778
977.2520, 864.5630
977.7341, 863.1277
978.2162, 862.0179
978.6983, 863.0096
979.1804, 864.7629
979.6625, 864.0688
980.1447, 861.8625
980.6268, 861.7957
981.1089, 864.4181
981.5910, 867.0039
982.0731, 867.6384
982.5552, 867.4406
983.0374, 868.8966
983.5195, 871.5519
984.0016, 871.9112
984.4837, 869.8779
984.9658, 867.0687
985.4479, 863.7804
985.9301, 861.9844
986.4122, 863.9163
986.8943, 868.1366
987.3764, 869.1953
987.8585, 866.5023
988.3406, 864.4257
988.8228, 863.1263
989.3049, 862.5905
989.7870, 862.7143
990.2691, 863.9232
990.7512, 867.5029
991.2333, 872.9614
991.7155, 873.7050
992.1976, 865.8908
992.6797, 861.5878
993.1618, 863.9659
993.6439, 866.6894
994.1260, 867.2672
994.6082, 866.1900
995.0903, 863.5110
995.5724, 859.1104
996.0545, 856.7575
996.5366, 858.2245
997.0187, 859.3981
997.5009, 859.4826
997.9830, 859.2364
998.4651, 858.8860
998.9472, 858.6260
999.4293, 858.8840
999.9114, 859.7565
1000.394, 860.1642
1000.876, 858.9998
1001.358, 858.3417
1001.840, 859.6015
1002.322, 861.2805
1002.804, 862.4860
1003.286, 862.8945
1003.768, 862.0192
1004.250, 859.6811
1004.733, 857.0079
1005.215, 854.1076
1005.697, 851.6426
1006.179, 850.3816
1006.661, 849.6992
1007.143, 848.4070
1007.625, 846.9008
1008.107, 846.9929
1008.590, 849.5623
1009.072, 852.1644
1009.554, 852.7543
1010.036, 852.2375
1010.518, 850.8565
1011.000, 849.5037
1011.482, 850.4899
1011.964, 853.5053
1012.446, 855.4792
1012.929, 854.7150
1013.411, 852.5769
1013.893, 849.9427
1014.375, 847.4968
1014.857, 846.9337
1015.339, 847.8094
1015.821, 848.8685
1016.303, 849.6257
1016.786, 848.7346
1017.268, 844.9972
1017.750, 840.9078
1018.232, 841.5539
1018.714, 838.9589
1019.196, 844.5732
1019.678, 839.8107
1020.160, 839.1183
1020.642, 844.6745
1021.125, 849.8976
1021.607, 849.2899
1022.089, 852.1339
1022.571, 852.4151
1023.053, 850.7375
1023.535, 850.7677
1024.017, 845.8824
1024.499, 842.3076
1024.981, 842.0838
1025.464, 843.0406
1025.946, 843.3051
1026.428, 843.0766
1026.910, 842.9562
1027.392, 842.9508
1027.874, 842.9832
1028.356, 843.0348
1028.838, 843.1782
1029.321, 843.4015
1029.803, 843.8253
1030.285, 844.5786
1030.767, 845.6280
1031.249, 847.1381
1031.731, 850.0104
1032.213, 849.6279
1032.695, 844.6759
1033.177, 839.3530
1033.660, 834.4841
1034.142, 831.0118
1034.624, 829.9939
1035.106, 831.2369
1035.588, 833.7958
1036.070, 839.3870
1036.552, 842.1148
1037.034, 840.9069
1037.516, 838.3874
1037.999, 834.0338
1038.481, 830.4091
1038.963, 831.0515
1039.445, 835.2104
1039.927, 837.0517
1040.409, 835.6824
1040.891, 833.5517
1041.373, 829.1130
1041.856, 825.9256
1042.338, 825.9530
1042.820, 827.4001
1043.302, 829.1090
1043.784, 830.8299
1044.266, 830.7175
1044.748, 826.7435
1045.230, 824.2751
1045.713, 824.6335
1046.195, 825.2949
1046.677, 825.4952
1047.159, 825.3343
1047.641, 824.7486
1048.123, 823.8597
1048.605, 823.3903
1049.087, 823.4844
1049.569, 823.8678
1050.052, 825.1194
1050.534, 825.9164
1051.016, 825.3161
1051.498, 824.1760
1051.980, 823.4756
1052.462, 823.1732
1052.944, 822.6032
1053.426, 821.5500
1053.908, 820.4122
1054.391, 818.6949
1054.873, 817.5918
1055.355, 817.5721
1055.837, 818.5804
1056.319, 821.3571
1056.801, 825.2434
1057.283, 827.1207
1057.765, 825.1218
1058.248, 823.7880
1058.730, 825.8593
1059.212, 827.3347
1059.694, 825.2574
1060.176, 821.8860
1060.658, 819.6083
1061.140, 818.6042
1061.622, 818.1324
1062.104, 817.5855
1062.587, 818.7468
1063.069, 824.8458
1063.551, 829.8850
1064.033, 829.5186
1064.515, 826.7755
1064.997, 824.7441
1065.479, 823.8004
1065.961, 823.6690
1066.443, 824.6362
1066.926, 825.0823
1067.408, 824.6428
1067.890, 823.1504
1068.372, 819.0803
1068.854, 814.9214
1069.336, 813.4470
1069.818, 814.4718
1070.300, 816.8084
1070.783, 820.8749
1071.265, 822.4605
1071.747, 816.2940
1072.229, 811.0652
1072.711, 814.3618
1073.193, 819.5756
1073.675, 818.6658
1074.157, 813.1464
1074.640, 809.3566
1075.122, 809.1221
1075.604, 810.1923
1076.086, 812.6340
1076.568, 814.7864
1077.050, 816.1930
1077.532, 816.4131
1078.014, 814.0781
1078.496, 810.3828
1078.979, 808.2126
1079.461, 808.3436
1079.943, 809.1589
1080.425, 810.8842
1080.907, 811.9199
1081.389, 810.1656
1081.871, 808.3431
1082.353, 809.7711
1082.836, 813.0035
1083.318, 814.4768
1083.800, 813.4039
1084.282, 812.2172
1084.764, 812.2701
1085.246, 812.0692
1085.728, 810.9482
1086.210, 809.1834
1086.693, 805.9694
1087.175, 802.7315
1087.657, 802.2247
1088.139, 804.7613
1088.621, 807.2798
1089.103, 809.0942
1089.585, 809.9012
1090.067, 808.6000
1090.549, 807.1947
1091.031, 807.5419
1091.514, 808.6423
1091.996, 808.7274
1092.478, 807.7081
1092.960, 807.0149
1093.442, 806.6007
1093.924, 807.5480
1094.406, 812.8708
1094.888, 816.8721
1095.371, 814.1913
1095.853, 809.0623
1096.335, 806.9664
1096.817, 807.9686
1097.299, 808.9943
1097.781, 809.4135
1098.263, 809.3699
1098.745, 807.7316
1099.228, 807.0457
1099.710, 809.3123
1100.192, 812.7178
1100.674, 816.1542
1101.156, 818.9374
1101.638, 819.4730
1102.120, 817.1619
1102.602, 813.7041
1103.084, 807.5318
1103.567, 802.7948
1104.049, 800.8048
1104.531, 801.1785
1105.013, 805.5939
1105.495, 811.5663
1105.977, 813.0053
1106.459, 808.3044
1106.941, 805.2015
1107.423, 805.8100
1107.906, 806.9977
1108.388, 808.8909
1108.870, 810.1470
1109.352, 809.4666
1109.834, 807.7516
1110.316, 806.6561
1110.798, 806.3215
1111.280, 805.4473
1111.763, 802.4875
1112.245, 801.1769
1112.727, 803.7168
1113.209, 806.0022
1113.691, 806.0518
1114.173, 804.7418
1114.655, 802.7919
1115.137, 800.3118
1115.620, 798.6712
1116.102, 798.4548
1116.584, 798.0212
1117.066, 796.7910
1117.548, 796.1575
1118.030, 796.6497
1118.512, 797.8903
1118.994, 799.7664
1119.476, 802.0738
1119.958, 804.2675
1120.441, 807.7304
1120.923, 806.1784
1121.405, 795.8967
1121.887, 788.9000
1122.369, 789.1829
1122.851, 791.9431
1123.333, 794.2894
1123.815, 796.0287
1124.298, 796.6515
1124.780, 796.0694
1125.262, 795.4327
1125.744, 794.4551
1126.226, 794.8379
1126.708, 797.6677
1127.190, 799.0832
1127.672, 796.5885
1128.155, 792.4063
1128.637, 789.5936
1129.119, 788.1178
1129.601, 787.7401
1130.083, 788.4543
1130.565, 790.9600
1131.047, 795.8035
1131.529, 797.4401
1132.011, 793.2260
1132.494, 787.9960
1132.976, 786.6983
1133.458, 788.0017
1133.940, 787.9476
1134.422, 786.7190
1134.904, 787.1160
1135.386, 789.1088
1135.868, 788.8411
1136.350, 785.3537
1136.833, 783.6033
1137.315, 787.3912
1137.797, 792.9620
1138.279, 794.0862
1138.761, 791.7311
1139.243, 787.8899
1139.725, 783.5395
1140.207, 784.0287
1140.690, 789.1198
1141.172, 790.8702
1141.654, 785.5733
1142.136, 779.9119
1142.618, 782.0286
1143.100, 787.1673
1143.582, 786.9628
1144.064, 783.7928
1144.547, 782.3351
1145.029, 782.6917
1145.511, 783.5078
1145.993, 784.3123
1146.475, 785.0860
1146.957, 785.7475
1147.439, 786.5429
1147.921, 787.3930
1148.403, 788.7834
1148.885, 792.7037
1149.368, 796.9023
1149.850, 796.7825
1150.332, 792.7405
1150.814, 789.3093
1151.296, 788.3502
1151.778, 788.2595
1152.260, 789.2015
1152.742, 789.4010
1153.225, 786.9356
1153.707, 783.6814
1154.189, 781.4423
1154.671, 780.1603
1155.153, 779.0118
1155.635, 777.8157
1156.117, 778.0216
1156.599, 781.2986
1157.082, 784.3167
1157.564, 786.3018
1158.046, 787.4350
1158.528, 787.8990
1159.010, 787.5256
1159.492, 785.7236
1159.974, 782.7053
1160.456, 780.1982
1160.938, 777.9360
1161.421, 776.9756
1161.903, 777.9801
1162.385, 779.4064
1162.867, 781.2478
1163.349, 782.8649
1163.831, 783.4037
1164.313, 783.5798
1164.795, 785.4616
1165.277, 789.5903
1165.760, 790.5344
1166.242, 786.6701
1166.724, 785.2406
1167.206, 788.6319
1167.688, 790.0516
1168.170, 785.0883
1168.652, 779.1815
1169.134, 779.6500
1169.617, 784.9241
1170.099, 787.7864
1170.581, 788.2230
1171.063, 787.2187
1171.545, 784.8190
1172.027, 782.7381
1172.509, 781.4653
1172.991, 782.3526
1173.474, 786.7977
1173.956, 791.8104
1174.438, 791.2900
1174.920, 787.3582
1175.402, 787.4670
1175.884, 790.3356
1176.366, 791.2080
1176.848, 789.5552
1177.330, 786.4854
1177.813, 782.6189
1178.295, 780.4971
1178.777, 782.8409
1179.259, 787.3992
1179.741, 793.7804
1180.223, 798.8463
1180.705, 795.6224
1181.187, 788.2460
1181.669, 786.9175
1182.152, 792.1334
1182.634, 794.6012
1183.116, 789.1152
1183.598, 784.0883
1184.080, 784.1497
1184.562, 786.6689
1185.044, 791.9980
1185.526, 797.1238
1186.009, 799.0129
1186.491, 798.2384
1186.973, 796.3193
1187.455, 793.3752
1187.937, 791.7704
1188.419, 792.8477
1188.901, 793.9769
1189.383, 794.6387
1189.865, 795.2540
1190.348, 796.9904
1190.830, 798.0088
1191.312, 795.6373
1191.794, 790.7645
1192.276, 787.6760
1192.758, 786.2070
1193.240, 787.4214
1193.722, 792.8326
1194.204, 796.2680
1194.687, 795.8742
1195.169, 794.7264
1195.651, 794.8699
1196.133, 794.9583
1196.615, 792.2314
1197.097, 787.7490
1197.579, 789.3932
1198.061, 787.9716
1198.544, 786.8786
1199.026, 790.8515
1199.508, 788.1666
1199.990, 792.7168
1200.472, 798.8232
1200.954, 802.2966
1201.436, 803.2277
1201.918, 800.2936
1202.401, 795.7693
1202.883, 794.3741
1203.365, 795.1249
1203.847, 795.8322
1204.329, 796.0349
1204.811, 795.5652
1205.293, 794.4078
1205.775, 793.6039
1206.257, 793.4347
1206.740, 794.4771
1207.222, 798.1680
1207.704, 802.2736
1208.186, 805.1461
1208.668, 806.8384
1209.150, 807.8858
1209.632, 808.1360
1210.114, 806.4014
1210.596, 801.4649
1211.079, 797.7372
1211.561, 794.7680
1212.043, 794.8971
1212.525, 802.5809
1213.007, 809.5131
1213.489, 809.6818
1213.971, 806.3919
1214.453, 804.5170
1214.936, 803.9864
1215.418, 803.6038
1215.900, 803.3480
1216.382, 803.1847
1216.864, 802.8822
1217.346, 804.0201
1217.828, 807.5208
1218.310, 810.1752
1218.792, 809.3510
1219.275, 810.8254
1219.757, 807.1842
1220.239, 808.9717
1220.721, 807.4834
1221.203, 803.5276
1221.685, 801.2105
1222.167, 800.7607
1222.649, 800.0779
1223.131, 798.4932
1223.614, 797.4554
1224.096, 798.2648
1224.578, 799.4525
1225.060, 799.6508
1225.542, 799.0932
1226.024, 797.2613
1226.506, 795.3482
1226.988, 795.2213
1227.471, 796.6805
1227.953, 798.5619
1228.435, 800.5561
1228.917, 802.3496
1229.399, 804.3696
1229.881, 805.3549
1230.363, 804.0545
1230.845, 802.5635
1231.328, 802.3145
1231.810, 802.3885
1232.292, 801.2914
1232.774, 799.5327
1233.256, 799.4303
1233.738, 801.9268
1234.220, 801.7591
1234.702, 797.7164
1235.184, 794.8136
1235.667, 793.7597
1236.149, 795.1525
1236.631, 799.8636
1237.113, 804.5404
1237.595, 804.9744
1238.077, 802.6184
1238.559, 801.7708
1239.041, 802.1067
1239.523, 801.9291
1240.006, 801.2827
1240.488, 801.4892
1240.970, 802.2750
1241.452, 799.7508
1241.934, 791.9227
1242.416, 785.3534
1242.898, 787.8099
1243.380, 792.4254
1243.863, 792.4316
1244.345, 790.7104
1244.827, 789.5729
1245.309, 789.6497
1245.791, 792.9746
1246.273, 798.3396
1246.755, 799.0486
1247.237, 791.5403
1247.719, 785.8333
1248.202, 783.8472
1248.684, 784.3985
1249.166, 789.3694
1249.648, 794.2757
1250.130, 796.7404
1250.612, 797.5945
1251.094, 797.8043
1251.576, 797.4277
1252.058, 797.0873
1252.541, 797.1428
1253.023, 793.8644
1253.505, 786.6456
1253.987, 782.3800
1254.469, 782.6957
1254.951, 784.4035
1255.433, 785.7413
1255.915, 786.2823
1256.398, 784.9438
1256.880, 783.2463
1257.362, 784.6354
1257.844, 787.6335
1258.326, 789.7282
1258.808, 790.7453
1259.290, 790.6163
1259.772, 789.6348
1260.255, 788.9061
1260.737, 788.9350
1261.219, 788.7977
1261.701, 787.3188
1262.183, 786.4833
1262.665, 787.6643
1263.147, 789.4020
1263.629, 790.8788
1264.111, 792.0856
1264.594, 793.3964
1265.076, 794.5601
1265.558, 794.1123
1266.040, 791.5713
1266.522, 788.8809
1267.004, 785.2845
1267.486, 784.4984
1267.968, 787.8088
1268.450, 791.2596
1268.933, 792.9004
1269.415, 793.4114
1269.897, 793.5123
1270.379, 793.1644
1270.861, 791.6868
1271.343, 789.8694
1271.825, 790.6857
1272.307, 790.3655
1272.790, 791.0822
1273.272, 792.9977
1273.754, 793.8436
1274.236, 797.6740
1274.718, 800.2172
1275.200, 796.9941
1275.682, 794.2667
1276.164, 796.7611
1276.646, 799.9442
1277.129, 800.8682
1277.611, 800.4322
1278.093, 799.3217
1278.575, 797.9744
1279.057, 797.7209
1279.539, 798.9125
1280.021, 798.6369
1280.503, 795.0380
1280.985, 795.2311
1281.468, 801.4139
1281.950, 806.8713
1282.432, 809.2775
1282.914, 808.9078
1283.396, 805.4321
1283.878, 801.8339
1284.360, 804.8112
1284.842, 811.2625
1285.325, 812.5777
1285.807, 808.9302
##END=



