##NAMES=Montebrasite
##RRUFFID=R040060
##IDEAL CHEMISTRY=LiAlPO_4_(OH)
##LOCALITY=Oxford County, Maine, USA
##OWNER=RRUFF
##SOURCE=University of Arizona Mineral Museum
##DESCRIPTION=White massive
##STATUS=The identification of this mineral has been confirmed by X-ray diffraction and chemical analysis
##URL=rruff.info/R040060
##MEASURED CHEMISTRY=LiAl(PO_4_)((OH)_0.79_F_0.21_)
116.2249, 81.44849
116.7070, 82.55886
117.1891, 83.40026
117.6712, 83.39091
118.1533, 82.96655
118.6354, 83.40953
119.1175, 85.50798
119.5997, 87.08248
120.0818, 86.78229
120.5639, 85.52339
121.0460, 84.79261
121.5281, 85.64474
122.0102, 87.82639
122.4924, 89.44781
122.9745, 88.55352
123.4566, 89.45776
123.9387, 94.85984
124.4208, 103.1765
124.9029, 110.9488
125.3851, 114.9640
125.8672, 114.9440
126.3493, 117.5391
126.8314, 125.9621
127.3135, 134.3251
127.7956, 140.5284
128.2778, 144.8649
128.7599, 149.0478
129.2420, 154.7198
129.7241, 162.1433
130.2062, 169.7940
130.6884, 179.9361
131.1705, 188.4904
131.6526, 192.8892
132.1347, 193.3164
132.6168, 192.0915
133.0989, 192.0792
133.5811, 194.5499
134.0632, 194.6222
134.5453, 191.6517
135.0274, 187.2397
135.5095, 181.7334
135.9916, 175.4938
136.4738, 169.4808
136.9559, 165.1588
137.4380, 163.5289
137.9201, 161.8918
138.4022, 161.4656
138.8843, 160.3764
139.3665, 155.6555
139.8486, 146.7809
140.3307, 137.6391
140.8128, 135.0665
141.2949, 144.8214
141.7770, 152.6233
142.2592, 157.9198
142.7413, 161.2385
143.2234, 162.5459
143.7055, 161.7465
144.1876, 160.2322
144.6697, 160.9224
145.1519, 164.6083
145.6340, 169.0092
146.1161, 174.5690
146.5982, 180.5108
147.0803, 186.1322
147.5624, 191.4165
148.0446, 195.5044
148.5267, 195.7495
149.0088, 190.4588
149.4909, 185.2815
149.9730, 181.8056
150.4551, 179.3934
150.9372, 176.7012
151.4194, 173.0259
151.9015, 168.9631
152.3836, 166.0904
152.8657, 164.9934
153.3478, 163.8261
153.8299, 160.6756
154.3121, 156.7207
154.7942, 155.8383
155.2763, 161.1033
155.7584, 169.1816
156.2405, 171.3744
156.7226, 164.0101
157.2048, 157.1318
157.6869, 156.4002
158.1690, 160.7134
158.6511, 165.3523
159.1332, 168.3036
159.6153, 170.0166
160.0975, 171.9070
160.5796, 174.6579
161.0617, 176.6252
161.5438, 175.6332
162.0259, 172.1952
162.5080, 170.5784
162.9902, 173.8580
163.4723, 179.8302
163.9544, 183.6051
164.4365, 184.0941
164.9186, 183.6246
165.4007, 183.7171
165.8829, 184.3654
166.3650, 185.4774
166.8471, 187.2808
167.3292, 189.4264
167.8113, 191.3503
168.2934, 193.1044
168.7756, 194.4828
169.2577, 195.3346
169.7398, 195.6654
170.2219, 195.4264
170.7040, 194.7051
171.1861, 193.2865
171.6683, 190.7076
172.1504, 186.1359
172.6325, 181.4396
173.1146, 178.6885
173.5967, 178.0242
174.0788, 177.7488
174.5610, 176.8290
175.0431, 175.9557
175.5252, 176.3167
176.0073, 179.2258
176.4894, 181.8892
176.9715, 180.0883
177.4537, 172.9697
177.9358, 167.2349
178.4179, 167.1016
178.9000, 169.8013
179.3821, 172.6957
179.8642, 175.7202
180.3464, 177.9211
180.8285, 177.5641
181.3106, 174.1117
181.7927, 171.0245
182.2748, 169.5014
182.7569, 169.3245
183.2391, 170.8396
183.7212, 174.9119
184.2033, 179.3462
184.6854, 180.9999
185.1675, 179.3601
185.6496, 177.3915
186.1318, 176.1874
186.6139, 175.3607
187.0960, 174.5496
187.5781, 173.5965
188.0602, 172.7486
188.5423, 172.3889
189.0245, 172.6195
189.5066, 172.9081
189.9887, 172.4802
190.4708, 172.2464
190.9529, 173.2324
191.4350, 175.9637
191.9172, 179.4361
192.3993, 182.4774
192.8814, 185.1249
193.3635, 187.1362
193.8456, 187.9066
194.3277, 188.2190
194.8099, 188.7354
195.2920, 189.6698
195.7741, 190.7428
196.2562, 191.9391
196.7383, 193.5957
197.2204, 193.8143
197.7026, 190.2724
198.1847, 185.7353
198.6668, 182.4603
199.1489, 181.1225
199.6310, 180.6347
200.1131, 179.6073
200.5953, 177.9199
201.0774, 176.3586
201.5595, 176.7921
202.0416, 176.6009
202.5237, 172.8483
203.0058, 164.2964
203.4880, 155.2296
203.9701, 151.3024
204.4522, 153.3492
204.9343, 154.8412
205.4164, 152.1081
205.8985, 149.0983
206.3807, 149.2064
206.8628, 153.3116
207.3449, 158.3714
207.8270, 161.2374
208.3091, 161.7749
208.7912, 161.3730
209.2734, 159.1497
209.7555, 156.8899
210.2376, 156.0628
210.7197, 156.9169
211.2018, 158.3445
211.6839, 159.5219
212.1661, 160.4725
212.6482, 160.6596
213.1303, 158.8645
213.6124, 157.1098
214.0945, 157.0617
214.5766, 158.8710
215.0588, 161.1464
215.5409, 162.7476
216.0230, 163.6858
216.5051, 164.4754
216.9872, 164.9111
217.4693, 165.5139
217.9515, 166.4691
218.4336, 167.8145
218.9157, 169.9058
219.3978, 174.1034
219.8799, 179.9813
220.3620, 183.0739
220.8442, 181.4001
221.3263, 178.0937
221.8084, 174.7860
222.2905, 171.6985
222.7726, 170.3763
223.2547, 173.6664
223.7369, 180.2503
224.2190, 182.7532
224.7011, 178.2867
225.1832, 172.5048
225.6653, 169.1787
226.1474, 168.0928
226.6296, 168.4286
227.1117, 170.3735
227.5938, 173.4480
228.0759, 176.4601
228.5580, 179.8983
229.0401, 182.0527
229.5223, 180.4819
230.0044, 176.4597
230.4865, 173.8412
230.9686, 176.0836
231.4507, 180.5479
231.9328, 181.3111
232.4150, 177.0323
232.8971, 172.1878
233.3792, 169.8026
233.8613, 169.1699
234.3434, 169.0727
234.8255, 170.0580
235.3077, 170.9866
235.7898, 169.9536
236.2719, 166.6577
236.7540, 162.9326
237.2361, 159.1532
237.7182, 155.8366
238.2004, 154.1028
238.6825, 154.6172
239.1646, 156.4891
239.6467, 159.7079
240.1288, 164.3779
240.6109, 167.2247
241.0931, 165.4441
241.5752, 160.8070
242.0573, 157.3577
242.5394, 155.2463
243.0215, 154.5432
243.5036, 156.6583
243.9858, 161.0563
244.4679, 163.0050
244.9500, 158.9787
245.4321, 152.0032
245.9142, 149.1703
246.3963, 152.6424
246.8785, 156.2520
247.3606, 155.9581
247.8427, 152.9766
248.3248, 151.3123
248.8069, 152.7294
249.2890, 155.9039
249.7712, 158.5160
250.2533, 160.8935
250.7354, 162.0254
251.2175, 160.4003
251.6996, 157.4215
252.1817, 155.6606
252.6639, 155.9051
253.1460, 157.5251
253.6281, 160.1178
254.1102, 164.3713
254.5923, 166.6979
255.0744, 165.2432
255.5566, 162.0178
256.0387, 159.0048
256.5208, 156.6186
257.0029, 155.4633
257.4850, 156.8186
257.9671, 161.8473
258.4492, 163.8881
258.9314, 159.7028
259.4135, 154.4606
259.8956, 152.3678
260.3777, 153.7537
260.8598, 156.4221
261.3419, 158.5152
261.8241, 159.9445
262.3062, 161.3786
262.7883, 163.0175
263.2704, 164.4753
263.7525, 165.1124
264.2346, 165.2802
264.7168, 166.3420
265.1989, 169.5452
265.6810, 174.6956
266.1631, 177.2247
266.6452, 173.3120
267.1273, 171.3158
267.6095, 174.9647
268.0916, 182.1388
268.5737, 188.9634
269.0558, 193.3161
269.5379, 195.7914
270.0201, 198.6844
270.5022, 203.0907
270.9843, 206.6583
271.4664, 207.7507
271.9485, 208.4750
272.4306, 211.6667
272.9128, 218.3642
273.3949, 226.6210
273.8770, 232.4311
274.3591, 235.1065
274.8412, 236.2602
275.3233, 235.2173
275.8055, 233.3942
276.2876, 231.8674
276.7697, 230.8399
277.2518, 229.7965
277.7339, 228.2340
278.2160, 226.4262
278.6982, 223.1366
279.1803, 215.4227
279.6624, 208.7373
280.1445, 206.1461
280.6266, 207.2968
281.1087, 209.5632
281.5909, 210.8299
282.0730, 211.0947
282.5551, 211.0816
283.0372, 209.9744
283.5193, 209.5717
284.0014, 210.3898
284.4836, 212.3886
284.9657, 215.3401
285.4478, 218.7183
285.9299, 223.1194
286.4120, 230.8184
286.8941, 243.3451
287.3763, 255.9318
287.8584, 264.9512
288.3405, 273.3655
288.8226, 284.9486
289.3047, 301.2401
289.7868, 320.6726
290.2690, 341.5753
290.7511, 364.0659
291.2332, 386.7336
291.7153, 407.8114
292.1974, 429.5877
292.6795, 454.8894
293.1617, 484.6015
293.6438, 515.0970
294.1259, 544.1615
294.6080, 571.6443
295.0901, 597.7941
295.5722, 623.9504
296.0544, 646.6744
296.5365, 663.0086
297.0186, 673.3069
297.5007, 677.3568
297.9828, 676.1187
298.4649, 668.3006
298.9471, 650.2038
299.4292, 620.1140
299.9113, 585.6319
300.3934, 553.1852
300.8755, 522.6774
301.3576, 492.9835
301.8398, 463.3832
302.3219, 435.1201
302.8040, 408.8033
303.2861, 384.6085
303.7682, 363.3814
304.2503, 345.9791
304.7325, 332.1690
305.2146, 318.5830
305.6967, 303.5493
306.1788, 290.4917
306.6609, 281.0326
307.1430, 274.3455
307.6252, 268.6606
308.1073, 263.1415
308.5894, 258.2430
309.0715, 255.3006
309.5536, 258.6275
310.0357, 258.4594
310.5179, 250.1611
311.0000, 240.4715
311.4821, 236.8979
311.9642, 240.9449
312.4463, 247.3505
312.9284, 248.1999
313.4106, 239.9073
313.8927, 236.2240
314.3748, 241.3920
314.8569, 246.7638
315.3390, 247.1229
315.8211, 243.0943
316.3033, 238.9120
316.7854, 238.3399
317.2675, 241.2354
317.7496, 242.7573
318.2317, 241.9362
318.7138, 240.7529
319.1960, 240.2237
319.6781, 239.6593
320.1602, 237.7083
320.6423, 233.2937
321.1244, 227.8702
321.6065, 225.3855
322.0887, 227.5018
322.5708, 227.6148
323.0529, 220.3194
323.5350, 211.8239
324.0171, 208.3784
324.4992, 211.8579
324.9814, 215.7556
325.4635, 212.8171
325.9456, 203.6045
326.4277, 196.7654
326.9098, 195.5600
327.3919, 195.4878
327.8741, 191.5569
328.3562, 184.0560
328.8383, 177.7718
329.3204, 175.8117
329.8025, 176.1120
330.2846, 174.9126
330.7668, 171.6512
331.2489, 168.4384
331.7310, 167.0173
332.2131, 167.2285
332.6952, 167.5709
333.1773, 169.5206
333.6595, 170.2400
334.1416, 166.4777
334.6237, 159.4176
335.1058, 153.5841
335.5879, 151.1921
336.0700, 151.8535
336.5522, 154.5894
337.0343, 164.1977
337.5164, 169.2405
337.9985, 163.8874
338.4806, 154.5169
338.9627, 148.8016
339.4449, 148.9711
339.9270, 151.9062
340.4091, 153.0817
340.8912, 151.5166
341.3733, 150.7487
341.8554, 152.3398
342.3376, 153.2823
342.8197, 150.4652
343.3018, 145.0654
343.7839, 141.4724
344.2660, 143.8038
344.7481, 151.5396
345.2303, 156.1255
345.7124, 155.2759
346.1945, 153.8927
346.6766, 153.1873
347.1587, 152.7195
347.6408, 151.7646
348.1230, 149.9517
348.6051, 147.8052
349.0872, 146.3037
349.5693, 145.6206
350.0514, 144.7583
350.5335, 142.4701
351.0157, 140.6484
351.4978, 141.1867
351.9799, 144.2233
352.4620, 147.1848
352.9441, 147.6378
353.4262, 146.4000
353.9084, 147.0304
354.3905, 150.9709
354.8726, 154.3769
355.3547, 152.1207
355.8368, 146.0782
356.3189, 142.7690
356.8011, 146.1817
357.2832, 151.1586
357.7653, 152.7840
358.2474, 151.2775
358.7295, 149.5428
359.2116, 149.3307
359.6938, 149.9111
360.1759, 148.5353
360.6580, 142.6829
361.1401, 138.7415
361.6222, 140.3209
362.1043, 144.0912
362.5865, 144.8737
363.0686, 141.2531
363.5507, 136.9317
364.0328, 137.4497
364.5149, 145.4451
364.9970, 150.5019
365.4792, 151.7337
365.9613, 151.2910
366.4434, 149.1698
366.9255, 146.2676
367.4076, 144.7356
367.8897, 146.5584
368.3719, 150.9330
368.8540, 151.8922
369.3361, 145.7476
369.8182, 141.5836
370.3003, 142.4064
370.7824, 145.6372
371.2646, 148.8287
371.7467, 151.2109
372.2288, 152.6149
372.7109, 152.6524
373.1930, 151.2603
373.6751, 149.2917
374.1573, 145.3083
374.6394, 142.5281
375.1215, 143.9252
375.6036, 149.0583
376.0857, 154.1745
376.5678, 157.9823
377.0500, 160.3729
377.5321, 160.5909
378.0142, 158.3649
378.4963, 156.2669
378.9784, 156.2467
379.4605, 157.7328
379.9427, 158.1812
380.4248, 156.1353
380.9069, 154.6182
381.3890, 155.5537
381.8711, 158.0439
382.3532, 160.4515
382.8354, 162.2951
383.3175, 163.0570
383.7996, 161.5750
384.2817, 155.0210
384.7638, 152.4220
385.2459, 158.1332
385.7281, 164.3339
386.2102, 164.8885
386.6923, 160.3658
387.1744, 155.6917
387.6565, 155.0234
388.1386, 158.0260
388.6208, 159.7166
389.1029, 158.6394
389.5850, 158.0641
390.0671, 159.5187
390.5492, 161.4886
391.0313, 161.8302
391.5135, 159.6976
391.9956, 157.1538
392.4777, 157.4202
392.9598, 160.8423
393.4419, 163.5602
393.9240, 165.3287
394.4062, 165.7231
394.8883, 163.3579
395.3704, 158.8590
395.8525, 156.2786
396.3346, 158.8535
396.8167, 164.0634
397.2989, 168.1503
397.7810, 170.9742
398.2631, 172.5481
398.7452, 172.9525
399.2273, 171.9742
399.7094, 169.2097
400.1916, 161.6759
400.6737, 156.4877
401.1558, 157.8911
401.6379, 163.0036
402.1200, 167.2640
402.6021, 169.3574
403.0843, 170.5141
403.5664, 172.7305
404.0485, 177.5593
404.5306, 177.8771
405.0127, 166.4655
405.4948, 157.8921
405.9770, 162.5423
406.4591, 176.2668
406.9412, 187.8785
407.4233, 190.0835
407.9054, 185.5504
408.3875, 184.0479
408.8697, 187.6208
409.3518, 190.1275
409.8339, 188.7610
410.3160, 186.8713
410.7981, 187.7178
411.2802, 191.7743
411.7624, 195.8119
412.2445, 195.4862
412.7266, 192.1836
413.2087, 193.4739
413.6908, 200.8966
414.1729, 211.1156
414.6551, 223.2390
415.1372, 236.3193
415.6193, 248.0256
416.1014, 255.7507
416.5835, 263.6944
417.0656, 274.0708
417.5478, 287.0865
418.0299, 303.6124
418.5120, 324.4012
418.9941, 348.2488
419.4762, 373.0875
419.9583, 399.1095
420.4405, 425.8268
420.9226, 452.2952
421.4047, 480.2750
421.8868, 511.6208
422.3689, 545.9905
422.8510, 581.7483
423.3332, 617.7422
423.8153, 653.8275
424.2974, 686.9007
424.7795, 716.8114
425.2616, 743.2983
425.7437, 775.7186
426.2259, 800.3707
426.7080, 803.2345
427.1901, 780.3604
427.6722, 738.6899
428.1543, 679.4022
428.6364, 604.1255
429.1186, 533.3201
429.6007, 467.3086
430.0828, 409.5880
430.5649, 363.7548
431.0470, 327.9961
431.5291, 297.9325
432.0113, 273.4371
432.4934, 253.5488
432.9755, 238.1190
433.4576, 226.7704
433.9397, 218.0884
434.4218, 211.6105
434.9040, 207.0860
435.3861, 204.3933
435.8682, 206.0307
436.3503, 204.0290
436.8324, 194.1065
437.3145, 183.2178
437.7967, 176.7750
438.2788, 174.7659
438.7609, 174.2890
439.2430, 173.2209
439.7251, 171.6045
440.2072, 169.7763
440.6894, 167.8117
441.1715, 165.4699
441.6536, 162.5680
442.1357, 159.3788
442.6178, 155.9230
443.0999, 152.2307
443.5821, 149.0626
444.0642, 146.9402
444.5463, 145.9045
445.0284, 146.6535
445.5105, 150.1116
445.9926, 153.4483
446.4748, 154.1983
446.9569, 153.1080
447.4390, 152.0418
447.9211, 151.7455
448.4032, 151.1566
448.8853, 148.6391
449.3675, 145.2756
449.8496, 144.1938
450.3317, 146.7380
450.8138, 150.6155
451.2959, 152.1151
451.7780, 149.9794
452.2602, 148.7955
452.7423, 149.6762
453.2244, 150.4446
453.7065, 149.7803
454.1886, 147.9822
454.6707, 145.9019
455.1529, 143.9550
455.6350, 142.3889
456.1171, 141.9570
456.5992, 142.8477
457.0813, 144.3636
457.5634, 146.7502
458.0455, 149.4705
458.5276, 152.1687
459.0098, 154.8252
459.4919, 157.6219
459.9740, 162.0973
460.4561, 166.4290
460.9382, 165.6624
461.4203, 159.1135
461.9025, 153.8207
462.3846, 154.6437
462.8667, 159.6197
463.3488, 161.7583
463.8309, 159.7266
464.3130, 157.2201
464.7952, 153.6864
465.2773, 150.9843
465.7594, 152.3844
466.2415, 158.0071
466.7236, 163.6642
467.2057, 164.5862
467.6879, 160.4578
468.1700, 160.7099
468.6521, 172.2433
469.1342, 180.2690
469.6163, 178.7137
470.0984, 173.0798
470.5806, 170.0277
471.0627, 171.7866
471.5448, 175.8976
472.0269, 179.9611
472.5090, 183.9786
472.9911, 187.7542
473.4733, 191.2764
473.9554, 194.5960
474.4375, 197.5358
474.9196, 200.2847
475.4017, 203.4160
475.8839, 206.6517
476.3660, 210.6819
476.8481, 217.5162
477.3302, 225.4701
477.8123, 229.8869
478.2944, 228.9800
478.7766, 225.7969
479.2587, 224.7695
479.7408, 225.8854
480.2229, 229.4379
480.7050, 238.0100
481.1871, 246.1115
481.6693, 252.5045
482.1514, 256.3035
482.6335, 255.6791
483.1156, 249.2208
483.5977, 240.1147
484.0798, 233.9229
484.5620, 230.6323
485.0441, 230.6376
485.5262, 236.7113
486.0083, 243.3509
486.4904, 245.8815
486.9725, 244.7508
487.4547, 243.2540
487.9368, 242.7416
488.4189, 242.3223
488.9010, 241.3716
489.3831, 239.7706
489.8652, 236.8335
490.3474, 231.9943
490.8295, 226.2821
491.3116, 221.5792
491.7937, 216.9601
492.2758, 215.5495
492.7579, 220.7211
493.2401, 226.1805
493.7222, 228.2848
494.2043, 227.1312
494.6864, 224.4115
495.1685, 221.1657
495.6506, 217.1348
496.1328, 211.1683
496.6149, 202.2880
497.0970, 194.7229
497.5791, 190.1288
498.0612, 186.7072
498.5433, 182.8951
499.0255, 178.7227
499.5076, 175.6389
499.9897, 174.8664
500.4718, 175.2205
500.9539, 175.7910
501.4360, 176.3493
501.9182, 175.3357
502.4003, 171.5804
502.8824, 166.4114
503.3645, 163.1032
503.8466, 163.2770
504.3287, 162.5713
504.8109, 160.6501
505.2930, 158.0253
505.7751, 154.1267
506.2572, 149.7419
506.7393, 147.1445
507.2214, 148.3907
507.7036, 151.7012
508.1857, 151.2035
508.6678, 145.5629
509.1499, 140.7274
509.6320, 138.1667
510.1141, 137.0488
510.5963, 136.7488
511.0784, 137.2353
511.5605, 138.5057
512.0426, 142.0675
512.5247, 145.5037
513.0068, 144.9337
513.4890, 140.9355
513.9711, 138.5430
514.4532, 140.8521
514.9353, 144.9435
515.4174, 143.6718
515.8995, 130.5766
516.3817, 123.6116
516.8638, 127.0402
517.3459, 132.8537
517.8280, 136.7995
518.3101, 138.6673
518.7922, 139.6896
519.2744, 140.6891
519.7565, 141.1982
520.2386, 139.7926
520.7207, 136.0637
521.2028, 132.7675
521.6849, 130.3363
522.1671, 128.8478
522.6492, 128.2076
523.1313, 128.4217
523.6134, 129.5652
524.0955, 132.6931
524.5776, 135.9429
525.0598, 137.9503
525.5419, 138.6794
526.0240, 138.1188
526.5061, 136.2072
526.9882, 133.3692
527.4703, 130.1311
527.9525, 125.0130
528.4346, 123.4091
528.9167, 129.3950
529.3988, 134.3927
529.8809, 133.5339
530.3630, 128.8737
530.8452, 124.7872
531.3273, 123.2455
531.8094, 123.4093
532.2915, 124.9771
532.7736, 127.8266
533.2557, 127.8479
533.7379, 122.6132
534.2200, 117.6020
534.7021, 119.1784
535.1842, 126.1938
535.6663, 130.6285
536.1484, 129.0059
536.6306, 127.3576
537.1127, 129.2062
537.5948, 133.0172
538.0769, 136.5600
538.5590, 139.0492
539.0411, 139.9763
539.5233, 138.4181
540.0054, 134.0850
540.4875, 130.3363
540.9696, 125.4054
541.4517, 123.6067
541.9338, 129.0079
542.4160, 136.9335
542.8981, 141.5201
543.3802, 141.0732
543.8623, 138.6413
544.3444, 135.6758
544.8265, 132.6940
545.3087, 131.3320
545.7908, 131.8612
546.2729, 132.1195
546.7550, 130.2433
547.2371, 126.8929
547.7192, 125.6762
548.2014, 127.0273
548.6835, 129.6871
549.1656, 136.0337
549.6477, 141.8792
550.1298, 142.7179
550.6119, 138.9403
551.0941, 134.9342
551.5762, 134.4426
552.0583, 136.0872
552.5404, 134.3766
553.0225, 127.9937
553.5046, 124.1581
553.9868, 126.8128
554.4689, 131.5803
554.9510, 133.6935
555.4331, 133.1184
555.9152, 131.8211
556.3973, 129.1433
556.8795, 126.9962
557.3616, 127.4023
557.8437, 129.7982
558.3258, 132.5830
558.8079, 135.1231
559.2900, 136.9217
559.7722, 136.9628
560.2543, 134.5466
560.7364, 132.5355
561.2185, 132.2453
561.7006, 131.0085
562.1827, 126.1232
562.6649, 119.9914
563.1470, 117.0399
563.6291, 119.2179
564.1112, 123.2286
564.5933, 127.3321
565.0754, 130.6945
565.5576, 129.2181
566.0397, 121.6300
566.5218, 114.8332
567.0039, 115.1397
567.4860, 121.6219
567.9681, 124.3486
568.4503, 119.1428
568.9324, 116.1331
569.4145, 118.9502
569.8966, 123.5790
570.3787, 126.2182
570.8608, 126.5306
571.3430, 126.6700
571.8251, 128.8191
572.3072, 131.8861
572.7893, 131.5716
573.2714, 127.0651
573.7535, 123.7153
574.2357, 123.5096
574.7178, 125.0839
575.1999, 127.3981
575.6820, 130.5770
576.1641, 131.6160
576.6462, 127.0385
577.1284, 122.5714
577.6105, 123.2605
578.0926, 127.2585
578.5747, 129.8413
579.0568, 129.1104
579.5389, 127.0594
580.0211, 126.8786
580.5032, 128.9791
580.9853, 130.5610
581.4674, 131.2886
581.9495, 131.9381
582.4316, 133.4966
582.9138, 134.9718
583.3959, 134.3107
583.8780, 130.1649
584.3601, 127.4614
584.8422, 130.9601
585.3243, 137.4194
585.8065, 141.4265
586.2886, 142.4657
586.7707, 142.6892
587.2528, 143.6459
587.7349, 144.7984
588.2170, 143.8301
588.6992, 137.3619
589.1813, 134.5146
589.6634, 137.4613
590.1455, 142.2769
590.6276, 147.7967
591.1097, 153.1112
591.5919, 156.4142
592.0740, 156.1215
592.5561, 154.4213
593.0382, 153.7878
593.5203, 154.2230
594.0024, 155.8720
594.4846, 158.9230
594.9667, 162.6006
595.4488, 166.3582
595.9309, 170.1905
596.4130, 173.1444
596.8951, 174.6611
597.3773, 176.1108
597.8594, 178.6025
598.3415, 180.7276
598.8236, 179.9955
599.3057, 176.6518
599.7878, 174.7304
600.2700, 178.8896
600.7521, 186.6989
601.2342, 190.6304
601.7163, 190.4745
602.1984, 188.3617
602.6805, 184.1562
603.1627, 179.4369
603.6448, 177.1342
604.1269, 177.8121
604.6090, 175.7184
605.0911, 167.1779
605.5732, 158.8268
606.0554, 154.0692
606.5375, 152.1411
607.0196, 151.7756
607.5017, 152.4466
607.9838, 153.4989
608.4659, 154.2574
608.9481, 154.7121
609.4302, 154.6373
609.9123, 153.9604
610.3944, 152.8960
610.8765, 150.8528
611.3586, 148.8430
611.8408, 148.4526
612.3229, 149.8168
612.8050, 152.3676
613.2871, 157.5072
613.7692, 162.5286
614.2513, 165.0449
614.7335, 165.3874
615.2156, 164.3247
615.6977, 162.1136
616.1798, 160.9041
616.6619, 165.6563
617.1440, 177.6631
617.6262, 186.1306
618.1083, 188.6572
618.5904, 190.3419
619.0725, 194.4845
619.5546, 199.6083
620.0367, 202.6737
620.5189, 201.5113
621.0010, 202.7225
621.4831, 211.1077
621.9652, 222.4324
622.4473, 232.9509
622.9294, 241.6130
623.4116, 245.9422
623.8937, 243.6678
624.3758, 239.0783
624.8579, 244.5099
625.3400, 263.8268
625.8221, 279.4815
626.3043, 290.1443
626.7864, 296.3018
627.2685, 296.7046
627.7506, 293.3046
628.2327, 290.7832
628.7148, 291.0440
629.1970, 290.8751
629.6791, 287.5782
630.1612, 283.0042
630.6433, 280.0441
631.1254, 278.9566
631.6075, 277.9487
632.0897, 275.4377
632.5718, 272.5516
633.0539, 273.4590
633.5360, 278.4803
634.0181, 286.5411
634.5002, 300.6690
634.9824, 314.8180
635.4645, 323.0251
635.9466, 328.0608
636.4287, 338.6009
636.9108, 357.9197
637.3929, 382.2726
637.8751, 410.3546
638.3572, 441.4040
638.8393, 475.7249
639.3214, 512.5812
639.8035, 545.5882
640.2856, 568.2798
640.7678, 584.5857
641.2499, 614.6700
641.7320, 666.4709
642.2141, 712.4292
642.6962, 750.4378
643.1783, 779.1627
643.6605, 798.0657
644.1426, 807.0592
644.6247, 805.7695
645.1068, 791.4092
645.5889, 770.2584
646.0710, 747.0190
646.5532, 719.7751
647.0353, 684.5856
647.5174, 641.1901
647.9995, 592.2358
648.4816, 538.9398
648.9637, 483.3755
649.4459, 434.1943
649.9280, 390.7986
650.4101, 355.4065
650.8922, 331.7689
651.3743, 313.4823
651.8564, 297.2228
652.3386, 282.6008
652.8207, 268.2699
653.3028, 253.3165
653.7849, 239.2113
654.2670, 226.8385
654.7491, 215.9126
655.2313, 206.2957
655.7134, 197.7872
656.1955, 189.0497
656.6776, 178.4910
657.1597, 167.6184
657.6418, 163.2650
658.1240, 167.9530
658.6061, 170.5800
659.0882, 168.5287
659.5703, 164.5882
660.0524, 160.2792
660.5345, 155.8135
661.0167, 152.1401
661.4988, 150.8278
661.9809, 148.5445
662.4630, 141.2782
662.9451, 133.3631
663.4272, 131.2986
663.9094, 135.0504
664.3915, 139.0274
664.8736, 139.1490
665.3557, 136.6939
665.8378, 135.5654
666.3199, 136.2426
666.8021, 134.8464
667.2842, 128.8833
667.7663, 123.5530
668.2484, 124.5187
668.7305, 129.7025
669.2126, 131.8121
669.6948, 127.7794
670.1769, 124.1439
670.6590, 123.9960
671.1411, 124.4939
671.6232, 121.7303
672.1053, 116.6316
672.5875, 114.1110
673.0696, 117.6522
673.5517, 123.6720
674.0338, 124.9492
674.5159, 121.5733
674.9980, 119.3441
675.4802, 119.0728
675.9623, 120.0225
676.4444, 122.2677
676.9265, 125.2724
677.4086, 126.7906
677.8907, 126.0788
678.3729, 125.2802
678.8550, 124.2261
679.3371, 123.5559
679.8192, 124.1152
680.3013, 125.4086
680.7834, 126.3532
681.2656, 126.5396
681.7477, 125.6980
682.2298, 122.7774
682.7119, 118.4774
683.1940, 115.1318
683.6761, 112.9145
684.1583, 113.6159
684.6404, 119.4888
685.1225, 127.4478
685.6046, 129.5376
686.0867, 122.3272
686.5688, 116.2926
687.0510, 110.4939
687.5331, 106.7757
688.0152, 106.5074
688.4973, 108.6486
688.9794, 112.1760
689.4615, 117.0188
689.9437, 120.2897
690.4258, 118.1882
690.9079, 113.9064
691.3900, 112.9973
691.8721, 115.2016
692.3542, 117.1792
692.8364, 117.5154
693.3185, 116.3251
693.8006, 113.4353
694.2827, 108.2718
694.7648, 105.2136
695.2469, 105.3186
695.7291, 105.9539
696.2112, 105.9094
696.6933, 106.1152
697.1754, 107.7295
697.6575, 110.8687
698.1396, 114.1732
698.6218, 119.1776
699.1039, 122.2817
699.5860, 118.6061
700.0681, 111.3998
700.5502, 107.2758
701.0323, 107.9670
701.5145, 110.0006
701.9966, 109.8776
702.4787, 108.0235
702.9608, 106.7738
703.4429, 106.2268
703.9250, 105.6762
704.4072, 104.3789
704.8893, 103.7844
705.3714, 106.3446
705.8535, 111.7462
706.3356, 114.3874
706.8177, 111.8648
707.2999, 109.3235
707.7820, 108.1907
708.2641, 107.7626
708.7462, 107.1124
709.2283, 106.3920
709.7104, 106.8544
710.1926, 109.9059
710.6747, 113.0967
711.1568, 111.6173
711.6389, 106.7469
712.1210, 105.4065
712.6031, 109.0103
713.0853, 112.0391
713.5674, 110.1768
714.0495, 104.9353
714.5316, 101.9538
715.0137, 101.8109
715.4958, 102.8742
715.9780, 106.7509
716.4601, 110.0972
716.9422, 110.9404
717.4243, 110.2334
717.9064, 110.0325
718.3885, 111.1878
718.8707, 111.2033
719.3528, 107.0883
719.8349, 102.0219
720.3170, 99.58641
720.7991, 99.76235
721.2813, 101.7279
721.7634, 105.1314
722.2455, 108.7163
722.7276, 110.4323
723.2097, 110.2700
723.6918, 111.3340
724.1740, 114.4432
724.6561, 116.1625
725.1382, 114.2857
725.6203, 111.1861
726.1024, 110.5629
726.5845, 112.5764
727.0667, 112.9633
727.5488, 109.9668
728.0309, 106.9093
728.5130, 104.2352
728.9951, 102.7114
729.4772, 103.7873
729.9594, 107.1332
730.4415, 110.2201
730.9236, 111.0024
731.4057, 110.9171
731.8878, 113.3172
732.3699, 117.0772
732.8521, 116.0229
733.3342, 108.6671
733.8163, 102.0820
734.2984, 102.2481
734.7805, 107.4144
735.2626, 109.7758
735.7448, 107.3238
736.2269, 106.5141
736.7090, 110.1660
737.1911, 113.0905
737.6732, 111.9672
738.1553, 108.4859
738.6375, 105.9133
739.1196, 104.7389
739.6017, 104.7840
740.0838, 106.5744
740.5659, 109.0626
741.0480, 111.9630
741.5302, 114.6336
742.0123, 115.7107
742.4944, 114.6900
742.9765, 112.5664
743.4586, 110.1465
743.9407, 107.5882
744.4229, 105.5730
744.9050, 104.0332
745.3871, 104.2027
745.8692, 107.0816
746.3513, 110.6328
746.8334, 112.3806
747.3156, 112.2535
747.7977, 111.4877
748.2798, 109.1014
748.7619, 107.3693
749.2440, 107.3742
749.7261, 107.6054
750.2083, 106.3442
750.6904, 104.0447
751.1725, 103.0927
751.6546, 105.6114
752.1367, 107.8102
752.6188, 105.7399
753.1010, 101.9595
753.5831, 100.2494
754.0652, 100.9989
754.5473, 103.3864
755.0294, 107.0710
755.5115, 111.0318
755.9937, 113.5179
756.4758, 114.5302
756.9579, 113.2638
757.4400, 108.7372
757.9221, 105.2024
758.4042, 105.0240
758.8864, 106.8215
759.3685, 108.3932
759.8506, 109.9977
760.3327, 110.2598
760.8148, 108.2903
761.2969, 106.0140
761.7791, 103.5011
762.2612, 101.4083
762.7433, 100.2949
763.2254, 100.2779
763.7075, 101.3212
764.1896, 104.5527
764.6718, 107.6696
765.1539, 107.9786
765.6360, 106.4917
766.1181, 105.3619
766.6002, 104.9337
767.0823, 104.0479
767.5645, 101.5946
768.0466, 98.94125
768.5287, 100.5594
769.0108, 107.1504
769.4929, 110.3053
769.9750, 107.7067
770.4572, 105.5925
770.9393, 108.1125
771.4214, 113.2953
771.9035, 116.6616
772.3856, 118.0601
772.8677, 118.1775
773.3499, 116.5707
773.8320, 114.2045
774.3141, 110.1265
774.7962, 106.2524
775.2783, 105.2103
775.7604, 107.2947
776.2426, 109.9303
776.7247, 112.2516
777.2068, 113.8294
777.6889, 113.1743
778.1710, 111.6903
778.6531, 113.2611
779.1353, 118.1658
779.6174, 122.1252
780.0995, 121.6171
780.5816, 118.2387
781.0637, 115.8545
781.5458, 114.4369
782.0280, 115.0512
782.5101, 118.6993
782.9922, 121.5345
783.4743, 120.6541
783.9564, 117.6677
784.4385, 116.5608
784.9207, 118.1132
785.4028, 119.6650
785.8849, 120.4743
786.3670, 122.1275
786.8491, 125.8163
787.3312, 130.3342
787.8134, 135.4242
788.2955, 140.6413
788.7776, 141.8186
789.2597, 132.4595
789.7418, 122.7009
790.2239, 121.1416
790.7061, 124.5995
791.1882, 128.4884
791.6703, 131.5210
792.1524, 133.0080
792.6345, 132.2258
793.1166, 130.3613
793.5988, 129.7832
794.0809, 130.3725
794.5630, 130.7577
795.0451, 130.7085
795.5272, 131.2811
796.0093, 133.4329
796.4915, 135.9197
796.9736, 136.0398
797.4557, 132.9288
797.9378, 130.8168
798.4199, 129.2887
798.9020, 129.3706
799.3842, 133.9942
799.8663, 138.4942
800.3484, 136.9132
800.8305, 129.5690
801.3126, 124.9277
801.7947, 127.4028
802.2769, 130.4815
802.7590, 131.1687
803.2411, 130.8716
803.7232, 130.9120
804.2053, 131.5089
804.6874, 132.7030
805.1696, 134.6867
805.6517, 136.3977
806.1338, 135.7059
806.6159, 133.9789
807.0980, 135.3918
807.5801, 139.7265
808.0623, 142.8642
808.5444, 143.0650
809.0265, 140.6055
809.5086, 135.1887
809.9907, 126.9384
810.4728, 121.9186
810.9550, 120.7860
811.4371, 120.7054
811.9192, 120.9267
812.4013, 121.9956
812.8834, 125.0024
813.3655, 129.5915
813.8477, 132.4721
814.3298, 134.3691
814.8119, 133.5816
815.2940, 126.2968
815.7761, 119.8217
816.2582, 120.0927
816.7404, 124.0484
817.2225, 125.6486
817.7046, 123.2476
818.1867, 119.4284
818.6688, 113.0695
819.1509, 108.2264
819.6331, 110.2064
820.1152, 116.3136
820.5973, 121.5544
821.0794, 124.3919
821.5615, 124.5614
822.0436, 121.2018
822.5258, 116.0078
823.0079, 112.1670
823.4900, 109.7162
823.9721, 109.4076
824.4542, 111.4641
824.9363, 112.8432
825.4185, 111.4034
825.9006, 108.3900
826.3827, 106.6061
826.8648, 106.0755
827.3469, 106.8397
827.8290, 109.9478
828.3111, 112.3234
828.7932, 112.4242
829.2753, 111.5064
829.7574, 111.3893
830.2396, 112.0879
830.7217, 111.2814
831.2038, 107.1747
831.6859, 103.7163
832.1680, 100.9645
832.6501, 100.0083
833.1323, 103.3612
833.6144, 109.1101
834.0965, 111.8002
834.5786, 108.5295
835.0607, 105.8480
835.5428, 109.7999
836.0250, 115.3840
836.5071, 116.6678
836.9892, 114.7543
837.4713, 113.8655
837.9534, 115.1080
838.4355, 114.8050
838.9177, 107.5062
839.3998, 97.64154
839.8819, 97.77612
840.3640, 106.3535
840.8461, 111.9086
841.3282, 112.1238
841.8104, 109.5071
842.2925, 105.2203
842.7746, 100.8260
843.2567, 101.0799
843.7388, 107.3855
844.2209, 111.4540
844.7031, 112.3130
845.1852, 112.7584
845.6673, 114.8529
846.1494, 116.3158
846.6315, 113.0938
847.1136, 104.4347
847.5958, 99.19743
848.0779, 99.67430
848.5600, 100.4790
849.0421, 100.6583
849.5242, 100.6876
850.0063, 99.78354
850.4885, 99.14275
850.9706, 102.7108
851.4527, 114.0567
851.9348, 121.4300
852.4169, 114.9520
852.8990, 105.8481
853.3812, 103.5508
853.8633, 106.0898
854.3454, 109.3108
854.8275, 111.7880
855.3096, 112.8404
855.7917, 111.1619
856.2739, 108.5800
856.7560, 107.7644
857.2381, 108.3469
857.7202, 110.0645
858.2023, 112.4828
858.6844, 112.8094
859.1666, 109.1770
859.6487, 103.5408
860.1308, 98.37513
860.6129, 93.84716
861.0950, 95.99893
861.5771, 106.2084
862.0593, 112.6510
862.5414, 110.2272
863.0235, 104.6697
863.5056, 102.3176
863.9877, 102.9689
864.4698, 103.5963
864.9520, 104.0329
865.4341, 104.8489
865.9162, 106.6575
866.3983, 108.1958
866.8804, 109.1676
867.3625, 109.1915
867.8447, 106.9013
868.3268, 100.8859
868.8089, 97.81750
869.2910, 101.0252
869.7731, 104.3322
870.2552, 104.9620
870.7374, 104.6085
871.2195, 105.6905
871.7016, 107.8908
872.1837, 108.1166
872.6658, 103.1995
873.1479, 99.50987
873.6301, 102.7005
874.1122, 107.6122
874.5943, 108.9443
875.0764, 107.1484
875.5585, 104.2431
876.0406, 101.0134
876.5228, 98.67081
877.0049, 99.03243
877.4870, 100.5267
877.9691, 99.45788
878.4512, 97.41523
878.9333, 100.7550
879.4155, 109.8619
879.8976, 116.3296
880.3797, 113.8297
880.8618, 107.3894
881.3439, 107.9931
881.8260, 114.6706
882.3082, 115.6861
882.7903, 110.0584
883.2724, 106.5868
883.7545, 109.4867
884.2366, 112.7461
884.7188, 108.2935
885.2009, 97.14404
885.6830, 92.12667
886.1651, 95.45396
886.6472, 97.69641
887.1293, 96.45293
887.6115, 95.86989
888.0936, 99.45726
888.5757, 105.0736
889.0578, 107.5262
889.5399, 105.3353
890.0220, 104.7297
890.5042, 109.3207
890.9863, 110.8170
891.4684, 101.7902
891.9505, 92.79980
892.4326, 96.12045
892.9147, 109.0410
893.3969, 115.5549
893.8790, 107.9858
894.3611, 101.8217
894.8432, 103.4519
895.3253, 106.1478
895.8074, 104.4748
896.2896, 100.9143
896.7717, 100.1918
897.2538, 103.2212
897.7359, 106.8758
898.2180, 111.0974
898.7001, 113.5182
899.1823, 110.0264
899.6644, 104.8892
900.1465, 104.3408
900.6286, 108.0210
901.1107, 111.9617
901.5928, 114.4413
902.0750, 115.1314
902.5571, 112.0960
903.0392, 107.9017
903.5213, 108.3517
904.0034, 111.7404
904.4855, 111.1181
904.9677, 105.2210
905.4498, 99.87640
905.9319, 99.83452
906.4140, 103.0748
906.8961, 105.8658
907.3782, 108.1808
907.8604, 110.0727
908.3425, 111.5115
908.8246, 110.8429
909.3067, 107.1070
909.7888, 102.9018
910.2709, 101.4782
910.7531, 102.6243
911.2352, 105.0050
911.7173, 109.0860
912.1994, 111.0584
912.6815, 109.9711
913.1636, 107.4858
913.6458, 103.8881
914.1279, 100.6505
914.6100, 101.5148
915.0921, 107.9912
915.5742, 110.4034
916.0563, 105.7650
916.5385, 103.1379
917.0206, 106.6351
917.5027, 111.0742
917.9848, 111.5689
918.4669, 108.9093
918.9490, 107.3906
919.4312, 108.0944
919.9133, 108.0328
920.3954, 105.9650
920.8775, 104.5229
921.3596, 105.0981
921.8417, 106.6603
922.3239, 108.0247
922.8060, 109.1293
923.2881, 110.3890
923.7702, 113.0512
924.2523, 114.2615
924.7344, 111.7584
925.2166, 108.9135
925.6987, 108.5087
926.1808, 109.4649
926.6629, 109.4440
927.1450, 107.9118
927.6271, 106.1853
928.1093, 104.2337
928.5914, 102.9657
929.0735, 103.6342
929.5556, 104.8052
930.0377, 104.2107
930.5198, 102.5197
931.0020, 102.8406
931.4841, 106.8328
931.9662, 110.1734
932.4483, 108.8767
932.9304, 105.9478
933.4125, 104.3872
933.8947, 103.7544
934.3768, 102.6963
934.8589, 101.1845
935.3410, 100.8495
935.8231, 103.2437
936.3052, 105.3788
936.7874, 102.1005
937.2695, 96.84139
937.7516, 96.37335
938.2337, 99.94550
938.7158, 103.7185
939.1979, 106.3784
939.6801, 107.9798
940.1622, 108.3493
940.6443, 108.0922
941.1264, 108.6579
941.6085, 109.6260
942.0906, 109.1510
942.5728, 107.2412
943.0549, 105.6487
943.5370, 105.1704
944.0191, 105.1533
944.5012, 104.6627
944.9833, 104.0095
945.4655, 104.6296
945.9476, 106.4278
946.4297, 108.1886
946.9118, 109.7052
947.3939, 110.7757
947.8760, 111.3058
948.3582, 111.1446
948.8403, 109.8735
949.3224, 107.5295
949.8045, 105.2344
950.2866, 102.8902
950.7687, 101.7955
951.2509, 102.5266
951.7330, 103.2656
952.2151, 102.5876
952.6972, 100.9492
953.1793, 99.07864
953.6614, 96.31709
954.1436, 97.84829
954.6257, 105.1604
955.1078, 111.6052
955.5899, 115.5312
956.0720, 116.6546
956.5541, 113.6532
957.0363, 107.9873
957.5184, 106.7103
958.0005, 111.7197
958.4826, 115.3479
958.9647, 116.8173
959.4468, 118.0975
959.9290, 120.1890
960.4111, 122.1397
960.8932, 122.8033
961.3753, 122.2438
961.8574, 121.2052
962.3395, 117.4701
962.8217, 117.9524
963.3038, 128.2736
963.7859, 135.5179
964.2680, 130.7569
964.7501, 121.6040
965.2322, 119.4805
965.7144, 124.9561
966.1965, 125.9226
966.6786, 117.1767
967.1607, 111.6305
967.6428, 112.1004
968.1249, 114.1599
968.6071, 116.9299
969.0892, 119.1160
969.5713, 118.0635
970.0534, 113.1318
970.5355, 109.9073
971.0176, 109.2894
971.4998, 109.7045
971.9819, 111.6053
972.4640, 113.6876
972.9461, 115.2285
973.4282, 116.2783
973.9103, 116.8803
974.3925, 116.8772
974.8746, 117.3816
975.3567, 118.9552
975.8388, 120.5469
976.3209, 121.0912
976.8030, 122.1818
977.2852, 126.9833
977.7673, 133.0777
978.2494, 133.2543
978.7315, 124.0011
979.2136, 119.5438
979.6957, 128.8848
980.1779, 136.5374
980.6600, 133.6344
981.1421, 127.9381
981.6242, 126.6177
982.1063, 129.1533
982.5884, 132.2434
983.0706, 135.9888
983.5527, 137.3560
984.0348, 133.8381
984.5169, 129.5699
984.9990, 123.6743
985.4811, 120.3275
985.9633, 126.5882
986.4454, 139.5593
986.9275, 147.1811
987.4096, 144.1995
987.8917, 141.5469
988.3738, 143.4705
988.8560, 146.6127
989.3381, 149.8607
989.8202, 152.6094
990.3023, 153.9552
990.7844, 154.1941
991.2665, 154.9113
991.7487, 156.9082
992.2308, 158.6253
992.7129, 156.8239
993.1950, 157.2972
993.6771, 166.7989
994.1592, 179.1218
994.6414, 185.0454
995.1235, 185.0742
995.6056, 188.0669
996.0877, 198.7329
996.5698, 208.9413
997.0519, 212.7690
997.5341, 217.0788
998.0162, 228.7150
998.4983, 242.7512
998.9804, 250.9956
999.4625, 253.8411
999.9446, 260.5782
1000.427, 276.6635
1000.909, 292.7823
1001.391, 304.9495
1001.873, 315.2241
1002.355, 321.8858
1002.837, 329.4913
1003.319, 346.7166
1003.802, 372.4483
1004.284, 393.2495
1004.766, 401.6337
1005.248, 408.8808
1005.730, 420.0885
1006.212, 432.3597
1006.694, 442.0171
1007.176, 452.0955
1007.659, 468.7795
1008.141, 491.3730
1008.623, 510.5836
1009.105, 523.8440
1009.587, 531.1494
1010.069, 530.9840
1010.551, 526.4053
1011.033, 517.7749
1011.515, 507.2346
1011.998, 497.7503
1012.480, 489.3916
1012.962, 479.5822
1013.444, 467.8198
1013.926, 453.6847
1014.408, 435.3911
1014.890, 416.2675
1015.372, 398.8053
1015.854, 381.8802
1016.337, 363.2919
1016.819, 343.1949
1017.301, 324.7660
1017.783, 309.0224
1018.265, 294.9415
1018.747, 282.7471
1019.229, 271.3375
1019.711, 259.2872
1020.194, 247.9902
1020.676, 239.8204
1021.158, 234.5562
1021.640, 229.3297
1022.122, 223.6400
1022.604, 217.3339
1023.086, 208.6851
1023.568, 201.3023
1024.051, 197.6444
1024.533, 196.1864
1025.015, 195.5377
1025.497, 195.2885
1025.979, 194.3134
1026.461, 191.1287
1026.943, 189.7582
1027.425, 191.6190
1027.907, 194.9870
1028.390, 200.2580
1028.872, 205.6548
1029.354, 208.9314
1029.836, 210.4598
1030.318, 212.9119
1030.800, 217.7823
1031.282, 221.2378
1031.764, 218.8851
1032.246, 219.6069
1032.729, 229.0718
1033.211, 241.8447
1033.693, 252.9649
1034.175, 262.5283
1034.657, 272.2153
1035.139, 282.9118
1035.621, 292.0139
1036.103, 296.0347
1036.586, 302.7163
1037.068, 316.1058
1037.550, 331.8973
1038.032, 346.8762
1038.514, 361.0923
1038.996, 374.9437
1039.478, 388.2036
1039.960, 401.7457
1040.443, 413.6778
1040.925, 428.9383
1041.407, 454.6055
1041.889, 477.2032
1042.371, 483.7098
1042.853, 480.2350
1043.335, 483.6405
1043.817, 496.7532
1044.299, 504.8432
1044.781, 508.0307
1045.264, 505.5537
1045.746, 494.7979
1046.228, 482.5744
1046.710, 473.7482
1047.192, 466.6058
1047.674, 457.6801
1048.156, 447.0406
1048.638, 433.9232
1049.121, 417.2711
1049.603, 401.1906
1050.085, 384.7984
1050.567, 374.4279
1051.049, 375.7279
1051.531, 381.4238
1052.013, 378.8924
1052.495, 368.6338
1052.978, 361.6547
1053.460, 357.8711
1053.942, 358.2808
1054.424, 363.5010
1054.906, 370.2893
1055.388, 377.4871
1055.870, 383.1595
1056.352, 384.3762
1056.834, 381.9562
1057.317, 380.2530
1057.799, 379.1923
1058.281, 375.1870
1058.763, 367.8550
1059.245, 360.6170
1059.727, 354.9402
1060.209, 347.9781
1060.691, 336.3069
1061.173, 322.0563
1061.656, 311.2630
1062.138, 302.8471
1062.620, 291.1378
1063.102, 276.2477
1063.584, 262.2812
1064.066, 250.4982
1064.548, 238.5993
1065.030, 224.3000
1065.513, 210.6161
1065.995, 203.9940
1066.477, 201.0110
1066.959, 192.6260
1067.441, 180.7624
1067.923, 173.2708
1068.405, 171.2568
1068.887, 169.9882
1069.370, 166.9558
1069.852, 161.9246
1070.334, 151.6509
1070.816, 141.6705
1071.298, 141.6689
1071.780, 146.3789
1072.262, 145.7700
1072.744, 139.6937
1073.226, 133.6650
1073.708, 129.7487
1074.191, 128.5680
1074.673, 133.1728
1075.155, 137.8218
1075.637, 137.8491
1076.119, 135.3374
1076.601, 131.6234
1077.083, 127.8548
1077.565, 125.9404
1078.047, 126.3630
1078.530, 127.3788
1079.012, 129.4630
1079.494, 130.3621
1079.976, 128.9666
1080.458, 126.1534
1080.940, 121.3132
1081.422, 116.1655
1081.904, 113.4992
1082.387, 113.4711
1082.869, 113.1223
1083.351, 112.0561
1083.833, 110.4330
1084.315, 105.3314
1084.797, 103.1998
1085.279, 110.8910
1085.761, 120.0418
1086.244, 120.5397
1086.726, 114.1510
1087.208, 110.4308
1087.690, 109.6127
1088.172, 111.1932
1088.654, 118.1530
1089.136, 121.2378
1089.618, 115.6458
1090.100, 109.5888
1090.583, 109.6318
1091.065, 113.5287
1091.547, 115.9706
1092.029, 116.8917
1092.511, 117.4475
1092.993, 117.7403
1093.475, 116.8893
1093.957, 114.5964
1094.439, 111.8038
1094.922, 108.8150
1095.404, 106.7537
1095.886, 107.6618
1096.368, 110.5262
1096.850, 109.7941
1097.332, 106.3044
1097.814, 108.4449
1098.296, 116.2570
1098.779, 120.3522
1099.261, 117.3536
1099.743, 113.2447
1100.225, 113.2872
1100.707, 115.7000
1101.189, 117.7072
1101.671, 119.7435
1102.153, 122.9519
1102.635, 126.9833
1103.118, 131.4390
1103.600, 135.6880
1104.082, 137.0986
1104.564, 133.7504
1105.046, 130.0205
1105.528, 130.1115
1106.010, 131.2863
1106.492, 129.4271
1106.974, 127.8413
1107.457, 133.3353
1107.939, 143.0866
1108.421, 147.3373
1108.903, 143.0741
1109.385, 137.9941
1109.867, 134.5593
1110.349, 132.0172
1110.831, 131.4082
1111.314, 130.1843
1111.796, 124.1132
1112.278, 117.3759
1112.760, 118.6573
1113.242, 128.0576
1113.724, 130.7053
1114.206, 117.9599
1114.688, 110.2571
1115.171, 111.1101
1115.653, 113.1680
1116.135, 113.9832
1116.617, 115.0374
1117.099, 118.3907
1117.581, 122.7259
1118.063, 123.5813
1118.545, 120.3786
1119.027, 116.9908
1119.510, 113.0701
1119.992, 110.8118
1120.474, 110.8837
1120.956, 111.5173
1121.438, 111.6715
1121.920, 111.7269
1122.402, 112.4231
1122.884, 113.3981
1123.366, 113.3477
1123.849, 112.1958
1124.331, 108.4318
1124.813, 102.6277
1125.295, 100.2581
1125.777, 102.9288
1126.259, 105.2905
1126.741, 102.8044
1127.223, 98.12950
1127.706, 92.80488
1128.188, 89.08536
1128.670, 91.82486
1129.152, 98.46707
1129.634, 104.9564
1130.116, 109.7058
1130.598, 110.3269
1131.080, 105.2782
1131.563, 100.1985
1132.045, 96.96732
1132.527, 96.48561
1133.009, 101.8609
1133.491, 107.9523
1133.973, 111.0414
1134.455, 110.7854
1134.937, 105.9701
1135.419, 96.47408
1135.901, 90.58008
1136.384, 92.60651
1136.866, 93.53905
1137.348, 90.04630
1137.830, 88.47450
1138.312, 91.95519
1138.794, 97.51197
1139.276, 103.3360
1139.758, 108.4022
1140.241, 108.5965
1140.723, 102.6139
1141.205, 100.3570
1141.687, 102.5239
1142.169, 104.0230
1142.651, 103.8162
1143.133, 102.5842
1143.615, 100.5984
1144.098, 98.72389
1144.580, 98.42504
1145.062, 98.88097
1145.544, 97.00394
1146.026, 93.73602
1146.508, 92.32141
1146.990, 92.96748
1147.472, 96.46887
1147.954, 102.1346
1148.437, 103.0929
1148.919, 93.19136
1149.401, 83.60343
1149.883, 86.83941
1150.365, 94.46500
1150.847, 99.64893
1151.329, 102.0344
1151.811, 101.0007
1152.293, 97.46348
1152.776, 93.07888
1153.258, 88.00037
1153.740, 86.19984
1154.222, 92.17580
1154.704, 96.98363
1155.186, 96.63258
1155.668, 95.82371
1156.150, 98.35768
1156.633, 101.1897
1157.115, 99.86612
1157.597, 95.31597
1158.079, 92.96318
1158.561, 93.49060
1159.043, 94.09489
1159.525, 94.99709
1160.007, 94.98759
1160.490, 93.51300
1160.972, 92.29497
1161.454, 92.41530
1161.936, 93.44171
1162.418, 94.95992
1162.900, 96.63598
1163.382, 96.85377
1163.864, 96.02660
1164.346, 96.71788
1164.828, 98.37966
1165.311, 96.28394
1165.793, 89.72669
1166.275, 85.24678
1166.757, 87.65005
1167.239, 92.23737
1167.721, 96.52602
1168.203, 98.61101
1168.685, 93.99025
1169.168, 87.67590
1169.650, 86.87536
1170.132, 90.31181
1170.614, 92.84951
1171.096, 93.40059
1171.578, 92.08401
1172.060, 84.97194
1172.542, 81.92990
1173.025, 89.35459
1173.507, 96.30476
1173.989, 96.52956
1174.471, 94.98484
1174.953, 96.88096
1175.435, 101.0335
1175.917, 103.1672
1176.399, 103.0108
1176.881, 102.5823
1177.364, 101.8362
1177.846, 101.3323
1178.328, 101.2455
1178.810, 99.82178
1179.292, 95.99900
1179.774, 93.10037
1180.256, 95.48463
1180.738, 100.6094
1181.220, 104.3556
1181.703, 106.2025
1182.185, 102.9573
1182.667, 97.26941
1183.149, 96.80992
1183.631, 101.8597
1184.113, 105.9043
1184.595, 105.9012
1185.077, 105.4469
1185.560, 106.4603
1186.042, 107.9873
1186.524, 110.8982
1187.006, 112.7040
1187.488, 109.9852
1187.970, 105.4556
1188.452, 103.6090
1188.934, 104.6450
1189.417, 106.3865
1189.899, 110.1312
1190.381, 111.3087
1190.863, 108.6443
1191.345, 106.7638
1191.827, 106.9520
1192.309, 108.1807
1192.791, 110.1448
1193.273, 111.3300
1193.755, 108.8105
1194.238, 103.8759
1194.720, 101.1502
1195.202, 100.7687
1195.684, 105.3850
1196.166, 113.1319
1196.648, 114.5237
1197.130, 108.1009
1197.612, 102.7589
1198.095, 103.8267
1198.577, 106.7189
1199.059, 109.2941
1199.541, 110.2177
1200.023, 107.3384
1200.505, 103.1729
1200.987, 99.51445
1201.469, 97.02546
1201.952, 96.98415
1202.434, 99.41777
1202.916, 100.5900
1203.398, 100.4430
1203.880, 98.02885
1204.362, 90.44607
1204.844, 86.83550
1205.326, 91.45970
1205.808, 96.45572
1206.291, 95.99765
1206.773, 93.17287
1207.255, 93.28786
1207.737, 95.71740
1208.219, 97.21776
1208.701, 97.98665
1209.183, 99.77646
1209.665, 102.0613
1210.147, 100.9295
1210.630, 95.88674
1211.112, 91.65089
1211.594, 91.23141
1212.076, 91.18704
1212.558, 87.31789
1213.040, 84.00781
1213.522, 85.37115
1214.004, 88.72984
1214.487, 92.33064
1214.969, 95.25792
1215.451, 96.16045
1215.933, 95.00832
1216.415, 93.75179
1216.897, 92.99190
1217.379, 91.05167
1217.861, 86.16655
1218.344, 84.59301
1218.826, 89.17187
1219.308, 93.30866
1219.790, 92.52789
1220.272, 90.15157
1220.754, 91.34523
1221.236, 94.55422
1221.718, 94.03622
1222.200, 90.92146
1222.682, 89.61730
1223.165, 89.67989
1223.647, 87.90666
1224.129, 84.20302
1224.611, 81.80289
1225.093, 82.20633
1225.575, 84.31182
1226.057, 89.07540
1226.539, 93.11679
1227.022, 94.01824
1227.504, 93.85288
1227.986, 93.55276
1228.468, 93.66292
1228.950, 95.95856
1229.432, 99.37615
1229.914, 97.93481
1230.396, 89.24406
1230.879, 86.73119
1231.361, 92.11702
1231.843, 95.47966
1232.325, 94.90885
1232.807, 94.36415
1233.289, 95.75213
1233.771, 96.97044
1234.253, 95.92000
1234.735, 93.38876
1235.218, 89.69427
1235.700, 86.18006
1236.182, 85.54279
1236.664, 86.80097
1237.146, 87.65564
1237.628, 88.47997
1238.110, 91.90916
1238.592, 98.53566
1239.074, 103.5384
1239.557, 105.2781
1240.039, 105.0172
1240.521, 102.3228
1241.003, 98.56422
1241.485, 93.54764
1241.967, 88.62617
1242.449, 84.32806
1242.931, 81.53063
1243.414, 82.19051
1243.896, 85.86359
1244.378, 89.20390
1244.860, 92.19469
1245.342, 94.83385
1245.824, 97.02938
1246.306, 98.69225
1246.788, 99.49467
1247.271, 96.54222
1247.753, 87.64423
1248.235, 81.73563
1248.717, 90.50698
1249.199, 100.3898
1249.681, 100.5883
1250.163, 97.61837
1250.645, 97.03754
1251.127, 97.39783
1251.609, 95.94218
1252.092, 92.80068
1252.574, 89.52451
1253.056, 85.20558
1253.538, 85.70358
1254.020, 92.91662
1254.502, 96.82731
1254.984, 95.64773
1255.466, 93.62054
1255.949, 92.47002
1256.431, 92.24908
1256.913, 93.20932
1257.395, 94.23058
1257.877, 93.95533
1258.359, 92.31019
1258.841, 87.75101
1259.323, 82.70808
1259.806, 80.83324
##END=



