##NAMES=Montebrasite
##RRUFFID=R050500
##IDEAL CHEMISTRY=LiAlPO_4_(OH)
##LOCALITY=Pala, San Diego County, California, USA
##OWNER=RRUFF
##SOURCE=California Institute of Technology
##DESCRIPTION=White fragment
##STATUS=The identification of this mineral has been confirmed by X-ray diffraction and chemical analysis
##URL=rruff.info/R050500
##MEASURED CHEMISTRY=LiAl(PO_4_)((OH)_0.52_F_0.48_)
92.37695, 339.4183
92.85907, 338.3280
93.34119, 338.9084
93.82330, 338.2985
94.30542, 335.9952
94.78754, 332.1284
95.26965, 327.5099
95.75177, 323.6210
96.23389, 322.0401
96.71600, 320.8217
97.19812, 318.2245
97.68024, 313.8418
98.16235, 309.1457
98.64447, 306.3601
99.12659, 306.5606
99.60870, 304.9304
100.0908, 299.7804
100.5729, 293.9089
101.0551, 288.9142
101.5372, 289.5423
102.0193, 289.6460
102.5014, 289.2568
102.9835, 286.7180
103.4656, 287.0928
103.9478, 286.3842
104.4299, 285.6889
104.9120, 286.6458
105.3941, 284.7292
105.8762, 285.7812
106.3583, 285.7324
106.8405, 286.2750
107.3226, 285.7273
107.8047, 285.5951
108.2868, 284.8249
108.7689, 284.7617
109.2510, 284.9423
109.7332, 285.3775
110.2153, 285.8197
110.6974, 285.8694
111.1795, 285.9884
111.6616, 287.0472
112.1437, 289.5340
112.6259, 292.3203
113.1080, 294.3366
113.5901, 295.6360
114.0722, 296.3408
114.5543, 296.1995
115.0364, 295.2646
115.5185, 294.6675
116.0007, 294.8321
116.4828, 295.2932
116.9649, 295.6369
117.4470, 295.8250
117.9291, 296.3240
118.4112, 298.0544
118.8934, 302.0450
119.3755, 304.6717
119.8576, 304.4131
120.3397, 303.4573
120.8218, 303.5763
121.3039, 305.4785
121.7861, 308.5255
122.2682, 310.8921
122.7503, 311.8266
123.2324, 312.7908
123.7145, 314.1266
124.1966, 315.5132
124.6788, 316.3770
125.1609, 316.3201
125.6430, 315.5160
126.1251, 315.5031
126.6072, 316.8735
127.0893, 318.2380
127.5715, 319.1556
128.0536, 319.6092
128.5357, 319.6617
129.0178, 319.4249
129.4999, 318.7510
129.9821, 317.3255
130.4642, 314.7617
130.9463, 311.6266
131.4284, 308.5127
131.9105, 305.4935
132.3926, 302.2451
132.8748, 298.0685
133.3569, 293.4547
133.8390, 289.4341
134.3211, 286.6219
134.8032, 284.7722
135.2853, 283.0786
135.7674, 281.9221
136.2496, 280.3526
136.7317, 277.4989
137.2138, 273.8374
137.6959, 270.5687
138.1780, 268.7000
138.6601, 268.3511
139.1423, 268.1520
139.6244, 268.5164
140.1065, 268.6912
140.5886, 268.0627
141.0707, 266.8083
141.5528, 265.7215
142.0350, 265.8165
142.5171, 267.7277
142.9992, 269.2431
143.4813, 270.0605
143.9634, 270.7600
144.4455, 271.8554
144.9277, 273.4258
145.4098, 275.0210
145.8919, 275.8539
146.3740, 275.0925
146.8561, 275.1154
147.3382, 276.3001
147.8204, 278.2255
148.3025, 280.5179
148.7846, 283.1275
149.2667, 285.7663
149.7488, 287.7459
150.2309, 288.8922
150.7131, 290.1888
151.1952, 292.2807
151.6773, 294.8741
152.1594, 296.8795
152.6415, 297.4219
153.1236, 297.6696
153.6058, 299.5529
154.0879, 303.5939
154.5700, 307.6431
155.0521, 309.6420
155.5342, 309.4773
156.0163, 309.6812
156.4985, 311.5155
156.9806, 313.9899
157.4627, 316.3749
157.9448, 318.4951
158.4269, 320.5122
158.9090, 322.7648
159.3912, 325.5030
159.8733, 327.7910
160.3554, 329.3621
160.8375, 330.4707
161.3196, 331.2394
161.8017, 330.6643
162.2839, 333.1177
162.7660, 334.7476
163.2481, 335.5825
163.7302, 334.1329
164.2123, 334.9514
164.6944, 334.4441
165.1766, 333.5969
165.6587, 333.8836
166.1408, 331.2350
166.6229, 330.9038
167.1050, 329.2311
167.5871, 327.7386
168.0693, 324.9134
168.5514, 322.1916
169.0335, 318.9520
169.5156, 315.0289
169.9977, 310.4946
170.4798, 306.8993
170.9620, 304.5836
171.4441, 302.6559
171.9262, 300.8252
172.4083, 299.0664
172.8904, 297.3993
173.3725, 295.9733
173.8547, 294.6700
174.3368, 292.7285
174.8189, 289.4693
175.3010, 286.0331
175.7831, 283.4291
176.2652, 281.7084
176.7474, 280.1052
177.2295, 277.9115
177.7116, 275.4082
178.1937, 273.3610
178.6758, 272.2976
179.1579, 271.6435
179.6401, 270.5116
180.1222, 268.7787
180.6043, 266.9309
181.0864, 265.2230
181.5685, 263.6178
182.0506, 262.0801
182.5328, 260.5443
183.0149, 259.0704
183.4970, 257.8807
183.9791, 257.2353
184.4612, 256.4781
184.9433, 255.3122
185.4255, 253.8625
185.9076, 252.2961
186.3897, 250.5826
186.8718, 248.7930
187.3539, 247.7706
187.8360, 248.6374
188.3182, 249.1134
188.8003, 248.2806
189.2824, 246.5419
189.7645, 244.7811
190.2466, 243.7435
190.7287, 243.4717
191.2109, 242.7766
191.6930, 240.9976
192.1751, 239.4256
192.6572, 238.5794
193.1393, 238.3288
193.6214, 238.2564
194.1036, 238.0361
194.5857, 237.6903
195.0678, 236.9522
195.5499, 235.3348
196.0320, 233.8521
196.5141, 233.1933
196.9963, 233.2184
197.4784, 233.1219
197.9605, 232.0353
198.4426, 229.7263
198.9247, 228.5875
199.4068, 229.4256
199.8890, 230.6944
200.3711, 231.6056
200.8532, 232.0308
201.3353, 231.8613
201.8174, 230.7444
202.2995, 228.6254
202.7817, 227.3528
203.2638, 227.6353
203.7459, 228.4230
204.2280, 228.7359
204.7101, 228.4573
205.1922, 228.0463
205.6744, 227.9332
206.1565, 228.0521
206.6386, 228.0879
207.1207, 228.1419
207.6028, 228.0188
208.0849, 227.3004
208.5671, 225.7810
209.0492, 224.3214
209.5313, 223.6540
210.0134, 223.5544
210.4955, 223.6480
210.9776, 223.9152
211.4598, 224.2693
211.9419, 224.4783
212.4240, 224.4214
212.9061, 224.4743
213.3882, 225.2204
213.8703, 226.2184
214.3525, 226.5906
214.8346, 225.5025
215.3167, 223.4434
215.7988, 222.2934
216.2809, 222.6624
216.7630, 223.0293
217.2451, 222.5718
217.7273, 221.6723
218.2094, 221.0022
218.6915, 221.0070
219.1736, 221.5788
219.6557, 222.0881
220.1378, 222.5912
220.6200, 222.9368
221.1021, 223.0762
221.5842, 223.0408
222.0663, 222.8757
222.5484, 222.5997
223.0305, 222.2208
223.5127, 221.8169
223.9948, 221.5491
224.4769, 221.0719
224.9590, 219.9473
225.4411, 218.5943
225.9232, 217.7469
226.4054, 217.9438
226.8875, 219.0722
227.3696, 219.8145
227.8517, 220.2925
228.3338, 220.2272
228.8159, 218.9613
229.2981, 217.1382
229.7802, 215.9144
230.2623, 216.0910
230.7444, 217.5069
231.2265, 218.3161
231.7086, 217.8584
232.1908, 217.5658
232.6729, 218.0654
233.1550, 218.9847
233.6371, 219.5335
234.1192, 219.1866
234.6013, 218.0982
235.0835, 217.4268
235.5656, 217.6149
236.0477, 217.6466
236.5298, 216.8091
237.0119, 215.5750
237.4940, 215.0723
237.9762, 216.0594
238.4583, 218.1337
238.9404, 219.3801
239.4225, 219.6788
239.9046, 219.4864
240.3867, 218.5958
240.8689, 217.2939
241.3510, 216.3067
241.8331, 216.0303
242.3152, 216.2739
242.7973, 216.3987
243.2794, 216.0636
243.7616, 216.1428
244.2437, 217.5937
244.7258, 219.8626
245.2079, 221.1162
245.6900, 220.1991
246.1721, 218.3113
246.6543, 217.9496
247.1364, 219.5301
247.6185, 221.2930
248.1006, 222.3918
248.5827, 222.9554
249.0648, 223.4387
249.5470, 223.9364
250.0291, 224.4944
250.5112, 225.1216
250.9933, 225.7876
251.4754, 226.6631
251.9576, 228.0217
252.4397, 229.7264
252.9218, 231.2036
253.4039, 232.2375
253.8860, 233.0532
254.3681, 233.8871
254.8503, 234.7395
255.3324, 235.6206
255.8145, 236.5445
256.2966, 237.5038
256.7787, 238.4571
257.2608, 239.3798
257.7430, 240.3206
258.2251, 241.2003
258.7072, 242.0638
259.1893, 243.2119
259.6714, 244.9804
260.1535, 247.2517
260.6357, 249.4203
261.1178, 251.5332
261.5999, 253.3601
262.0820, 254.6944
262.5641, 255.6576
263.0462, 256.6219
263.5284, 257.9453
264.0105, 259.5191
264.4926, 260.6546
264.9747, 260.8700
265.4568, 261.3391
265.9389, 262.7309
266.4211, 264.7528
266.9032, 266.8203
267.3853, 268.6873
267.8674, 270.3164
268.3495, 271.5147
268.8316, 271.9805
269.3138, 272.4536
269.7959, 273.0995
270.2780, 273.9476
270.7601, 275.1369
271.2422, 276.9123
271.7243, 278.9040
272.2065, 279.7133
272.6886, 278.3189
273.1707, 277.4569
273.6528, 278.3752
274.1349, 279.9670
274.6170, 280.8570
275.0992, 280.3626
275.5813, 279.1474
276.0634, 278.8882
276.5455, 280.0637
277.0276, 281.3546
277.5097, 282.3769
277.9919, 283.4409
278.4740, 284.7496
278.9561, 286.3863
279.4382, 288.4610
279.9203, 291.2918
280.4024, 295.3092
280.8846, 299.1660
281.3667, 302.5182
281.8488, 305.8085
282.3309, 309.4116
282.8130, 313.3965
283.2951, 317.4676
283.7773, 321.2013
284.2594, 324.5448
284.7415, 327.6510
285.2236, 329.8461
285.7057, 332.3481
286.1878, 336.1253
286.6700, 341.1332
287.1521, 346.4557
287.6342, 351.0074
288.1163, 354.4296
288.5984, 358.3786
289.0805, 362.7117
289.5627, 367.6153
290.0448, 373.5557
290.5269, 380.2700
291.0090, 386.9131
291.4911, 392.7032
291.9732, 397.5598
292.4554, 402.4414
292.9375, 406.9630
293.4196, 411.9020
293.9017, 417.6976
294.3838, 424.1266
294.8659, 430.6909
295.3481, 437.0208
295.8302, 443.6467
296.3123, 449.5222
296.7944, 456.7157
297.2765, 463.4423
297.7586, 469.7407
298.2408, 475.3433
298.7229, 479.8835
299.2050, 483.1544
299.6871, 485.1705
300.1692, 485.9532
300.6513, 485.8229
301.1335, 483.7933
301.6156, 479.9790
302.0977, 474.1951
302.5798, 465.7572
303.0619, 454.4738
303.5440, 441.5675
304.0262, 429.4319
304.5083, 418.9949
304.9904, 408.0829
305.4725, 395.9427
305.9546, 383.8198
306.4367, 372.4173
306.9189, 362.0321
307.4010, 352.8342
307.8831, 345.2549
308.3652, 340.4063
308.8473, 334.2705
309.3294, 325.6420
309.8116, 316.8750
310.2937, 309.0807
310.7758, 302.5002
311.2579, 297.1746
311.7400, 293.3341
312.2221, 291.2381
312.7043, 288.5683
313.1864, 285.1308
313.6685, 281.3967
314.1506, 277.1010
314.6327, 272.6163
315.1148, 268.7412
315.5970, 266.1205
316.0791, 264.6596
316.5612, 263.0659
317.0433, 261.8586
317.5254, 259.9286
318.0075, 256.2775
318.4897, 251.9119
318.9718, 248.3498
319.4539, 246.3868
319.9360, 245.6053
320.4181, 244.6685
320.9002, 243.9061
321.3824, 242.5141
321.8645, 239.9151
322.3466, 236.9447
322.8287, 234.2514
323.3108, 232.1092
323.7929, 230.5916
324.2751, 229.9685
324.7572, 231.3336
325.2393, 231.4293
325.7214, 229.5080
326.2035, 227.0614
326.6856, 224.9789
327.1678, 223.4294
327.6499, 222.1513
328.1320, 220.8477
328.6141, 219.4593
329.0962, 218.3480
329.5783, 217.5362
330.0605, 216.9342
330.5426, 216.6211
331.0247, 216.4985
331.5068, 216.3810
331.9889, 216.1501
332.4710, 215.7962
332.9532, 215.1609
333.4353, 213.8214
333.9174, 212.6411
334.3995, 211.8147
334.8816, 211.2457
335.3637, 210.8308
335.8459, 210.5281
336.3280, 210.2580
336.8101, 209.7664
337.2922, 208.6516
337.7743, 207.9315
338.2564, 207.9193
338.7386, 208.1637
339.2206, 208.3067
339.7028, 208.2365
340.1849, 208.0189
340.6670, 207.7941
341.1491, 207.7471
341.6312, 207.2045
342.1133, 205.7301
342.5955, 204.1943
343.0776, 202.9046
343.5597, 201.9763
344.0418, 201.5479
344.5239, 201.8876
345.0060, 203.0728
345.4882, 203.6602
345.9703, 202.9182
346.4524, 202.2564
346.9345, 202.1279
347.4166, 202.3434
347.8987, 202.4845
348.3809, 202.2624
348.8630, 201.8316
349.3451, 201.8692
349.8272, 202.0025
350.3093, 203.5699
350.7914, 202.7318
351.2736, 204.0025
351.7557, 204.6887
352.2378, 204.8218
352.7199, 202.7451
353.2020, 203.5219
353.6841, 203.1551
354.1663, 202.7415
354.6484, 203.9198
355.1305, 202.1646
355.6126, 203.3177
356.0947, 203.3098
356.5768, 203.8333
357.0590, 203.2062
357.5411, 202.9345
358.0232, 203.8138
358.5053, 204.0557
358.9874, 203.2962
359.4695, 203.8535
359.9517, 202.0580
360.4338, 202.3271
360.9159, 202.7780
361.3980, 203.6313
361.8801, 204.2502
362.3622, 204.6533
362.8444, 204.7544
363.3265, 204.3092
363.8086, 203.6685
364.2907, 203.2050
364.7728, 203.0449
365.2549, 202.9861
365.7371, 202.6853
366.2192, 202.0805
366.7013, 201.8071
367.1834, 202.3412
367.6655, 202.9994
368.1476, 203.3677
368.6298, 203.4106
369.1119, 203.1189
369.5940, 202.1668
370.0761, 200.7811
370.5582, 200.1790
371.0403, 200.9050
371.5225, 201.6125
372.0046, 201.1624
372.4867, 199.9994
372.9688, 199.1450
373.4509, 199.2332
373.9330, 198.6108
374.4152, 199.7493
374.8973, 200.3060
375.3794, 200.3125
375.8615, 198.1120
376.3436, 198.7677
376.8257, 198.2827
377.3079, 197.7536
377.7900, 198.8193
378.2721, 196.9542
378.7542, 198.0002
379.2363, 197.8881
379.7184, 198.3101
380.2006, 197.5843
380.6827, 197.2167
381.1648, 198.0028
381.6469, 198.1545
382.1290, 197.3074
382.6111, 197.7800
383.0933, 195.9026
383.5754, 196.0925
384.0575, 197.1761
384.5396, 196.4008
385.0217, 196.9084
385.5038, 196.9312
385.9860, 194.7414
386.4681, 196.4073
386.9502, 196.4097
387.4323, 194.7041
387.9144, 196.2464
388.3965, 194.7822
388.8787, 194.3949
389.3608, 194.8187
389.8429, 194.4027
390.3250, 194.5061
390.8071, 194.9562
391.2892, 194.4829
391.7714, 194.5114
392.2535, 194.3541
392.7356, 194.1906
393.2177, 193.7876
393.6998, 193.0659
394.1819, 192.4891
394.6641, 191.7920
395.1462, 191.4559
395.6283, 192.0152
396.1104, 193.2130
396.5925, 194.2561
397.0746, 194.6020
397.5568, 194.4141
398.0389, 194.6274
398.5210, 195.8210
399.0031, 196.7213
399.4852, 197.0492
399.9673, 197.0805
400.4495, 196.9319
400.9316, 196.6987
401.4137, 196.7802
401.8958, 197.8827
402.3779, 200.5449
402.8600, 202.7688
403.3422, 204.1669
403.8243, 205.5475
404.3064, 207.1178
404.7885, 209.0126
405.2706, 211.4675
405.7527, 214.7268
406.2349, 218.6892
406.7170, 222.3986
407.1991, 225.6325
407.6812, 228.8910
408.1633, 232.6076
408.6454, 236.2737
409.1276, 239.2182
409.6097, 241.1771
410.0918, 242.7614
410.5739, 245.0064
411.0560, 248.1215
411.5381, 250.7145
412.0203, 251.5957
412.5024, 252.7217
412.9845, 255.1791
413.4666, 258.9202
413.9487, 263.3498
414.4308, 268.4686
414.9130, 273.9842
415.3951, 278.6063
415.8772, 281.8413
416.3593, 285.3963
416.8414, 290.4201
417.3235, 296.2759
417.8057, 302.1312
418.2878, 307.6290
418.7699, 313.4026
419.2520, 320.2393
419.7341, 328.0453
420.2162, 335.8991
420.6984, 343.3580
421.1805, 350.9396
421.6626, 359.7261
422.1447, 369.8412
422.6268, 378.5027
423.1089, 385.1180
423.5911, 389.5341
424.0732, 391.6561
424.5553, 391.4695
425.0374, 388.6884
425.5195, 382.9925
426.0016, 374.2443
426.4838, 363.4136
426.9659, 349.5468
427.4480, 334.7056
427.9301, 319.0220
428.4122, 303.1198
428.8943, 288.2135
429.3765, 274.6531
429.8586, 262.6606
430.3407, 252.7078
430.8228, 245.6281
431.3049, 239.0342
431.7870, 232.7934
432.2692, 227.1538
432.7513, 222.3168
433.2334, 218.2899
433.7155, 214.9644
434.1976, 212.3481
434.6797, 210.3859
435.1619, 208.2053
435.6440, 205.1619
436.1261, 202.6425
436.6082, 201.2212
437.0903, 200.2990
437.5724, 199.0608
438.0546, 197.2522
438.5367, 195.4399
439.0188, 194.6693
439.5009, 195.4665
439.9830, 195.5997
440.4651, 194.1044
440.9473, 192.7447
441.4294, 192.5368
441.9115, 193.1846
442.3936, 193.7215
442.8757, 193.5059
443.3578, 192.7074
443.8400, 191.7684
444.3221, 190.3758
444.8042, 189.6335
445.2863, 190.9169
445.7684, 192.5102
446.2505, 192.5548
446.7327, 190.5788
447.2148, 188.5370
447.6969, 188.4487
448.1790, 189.9158
448.6611, 190.6667
449.1432, 190.1626
449.6254, 189.2712
450.1075, 188.4879
450.5896, 187.8779
451.0717, 187.7527
451.5538, 188.5047
452.0359, 189.5574
452.5181, 190.5237
453.0002, 191.3613
453.4823, 191.6753
453.9644, 191.0273
454.4465, 190.0570
454.9286, 190.3795
455.4108, 192.4487
455.8929, 194.1460
456.3750, 194.8724
456.8571, 195.0518
457.3392, 194.9434
457.8214, 194.6636
458.3035, 194.6608
458.7856, 195.4107
459.2677, 196.9280
459.7498, 197.9626
460.2319, 198.0050
460.7141, 198.2328
461.1962, 199.2796
461.6783, 200.6191
462.1604, 201.3065
462.6425, 201.0157
463.1246, 200.5490
463.6068, 201.3824
464.0889, 204.2033
464.5710, 206.4953
465.0531, 208.1376
465.5352, 209.3991
466.0173, 210.2088
466.4995, 210.7360
466.9816, 211.3121
467.4637, 212.1182
467.9458, 213.1700
468.4279, 214.5449
468.9100, 216.3322
469.3922, 218.2293
469.8743, 220.3560
470.3564, 222.4412
470.8385, 224.1911
471.3206, 225.5691
471.8027, 226.9296
472.2849, 228.5574
472.7670, 230.3975
473.2491, 232.3215
473.7312, 234.4817
474.2133, 236.2342
474.6954, 236.4527
475.1776, 235.9425
475.6597, 236.6831
476.1418, 240.0265
476.6239, 243.4095
477.1060, 244.8699
477.5881, 244.9066
478.0703, 245.0078
478.5524, 245.6578
479.0345, 246.5700
479.5166, 247.4155
479.9987, 248.2836
480.4808, 248.6028
480.9630, 247.9026
481.4451, 247.0104
481.9272, 246.5623
482.4093, 246.4427
482.8914, 246.1204
483.3735, 245.2518
483.8557, 244.0122
484.3378, 243.0355
484.8199, 242.8184
485.3020, 242.1404
485.7841, 240.4496
486.2662, 238.6525
486.7484, 237.5431
487.2305, 237.1304
487.7126, 236.8218
488.1947, 236.1180
488.6768, 235.0229
489.1589, 233.6020
489.6411, 231.5307
490.1232, 229.6436
490.6053, 228.3339
491.0874, 227.2570
491.5695, 226.0637
492.0516, 224.6658
492.5338, 223.0701
493.0159, 221.1769
493.4980, 219.0316
493.9801, 217.1520
494.4622, 215.7739
494.9443, 214.3705
495.4265, 212.1446
495.9086, 209.4995
496.3907, 207.6949
496.8728, 208.0269
497.3549, 208.4266
497.8370, 206.9460
498.3192, 204.0183
498.8013, 201.1972
499.2834, 199.0347
499.7655, 197.3614
500.2476, 195.9178
500.7297, 194.7197
501.2119, 193.7062
501.6940, 193.1151
502.1761, 192.5098
502.6582, 191.5649
503.1403, 190.3218
503.6224, 188.9646
504.1045, 187.5901
504.5866, 186.2362
505.0688, 185.0260
505.5509, 183.9223
506.0330, 183.0393
506.5151, 182.6917
506.9972, 182.3144
507.4793, 181.3558
507.9615, 179.8823
508.4436, 178.4848
508.9257, 177.6918
509.4078, 177.3995
509.8899, 176.9504
510.3720, 176.1104
510.8542, 175.6279
511.3363, 176.5215
511.8184, 177.5233
512.3005, 177.0777
512.7827, 174.7683
513.2648, 172.5859
513.7469, 172.3670
514.2290, 173.4412
514.7111, 173.8907
515.1932, 173.4680
515.6754, 172.4326
516.1575, 170.7220
516.6396, 168.5172
517.1217, 166.6992
517.6038, 164.8433
518.0859, 163.9133
518.5681, 165.3588
519.0502, 167.7634
519.5323, 168.4148
520.0144, 166.5813
520.4965, 164.1901
520.9786, 163.7146
521.4608, 165.6915
521.9429, 166.2891
522.4250, 164.1738
522.9071, 162.3633
523.3892, 162.1991
523.8713, 162.9626
524.3535, 163.5075
524.8356, 163.3604
525.3177, 162.8438
525.7998, 162.3926
526.2819, 160.8003
526.7640, 162.0299
527.2462, 162.6749
527.7283, 162.7669
528.2104, 160.6492
528.6925, 161.3848
529.1746, 160.9770
529.6567, 160.5222
530.1389, 161.6595
530.6210, 159.8631
531.1031, 160.9751
531.5852, 160.9262
532.0673, 161.4086
532.5494, 160.7404
533.0316, 160.4276
533.5137, 161.2657
533.9958, 161.4666
534.4779, 160.6659
534.9600, 161.1821
535.4421, 159.3456
535.9243, 159.5735
536.4064, 160.6923
536.8885, 159.9495
537.3706, 160.4867
537.8527, 160.5364
538.3348, 158.3707
538.8170, 160.0578
539.2991, 160.0788
539.7812, 158.3888
540.2633, 159.9439
540.7454, 158.4898
541.2275, 158.1099
541.7097, 158.5382
542.1918, 158.1239
542.6739, 159.0381
543.1560, 158.6725
543.6381, 158.1925
544.1202, 158.9409
544.6024, 159.8635
545.0845, 159.7486
545.5666, 158.7028
546.0487, 157.6123
546.5308, 156.6900
547.0129, 156.1317
547.4951, 156.5051
547.9772, 157.7798
548.4593, 158.7417
548.9414, 158.8230
549.4235, 158.3950
549.9056, 158.0530
550.3878, 157.7754
550.8699, 157.6458
551.3520, 157.9097
551.8341, 158.1538
552.3162, 157.8914
552.7983, 157.2629
553.2805, 156.8704
553.7626, 157.0859
554.2447, 157.6794
554.7268, 157.9797
555.2089, 157.8126
555.6910, 157.6486
556.1732, 157.6840
556.6553, 157.5696
557.1374, 156.8123
557.6195, 155.6783
558.1016, 155.0328
558.5837, 155.5659
559.0659, 156.7151
559.5480, 157.0211
560.0301, 156.2741
560.5122, 155.9707
560.9943, 157.0143
561.4764, 158.1941
561.9586, 158.1440
562.4407, 156.9568
562.9228, 156.1159
563.4049, 156.4418
563.8870, 157.1907
564.3691, 157.5956
564.8513, 157.6930
565.3334, 157.8541
565.8155, 158.2913
566.2976, 158.7455
566.7797, 158.6890
567.2618, 157.7396
567.7440, 157.1658
568.2261, 157.1514
568.7082, 157.3431
569.1903, 157.6340
569.6724, 157.9568
570.1545, 158.2121
570.6367, 158.3403
571.1188, 158.4173
571.6009, 158.7137
572.0830, 159.4630
572.5651, 159.5173
573.0472, 158.0579
573.5294, 156.5493
574.0115, 155.5841
574.4936, 155.1960
574.9757, 155.4598
575.4578, 156.8277
575.9399, 158.2822
576.4221, 158.3690
576.9042, 157.3722
577.3863, 156.9317
577.8684, 157.5535
578.3505, 158.7700
578.8326, 160.2694
579.3148, 162.0995
579.7969, 163.0661
580.2790, 162.1717
580.7611, 161.4111
581.2432, 161.8998
581.7253, 163.1315
582.2075, 164.3033
582.6896, 165.1105
583.1717, 165.5959
583.6538, 165.7257
584.1359, 165.3914
584.6180, 165.4753
585.1002, 166.1059
585.5823, 167.0398
586.0643, 168.1828
586.5464, 169.5760
587.0286, 171.4870
587.5107, 174.0658
587.9928, 176.2793
588.4749, 176.8460
588.9570, 176.1822
589.4391, 175.8631
589.9213, 176.0399
590.4034, 176.6547
590.8855, 177.8848
591.3676, 179.5058
591.8497, 180.6515
592.3318, 180.9979
592.8140, 181.4453
593.2961, 182.3077
593.7782, 183.3974
594.2603, 184.4934
594.7424, 185.5744
595.2245, 186.7679
595.7067, 188.1656
596.1888, 189.7541
596.6709, 191.4522
597.1530, 193.2727
597.6351, 195.2036
598.1172, 197.4140
598.5994, 199.5847
599.0815, 201.6691
599.5636, 203.5413
600.0457, 204.7997
600.5278, 204.8815
601.0099, 204.3785
601.4921, 204.7503
601.9742, 206.0223
602.4563, 206.1548
602.9384, 204.2039
603.4205, 201.1220
603.9026, 197.9927
604.3848, 194.7641
604.8669, 192.0344
605.3490, 190.5924
605.8311, 188.9828
606.3132, 185.4812
606.7953, 181.1735
607.2775, 178.6224
607.7596, 178.8122
608.2417, 180.2251
608.7238, 180.5132
609.2059, 179.3910
609.6880, 178.5753
610.1702, 178.5905
610.6523, 178.3084
611.1344, 176.6725
611.6165, 174.7893
612.0986, 174.3872
612.5807, 176.0430
613.0629, 178.0773
613.5450, 178.7721
614.0271, 178.5876
614.5092, 179.1651
614.9913, 180.7816
615.4734, 182.2857
615.9556, 182.8067
616.4377, 182.7077
616.9198, 183.2841
617.4019, 184.8226
617.8840, 186.4064
618.3661, 187.8108
618.8483, 189.2220
619.3304, 190.9692
619.8125, 192.9188
620.2946, 194.4662
620.7767, 195.1541
621.2589, 195.3841
621.7410, 196.3757
622.2231, 198.4132
622.7052, 200.3671
623.1873, 201.8224
623.6694, 203.4155
624.1516, 205.4511
624.6337, 207.9081
625.1158, 210.6608
625.5979, 213.5756
626.0800, 216.8698
626.5621, 220.9872
627.0443, 225.6767
627.5264, 229.9442
628.0085, 233.5312
628.4906, 236.9623
628.9727, 240.8278
629.4548, 245.1136
629.9370, 249.1139
630.4191, 253.0092
630.9012, 256.4258
631.3833, 259.3864
631.8654, 261.7958
632.3475, 263.2852
632.8297, 263.9964
633.3118, 264.7903
633.7939, 266.3636
634.2760, 268.6328
634.7581, 271.3467
635.2402, 274.6891
635.7224, 277.7428
636.2045, 279.9116
636.6866, 281.9342
637.1687, 284.2894
637.6508, 287.0117
638.1329, 290.7918
638.6151, 296.3955
639.0972, 302.6750
639.5793, 308.7780
640.0614, 314.7470
640.5435, 320.9369
641.0256, 327.4453
641.5078, 333.8343
641.9899, 339.5258
642.4720, 344.5395
642.9541, 348.6942
643.4362, 352.8716
643.9183, 355.0252
644.4005, 354.5608
644.8826, 351.8864
645.3647, 347.4095
645.8468, 341.2427
646.3289, 333.3369
646.8110, 323.3796
647.2932, 311.7672
647.7753, 298.9933
648.2574, 285.0433
648.7395, 272.0348
649.2216, 261.0310
649.7037, 251.3228
650.1859, 241.7141
650.6680, 231.9510
651.1501, 223.2073
651.6322, 215.7281
652.1143, 209.0884
652.5964, 203.1083
653.0786, 197.7976
653.5607, 193.2244
654.0428, 189.4175
654.5249, 186.2958
655.0070, 184.0581
655.4891, 182.7647
655.9713, 180.6294
656.4534, 177.3095
656.9355, 173.8183
657.4176, 169.8525
657.8997, 166.3576
658.3818, 164.7940
658.8640, 165.5736
659.3461, 166.2497
659.8282, 165.6460
660.3103, 164.4265
660.7924, 163.2158
661.2745, 162.0760
661.7567, 160.9717
662.2388, 159.8799
662.7209, 158.8517
663.2030, 157.9988
663.6851, 157.3995
664.1672, 156.7085
664.6494, 155.6413
665.1315, 154.7880
665.6136, 154.6222
666.0957, 154.6854
666.5778, 154.2158
667.0599, 152.9753
667.5421, 151.8282
668.0242, 151.7934
668.5063, 152.3583
668.9884, 152.0603
669.4705, 150.7922
669.9526, 149.9196
670.4348, 150.2605
670.9169, 151.3321
671.3990, 152.1467
671.8811, 152.8571
672.3632, 152.8779
672.8453, 151.5623
673.3275, 150.1830
673.8096, 149.3933
674.2917, 149.0475
674.7738, 148.7556
675.2559, 148.3740
675.7380, 148.1675
676.2202, 148.7398
676.7023, 149.9464
677.1844, 150.2473
677.6665, 149.4113
678.1486, 148.2445
678.6307, 146.9336
679.1129, 145.6652
679.5950, 144.7457
680.0771, 144.1535
680.5592, 143.9444
681.0413, 144.5500
681.5234, 145.1822
682.0056, 145.0127
682.4877, 144.3888
682.9698, 144.3120
683.4519, 145.1990
683.9340, 146.3447
684.4161, 146.6160
684.8983, 145.9040
685.3804, 145.6693
685.8625, 146.4407
686.3446, 146.7589
686.8267, 145.1658
687.3088, 143.2097
687.7910, 142.9339
688.2731, 144.7252
688.7552, 146.0232
689.2373, 145.1100
689.7194, 143.5854
690.2015, 143.1826
690.6837, 143.6926
691.1658, 144.0979
691.6479, 143.9722
692.1300, 143.6689
692.6121, 143.7073
693.0942, 144.1235
693.5764, 144.6536
694.0585, 145.8230
694.5406, 146.3709
695.0227, 145.5117
695.5048, 144.1521
695.9869, 143.2365
696.4691, 142.9034
696.9512, 142.6838
697.4333, 142.1169
697.9154, 141.6188
698.3975, 142.0442
698.8796, 143.1489
699.3618, 143.5954
699.8439, 142.8511
700.3260, 141.6485
700.8081, 140.9311
701.2902, 140.7374
701.7723, 140.6644
702.2545, 140.7405
702.7366, 140.9088
703.2187, 141.5534
703.7008, 142.0325
704.1829, 141.4134
704.6650, 139.8036
705.1472, 138.5871
705.6293, 138.8765
706.1114, 139.9658
706.5935, 140.9659
707.0756, 141.8205
707.5577, 142.0578
708.0399, 141.4468
708.5220, 140.6455
709.0041, 140.3608
709.4862, 140.5941
709.9683, 140.7554
710.4504, 140.5651
710.9326, 140.6741
711.4147, 141.4623
711.8968, 142.3940
712.3789, 143.1306
712.8610, 143.5730
713.3431, 143.5939
713.8253, 143.0056
714.3074, 142.1439
714.7895, 141.4654
715.2716, 140.9726
715.7537, 140.6101
716.2358, 140.3257
716.7180, 140.4293
717.2001, 141.3647
717.6822, 142.9309
718.1643, 143.7878
718.6464, 143.2999
719.1285, 143.0486
719.6107, 143.6507
720.0928, 144.1428
720.5749, 143.5733
721.0570, 142.2949
721.5391, 141.4205
722.0212, 141.5564
722.5034, 141.9786
722.9855, 141.5561
723.4676, 140.4871
723.9497, 140.1020
724.4318, 140.6670
724.9139, 141.1195
725.3961, 140.7410
725.8782, 139.8351
726.3603, 139.2687
726.8424, 139.2924
727.3245, 139.0636
727.8066, 137.9175
728.2888, 137.1221
728.7709, 137.7746
729.2530, 139.1803
729.7351, 139.9521
730.2172, 139.6327
730.6993, 139.2968
731.1815, 140.5842
731.6636, 142.8258
732.1457, 143.2771
732.6278, 141.7446
733.1099, 140.0205
733.5920, 138.6017
734.0742, 137.7978
734.5563, 138.2894
735.0384, 140.5081
735.5205, 141.8150
736.0026, 141.7570
736.4847, 141.3322
736.9669, 140.6446
737.4490, 139.9227
737.9311, 139.3615
738.4132, 139.0126
738.8953, 138.8557
739.3774, 138.9010
739.8596, 139.1047
740.3417, 139.4499
740.8238, 139.9184
741.3059, 140.1750
741.7880, 140.0810
742.2701, 139.9347
742.7523, 140.0142
743.2344, 140.3079
743.7165, 140.6365
744.1986, 141.6057
744.6807, 141.7724
745.1628, 140.0859
745.6450, 138.2536
746.1271, 137.4803
746.6092, 137.7341
747.0913, 138.5741
747.5734, 139.9151
748.0555, 141.2395
748.5377, 141.9384
749.0198, 142.0739
749.5019, 141.7137
749.9840, 140.8353
750.4661, 140.1703
750.9482, 140.2415
751.4304, 140.6941
751.9125, 140.6023
752.3946, 139.3865
752.8767, 139.0189
753.3588, 140.6309
753.8409, 141.7754
754.3231, 140.7934
754.8052, 139.0053
755.2873, 138.4182
755.7694, 139.4772
756.2515, 140.6604
756.7336, 140.7253
757.2158, 140.2309
757.6979, 140.1118
758.1800, 140.3240
758.6621, 140.5296
759.1442, 140.6310
759.6263, 140.5099
760.1085, 139.9540
760.5906, 138.9632
761.0727, 138.4083
761.5548, 138.5180
762.0369, 138.7409
762.5190, 139.3254
763.0012, 139.7127
763.4833, 139.1607
763.9654, 137.9866
764.4475, 137.4437
764.9296, 138.2104
765.4117, 139.4303
765.8939, 140.7666
766.3760, 141.9421
766.8581, 142.3434
767.3402, 141.9559
767.8223, 141.2734
768.3044, 140.5542
768.7866, 139.9754
769.2687, 140.0833
769.7508, 141.1716
770.2329, 141.8562
770.7150, 141.8795
771.1971, 141.8044
771.6793, 141.7863
772.1614, 141.8689
772.6435, 142.1547
773.1256, 142.6780
773.6077, 143.1602
774.0898, 143.8036
774.5720, 144.0836
775.0541, 143.0124
775.5362, 141.3790
776.0183, 140.8582
776.5004, 141.8847
776.9825, 143.4957
777.4647, 144.8538
777.9468, 145.9001
778.4289, 146.2572
778.9110, 145.8174
779.3931, 145.2090
779.8752, 144.2754
780.3574, 143.6875
780.8395, 144.4058
781.3216, 146.0925
781.8037, 146.9625
782.2858, 146.4091
782.7679, 145.8150
783.2501, 145.2381
783.7322, 144.9751
784.2143, 145.4856
784.6964, 146.5132
785.1785, 147.3855
785.6606, 147.7988
786.1428, 148.0094
786.6249, 148.3684
787.1070, 148.8012
787.5891, 148.8897
788.0712, 148.5870
788.5533, 148.5279
789.0355, 148.9649
789.5176, 149.8856
789.9997, 151.4168
790.4818, 153.8121
790.9639, 155.2306
791.4460, 154.5881
791.9282, 153.1680
792.4103, 155.2594
792.8924, 156.7327
793.3745, 157.6193
793.8566, 156.2626
794.3387, 157.7256
794.8209, 158.0116
795.3030, 158.2169
795.7851, 159.9807
796.2672, 158.7773
796.7493, 160.4486
797.2314, 160.9253
797.7136, 161.8998
798.1957, 161.6900
798.6778, 161.8020
799.1599, 163.0314
799.6420, 163.5898
800.1241, 163.1131
800.6063, 163.9197
801.0884, 162.3398
801.5705, 162.7909
802.0526, 164.0992
802.5347, 163.5122
803.0168, 164.1717
803.4990, 164.3100
803.9811, 162.1993
804.4632, 163.9078
804.9453, 163.9165
805.4274, 162.1807
805.9095, 163.6564
806.3917, 162.0891
806.8738, 161.5625
807.3559, 161.1641
807.8380, 160.1866
808.3201, 160.2842
808.8022, 161.3955
809.2844, 162.0397
809.7665, 161.9499
810.2486, 161.4552
810.7307, 160.6763
811.2128, 159.7320
811.6949, 158.9932
812.1771, 158.4476
812.6592, 158.1551
813.1413, 158.4250
813.6234, 158.6008
814.1055, 158.4467
814.5876, 158.0013
815.0698, 157.1415
815.5519, 155.9049
816.0340, 155.0875
816.5161, 155.7440
816.9982, 156.6489
817.4803, 156.1992
817.9625, 154.8385
818.4446, 153.6623
818.9267, 152.9561
819.4088, 152.8146
819.8909, 153.4635
820.3730, 154.4551
820.8552, 153.9494
821.3373, 151.3759
821.8194, 149.8986
822.3015, 150.5168
822.7836, 151.1537
823.2657, 150.3632
823.7479, 148.8057
824.2300, 147.7398
824.7121, 147.2016
825.1942, 147.1447
825.6763, 148.3079
826.1584, 149.1682
826.6406, 148.5659
827.1227, 147.2324
827.6048, 146.1942
828.0869, 145.6961
828.5690, 145.5040
829.0511, 145.6603
829.5333, 145.7743
830.0154, 144.9987
830.4975, 143.5250
830.9796, 142.3249
831.4617, 141.5931
831.9438, 140.8703
832.4260, 139.7354
832.9081, 138.5048
833.3902, 138.1779
833.8723, 139.1561
834.3544, 139.9866
834.8365, 140.5031
835.3187, 141.0659
835.8008, 142.2578
836.2829, 143.3310
836.7650, 143.1897
837.2471, 141.7119
837.7292, 140.3402
838.2114, 139.4716
838.6935, 138.9206
839.1756, 138.4995
839.6577, 138.3584
840.1398, 139.0192
840.6219, 140.2970
841.1041, 141.0774
841.5862, 140.5479
842.0683, 139.3666
842.5504, 138.5295
843.0325, 138.0471
843.5146, 138.1519
843.9968, 138.9318
844.4789, 139.5227
844.9610, 139.4548
845.4431, 138.9379
845.9252, 138.2793
846.4073, 137.3488
846.8895, 136.9447
847.3716, 137.6318
847.8537, 138.0930
848.3358, 137.8572
848.8179, 137.4240
849.3000, 137.3038
849.7822, 137.4263
850.2643, 137.2527
850.7464, 136.2376
851.2285, 135.4911
851.7106, 136.0565
852.1927, 136.9601
852.6749, 136.9323
853.1570, 136.1624
853.6391, 135.6943
854.1212, 136.0081
854.6033, 136.4827
855.0854, 136.2142
855.5676, 135.3969
856.0497, 135.0495
856.5318, 135.2005
857.0139, 135.0281
857.4960, 134.1292
857.9781, 133.3400
858.4603, 133.6000
858.9424, 134.8180
859.4245, 135.9451
859.9066, 137.3253
860.3887, 138.0097
860.8708, 137.3274
861.3530, 136.5698
861.8351, 136.6183
862.3172, 136.9962
862.7993, 136.6463
863.2814, 135.1897
863.7635, 134.2441
864.2457, 135.1771
864.7278, 136.2249
865.2099, 135.8663
865.6920, 134.6668
866.1741, 133.5922
866.6563, 132.9006
867.1384, 132.4709
867.6205, 132.2007
868.1026, 132.1497
868.5847, 132.5775
869.0668, 133.3815
869.5490, 133.9415
870.0311, 134.1754
870.5132, 134.0247
870.9953, 133.3778
871.4774, 132.5061
871.9595, 131.9533
872.4417, 131.7612
872.9238, 131.6501
873.4059, 131.5517
873.8880, 131.6439
874.3701, 132.1315
874.8522, 132.7165
875.3344, 133.3769
875.8165, 133.9832
876.2986, 133.8352
876.7807, 132.1308
877.2628, 130.6408
877.7449, 129.9285
878.2271, 129.7435
878.7092, 130.1514
879.1913, 130.8583
879.6734, 131.3457
880.1555, 131.4282
880.6376, 131.2222
881.1198, 130.4738
881.6019, 129.6901
882.0840, 130.2064
882.5661, 131.6151
883.0482, 131.9790
883.5303, 130.8277
884.0125, 129.3971
884.4946, 128.6764
884.9767, 128.5928
885.4588, 129.0622
885.9409, 130.2934
886.4230, 130.8539
886.9052, 130.3683
887.3873, 129.8392
887.8694, 129.8112
888.3515, 129.9879
888.8336, 129.9564
889.3157, 129.7539
889.7979, 129.0523
890.2800, 126.5552
890.7621, 125.2281
891.2442, 126.9979
891.7263, 129.3372
892.2084, 130.0959
892.6906, 129.4788
893.1727, 128.7054
893.6548, 128.1237
894.1369, 127.7565
894.6190, 127.8250
895.1011, 127.9663
895.5833, 127.5974
896.0654, 126.9541
896.5475, 126.7440
897.0296, 127.1525
897.5117, 127.6802
897.9938, 127.8672
898.4760, 127.8194
898.9581, 127.8239
899.4402, 127.8681
899.9223, 127.8026
900.4044, 127.6044
900.8865, 127.2603
901.3687, 126.7399
901.8508, 126.1097
902.3329, 125.4647
902.8150, 124.6937
903.2971, 124.5083
903.7792, 125.5177
904.2614, 126.0606
904.7435, 125.3341
905.2256, 124.1912
905.7077, 123.1371
906.1898, 122.2819
906.6719, 122.2256
907.1541, 123.8049
907.6362, 124.9681
908.1183, 124.9934
908.6004, 124.6379
909.0825, 124.1185
909.5646, 123.7218
910.0468, 123.9195
910.5289, 124.8039
911.0110, 125.7648
911.4931, 126.7219
911.9752, 127.2575
912.4573, 126.4140
912.9395, 124.9606
913.4216, 124.8222
913.9037, 125.9841
914.3858, 126.3682
914.8679, 124.6248
915.3500, 122.2849
915.8321, 122.3299
916.3142, 124.3252
916.7963, 124.4856
917.2784, 122.5674
917.7606, 121.6820
918.2427, 123.1085
918.7248, 125.1898
919.2069, 126.2785
919.6890, 126.4194
920.1711, 125.8857
920.6533, 124.1364
921.1354, 123.0289
921.6175, 123.1416
922.0996, 123.3511
922.5817, 122.9625
923.0638, 122.3613
923.5460, 122.1991
924.0281, 122.5770
924.5102, 122.6115
924.9923, 121.6827
925.4744, 121.0221
925.9565, 121.0985
926.4387, 121.6092
926.9208, 122.5898
927.4029, 123.7254
927.8850, 124.2214
928.3671, 123.7180
928.8492, 122.9549
929.3314, 121.9594
929.8135, 121.3515
930.2956, 122.3518
930.7777, 124.1665
931.2598, 124.9305
931.7419, 124.2978
932.2241, 123.4182
932.7062, 123.1902
933.1883, 122.6924
933.6704, 122.3399
934.1525, 122.2298
934.6346, 121.8839
935.1168, 121.9017
935.5989, 121.7942
936.0810, 121.2994
936.5631, 120.8554
937.0452, 121.1100
937.5273, 122.0136
938.0095, 122.7816
938.4916, 123.4930
938.9737, 123.6777
939.4558, 122.9145
939.9379, 122.3170
940.4200, 122.8640
940.9022, 124.0182
941.3843, 124.4266
941.8664, 123.9618
942.3485, 123.1356
942.8306, 121.2439
943.3127, 119.9130
943.7949, 119.7786
944.2770, 120.2186
944.7591, 120.9734
945.2412, 121.8365
945.7233, 122.1140
946.2054, 121.1969
946.6876, 120.6902
947.1697, 121.6027
947.6518, 122.7165
948.1339, 123.3293
948.6160, 123.4263
949.0981, 122.8302
949.5803, 121.6745
950.0624, 120.9427
950.5445, 121.3329
951.0266, 122.2452
951.5087, 123.5651
951.9908, 124.7638
952.4730, 124.5787
952.9551, 123.3559
953.4372, 122.8583
953.9193, 123.7942
954.4014, 124.9148
954.8835, 124.6403
955.3657, 123.5397
955.8478, 123.2971
956.3299, 123.8025
956.8120, 124.2588
957.2941, 124.5093
957.7762, 124.7679
958.2584, 125.1821
958.7405, 125.6600
959.2226, 126.0593
959.7047, 126.3950
960.1868, 126.3366
960.6689, 125.7517
961.1511, 125.3090
961.6332, 125.2233
962.1153, 125.2965
962.5974, 125.4420
963.0795, 125.5778
963.5616, 125.3099
964.0438, 124.2062
964.5259, 123.6256
965.0080, 123.6872
965.4901, 124.1276
965.9722, 125.4277
966.4543, 126.6510
966.9365, 126.4817
967.4186, 125.1187
967.9007, 124.6302
968.3828, 126.0459
968.8649, 127.2503
969.3470, 127.9919
969.8292, 128.1710
970.3113, 127.3375
970.7934, 126.0722
971.2755, 125.0090
971.7576, 124.3392
972.2397, 124.6305
972.7219, 126.9619
973.2040, 129.3983
973.6861, 131.0780
974.1682, 131.9274
974.6503, 131.2960
975.1324, 129.8427
975.6146, 129.2342
976.0967, 130.0512
976.5788, 131.2481
977.0609, 131.9567
977.5430, 132.4810
978.0251, 133.3725
978.5073, 134.3888
978.9894, 134.9010
979.4715, 134.8936
979.9536, 134.7437
980.4357, 134.6308
980.9178, 135.0100
981.4000, 136.8491
981.8821, 139.7004
982.3642, 141.8752
982.8463, 143.3906
983.3284, 144.5100
983.8105, 145.2869
984.2927, 145.9384
984.7748, 146.5773
985.2569, 147.3706
985.7390, 148.8354
986.2211, 151.0237
986.7032, 152.7066
987.1854, 153.7618
987.6675, 154.8616
988.1496, 156.0816
988.6317, 157.8806
989.1138, 160.8359
989.5959, 164.6311
990.0781, 167.8537
990.5602, 170.2327
991.0423, 172.8211
991.5244, 175.6387
992.0065, 178.6332
992.4886, 181.6922
992.9708, 185.0319
993.4529, 188.9811
993.9350, 193.4744
994.4171, 197.8438
994.8992, 202.4783
995.3813, 206.3669
995.8635, 208.1319
996.3456, 210.6732
996.8277, 216.1489
997.3098, 222.5510
997.7919, 227.3565
998.2740, 230.4965
998.7562, 233.7048
999.2383, 237.0236
999.7204, 240.8386
1000.203, 245.8200
1000.685, 250.7731
1001.167, 254.7405
1001.649, 258.1718
1002.131, 261.7184
1002.613, 265.5442
1003.095, 269.6730
1003.577, 274.8204
1004.059, 279.4092
1004.542, 282.2375
1005.024, 284.3495
1005.506, 286.3808
1005.988, 288.6559
1006.470, 292.1086
1006.952, 296.8268
1007.434, 300.2660
1007.916, 300.0806
1008.398, 298.4307
1008.881, 297.0808
1009.363, 295.7856
1009.845, 294.4625
1010.327, 292.8362
1010.809, 290.0511
1011.291, 285.8300
1011.773, 281.3461
1012.255, 278.2590
1012.738, 275.1441
1013.220, 268.9557
1013.702, 261.1215
1014.184, 255.1309
1014.666, 251.2277
1015.148, 247.8753
1015.630, 244.3384
1016.112, 240.3747
1016.594, 235.4738
1017.077, 230.0380
1017.559, 224.9096
1018.041, 220.1787
1018.523, 216.5828
1019.005, 214.1180
1019.487, 210.9004
1019.969, 205.7580
1020.451, 200.3852
1020.934, 197.4334
1021.416, 196.4907
1021.898, 195.1383
1022.380, 193.3862
1022.862, 191.5458
1023.344, 189.6357
1023.826, 188.4599
1024.308, 188.6955
1024.791, 189.1574
1025.273, 187.2944
1025.755, 183.2340
1026.237, 182.1691
1026.719, 184.5184
1027.201, 186.5922
1027.683, 187.6003
1028.165, 188.2083
1028.647, 188.6660
1029.130, 189.4229
1029.612, 191.6135
1030.094, 195.4600
1030.576, 197.7114
1031.058, 197.7048
1031.540, 198.4677
1032.022, 200.9701
1032.504, 203.6421
1032.986, 205.3396
1033.469, 206.5187
1033.951, 208.2292
1034.433, 210.5351
1034.915, 212.9826
1035.397, 215.7490
1035.879, 218.2796
1036.361, 220.3219
1036.843, 222.3069
1037.326, 224.3527
1037.808, 226.6505
1038.290, 229.7943
1038.772, 234.2416
1039.254, 237.5344
1039.736, 239.1946
1040.218, 240.4322
1040.700, 240.9660
1041.182, 241.6812
1041.665, 243.2088
1042.147, 245.3510
1042.629, 247.7839
1043.111, 250.8008
1043.593, 252.8462
1044.075, 252.8351
1044.557, 253.2925
1045.039, 255.0928
1045.521, 257.1599
1046.004, 258.6981
1046.486, 259.9824
1046.968, 261.6117
1047.450, 263.6151
1047.932, 265.9843
1048.414, 269.2085
1048.896, 272.1458
1049.378, 274.3446
1049.861, 276.3055
1050.343, 278.3749
1050.825, 280.4896
1051.307, 282.4547
1051.789, 284.2109
1052.271, 286.0989
1052.753, 287.4083
1053.235, 289.8913
1053.718, 295.6665
1054.200, 301.3013
1054.682, 303.8134
1055.164, 304.4584
1055.646, 305.9641
1056.128, 308.7901
1056.610, 311.0427
1057.092, 311.5981
1057.574, 312.3344
1058.057, 314.3021
1058.539, 316.3290
1059.021, 317.5524
1059.503, 318.1596
1059.985, 319.1188
1060.467, 320.5468
1060.949, 319.4779
1061.431, 313.4691
1061.913, 306.7877
1062.396, 301.1191
1062.878, 295.3474
1063.360, 288.6919
1063.842, 281.2831
1064.324, 273.4106
1064.806, 265.1646
1065.288, 256.7579
1065.770, 248.0578
1066.253, 239.5497
1066.735, 231.5814
1067.217, 223.7472
1067.699, 215.3182
1068.181, 206.9752
1068.663, 199.8828
1069.145, 194.1346
1069.627, 188.5749
1070.109, 182.4621
1070.592, 176.9359
1071.074, 172.7127
1071.556, 169.0302
1072.038, 165.0682
1072.520, 161.3624
1073.002, 159.0365
1073.484, 157.9414
1073.966, 156.2690
1074.448, 153.0164
1074.931, 149.8427
1075.413, 147.4894
1075.895, 145.5560
1076.377, 144.0379
1076.859, 142.5821
1077.341, 140.5234
1077.823, 138.0525
1078.305, 136.3200
1078.788, 135.8790
1079.270, 135.6701
1079.752, 135.8544
1080.234, 135.3837
1080.716, 132.7085
1081.198, 129.5666
1081.680, 127.9640
1082.162, 127.8729
1082.644, 128.3447
1083.127, 129.2869
1083.609, 129.7781
1084.091, 129.0932
1084.573, 128.2017
1085.055, 127.6226
1085.537, 127.2009
1086.019, 126.6393
1086.501, 126.0838
1086.984, 126.0697
1087.466, 126.8054
1087.948, 127.2589
1088.430, 126.6902
1088.912, 126.1094
1089.394, 126.0878
1089.876, 126.2523
1090.358, 126.3273
1090.840, 126.2791
1091.323, 126.0632
1091.805, 125.6715
1092.287, 125.4120
1092.769, 125.2943
1093.251, 125.4709
1093.733, 126.5296
1094.215, 127.3980
1094.697, 126.9205
1095.179, 125.8188
1095.662, 125.3943
1096.144, 125.7712
1096.626, 125.9749
1097.108, 125.4020
1097.590, 125.0843
1098.072, 125.7175
1098.554, 126.3195
1099.036, 125.9074
1099.519, 125.3245
1100.001, 125.9357
1100.483, 127.5812
1100.965, 128.5822
1101.447, 128.1181
1101.929, 127.9509
1102.411, 129.0066
1102.893, 129.8846
1103.375, 129.6656
1103.858, 129.1435
1104.340, 128.9358
1104.822, 129.1708
1105.304, 130.2174
1105.786, 132.6811
1106.268, 134.0231
1106.750, 132.5699
1107.232, 131.5476
1107.714, 132.4595
1108.197, 133.7973
1108.679, 134.2856
1109.161, 134.3095
1109.643, 134.9739
1110.125, 136.5537
1110.607, 137.3927
1111.089, 136.8586
1111.571, 136.2567
1112.054, 135.4071
1112.536, 135.0044
1113.018, 135.9395
1113.500, 137.3093
1113.982, 137.5464
1114.464, 136.6102
1114.946, 136.3697
1115.428, 137.6672
1115.911, 138.2468
1116.393, 137.4576
1116.875, 136.6964
1117.357, 136.8176
1117.839, 136.9249
1118.321, 135.6821
1118.803, 133.5098
1119.285, 132.9437
1119.767, 134.8309
1120.250, 136.2517
1120.732, 137.4062
1121.214, 137.6042
1121.696, 136.0858
1122.178, 134.5151
1122.660, 134.4177
1123.142, 135.1118
1123.624, 134.7610
1124.106, 133.1718
1124.589, 132.0172
1125.071, 131.3321
1125.553, 131.0443
1126.035, 131.3292
1126.517, 131.3961
1126.999, 130.6951
1127.481, 129.6887
1127.963, 129.1051
1128.446, 128.9099
1128.928, 128.7962
1129.410, 128.8302
1129.892, 128.1851
1130.374, 126.6346
1130.856, 125.5428
1131.338, 125.5344
1131.820, 125.9296
1132.302, 126.0925
1132.785, 125.9400
1133.267, 125.0968
1133.749, 123.6145
1134.231, 122.1583
1134.713, 120.7766
1135.195, 120.1337
1135.677, 120.4066
1136.159, 120.6639
1136.641, 120.2430
1137.124, 119.3674
1137.606, 118.2071
1138.088, 116.9411
1138.570, 116.2732
1139.052, 116.1265
1139.534, 116.2690
1140.016, 116.5882
1140.498, 116.7152
1140.981, 116.4773
1141.463, 115.9818
1141.945, 115.2105
1142.427, 114.4179
1142.909, 114.0471
1143.391, 113.9933
1143.873, 114.3501
1144.355, 114.7910
1144.838, 114.0700
1145.320, 112.0909
1145.802, 110.7407
1146.284, 111.4616
1146.766, 112.7111
1147.248, 112.9830
1147.730, 112.8539
1148.212, 113.2583
1148.694, 113.6617
1149.177, 112.6694
1149.659, 110.6454
1150.141, 109.6300
1150.623, 110.4814
1151.105, 111.5706
1151.587, 112.1670
1152.069, 112.3298
1152.551, 111.8611
1153.033, 111.1851
1153.516, 110.4508
1153.998, 109.9561
1154.480, 110.3740
1154.962, 111.7520
1155.444, 112.7789
1155.926, 113.1732
1156.408, 112.9170
1156.890, 111.1904
1157.373, 109.7441
1157.855, 109.6072
1158.337, 110.2646
1158.819, 111.6534
1159.301, 113.3217
1159.783, 113.3106
1160.265, 110.5651
1160.747, 108.5414
1161.229, 107.7039
1161.712, 107.2471
1162.194, 106.9319
1162.676, 107.0205
1163.158, 107.9525
1163.640, 109.2101
1164.122, 109.8152
1164.604, 109.7477
1165.086, 109.8914
1165.568, 110.2866
1166.051, 110.8536
1166.533, 111.8413
1167.015, 112.1373
1167.497, 111.0572
1167.979, 109.7256
1168.461, 109.3077
1168.943, 109.5397
1169.425, 109.5701
1169.908, 109.3897
1170.390, 109.3104
1170.872, 109.3343
1171.354, 109.7703
1171.836, 110.7052
1172.318, 111.0647
1172.800, 110.1309
1173.282, 109.0229
1173.765, 109.4744
1174.247, 110.8470
1174.729, 111.2328
1175.211, 110.8869
1175.693, 110.6258
1176.175, 110.5593
1176.657, 110.8368
1177.139, 111.4182
1177.621, 111.4673
1178.104, 110.1589
1178.586, 108.7848
1179.068, 109.1373
1179.550, 110.1727
1180.032, 110.5218
1180.514, 110.4286
1180.996, 110.3728
1181.478, 110.4687
1181.960, 110.7611
1182.443, 111.2724
1182.925, 111.7912
1183.407, 112.3704
1183.889, 112.6960
1184.371, 112.2839
1184.853, 111.8182
1185.335, 112.0362
1185.817, 112.5428
1186.300, 112.4548
1186.782, 111.8280
1187.264, 111.9797
1187.746, 113.8860
1188.228, 115.0886
1188.710, 114.6470
1189.192, 114.1084
1189.674, 113.9920
1190.156, 114.0176
1190.639, 113.8165
1191.121, 113.6609
1191.603, 114.3069
1192.085, 115.8926
1192.567, 116.3525
1193.049, 115.1794
1193.531, 114.3624
1194.013, 114.2334
1194.495, 114.0794
1194.978, 113.5258
1195.460, 113.1063
1195.942, 113.4627
1196.424, 114.2146
1196.906, 114.0009
1197.388, 114.6829
1197.870, 113.3067
1198.352, 115.0840
1198.835, 115.7627
1199.317, 114.9244
1199.799, 114.3003
1200.281, 114.8049
1200.763, 115.6887
1201.245, 116.2554
1201.727, 116.4167
1202.209, 115.5898
1202.692, 114.4427
1203.174, 114.6748
1203.656, 115.7661
1204.138, 115.9383
1204.620, 114.9615
1205.102, 114.0805
1205.584, 113.9732
1206.066, 113.8505
1206.548, 112.8803
1207.031, 111.9733
1207.513, 112.1651
1207.995, 112.5127
1208.477, 111.5708
1208.959, 110.1222
1209.441, 110.2251
1209.923, 112.1130
1210.405, 113.1549
1210.887, 112.0773
1211.370, 111.1409
1211.852, 110.4990
1212.334, 110.3214
1212.816, 111.2080
1213.298, 112.0706
1213.780, 111.9065
1214.262, 111.1001
1214.744, 110.6340
1215.227, 110.5567
1215.709, 110.2668
1216.191, 109.6886
1216.673, 109.2450
1217.155, 109.0577
1217.637, 108.5621
1218.119, 107.4244
1218.601, 106.5044
1219.083, 106.7731
1219.566, 107.6355
1220.048, 107.5962
1220.530, 106.8685
1221.012, 106.4080
1221.494, 106.1980
1221.976, 106.1020
1222.458, 106.0275
1222.940, 105.5777
1223.422, 104.5975
1223.905, 103.7732
1224.387, 103.6000
1224.869, 104.0340
1225.351, 105.4606
1225.833, 107.1051
1226.315, 108.0857
1226.797, 108.5647
1227.279, 108.9606
1227.762, 109.2543
1228.244, 109.0141
1228.726, 107.9685
1229.208, 107.1894
1229.690, 107.4004
1230.172, 107.4321
1230.654, 106.5288
1231.136, 105.6931
1231.619, 105.7608
1232.101, 106.1597
1232.583, 105.9800
1233.065, 106.4030
1233.547, 105.5168
1234.029, 106.7942
1234.511, 107.3430
1234.993, 107.0147
1235.475, 106.4483
1235.958, 105.6796
1236.440, 105.2708
1236.922, 105.6005
1237.404, 106.2031
1237.886, 106.5559
1238.368, 106.5426
1238.850, 105.5081
1239.332, 103.8106
1239.814, 102.7779
1240.297, 102.4882
1240.779, 103.0068
1241.261, 104.1585
1241.743, 104.9990
1242.225, 105.0152
1242.707, 105.0340
1243.189, 106.1063
1243.671, 107.1504
1244.154, 107.0822
1244.636, 107.2922
1245.118, 106.3734
1245.600, 106.2442
1246.082, 105.3637
1246.564, 103.9034
1247.046, 103.4017
1247.528, 104.6694
1248.010, 105.5287
1248.493, 105.4037
1248.975, 105.1323
1249.457, 104.8017
1249.939, 104.5350
1250.421, 104.3916
1250.903, 104.3703
1251.385, 104.5378
1251.867, 104.8039
1252.349, 104.5712
1252.832, 103.7703
1253.314, 103.3867
1253.796, 103.4556
1254.278, 103.8944
1254.760, 104.6708
1255.242, 105.2076
1255.724, 105.1851
1256.206, 105.0794
1256.689, 105.4724
1257.171, 106.0307
1257.653, 106.3747
1258.135, 106.3843
1258.617, 105.6031
1259.099, 104.4277
1259.581, 103.6165
1260.063, 103.2619
1260.546, 103.0879
1261.028, 102.9949
1261.510, 103.1120
1261.992, 103.6591
1262.474, 104.1970
1262.956, 104.7251
1263.438, 104.9917
1263.920, 104.4769
1264.402, 103.8949
1264.885, 104.3152
1265.367, 105.3452
1265.849, 105.4619
1266.331, 104.3670
1266.813, 104.5069
1267.295, 106.4189
1267.777, 106.7633
1268.259, 104.8090
1268.741, 103.1211
1269.224, 102.8030
1269.706, 103.0426
1270.188, 103.0836
1270.670, 103.2009
1271.152, 104.0642
1271.634, 105.3089
1272.116, 106.3750
1272.598, 107.0080
1273.081, 106.2212
1273.563, 104.5509
1274.045, 103.9397
1274.527, 104.8399
1275.009, 105.6045
1275.491, 105.2627
1275.973, 104.9458
1276.455, 105.4040
1276.938, 105.7849
1277.420, 105.2624
1277.902, 104.7811
1278.384, 105.5184
1278.866, 106.7734
1279.348, 107.0431
1279.830, 106.3735
1280.312, 105.9852
1280.794, 105.9408
1281.276, 105.9078
1281.759, 105.8208
1282.241, 106.1280
1282.723, 107.0051
1283.205, 107.6653
1283.687, 107.6442
1284.169, 107.0651
1284.651, 105.9319
1285.133, 104.5984
1285.616, 103.6592
1286.098, 103.1049
##END=



