##NAMES=Monticellite
##RRUFFID=R100106
##IDEAL CHEMISTRY=CaMgSiO_4_
##LOCALITY=Crestmore, Riverside County, California, USA
##OWNER=RRUFF
##SOURCE=American Museum of Natural History
##DESCRIPTION=Colorless to light gray translucent crystals associated with pale yellow vesuvianite
##STATUS=The identification of this mineral is confirmed by single-crystal X-ray diffraction and chemical analysis.
##URL=rruff.info/R100106
##MEASURED CHEMISTRY=(Ca_1.017_Mg_0.916_Fe^+2^_0.070_Mn^+2^_0.006_Zn_0.001_)_Î£=2.010_Si_0.995_O_4_
91.53320, 505.6793
92.01532, 512.0476
92.49744, 513.1359
92.97955, 514.1363
93.46167, 510.8875
93.94379, 503.4890
94.42590, 495.6426
94.90802, 487.0796
95.39014, 475.9688
95.87225, 461.8412
96.35437, 447.6339
96.83649, 434.8217
97.31860, 422.8504
97.80072, 410.9672
98.28284, 397.9918
98.76495, 384.1472
99.24707, 372.8665
99.72919, 365.7073
100.2113, 359.4565
100.6934, 353.4915
101.1755, 347.6638
101.6577, 342.0302
102.1398, 336.6059
102.6219, 331.5001
103.1040, 325.9984
103.5861, 319.5258
104.0682, 313.1362
104.5504, 306.9775
105.0325, 301.2323
105.5146, 296.4727
105.9967, 293.7687
106.4788, 294.4031
106.9609, 293.6700
107.4431, 291.2046
107.9252, 287.2426
108.4073, 281.6983
108.8894, 274.0894
109.3715, 265.9069
109.8536, 259.8245
110.3358, 255.9147
110.8179, 252.7031
111.3000, 249.3743
111.7821, 245.9897
112.2642, 243.2386
112.7463, 242.1666
113.2285, 241.3863
113.7106, 239.4150
114.1927, 235.8023
114.6748, 231.5451
115.1569, 227.9282
115.6390, 224.8962
116.1212, 222.6523
116.6033, 221.5618
117.0854, 221.0210
117.5675, 220.4189
118.0496, 219.4136
118.5317, 218.1706
119.0139, 217.5193
119.4960, 218.5856
119.9781, 219.0516
120.4602, 217.5688
120.9423, 215.2038
121.4244, 213.9843
121.9066, 215.6963
122.3887, 220.7193
122.8708, 223.2054
123.3529, 222.2122
123.8350, 220.2249
124.3171, 217.8064
124.7993, 215.2445
125.2814, 213.1981
125.7635, 212.3780
126.2456, 213.0942
126.7277, 213.9355
127.2098, 215.1492
127.6920, 216.3589
128.1741, 217.3501
128.6562, 218.1670
129.1383, 218.3174
129.6204, 216.4345
130.1025, 212.7432
130.5847, 209.9599
131.0668, 209.8289
131.5489, 211.6146
132.0310, 212.8268
132.5131, 213.1460
132.9952, 212.3873
133.4774, 210.1162
133.9595, 206.3680
134.4416, 202.8234
134.9237, 201.1833
135.4058, 201.7337
135.8879, 202.1689
136.3701, 202.1397
136.8522, 201.8199
137.3343, 201.0725
137.8164, 199.8973
138.2985, 198.7770
138.7806, 198.6254
139.2628, 200.2630
139.7449, 201.3968
140.2270, 201.3102
140.7091, 200.9360
141.1912, 201.1670
141.6733, 202.4018
142.1555, 204.3268
142.6376, 205.8522
143.1197, 206.7297
143.6018, 207.4423
144.0839, 208.0786
144.5660, 208.5722
145.0482, 208.8717
145.5303, 208.9873
146.0124, 208.8425
146.4945, 207.8550
146.9766, 205.9429
147.4587, 203.5045
147.9409, 200.5605
148.4230, 197.1760
148.9051, 193.5636
149.3872, 189.6734
149.8693, 185.6765
150.3514, 182.2356
150.8336, 178.6017
151.3157, 175.9962
151.7978, 176.1570
152.2799, 179.5023
152.7620, 182.8439
153.2441, 183.5811
153.7263, 182.6553
154.2084, 181.4007
154.6905, 179.6792
155.1726, 178.0031
155.6547, 177.6673
156.1368, 179.3465
156.6190, 181.2049
157.1011, 182.3163
157.5832, 182.8627
158.0653, 183.1782
158.5474, 183.3260
159.0295, 183.3436
159.5117, 183.7400
159.9938, 184.8014
160.4759, 186.0081
160.9580, 187.1716
161.4401, 188.3149
161.9222, 189.5226
162.4044, 190.8243
162.8865, 192.1748
163.3686, 193.9674
163.8507, 197.2325
164.3328, 200.0512
164.8149, 201.7706
165.2971, 202.2529
165.7792, 201.5039
166.2613, 199.4123
166.7434, 195.3379
167.2255, 191.7121
167.7076, 187.9196
168.1898, 184.8750
168.6719, 183.5101
169.1540, 183.9170
169.6361, 185.1299
170.1182, 185.7689
170.6003, 185.3347
171.0825, 185.6605
171.5646, 187.5298
172.0467, 189.9284
172.5288, 192.0892
173.0109, 193.9406
173.4930, 194.6838
173.9752, 192.3959
174.4573, 186.9582
174.9394, 181.1390
175.4215, 175.1479
175.9036, 169.3312
176.3857, 164.6089
176.8679, 161.4493
177.3500, 159.1326
177.8321, 156.6410
178.3142, 153.9353
178.7963, 151.3507
179.2784, 148.7319
179.7606, 146.1891
180.2427, 144.9112
180.7248, 146.2098
181.2069, 148.0810
181.6890, 148.7709
182.1711, 148.1293
182.6533, 146.9340
183.1354, 145.6855
183.6175, 144.3018
184.0996, 143.5197
184.5817, 144.6158
185.0638, 145.6979
185.5460, 145.3512
186.0281, 143.3184
186.5102, 140.9094
186.9923, 140.2753
187.4744, 142.6541
187.9565, 143.4497
188.4387, 140.4473
188.9208, 136.8612
189.4029, 135.0928
189.8850, 135.8402
190.3671, 137.9641
190.8492, 139.3372
191.3314, 139.5000
191.8135, 139.5558
192.2956, 139.4139
192.7777, 139.2872
193.2598, 139.4528
193.7419, 140.0054
194.2241, 140.6939
194.7062, 140.9122
195.1883, 140.0087
195.6704, 139.3566
196.1525, 138.9875
196.6346, 138.8850
197.1168, 139.1574
197.5989, 139.8759
198.0810, 140.7552
198.5631, 140.9296
199.0452, 139.6575
199.5273, 138.7083
200.0095, 138.3849
200.4916, 138.5601
200.9737, 139.0822
201.4558, 139.9398
201.9379, 141.0031
202.4200, 141.9332
202.9022, 142.8108
203.3843, 143.4717
203.8664, 143.8569
204.3485, 143.9807
204.8306, 143.7925
205.3127, 143.0775
205.7949, 142.2610
206.2770, 142.3106
206.7591, 143.6442
207.2412, 144.8646
207.7233, 144.9560
208.2054, 144.1101
208.6876, 143.5114
209.1697, 143.6794
209.6518, 144.3432
210.1339, 145.0965
210.6160, 146.0146
211.0981, 146.7553
211.5803, 146.8724
212.0624, 146.3632
212.5445, 146.0739
213.0266, 146.2450
213.5087, 146.8472
213.9908, 147.9510
214.4730, 149.6290
214.9551, 151.4512
215.4372, 153.0338
215.9193, 154.4184
216.4014, 155.3429
216.8836, 155.7217
217.3657, 155.5904
217.8478, 154.6805
218.3299, 152.9118
218.8120, 151.0352
219.2941, 150.3959
219.7763, 151.7407
220.2584, 151.8082
220.7405, 148.5332
221.2226, 144.7630
221.7047, 142.3697
222.1868, 141.8680
222.6690, 142.6247
223.1511, 143.7724
223.6332, 145.5930
224.1153, 147.1731
224.5974, 148.8233
225.0795, 150.0094
225.5617, 149.9895
226.0438, 148.6660
226.5259, 146.9942
227.0080, 146.7324
227.4901, 149.0359
227.9722, 150.6848
228.4544, 151.3609
228.9365, 151.5744
229.4186, 151.6677
229.9007, 151.7522
230.3828, 151.7608
230.8649, 151.5161
231.3471, 150.2281
231.8292, 150.0574
232.3113, 152.1667
232.7934, 154.6171
233.2755, 155.7233
233.7576, 155.0498
234.2398, 153.4689
234.7219, 152.3929
235.2040, 151.8890
235.6861, 151.9048
236.1682, 153.1100
236.6503, 154.4637
237.1325, 154.5724
237.6146, 153.1559
238.0967, 151.7893
238.5788, 153.0121
239.0609, 158.6268
239.5430, 162.6924
240.0252, 164.1410
240.5073, 164.3761
240.9894, 164.6366
241.4715, 165.2238
241.9536, 165.9953
242.4357, 166.9232
242.9179, 168.2415
243.4000, 168.5512
243.8821, 165.8759
244.3642, 162.9763
244.8463, 163.4196
245.3284, 168.0453
245.8106, 173.7275
246.2927, 176.7736
246.7748, 177.1083
247.2569, 177.3560
247.7390, 177.8140
248.2211, 178.4173
248.7033, 179.0360
249.1854, 179.6282
249.6675, 180.4224
250.1496, 181.6827
250.6317, 183.3737
251.1138, 185.3368
251.5960, 188.0038
252.0781, 190.7384
252.5602, 192.5437
253.0423, 193.1644
253.5244, 193.7520
254.0065, 195.1100
254.4887, 197.1744
254.9708, 200.0215
255.4529, 203.9254
255.9350, 208.5216
256.4171, 213.6414
256.8992, 219.5580
257.3813, 224.7152
257.8635, 228.1335
258.3456, 230.0196
258.8277, 230.3653
259.3098, 229.5697
259.7919, 226.9782
260.2740, 221.1271
260.7562, 211.4197
261.2383, 201.0418
261.7204, 190.5997
262.2025, 180.8389
262.6846, 172.8542
263.1667, 167.2414
263.6489, 163.1997
264.1310, 159.6563
264.6131, 156.6107
265.0952, 154.0691
265.5773, 152.2490
266.0594, 150.8765
266.5416, 149.8152
267.0237, 149.1210
267.5058, 148.4821
267.9879, 147.3514
268.4700, 145.5584
268.9521, 144.0845
269.4343, 143.6241
269.9164, 143.4367
270.3985, 142.9783
270.8806, 142.1089
271.3627, 141.0642
271.8448, 140.0612
272.3270, 139.0517
272.8091, 138.3138
273.2912, 138.1009
273.7733, 138.0742
274.2554, 138.0730
274.7375, 138.0630
275.2197, 138.0327
275.7018, 138.0704
276.1839, 138.2567
276.6660, 137.9814
277.1481, 136.5987
277.6302, 135.1199
278.1124, 133.9523
278.5945, 133.1627
279.0766, 132.7257
279.5587, 132.7853
280.0408, 133.4417
280.5229, 133.6979
281.0051, 133.4804
281.4872, 132.8329
281.9693, 131.2086
282.4514, 129.0123
282.9335, 127.4499
283.4156, 127.8460
283.8978, 130.2570
284.3799, 131.9434
284.8620, 132.6227
285.3441, 132.7631
285.8262, 132.3299
286.3083, 131.4836
286.7905, 130.4252
287.2726, 129.0782
287.7547, 127.5981
288.2368, 127.6498
288.7189, 131.3322
289.2010, 134.0670
289.6832, 134.3552
290.1653, 132.9883
290.6474, 131.0231
291.1295, 128.9042
291.6116, 126.9149
292.0938, 126.3142
292.5759, 128.1980
293.0580, 129.9946
293.5401, 131.0638
294.0222, 131.8315
294.5043, 132.8318
294.9865, 134.3154
295.4686, 136.0030
295.9507, 137.2587
296.4328, 138.1913
296.9149, 138.4012
297.3970, 136.8503
297.8792, 135.2181
298.3613, 135.2398
298.8434, 137.3598
299.3255, 140.2707
299.8076, 141.6518
300.2897, 140.3697
300.7719, 140.1370
301.2540, 141.8242
301.7361, 143.9326
302.2182, 145.5731
302.7003, 146.5795
303.1824, 147.3233
303.6646, 148.2787
304.1467, 149.5723
304.6288, 150.5973
305.1109, 151.3035
305.5930, 151.8120
306.0751, 152.0493
306.5573, 152.1012
307.0394, 152.2682
307.5215, 153.0475
308.0036, 154.6007
308.4857, 154.3569
308.9678, 150.4740
309.4500, 146.5203
309.9321, 143.4299
310.4142, 141.0420
310.8963, 138.8079
311.3784, 136.3167
311.8605, 133.6535
312.3427, 131.5329
312.8248, 130.1707
313.3069, 129.1520
313.7890, 128.5207
314.2711, 128.1400
314.7532, 127.9048
315.2354, 127.7794
315.7175, 127.6453
316.1996, 127.1340
316.6817, 125.8714
317.1638, 124.8139
317.6459, 123.9120
318.1281, 123.3141
318.6102, 123.3168
319.0923, 123.9680
319.5744, 124.8023
320.0565, 125.0217
320.5386, 124.3375
321.0208, 123.6822
321.5029, 122.7457
321.9850, 122.0971
322.4671, 122.1923
322.9492, 123.0217
323.4313, 124.1621
323.9135, 125.2440
324.3956, 126.3401
324.8777, 126.9761
325.3598, 126.5501
325.8419, 126.2211
326.3240, 126.4390
326.8062, 127.1451
327.2883, 128.0788
327.7704, 129.1143
328.2525, 130.2240
328.7346, 130.9243
329.2167, 130.3333
329.6989, 130.3598
330.1810, 132.2177
330.6631, 134.8125
331.1452, 136.4216
331.6273, 136.0360
332.1094, 134.3576
332.5916, 133.5880
333.0737, 134.2697
333.5558, 134.9856
334.0379, 136.4084
334.5200, 137.2905
335.0021, 135.9726
335.4843, 131.9936
335.9664, 127.2004
336.4485, 124.8455
336.9306, 126.1068
337.4127, 126.2656
337.8948, 123.7525
338.3770, 120.9063
338.8591, 119.1441
339.3412, 118.5385
339.8233, 118.2071
340.3055, 117.0250
340.7876, 114.8026
341.2697, 113.7079
341.7518, 114.6775
342.2339, 115.9518
342.7160, 117.3165
343.1982, 118.4621
343.6803, 118.7835
344.1624, 117.6403
344.6445, 115.3815
345.1266, 113.7539
345.6087, 112.9449
346.0909, 112.5235
346.5730, 112.4211
347.0551, 112.5224
347.5372, 112.6671
348.0193, 112.7744
348.5014, 112.9551
348.9836, 113.6520
349.4657, 115.3158
349.9478, 115.9554
350.4299, 113.5751
350.9120, 110.8761
351.3941, 110.1308
351.8763, 111.7211
352.3584, 113.6804
352.8405, 113.8139
353.3226, 112.0601
353.8047, 110.7269
354.2868, 110.1135
354.7690, 110.0392
355.2511, 110.6508
355.7332, 111.7579
356.2153, 112.6217
356.6974, 112.7008
357.1795, 112.1419
357.6617, 111.4452
358.1438, 110.4585
358.6259, 109.6771
359.1080, 109.3776
359.5901, 109.4503
360.0722, 109.8003
360.5544, 110.6088
361.0365, 111.4297
361.5186, 111.4047
362.0007, 110.3639
362.4828, 109.8496
362.9649, 110.9951
363.4471, 112.7211
363.9292, 113.7958
364.4113, 114.0155
364.8934, 113.9496
365.3755, 114.0335
365.8576, 114.2160
366.3398, 114.1943
366.8219, 113.8266
367.3040, 113.3363
367.7861, 112.8053
368.2682, 112.2575
368.7503, 112.1564
369.2325, 112.9989
369.7146, 114.3160
370.1967, 115.2833
370.6788, 115.7922
371.1609, 116.2064
371.6430, 116.8683
372.1252, 117.6600
372.6073, 118.1717
373.0894, 117.9598
373.5715, 117.7591
374.0536, 118.1881
374.5357, 119.1704
375.0179, 120.2966
375.5000, 121.4218
375.9821, 122.5083
376.4642, 123.5210
376.9463, 124.5837
377.4284, 125.3144
377.9106, 125.1504
378.3927, 124.6496
378.8748, 124.8369
379.3569, 126.0207
379.8390, 127.6490
380.3211, 129.0667
380.8033, 130.2348
381.2854, 131.3900
381.7675, 132.4686
382.2496, 133.5889
382.7317, 134.5959
383.2138, 135.6115
383.6960, 137.3564
384.1781, 140.5410
384.6602, 145.0201
385.1423, 148.7945
385.6244, 151.6753
386.1065, 154.2178
386.5887, 156.2905
387.0708, 158.1877
387.5529, 160.4831
388.0350, 163.4507
388.5171, 166.6983
388.9992, 169.3574
389.4814, 170.5854
389.9635, 172.5205
390.4456, 175.3748
390.9277, 178.7819
391.4098, 182.7672
391.8919, 187.1438
392.3741, 191.2738
392.8562, 194.4185
393.3383, 196.4289
393.8204, 198.6889
394.3025, 201.4913
394.7846, 204.2268
395.2668, 206.3313
395.7489, 208.2640
396.2310, 210.8207
396.7131, 214.4626
397.1952, 219.0937
397.6773, 224.5526
398.1595, 232.2251
398.6416, 238.3775
399.1237, 241.1655
399.6058, 243.2610
400.0879, 247.3277
400.5700, 253.8250
401.0522, 260.6114
401.5343, 265.0108
402.0164, 266.5914
402.4985, 268.2077
402.9806, 270.3646
403.4627, 272.1431
403.9449, 272.8884
404.4270, 272.9103
404.9091, 273.0961
405.3912, 274.3237
405.8733, 275.9471
406.3554, 275.7448
406.8376, 272.9838
407.3197, 270.2065
407.8018, 269.6119
408.2839, 268.9854
408.7660, 265.7293
409.2481, 258.9116
409.7303, 251.0371
410.2124, 244.7875
410.6945, 240.0156
411.1766, 234.1468
411.6587, 226.1293
412.1408, 217.4367
412.6230, 209.1546
413.1051, 201.3252
413.5872, 194.4011
414.0693, 189.3222
414.5514, 184.9794
415.0335, 179.5439
415.5157, 172.8295
415.9978, 165.9349
416.4799, 159.3259
416.9620, 153.1384
417.4441, 147.6335
417.9262, 142.9631
418.4084, 138.7795
418.8905, 134.8434
419.3726, 131.2500
419.8547, 128.4150
420.3368, 126.6121
420.8189, 125.1717
421.3011, 122.9583
421.7832, 119.7222
422.2653, 116.8369
422.7474, 114.2783
423.2295, 112.2461
423.7116, 111.0821
424.1938, 110.7093
424.6759, 110.5641
425.1580, 110.2512
425.6401, 109.7681
426.1222, 109.0434
426.6043, 108.0089
427.0865, 106.8537
427.5686, 105.2821
428.0507, 103.7193
428.5328, 102.7047
429.0149, 102.4473
429.4970, 102.8523
429.9792, 103.9447
430.4613, 106.9727
430.9434, 107.8511
431.4255, 104.9264
431.9076, 101.7007
432.3897, 100.0142
432.8719, 99.84220
433.3540, 100.3099
433.8361, 100.8315
434.3182, 101.3759
434.8003, 101.7397
435.2824, 102.0575
435.7646, 101.9436
436.2467, 101.2904
436.7288, 100.2297
437.2109, 98.59092
437.6930, 96.30272
438.1751, 94.43555
438.6573, 94.72969
439.1394, 97.39363
439.6215, 99.32069
440.1036, 100.0610
440.5857, 99.94621
441.0678, 98.86136
441.5500, 97.09002
442.0321, 95.65321
442.5142, 95.46122
442.9963, 95.76907
443.4784, 94.90426
443.9605, 92.62988
444.4427, 91.07763
444.9248, 91.90102
445.4069, 93.83250
445.8890, 94.51778
446.3711, 93.35849
446.8532, 92.36900
447.3354, 92.87135
447.8175, 94.32065
448.2996, 95.66563
448.7817, 96.72887
449.2638, 97.29930
449.7459, 97.01192
450.2281, 95.79994
450.7102, 94.72115
451.1923, 93.65517
451.6744, 92.87207
452.1565, 92.61642
452.6386, 92.80033
453.1208, 93.16130
453.6029, 93.57034
454.0850, 94.04527
454.5671, 94.64204
455.0492, 95.97311
455.5313, 96.55118
456.0135, 95.75721
456.4956, 94.61141
456.9777, 93.86900
457.4598, 93.65562
457.9419, 93.71962
458.4240, 93.83501
458.9062, 94.00143
459.3883, 94.26997
459.8704, 94.85749
460.3525, 95.30185
460.8346, 95.57286
461.3167, 95.61971
461.7989, 95.27486
462.2810, 94.46364
462.7631, 93.60082
463.2452, 93.36028
463.7273, 93.83510
464.2094, 94.40271
464.6916, 95.44459
465.1737, 96.09596
465.6558, 95.58799
466.1379, 94.20204
466.6200, 92.97663
467.1021, 92.44966
467.5843, 92.46132
468.0664, 92.80575
468.5485, 93.54285
469.0306, 94.20325
469.5127, 94.69820
469.9948, 94.90017
470.4770, 94.56676
470.9591, 93.52367
471.4412, 92.57728
471.9233, 92.01550
472.4054, 91.85012
472.8875, 92.45617
473.3697, 93.98087
473.8518, 94.96202
474.3339, 93.79783
474.8160, 90.50567
475.2981, 88.29110
475.7802, 87.66370
476.2624, 87.54722
476.7445, 87.64725
477.2266, 87.88187
477.7087, 88.15459
478.1908, 88.42965
478.6729, 88.68891
479.1551, 88.88134
479.6372, 88.86968
480.1193, 89.13231
480.6014, 90.16113
481.0835, 90.98910
481.5656, 90.82042
482.0478, 89.96153
482.5299, 89.30952
483.0120, 89.45945
483.4941, 90.24982
483.9762, 91.13900
484.4583, 92.39074
484.9405, 93.18285
485.4226, 93.23814
485.9047, 92.89942
486.3868, 92.21711
486.8689, 91.27879
487.3510, 90.58493
487.8332, 90.75091
488.3153, 91.57233
488.7974, 92.02490
489.2795, 91.96399
489.7616, 91.79820
490.2437, 91.68546
490.7259, 91.64907
491.2080, 91.76511
491.6901, 92.14233
492.1722, 92.48354
492.6543, 92.67895
493.1364, 92.67228
493.6186, 92.24852
494.1007, 91.30062
494.5828, 90.11777
495.0649, 88.91285
495.5470, 87.66132
496.0291, 86.92836
496.5113, 86.61259
496.9934, 86.92807
497.4755, 88.61726
497.9576, 91.03049
498.4397, 92.58540
498.9218, 92.48704
499.4040, 91.40011
499.8861, 90.77993
500.3682, 90.78388
500.8503, 91.01331
501.3324, 92.07547
501.8145, 92.82389
502.2967, 92.15471
502.7788, 90.47184
503.2609, 89.20903
503.7430, 89.47011
504.2251, 90.78455
504.7072, 91.27574
505.1894, 90.56575
505.6715, 89.89625
506.1536, 89.55246
506.6357, 89.39233
507.1178, 89.42468
507.5999, 89.62099
508.0821, 89.65418
508.5642, 88.68730
509.0463, 87.38218
509.5284, 88.16656
510.0105, 91.75153
510.4926, 94.85247
510.9748, 95.08836
511.4569, 93.45474
511.9390, 92.34940
512.4211, 91.87643
512.9032, 91.98489
513.3853, 93.16940
513.8674, 94.78292
514.3495, 95.52335
514.8317, 95.10955
515.3138, 94.58492
515.7959, 95.01052
516.2780, 96.45412
516.7601, 97.96132
517.2422, 100.0523
517.7244, 101.6245
518.2065, 101.8912
518.6886, 101.5478
519.1707, 101.4981
519.6528, 102.0832
520.1349, 103.2317
520.6171, 105.1485
521.0992, 108.4553
521.5813, 109.9859
522.0634, 107.6545
522.5455, 105.5570
523.0276, 105.3319
523.5098, 106.3861
523.9919, 107.4456
524.4740, 107.8910
524.9561, 108.2814
525.4382, 109.5692
525.9203, 111.7656
526.4025, 113.7332
526.8846, 114.8390
527.3667, 116.1263
527.8488, 119.1357
528.3309, 123.4954
528.8130, 126.7608
529.2952, 126.9957
529.7773, 126.7646
530.2594, 128.6571
530.7415, 132.2953
531.2236, 135.7756
531.7057, 138.2719
532.1879, 140.1272
532.6700, 141.9890
533.1521, 143.9843
533.6342, 145.6939
534.1163, 148.1068
534.5984, 149.3774
535.0806, 147.9609
535.5627, 144.3069
536.0448, 139.7341
536.5269, 134.9822
537.0090, 130.2609
537.4911, 126.3992
537.9733, 124.0429
538.4554, 121.0377
538.9375, 116.4500
539.4196, 111.7336
539.9017, 107.4129
540.3839, 103.6980
540.8660, 101.0198
541.3481, 99.96083
541.8302, 99.94800
542.3123, 99.85495
542.7944, 99.71893
543.2766, 99.15047
543.7587, 97.70879
544.2408, 95.98904
544.7229, 94.94676
545.2050, 94.68131
545.6871, 94.17638
546.1693, 92.54552
546.6514, 90.84099
547.1335, 90.51490
547.6156, 91.42207
548.0977, 91.92295
548.5798, 90.85712
549.0620, 88.92747
549.5441, 88.51254
550.0262, 91.81445
550.5083, 93.70759
550.9904, 92.90952
551.4725, 91.65195
551.9547, 91.65891
552.4368, 92.87245
552.9189, 94.21858
553.4010, 94.90834
553.8831, 95.09373
554.3652, 95.40303
554.8474, 95.98845
555.3295, 96.30994
555.8116, 95.96431
556.2937, 95.48598
556.7758, 95.38316
557.2579, 95.63029
557.7401, 95.55690
558.2222, 94.19888
558.7043, 92.49369
559.1864, 92.20031
559.6685, 93.37141
560.1506, 94.80683
560.6328, 96.03797
561.1149, 97.06302
561.5970, 97.86265
562.0791, 98.40197
562.5612, 98.87327
563.0433, 99.64746
563.5255, 100.1169
564.0076, 99.37612
564.4897, 97.74256
564.9718, 96.58888
565.4539, 96.83829
565.9360, 98.05556
566.4182, 98.77843
566.9003, 98.82084
567.3824, 98.70889
567.8645, 98.05289
568.3466, 97.63160
568.8287, 97.95694
569.3109, 98.97911
569.7930, 100.4152
570.2751, 102.4049
570.7572, 104.3800
571.2393, 104.7456
571.7214, 103.2987
572.2036, 102.7677
572.6857, 104.5724
573.1678, 107.0524
573.6499, 108.1678
574.1320, 107.9592
574.6141, 107.8755
575.0963, 108.5604
575.5784, 109.3271
576.0605, 109.4799
576.5426, 109.1776
577.0247, 109.0686
577.5068, 109.4697
577.9890, 110.0731
578.4711, 110.3354
578.9532, 110.3460
579.4353, 109.7346
579.9174, 107.8664
580.3995, 106.0898
580.8817, 105.0696
581.3638, 104.6253
581.8459, 104.3118
582.3280, 103.9126
582.8101, 103.6106
583.2922, 104.0556
583.7744, 105.3898
584.2565, 105.1366
584.7386, 101.6565
585.2207, 98.39474
585.7029, 98.36613
586.1850, 100.4117
586.6671, 101.5254
587.1492, 100.0490
587.6313, 98.71278
588.1135, 100.1560
588.5956, 103.1864
589.0777, 105.1136
589.5598, 105.2640
590.0419, 104.0348
590.5240, 101.4343
591.0062, 97.31470
591.4883, 95.54318
591.9704, 98.62398
592.4525, 100.7255
592.9346, 99.83736
593.4167, 97.50544
593.8989, 95.29870
594.3810, 93.69216
594.8631, 92.55842
595.3452, 91.72762
595.8273, 91.23133
596.3094, 91.61731
596.7916, 93.60445
597.2737, 94.83801
597.7558, 93.67742
598.2379, 91.53919
598.7200, 89.75679
599.2021, 88.46339
599.6843, 87.57612
600.1664, 87.40700
600.6485, 87.43961
601.1306, 86.61351
601.6127, 85.02098
602.0948, 84.16003
602.5770, 84.98026
603.0591, 86.97070
603.5412, 88.76751
604.0233, 91.02113
604.5054, 91.89912
604.9875, 90.27076
605.4697, 88.28362
605.9518, 87.43975
606.4339, 87.40603
606.9160, 86.87387
607.3981, 84.99740
607.8802, 82.77441
608.3624, 82.57803
608.8445, 84.82217
609.3266, 85.68517
609.8087, 83.46726
610.2908, 81.17587
610.7729, 81.29246
611.2551, 83.12064
611.7372, 84.62343
612.2193, 85.33664
612.7014, 85.51195
613.1835, 84.97520
613.6656, 84.08434
614.1478, 83.69955
614.6299, 84.03037
615.1120, 84.48063
615.5941, 84.37077
616.0762, 83.69553
616.5583, 83.78855
617.0405, 85.34519
617.5226, 86.80010
618.0047, 87.99993
618.4868, 88.92725
618.9689, 89.50900
619.4510, 89.77609
619.9332, 89.93989
620.4153, 90.29222
620.8974, 90.65977
621.3795, 90.26150
621.8616, 88.90946
622.3438, 87.82310
622.8259, 87.68259
623.3080, 87.82727
623.7901, 87.20809
624.2722, 85.75512
624.7543, 84.88393
625.2365, 85.88895
625.7186, 86.85030
626.2007, 85.58460
626.6828, 82.92764
627.1649, 81.49245
627.6470, 82.39304
628.1292, 84.30188
628.6113, 85.03087
629.0934, 84.16708
629.5755, 83.84993
630.0576, 85.06573
630.5397, 85.77176
631.0219, 84.68898
631.5040, 82.99715
631.9861, 82.50858
632.4682, 83.78226
632.9503, 85.21853
633.4324, 85.15595
633.9146, 84.08112
634.3967, 83.51552
634.8788, 83.59555
635.3609, 84.11039
635.8430, 85.28324
636.3251, 86.61381
636.8073, 86.41035
637.2894, 83.53458
637.7715, 82.05055
638.2536, 83.77410
638.7357, 86.11740
639.2178, 87.24536
639.7000, 87.21360
640.1821, 86.79374
640.6642, 86.39369
641.1463, 85.94021
641.6284, 85.23373
642.1105, 84.20400
642.5927, 83.33242
643.0748, 82.93083
643.5569, 82.34354
644.0390, 80.82173
644.5211, 78.92944
645.0032, 77.80611
645.4854, 77.77026
645.9675, 78.40605
646.4496, 80.05967
646.9317, 82.01035
647.4138, 82.69732
647.8959, 81.97533
648.3781, 81.25551
648.8602, 81.69093
649.3423, 82.88958
649.8244, 82.96204
650.3065, 80.53615
650.7886, 79.03615
651.2708, 78.63438
651.7529, 79.09422
652.2350, 81.02832
652.7171, 83.70763
653.1992, 85.20737
653.6813, 84.23200
654.1635, 82.31343
654.6456, 81.94349
655.1277, 82.97041
655.6098, 83.37589
656.0919, 82.54885
656.5740, 81.71535
657.0562, 82.15737
657.5383, 83.61156
658.0204, 84.12151
658.5025, 82.90947
658.9846, 81.72129
659.4667, 80.99734
659.9489, 80.58524
660.4310, 80.22480
660.9131, 79.97079
661.3952, 80.32282
661.8773, 81.83077
662.3594, 83.86745
662.8416, 84.11429
663.3237, 81.85612
663.8058, 80.47567
664.2879, 81.30055
664.7700, 82.41980
665.2521, 82.40881
665.7343, 81.54269
666.2164, 80.77972
666.6985, 80.21719
667.1806, 80.05665
667.6627, 80.87432
668.1448, 82.08277
668.6270, 82.31145
669.1091, 81.37234
669.5912, 80.62681
670.0733, 81.37218
670.5554, 83.32014
671.0375, 84.36317
671.5197, 83.67143
672.0018, 83.42336
672.4839, 84.17806
672.9660, 85.12331
673.4481, 85.87204
673.9302, 86.32323
674.4124, 86.37217
674.8945, 85.92423
675.3766, 85.10862
675.8587, 83.75475
676.3408, 82.09322
676.8229, 81.27454
677.3051, 81.61267
677.7872, 82.36418
678.2693, 82.82986
678.7514, 83.08224
679.2335, 83.97875
679.7156, 86.42749
680.1978, 88.24205
680.6799, 88.86072
681.1620, 88.92541
681.6441, 89.02170
682.1262, 89.10200
682.6083, 88.61145
683.0905, 86.98568
683.5726, 85.09743
684.0547, 84.52128
684.5368, 85.25725
685.0189, 87.12046
685.5010, 90.72911
685.9832, 93.94559
686.4653, 94.61930
686.9474, 93.25433
687.4295, 92.60127
687.9116, 93.19716
688.3937, 93.86507
688.8759, 94.56221
689.3580, 94.97471
689.8401, 94.48234
690.3222, 93.30655
690.8043, 92.45569
691.2864, 92.60542
691.7686, 93.42216
692.2507, 94.16551
692.7328, 94.84985
693.2149, 95.45339
693.6970, 96.47025
694.1791, 96.67709
694.6613, 94.30459
695.1434, 90.60862
695.6255, 88.48897
696.1076, 89.14320
696.5897, 89.85418
697.0718, 89.12785
697.5540, 87.92881
698.0361, 87.52307
698.5182, 87.87841
699.0003, 88.08731
699.4824, 87.57105
699.9645, 86.68037
700.4467, 86.35270
700.9288, 86.86721
701.4109, 86.90846
701.8930, 86.25866
702.3751, 85.28316
702.8572, 83.74595
703.3394, 82.15614
703.8215, 81.46616
704.3036, 82.05299
704.7857, 82.79549
705.2678, 83.04530
705.7499, 83.06910
706.2321, 83.47397
706.7142, 84.10151
707.1963, 83.77673
707.6784, 81.76449
708.1605, 79.20691
708.6426, 78.44711
709.1248, 80.04286
709.6069, 81.47465
710.0890, 83.66996
710.5711, 84.54803
711.0532, 82.02895
711.5353, 78.45073
712.0175, 77.08968
712.4996, 78.66237
712.9817, 80.36656
713.4638, 80.10280
713.9459, 79.15830
714.4280, 79.62197
714.9102, 81.21644
715.3923, 82.15128
715.8744, 81.65459
716.3565, 80.28394
716.8386, 78.71934
717.3207, 76.82618
717.8029, 75.77171
718.2850, 76.40632
718.7671, 76.85244
719.2492, 76.45236
719.7313, 75.81900
720.2134, 75.46115
720.6956, 75.48047
721.1777, 75.91369
721.6598, 77.08804
722.1419, 78.48032
722.6240, 79.56398
723.1061, 80.29324
723.5883, 80.36301
724.0704, 79.64743
724.5525, 78.78630
725.0346, 78.42332
725.5167, 78.55379
725.9988, 78.94982
726.4810, 80.22787
726.9631, 80.86651
727.4452, 80.24363
727.9273, 79.30797
728.4094, 78.64687
728.8915, 78.32126
729.3737, 78.28291
729.8558, 78.62952
730.3379, 79.04489
730.8200, 79.14531
731.3021, 79.04917
731.7842, 79.04980
732.2664, 79.20136
732.7485, 79.54913
733.2306, 80.15462
733.7127, 80.95089
734.1948, 81.70731
734.6769, 82.80193
735.1591, 83.14420
735.6412, 82.23812
736.1233, 81.10558
736.6054, 80.00562
737.0875, 79.11572
737.5696, 78.70388
738.0518, 78.87811
738.5339, 79.39381
739.0160, 80.21371
739.4981, 81.18242
739.9802, 82.29382
740.4623, 83.41740
740.9445, 83.47721
741.4266, 81.79567
741.9087, 79.39633
742.3908, 78.08583
742.8729, 77.97979
743.3550, 78.46404
743.8372, 80.74472
744.3193, 82.14768
744.8014, 81.34727
745.2835, 79.66953
745.7656, 78.35147
746.2477, 77.62134
746.7299, 77.58901
747.2120, 79.01320
747.6941, 80.64120
748.1762, 80.67623
748.6583, 79.66912
749.1404, 79.48209
749.6226, 80.63527
750.1047, 82.09212
750.5868, 82.80104
751.0689, 82.82616
751.5510, 82.92212
752.0331, 83.36209
752.5153, 83.34145
752.9974, 81.95113
753.4795, 80.74406
753.9616, 81.23015
754.4437, 82.75497
754.9258, 83.08511
755.4080, 80.85189
755.8901, 78.61972
756.3722, 78.22636
756.8543, 78.88867
757.3364, 79.53031
757.8185, 80.02125
758.3007, 80.75269
758.7828, 82.02992
759.2649, 83.23574
759.7470, 82.65309
760.2291, 79.47684
760.7112, 78.57804
761.1934, 81.87685
761.6755, 84.63469
762.1576, 83.83633
762.6397, 81.61488
763.1218, 80.51388
763.6039, 80.78333
764.0861, 81.74109
764.5682, 84.31471
765.0503, 86.41880
765.5324, 85.79863
766.0145, 83.62389
766.4966, 82.20187
766.9788, 82.20601
767.4609, 82.95682
767.9430, 83.93571
768.4251, 85.00475
768.9072, 85.31833
769.3893, 84.65379
769.8715, 84.45177
770.3536, 85.45872
770.8357, 86.46905
771.3178, 86.15332
771.7999, 84.79479
772.2820, 83.86244
772.7642, 83.85111
773.2463, 83.71461
773.7284, 82.76241
774.2105, 81.88277
774.6926, 81.97012
775.1747, 82.85813
775.6569, 83.95663
776.1390, 85.02142
776.6211, 85.69505
777.1032, 85.07802
777.5853, 83.51855
778.0674, 83.16782
778.5496, 84.30478
779.0317, 85.51736
779.5138, 86.10771
779.9959, 86.40433
780.4780, 87.02005
780.9601, 88.13009
781.4423, 88.83562
781.9244, 88.54526
782.4065, 88.58337
782.8886, 90.16444
783.3707, 91.79777
783.8528, 91.38596
784.3350, 89.04493
784.8171, 87.34629
785.2992, 88.07042
785.7813, 89.99890
786.2634, 92.05492
786.7455, 93.98746
787.2277, 94.76234
787.7098, 94.19451
788.1919, 93.43214
788.6740, 93.32314
789.1561, 93.79460
789.6382, 94.60110
790.1204, 95.78554
790.6025, 97.20300
791.0846, 99.66716
791.5667, 101.4340
792.0488, 101.3258
792.5309, 100.2068
793.0131, 99.20489
793.4952, 98.38299
793.9773, 98.63594
794.4594, 100.8126
794.9415, 103.8789
795.4236, 107.3072
795.9058, 110.7668
796.3879, 113.6081
796.8700, 115.6656
797.3521, 117.4045
797.8342, 119.1687
798.3163, 121.1046
798.7985, 124.2298
799.2806, 128.9042
799.7627, 132.4704
800.2448, 133.2219
800.7269, 134.5858
801.2090, 140.0036
801.6912, 148.7612
802.1733, 156.6563
802.6554, 162.6445
803.1375, 169.4235
803.6196, 177.9770
804.1017, 187.0143
804.5839, 195.3786
805.0660, 203.5035
805.5481, 212.4974
806.0302, 222.8198
806.5123, 233.3332
806.9944, 243.0948
807.4766, 252.1472
807.9587, 260.2618
808.4408, 267.5674
808.9229, 275.6644
809.4050, 285.0903
809.8871, 295.5194
810.3693, 306.5825
810.8514, 318.2918
811.3335, 331.1068
811.8156, 344.8430
812.2977, 360.0920
812.7798, 377.7319
813.2620, 396.1761
813.7441, 414.1795
814.2262, 432.0626
814.7083, 451.1168
815.1904, 472.2286
815.6725, 493.2071
816.1547, 514.4117
816.6368, 533.8730
817.1189, 549.8968
817.6010, 562.1549
818.0831, 570.8561
818.5652, 576.0281
819.0474, 575.4077
819.5295, 565.2169
820.0116, 546.1669
820.4937, 524.4550
820.9758, 499.8873
821.4579, 473.6667
821.9401, 445.5995
822.4222, 416.9546
822.9043, 387.9302
823.3864, 358.8773
823.8685, 333.5852
824.3506, 314.2322
824.8328, 295.5748
825.3149, 274.6835
825.7970, 256.1520
826.2791, 244.4376
826.7612, 237.5440
827.2433, 230.2629
827.7255, 220.5437
828.2076, 211.2588
828.6897, 205.1452
829.1718, 200.8767
829.6539, 196.1892
830.1360, 191.2191
830.6182, 187.0660
831.1003, 184.1572
831.5824, 182.5249
832.0645, 182.4047
832.5466, 181.5840
833.0287, 184.1289
833.5109, 183.0464
833.9930, 183.6228
834.4751, 186.3672
834.9572, 191.1344
835.4393, 198.9914
835.9214, 208.7556
836.4036, 216.8478
836.8857, 221.1421
837.3678, 227.4796
837.8499, 239.3997
838.3320, 251.8434
838.8141, 260.8737
839.2963, 267.7169
839.7784, 275.1025
840.2605, 283.8831
840.7426, 293.1330
841.2247, 301.5242
841.7068, 310.1008
842.1890, 321.1717
842.6711, 334.4689
843.1532, 347.6437
843.6353, 360.0576
844.1174, 374.4769
844.5995, 393.5753
845.0817, 416.3449
845.5638, 437.3704
846.0459, 455.2647
846.5280, 475.2244
847.0101, 498.1003
847.4922, 522.3320
847.9744, 548.4117
848.4565, 574.7949
848.9386, 600.0428
849.4207, 624.6005
849.9028, 643.6563
850.3849, 658.8868
850.8671, 664.9408
851.3492, 658.2709
851.8313, 640.7208
852.3134, 612.7817
852.7955, 576.1553
853.2776, 535.3792
853.7598, 492.2049
854.2419, 449.3323
854.7240, 410.2002
855.2061, 374.5020
855.6882, 341.9617
856.1703, 312.5733
856.6525, 286.2856
857.1346, 263.2160
857.6167, 243.4148
858.0988, 227.7209
858.5809, 216.7798
859.0630, 205.6289
859.5452, 193.6482
860.0273, 182.5713
860.5094, 172.6670
860.9915, 164.1708
861.4736, 157.4737
861.9557, 152.4516
862.4379, 148.2805
862.9200, 145.5749
863.4021, 142.6567
863.8842, 138.7669
864.3663, 134.5978
864.8484, 130.3075
865.3306, 126.3226
865.8127, 123.4543
866.2948, 122.0234
866.7769, 121.1307
867.2590, 120.2605
867.7411, 119.1696
868.2233, 117.1385
868.7054, 114.3433
869.1875, 111.7929
869.6696, 109.7709
870.1517, 107.9792
870.6339, 106.0840
871.1160, 104.2629
871.5981, 103.4290
872.0802, 103.9319
872.5623, 104.1176
873.0444, 103.5399
873.5266, 103.1229
874.0087, 103.7850
874.4908, 104.7557
874.9729, 104.4555
875.4550, 102.5504
875.9371, 101.2968
876.4193, 101.5335
876.9014, 101.8363
877.3835, 101.6232
877.8656, 101.1711
878.3477, 100.5871
878.8298, 100.0540
879.3120, 100.1196
879.7941, 101.2939
880.2762, 102.5246
880.7583, 102.7280
881.2404, 102.3151
881.7225, 101.7635
882.2047, 101.2656
882.6868, 101.4930
883.1689, 102.7321
883.6510, 104.0295
884.1331, 103.8963
884.6152, 102.7080
885.0974, 103.5589
885.5795, 106.7488
886.0616, 109.8306
886.5437, 112.3437
887.0258, 114.3348
887.5079, 115.7038
887.9901, 116.6160
888.4722, 117.7783
888.9543, 119.9554
889.4364, 120.9096
889.9185, 118.7502
890.4006, 117.5793
890.8828, 119.1344
891.3649, 122.4944
891.8470, 127.0798
892.3291, 132.5996
892.8112, 137.1597
893.2933, 138.9018
893.7755, 140.7079
894.2576, 144.9814
894.7397, 149.9738
895.2218, 152.9384
895.7039, 154.4201
896.1860, 157.1469
896.6682, 162.4650
897.1503, 169.3538
897.6324, 178.2469
898.1145, 187.4389
898.5966, 191.5322
899.0787, 190.7457
899.5609, 189.0219
900.0430, 187.6782
900.5251, 184.0902
901.0072, 175.3515
901.4893, 162.5881
901.9714, 151.3545
902.4536, 141.9169
902.9357, 133.0545
903.4178, 124.7142
903.8999, 116.8371
904.3820, 108.9670
904.8641, 101.8309
905.3463, 96.84665
905.8284, 94.24366
906.3105, 91.90205
906.7926, 89.98789
907.2747, 87.93514
907.7568, 84.97549
908.2390, 82.28106
908.7211, 81.31680
909.2032, 81.50904
909.6853, 80.66973
910.1674, 77.56641
910.6495, 75.24922
911.1317, 76.93272
911.6138, 79.53822
912.0959, 79.04119
912.5780, 76.65160
913.0601, 75.93696
913.5422, 77.67268
914.0244, 79.37013
914.5065, 78.88949
914.9886, 76.96529
915.4707, 74.66198
915.9528, 72.19700
916.4349, 70.99773
916.9171, 71.26985
917.3992, 72.50728
917.8813, 74.67357
918.3634, 76.73048
918.8455, 76.82069
919.3276, 74.81007
919.8098, 73.06707
920.2919, 71.23470
920.7740, 70.65813
921.2561, 72.54378
921.7382, 74.63888
922.2203, 74.99860
922.7025, 74.03586
923.1846, 73.41722
923.6667, 73.25517
924.1488, 73.18497
924.6309, 72.90279
925.1130, 73.01395
925.5952, 74.20820
926.0773, 75.69946
926.5594, 76.55051
927.0415, 76.68201
927.5236, 76.60379
928.0057, 76.54971
928.4879, 76.31485
928.9700, 75.40259
929.4521, 74.49034
929.9342, 74.40259
930.4163, 75.03519
930.8984, 76.04251
931.3806, 77.25523
931.8627, 78.13000
932.3448, 77.66711
932.8269, 76.75088
933.3090, 77.39394
933.7911, 79.25906
934.2733, 80.91059
934.7554, 82.07166
935.2375, 83.18162
935.7196, 84.50905
936.2017, 86.09298
936.6838, 88.14855
937.1660, 90.73564
937.6481, 92.54053
938.1302, 93.33791
938.6123, 94.29982
939.0944, 95.70443
939.5765, 97.68879
940.0587, 100.6688
940.5408, 104.3994
941.0229, 106.8795
941.5050, 106.6045
941.9871, 107.8334
942.4692, 111.6337
942.9514, 115.8844
943.4335, 120.2749
943.9156, 124.3400
944.3977, 127.0436
944.8798, 128.3864
945.3619, 131.0846
945.8441, 136.9481
946.3262, 142.6171
946.8083, 146.4390
947.2904, 149.9707
947.7725, 155.7248
948.2546, 162.0541
948.7368, 165.1430
949.2189, 163.8294
949.7010, 160.5332
950.1831, 156.7743
950.6652, 151.8305
951.1473, 144.2627
951.6295, 135.2597
952.1116, 126.7502
952.5937, 119.1049
953.0758, 112.1256
953.5579, 105.6446
954.0400, 99.88840
954.5222, 95.17992
955.0043, 91.42870
955.4864, 88.47769
955.9685, 86.26275
956.4506, 84.36089
956.9327, 82.64512
957.4149, 80.87599
957.8970, 78.73108
958.3791, 76.58334
958.8612, 75.96301
959.3433, 73.87110
959.8254, 75.96188
960.3076, 71.52094
960.7897, 68.22989
961.2718, 68.38502
961.7539, 69.72437
962.2360, 69.33200
962.7181, 67.31196
963.2003, 66.10191
963.6824, 65.78770
964.1645, 66.15854
964.6466, 68.28598
965.1287, 69.74067
965.6108, 68.37857
966.0930, 65.93143
966.5751, 65.13781
967.0572, 66.25381
967.5393, 66.77087
968.0214, 66.00389
968.5035, 65.18015
968.9857, 64.25029
969.4678, 63.72939
969.9499, 64.41167
970.4320, 65.70651
970.9141, 66.22397
971.3962, 65.54506
971.8784, 64.94945
972.3605, 65.62711
972.8426, 65.92938
973.3247, 63.62466
973.8068, 60.95646
974.2889, 61.34935
974.7711, 64.32254
975.2532, 66.65063
975.7353, 66.89439
976.2174, 65.83400
976.6995, 62.91899
977.1816, 59.99915
977.6638, 60.42826
978.1459, 62.90517
978.6280, 63.85711
979.1101, 62.65049
979.5922, 61.10848
980.0743, 60.49194
980.5565, 60.32779
981.0386, 59.77965
981.5207, 59.04391
982.0028, 59.04582
982.4849, 59.70074
982.9670, 59.69202
983.4492, 58.56957
983.9313, 57.42974
984.4134, 57.34376
984.8955, 57.10132
985.3776, 58.23699
985.8597, 58.07024
986.3419, 58.58772
986.8240, 60.07553
987.3061, 60.92439
987.7882, 60.34916
988.2703, 59.08966
988.7524, 57.93624
989.2346, 56.91842
989.7167, 56.42561
990.1988, 56.59019
990.6809, 56.88844
991.1630, 57.33813
991.6451, 57.80214
992.1273, 58.31358
992.6094, 58.70170
993.0915, 58.51579
993.5736, 57.66894
994.0557, 57.85764
994.5378, 60.84325
995.0200, 62.25509
995.5021, 60.06057
995.9842, 57.92180
996.4663, 58.14429
996.9484, 59.56133
997.4305, 60.22160
997.9127, 59.93115
998.3948, 59.54340
998.8769, 59.02743
999.3590, 58.65681
999.8411, 58.65203
1000.323, 58.69554
1000.805, 58.37346
1001.287, 57.95804
1001.770, 58.20329
1002.252, 59.33256
1002.734, 59.92407
1003.216, 58.59333
1003.698, 57.48343
1004.180, 58.16180
1004.662, 59.48827
1005.144, 60.76196
1005.627, 61.46154
1006.109, 60.26941
1006.591, 56.60297
1007.073, 53.73946
1007.555, 54.74174
1008.037, 56.84978
1008.519, 57.78180
1009.001, 57.80684
1009.483, 56.91603
1009.966, 55.62725
1010.448, 55.62931
1010.930, 57.78588
1011.412, 59.92005
1011.894, 59.36317
1012.376, 57.72127
1012.858, 57.49405
1013.340, 58.25573
1013.823, 59.00427
1014.305, 59.44147
1014.787, 59.08132
1015.269, 57.57179
1015.751, 56.25233
1016.233, 57.71724
1016.715, 60.59471
1017.197, 60.49530
1017.679, 58.07869
1018.162, 56.94911
1018.644, 57.80535
1019.126, 58.72644
1019.608, 58.41473
1020.090, 58.90052
1020.572, 57.76162
1021.054, 58.64810
1021.536, 58.75277
1022.018, 58.11165
1022.501, 58.23689
1022.983, 59.54934
1023.465, 60.68830
1023.947, 60.66022
1024.429, 59.82661
1024.911, 58.62981
1025.393, 57.02960
1025.875, 57.53076
1026.358, 60.56872
1026.840, 61.87004
1027.322, 59.98195
1027.804, 57.64719
1028.286, 56.86132
1028.768, 57.36771
1029.250, 58.87645
1029.732, 61.81147
1030.214, 62.13126
1030.697, 58.86415
1031.179, 56.36795
1031.661, 55.98032
1032.143, 56.14970
1032.625, 55.54047
1033.107, 54.68096
1033.589, 55.28642
1034.071, 58.12590
1034.553, 58.80212
1035.036, 55.95578
1035.518, 53.94707
1036.000, 54.38459
1036.482, 55.23003
1036.964, 54.64111
1037.446, 53.32949
1037.928, 53.51777
1038.410, 55.93245
1038.893, 57.25103
1039.375, 56.16671
1039.857, 56.10585
1040.339, 59.38035
1040.821, 62.37092
1041.303, 61.79529
1041.785, 58.89471
1042.267, 57.22328
1042.750, 57.21638
1043.232, 56.97993
1043.714, 56.13491
1044.196, 55.55033
1044.678, 55.60080
1045.160, 55.81226
1045.642, 56.04151
1046.124, 56.12584
1046.606, 55.49641
1047.089, 53.67942
1047.571, 53.06657
1048.053, 55.13729
1048.535, 56.77966
1049.017, 56.71517
1049.499, 56.32923
1049.981, 56.88882
1050.463, 57.88834
1050.945, 58.12767
1051.428, 57.42237
1051.910, 56.29625
1052.392, 53.90302
1052.874, 52.36935
1053.356, 53.22918
1053.838, 54.39175
1054.320, 54.27220
1054.802, 53.22663
1055.285, 51.96729
1055.767, 50.52973
1056.249, 49.89858
1056.731, 50.52489
1057.213, 51.74943
1057.695, 54.26544
1058.177, 56.39738
1058.659, 56.68227
1059.141, 55.70598
1059.624, 54.36435
1060.106, 52.81744
1060.588, 52.37716
1061.070, 54.70283
1061.552, 56.55383
1062.034, 56.27728
1062.516, 55.39771
1062.998, 54.90169
1063.480, 54.75265
1063.963, 54.72660
1064.445, 54.78469
1064.927, 54.98095
1065.409, 56.02945
1065.891, 56.27980
1066.373, 54.01098
1066.855, 51.71581
1067.337, 51.58651
1067.820, 52.60981
1068.302, 52.97970
1068.784, 52.50538
1069.266, 52.37313
1069.748, 53.48596
1070.230, 54.21821
1070.712, 53.15758
1071.194, 52.15490
1071.677, 53.32478
1072.159, 55.04418
1072.641, 54.51744
1073.123, 51.85847
1073.605, 49.90684
1074.087, 49.67389
1074.569, 50.32960
1075.051, 52.40556
1075.533, 54.27006
1076.016, 54.50537
1076.498, 53.98207
1076.980, 53.76489
1077.462, 53.98140
1077.944, 54.41644
1078.426, 55.07087
1078.908, 55.67550
1079.390, 55.98494
1079.873, 56.34175
1080.355, 57.32748
1080.837, 58.22616
1081.319, 57.99844
1081.801, 56.92284
1082.283, 56.16047
1082.765, 56.12514
1083.247, 55.90370
1083.729, 54.32780
1084.212, 53.34635
1084.694, 55.06809
1085.176, 57.16533
1085.658, 56.65952
1086.140, 54.63219
1086.622, 54.47034
1087.104, 57.08678
1087.586, 58.75392
1088.068, 57.18002
1088.551, 55.20509
1089.033, 53.99819
1089.515, 53.21843
1089.997, 52.50394
1090.479, 51.98762
1090.961, 52.03030
1091.443, 52.67245
1091.925, 53.42984
1092.408, 54.77054
1092.890, 55.30499
1093.372, 53.50037
1093.854, 51.69413
1094.336, 51.95473
1094.818, 53.11480
1095.300, 53.24903
1095.782, 52.25807
1096.265, 51.47844
1096.747, 51.24793
1097.229, 51.36808
1097.711, 52.19062
1098.193, 52.87219
1098.675, 52.48500
1099.157, 51.99032
1099.639, 52.78603
1100.121, 54.57986
1100.604, 55.71898
1101.086, 55.74504
1101.568, 55.46333
1102.050, 54.55636
1102.532, 54.04136
1103.014, 55.21999
1103.496, 56.24699
1103.978, 54.88552
1104.460, 52.10387
1104.943, 50.68706
1105.425, 51.26530
1105.907, 51.73971
1106.389, 51.42976
1106.871, 51.38543
1107.353, 52.42031
1107.835, 53.30737
1108.317, 52.89925
1108.800, 51.89775
1109.282, 51.56650
1109.764, 52.01598
1110.246, 52.44190
1110.728, 53.04659
1111.210, 53.20527
1111.692, 52.52861
1112.174, 51.74429
1112.656, 51.16053
1113.139, 50.68322
1113.621, 50.22687
1114.103, 49.78183
1114.585, 49.24001
1115.067, 47.96363
1115.549, 47.76196
1116.031, 49.90197
1116.513, 51.29137
1116.995, 50.20666
1117.478, 48.81983
1117.960, 49.28286
1118.442, 50.89215
1118.924, 51.39237
1119.406, 50.56403
1119.888, 49.43052
1120.370, 47.48990
1120.852, 46.32978
1121.335, 46.61461
1121.817, 47.18160
1122.299, 47.30597
1122.781, 47.20516
1123.263, 47.23963
1123.745, 47.40736
1124.227, 47.94030
1124.709, 49.17514
1125.192, 49.37957
1125.674, 47.72873
1126.156, 47.09035
1126.638, 49.28269
1127.120, 51.81569
1127.602, 51.62616
1128.084, 49.30241
1128.566, 47.52287
1129.048, 46.18723
1129.531, 46.69909
1130.013, 49.50856
1130.495, 51.01644
1130.977, 49.83903
1131.459, 48.93280
1131.941, 50.94279
1132.423, 54.05145
1132.905, 54.03419
1133.387, 51.12641
1133.870, 48.74256
1134.352, 46.91219
1134.834, 47.19661
1135.316, 49.84899
1135.798, 51.54915
1136.280, 50.43935
1136.762, 48.31285
1137.244, 47.27098
1137.727, 47.21834
1138.209, 48.37023
1138.691, 50.25820
1139.173, 50.73115
1139.655, 49.76675
1140.137, 48.42736
1140.619, 47.16980
1141.101, 46.72038
1141.583, 47.83362
1142.066, 49.52136
1142.548, 50.52519
1143.030, 50.85686
1143.512, 50.50764
1143.994, 49.50453
1144.476, 47.47027
1144.958, 44.73416
1145.440, 42.98742
1145.922, 43.11465
1146.405, 43.85105
1146.887, 43.65754
1147.369, 43.78129
1147.851, 46.66894
1148.333, 50.15436
1148.815, 50.61301
1149.297, 48.80275
1149.779, 47.40882
1150.262, 47.22709
1150.744, 47.71438
1151.226, 49.02826
1151.708, 50.15580
1152.190, 50.35923
1152.672, 50.18175
1153.154, 50.20968
1153.636, 50.08556
1154.119, 48.70400
1154.601, 46.53278
1155.083, 46.11406
1155.565, 48.86014
1156.047, 50.82151
1156.529, 50.25714
1157.011, 49.21682
1157.493, 48.19977
1157.975, 47.44580
1158.458, 47.46479
1158.940, 47.76402
1159.422, 47.07416
1159.904, 45.15381
1160.386, 44.40073
1160.868, 46.22203
1161.350, 47.36261
1161.832, 46.89806
1162.314, 46.45009
1162.797, 46.62345
1163.279, 47.19515
1163.761, 48.08496
1164.243, 49.15818
1164.725, 49.75060
1165.207, 49.74381
1165.689, 49.65768
1166.171, 49.43580
1166.654, 49.34784
1167.136, 49.58223
1167.618, 49.51289
1168.100, 48.53355
1168.582, 47.50988
1169.064, 48.15795
1169.546, 50.13945
1170.028, 50.03872
1170.510, 47.78733
1170.993, 46.32569
1171.475, 45.96560
1171.957, 46.34760
1172.439, 47.36464
1172.921, 48.24009
1173.403, 48.24422
1173.885, 48.40043
1174.367, 47.57547
1174.849, 47.54779
1175.332, 46.81177
1175.814, 45.82695
1176.296, 46.92577
1176.778, 50.02000
1177.260, 52.18929
1177.742, 52.03054
1178.224, 50.95934
1178.706, 49.93578
1179.189, 49.21615
1179.671, 49.60131
1180.153, 50.18279
1180.635, 49.15210
1181.117, 47.33037
1181.599, 46.87269
1182.081, 48.02999
1182.563, 49.26403
1183.046, 49.86130
1183.528, 50.38709
1184.010, 51.93317
1184.492, 52.63916
1184.974, 50.25719
1185.456, 47.19946
1185.938, 45.90412
1186.420, 46.07950
1186.902, 46.48480
1187.385, 46.91211
1187.867, 47.75431
1188.349, 50.25270
1188.831, 51.41698
1189.313, 49.05210
1189.795, 47.20440
1190.277, 48.47170
1190.759, 50.65170
1191.241, 51.74854
1191.724, 51.87354
1192.206, 51.33602
1192.688, 51.99083
1193.170, 49.52328
1193.652, 51.78763
1194.134, 52.84847
1194.616, 51.73402
1195.098, 50.18014
1195.581, 49.11232
1196.063, 48.18414
1196.545, 46.69507
1197.027, 45.15925
1197.509, 46.38154
1197.991, 50.09631
1198.473, 51.72902
1198.955, 51.15193
1199.438, 50.64494
1199.920, 50.83271
1200.402, 51.08439
1200.884, 50.99097
1201.366, 50.65774
1201.848, 49.88571
1202.330, 49.19593
1202.812, 50.34103
1203.294, 51.97788
1203.776, 50.64646
1204.259, 47.30153
1204.741, 45.65553
1205.223, 46.62634
1205.705, 48.22666
1206.187, 49.66684
1206.669, 50.52703
1207.151, 50.08171
1207.633, 49.41667
1208.116, 49.25831
1208.598, 49.46252
1209.080, 50.30791
1209.562, 51.21320
1210.044, 50.57344
1210.526, 47.95513
1211.008, 45.98908
1211.490, 44.89019
1211.973, 44.90326
1212.455, 47.03847
1212.937, 49.10447
1213.419, 50.27657
1213.901, 50.83656
1214.383, 51.12188
1214.865, 50.98263
1215.347, 49.74018
1215.829, 47.05543
1216.312, 45.70790
1216.794, 45.98630
1217.276, 46.22902
1217.758, 46.16786
1218.240, 45.82251
1218.722, 45.10851
1219.204, 44.83624
1219.686, 46.06940
1220.168, 48.05764
1220.651, 49.13079
1221.133, 49.26289
1221.615, 47.42353
1222.097, 44.52178
1222.579, 44.92501
1223.061, 48.70010
1223.543, 51.21976
1224.025, 50.29478
1224.508, 48.62658
1224.990, 48.48157
1225.472, 48.85310
1225.954, 48.95741
1226.436, 48.83161
1226.918, 48.45374
1227.400, 47.91305
1227.882, 47.01294
1228.365, 46.04271
1228.847, 46.30695
1229.329, 48.61147
1229.811, 50.26199
1230.293, 50.48549
1230.775, 49.98860
1231.257, 48.30520
1231.739, 46.73439
1232.221, 46.36478
1232.703, 46.36097
1233.186, 45.27738
1233.668, 43.52421
1234.150, 44.13842
1234.632, 48.32800
1235.114, 49.89184
1235.596, 48.17904
1236.078, 46.69215
1236.560, 46.22428
1237.043, 46.15948
1237.525, 46.16658
1238.007, 46.23172
1238.489, 46.29873
1238.971, 46.46976
1239.453, 47.39040
1239.935, 46.91491
1240.417, 48.11721
1240.900, 46.39797
1241.382, 45.18239
1241.864, 44.78532
1242.346, 44.59578
1242.828, 44.32421
1243.310, 43.98833
1243.792, 43.00695
1244.274, 42.67672
1244.756, 45.41774
1245.239, 47.98888
1245.721, 46.14375
1246.203, 42.63910
1246.685, 42.09977
1247.167, 44.44529
1247.649, 46.42406
1248.131, 47.58012
1248.613, 48.05032
1249.095, 47.28689
1249.578, 46.65764
1250.060, 46.07948
1250.542, 46.27779
1251.024, 48.25266
1251.506, 50.12171
1251.988, 49.34851
1252.470, 50.13493
1252.952, 46.46915
1253.435, 48.33167
1253.917, 47.60332
1254.399, 44.36679
1254.881, 43.61385
1255.363, 46.06142
1255.845, 48.01323
1256.327, 47.76543
1256.809, 47.00364
1257.292, 47.34204
1257.774, 47.02182
1258.256, 47.68631
1258.738, 47.07659
1259.220, 47.08570
1259.702, 47.35569
1260.184, 47.05804
1260.666, 46.37178
1261.148, 46.14516
1261.630, 46.60948
1262.113, 47.32798
1262.595, 48.93090
1263.077, 49.57678
1263.559, 47.87128
1264.041, 46.17068
1264.523, 45.53701
1265.005, 45.51303
1265.487, 46.01705
1265.970, 46.59861
1266.452, 46.06956
1266.934, 44.39669
1267.416, 43.82972
1267.898, 44.49276
1268.380, 45.41832
1268.862, 46.54215
1269.344, 47.40158
1269.827, 47.85115
1270.309, 48.13768
1270.791, 48.48164
1271.273, 48.40961
1271.755, 46.48553
1272.237, 44.25154
1272.719, 44.99274
1273.201, 47.25612
1273.683, 49.00041
1274.166, 49.80806
1274.648, 48.94822
1275.130, 46.73355
1275.612, 45.21175
1276.094, 45.23074
1276.576, 45.60170
1277.058, 46.54211
1277.540, 46.79358
1278.022, 44.80832
1278.505, 43.14210
1278.987, 43.88839
1279.469, 45.55585
1279.951, 46.34624
1280.433, 46.60532
1280.915, 47.91861
1281.397, 50.56765
1281.879, 52.09399
1282.362, 52.44316
1282.844, 52.25979
1283.326, 51.64512
1283.808, 50.21438
1284.290, 47.81840
1284.772, 46.15583
1285.254, 46.55705
1285.736, 49.01386
##END=



