##NAMES=Montebrasite
##RRUFFID=R060890
##IDEAL CHEMISTRY=LiAlPO_4_(OH)
##LOCALITY=Mount Marie, Paris, Maine, USA
##OWNER=RRUFF
##SOURCE=Bob Jenkins
##DESCRIPTION=Colorless massive
##STATUS=The identification of this mineral is confirmed by single-crystal X-ray diffraction and chemical analysis.
##URL=rruff.info/R060890
##MEASURED CHEMISTRY=Li_1.00_Al_1.00_(P_1.00_O_4_)(OH)_0.63_F_0.37_)_Î£=1_ ; Li not measured but estimated by stoichiometry
155.7577, 1937.629
156.2398, 1925.416
156.7219, 1927.109
157.2041, 1938.765
157.6862, 1962.163
158.1683, 1995.471
158.6504, 2029.461
159.1325, 2057.282
159.6146, 2081.350
160.0968, 2113.052
160.5789, 2156.439
161.0610, 2203.688
161.5431, 2249.915
162.0252, 2295.225
162.5073, 2341.864
162.9895, 2392.222
163.4716, 2445.209
163.9537, 2495.194
164.4358, 2544.181
164.9179, 2588.688
165.4000, 2625.967
165.8822, 2655.903
166.3643, 2679.745
166.8464, 2695.678
167.3285, 2705.907
167.8106, 2718.445
168.2927, 2744.992
168.7749, 2767.226
169.2570, 2766.515
169.7391, 2742.000
170.2212, 2708.150
170.7033, 2670.675
171.1854, 2630.701
171.6676, 2590.884
172.1497, 2547.794
172.6318, 2507.414
173.1139, 2478.885
173.5960, 2463.570
174.0781, 2447.668
174.5603, 2419.700
175.0424, 2384.739
175.5245, 2353.465
176.0066, 2330.464
176.4887, 2310.920
176.9708, 2289.445
177.4530, 2265.850
177.9351, 2240.757
178.4172, 2212.886
178.8993, 2183.746
179.3814, 2156.696
179.8635, 2132.334
180.3457, 2110.598
180.8278, 2091.053
181.3099, 2073.553
181.7920, 2059.187
182.2741, 2052.948
182.7562, 2049.954
183.2384, 2042.367
183.7205, 2025.912
184.2026, 2004.907
184.6847, 1984.279
185.1668, 1963.520
185.6489, 1945.789
186.1311, 1934.910
186.6132, 1928.070
187.0953, 1921.920
187.5774, 1917.082
188.0595, 1911.358
188.5416, 1900.437
189.0238, 1882.810
189.5059, 1865.723
189.9880, 1855.068
190.4701, 1847.174
190.9522, 1836.873
191.4343, 1820.174
191.9165, 1802.041
192.3986, 1790.409
192.8807, 1786.467
193.3628, 1784.276
193.8449, 1781.714
194.3270, 1778.743
194.8092, 1775.021
195.2913, 1769.318
195.7734, 1763.851
196.2555, 1762.935
196.7376, 1767.952
197.2197, 1771.718
197.7019, 1769.073
198.1840, 1763.390
198.6661, 1758.189
199.1482, 1753.897
199.6303, 1751.162
200.1124, 1751.384
200.5946, 1755.091
201.0767, 1759.223
201.5588, 1761.417
202.0409, 1763.492
202.5230, 1768.179
203.0051, 1778.124
203.4873, 1788.023
203.9694, 1788.027
204.4515, 1775.235
204.9336, 1769.036
205.4157, 1788.902
205.8978, 1815.958
206.3800, 1828.940
206.8621, 1819.079
207.3442, 1801.498
207.8263, 1793.741
208.3084, 1796.614
208.7905, 1802.135
209.2727, 1809.068
209.7548, 1816.194
210.2369, 1823.042
210.7190, 1830.715
211.2011, 1834.966
211.6832, 1827.962
212.1654, 1808.682
212.6475, 1794.950
213.1296, 1797.962
213.6117, 1807.231
214.0938, 1811.731
214.5760, 1809.220
215.0581, 1804.821
215.5402, 1803.160
216.0223, 1804.251
216.5044, 1805.524
216.9865, 1807.646
217.4687, 1808.424
217.9508, 1805.258
218.4329, 1797.368
218.9150, 1788.582
219.3971, 1781.313
219.8792, 1775.562
220.3614, 1771.371
220.8435, 1767.173
221.3256, 1766.510
221.8077, 1775.024
222.2898, 1794.386
222.7719, 1809.869
223.2541, 1808.276
223.7362, 1792.681
224.2183, 1779.998
224.7004, 1774.325
225.1825, 1772.852
225.6646, 1773.200
226.1468, 1775.467
226.6289, 1776.088
227.1110, 1772.525
227.5931, 1765.647
228.0752, 1757.967
228.5573, 1749.150
229.0395, 1741.050
229.5216, 1734.500
230.0037, 1729.451
230.4858, 1728.663
230.9679, 1738.296
231.4500, 1752.634
231.9322, 1757.770
232.4143, 1749.273
232.8964, 1737.701
233.3785, 1734.865
233.8606, 1738.919
234.3427, 1739.457
234.8249, 1730.834
235.3070, 1717.442
235.7891, 1704.280
236.2712, 1690.671
236.7533, 1682.666
237.2354, 1689.891
237.7176, 1708.860
238.1997, 1723.960
238.6818, 1735.640
239.1639, 1740.246
239.6460, 1728.121
240.1281, 1697.755
240.6103, 1672.715
241.0924, 1674.811
241.5745, 1698.669
242.0566, 1713.407
242.5387, 1711.816
243.0208, 1703.895
243.5030, 1695.385
243.9851, 1686.784
244.4672, 1680.978
244.9493, 1681.274
245.4314, 1685.838
245.9135, 1685.715
246.3957, 1673.239
246.8778, 1663.312
247.3599, 1668.801
247.8420, 1685.275
248.3241, 1694.666
248.8062, 1684.934
249.2884, 1663.771
249.7705, 1658.379
250.2526, 1676.529
250.7347, 1697.491
251.2168, 1717.141
251.6989, 1734.242
252.1811, 1745.871
252.6632, 1750.448
253.1453, 1749.575
253.6274, 1746.155
254.1095, 1734.896
254.5916, 1730.493
255.0738, 1740.659
255.5559, 1757.650
256.0380, 1769.930
256.5201, 1773.654
257.0022, 1775.882
257.4843, 1788.633
257.9665, 1818.337
258.4486, 1846.313
258.9307, 1874.106
259.4128, 1898.850
259.8949, 1916.466
260.3770, 1926.701
260.8592, 1934.366
261.3413, 1944.566
261.8234, 1955.892
262.3055, 1976.451
262.7876, 2016.936
263.2697, 2057.242
263.7519, 2079.923
264.2340, 2087.664
264.7161, 2099.265
265.1982, 2133.080
265.6803, 2192.313
266.1624, 2244.538
266.6446, 2293.952
267.1267, 2333.572
267.6088, 2354.156
268.0909, 2362.437
268.5730, 2372.955
269.0551, 2396.189
269.5373, 2430.863
270.0194, 2463.392
270.5015, 2494.605
270.9836, 2522.455
271.4657, 2549.811
271.9478, 2572.798
272.4300, 2583.962
272.9121, 2578.739
273.3942, 2563.980
273.8763, 2560.375
274.3584, 2574.512
274.8405, 2590.074
275.3227, 2610.144
275.8048, 2627.482
276.2869, 2633.754
276.7690, 2626.192
277.2511, 2612.904
277.7332, 2606.250
278.2154, 2606.795
278.6975, 2612.454
279.1796, 2625.025
279.6617, 2641.008
280.1438, 2658.806
280.6259, 2678.090
281.1081, 2698.775
281.5902, 2720.639
282.0723, 2743.703
282.5544, 2769.045
283.0365, 2797.654
283.5186, 2827.890
284.0008, 2856.304
284.4829, 2884.660
284.9650, 2919.781
285.4471, 2967.470
285.9292, 3026.013
286.4113, 3088.630
286.8935, 3156.886
287.3756, 3226.568
287.8577, 3285.989
288.3398, 3345.021
288.8219, 3425.772
289.3040, 3545.479
289.7862, 3685.781
290.2683, 3814.960
290.7504, 3927.308
291.2325, 4062.547
291.7146, 4256.446
292.1967, 4483.195
292.6789, 4699.949
293.1610, 4891.616
293.6431, 5083.955
294.1252, 5294.078
294.6073, 5521.603
295.0894, 5765.342
295.5716, 6029.213
296.0537, 6305.710
296.5358, 6577.135
297.0179, 6838.786
297.5000, 7110.339
297.9821, 7416.774
298.4643, 7733.172
298.9464, 8018.216
299.4285, 8260.625
299.9106, 8465.513
300.3927, 8646.110
300.8748, 8811.452
301.3570, 8901.262
301.8391, 8895.158
302.3212, 8819.400
302.8033, 8688.804
303.2854, 8507.215
303.7675, 8286.625
304.2497, 8032.432
304.7318, 7741.601
305.2139, 7451.603
305.6960, 7142.352
306.1781, 6851.708
306.6602, 6601.419
307.1424, 6384.603
307.6245, 6179.122
308.1066, 5971.180
308.5887, 5764.075
309.0708, 5576.438
309.5529, 5420.253
310.0351, 5271.924
310.5172, 5135.225
310.9993, 5003.214
311.4814, 4866.769
311.9635, 4722.873
312.4456, 4578.478
312.9278, 4446.488
313.4099, 4333.578
313.8920, 4220.708
314.3741, 4102.856
314.8562, 3987.865
315.3383, 3879.653
315.8205, 3779.334
316.3026, 3687.480
316.7847, 3605.737
317.2668, 3535.001
317.7489, 3465.341
318.2310, 3392.715
318.7132, 3325.818
319.1953, 3268.418
319.6774, 3219.542
320.1595, 3175.428
320.6416, 3135.180
321.1237, 3097.798
321.6059, 3061.208
322.0880, 3025.118
322.5701, 2989.648
323.0522, 2955.629
323.5343, 2921.724
324.0164, 2885.802
324.4986, 2846.104
324.9807, 2806.184
325.4628, 2768.966
325.9449, 2734.511
326.4270, 2704.941
326.9091, 2684.490
327.3913, 2665.963
327.8734, 2638.626
328.3555, 2601.066
328.8376, 2562.580
329.3197, 2525.382
329.8018, 2490.555
330.2840, 2460.500
330.7661, 2436.353
331.2482, 2413.576
331.7303, 2386.651
332.2124, 2355.024
332.6945, 2325.949
333.1767, 2302.436
333.6588, 2279.765
334.1409, 2252.781
334.6230, 2222.492
335.1051, 2195.247
335.5872, 2175.857
336.0694, 2163.436
336.5515, 2146.938
337.0336, 2119.598
337.5157, 2096.656
337.9979, 2084.999
338.4800, 2078.999
338.9621, 2070.080
339.4442, 2054.647
339.9263, 2035.726
340.4084, 2019.233
340.8906, 2001.873
341.3727, 1993.402
341.8548, 2003.020
342.3369, 2013.761
342.8190, 2012.770
343.3011, 1999.372
343.7833, 1982.811
344.2654, 1972.675
344.7475, 1969.484
345.2296, 1963.221
345.7117, 1947.273
346.1938, 1935.859
346.6760, 1935.707
347.1581, 1943.802
347.6402, 1954.432
348.1223, 1966.193
348.6044, 1977.177
349.0865, 1982.371
349.5687, 1980.148
350.0508, 1978.664
350.5329, 1983.705
351.0150, 1989.908
351.4971, 1991.736
351.9792, 1988.239
352.4614, 1980.870
352.9435, 1965.376
353.4256, 1945.613
353.9077, 1938.840
354.3898, 1952.881
354.8719, 1973.747
355.3541, 1983.874
355.8362, 1983.863
356.3183, 1984.932
356.8004, 1993.413
357.2825, 2001.836
357.7646, 1998.808
358.2468, 1985.017
358.7289, 1976.737
359.2110, 1988.293
359.6931, 2017.354
360.1752, 2032.106
360.6573, 2016.121
361.1395, 2006.623
361.6216, 2023.158
362.1037, 2052.305
362.5858, 2071.502
363.0679, 2071.246
363.5500, 2059.654
364.0322, 2053.097
364.5143, 2054.251
364.9964, 2056.144
365.4785, 2056.380
365.9606, 2058.980
366.4427, 2068.702
366.9249, 2084.460
367.4070, 2099.675
367.8891, 2107.876
368.3712, 2109.186
368.8533, 2110.488
369.3354, 2111.537
369.8176, 2112.903
370.2997, 2116.330
370.7818, 2119.835
371.2639, 2119.974
371.7460, 2114.509
372.2281, 2106.730
372.7103, 2101.745
373.1924, 2099.918
373.6745, 2097.283
374.1566, 2091.911
374.6387, 2085.688
375.1208, 2081.198
375.6030, 2078.856
376.0851, 2075.268
376.5672, 2069.314
377.0493, 2060.791
377.5314, 2048.677
378.0135, 2032.528
378.4957, 2015.034
378.9778, 1997.721
379.4599, 1980.861
379.9420, 1967.376
380.4241, 1960.062
380.9063, 1953.561
381.3884, 1945.057
381.8705, 1934.970
382.3526, 1924.948
382.8347, 1916.055
383.3168, 1907.114
383.7990, 1894.919
384.2811, 1875.103
384.7632, 1857.681
385.2453, 1842.554
385.7274, 1829.983
386.2095, 1821.798
386.6917, 1817.382
387.1738, 1812.536
387.6559, 1802.120
388.1380, 1785.450
388.6201, 1772.494
389.1022, 1761.631
389.5844, 1756.986
390.0665, 1765.371
390.5486, 1779.659
391.0307, 1787.331
391.5128, 1781.196
391.9949, 1768.886
392.4771, 1762.713
392.9592, 1763.199
393.4413, 1765.825
393.9234, 1773.631
394.4055, 1779.236
394.8876, 1772.981
395.3698, 1753.444
395.8519, 1736.067
396.3340, 1730.661
396.8161, 1732.010
397.2982, 1730.652
397.7803, 1725.167
398.2625, 1719.968
398.7446, 1719.688
399.2267, 1723.831
399.7088, 1722.430
400.1909, 1708.474
400.6730, 1696.471
401.1552, 1694.514
401.6373, 1698.937
402.1194, 1702.659
402.6015, 1702.694
403.0836, 1699.959
403.5657, 1696.231
404.0479, 1690.933
404.5300, 1685.607
405.0121, 1679.164
405.4942, 1673.593
405.9763, 1671.086
406.4584, 1670.939
406.9406, 1670.140
407.4227, 1665.835
407.9048, 1658.728
408.3869, 1652.858
408.8690, 1645.206
409.3511, 1644.746
409.8333, 1658.809
410.3154, 1679.386
410.7975, 1697.707
411.2796, 1711.434
411.7617, 1722.866
412.2438, 1731.551
412.7260, 1738.753
413.2081, 1752.769
413.6902, 1776.255
414.1723, 1805.036
414.6544, 1835.797
415.1365, 1868.381
415.6187, 1901.273
416.1008, 1928.022
416.5829, 1959.749
417.0650, 2006.811
417.5471, 2068.000
418.0292, 2135.204
418.5114, 2203.777
418.9935, 2275.313
419.4756, 2355.198
419.9577, 2451.934
420.4398, 2547.026
420.9219, 2637.776
421.4041, 2727.713
421.8862, 2819.344
422.3683, 2913.655
422.8504, 3010.698
423.3325, 3114.292
423.8146, 3224.778
424.2968, 3315.284
424.7789, 3390.954
425.2610, 3436.936
425.7431, 3452.235
426.2252, 3436.520
426.7073, 3388.869
427.1895, 3308.552
427.6716, 3198.514
428.1537, 3051.465
428.6358, 2868.970
429.1179, 2700.427
429.6000, 2558.315
430.0822, 2434.019
430.5643, 2315.690
431.0464, 2202.736
431.5285, 2107.332
432.0106, 2038.101
432.4927, 1984.081
432.9749, 1937.761
433.4570, 1898.003
433.9391, 1861.841
434.4212, 1827.524
434.9033, 1795.626
435.3854, 1768.164
435.8676, 1745.675
436.3497, 1727.296
436.8318, 1715.537
437.3139, 1706.361
437.7960, 1695.980
438.2781, 1683.895
438.7603, 1671.870
439.2424, 1661.497
439.7245, 1652.782
440.2066, 1646.564
440.6887, 1644.144
441.1708, 1642.570
441.6530, 1642.761
442.1351, 1642.433
442.6172, 1637.562
443.0993, 1625.583
443.5814, 1613.126
444.0635, 1610.456
444.5457, 1615.606
445.0278, 1610.824
445.5099, 1587.675
445.9920, 1562.285
446.4741, 1555.485
446.9562, 1565.428
447.4384, 1570.583
447.9205, 1562.183
448.4026, 1552.099
448.8847, 1548.727
449.3668, 1551.443
449.8489, 1558.267
450.3311, 1569.199
450.8132, 1579.918
451.2953, 1578.944
451.7774, 1553.773
452.2595, 1535.677
452.7416, 1527.756
453.2238, 1524.190
453.7059, 1520.804
454.1880, 1517.706
454.6701, 1518.097
455.1522, 1526.425
455.6343, 1539.875
456.1165, 1543.999
456.5986, 1535.012
457.0807, 1525.631
457.5628, 1517.241
458.0449, 1512.525
458.5270, 1516.955
459.0092, 1533.224
459.4913, 1546.389
459.9734, 1542.601
460.4555, 1529.252
460.9376, 1522.926
461.4197, 1526.398
461.9019, 1533.045
462.3840, 1537.798
462.8661, 1540.738
463.3482, 1544.110
463.8303, 1547.011
464.3124, 1551.332
464.7946, 1559.043
465.2767, 1568.122
465.7588, 1575.449
466.2409, 1580.152
466.7230, 1584.054
467.2051, 1589.272
467.6873, 1595.330
468.1694, 1605.156
468.6515, 1626.363
469.1336, 1643.393
469.6157, 1644.994
470.0978, 1639.377
470.5800, 1643.134
471.0621, 1666.268
471.5442, 1694.454
472.0263, 1707.893
472.5084, 1707.317
472.9905, 1706.359
473.4727, 1706.429
473.9548, 1710.496
474.4369, 1725.763
474.9190, 1751.606
475.4011, 1771.030
475.8832, 1776.437
476.3654, 1778.215
476.8475, 1783.505
477.3296, 1791.960
477.8117, 1800.391
478.2938, 1806.905
478.7759, 1813.926
479.2581, 1827.942
479.7402, 1857.438
480.2223, 1878.834
480.7044, 1893.646
481.1865, 1899.849
481.6686, 1889.388
482.1508, 1868.094
482.6329, 1853.997
483.1150, 1862.468
483.5971, 1883.283
484.0792, 1887.850
484.5613, 1872.124
485.0435, 1863.281
485.5256, 1877.843
486.0077, 1898.327
486.4898, 1901.683
486.9719, 1885.968
487.4540, 1869.609
487.9362, 1858.181
488.4183, 1850.500
488.9004, 1847.553
489.3825, 1848.178
489.8646, 1845.636
490.3467, 1835.337
490.8289, 1818.783
491.3110, 1802.209
491.7931, 1783.209
492.2752, 1767.571
492.7573, 1756.724
493.2394, 1748.283
493.7216, 1741.809
494.2037, 1736.285
494.6858, 1728.988
495.1679, 1717.533
495.6500, 1702.485
496.1321, 1685.573
496.6143, 1665.593
497.0964, 1647.763
497.5785, 1636.062
498.0606, 1626.722
498.5427, 1615.265
499.0248, 1601.060
499.5070, 1586.648
499.9891, 1570.195
500.4712, 1555.666
500.9533, 1552.603
501.4354, 1560.502
501.9175, 1563.358
502.3997, 1548.756
502.8818, 1520.169
503.3639, 1497.396
503.8460, 1482.491
504.3282, 1471.202
504.8103, 1465.993
505.2924, 1462.523
505.7745, 1456.382
506.2566, 1447.539
506.7387, 1440.230
507.2209, 1440.164
507.7030, 1444.828
508.1851, 1439.406
508.6672, 1419.298
509.1493, 1402.857
509.6314, 1402.583
510.1136, 1407.722
510.5957, 1403.210
511.0778, 1385.472
511.5599, 1370.529
512.0420, 1367.712
512.5241, 1370.900
513.0062, 1373.174
513.4883, 1373.491
513.9705, 1371.323
514.4526, 1365.990
514.9347, 1358.123
515.4168, 1351.014
515.8989, 1344.018
516.3810, 1338.839
516.8632, 1337.428
517.3453, 1336.568
517.8274, 1333.010
518.3095, 1326.996
518.7916, 1321.856
519.2737, 1321.254
519.7559, 1323.345
520.2380, 1320.982
520.7201, 1312.756
521.2022, 1307.005
521.6843, 1307.758
522.1664, 1312.516
522.6486, 1318.466
523.1307, 1326.937
523.6128, 1329.766
524.0949, 1318.210
524.5770, 1303.875
525.0591, 1299.713
525.5413, 1304.697
526.0234, 1309.085
526.5055, 1306.764
526.9876, 1299.933
527.4697, 1295.712
527.9518, 1295.670
528.4340, 1295.458
528.9161, 1295.271
529.3982, 1294.492
529.8803, 1292.138
530.3624, 1288.718
530.8445, 1286.294
531.3267, 1287.676
531.8088, 1289.336
532.2909, 1283.017
532.7730, 1268.899
533.2551, 1259.214
533.7372, 1259.482
534.2194, 1263.738
534.7015, 1263.806
535.1836, 1259.476
535.6657, 1253.427
536.1478, 1241.014
536.6299, 1231.436
537.1121, 1231.234
537.5942, 1238.376
538.0763, 1248.731
538.5584, 1260.511
539.0405, 1271.589
539.5226, 1278.007
540.0048, 1279.094
540.4869, 1278.310
540.9690, 1275.105
541.4511, 1270.725
541.9332, 1264.630
542.4153, 1258.006
542.8975, 1253.665
543.3796, 1253.834
543.8617, 1254.204
544.3438, 1249.150
544.8259, 1241.371
545.3080, 1239.825
545.7902, 1247.024
546.2723, 1254.595
546.7544, 1253.777
547.2365, 1244.155
547.7186, 1236.973
548.2007, 1231.703
548.6829, 1229.198
549.1650, 1232.090
549.6471, 1236.609
550.1292, 1238.542
550.6113, 1236.976
551.0934, 1234.145
551.5756, 1230.824
552.0577, 1227.729
552.5398, 1230.354
553.0219, 1240.795
553.5040, 1249.391
553.9861, 1250.564
554.4683, 1247.292
554.9504, 1245.842
555.4325, 1247.157
555.9146, 1247.420
556.3967, 1242.547
556.8788, 1238.074
557.3610, 1241.254
557.8431, 1250.699
558.3252, 1258.665
558.8073, 1260.299
559.2894, 1256.851
559.7715, 1251.175
560.2537, 1240.052
560.7358, 1234.629
561.2179, 1242.496
561.7000, 1251.091
562.1821, 1253.665
562.6642, 1250.982
563.1464, 1247.094
563.6285, 1243.526
564.1106, 1239.777
564.5927, 1234.198
565.0748, 1227.747
565.5569, 1224.510
566.0391, 1225.836
566.5212, 1229.712
567.0033, 1234.240
567.4854, 1239.841
567.9675, 1242.765
568.4496, 1242.035
568.9318, 1240.161
569.4139, 1234.022
569.8960, 1228.937
570.3781, 1233.380
570.8602, 1248.917
571.3423, 1265.173
571.8245, 1270.771
572.3066, 1267.791
572.7887, 1266.715
573.2708, 1268.301
573.7529, 1269.746
574.2350, 1269.247
574.7172, 1267.867
575.1993, 1268.022
575.6814, 1270.173
576.1635, 1272.481
576.6456, 1274.292
577.1277, 1276.274
577.6099, 1278.140
578.0920, 1280.612
578.5741, 1286.437
579.0562, 1297.747
579.5383, 1310.724
580.0204, 1314.397
580.5026, 1304.625
580.9847, 1304.782
581.4668, 1327.943
581.9489, 1349.826
582.4310, 1349.838
582.9131, 1335.572
583.3953, 1330.363
583.8774, 1345.108
584.3595, 1364.507
584.8417, 1380.007
585.3238, 1392.485
585.8059, 1401.320
586.2880, 1406.932
586.7701, 1417.475
587.2523, 1442.536
587.7344, 1480.869
588.2165, 1507.668
588.6986, 1511.625
589.1807, 1520.836
589.6628, 1540.824
590.1450, 1567.306
590.6271, 1596.428
591.1092, 1627.951
591.5913, 1664.967
592.0734, 1709.363
592.5555, 1760.354
593.0377, 1817.986
593.5198, 1882.017
594.0019, 1948.738
594.4840, 2015.930
594.9661, 2087.067
595.4482, 2167.427
595.9304, 2260.882
596.4125, 2351.493
596.8946, 2423.804
597.3767, 2510.917
597.8588, 2638.527
598.3409, 2784.107
598.8231, 2913.637
599.3052, 3016.405
599.7873, 3108.189
600.2694, 3210.716
600.7515, 3316.301
601.2336, 3396.808
601.7158, 3449.496
602.1979, 3484.254
602.6800, 3511.938
603.1621, 3522.134
603.6442, 3483.376
604.1263, 3382.361
604.6085, 3266.858
605.0906, 3136.964
605.5727, 2998.748
606.0548, 2845.059
606.5369, 2687.026
607.0190, 2546.317
607.5012, 2435.183
607.9833, 2344.182
608.4654, 2260.387
608.9475, 2184.060
609.4296, 2111.152
609.9117, 2038.631
610.3939, 1976.132
610.8760, 1933.320
611.3581, 1906.849
611.8402, 1880.863
612.3223, 1853.619
612.8044, 1828.925
613.2866, 1804.734
613.7687, 1785.529
614.2508, 1775.849
614.7329, 1775.863
615.2150, 1784.071
615.6971, 1800.713
616.1793, 1822.042
616.6614, 1837.570
617.1435, 1846.461
617.6256, 1853.845
618.1077, 1858.165
618.5898, 1864.469
619.0720, 1875.039
619.5541, 1890.568
620.0362, 1915.687
620.5183, 1956.638
621.0004, 2001.133
621.4825, 2040.325
621.9647, 2080.455
622.4468, 2132.328
622.9289, 2196.576
623.4110, 2262.495
623.8931, 2320.383
624.3752, 2372.488
624.8574, 2430.265
625.3395, 2492.388
625.8216, 2564.824
626.3037, 2656.841
626.7858, 2752.939
627.2679, 2839.065
627.7501, 2915.682
628.2322, 2991.262
628.7143, 3071.609
629.1964, 3148.437
629.6785, 3216.924
630.1606, 3278.438
630.6428, 3337.960
631.1249, 3396.042
631.6070, 3444.610
632.0891, 3475.816
632.5712, 3489.596
633.0533, 3483.357
633.5355, 3449.854
634.0176, 3413.208
634.4997, 3378.158
634.9818, 3344.758
635.4639, 3311.375
635.9460, 3278.422
636.4282, 3252.820
636.9103, 3226.542
637.3924, 3218.009
637.8745, 3245.846
638.3566, 3301.133
638.8387, 3366.880
639.3209, 3437.409
639.8030, 3513.404
640.2851, 3594.196
640.7672, 3680.301
641.2493, 3779.757
641.7314, 3895.602
642.2136, 4020.401
642.6957, 4159.758
643.1778, 4301.682
643.6599, 4441.648
644.1420, 4579.696
644.6241, 4689.332
645.1063, 4770.116
645.5884, 4811.992
646.0705, 4812.344
646.5526, 4767.070
647.0347, 4661.430
647.5168, 4492.888
647.9990, 4286.845
648.4811, 4071.172
648.9632, 3844.731
649.4453, 3608.231
649.9274, 3347.949
650.4095, 3106.939
650.8917, 2898.088
651.3738, 2718.777
651.8559, 2574.631
652.3380, 2466.944
652.8201, 2360.873
653.3022, 2241.422
653.7844, 2125.181
654.2665, 2021.173
654.7486, 1930.387
655.2307, 1856.839
655.7128, 1800.906
656.1949, 1753.530
656.6771, 1703.395
657.1592, 1651.425
657.6413, 1609.512
658.1234, 1578.666
658.6055, 1555.479
659.0876, 1545.425
659.5698, 1537.053
660.0519, 1515.890
660.5340, 1481.603
661.0161, 1445.166
661.4982, 1400.519
661.9803, 1362.744
662.4625, 1343.322
662.9446, 1336.120
663.4267, 1333.676
663.9088, 1332.790
664.3909, 1328.505
664.8730, 1313.213
665.3552, 1290.144
665.8373, 1279.963
666.3194, 1286.909
666.8015, 1282.340
667.2836, 1247.996
667.7657, 1208.349
668.2479, 1198.621
668.7300, 1219.727
669.2121, 1228.171
669.6942, 1208.718
670.1763, 1189.255
670.6584, 1182.893
671.1406, 1182.681
671.6227, 1179.744
672.1048, 1172.318
672.5869, 1163.688
673.0690, 1155.545
673.5511, 1148.938
674.0333, 1147.634
674.5154, 1151.688
674.9975, 1156.223
675.4796, 1160.992
675.9617, 1162.681
676.4438, 1156.147
676.9260, 1140.854
677.4081, 1131.957
677.8902, 1132.811
678.3723, 1135.180
678.8544, 1142.438
679.3365, 1146.847
679.8187, 1138.039
680.3008, 1117.913
680.7829, 1099.936
681.2650, 1091.295
681.7471, 1090.906
682.2292, 1103.295
682.7114, 1124.151
683.1935, 1130.981
683.6756, 1117.752
684.1577, 1100.566
684.6398, 1093.433
685.1219, 1095.404
685.6041, 1098.267
686.0862, 1107.991
686.5683, 1108.928
687.0504, 1093.332
687.5325, 1074.745
688.0146, 1059.641
688.4968, 1049.216
688.9789, 1045.170
689.4610, 1051.411
689.9431, 1057.943
690.4252, 1054.440
690.9073, 1046.163
691.3895, 1043.168
691.8716, 1046.455
692.3537, 1051.828
692.8358, 1057.064
693.3179, 1060.459
693.8000, 1055.699
694.2822, 1038.628
694.7643, 1028.026
695.2464, 1027.296
695.7285, 1030.927
696.2106, 1039.945
696.6927, 1050.054
697.1749, 1051.713
697.6570, 1039.676
698.1391, 1030.065
698.6212, 1030.720
699.1033, 1035.345
699.5854, 1038.446
700.0676, 1040.217
700.5497, 1044.061
701.0318, 1051.639
701.5139, 1057.448
701.9960, 1050.432
702.4781, 1031.922
702.9603, 1023.513
703.4424, 1028.005
703.9245, 1034.156
704.4066, 1037.943
704.8887, 1039.242
705.3708, 1037.181
705.8530, 1030.249
706.3351, 1025.890
706.8172, 1029.194
707.2993, 1029.818
707.7814, 1018.769
708.2635, 1004.385
708.7457, 998.0472
709.2278, 1002.072
709.7099, 1010.038
710.1920, 1022.622
710.6741, 1033.030
711.1563, 1024.232
711.6384, 999.9818
712.1205, 982.6071
712.6026, 979.2273
713.0847, 984.9358
713.5668, 995.8507
714.0490, 1011.665
714.5311, 1020.182
715.0132, 1015.946
715.4953, 1013.306
715.9774, 1018.365
716.4595, 1022.932
716.9417, 1020.045
717.4238, 1010.918
717.9059, 1002.573
718.3880, 997.4798
718.8701, 993.5186
719.3522, 987.0143
719.8344, 981.9973
720.3165, 986.9155
720.7986, 1000.484
721.2807, 1011.572
721.7628, 1012.735
722.2449, 1007.169
722.7271, 1000.697
723.2092, 993.0958
723.6913, 989.4750
724.1734, 991.9823
724.6555, 993.9510
725.1376, 989.0661
725.6198, 981.3140
726.1019, 983.3647
726.5840, 1003.126
727.0661, 1013.019
727.5482, 1001.729
728.0303, 988.8287
728.5125, 980.8451
728.9946, 980.4049
729.4767, 994.7676
729.9588, 1025.872
730.4409, 1051.125
730.9230, 1047.513
731.4052, 1027.115
731.8873, 1008.689
732.3694, 993.3381
732.8515, 983.7296
733.3336, 981.0272
733.8157, 982.0472
734.2979, 983.5306
734.7800, 985.4875
735.2621, 982.1868
735.7442, 967.2349
736.2263, 959.5373
736.7084, 972.2741
737.1906, 987.1549
737.6727, 986.6968
738.1548, 973.6060
738.6369, 967.1703
739.1190, 977.2144
739.6011, 988.2759
740.0833, 994.7834
740.5654, 997.7595
741.0475, 998.8817
741.5296, 997.8237
742.0117, 991.6399
742.4938, 977.5151
742.9760, 961.7935
743.4581, 955.6550
743.9402, 957.7216
744.4223, 958.7818
744.9044, 957.7720
745.3865, 955.4893
745.8687, 951.2425
746.3508, 947.7335
746.8329, 951.9711
747.3150, 968.9999
747.7971, 980.1010
748.2792, 979.5437
748.7614, 979.6309
749.2435, 988.1480
749.7256, 997.6235
750.2077, 997.6309
750.6898, 986.5800
751.1719, 975.0792
751.6541, 965.5988
752.1362, 959.8829
752.6183, 961.7427
753.1004, 967.9089
753.5825, 972.3587
754.0646, 973.5756
754.5468, 973.1594
755.0289, 972.3751
755.5110, 971.2257
755.9931, 968.8547
756.4752, 965.0225
756.9573, 965.6054
757.4395, 973.2160
757.9216, 981.2142
758.4037, 984.6544
758.8858, 984.0687
759.3679, 981.8906
759.8500, 973.0480
760.3322, 970.1392
760.8143, 979.2737
761.2964, 988.3049
761.7785, 990.8181
762.2606, 988.5814
762.7427, 984.1500
763.2249, 977.3925
763.7070, 975.5167
764.1891, 991.9626
764.6712, 1009.231
765.1533, 1001.353
765.6354, 976.6821
766.1176, 961.8044
766.5997, 965.4735
767.0818, 975.4697
767.5639, 979.5548
768.0460, 977.8531
768.5281, 968.1288
769.0103, 947.9995
769.4924, 939.4681
769.9745, 951.8563
770.4566, 969.5747
770.9387, 977.9891
771.4208, 978.1775
771.9030, 981.4218
772.3851, 991.3489
772.8672, 999.0674
773.3493, 1001.875
773.8314, 1004.189
774.3135, 1011.010
774.7957, 1019.131
775.2778, 1020.588
775.7599, 1011.716
776.2420, 1002.237
776.7241, 996.5264
777.2062, 995.0090
777.6884, 999.5316
778.1705, 1008.686
778.6526, 1019.046
779.1347, 1029.233
779.6168, 1038.723
780.0989, 1046.763
780.5811, 1053.541
781.0632, 1059.391
781.5453, 1064.093
782.0274, 1071.451
782.5095, 1084.106
782.9916, 1095.312
783.4738, 1096.626
783.9559, 1089.369
784.4380, 1091.457
784.9201, 1109.073
785.4022, 1127.163
785.8843, 1147.553
786.3665, 1165.402
786.8486, 1176.464
787.3307, 1182.857
787.8128, 1189.452
788.2949, 1197.365
788.7770, 1205.738
789.2592, 1211.959
789.7413, 1220.104
790.2234, 1235.271
790.7055, 1255.430
791.1876, 1276.256
791.6697, 1296.095
792.1519, 1313.917
792.6340, 1327.337
793.1161, 1338.476
793.5982, 1355.021
794.0803, 1376.550
794.5624, 1392.074
795.0446, 1397.299
795.5267, 1406.290
796.0088, 1434.091
796.4909, 1475.857
796.9730, 1501.826
797.4551, 1504.858
797.9373, 1507.895
798.4194, 1509.331
798.9015, 1515.151
799.3836, 1531.314
799.8657, 1552.956
800.3478, 1571.269
800.8300, 1584.779
801.3121, 1597.005
801.7942, 1609.238
802.2763, 1619.947
802.7584, 1624.697
803.2405, 1628.760
803.7227, 1643.710
804.2048, 1669.726
804.6869, 1688.574
805.1690, 1682.336
805.6511, 1665.934
806.1332, 1657.804
806.6154, 1657.310
807.0975, 1665.531
807.5796, 1681.593
808.0617, 1694.954
808.5438, 1698.078
809.0259, 1693.422
809.5081, 1685.735
809.9902, 1674.259
810.4723, 1667.097
810.9544, 1665.752
811.4365, 1666.044
811.9186, 1668.214
812.4008, 1668.656
812.8829, 1660.559
813.3650, 1641.815
813.8471, 1624.537
814.3292, 1610.176
814.8113, 1595.360
815.2935, 1575.330
815.7756, 1557.388
816.2577, 1552.237
816.7398, 1556.602
817.2219, 1552.078
817.7040, 1524.974
818.1862, 1499.236
818.6683, 1492.507
819.1504, 1492.955
819.6325, 1489.944
820.1146, 1481.113
820.5967, 1463.272
821.0789, 1434.970
821.5610, 1404.912
822.0431, 1383.835
822.5252, 1369.215
823.0073, 1354.875
823.4894, 1340.367
823.9716, 1323.317
824.4537, 1302.616
824.9358, 1283.364
825.4179, 1271.732
825.9000, 1265.992
826.3821, 1252.945
826.8643, 1229.546
827.3464, 1209.365
827.8285, 1195.694
828.3106, 1183.381
828.7927, 1168.191
829.2748, 1152.068
829.7570, 1140.614
830.2391, 1136.025
830.7212, 1130.139
831.2033, 1124.185
831.6854, 1114.844
832.1675, 1096.192
832.6497, 1075.933
833.1318, 1063.814
833.6139, 1060.722
834.0960, 1059.612
834.5781, 1061.417
835.0602, 1059.463
835.5424, 1044.173
836.0245, 1024.772
836.5066, 1015.675
836.9887, 1015.973
837.4708, 1013.842
837.9529, 1002.545
838.4351, 989.1291
838.9172, 984.1169
839.3993, 984.5960
839.8814, 980.6323
840.3635, 972.2565
840.8456, 965.4362
841.3278, 962.5827
841.8099, 960.8581
842.2920, 956.6924
842.7741, 950.5186
843.2562, 946.3347
843.7383, 944.6930
844.2205, 942.9854
844.7026, 940.9242
845.1847, 938.2461
845.6668, 933.7798
846.1489, 928.7324
846.6310, 927.3829
847.1132, 933.3483
847.5953, 935.5924
848.0774, 930.5306
848.5595, 925.8936
849.0416, 928.4178
849.5237, 930.8586
850.0059, 921.4510
850.4880, 900.0895
850.9701, 885.4227
851.4522, 890.1194
851.9343, 895.7716
852.4164, 891.3196
852.8986, 883.5150
853.3807, 878.9993
853.8628, 878.4769
854.3449, 881.6443
854.8270, 889.0975
855.3091, 894.4956
855.7913, 887.2371
856.2734, 875.7309
856.7555, 877.3752
857.2376, 888.8843
857.7197, 893.9619
858.2018, 887.6835
858.6840, 880.0529
859.1661, 881.5854
859.6482, 888.9995
860.1303, 891.7485
860.6124, 889.8352
861.0945, 885.2141
861.5767, 877.1720
862.0588, 873.8640
862.5409, 882.2944
863.0230, 895.5168
863.5051, 897.6686
863.9872, 886.3358
864.4694, 874.5332
864.9515, 857.3467
865.4336, 849.3314
865.9157, 862.8608
866.3978, 880.8104
866.8799, 883.6918
867.3621, 873.2396
867.8442, 866.2546
868.3263, 865.4927
868.8084, 865.2091
869.2905, 865.8301
869.7726, 865.4442
870.2548, 859.4713
870.7369, 852.7344
871.2190, 856.2596
871.7011, 873.6837
872.1832, 885.1489
872.6653, 876.4637
873.1475, 864.0585
873.6296, 857.7364
874.1117, 856.3338
874.5938, 859.6564
875.0759, 865.9657
875.5580, 869.6099
876.0402, 867.0132
876.5223, 861.5949
877.0044, 855.9489
877.4865, 850.6287
877.9686, 845.2131
878.4507, 840.8843
878.9329, 843.5255
879.4150, 855.1218
879.8971, 867.5988
880.3792, 871.5101
880.8613, 869.0626
881.3434, 867.9551
881.8256, 868.0813
882.3077, 866.7301
882.7898, 863.0963
883.2719, 862.2274
883.7540, 868.9586
884.2361, 877.6024
884.7183, 872.0521
885.2004, 847.2858
885.6825, 839.2344
886.1646, 856.2420
886.6467, 866.3641
887.1288, 853.8544
887.6110, 836.1526
888.0931, 833.1390
888.5752, 843.9692
889.0573, 852.6278
889.5394, 856.9921
890.0215, 862.5407
890.5037, 876.6650
890.9858, 884.5543
891.4679, 872.3615
891.9500, 851.3600
892.4321, 841.4381
892.9142, 846.1789
893.3964, 848.4006
893.8785, 840.2441
894.3606, 834.1057
894.8427, 838.3151
895.3248, 844.6790
895.8069, 843.4027
896.2891, 836.3926
896.7712, 833.6027
897.2533, 839.7650
897.7354, 847.0762
898.2175, 852.4308
898.6996, 855.2939
899.1818, 853.5102
899.6639, 849.3777
900.1460, 847.8312
900.6281, 849.6008
901.1102, 849.9143
901.5923, 843.1069
902.0745, 836.2086
902.5566, 840.9561
903.0387, 851.4658
903.5208, 854.4995
904.0029, 850.0539
904.4850, 846.7420
904.9672, 848.6948
905.4493, 852.8387
905.9314, 855.7021
906.4135, 857.4059
906.8956, 858.1409
907.3777, 857.9962
907.8599, 857.6964
908.3420, 857.4046
908.8241, 857.8139
909.3062, 859.8657
909.7883, 861.7537
910.2704, 857.7134
910.7526, 847.1716
911.2347, 842.2687
911.7168, 844.5093
912.1989, 846.2324
912.6810, 844.0432
913.1631, 841.7940
913.6453, 844.7003
914.1274, 851.7724
914.6096, 851.9464
915.0917, 840.3743
915.5738, 835.4324
916.0559, 841.9881
916.5380, 850.4958
917.0201, 858.9765
917.5023, 864.1186
917.9844, 857.0649
918.4665, 832.8102
918.9486, 825.3503
919.4307, 854.2170
919.9128, 872.9298
920.3950, 865.2692
920.8771, 852.4161
921.3592, 848.2276
921.8413, 850.9887
922.3234, 855.4055
922.8055, 862.8990
923.2877, 865.8810
923.7698, 858.4261
924.2519, 851.3503
924.7340, 851.2310
925.2161, 853.0767
925.6982, 848.8150
926.1804, 840.0857
926.6625, 839.2538
927.1446, 856.7466
927.6267, 870.4952
928.1088, 868.1342
928.5909, 859.9741
929.0731, 851.2869
929.5552, 844.5569
930.0373, 843.2748
930.5194, 847.7819
931.0015, 853.4455
931.4836, 857.8226
931.9658, 861.8522
932.4479, 870.1336
932.9300, 876.1317
933.4121, 866.6951
933.8942, 846.8746
934.3763, 834.2505
934.8585, 835.5594
935.3406, 841.7180
935.8227, 845.1860
936.3048, 847.9740
936.7869, 854.8958
937.2690, 862.9796
937.7512, 865.3470
938.2333, 861.2530
938.7154, 852.2567
939.1975, 838.3261
939.6796, 828.7439
940.1617, 842.5885
940.6439, 868.7775
941.1260, 876.9028
941.6081, 868.7245
942.0902, 854.8696
942.5723, 838.9997
943.0544, 830.4321
943.5366, 837.3827
944.0187, 853.4380
944.5008, 866.2220
944.9829, 875.8182
945.4650, 883.0104
945.9471, 887.7048
946.4293, 884.8251
946.9114, 871.9363
947.3935, 858.5244
947.8756, 855.2577
948.3577, 859.3657
948.8398, 858.1938
949.3220, 851.2938
949.8041, 854.6486
950.2862, 871.9863
950.7683, 883.2224
951.2504, 876.6957
951.7325, 866.2064
952.2147, 872.7344
952.6968, 894.7162
953.1789, 904.9755
953.6610, 901.7872
954.1431, 894.3176
954.6252, 881.3142
955.1074, 872.8881
955.5895, 876.9240
956.0716, 886.8632
956.5537, 889.8475
957.0358, 884.9070
957.5179, 882.0457
958.0001, 880.0978
958.4822, 884.0142
958.9643, 899.3244
959.4464, 912.9682
959.9285, 914.2736
960.4106, 907.2671
960.8928, 902.5768
961.3749, 899.6919
961.8570, 901.3006
962.3391, 912.7202
962.8212, 919.3587
963.3033, 912.7824
963.7855, 904.8445
964.2676, 905.7104
964.7497, 913.8405
965.2318, 922.9156
965.7139, 937.0529
966.1960, 943.6876
966.6782, 934.5151
967.1603, 928.2439
967.6424, 934.6761
968.1245, 943.7200
968.6066, 942.4520
969.0887, 933.4255
969.5709, 935.5311
970.0530, 962.3938
970.5351, 979.5289
971.0172, 976.2656
971.4993, 972.5860
971.9814, 980.2327
972.4636, 990.2360
972.9457, 990.0509
973.4278, 980.1300
973.9099, 974.5792
974.3920, 975.0483
974.8741, 980.3757
975.3563, 993.7573
975.8384, 1008.270
976.3205, 1022.003
976.8026, 1033.417
977.2847, 1039.475
977.7668, 1040.129
978.2490, 1043.205
978.7311, 1050.885
979.2132, 1060.468
979.6953, 1073.684
980.1774, 1086.095
980.6595, 1094.918
981.1417, 1100.800
981.6238, 1102.267
982.1059, 1099.084
982.5880, 1106.397
983.0701, 1139.869
983.5522, 1169.532
984.0344, 1178.858
984.5165, 1185.469
984.9986, 1204.165
985.4807, 1230.531
985.9628, 1252.829
986.4449, 1268.583
986.9271, 1289.019
987.4092, 1323.113
987.8913, 1356.368
988.3734, 1379.082
988.8555, 1400.670
989.3376, 1429.101
989.8198, 1463.421
990.3019, 1499.302
990.7840, 1535.294
991.2661, 1578.040
991.7482, 1628.682
992.2303, 1688.570
992.7125, 1774.694
993.1946, 1857.136
993.6767, 1895.588
994.1588, 1907.885
994.6409, 1942.766
995.1230, 2013.882
995.6052, 2098.542
996.0873, 2200.040
996.5694, 2296.311
997.0515, 2368.171
997.5336, 2434.091
998.0157, 2512.806
998.4979, 2602.928
998.9800, 2695.248
999.4621, 2787.183
999.9442, 2880.066
1000.426, 2970.949
1000.908, 3066.448
1001.391, 3169.934
1001.873, 3280.307
1002.355, 3401.421
1002.837, 3528.122
1003.319, 3649.110
1003.801, 3761.581
1004.283, 3861.660
1004.765, 3929.076
1005.247, 4005.439
1005.730, 4138.579
1006.212, 4278.207
1006.694, 4365.309
1007.176, 4408.780
1007.658, 4454.364
1008.140, 4517.079
1008.622, 4572.900
1009.104, 4625.837
1009.587, 4651.744
1010.069, 4622.829
1010.551, 4568.910
1011.033, 4522.486
1011.515, 4481.415
1011.997, 4426.408
1012.479, 4351.197
1012.961, 4267.671
1013.443, 4184.390
1013.926, 4089.992
1014.408, 3968.030
1014.890, 3839.147
1015.372, 3727.162
1015.854, 3628.100
1016.336, 3521.022
1016.818, 3398.369
1017.300, 3277.945
1017.783, 3164.512
1018.265, 3056.529
1018.747, 2959.181
1019.229, 2861.953
1019.711, 2745.733
1020.193, 2621.838
1020.675, 2527.054
1021.157, 2475.353
1021.639, 2424.252
1022.122, 2354.303
1022.604, 2289.596
1023.086, 2245.980
1023.568, 2208.768
1024.050, 2160.766
1024.532, 2108.146
1025.014, 2069.708
1025.496, 2050.660
1025.979, 2037.656
1026.461, 2027.972
1026.943, 2023.089
1027.425, 2023.897
1027.907, 2029.494
1028.389, 2039.318
1028.871, 2053.299
1029.353, 2072.131
1029.835, 2096.868
1030.318, 2120.997
1030.800, 2135.909
1031.282, 2160.191
1031.764, 2209.380
1032.246, 2260.630
1032.728, 2292.371
1033.210, 2314.582
1033.692, 2350.378
1034.174, 2403.727
1034.657, 2458.035
1035.139, 2516.946
1035.621, 2569.069
1036.103, 2603.288
1036.585, 2638.290
1037.067, 2681.873
1037.549, 2735.791
1038.031, 2808.498
1038.514, 2905.718
1038.996, 2982.418
1039.478, 3029.110
1039.960, 3069.486
1040.442, 3103.446
1040.924, 3135.546
1041.406, 3168.584
1041.888, 3200.917
1042.370, 3226.681
1042.853, 3244.592
1043.335, 3284.045
1043.817, 3364.327
1044.299, 3425.524
1044.781, 3460.360
1045.263, 3475.570
1045.745, 3463.810
1046.227, 3446.737
1046.709, 3455.646
1047.192, 3488.979
1047.674, 3518.429
1048.156, 3544.107
1048.638, 3564.249
1049.120, 3574.597
1049.602, 3591.983
1050.084, 3628.031
1050.566, 3664.240
1051.049, 3674.703
1051.531, 3667.810
1052.013, 3695.270
1052.495, 3763.412
1052.977, 3823.292
1053.459, 3868.508
1053.941, 3925.630
1054.423, 4004.604
1054.906, 4097.943
1055.388, 4199.886
1055.870, 4307.801
1056.352, 4417.244
1056.834, 4527.685
1057.316, 4623.242
1057.798, 4702.962
1058.280, 4794.353
1058.762, 4906.103
1059.245, 5019.098
1059.727, 5120.203
1060.209, 5207.135
1060.691, 5283.773
1061.173, 5343.354
1061.655, 5343.125
1062.137, 5288.129
1062.619, 5220.581
1063.101, 5149.224
1063.584, 5058.228
1064.066, 4937.183
1064.548, 4787.492
1065.030, 4603.363
1065.512, 4393.930
1065.994, 4178.525
1066.476, 3958.651
1066.958, 3734.170
1067.441, 3508.979
1067.923, 3297.169
1068.405, 3103.599
1068.887, 2925.221
1069.369, 2760.201
1069.851, 2606.408
1070.333, 2458.704
1070.815, 2321.239
1071.297, 2203.002
1071.780, 2102.635
1072.262, 2016.253
1072.744, 1941.691
1073.226, 1870.699
1073.708, 1797.480
1074.190, 1726.356
1074.672, 1657.517
1075.154, 1595.040
1075.636, 1543.762
1076.119, 1501.378
1076.601, 1462.316
1077.083, 1425.785
1077.565, 1395.130
1078.047, 1374.759
1078.529, 1354.706
1079.011, 1330.855
1079.494, 1305.381
1079.976, 1278.963
1080.458, 1252.308
1080.940, 1224.717
1081.422, 1197.427
1081.904, 1176.453
1082.386, 1166.976
1082.868, 1154.272
1083.350, 1129.042
1083.833, 1108.602
1084.315, 1103.143
1084.797, 1101.920
1085.279, 1096.538
1085.761, 1087.516
1086.243, 1076.284
1086.725, 1060.806
1087.207, 1051.829
1087.689, 1054.148
1088.172, 1053.903
1088.654, 1046.745
1089.136, 1039.368
1089.618, 1035.067
1090.100, 1034.087
1090.582, 1038.313
1091.064, 1047.538
1091.546, 1045.622
1092.029, 1028.527
1092.511, 1021.005
1092.993, 1027.665
1093.475, 1035.593
1093.957, 1039.360
1094.439, 1040.279
1094.921, 1039.267
1095.403, 1037.415
1095.885, 1038.182
1096.368, 1041.621
1096.850, 1050.090
1097.332, 1063.099
1097.814, 1070.306
1098.296, 1068.943
1098.778, 1068.292
1099.260, 1075.566
1099.742, 1086.552
1100.224, 1093.901
1100.707, 1099.958
1101.189, 1111.527
1101.671, 1126.487
1102.153, 1137.397
1102.635, 1144.140
1103.117, 1152.826
1103.599, 1166.439
1104.081, 1181.758
1104.564, 1197.037
1105.046, 1211.345
1105.528, 1222.345
1106.010, 1232.603
1106.492, 1244.961
1106.974, 1259.704
1107.456, 1276.630
1107.938, 1295.602
1108.421, 1316.102
1108.903, 1340.395
1109.385, 1362.508
1109.867, 1378.921
1110.349, 1392.962
1110.831, 1407.899
1111.313, 1421.447
1111.795, 1428.913
1112.277, 1431.350
1112.760, 1436.891
1113.242, 1447.019
1113.724, 1459.568
1114.206, 1475.274
1114.688, 1492.196
1115.170, 1516.107
1115.652, 1533.910
1116.134, 1532.844
1116.616, 1520.258
1117.099, 1512.817
1117.581, 1510.838
1118.063, 1511.177
1118.545, 1514.438
1119.027, 1518.293
1119.509, 1523.150
1119.991, 1525.532
1120.473, 1523.638
1120.956, 1518.594
1121.438, 1511.212
1121.920, 1502.551
1122.402, 1498.033
1122.884, 1496.805
1123.366, 1489.834
1123.848, 1477.102
1124.330, 1464.933
1124.813, 1455.232
1125.295, 1445.851
1125.777, 1435.288
1126.259, 1423.871
1126.741, 1411.173
1127.223, 1398.497
1127.705, 1387.857
1128.187, 1379.275
1128.669, 1374.478
1129.151, 1371.625
1129.634, 1363.516
1130.116, 1347.393
1130.598, 1331.605
1131.080, 1325.649
1131.562, 1317.130
1132.044, 1293.846
1132.526, 1267.676
1133.008, 1247.577
1133.491, 1233.606
1133.973, 1227.527
1134.455, 1227.650
1134.937, 1218.600
1135.419, 1192.605
1135.901, 1165.341
1136.383, 1133.255
1136.865, 1107.975
1137.348, 1098.938
1137.830, 1094.096
1138.312, 1086.639
1138.794, 1074.875
1139.276, 1052.907
1139.758, 1018.472
1140.240, 992.0777
1140.722, 975.6170
1141.204, 958.5415
1141.687, 937.9821
1142.169, 923.5408
1142.651, 921.1548
1143.133, 920.7933
1143.615, 909.7374
1144.097, 891.8110
1144.579, 879.0872
1145.061, 870.4812
1145.543, 858.1527
1146.026, 843.5068
1146.508, 840.4278
1146.990, 850.1429
1147.472, 852.3303
1147.954, 833.2615
1148.436, 810.6350
1148.918, 802.6788
1149.400, 802.8339
1149.883, 809.1594
1150.365, 814.2344
1150.847, 804.1221
1151.329, 784.0704
1151.811, 770.9166
1152.293, 768.6724
1152.775, 766.0761
1153.257, 755.0574
1153.740, 747.6486
1154.222, 751.3090
1154.704, 756.0285
1155.186, 754.3848
1155.668, 751.7280
1156.150, 757.3837
1156.632, 768.2177
1157.114, 768.0154
1157.596, 751.5240
1158.078, 742.8506
1158.561, 746.0878
1159.043, 746.2462
1159.525, 739.8069
1160.007, 731.0333
1160.489, 721.4713
1160.971, 713.6575
1161.453, 711.2148
1161.935, 713.5626
1162.418, 719.5979
1162.900, 728.5119
1163.382, 734.4473
1163.864, 736.9683
1164.346, 736.3647
1164.828, 732.9470
1165.310, 728.2468
1165.792, 723.1128
1166.275, 718.1631
1166.757, 714.0716
1167.239, 710.5348
1167.721, 706.3470
1168.203, 702.9963
1168.685, 702.6049
1169.167, 704.9924
1169.649, 711.2913
1170.131, 721.1923
1170.614, 723.0464
1171.096, 702.3973
1171.578, 688.0148
1172.060, 695.2609
1172.542, 702.4222
1173.024, 695.2800
1173.506, 685.0596
1173.988, 684.1896
1174.470, 689.7214
1174.953, 692.7179
1175.435, 693.1529
1175.917, 690.2977
1176.399, 681.9886
1176.881, 680.5626
1177.363, 689.3657
1177.845, 697.1343
1178.327, 698.5459
1178.810, 695.9141
1179.292, 691.5623
1179.774, 685.6654
1180.256, 677.4108
1180.738, 668.2980
1181.220, 663.5145
1181.702, 662.1786
1182.184, 658.8352
1182.667, 654.2285
1183.149, 658.3310
1183.631, 676.4166
1184.113, 692.7314
1184.595, 698.4120
1185.077, 694.7523
1185.559, 672.4503
1186.041, 650.9711
1186.523, 650.3414
1187.005, 661.6743
1187.488, 672.0460
1187.970, 679.1041
1188.452, 677.6650
1188.934, 660.3342
1189.416, 648.9294
1189.898, 643.2943
1190.380, 645.2478
1190.862, 659.5741
1191.345, 671.8434
1191.827, 671.5790
1192.309, 667.5667
1192.791, 674.8541
1193.273, 689.7227
1193.755, 690.1064
1194.237, 678.2427
1194.719, 675.1530
1195.202, 680.7562
1195.684, 680.5423
1196.166, 672.0856
1196.648, 671.1403
1197.130, 688.6770
1197.612, 706.0892
1198.094, 702.2756
1198.576, 691.4324
1199.058, 686.8640
1199.541, 684.9730
1200.023, 681.1451
1200.505, 676.1643
1200.987, 673.0161
1201.469, 671.8592
1201.951, 668.8021
1202.433, 659.3724
1202.915, 654.8406
1203.397, 658.4602
1203.880, 664.8544
1204.362, 676.4160
1204.844, 684.3430
1205.326, 681.5132
1205.808, 673.1572
1206.290, 668.1705
1206.772, 665.9469
1207.254, 659.6466
1207.737, 650.0424
1208.219, 653.8301
1208.701, 670.3119
1209.183, 680.8356
1209.665, 680.2370
1210.147, 673.8770
1210.629, 664.3146
1211.111, 656.7581
1211.594, 659.2015
1212.076, 663.8393
1212.558, 660.6117
1213.040, 656.0123
1213.522, 659.3594
1214.004, 667.1378
1214.486, 672.0945
1214.968, 672.9308
1215.450, 670.0525
1215.932, 660.9178
1216.415, 653.4432
1216.897, 648.1874
1217.379, 645.0793
1217.861, 645.1047
1218.343, 645.5437
1218.825, 644.9988
1219.307, 643.1259
1219.789, 638.6565
1220.272, 632.9565
1220.754, 633.3488
1221.236, 638.9095
1221.718, 642.9299
1222.200, 644.9358
1222.682, 644.2745
1223.164, 641.4302
1223.646, 641.1714
1224.129, 646.4234
1224.611, 647.1822
1225.093, 625.7420
1225.575, 607.3063
1226.057, 619.1532
1226.539, 636.8434
1227.021, 637.5391
1227.503, 628.2772
1227.985, 620.8593
1228.468, 616.1545
1228.950, 610.4785
1229.432, 600.1331
1229.914, 601.3126
1230.396, 622.2102
1230.878, 632.4686
1231.360, 624.4986
1231.842, 614.5538
1232.324, 610.3990
1232.807, 607.5576
1233.289, 600.6558
1233.771, 593.2538
1234.253, 596.5823
1234.735, 604.7177
1235.217, 598.2625
1235.699, 583.4501
1236.181, 577.3476
1236.664, 580.9119
1237.146, 588.7692
1237.628, 598.6174
1238.110, 601.6382
1238.592, 585.6676
1239.074, 574.4636
1239.556, 584.1191
1240.038, 593.0196
1240.521, 583.6458
1241.003, 574.5295
1241.485, 586.3810
1241.967, 607.4819
1242.449, 613.3051
1242.931, 604.3556
1243.413, 597.8483
1243.895, 593.9151
1244.377, 589.2333
1244.859, 583.7357
1245.342, 585.1296
1245.824, 595.0065
1246.306, 603.4941
1246.788, 604.2776
1247.270, 602.3699
1247.752, 603.7729
1248.234, 604.6617
1248.716, 598.2195
1249.199, 591.2674
1249.681, 594.2399
1250.163, 600.8261
1250.645, 599.2241
1251.127, 589.5870
1251.609, 580.7615
1252.091, 572.6719
1252.573, 569.8336
1253.056, 575.0623
1253.538, 579.0482
1254.020, 580.2319
1254.502, 580.7822
1254.984, 581.8836
1255.466, 580.6689
1255.948, 572.6944
1256.430, 565.9937
1256.912, 583.8540
1257.395, 612.0864
1257.877, 611.1697
1258.359, 592.9969
1258.841, 583.7090
1259.323, 584.7916
1259.805, 589.7826
1260.287, 596.2616
1260.769, 600.4293
1261.251, 600.3826
1261.734, 598.7029
1262.216, 593.8904
1262.698, 590.7518
##END=



