##NAMES=Montroydite
##RRUFFID=R070235
##IDEAL CHEMISTRY=Hg^2+^O
##LOCALITY=Clear Creek claim, southern San Benito County, California, USA
##OWNER=RRUFF
##SOURCE=Michael Scott
##DESCRIPTION=Red prismatic crystal with quartz, cinnabar and greenish yellow edgarbaileyite, R060500
##STATUS=The identification of this mineral is confirmed by single-crystal X-ray diffraction and chemical analysis.
##URL=rruff.info/R070235
##MEASURED CHEMISTRY=Hg_1.00_O
143.3943, 3806.104
143.8764, 3847.538
144.3585, 3886.356
144.8407, 3919.258
145.3228, 3941.405
145.8049, 3961.093
146.2870, 3985.517
146.7691, 4012.750
147.2512, 4046.818
147.7334, 4089.746
148.2155, 4144.417
148.6976, 4196.848
149.1797, 4244.577
149.6618, 4290.905
150.1439, 4339.728
150.6261, 4393.370
151.1082, 4446.861
151.5903, 4498.644
152.0724, 4548.321
152.5545, 4596.822
153.0366, 4642.286
153.5188, 4686.439
154.0009, 4732.480
154.4830, 4785.415
154.9651, 4837.417
155.4472, 4886.007
155.9293, 4934.040
156.4115, 4973.702
156.8936, 4999.708
157.3757, 5015.262
157.8578, 5031.961
158.3399, 5055.446
158.8221, 5079.781
159.3042, 5101.329
159.7863, 5118.316
160.2684, 5133.252
160.7505, 5145.833
161.2326, 5156.518
161.7148, 5167.971
162.1969, 5180.490
162.6790, 5194.714
163.1611, 5211.084
163.6432, 5230.589
164.1253, 5251.746
164.6075, 5273.749
165.0896, 5296.566
165.5717, 5320.777
166.0538, 5349.254
166.5359, 5378.900
167.0180, 5405.372
167.5002, 5425.813
167.9823, 5443.313
168.4644, 5458.981
168.9465, 5472.330
169.4286, 5487.800
169.9107, 5508.362
170.3929, 5533.344
170.8750, 5561.890
171.3571, 5605.301
171.8392, 5646.669
172.3213, 5662.533
172.8034, 5642.586
173.2856, 5620.937
173.7677, 5632.357
174.2498, 5669.791
174.7319, 5708.686
175.2140, 5735.365
175.6961, 5753.909
176.1783, 5771.516
176.6604, 5792.143
177.1425, 5807.045
177.6246, 5796.386
178.1067, 5764.787
178.5888, 5741.608
179.0710, 5755.965
179.5531, 5794.577
180.0352, 5828.110
180.5173, 5847.668
180.9994, 5860.521
181.4815, 5879.061
181.9637, 5903.199
182.4458, 5925.052
182.9279, 5934.195
183.4100, 5934.525
183.8921, 5941.163
184.3742, 5960.976
184.8564, 5988.767
185.3385, 6013.108
185.8206, 6034.252
186.3027, 6051.409
186.7848, 6060.520
187.2669, 6063.086
187.7491, 6071.048
188.2312, 6093.008
188.7133, 6123.706
189.1954, 6141.907
189.6775, 6145.319
190.1596, 6145.958
190.6418, 6160.125
191.1239, 6187.429
191.6060, 6213.781
192.0881, 6233.119
192.5702, 6246.162
193.0524, 6258.591
193.5345, 6269.807
194.0166, 6281.865
194.4987, 6299.502
194.9808, 6323.281
195.4629, 6344.229
195.9451, 6354.645
196.4272, 6355.007
196.9093, 6366.353
197.3914, 6393.581
197.8735, 6425.131
198.3556, 6435.675
198.8378, 6421.623
199.3199, 6409.229
199.8020, 6415.032
200.2841, 6440.513
200.7662, 6461.004
201.2483, 6474.068
201.7305, 6482.320
202.2126, 6492.239
202.6947, 6504.369
203.1768, 6516.140
203.6589, 6524.259
204.1410, 6527.143
204.6232, 6537.976
205.1053, 6560.776
205.5874, 6591.023
206.0695, 6612.813
206.5516, 6623.519
207.0337, 6632.657
207.5159, 6647.422
207.9980, 6669.122
208.4801, 6688.686
208.9622, 6704.037
209.4443, 6716.412
209.9264, 6733.698
210.4086, 6760.356
210.8907, 6783.013
211.3728, 6787.727
211.8549, 6766.343
212.3370, 6755.387
212.8191, 6762.270
213.3013, 6784.868
213.7834, 6806.131
214.2655, 6825.657
214.7476, 6844.574
215.2297, 6863.455
215.7118, 6882.211
216.1940, 6902.231
216.6761, 6926.536
217.1582, 6954.504
217.6403, 6967.007
218.1224, 6955.379
218.6045, 6939.683
219.0867, 6939.979
219.5688, 6962.439
220.0509, 6986.658
220.5330, 7009.503
221.0151, 7031.374
221.4972, 7046.680
221.9794, 7052.523
222.4615, 7055.198
222.9436, 7061.097
223.4257, 7070.023
223.9078, 7082.967
224.3899, 7101.275
224.8721, 7125.861
225.3542, 7147.207
225.8363, 7166.207
226.3184, 7181.311
226.8005, 7189.993
227.2827, 7187.777
227.7648, 7187.240
228.2469, 7188.796
228.7290, 7190.387
229.2111, 7211.788
229.6932, 7266.520
230.1754, 7329.845
230.6575, 7369.444
231.1396, 7375.823
231.6217, 7374.373
232.1038, 7369.675
232.5859, 7359.834
233.0681, 7356.350
233.5502, 7356.554
234.0323, 7364.938
234.5144, 7391.541
234.9965, 7453.897
235.4786, 7504.197
235.9608, 7523.604
236.4429, 7501.792
236.9250, 7496.454
237.4071, 7512.815
237.8892, 7542.518
238.3713, 7574.091
238.8535, 7613.777
239.3356, 7644.720
239.8177, 7659.066
240.2998, 7650.446
240.7819, 7650.433
241.2640, 7664.400
241.7462, 7683.844
242.2283, 7692.149
242.7104, 7676.233
243.1925, 7670.967
243.6746, 7692.533
244.1567, 7755.360
244.6389, 7793.793
245.1210, 7792.673
245.6031, 7776.151
246.0852, 7789.980
246.5673, 7855.990
247.0494, 7914.986
247.5316, 7942.062
248.0137, 7921.925
248.4958, 7923.125
248.9779, 7956.436
249.4600, 8005.060
249.9421, 8036.819
250.4243, 8045.627
250.9064, 8048.806
251.3885, 8050.180
251.8706, 8045.112
252.3527, 8055.038
252.8348, 8085.626
253.3170, 8127.580
253.7991, 8163.652
254.2812, 8192.340
254.7633, 8217.305
255.2454, 8239.617
255.7275, 8258.692
256.2097, 8276.843
256.6918, 8295.137
257.1739, 8311.579
257.6560, 8321.438
258.1381, 8320.473
258.6202, 8321.649
259.1024, 8328.729
259.5845, 8340.423
260.0666, 8364.815
260.5487, 8409.615
261.0308, 8461.202
261.5129, 8494.388
261.9951, 8501.107
262.4772, 8508.023
262.9593, 8526.347
263.4414, 8559.521
263.9235, 8587.880
264.4056, 8609.279
264.8878, 8628.198
265.3699, 8655.824
265.8520, 8698.836
266.3341, 8732.061
266.8162, 8742.188
267.2983, 8723.957
267.7805, 8716.118
268.2626, 8720.889
268.7447, 8733.721
269.2268, 8749.409
269.7089, 8770.851
270.1910, 8784.495
270.6732, 8778.516
271.1553, 8748.398
271.6374, 8746.472
272.1195, 8779.977
272.6016, 8831.107
273.0837, 8872.447
273.5659, 8904.166
274.0480, 8926.522
274.5301, 8940.036
275.0122, 8944.643
275.4943, 8933.480
275.9764, 8897.423
276.4586, 8862.771
276.9407, 8874.230
277.4228, 8936.338
277.9049, 9003.200
278.3870, 9058.777
278.8691, 9103.325
279.3513, 9142.557
279.8334, 9176.364
280.3155, 9205.133
280.7976, 9228.381
281.2798, 9245.739
281.7619, 9261.598
282.2440, 9276.183
282.7261, 9290.101
283.2082, 9307.603
283.6903, 9328.499
284.1725, 9353.686
284.6546, 9382.841
285.1367, 9415.918
285.6188, 9458.646
286.1009, 9518.153
286.5830, 9589.421
287.0652, 9650.590
287.5473, 9700.269
288.0294, 9744.856
288.5115, 9787.850
288.9936, 9830.289
289.4757, 9878.980
289.9579, 9940.543
290.4400, 10009.13
290.9221, 10067.96
291.4042, 10116.14
291.8863, 10165.74
292.3684, 10225.42
292.8506, 10295.81
293.3327, 10381.51
293.8148, 10497.43
294.2969, 10622.37
294.7790, 10706.46
295.2611, 10749.96
295.7433, 10801.35
296.2254, 10908.95
296.7075, 11060.29
297.1896, 11216.02
297.6717, 11370.59
298.1538, 11522.58
298.6360, 11662.99
299.1181, 11794.33
299.6002, 11930.79
300.0823, 12086.61
300.5644, 12256.40
301.0465, 12429.49
301.5287, 12594.21
302.0108, 12771.99
302.4929, 12984.22
302.9750, 13230.52
303.4571, 13496.50
303.9392, 13785.10
304.4214, 14085.54
304.9035, 14388.06
305.3856, 14675.31
305.8677, 14977.40
306.3498, 15323.40
306.8319, 15703.23
307.3141, 16089.57
307.7962, 16439.19
308.2783, 16794.49
308.7604, 17211.09
309.2425, 17717.12
309.7246, 18229.39
310.2068, 18681.40
310.6889, 19098.01
311.1710, 19548.58
311.6531, 20090.25
312.1352, 20665.00
312.6173, 21227.62
313.0995, 21762.46
313.5816, 22291.09
314.0637, 22829.80
314.5458, 23371.46
315.0279, 23906.93
315.5100, 24407.20
315.9922, 24919.60
316.4743, 25484.01
316.9564, 26126.97
317.4385, 26730.56
317.9206, 27259.54
318.4027, 27725.04
318.8849, 28142.66
319.3670, 28520.17
319.8491, 28847.30
320.3312, 29117.38
320.8133, 29328.00
321.2954, 29497.93
321.7776, 29656.35
322.2597, 29767.98
322.7418, 29795.19
323.2239, 29692.51
323.7060, 29544.92
324.1881, 29385.33
324.6703, 29220.84
325.1524, 28962.24
325.6345, 28566.95
326.1166, 28097.10
326.5987, 27598.67
327.0808, 27048.51
327.5630, 26498.03
328.0451, 25950.90
328.5272, 25407.27
329.0093, 24866.00
329.4914, 24339.66
329.9735, 23817.00
330.4557, 23293.28
330.9378, 22761.52
331.4199, 22238.42
331.9020, 21716.94
332.3841, 21201.63
332.8662, 20713.10
333.3484, 20257.40
333.8305, 19826.54
334.3126, 19409.91
334.7947, 19005.56
335.2768, 18635.44
335.7589, 18306.18
336.2411, 18009.51
336.7232, 17713.71
337.2053, 17415.22
337.6874, 17134.26
338.1695, 16877.82
338.6516, 16648.97
339.1338, 16441.01
339.6159, 16263.96
340.0980, 16094.56
340.5801, 15887.52
341.0622, 15633.70
341.5443, 15403.99
342.0265, 15225.81
342.5086, 15096.94
342.9907, 14991.19
343.4728, 14916.82
343.9549, 14836.73
344.4370, 14687.54
344.9192, 14479.26
345.4013, 14301.62
345.8834, 14203.85
346.3655, 14156.58
346.8476, 14086.17
347.3297, 13992.25
347.8119, 13895.57
348.2940, 13821.96
348.7761, 13762.51
349.2582, 13689.78
349.7403, 13579.11
350.2225, 13466.94
350.7046, 13416.79
351.1867, 13420.78
351.6688, 13421.44
352.1509, 13368.29
352.6331, 13287.65
353.1152, 13218.04
353.5973, 13167.37
354.0794, 13131.00
354.5615, 13112.87
355.0436, 13107.37
355.5258, 13097.38
356.0079, 13081.00
356.4900, 13051.84
356.9721, 12998.31
357.4542, 12908.93
357.9363, 12828.16
358.4185, 12779.86
358.9006, 12757.15
359.3827, 12748.16
359.8648, 12773.05
360.3469, 12790.83
360.8290, 12773.62
361.3112, 12713.19
361.7933, 12661.05
362.2754, 12632.37
362.7575, 12620.45
363.2396, 12617.98
363.7217, 12649.76
364.2039, 12664.49
364.6860, 12637.96
365.1681, 12569.34
365.6502, 12518.68
366.1323, 12501.01
366.6144, 12498.00
367.0966, 12497.23
367.5787, 12508.62
368.0608, 12509.29
368.5429, 12489.81
369.0250, 12455.87
369.5071, 12438.02
369.9893, 12451.70
370.4714, 12463.58
370.9535, 12454.85
371.4356, 12407.15
371.9177, 12382.75
372.3998, 12394.81
372.8820, 12424.28
373.3641, 12425.58
373.8462, 12386.39
374.3283, 12351.01
374.8104, 12337.35
375.2925, 12346.69
375.7747, 12365.52
376.2568, 12400.36
376.7389, 12432.14
377.2210, 12428.44
377.7031, 12386.29
378.1852, 12351.80
378.6674, 12341.50
379.1495, 12349.94
379.6316, 12354.59
380.1137, 12355.37
380.5958, 12352.79
381.0779, 12344.90
381.5601, 12333.12
382.0422, 12325.01
382.5243, 12322.27
383.0064, 12323.74
383.4885, 12329.33
383.9706, 12338.43
384.4528, 12346.07
384.9349, 12343.98
385.4170, 12339.52
385.8991, 12347.61
386.3812, 12374.81
386.8633, 12400.72
387.3455, 12397.18
387.8276, 12377.32
388.3097, 12371.17
388.7918, 12410.32
389.2739, 12458.86
389.7560, 12487.46
390.2382, 12492.73
390.7203, 12492.15
391.2024, 12489.97
391.6845, 12488.90
392.1666, 12492.06
392.6487, 12509.63
393.1309, 12523.07
393.6130, 12524.93
394.0951, 12515.61
394.5772, 12500.95
395.0593, 12463.68
395.5414, 12433.37
396.0236, 12428.98
396.5057, 12484.26
396.9878, 12528.67
397.4699, 12550.91
397.9520, 12556.84
398.4341, 12564.58
398.9163, 12570.99
399.3984, 12582.54
399.8805, 12603.27
400.3626, 12639.21
400.8447, 12665.94
401.3268, 12679.24
401.8090, 12686.40
402.2911, 12697.83
402.7732, 12714.62
403.2553, 12732.94
403.7374, 12754.05
404.2195, 12777.27
404.7017, 12787.85
405.1838, 12781.84
405.6659, 12773.87
406.1480, 12778.63
406.6301, 12796.37
407.1122, 12811.08
407.5944, 12817.73
408.0765, 12822.03
408.5586, 12838.01
409.0407, 12865.59
409.5228, 12897.04
410.0049, 12936.61
410.4871, 12976.07
410.9692, 12985.48
411.4513, 12954.63
411.9334, 12922.88
412.4155, 12940.48
412.8976, 12994.74
413.3798, 13047.73
413.8619, 13088.83
414.3440, 13116.97
414.8261, 13128.15
415.3082, 13122.48
415.7903, 13112.84
416.2725, 13101.96
416.7546, 13093.94
417.2367, 13093.43
417.7188, 13108.17
418.2009, 13123.89
418.6830, 13126.40
419.1652, 13122.42
419.6473, 13136.48
420.1294, 13213.38
420.6115, 13283.65
421.0937, 13302.57
421.5758, 13221.54
422.0579, 13180.88
422.5400, 13232.02
423.0221, 13327.30
423.5042, 13389.49
423.9864, 13385.22
424.4685, 13381.81
424.9506, 13397.09
425.4327, 13433.32
425.9148, 13455.53
426.3969, 13455.29
426.8791, 13450.62
427.3612, 13457.97
427.8433, 13482.07
428.3254, 13503.44
428.8075, 13520.03
429.2896, 13531.71
429.7718, 13534.70
430.2539, 13526.29
430.7360, 13523.33
431.2181, 13540.86
431.7002, 13576.82
432.1823, 13598.02
432.6645, 13598.76
433.1466, 13598.29
433.6287, 13624.53
434.1108, 13673.55
434.5929, 13727.19
435.0750, 13790.65
435.5572, 13848.08
436.0393, 13860.86
436.5214, 13831.15
437.0035, 13804.96
437.4856, 13825.40
437.9677, 13869.76
438.4499, 13906.76
438.9320, 13927.15
439.4141, 13940.51
439.8962, 13946.79
440.3783, 13950.63
440.8604, 13964.21
441.3426, 14012.37
441.8247, 14056.89
442.3068, 14069.49
442.7889, 14037.37
443.2710, 14020.59
443.7531, 14056.50
444.2353, 14107.57
444.7174, 14132.88
445.1995, 14083.95
445.6816, 14055.37
446.1637, 14072.06
446.6458, 14128.99
447.1280, 14175.26
447.6101, 14208.18
448.0922, 14233.47
448.5743, 14252.81
449.0564, 14262.67
449.5385, 14276.11
450.0207, 14292.59
450.5028, 14313.48
450.9849, 14347.18
451.4670, 14399.38
451.9491, 14433.39
452.4312, 14426.18
452.9134, 14384.94
453.3955, 14363.54
453.8776, 14361.96
454.3597, 14379.90
454.8418, 14434.29
455.3239, 14512.90
455.8061, 14559.64
456.2882, 14551.57
456.7703, 14523.08
457.2524, 14515.84
457.7345, 14528.87
458.2166, 14558.45
458.6988, 14618.83
459.1809, 14686.26
459.6630, 14732.51
460.1451, 14753.07
460.6272, 14768.12
461.1093, 14785.50
461.5915, 14806.23
462.0736, 14831.25
462.5557, 14876.01
463.0378, 14910.33
463.5199, 14913.33
464.0020, 14890.34
464.4842, 14881.77
464.9663, 14917.80
465.4484, 14954.30
465.9305, 14965.31
466.4126, 14912.44
466.8947, 14901.59
467.3769, 14960.00
467.8590, 15048.36
468.3411, 15101.64
468.8232, 15101.70
469.3053, 15101.92
469.7874, 15116.55
470.2696, 15144.78
470.7517, 15175.31
471.2338, 15212.39
471.7159, 15238.63
472.1980, 15224.68
472.6801, 15172.26
473.1623, 15160.04
473.6444, 15207.12
474.1265, 15282.92
474.6086, 15343.68
475.0907, 15389.19
475.5728, 15417.93
476.0550, 15417.82
476.5371, 15404.37
477.0192, 15400.16
477.5013, 15405.88
477.9834, 15422.43
478.4655, 15460.66
478.9477, 15507.16
479.4298, 15543.51
479.9119, 15557.04
480.3940, 15568.88
480.8761, 15590.64
481.3582, 15619.40
481.8404, 15646.58
482.3225, 15675.54
482.8046, 15697.18
483.2867, 15702.44
483.7688, 15679.57
484.2509, 15678.57
484.7331, 15728.01
485.2152, 15788.59
485.6973, 15822.89
486.1794, 15806.16
486.6615, 15806.40
487.1436, 15840.12
487.6258, 15898.41
488.1079, 15938.57
488.5900, 15956.23
489.0721, 15967.03
489.5542, 15975.80
490.0363, 15982.47
490.5185, 16001.98
491.0006, 16036.85
491.4827, 16076.89
491.9648, 16112.50
492.4470, 16142.78
492.9291, 16161.20
493.4112, 16160.47
493.8933, 16150.62
494.3754, 16137.58
494.8575, 16124.64
495.3397, 16133.02
495.8218, 16197.19
496.3039, 16280.40
496.7860, 16342.25
497.2681, 16375.32
497.7502, 16396.50
498.2324, 16411.62
498.7145, 16421.43
499.1966, 16427.21
499.6787, 16421.70
500.1608, 16419.80
500.6429, 16425.32
501.1251, 16438.32
501.6072, 16457.71
502.0893, 16491.20
502.5714, 16524.40
503.0535, 16550.79
503.5356, 16568.65
504.0178, 16582.49
504.4999, 16587.10
504.9820, 16592.36
505.4641, 16616.96
505.9462, 16665.80
506.4283, 16706.78
506.9105, 16724.43
507.3926, 16728.34
507.8747, 16761.49
508.3568, 16825.58
508.8389, 16889.97
509.3210, 16933.88
509.8032, 16961.31
510.2853, 16980.96
510.7674, 16991.38
511.2495, 17004.95
511.7316, 17042.87
512.2137, 17093.03
512.6959, 17130.24
513.1780, 17135.20
513.6601, 17131.51
514.1422, 17132.90
514.6243, 17138.96
515.1064, 17145.41
515.5886, 17140.50
516.0707, 17142.58
516.5528, 17165.14
517.0349, 17225.01
517.5170, 17273.99
517.9991, 17300.47
518.4813, 17316.06
518.9634, 17334.56
519.4455, 17355.77
519.9276, 17379.69
520.4097, 17403.10
520.8918, 17428.17
521.3740, 17480.63
521.8561, 17573.42
522.3382, 17650.72
522.8203, 17660.00
523.3024, 17607.08
523.7845, 17600.98
524.2667, 17656.42
524.7488, 17725.52
525.2309, 17743.25
525.7130, 17724.58
526.1951, 17722.22
526.6772, 17768.47
527.1594, 17826.65
527.6415, 17851.24
528.1236, 17848.48
528.6057, 17846.28
529.0878, 17858.71
529.5699, 17878.96
530.0521, 17903.44
530.5342, 17933.47
531.0163, 17960.32
531.4984, 17978.09
531.9805, 17992.84
532.4626, 18011.09
532.9448, 18035.89
533.4269, 18061.24
533.9090, 18079.01
534.3911, 18096.01
534.8732, 18141.47
535.3553, 18234.59
535.8375, 18321.35
536.3196, 18374.64
536.8017, 18393.32
537.2838, 18417.56
537.7659, 18448.06
538.2480, 18482.60
538.7302, 18524.50
539.2123, 18571.31
539.6944, 18600.02
540.1765, 18597.00
540.6586, 18589.74
541.1407, 18627.60
541.6229, 18697.40
542.1050, 18752.37
542.5871, 18732.60
543.0692, 18709.55
543.5513, 18761.87
544.0334, 18892.37
544.5156, 19008.49
544.9977, 19052.39
545.4798, 19072.42
545.9619, 19106.24
546.4440, 19172.83
546.9261, 19235.74
547.4083, 19287.53
547.8904, 19333.28
548.3725, 19381.39
548.8546, 19434.92
549.3367, 19485.70
549.8188, 19527.00
550.3010, 19561.28
550.7831, 19621.35
551.2652, 19714.04
551.7473, 19810.09
552.2294, 19880.66
552.7115, 19930.43
553.1937, 20009.21
553.6758, 20126.49
554.1579, 20249.69
554.6400, 20340.19
555.1221, 20404.33
555.6042, 20457.21
556.0864, 20486.97
556.5685, 20526.34
557.0506, 20623.24
557.5327, 20760.99
558.0148, 20875.99
558.4969, 20918.57
558.9791, 20943.17
559.4612, 20983.72
559.9433, 21048.30
560.4254, 21104.52
560.9075, 21148.58
561.3896, 21180.15
561.8718, 21200.21
562.3539, 21207.93
562.8360, 21206.26
563.3181, 21200.37
563.8002, 21182.95
564.2823, 21128.54
564.7645, 21027.77
565.2466, 20934.82
565.7287, 20879.80
566.2108, 20851.24
566.6929, 20785.54
567.1750, 20681.41
567.6572, 20581.64
568.1393, 20519.60
568.6214, 20489.50
569.1035, 20490.24
569.5856, 20530.61
570.0677, 20564.35
570.5499, 20543.57
571.0320, 20492.99
571.5141, 20451.69
571.9962, 20432.19
572.4783, 20426.43
572.9604, 20435.24
573.4426, 20456.58
573.9247, 20480.79
574.4068, 20526.03
574.8889, 20555.12
575.3710, 20549.14
575.8531, 20499.07
576.3353, 20459.74
576.8174, 20425.83
577.2995, 20411.10
577.7816, 20440.20
578.2637, 20519.67
578.7458, 20566.21
579.2280, 20556.79
579.7101, 20529.50
580.1922, 20559.16
580.6743, 20636.12
581.1564, 20705.97
581.6385, 20746.35
582.1207, 20763.97
582.6028, 20754.65
583.0849, 20723.07
583.5670, 20704.87
584.0491, 20728.47
584.5313, 20769.21
585.0134, 20810.40
585.4955, 20852.15
585.9776, 20885.26
586.4597, 20896.53
586.9418, 20902.33
587.4240, 20921.45
587.9061, 20964.76
588.3882, 21005.41
588.8703, 21041.09
589.3524, 21072.13
589.8345, 21095.80
590.3167, 21106.76
590.7988, 21132.04
591.2809, 21193.56
591.7630, 21280.32
592.2451, 21332.22
592.7272, 21348.63
593.2094, 21345.31
593.6915, 21321.58
594.1736, 21290.21
594.6557, 21272.62
595.1378, 21270.29
595.6199, 21291.97
596.1021, 21368.12
596.5842, 21466.28
597.0663, 21540.50
597.5485, 21563.39
598.0306, 21571.56
598.5127, 21563.05
598.9948, 21545.63
599.4769, 21552.10
599.9590, 21595.82
600.4412, 21649.78
600.9233, 21711.63
601.4054, 21784.08
601.8875, 21819.84
602.3696, 21803.72
602.8517, 21787.61
603.3339, 21823.33
603.8160, 21906.22
604.2981, 21968.95
604.7802, 21998.91
605.2623, 22023.71
605.7444, 22094.91
606.2266, 22190.64
606.7087, 22248.20
607.1908, 22217.24
607.6729, 22169.38
608.1550, 22158.53
608.6371, 22177.42
609.1193, 22202.08
609.6014, 22225.09
610.0835, 22249.79
610.5656, 22274.46
611.0477, 22297.08
611.5298, 22336.66
612.0120, 22408.92
612.4941, 22482.58
612.9762, 22535.78
613.4583, 22563.00
613.9404, 22589.94
614.4225, 22619.44
614.9047, 22645.26
615.3868, 22652.21
615.8689, 22642.69
616.3510, 22648.90
616.8331, 22686.38
617.3152, 22736.23
617.7974, 22772.67
618.2795, 22796.90
618.7616, 22815.59
619.2437, 22826.57
619.7258, 22837.58
620.2079, 22851.48
620.6901, 22868.62
621.1722, 22898.64
621.6543, 22950.23
622.1364, 23012.27
622.6185, 23080.55
623.1006, 23174.52
623.5828, 23230.10
624.0649, 23230.37
624.5470, 23207.80
625.0291, 23197.24
625.5112, 23197.56
625.9933, 23218.00
626.4755, 23264.59
626.9576, 23325.90
627.4397, 23382.69
627.9218, 23434.30
628.4039, 23475.81
628.8860, 23501.13
629.3682, 23516.92
629.8503, 23526.24
630.3324, 23531.13
630.8145, 23546.42
631.2966, 23590.72
631.7787, 23641.31
632.2609, 23683.56
632.7430, 23716.12
633.2251, 23738.09
633.7072, 23737.92
634.1893, 23733.66
634.6714, 23739.04
635.1536, 23750.64
635.6357, 23780.67
636.1178, 23834.07
636.5999, 23901.58
637.0820, 23972.98
637.5641, 24048.88
638.0463, 24102.90
638.5284, 24120.20
639.0105, 24116.41
639.4926, 24119.66
639.9747, 24129.62
640.4568, 24144.01
640.9390, 24156.77
641.4211, 24176.57
641.9032, 24219.87
642.3853, 24287.49
642.8674, 24338.69
643.3495, 24329.67
643.8317, 24316.84
644.3138, 24342.03
644.7959, 24444.09
645.2780, 24517.67
645.7601, 24552.21
646.2422, 24567.40
646.7244, 24582.64
647.2065, 24594.92
647.6886, 24625.18
648.1707, 24684.58
648.6528, 24752.70
649.1349, 24781.92
649.6171, 24778.15
650.0992, 24784.14
650.5813, 24832.56
651.0634, 24893.71
651.5455, 24927.87
652.0276, 24940.22
652.5098, 24956.95
652.9919, 25000.81
653.4740, 25046.65
653.9561, 25076.38
654.4382, 25084.45
654.9203, 25099.88
655.4025, 25130.33
655.8846, 25165.93
656.3667, 25201.63
656.8488, 25241.53
657.3309, 25268.30
657.8130, 25278.76
658.2952, 25281.10
658.7773, 25277.84
659.2594, 25271.46
659.7415, 25297.41
660.2236, 25382.25
660.7057, 25474.81
661.1879, 25482.57
661.6700, 25435.35
662.1521, 25416.38
662.6342, 25508.36
663.1163, 25604.83
663.5984, 25624.28
664.0806, 25577.47
664.5627, 25564.19
665.0448, 25644.93
665.5269, 25731.68
666.0090, 25784.43
666.4911, 25796.27
666.9733, 25824.43
667.4554, 25876.79
667.9375, 25929.87
668.4196, 25962.84
668.9017, 25976.42
669.3839, 25990.35
669.8660, 26006.02
670.3481, 26023.60
670.8302, 26038.57
671.3123, 26055.92
671.7944, 26089.06
672.2766, 26157.02
672.7587, 26216.96
673.2408, 26222.38
673.7229, 26202.02
674.2050, 26212.32
674.6871, 26316.75
675.1693, 26401.63
675.6514, 26421.36
676.1335, 26392.10
676.6156, 26398.19
677.0977, 26450.63
677.5798, 26513.80
678.0620, 26577.88
678.5441, 26641.26
679.0262, 26681.13
679.5083, 26697.12
679.9904, 26700.88
680.4725, 26688.63
680.9547, 26674.46
681.4368, 26690.94
681.9189, 26745.82
682.4010, 26791.48
682.8831, 26779.13
683.3652, 26749.17
683.8474, 26740.97
684.3295, 26753.76
684.8116, 26804.22
685.2937, 26942.48
685.7758, 27098.52
686.2579, 27175.11
686.7401, 27142.82
687.2222, 27110.72
687.7043, 27096.20
688.1864, 27094.83
688.6685, 27092.11
689.1506, 27089.23
689.6328, 27105.86
690.1149, 27163.37
690.5970, 27237.58
691.0791, 27287.91
691.5612, 27320.39
692.0433, 27363.79
692.5255, 27463.88
693.0076, 27556.76
693.4897, 27593.59
693.9718, 27565.21
694.4539, 27551.64
694.9360, 27562.69
695.4182, 27592.28
695.9003, 27642.60
696.3824, 27721.82
696.8645, 27783.53
697.3466, 27825.29
697.8287, 27855.90
698.3109, 27886.70
698.7930, 27915.40
699.2751, 27923.60
699.7572, 27900.14
700.2393, 27884.87
700.7214, 27930.15
701.2036, 28009.97
701.6857, 28081.03
702.1678, 28124.37
702.6499, 28160.48
703.1320, 28196.05
703.6141, 28229.98
704.0963, 28259.64
704.5784, 28284.71
705.0605, 28306.50
705.5426, 28324.61
706.0247, 28339.78
706.5068, 28351.52
706.9890, 28358.06
707.4711, 28376.42
707.9532, 28427.51
708.4353, 28494.18
708.9174, 28517.97
709.3995, 28504.81
709.8817, 28512.70
710.3638, 28614.72
710.8459, 28733.78
711.3280, 28791.18
711.8101, 28770.39
712.2922, 28770.13
712.7744, 28853.59
713.2565, 28940.71
713.7386, 28974.67
714.2207, 28921.15
714.7028, 28905.00
715.1849, 28935.84
715.6671, 28987.12
716.1492, 29030.34
716.6313, 29066.39
717.1134, 29114.24
717.5955, 29181.89
718.0776, 29245.20
718.5598, 29266.40
719.0419, 29262.04
719.5240, 29264.00
720.0061, 29284.87
720.4882, 29313.14
720.9703, 29342.38
721.4525, 29375.41
721.9346, 29418.95
722.4167, 29489.35
722.8988, 29551.25
723.3809, 29600.28
723.8630, 29635.76
724.3452, 29648.73
724.8273, 29634.69
725.3094, 29629.63
725.7915, 29645.88
726.2736, 29684.85
726.7557, 29769.51
727.2379, 29891.61
727.7200, 29986.38
728.2021, 29978.28
728.6842, 29948.78
729.1663, 29977.50
729.6484, 30073.25
730.1306, 30133.63
730.6127, 30076.19
731.0948, 30019.96
731.5769, 30035.26
732.0590, 30146.60
732.5411, 30226.82
733.0233, 30269.42
733.5054, 30295.47
733.9875, 30324.07
734.4696, 30353.93
734.9517, 30371.45
735.4338, 30372.87
735.9160, 30376.17
736.3981, 30402.48
736.8802, 30441.58
737.3623, 30477.41
737.8444, 30499.24
738.3266, 30529.99
738.8087, 30590.22
739.2908, 30661.03
739.7729, 30713.26
740.2551, 30731.08
740.7372, 30757.48
741.2193, 30796.48
741.7014, 30847.34
742.1835, 30914.78
742.6656, 30998.83
743.1478, 31073.18
743.6299, 31137.63
744.1120, 31178.40
744.5941, 31146.68
745.0762, 31068.86
745.5583, 31025.95
746.0405, 31093.10
746.5226, 31174.04
747.0047, 31205.98
747.4868, 31200.17
747.9689, 31229.01
748.4510, 31340.37
748.9332, 31436.01
749.4153, 31482.41
749.8974, 31483.41
750.3795, 31481.22
750.8616, 31473.14
751.3438, 31482.19
751.8259, 31538.97
752.3080, 31620.20
752.7901, 31663.62
753.2722, 31670.13
753.7543, 31688.16
754.2365, 31771.09
754.7186, 31864.33
755.2007, 31919.10
755.6828, 31922.52
756.1649, 31935.34
756.6470, 31984.62
757.1292, 32031.36
757.6113, 32046.89
758.0934, 32017.10
758.5755, 32023.41
759.0576, 32073.07
759.5397, 32134.91
760.0219, 32170.97
760.5040, 32192.45
760.9861, 32238.80
761.4682, 32320.84
761.9503, 32399.59
762.4324, 32430.89
762.9146, 32447.65
763.3967, 32491.72
763.8788, 32616.59
764.3609, 32697.90
764.8430, 32679.80
765.3251, 32627.64
765.8073, 32614.48
766.2894, 32649.26
766.7715, 32686.03
767.2536, 32714.45
767.7357, 32749.66
768.2178, 32833.60
768.7000, 32951.09
769.1821, 33035.80
769.6642, 33057.21
770.1463, 33054.44
770.6284, 33043.58
771.1105, 33035.11
771.5927, 33049.25
772.0748, 33143.02
772.5569, 33199.89
773.0390, 33159.30
773.5211, 33069.59
774.0032, 33058.21
774.4854, 33144.98
774.9675, 33237.79
775.4496, 33316.36
775.9317, 33377.00
776.4138, 33393.34
776.8959, 33375.92
777.3781, 33382.68
777.8602, 33469.95
778.3423, 33573.34
778.8244, 33642.09
779.3065, 33680.96
779.7886, 33713.15
780.2708, 33742.77
780.7529, 33769.48
781.2350, 33791.65
781.7171, 33810.35
782.1992, 33835.31
782.6813, 33865.97
783.1635, 33904.11
783.6456, 33949.70
784.1277, 34003.40
784.6098, 34075.07
785.0919, 34162.24
785.5740, 34243.07
786.0562, 34312.80
786.5383, 34364.36
787.0204, 34388.32
787.5025, 34384.61
787.9846, 34370.61
788.4667, 34314.36
788.9489, 34284.88
789.4310, 34320.77
789.9131, 34426.75
790.3952, 34502.16
790.8773, 34542.72
791.3594, 34569.77
791.8416, 34589.75
792.3237, 34609.20
792.8058, 34648.79
793.2879, 34709.51
793.7700, 34771.74
794.2521, 34813.27
794.7343, 34856.50
795.2164, 34926.20
795.6985, 35038.37
796.1806, 35117.71
796.6627, 35135.13
797.1448, 35143.27
797.6270, 35177.08
798.1091, 35241.20
798.5912, 35296.77
799.0733, 35345.81
799.5554, 35376.45
800.0375, 35352.87
800.5197, 35308.92
801.0018, 35315.62
801.4839, 35387.55
801.9660, 35467.67
802.4481, 35527.63
802.9302, 35576.78
803.4124, 35623.80
803.8945, 35676.02
804.3766, 35707.97
804.8587, 35700.33
805.3408, 35697.89
805.8229, 35749.93
806.3051, 35856.00
806.7872, 35947.31
807.2693, 36019.48
807.7514, 36068.89
808.2335, 36077.52
808.7156, 36066.84
809.1978, 36070.18
809.6799, 36098.06
810.1620, 36127.98
810.6441, 36140.46
811.1262, 36156.64
811.6083, 36198.92
812.0905, 36287.39
812.5726, 36356.77
813.0547, 36403.71
813.5368, 36434.19
814.0189, 36440.82
814.5010, 36431.98
814.9832, 36461.08
815.4653, 36541.13
815.9474, 36637.27
816.4295, 36734.66
816.9116, 36822.54
817.3937, 36887.57
817.8759, 36922.86
818.3580, 36940.62
818.8401, 36912.08
819.3222, 36887.44
819.8043, 36921.10
820.2864, 37030.20
820.7686, 37116.59
821.2507, 37166.38
821.7328, 37205.88
822.2149, 37281.57
822.6970, 37372.13
823.1791, 37420.29
823.6613, 37403.12
824.1434, 37374.08
824.6255, 37354.06
825.1076, 37348.09
825.5897, 37362.02
826.0718, 37403.25
826.5540, 37459.22
827.0361, 37544.55
827.5182, 37628.48
828.0003, 37665.29
828.4824, 37655.53
828.9645, 37679.82
829.4467, 37758.57
829.9288, 37836.65
830.4109, 37827.89
830.8930, 37784.33
831.3751, 37789.35
831.8572, 37883.43
832.3394, 37984.03
832.8215, 38065.45
833.3036, 38138.30
833.7857, 38219.64
834.2678, 38326.05
834.7499, 38383.53
835.2321, 38372.73
835.7142, 38345.88
836.1963, 38376.21
836.6784, 38447.23
837.1605, 38489.91
837.6426, 38480.91
838.1248, 38487.84
838.6069, 38607.38
839.0890, 38750.49
839.5711, 38810.57
840.0532, 38671.59
840.5353, 38627.91
841.0175, 38753.51
841.4996, 38919.75
841.9817, 38981.62
842.4638, 38933.23
842.9459, 38946.12
843.4280, 39045.34
843.9102, 39160.05
844.3923, 39222.81
844.8744, 39245.59
845.3565, 39236.78
845.8386, 39181.36
846.3207, 39158.54
846.8029, 39235.30
847.2850, 39336.52
847.7671, 39394.13
848.2492, 39383.13
848.7313, 39394.43
849.2134, 39431.36
849.6956, 39482.05
850.1777, 39541.59
850.6598, 39605.72
851.1419, 39654.41
851.6240, 39683.02
852.1061, 39721.80
852.5883, 39812.40
853.0704, 39912.96
853.5525, 39984.38
854.0346, 40009.19
854.5167, 40037.92
854.9988, 40076.30
855.4810, 40115.85
855.9631, 40153.13
856.4452, 40188.39
856.9273, 40204.64
857.4094, 40199.10
857.8915, 40206.22
858.3737, 40268.64
858.8558, 40355.04
859.3379, 40427.73
859.8200, 40481.32
860.3021, 40526.38
860.7842, 40563.07
861.2664, 40593.77
861.7485, 40613.81
862.2306, 40619.08
862.7127, 40664.50
863.1948, 40759.86
863.6769, 40853.86
864.1591, 40911.48
864.6412, 40940.89
865.1233, 40947.03
865.6054, 40934.77
866.0875, 40958.46
866.5696, 41103.34
867.0518, 41250.77
867.5339, 41315.98
868.0160, 41289.25
868.4981, 41289.73
868.9802, 41327.41
869.4623, 41371.99
869.9445, 41407.08
870.4266, 41437.35
870.9087, 41494.88
871.3908, 41576.02
871.8729, 41635.06
872.3550, 41613.78
872.8372, 41584.17
873.3193, 41616.93
873.8014, 41700.93
874.2835, 41763.45
874.7656, 41743.85
875.2477, 41756.73
875.7299, 41849.26
876.2120, 41991.89
876.6941, 42056.45
877.1762, 42042.92
877.6583, 42062.27
878.1404, 42192.29
878.6226, 42349.27
879.1047, 42427.64
879.5869, 42443.19
880.0690, 42438.63
880.5511, 42390.49
881.0332, 42370.13
881.5153, 42408.57
881.9974, 42484.64
882.4796, 42563.80
882.9617, 42649.83
883.4438, 42714.66
883.9259, 42743.83
884.4080, 42763.55
884.8901, 42816.74
885.3723, 42892.80
885.8544, 42967.01
886.3365, 43026.15
886.8186, 43088.50
887.3007, 43177.39
887.7828, 43266.77
888.2650, 43314.51
888.7471, 43284.08
889.2292, 43319.46
889.7113, 43459.11
890.1934, 43606.90
890.6755, 43612.35
891.1577, 43523.08
891.6398, 43494.10
892.1219, 43563.55
892.6040, 43647.64
893.0861, 43688.48
893.5682, 43715.64
894.0504, 43757.73
894.5325, 43827.45
895.0146, 43889.76
895.4967, 43945.58
895.9788, 43992.18
896.4609, 44020.99
896.9431, 44036.19
897.4252, 44063.54
897.9073, 44104.48
898.3894, 44150.98
898.8715, 44195.07
899.3536, 44244.26
899.8358, 44306.92
900.3179, 44384.10
900.8000, 44464.96
901.2821, 44555.50
901.7642, 44638.15
902.2463, 44708.50
902.7285, 44764.53
903.2106, 44790.28
903.6927, 44787.09
904.1748, 44793.27
904.6569, 44839.24
905.1390, 44901.01
905.6212, 44955.74
906.1033, 45004.63
906.5854, 45058.52
907.0675, 45142.68
907.5496, 45202.85
908.0317, 45216.93
908.5139, 45202.08
908.9960, 45212.66
909.4781, 45248.76
909.9602, 45278.55
910.4423, 45271.73
910.9244, 45283.81
911.4066, 45415.38
911.8887, 45608.00
912.3708, 45755.92
912.8529, 45793.29
913.3350, 45818.26
913.8171, 45838.59
914.2993, 45862.51
914.7814, 45900.81
915.2635, 45953.82
915.7456, 46023.74
916.2277, 46117.98
916.7098, 46198.32
917.1920, 46195.85
917.6741, 46159.59
918.1562, 46165.87
918.6383, 46243.54
919.1204, 46315.01
919.6025, 46330.95
920.0847, 46354.75
920.5668, 46439.68
921.0489, 46603.01
921.5310, 46697.01
922.0131, 46714.50
922.4952, 46720.32
922.9774, 46774.83
923.4595, 46846.88
923.9416, 46881.70
924.4237, 46879.65
924.9058, 46896.51
925.3879, 46975.00
925.8701, 47056.86
926.3522, 47120.18
926.8343, 47166.17
927.3164, 47195.91
927.7985, 47205.55
928.2806, 47237.54
928.7628, 47332.63
929.2449, 47440.54
929.7270, 47467.18
930.2091, 47441.23
930.6912, 47441.21
931.1733, 47524.14
931.6555, 47608.56
932.1376, 47676.05
932.6197, 47727.14
933.1018, 47757.13
933.5839, 47762.39
934.0660, 47770.76
934.5482, 47780.60
935.0303, 47816.23
935.5124, 47933.97
935.9945, 48093.60
936.4766, 48220.61
936.9587, 48285.69
937.4409, 48356.18
937.9230, 48478.86
938.4051, 48596.65
938.8872, 48664.90
939.3693, 48677.01
939.8514, 48670.45
940.3336, 48639.73
940.8157, 48633.07
941.2978, 48725.00
941.7799, 48849.31
942.2620, 48895.92
942.7441, 48863.71
943.2263, 48856.75
943.7084, 48937.47
944.1905, 49028.98
944.6726, 49101.36
945.1547, 49157.53
945.6368, 49215.70
946.1190, 49276.65
946.6011, 49334.73
947.0832, 49390.81
947.5653, 49439.13
948.0474, 49454.53
948.5295, 49457.82
949.0117, 49497.40
949.4938, 49653.79
949.9759, 49763.51
950.4580, 49759.77
950.9401, 49722.87
951.4222, 49793.38
951.9044, 49974.49
952.3865, 50081.42
952.8686, 50075.89
953.3507, 50033.84
953.8328, 50006.39
954.3149, 50004.80
954.7971, 50049.97
955.2792, 50159.05
955.7613, 50261.51
956.2434, 50344.62
956.7255, 50420.63
957.2076, 50500.55
957.6898, 50583.81
958.1719, 50634.49
958.6540, 50653.43
959.1361, 50670.92
959.6182, 50710.75
960.1003, 50756.71
960.5825, 50787.12
961.0646, 50807.41
961.5467, 50853.66
962.0288, 50957.32
962.5109, 51048.41
962.9930, 51105.90
963.4752, 51142.91
963.9573, 51186.44
964.4394, 51236.54
964.9215, 51297.33
965.4036, 51375.80
965.8857, 51454.30
966.3679, 51519.94
966.8500, 51576.56
967.3321, 51629.69
967.8142, 51677.85
968.2963, 51722.20
968.7784, 51751.42
969.2606, 51799.06
969.7427, 51942.40
970.2248, 52133.58
970.7069, 52165.88
971.1890, 52025.97
971.6711, 51912.33
972.1533, 51968.59
972.6354, 52084.65
973.1175, 52207.71
973.5996, 52331.95
974.0817, 52397.57
974.5638, 52384.84
975.0460, 52382.57
975.5281, 52427.41
976.0102, 52506.56
976.4923, 52612.96
976.9744, 52732.07
977.4565, 52821.21
977.9387, 52834.43
978.4208, 52846.53
978.9029, 52885.97
979.3850, 52937.96
979.8671, 52979.55
980.3492, 53004.54
980.8314, 53057.48
981.3135, 53146.75
981.7956, 53249.38
982.2777, 53372.99
982.7598, 53480.24
983.2419, 53492.56
983.7241, 53380.19
984.2062, 53332.51
984.6883, 53466.51
985.1704, 53618.30
985.6525, 53718.59
986.1346, 53772.07
986.6168, 53824.25
987.0989, 53875.33
987.5810, 53931.13
988.0631, 53998.64
988.5452, 54069.62
989.0273, 54144.15
989.5095, 54215.30
989.9916, 54263.51
990.4737, 54254.00
990.9558, 54271.26
991.4379, 54329.86
991.9200, 54411.95
992.4022, 54501.52
992.8843, 54591.82
993.3664, 54649.05
993.8485, 54659.48
994.3306, 54681.05
994.8127, 54764.40
995.2949, 54869.44
995.7770, 54971.54
996.2591, 55077.33
996.7412, 55101.60
997.2233, 55014.23
997.7054, 54954.34
998.1876, 55018.91
998.6697, 55165.14
999.1518, 55330.50
999.6339, 55500.13
1000.116, 55617.54
1000.598, 55641.27
1001.080, 55626.81
1001.562, 55551.33
1002.044, 55469.58
1002.527, 55492.10
1003.009, 55626.89
1003.491, 55747.44
1003.973, 55827.14
1004.455, 55895.24
1004.937, 55992.82
1005.419, 56091.99
1005.901, 56147.86
1006.384, 56134.16
1006.866, 56158.10
1007.348, 56247.73
1007.830, 56351.61
1008.312, 56454.31
1008.794, 56547.91
1009.276, 56555.99
1009.758, 56493.60
1010.240, 56485.31
1010.723, 56673.06
1011.205, 56869.59
1011.687, 56953.35
1012.169, 56954.03
1012.651, 56959.14
1013.133, 56967.60
1013.615, 56989.55
1014.097, 57022.86
1014.580, 57080.14
1015.062, 57207.51
1015.544, 57362.46
1016.026, 57455.48
1016.508, 57457.76
1016.990, 57468.43
1017.472, 57534.18
1017.954, 57614.57
1018.436, 57694.11
1018.919, 57770.77
1019.401, 57794.64
1019.883, 57765.50
1020.365, 57769.11
1020.847, 57900.14
1021.329, 58049.95
1021.811, 58098.21
1022.293, 58080.74
1022.776, 58087.10
1023.258, 58144.09
1023.740, 58210.97
1024.222, 58286.23
1024.704, 58366.45
1025.186, 58454.56
1025.668, 58543.55
1026.150, 58596.79
1026.632, 58605.77
1027.115, 58632.23
1027.597, 58742.64
1028.079, 58858.53
1028.561, 58921.46
1029.043, 58934.04
1029.525, 58962.85
1030.007, 59006.46
1030.489, 59074.64
1030.972, 59179.85
1031.454, 59303.01
1031.936, 59448.43
1032.418, 59589.11
1032.900, 59665.59
1033.382, 59612.42
1033.864, 59551.49
1034.346, 59454.27
1034.828, 59408.16
1035.311, 59562.00
1035.793, 59874.89
1036.275, 60054.10
1036.757, 60076.95
1037.239, 60074.99
1037.721, 60127.79
1038.203, 60201.31
1038.685, 60280.95
1039.167, 60362.39
1039.650, 60416.51
1040.132, 60432.78
1040.614, 60467.77
1041.096, 60546.46
1041.578, 60641.79
1042.060, 60725.27
1042.542, 60788.63
1043.024, 60810.60
1043.507, 60730.47
1043.989, 60719.95
1044.471, 60849.16
1044.953, 61009.91
1045.435, 61121.92
1045.917, 61188.40
1046.399, 61256.17
1046.881, 61325.55
1047.364, 61391.16
1047.846, 61450.42
1048.328, 61503.66
1048.810, 61539.32
1049.292, 61568.00
1049.774, 61637.75
1050.256, 61772.30
1050.738, 61859.46
1051.220, 61865.77
1051.703, 61846.34
1052.185, 61885.80
1052.667, 61952.21
1053.149, 61980.89
1053.631, 61940.92
1054.113, 61951.84
1054.595, 62076.96
1055.077, 62226.46
1055.559, 62373.33
1056.042, 62507.98
1056.524, 62544.88
1057.006, 62498.33
1057.488, 62485.34
1057.970, 62598.82
1058.452, 62735.82
1058.934, 62852.05
1059.416, 62941.88
1059.899, 62989.51
1060.381, 62970.15
1060.863, 63002.63
1061.345, 63102.62
1061.827, 63230.24
1062.309, 63380.15
1062.791, 63515.15
1063.273, 63557.79
1063.755, 63505.45
1064.238, 63484.82
1064.720, 63553.86
1065.202, 63629.39
1065.684, 63681.54
1066.166, 63727.71
1066.648, 63831.00
1067.130, 63975.19
1067.612, 64092.66
1068.094, 64157.82
1068.577, 64200.93
1069.059, 64224.13
1069.541, 64245.42
1070.023, 64277.49
1070.505, 64314.75
1070.987, 64415.85
1071.469, 64591.59
1071.951, 64737.86
1072.434, 64742.74
1072.916, 64709.16
1073.398, 64763.71
1073.880, 64886.41
1074.362, 65000.24
1074.844, 65102.26
1075.326, 65168.84
1075.808, 65177.81
1076.291, 65185.75
1076.773, 65293.66
1077.255, 65463.80
1077.737, 65584.94
1078.219, 65638.74
1078.701, 65673.88
1079.183, 65680.13
1079.665, 65709.43
1080.147, 65796.27
1080.630, 65927.64
1081.112, 66026.31
1081.594, 66093.28
1082.076, 66161.52
1082.558, 66251.72
1083.040, 66331.81
1083.522, 66363.69
1084.004, 66372.24
1084.486, 66387.54
1084.969, 66398.34
1085.451, 66466.84
1085.933, 66610.77
1086.415, 66743.41
1086.897, 66784.81
1087.379, 66777.15
1087.861, 66776.40
1088.343, 66790.09
1088.826, 66841.84
1089.308, 66984.91
1089.790, 67103.70
1090.272, 67158.27
1090.754, 67202.83
1091.236, 67360.29
1091.718, 67589.88
1092.200, 67678.01
1092.682, 67581.59
1093.165, 67501.96
1093.647, 67571.70
1094.129, 67694.26
1094.611, 67823.18
1095.093, 67952.48
1095.575, 68047.91
1096.057, 68108.67
1096.539, 68151.75
1097.022, 68168.23
1097.504, 68197.84
1097.986, 68302.15
1098.468, 68436.43
1098.950, 68538.05
1099.432, 68592.04
1099.914, 68623.39
1100.396, 68620.52
1100.879, 68630.72
1101.361, 68715.74
1101.843, 68824.52
1102.325, 68828.48
1102.807, 68762.98
1103.289, 68762.28
1103.771, 68934.95
1104.253, 69102.55
1104.735, 69246.23
1105.218, 69358.70
1105.700, 69412.05
1106.182, 69421.56
1106.664, 69460.41
1107.146, 69537.57
1107.628, 69617.83
1108.110, 69678.34
1108.592, 69738.17
1109.074, 69809.63
1109.557, 69889.05
1110.039, 69957.29
1110.521, 70014.66
1111.003, 70076.83
1111.485, 70149.66
1111.967, 70222.52
1112.449, 70267.34
1112.931, 70315.71
1113.414, 70406.16
1113.896, 70548.73
1114.378, 70711.94
1114.860, 70914.57
1115.342, 71053.22
1115.824, 71018.29
1116.306, 70927.63
1116.788, 70963.48
1117.271, 71091.36
1117.753, 71235.48
1118.235, 71436.84
1118.717, 71544.46
1119.199, 71510.38
1119.681, 71458.47
1120.163, 71523.38
1120.645, 71667.27
1121.127, 71782.80
1121.609, 71867.11
1122.092, 71941.20
1122.574, 72029.45
1123.056, 72086.53
1123.538, 72064.69
1124.020, 72030.07
1124.502, 72150.27
1124.984, 72399.06
1125.466, 72536.36
1125.949, 72504.06
1126.431, 72472.67
1126.913, 72581.73
1127.395, 72717.80
1127.877, 72792.40
1128.359, 72814.42
1128.841, 72869.23
1129.323, 72958.80
1129.806, 73048.60
1130.288, 73119.45
1130.770, 73199.17
1131.252, 73339.15
1131.734, 73494.13
1132.216, 73599.80
1132.698, 73635.28
1133.180, 73675.36
1133.662, 73720.34
1134.145, 73767.76
1134.627, 73807.07
1135.109, 73854.52
1135.591, 73948.34
1136.073, 74070.36
1136.555, 74171.86
1137.037, 74221.10
1137.519, 74278.69
1138.001, 74354.78
1138.484, 74425.50
1138.966, 74432.40
1139.448, 74422.81
1139.930, 74538.80
1140.412, 74772.22
1140.894, 74968.34
1141.376, 75047.98
1141.858, 75104.09
1142.341, 75167.52
1142.823, 75218.23
1143.305, 75174.53
1143.787, 75078.71
1144.269, 75148.47
1144.751, 75436.36
1145.233, 75704.68
1145.715, 75832.67
1146.198, 75884.66
1146.680, 75872.51
1147.162, 75823.50
1147.644, 75882.47
1148.126, 76040.46
1148.608, 76167.23
1149.090, 76206.24
1149.572, 76249.05
1150.054, 76400.70
1150.536, 76563.09
1151.019, 76634.76
1151.501, 76606.08
1151.983, 76602.30
1152.465, 76622.63
1152.947, 76685.07
1153.429, 76841.50
1153.911, 76996.81
1154.393, 77026.35
1154.876, 77000.97
1155.358, 77052.82
1155.840, 77232.42
1156.322, 77355.05
1156.804, 77413.23
1157.286, 77436.98
1157.768, 77404.58
1158.250, 77383.82
1158.733, 77491.27
1159.215, 77689.45
1159.697, 77830.54
1160.179, 77868.65
1160.661, 77896.98
1161.143, 77915.35
1161.625, 77957.71
1162.107, 78090.67
1162.589, 78262.83
1163.072, 78385.78
1163.554, 78455.17
1164.036, 78515.09
1164.518, 78551.77
1165.000, 78625.31
1165.482, 78768.72
1165.964, 78926.47
1166.446, 78972.49
1166.928, 78958.85
1167.411, 79009.85
1167.893, 79158.53
1168.375, 79298.51
1168.857, 79399.13
1169.339, 79481.96
1169.821, 79560.41
1170.303, 79621.13
1170.785, 79586.96
1171.268, 79499.77
1171.750, 79505.36
1172.232, 79689.02
1172.714, 79867.06
1173.196, 79969.09
1173.678, 80037.60
1174.160, 80088.27
1174.642, 80124.63
1175.125, 80154.13
1175.607, 80183.45
1176.089, 80248.58
1176.571, 80410.24
1177.053, 80554.47
1177.535, 80584.99
1178.017, 80610.73
1178.499, 80759.03
1178.981, 81028.18
1179.464, 81140.38
1179.946, 81103.95
1180.428, 81087.85
1180.910, 81230.88
1181.392, 81387.16
1181.874, 81491.80
1182.356, 81554.91
1182.838, 81580.04
1183.320, 81564.62
1183.803, 81611.03
1184.285, 81729.70
1184.767, 81830.37
1185.249, 81780.42
1185.731, 81751.72
1186.213, 81927.10
1186.695, 82208.81
1187.177, 82288.34
1187.660, 82144.66
1188.142, 82141.06
1188.624, 82350.20
1189.106, 82591.58
1189.588, 82720.73
1190.070, 82803.31
1190.552, 82891.25
1191.034, 82983.40
1191.516, 83047.67
1191.999, 83080.30
1192.481, 83127.98
1192.963, 83208.16
1193.445, 83287.98
1193.927, 83306.96
1194.409, 83327.66
1194.891, 83436.88
1195.373, 83642.02
1195.855, 83746.80
1196.338, 83740.70
1196.820, 83725.09
1197.302, 83721.80
1197.784, 83761.36
1198.266, 83918.78
1198.748, 84117.14
1199.230, 84260.87
1199.712, 84335.01
1200.195, 84368.37
1200.677, 84351.12
1201.159, 84362.57
1201.641, 84451.45
1202.123, 84581.55
1202.605, 84731.59
1203.087, 84886.41
1203.569, 85032.72
1204.052, 85210.48
1204.534, 85231.20
1205.016, 85064.04
1205.498, 84925.48
1205.980, 84982.02
1206.462, 85133.18
1206.944, 85297.49
1207.426, 85460.69
1207.908, 85581.19
1208.391, 85625.32
1208.873, 85724.86
1209.355, 85892.78
1209.837, 86081.16
1210.319, 86302.62
1210.801, 86480.22
1211.283, 86463.87
1211.765, 86320.76
1212.247, 86302.03
1212.730, 86476.71
1213.212, 86606.27
1213.694, 86662.63
1214.176, 86687.35
1214.658, 86682.95
1215.140, 86697.98
1215.622, 86802.78
1216.104, 86985.80
1216.587, 87154.41
1217.069, 87300.05
1217.551, 87443.71
1218.033, 87594.51
1218.515, 87719.29
1218.997, 87750.20
1219.479, 87755.69
1219.961, 87821.98
1220.443, 87949.73
1220.926, 88045.65
1221.408, 88099.73
1221.890, 88143.52
1222.372, 88183.16
1222.854, 88218.76
1223.336, 88245.22
1223.818, 88271.12
1224.300, 88299.98
1224.782, 88333.67
1225.265, 88402.91
1225.747, 88508.22
1226.229, 88657.20
1226.711, 88874.95
1227.193, 89074.41
1227.675, 89119.68
1228.157, 89104.57
1228.639, 89133.53
1229.122, 89221.13
1229.604, 89356.72
1230.086, 89554.04
1230.568, 89708.89
1231.050, 89766.51
1231.532, 89795.48
1232.014, 89872.59
1232.496, 89968.20
1232.979, 90044.93
1233.461, 90096.62
1233.943, 90157.80
1234.425, 90225.99
1234.907, 90325.87
1235.389, 90489.14
1235.871, 90656.84
1236.353, 90775.55
1236.835, 90865.02
1237.318, 90950.77
1237.800, 91038.69
1238.282, 91098.68
1238.764, 91129.72
1239.246, 91142.87
1239.728, 91107.45
1240.210, 91102.30
1240.692, 91185.68
1241.175, 91347.88
1241.657, 91596.02
1242.139, 91970.81
1242.621, 92118.97
1243.103, 92039.84
1243.585, 91989.41
1244.067, 92206.95
1244.549, 92419.40
1245.031, 92385.91
1245.514, 92266.63
1245.996, 92300.56
1246.478, 92507.83
1246.960, 92602.69
1247.442, 92587.42
1247.924, 92611.05
1248.406, 92824.91
1248.888, 93042.13
1249.370, 93167.77
1249.853, 93229.13
1250.335, 93239.13
1250.817, 93201.73
1251.299, 93278.09
1251.781, 93465.02
1252.263, 93616.05
1252.745, 93591.75
1253.227, 93568.91
1253.710, 93620.99
1254.192, 93721.49
1254.674, 93856.18
1255.156, 94016.51
1255.638, 94127.32
1256.120, 94190.41
1256.602, 94279.94
1257.084, 94487.81
1257.567, 94661.42
1258.049, 94736.84
1258.531, 94775.33
1259.013, 94858.79
1259.495, 94977.19
1259.977, 95114.91
1260.459, 95262.96
1260.941, 95346.92
1261.423, 95188.82
1261.906, 95175.59
1262.388, 95453.63
1262.870, 95806.73
1263.352, 95892.86
1263.834, 95820.38
1264.316, 95842.04
1264.798, 95972.26
1265.280, 96080.56
1265.762, 96082.20
1266.245, 96139.96
1266.727, 96298.29
1267.209, 96488.04
1267.691, 96645.55
1268.173, 96754.70
1268.655, 96745.74
1269.137, 96627.64
1269.619, 96646.33
1270.102, 96886.27
1270.584, 97089.82
1271.066, 97198.51
1271.548, 97268.63
1272.030, 97346.27
1272.512, 97438.28
1272.994, 97558.79
1273.476, 97705.84
##END=



