##NAMES=Montroydite
##RRUFFID=R070235
##IDEAL CHEMISTRY=Hg^2+^O
##LOCALITY=Clear Creek claim, southern San Benito County, California, USA
##OWNER=RRUFF
##SOURCE=Michael Scott
##DESCRIPTION=Red prismatic crystal with quartz, cinnabar and greenish yellow edgarbaileyite, R060500
##STATUS=The identification of this mineral is confirmed by single-crystal X-ray diffraction and chemical analysis.
##URL=rruff.info/R070235
##MEASURED CHEMISTRY=Hg_1.00_O
67.02234, 8.193812
67.50446, 7.684977
67.98657, 8.148335
68.46869, 9.174496
68.95081, 10.39529
69.43292, 11.99375
69.91504, 13.16762
70.39716, 14.26001
70.87927, 14.80974
71.36139, 14.16565
71.84351, 12.32729
72.32562, 10.21013
72.80774, 9.229879
73.28986, 10.35308
73.77197, 11.07832
74.25409, 10.98838
74.73621, 10.60998
75.21832, 10.73105
75.70044, 11.73176
76.18256, 12.94084
76.66467, 12.47431
77.14679, 9.365067
77.62891, 6.997261
78.11102, 6.894444
78.59314, 8.432178
79.07526, 9.880027
79.55737, 10.52140
80.03949, 10.54117
80.52161, 10.46434
81.00372, 10.13896
81.48584, 9.945666
81.96796, 10.46428
82.45007, 11.70713
82.93219, 12.35542
83.41431, 10.86602
83.89642, 8.672819
84.37854, 7.783685
84.86066, 9.314281
85.34277, 11.66365
85.82489, 12.07912
86.30701, 9.580119
86.78912, 7.886704
87.27124, 9.754802
87.75336, 13.14027
88.23547, 15.42550
88.71759, 14.93967
89.19971, 12.49623
89.68182, 11.30121
90.16394, 12.65308
90.64606, 13.59064
91.12817, 12.63248
91.61029, 10.58985
92.09241, 8.942863
92.57452, 8.898020
93.05664, 10.47672
93.53876, 11.61600
94.02087, 11.80139
94.50299, 11.98929
94.98511, 12.58180
95.46722, 13.46834
95.94934, 14.25195
96.43146, 14.52241
96.91357, 14.14454
97.39569, 13.83868
97.87781, 14.07352
98.35992, 14.00342
98.84204, 12.83522
99.32416, 10.66888
99.80627, 8.462770
100.2884, 7.431202
100.7705, 8.108186
101.2526, 8.786886
101.7347, 8.919769
102.2169, 9.355141
102.6990, 11.37380
103.1811, 15.19807
103.6632, 19.08962
104.1453, 19.95929
104.6274, 16.16226
105.1096, 13.51489
105.5917, 13.23740
106.0738, 14.25820
106.5559, 15.07208
107.0380, 15.12195
107.5201, 15.04648
108.0023, 16.31537
108.4844, 19.29753
108.9665, 21.88536
109.4486, 22.98512
109.9307, 23.10325
110.4128, 23.56822
110.8950, 24.88184
111.3771, 26.75209
111.8592, 28.70327
112.3413, 30.85998
112.8234, 32.71819
113.3055, 33.52082
113.7877, 33.44461
114.2698, 34.11048
114.7519, 36.21398
115.2340, 39.41733
115.7161, 43.35732
116.1982, 48.21102
116.6804, 53.19659
117.1625, 57.56236
117.6446, 61.29503
118.1267, 64.65438
118.6088, 67.23656
119.0909, 69.69942
119.5731, 72.63921
120.0552, 76.27448
120.5373, 80.23618
121.0194, 83.38824
121.5015, 84.46935
121.9836, 88.49906
122.4658, 98.97585
122.9479, 112.0610
123.4300, 124.1761
123.9121, 133.8191
124.3942, 142.0964
124.8763, 151.4431
125.3585, 161.9167
125.8406, 173.7332
126.3227, 187.6142
126.8048, 202.3932
127.2869, 217.2088
127.7690, 231.7008
128.2512, 245.4869
128.7333, 256.4030
129.2154, 262.0894
129.6975, 267.5192
130.1796, 273.1140
130.6617, 279.1189
131.1439, 286.3077
131.6260, 295.5365
132.1081, 305.9696
132.5902, 310.9861
133.0723, 306.1641
133.5544, 300.0392
134.0366, 294.3044
134.5187, 288.3392
135.0008, 280.4451
135.4829, 269.2273
135.9650, 254.9571
136.4471, 243.6386
136.9293, 237.0285
137.4114, 231.2634
137.8935, 224.3739
138.3756, 217.3100
138.8577, 212.3501
139.3398, 211.2334
139.8220, 214.0159
140.3041, 218.2675
140.7862, 223.9525
141.2683, 230.7298
141.7504, 239.5359
142.2325, 249.6089
142.7147, 258.4720
143.1968, 264.0476
143.6789, 266.1913
144.1610, 269.3013
144.6431, 272.9615
145.1252, 277.7715
145.6074, 284.4353
146.0895, 292.7823
146.5716, 301.8324
147.0537, 311.2242
147.5358, 320.8077
148.0179, 328.3988
148.5001, 333.6707
148.9822, 337.2546
149.4643, 339.7063
149.9464, 341.0422
150.4285, 340.5515
150.9106, 336.3044
151.3928, 329.0299
151.8749, 325.8954
152.3570, 330.9118
152.8391, 338.0598
153.3212, 342.4025
153.8033, 343.5857
154.2855, 342.2024
154.7676, 336.5417
155.2497, 328.1538
155.7318, 323.8052
156.2139, 328.0057
156.6960, 335.0667
157.1782, 338.0378
157.6603, 336.0560
158.1424, 333.6596
158.6245, 334.0889
159.1066, 336.7737
159.5887, 340.7611
160.0709, 348.4197
160.5530, 356.2844
161.0351, 358.0558
161.5172, 351.8966
161.9993, 346.0089
162.4814, 346.9048
162.9636, 352.2141
163.4457, 358.2202
163.9278, 363.0724
164.4099, 367.9919
164.8920, 376.3181
165.3741, 390.1684
165.8563, 401.3344
166.3384, 402.5623
166.8205, 397.9471
167.3026, 394.0140
167.7847, 392.9705
168.2668, 394.4006
168.7490, 398.4840
169.2311, 407.7573
169.7132, 413.7537
170.1953, 410.1439
170.6774, 400.9292
171.1595, 391.9704
171.6417, 385.3489
172.1238, 380.9400
172.6059, 378.7125
173.0880, 379.4979
173.5701, 380.9013
174.0522, 382.8529
174.5344, 384.5009
175.0165, 384.3362
175.4986, 380.9030
175.9807, 375.6292
176.4628, 372.4895
176.9449, 372.3385
177.4271, 372.8893
177.9092, 372.4021
178.3913, 372.1321
178.8734, 374.1127
179.3555, 380.0891
179.8376, 388.2910
180.3197, 393.5359
180.8019, 394.9161
181.2840, 394.6486
181.7661, 392.1348
182.2482, 389.0782
182.7303, 387.7771
183.2124, 389.6243
183.6946, 393.4756
184.1767, 396.0716
184.6588, 396.8698
185.1409, 397.2300
185.6230, 396.2359
186.1051, 395.5086
186.5873, 397.1685
187.0694, 402.4586
187.5515, 409.9719
188.0336, 416.0939
188.5157, 420.0463
188.9978, 423.7655
189.4800, 428.2564
189.9621, 432.5267
190.4442, 435.4636
190.9263, 436.4885
191.4084, 436.2726
191.8905, 436.2730
192.3727, 435.8976
192.8548, 436.9495
193.3369, 440.2486
193.8190, 444.6053
194.3011, 449.3071
194.7832, 454.1019
195.2654, 458.2443
195.7475, 459.4399
196.2296, 453.6699
196.7117, 452.8033
197.1938, 461.5399
197.6759, 473.2156
198.1581, 482.2456
198.6402, 486.7504
199.1223, 488.3647
199.6044, 489.9723
200.0865, 491.5414
200.5686, 493.1790
201.0508, 495.1457
201.5329, 497.0275
202.0150, 498.4305
202.4971, 499.2720
202.9792, 499.8255
203.4613, 500.5637
203.9435, 501.7131
204.4256, 502.5152
204.9077, 503.4156
205.3898, 503.7096
205.8719, 502.9279
206.3540, 500.9736
206.8362, 498.0544
207.3183, 493.8014
207.8004, 486.1761
208.2825, 482.7530
208.7646, 485.3944
209.2467, 490.2289
209.7289, 496.2957
210.2110, 502.7969
210.6931, 508.1467
211.1752, 509.9578
211.6573, 506.6288
212.1395, 505.6505
212.6216, 508.4003
213.1037, 512.1285
213.5858, 517.0015
214.0679, 522.0615
214.5500, 524.6872
215.0322, 521.0303
215.5143, 509.1037
215.9964, 504.4017
216.4785, 515.2944
216.9606, 525.5305
217.4427, 527.7595
217.9249, 523.6740
218.4070, 519.7786
218.8891, 521.8911
219.3712, 530.2556
219.8533, 535.7418
220.3354, 534.5568
220.8176, 534.0529
221.2997, 536.9977
221.7818, 542.1586
222.2639, 546.7628
222.7460, 548.7326
223.2281, 548.3857
223.7103, 548.9852
224.1924, 551.7772
224.6745, 554.2103
225.1566, 555.0403
225.6387, 555.3191
226.1208, 556.6906
226.6030, 560.1684
227.0851, 565.2787
227.5672, 569.8467
228.0493, 571.1626
228.5314, 575.9160
229.0135, 590.3060
229.4957, 606.6415
229.9778, 615.5648
230.4599, 612.7064
230.9420, 602.3872
231.4241, 594.3766
231.9062, 585.3455
232.3884, 585.4759
232.8705, 603.4630
233.3526, 625.6292
233.8347, 639.1884
234.3168, 640.0834
234.7989, 635.6445
235.2811, 638.9105
235.7632, 654.3137
236.2453, 667.0137
236.7274, 675.2689
237.2095, 681.2329
237.6916, 685.5333
238.1738, 688.6212
238.6559, 691.8693
239.1380, 697.1356
239.6201, 704.9726
240.1022, 712.8558
240.5843, 718.5257
241.0665, 725.9919
241.5486, 738.7998
242.0307, 756.1307
242.5128, 773.3110
242.9949, 785.5711
243.4770, 792.4737
243.9592, 799.8465
244.4413, 806.3849
244.9234, 814.8907
245.4055, 827.3730
245.8876, 842.8329
246.3697, 858.6237
246.8519, 873.1109
247.3340, 886.4153
247.8161, 898.5568
248.2982, 907.1798
248.7803, 918.0141
249.2624, 934.4029
249.7446, 953.9121
250.2267, 972.5010
250.7088, 988.0150
251.1909, 1001.367
251.6730, 1014.970
252.1551, 1028.153
252.6373, 1043.194
253.1194, 1063.234
253.6015, 1084.283
254.0836, 1101.629
254.5657, 1113.131
255.0478, 1122.013
255.5300, 1133.589
256.0121, 1148.614
256.4942, 1163.370
256.9763, 1177.600
257.4584, 1190.653
257.9406, 1202.601
258.4227, 1213.490
258.9048, 1221.615
259.3869, 1222.946
259.8690, 1216.981
260.3511, 1216.417
260.8333, 1228.042
261.3154, 1242.161
261.7975, 1252.054
262.2796, 1257.526
262.7617, 1261.618
263.2438, 1264.724
263.7260, 1267.649
264.2081, 1275.695
264.6902, 1292.396
265.1723, 1309.752
265.6544, 1321.588
266.1365, 1329.228
266.6187, 1336.751
267.1008, 1345.740
267.5829, 1355.980
268.0650, 1367.921
268.5471, 1382.735
269.0292, 1395.399
269.5114, 1401.465
269.9935, 1403.010
270.4756, 1402.901
270.9577, 1401.497
271.4398, 1399.042
271.9219, 1395.506
272.4041, 1390.850
272.8862, 1386.004
273.3683, 1380.217
273.8504, 1375.248
274.3325, 1374.344
274.8146, 1379.537
275.2968, 1385.387
275.7789, 1388.591
276.2610, 1389.476
276.7431, 1388.744
277.2252, 1385.144
277.7073, 1382.156
278.1895, 1386.585
278.6716, 1400.024
279.1537, 1411.689
279.6358, 1416.078
280.1179, 1416.522
280.6000, 1418.468
281.0822, 1423.093
281.5643, 1429.369
282.0464, 1435.608
282.5285, 1441.426
283.0106, 1451.719
283.4927, 1472.614
283.9749, 1494.693
284.4570, 1507.474
284.9391, 1510.902
285.4212, 1515.348
285.9033, 1529.249
286.3854, 1552.706
286.8676, 1576.474
287.3497, 1597.874
287.8318, 1622.128
288.3139, 1651.063
288.7960, 1684.911
289.2781, 1723.412
289.7603, 1766.251
290.2424, 1813.913
290.7245, 1868.060
291.2066, 1934.210
291.6887, 1999.593
292.1708, 2056.994
292.6530, 2114.499
293.1351, 2185.254
293.6172, 2273.542
294.0993, 2367.665
294.5814, 2444.924
295.0635, 2483.659
295.5457, 2548.072
296.0278, 2652.197
296.5099, 2769.276
296.9920, 2876.688
297.4741, 2974.565
297.9562, 3080.147
298.4384, 3212.904
298.9205, 3376.728
299.4026, 3543.366
299.8847, 3702.696
300.3668, 3874.590
300.8489, 4068.771
301.3311, 4281.934
301.8131, 4501.819
302.2953, 4717.069
302.7774, 4936.503
303.2595, 5207.100
303.7416, 5555.571
304.2237, 5920.202
304.7058, 6273.970
305.1880, 6640.844
305.6701, 7043.917
306.1522, 7491.466
306.6343, 7982.856
307.1164, 8513.586
307.5985, 9073.862
308.0807, 9703.053
308.5628, 10413.15
309.0449, 11193.76
309.5270, 12033.27
310.0091, 12935.52
310.4912, 13911.52
310.9734, 14975.54
311.4555, 16126.59
311.9376, 17332.89
312.4197, 18572.17
312.9018, 19898.48
313.3839, 21326.18
313.8661, 22856.20
314.3482, 24481.42
314.8303, 26215.78
315.3124, 28037.15
315.7945, 29912.23
316.2766, 31839.40
316.7588, 33812.88
317.2409, 35772.84
317.7230, 37785.76
318.2051, 39954.52
318.6872, 42295.38
319.1693, 44764.52
319.6515, 47327.47
320.1336, 49975.86
320.6157, 52720.97
321.0978, 55547.30
321.5799, 58472.89
322.0620, 61607.61
322.5442, 64960.34
323.0263, 68298.87
323.5084, 71609.23
323.9905, 74860.59
324.4726, 78046.76
324.9547, 81178.74
325.4369, 84176.06
325.9190, 87044.62
326.4011, 89779.50
326.8832, 91804.85
327.3653, 93103.66
327.8474, 93756.95
328.3296, 93811.20
328.8117, 93258.59
329.2938, 92048.09
329.7759, 90130.72
330.2580, 87558.61
330.7401, 84624.89
331.2223, 81262.41
331.7044, 77596.20
332.1865, 73361.73
332.6686, 68943.41
333.1507, 64723.43
333.6328, 60832.71
334.1150, 57169.52
334.5971, 53550.87
335.0792, 49926.81
335.5613, 46537.64
336.0434, 43363.71
336.5255, 40414.56
337.0077, 37730.89
337.4898, 35299.81
337.9719, 33062.81
338.4540, 30995.52
338.9361, 29093.89
339.4182, 27317.59
339.9004, 25666.69
340.3825, 24176.43
340.8646, 22863.91
341.3467, 21685.69
341.8288, 20599.70
342.3109, 19590.83
342.7931, 18643.24
343.2752, 17727.87
343.7573, 16837.51
344.2394, 16022.84
344.7215, 15316.23
345.2036, 14676.64
345.6858, 14071.85
346.1679, 13498.61
346.6500, 12953.64
347.1321, 12431.74
347.6142, 11936.88
348.0963, 11478.62
348.5785, 11060.50
349.0606, 10668.93
349.5427, 10293.18
350.0248, 9935.112
350.5069, 9606.835
350.9890, 9319.742
351.4712, 9054.388
351.9533, 8795.415
352.4354, 8543.089
352.9175, 8300.431
353.3996, 8070.791
353.8817, 7849.584
354.3639, 7621.745
354.8460, 7373.331
355.3281, 7149.179
355.8102, 6972.059
356.2923, 6819.020
356.7744, 6667.115
357.2566, 6510.379
357.7387, 6355.266
358.2208, 6209.127
358.7029, 6073.194
359.1850, 5938.347
359.6671, 5800.822
360.1493, 5668.374
360.6314, 5548.232
361.1135, 5435.762
361.5956, 5320.448
362.0777, 5194.958
362.5598, 5063.662
363.0420, 4941.509
363.5241, 4830.291
364.0062, 4726.476
364.4883, 4635.487
364.9704, 4547.188
365.4525, 4453.089
365.9347, 4351.778
366.4168, 4246.561
366.8989, 4138.500
367.3810, 4025.785
367.8631, 3927.649
368.3452, 3853.794
368.8274, 3784.150
369.3095, 3707.227
369.7916, 3625.861
370.2737, 3547.997
370.7558, 3479.738
371.2379, 3415.018
371.7201, 3343.240
372.2022, 3263.684
372.6843, 3185.167
373.1664, 3111.841
373.6485, 3041.890
374.1306, 2972.159
374.6128, 2902.299
375.0949, 2833.814
375.5770, 2768.250
376.0591, 2704.985
376.5412, 2643.373
377.0233, 2583.419
377.5055, 2523.937
377.9876, 2462.761
378.4697, 2399.772
378.9518, 2342.244
379.4339, 2295.323
379.9160, 2249.532
380.3982, 2200.133
380.8803, 2147.486
381.3624, 2092.993
381.8445, 2036.732
382.3266, 1981.489
382.8087, 1934.961
383.2909, 1908.864
383.7730, 1876.815
384.2551, 1835.045
384.7372, 1789.384
385.2193, 1740.971
385.7014, 1692.051
386.1836, 1649.452
386.6657, 1622.372
387.1478, 1612.073
387.6299, 1594.864
388.1120, 1563.192
388.5941, 1532.972
389.0763, 1514.333
389.5584, 1499.390
390.0405, 1473.845
390.5226, 1428.388
391.0047, 1378.509
391.4868, 1351.428
391.9690, 1350.179
392.4511, 1343.221
392.9332, 1316.042
393.4153, 1285.829
393.8974, 1270.823
394.3795, 1270.972
394.8617, 1269.244
395.3438, 1256.746
395.8259, 1237.281
396.3080, 1214.548
396.7901, 1188.441
397.2722, 1167.884
397.7544, 1162.406
398.2365, 1167.980
398.7186, 1162.618
399.2007, 1135.563
399.6828, 1109.956
400.1649, 1096.328
400.6471, 1089.687
401.1292, 1082.200
401.6113, 1071.247
402.0934, 1057.588
402.5755, 1041.679
403.0576, 1021.314
403.5398, 1005.951
404.0219, 1001.102
404.5040, 995.2835
404.9861, 979.1445
405.4682, 956.9125
405.9503, 940.0207
406.4325, 936.1108
406.9146, 941.8927
407.3967, 946.5703
407.8788, 952.2192
408.3609, 952.2032
408.8430, 943.3786
409.3252, 930.1509
409.8073, 914.5112
410.2894, 897.1721
410.7715, 880.7635
411.2536, 866.8481
411.7357, 855.5863
412.2179, 849.1725
412.7000, 849.7802
413.1821, 850.4095
413.6642, 845.4937
414.1463, 837.1846
414.6284, 829.5156
415.1106, 822.3691
415.5927, 817.0611
416.0748, 817.2103
416.5569, 820.3094
417.0390, 817.2792
417.5211, 803.8777
418.0033, 787.6104
418.4854, 780.2552
418.9675, 785.6741
419.4496, 787.0661
419.9317, 782.7535
420.4138, 775.1682
420.8960, 762.8083
421.3781, 748.1838
421.8602, 738.6981
422.3423, 739.8732
422.8244, 748.1714
423.3065, 747.9020
423.7887, 730.3115
424.2708, 717.7224
424.7529, 717.3210
425.2350, 719.0954
425.7171, 713.3811
426.1992, 699.6462
426.6814, 686.6255
427.1635, 683.9792
427.6456, 690.6445
428.1277, 694.4064
428.6098, 695.5425
429.0919, 693.1212
429.5741, 684.0701
430.0562, 671.9451
430.5383, 661.9222
431.0204, 655.3278
431.5025, 650.8139
431.9846, 648.3721
432.4668, 647.2756
432.9489, 644.5666
433.4310, 639.0688
433.9131, 633.2322
434.3952, 630.2475
434.8773, 630.5143
435.3595, 629.5763
435.8416, 625.8826
436.3237, 622.1170
436.8058, 619.6281
437.2879, 618.4176
437.7701, 618.7457
438.2522, 620.9592
438.7343, 623.3698
439.2164, 621.4637
439.6985, 611.8341
440.1806, 603.8803
440.6628, 597.0919
441.1449, 592.3114
441.6270, 590.5892
442.1091, 591.5020
442.5912, 593.6948
443.0733, 597.2355
443.5555, 600.8397
444.0376, 598.7083
444.5197, 588.5493
445.0018, 579.0555
445.4839, 572.8819
445.9660, 569.3637
446.4482, 568.0429
446.9303, 568.8668
447.4124, 571.9597
447.8945, 581.1406
448.3766, 591.9239
448.8587, 593.3794
449.3409, 583.5065
449.8230, 572.0679
450.3051, 565.9673
450.7872, 565.1137
451.2693, 566.4757
451.7514, 574.5712
452.2336, 579.4832
452.7157, 574.2688
453.1978, 565.2334
453.6799, 561.8830
454.1620, 566.7170
454.6441, 574.1485
455.1263, 576.6874
455.6084, 573.0128
456.0905, 571.9246
456.5726, 575.4565
457.0547, 579.6351
457.5368, 583.8538
458.0190, 587.8043
458.5011, 591.5949
458.9832, 595.5984
459.4653, 597.8649
459.9474, 593.3849
460.4295, 581.9905
460.9117, 577.1197
461.3938, 584.9918
461.8759, 595.1576
462.3580, 598.4725
462.8401, 595.9254
463.3222, 592.1558
463.8044, 584.7179
464.2865, 579.4700
464.7686, 585.0670
465.2507, 598.2991
465.7328, 605.7341
466.2149, 600.8531
466.6971, 589.6036
467.1792, 583.6337
467.6613, 586.5004
468.1434, 587.3517
468.6255, 584.8763
469.1076, 581.5707
469.5898, 580.4586
470.0719, 579.9954
470.5540, 575.2062
471.0361, 562.2461
471.5182, 544.7004
472.0003, 533.3213
472.4825, 530.8876
472.9646, 527.2431
473.4467, 517.5285
473.9288, 507.9358
474.4109, 503.2273
474.8930, 503.1824
475.3752, 503.0154
475.8573, 498.7094
476.3394, 493.0475
476.8215, 491.7615
477.3036, 495.0218
477.7857, 496.4213
478.2679, 491.5642
478.7500, 483.8132
479.2321, 482.0276
479.7142, 489.5978
480.1963, 493.7698
480.6784, 490.6999
481.1606, 484.1572
481.6427, 476.1560
482.1248, 467.7162
482.6069, 460.8450
483.0890, 456.9987
483.5711, 455.9596
484.0533, 456.7711
484.5354, 462.5761
485.0175, 464.9189
485.4996, 460.6105
485.9817, 454.2354
486.4638, 448.5565
486.9460, 444.2728
487.4281, 442.1056
487.9102, 443.5110
488.3923, 447.4201
488.8744, 450.8247
489.3565, 453.7779
489.8387, 455.8054
490.3208, 456.9915
490.8029, 456.8033
491.2850, 454.1532
491.7671, 447.9200
492.2492, 442.4959
492.7314, 439.4389
493.2135, 437.9560
493.6956, 437.9277
494.1777, 438.9291
494.6598, 438.9151
495.1419, 436.0457
495.6241, 431.0149
496.1062, 428.2489
496.5883, 428.4767
497.0704, 430.1773
497.5525, 434.3321
498.0346, 439.0439
498.5168, 443.1939
498.9989, 446.4086
499.4810, 448.2153
499.9631, 447.2360
500.4452, 444.5730
500.9273, 445.2555
501.4095, 450.5939
501.8916, 453.5451
502.3737, 448.8212
502.8558, 441.2227
503.3379, 438.4172
503.8200, 441.4113
504.3022, 445.5453
504.7843, 450.2857
505.2664, 454.5612
505.7485, 457.1615
506.2306, 457.9940
506.7127, 456.9859
507.1949, 453.6296
507.6770, 449.0396
508.1591, 448.2174
508.6412, 455.6970
509.1233, 460.3367
509.6054, 459.0853
510.0876, 456.8210
510.5697, 457.4789
511.0518, 460.8263
511.5339, 463.6726
512.0161, 463.1628
512.4982, 460.8659
512.9803, 461.6500
513.4624, 466.2310
513.9445, 469.3571
514.4266, 467.8201
514.9088, 465.1471
515.3909, 466.1849
515.8730, 471.2206
516.3551, 476.0147
516.8372, 479.3929
517.3193, 481.9012
517.8015, 483.9389
518.2836, 485.5708
518.7657, 486.6921
519.2478, 487.1104
519.7299, 487.5818
520.2120, 489.9449
520.6942, 495.0141
521.1763, 500.5205
521.6584, 507.5316
522.1405, 513.9240
522.6226, 517.3730
523.1047, 519.2827
523.5869, 523.3382
524.0690, 532.0664
524.5511, 542.6277
525.0332, 550.0610
525.5153, 554.3914
525.9974, 560.2443
526.4796, 570.6664
526.9617, 579.7402
527.4438, 577.2559
527.9259, 565.1547
528.4080, 562.5188
528.8901, 581.4182
529.3723, 601.2031
529.8544, 607.7243
530.3365, 606.6933
530.8186, 609.2072
531.3007, 619.1306
531.7828, 633.9289
532.2650, 651.1375
532.7471, 672.1922
533.2292, 687.0081
533.7113, 690.5448
534.1934, 693.4273
534.6755, 698.6107
535.1577, 705.1626
535.6398, 711.3088
536.1219, 716.3801
536.6040, 722.8324
537.0861, 733.0194
537.5682, 746.4052
538.0504, 761.8482
538.5325, 779.4448
539.0146, 796.5791
539.4967, 810.4501
539.9788, 822.2840
540.4609, 837.8104
540.9431, 858.3257
541.4252, 880.4732
541.9073, 904.3140
542.3894, 928.9822
542.8715, 952.1769
543.3536, 974.8644
543.8358, 1002.003
544.3179, 1038.281
544.8000, 1081.532
545.2821, 1120.367
545.7642, 1148.451
546.2463, 1189.413
546.7285, 1257.088
547.2106, 1334.298
547.6927, 1404.578
548.1748, 1469.138
548.6569, 1549.285
549.1390, 1656.393
549.6211, 1781.620
550.1032, 1912.518
550.5853, 2051.977
551.0674, 2210.563
551.5496, 2394.352
552.0317, 2598.669
552.5138, 2817.969
552.9959, 3057.931
553.4780, 3296.628
553.9601, 3524.531
554.4423, 3762.585
554.9244, 4017.325
555.4065, 4288.498
555.8886, 4572.564
556.3707, 4869.268
556.8528, 5184.942
557.3350, 5522.686
557.8171, 5884.481
558.2992, 6289.968
558.7813, 6747.298
559.2634, 7227.764
559.7455, 7706.479
560.2277, 8197.792
560.7098, 8737.018
561.1919, 9362.315
561.6740, 9971.723
562.1561, 10536.21
562.6382, 11066.99
563.1204, 11609.99
563.6025, 12146.28
564.0846, 12594.35
564.5667, 12909.16
565.0488, 13071.87
565.5309, 13015.13
566.0131, 12726.10
566.4952, 12250.52
566.9773, 11495.56
567.4594, 10625.56
567.9415, 9701.487
568.4236, 8741.881
568.9058, 7799.240
569.3879, 6850.838
569.8700, 5963.862
570.3521, 5197.716
570.8342, 4544.026
571.3163, 3979.758
571.7985, 3499.639
572.2806, 3090.009
572.7627, 2739.493
573.2448, 2448.805
573.7269, 2201.582
574.2090, 2012.907
574.6912, 1844.070
575.1733, 1686.640
575.6554, 1543.618
576.1375, 1420.145
576.6196, 1316.514
577.1017, 1225.130
577.5839, 1139.420
578.0660, 1060.278
578.5481, 991.5829
579.0302, 934.0572
579.5123, 881.8339
579.9944, 832.2976
580.4766, 786.7616
580.9587, 749.1770
581.4408, 720.6587
581.9229, 692.9608
582.4050, 663.6952
582.8871, 636.3667
583.3693, 614.9050
583.8514, 597.1545
584.3335, 577.0556
584.8156, 551.9424
585.2977, 526.6810
585.7798, 510.3133
586.2620, 503.9998
586.7441, 492.7565
587.2262, 471.7270
587.7083, 452.3820
588.1904, 444.3422
588.6725, 441.4188
589.1547, 433.1153
589.6368, 415.8613
590.1189, 398.8831
590.6010, 384.1505
591.0831, 373.4960
591.5652, 372.3883
592.0474, 379.1176
592.5295, 382.8803
593.0116, 376.1112
593.4937, 362.4897
593.9758, 353.3920
594.4579, 350.8811
594.9401, 348.0906
595.4222, 344.6435
595.9043, 340.6571
596.3864, 335.1666
596.8685, 329.2107
597.3506, 325.6268
597.8328, 326.8674
598.3149, 328.0716
598.7970, 323.3919
599.2791, 315.3633
599.7612, 310.7044
600.2433, 310.6995
600.7255, 312.4302
601.2076, 313.4632
601.6897, 314.0193
602.1718, 315.9503
602.6539, 322.7530
603.1360, 326.0405
603.6182, 322.5860
604.1003, 317.5077
604.5824, 313.9242
605.0645, 312.2688
605.5466, 312.2858
606.0287, 314.5709
606.5109, 317.4260
606.9930, 317.7168
607.4751, 315.8915
607.9572, 315.7992
608.4393, 318.7647
608.9214, 322.2191
609.4036, 323.4876
609.8857, 322.5585
610.3678, 322.4171
610.8499, 324.3105
611.3320, 325.3394
611.8141, 323.4200
612.2963, 321.2039
612.7784, 322.7325
613.2605, 327.4353
613.7426, 329.4784
614.2247, 322.3611
614.7068, 311.1984
615.1890, 310.1461
615.6711, 319.7601
616.1532, 326.8462
616.6353, 327.0863
617.1174, 324.3790
617.5995, 322.6708
618.0817, 321.9836
618.5638, 321.4821
619.0459, 321.6706
619.5280, 321.4234
620.0101, 319.8740
620.4922, 317.8572
620.9744, 316.6078
621.4565, 316.2336
621.9386, 315.6171
622.4207, 313.6049
622.9028, 310.6086
623.3849, 308.2098
623.8671, 306.4221
624.3492, 305.4023
624.8313, 306.5513
625.3134, 306.9451
625.7955, 301.2248
626.2776, 289.8163
626.7598, 283.2844
627.2419, 287.7625
627.7240, 292.3969
628.2061, 291.1102
628.6882, 286.7742
629.1703, 283.3451
629.6525, 281.9556
630.1346, 282.3220
630.6167, 285.0726
631.0988, 289.2005
631.5809, 288.3962
632.0630, 281.1169
632.5452, 274.8121
633.0273, 271.0553
633.5094, 269.8975
633.9915, 273.6844
634.4736, 281.9460
634.9557, 283.5864
635.4379, 269.1518
635.9200, 255.1727
636.4021, 251.7303
636.8842, 254.5323
637.3663, 257.4404
637.8484, 258.5684
638.3306, 257.8318
638.8127, 254.6535
639.2948, 249.6193
639.7769, 246.3912
640.2590, 245.1794
640.7411, 245.0686
641.2233, 246.5517
641.7054, 248.3286
642.1875, 249.2045
642.6696, 249.2071
643.1517, 248.5095
643.6339, 247.4873
644.1160, 245.4110
644.5981, 240.9000
645.0802, 235.4599
645.5623, 230.9864
646.0444, 228.0780
646.5266, 227.1298
647.0087, 229.0155
647.4908, 232.8765
647.9729, 234.7023
648.4550, 234.3195
648.9371, 232.2258
649.4193, 225.9710
649.9014, 220.8702
650.3835, 224.4884
650.8656, 235.0668
651.3477, 239.8328
651.8298, 231.1812
652.3120, 222.5142
652.7941, 220.0709
653.2762, 221.3611
653.7583, 224.2945
654.2404, 227.7019
654.7225, 228.9788
655.2047, 225.6039
655.6868, 219.0642
656.1689, 214.3744
656.6510, 211.8579
657.1331, 209.0310
657.6152, 204.5117
658.0974, 200.8174
658.5795, 201.4631
659.0616, 205.2417
659.5437, 206.6703
660.0258, 204.0010
660.5079, 200.4855
660.9901, 196.9491
661.4722, 193.2872
661.9543, 188.6027
662.4364, 183.4759
662.9185, 180.4402
663.4006, 181.6642
663.8828, 184.6132
664.3649, 183.2445
664.8470, 177.3802
665.3291, 173.4225
665.8112, 173.4119
666.2933, 172.7485
666.7755, 166.4625
667.2576, 156.6765
667.7397, 152.6279
668.2218, 159.4328
668.7039, 163.6221
669.1860, 159.5907
669.6682, 154.4767
670.1503, 154.6461
670.6324, 158.7164
671.1145, 161.4295
671.5966, 160.1424
672.0787, 156.8203
672.5609, 154.1886
673.0430, 152.0372
673.5251, 148.4520
674.0072, 142.8067
674.4893, 138.2231
674.9714, 136.3692
675.4536, 136.9710
675.9357, 139.6275
676.4178, 146.4865
676.8999, 150.6852
677.3820, 150.6232
677.8641, 149.3183
678.3463, 148.1188
678.8284, 146.8378
679.3105, 144.3227
679.7926, 140.2186
680.2747, 137.5635
680.7568, 140.8995
681.2390, 147.4085
681.7211, 150.3927
682.2032, 149.6627
682.6853, 146.8640
683.1674, 142.0170
683.6495, 137.7483
684.1317, 138.7184
684.6138, 146.6740
685.0959, 150.5803
685.5780, 147.2309
686.0601, 143.6663
686.5422, 141.6681
687.0244, 140.2072
687.5065, 137.5860
687.9886, 133.8530
688.4707, 131.7750
688.9528, 134.3353
689.4349, 138.2647
689.9171, 139.9288
690.3992, 139.8548
690.8813, 139.6027
691.3634, 139.6064
691.8455, 139.5340
692.3276, 138.9372
692.8098, 137.9762
693.2919, 138.3084
693.7740, 141.2179
694.2561, 142.5499
694.7382, 140.0044
695.2203, 137.0161
695.7025, 136.5060
696.1846, 137.6417
696.6667, 137.0208
697.1488, 131.5337
697.6309, 127.5320
698.1130, 130.3733
698.5952, 135.4978
699.0773, 136.8869
699.5594, 134.5242
700.0415, 132.1035
700.5236, 131.8857
701.0057, 132.9880
701.4879, 133.5222
701.9700, 133.4271
702.4521, 134.3125
702.9342, 137.0185
703.4163, 138.8725
703.8984, 137.7563
704.3806, 134.9157
704.8627, 133.1506
705.3448, 132.0905
705.8269, 133.0314
706.3090, 138.6247
706.7911, 143.8030
707.2733, 145.0944
707.7554, 144.0241
708.2375, 143.5779
708.7196, 144.6122
709.2017, 145.1881
709.6838, 142.3889
710.1660, 137.9959
710.6481, 136.9554
711.1302, 139.1383
711.6123, 141.3454
712.0944, 142.5834
712.5765, 142.7824
713.0587, 141.5668
713.5408, 138.7999
714.0229, 137.5655
714.5050, 139.4946
714.9871, 140.7473
715.4692, 140.1838
715.9514, 139.1577
716.4335, 139.0688
716.9156, 139.6367
717.3977, 139.1158
717.8798, 135.5763
718.3619, 132.4874
718.8441, 133.8660
719.3262, 137.0823
719.8083, 137.3855
720.2904, 134.4401
720.7725, 131.0044
721.2546, 128.8992
721.7368, 127.6625
722.2189, 126.0811
722.7010, 123.9838
723.1831, 122.6373
723.6652, 121.7990
724.1473, 122.4383
724.6295, 126.3137
725.1116, 131.5682
725.5937, 134.4276
726.0758, 134.3959
726.5579, 133.5860
727.0400, 130.9693
727.5222, 129.1080
728.0043, 130.3197
728.4864, 133.0224
728.9685, 134.7281
729.4506, 134.7378
729.9327, 133.8193
730.4149, 131.8132
730.8970, 129.7157
731.3791, 130.4380
731.8612, 133.6086
732.3433, 135.6328
732.8254, 135.4092
733.3076, 134.1372
733.7897, 132.9153
734.2718, 131.7631
734.7539, 130.8353
735.2360, 129.4758
735.7181, 129.4681
736.2003, 133.8452
736.6824, 136.9683
737.1645, 133.0197
737.6466, 125.0889
738.1287, 122.2252
738.6108, 129.1405
739.0930, 135.7471
739.5751, 135.8954
740.0572, 133.0275
740.5393, 130.7035
741.0214, 129.1199
741.5035, 126.9065
741.9857, 123.4214
742.4678, 120.8987
742.9499, 124.0521
743.4320, 132.1705
743.9141, 134.4554
744.3962, 129.5392
744.8784, 125.7883
745.3605, 126.9902
745.8426, 130.0307
746.3247, 130.8755
746.8068, 129.3551
747.2889, 127.0076
747.7711, 120.8965
748.2532, 117.7664
748.7353, 122.6935
749.2174, 128.6529
749.6995, 128.6155
750.1816, 123.3460
750.6638, 118.7610
751.1459, 117.5137
751.6280, 118.1938
752.1101, 120.7792
752.5922, 123.9184
753.0743, 124.8980
753.5565, 123.5802
754.0386, 121.2110
754.5207, 118.3680
755.0028, 116.0205
755.4849, 116.6605
755.9670, 120.8360
756.4492, 122.5621
756.9313, 120.6545
757.4134, 119.0691
757.8955, 120.0933
758.3776, 121.9454
758.8597, 121.5953
759.3419, 118.7766
759.8240, 116.9649
760.3061, 116.3777
760.7882, 116.9121
761.2703, 119.8801
761.7524, 123.0655
762.2346, 123.9844
762.7167, 122.6371
763.1988, 120.8352
763.6809, 119.3969
764.1630, 118.3239
764.6451, 117.7804
765.1273, 117.5705
765.6094, 116.9017
766.0915, 115.8125
766.5736, 115.7878
767.0557, 117.8619
767.5378, 121.0168
768.0200, 123.2770
768.5021, 124.7741
768.9842, 124.1636
769.4663, 119.7606
769.9484, 116.8684
770.4305, 118.9416
770.9127, 123.0044
771.3948, 124.3505
771.8769, 122.6395
772.3590, 122.7792
772.8411, 128.9049
773.3232, 132.6718
773.8054, 128.8423
774.2875, 122.3767
774.7696, 117.8148
775.2517, 115.9576
775.7338, 116.4111
776.2159, 119.7239
776.6981, 123.6283
777.1802, 125.8077
777.6623, 126.5833
778.1444, 126.8106
778.6265, 126.5068
779.1086, 124.4871
779.5908, 119.8600
780.0729, 114.8344
780.5550, 113.7812
781.0371, 117.1272
781.5192, 120.3555
782.0013, 123.6970
782.4835, 126.4148
782.9656, 128.8856
783.4477, 129.9581
783.9298, 127.1665
784.4119, 120.3762
784.8940, 116.1720
785.3762, 115.0539
785.8583, 116.2827
786.3404, 122.7643
786.8225, 129.0611
787.3046, 129.6554
787.7867, 125.7642
788.2689, 122.8318
788.7510, 123.4203
789.2331, 124.6120
789.7152, 123.7241
790.1973, 121.9493
790.6794, 121.3650
791.1616, 121.7953
791.6437, 121.7028
792.1258, 120.4210
792.6079, 118.7081
793.0900, 117.5759
793.5721, 116.9613
794.0543, 115.7787
794.5364, 113.5410
795.0185, 114.4391
795.5006, 121.5897
795.9827, 128.0079
796.4648, 125.4629
796.9470, 115.2380
797.4291, 111.2426
797.9112, 120.3875
798.3933, 125.9075
798.8754, 124.7741
799.3575, 122.1213
799.8397, 120.2474
800.3218, 119.1669
800.8039, 118.3228
801.2860, 117.4368
801.7681, 117.9147
802.2502, 123.3342
802.7324, 127.8881
803.2145, 124.1976
803.6966, 116.3219
804.1787, 112.7391
804.6608, 115.1750
805.1429, 118.2938
805.6251, 117.1933
806.1072, 114.3682
806.5893, 116.6238
807.0714, 122.8291
807.5535, 123.1969
808.0356, 115.6700
808.5178, 108.8103
808.9999, 108.2822
809.4820, 112.2577
809.9641, 116.7127
810.4462, 123.0603
810.9283, 124.4186
811.4105, 117.0610
811.8926, 110.7776
812.3747, 109.5519
812.8568, 111.1825
813.3389, 114.2371
813.8210, 118.6353
814.3032, 120.1409
814.7853, 113.8518
815.2674, 110.0240
815.7495, 115.0398
816.2316, 121.7732
816.7137, 123.5943
817.1959, 121.1320
817.6780, 118.6232
818.1601, 117.9342
818.6422, 117.1218
819.1243, 112.2733
819.6064, 107.4965
820.0886, 111.3526
820.5707, 121.3867
821.0528, 127.4136
821.5349, 125.9167
822.0170, 121.4793
822.4991, 118.7569
822.9813, 117.5281
823.4634, 116.9496
823.9455, 117.0412
824.4276, 117.4477
824.9097, 118.3094
825.3918, 118.5312
825.8740, 116.9456
826.3561, 114.3438
826.8382, 113.4486
827.3203, 115.0018
827.8024, 116.5656
828.2845, 118.6171
828.7667, 120.0796
829.2488, 121.3760
829.7309, 121.4234
830.2130, 117.6939
830.6951, 110.1467
831.1772, 105.8751
831.6594, 108.1899
832.1415, 112.1312
832.6236, 117.9863
833.1057, 122.6466
833.5878, 121.2419
834.0699, 115.7411
834.5521, 113.5466
835.0342, 118.5857
835.5163, 124.0975
835.9984, 123.1332
836.4805, 118.9423
836.9626, 116.4433
837.4448, 115.6859
837.9269, 115.7926
838.4090, 116.3907
838.8911, 116.6527
839.3732, 115.4891
839.8553, 113.4780
840.3375, 113.2068
840.8196, 114.7417
841.3017, 113.9699
841.7838, 109.4425
842.2659, 106.3452
842.7480, 108.8177
843.2302, 114.3170
843.7123, 116.3407
844.1944, 113.7524
844.6765, 111.4034
845.1586, 108.5725
845.6407, 107.0591
846.1229, 108.8765
846.6050, 111.3158
847.0871, 111.6333
847.5692, 109.9437
848.0513, 108.2753
848.5334, 105.9354
849.0156, 104.9515
849.4977, 107.5584
849.9798, 110.2194
850.4619, 109.7860
850.9440, 107.3130
851.4261, 105.4853
851.9083, 105.1410
852.3904, 105.0851
852.8725, 104.2759
853.3546, 103.5712
853.8367, 104.0257
854.3188, 105.2440
854.8010, 106.8105
855.2831, 108.3569
855.7652, 108.5434
856.2473, 106.0626
856.7294, 102.6185
857.2115, 101.0311
857.6937, 101.1062
858.1758, 102.5537
858.6579, 105.2367
859.1400, 106.4777
859.6221, 104.8708
860.1042, 102.4481
860.5864, 102.2249
861.0685, 104.0946
861.5506, 105.1196
862.0327, 105.3452
862.5148, 104.3625
862.9969, 101.3142
863.4791, 98.50008
863.9612, 97.82994
864.4433, 98.79079
864.9254, 99.55225
865.4075, 100.0676
865.8896, 100.4832
866.3718, 101.3601
866.8539, 101.4764
867.3360, 99.14523
867.8181, 96.63165
868.3002, 97.35558
868.7823, 101.1189
869.2645, 102.5543
869.7466, 97.78269
870.2287, 93.70794
870.7108, 93.53675
871.1929, 94.71407
871.6750, 95.40852
872.1572, 95.44232
872.6393, 94.63194
873.1214, 92.83447
873.6035, 92.21640
874.0856, 96.60114
874.5677, 101.1125
875.0499, 98.91715
875.5320, 92.98094
876.0141, 89.77898
876.4962, 90.30901
876.9783, 91.42416
877.4604, 90.98988
877.9426, 90.06761
878.4247, 90.89423
878.9068, 92.69100
879.3889, 91.87742
879.8710, 88.53423
880.3531, 86.89738
880.8353, 88.80750
881.3174, 90.97920
881.7995, 89.19452
882.2816, 84.32544
882.7637, 82.11015
883.2458, 82.94640
883.7280, 83.25428
884.2101, 81.84710
884.6922, 82.13531
885.1743, 87.41107
885.6564, 94.51875
886.1385, 96.12694
886.6207, 90.30798
887.1028, 87.81785
887.5849, 91.60674
888.0670, 93.95940
888.5491, 91.86279
889.0313, 88.41465
889.5134, 85.39383
889.9955, 83.16190
890.4776, 83.44067
890.9597, 88.27876
891.4418, 92.11795
891.9240, 93.94038
892.4061, 94.89242
892.8882, 95.56094
893.3703, 95.75518
893.8524, 95.06552
894.3345, 93.48714
894.8167, 91.64227
895.2988, 88.36429
895.7809, 86.61200
896.2630, 89.92355
896.7451, 94.05332
897.2272, 93.71404
897.7094, 90.39335
898.1915, 89.32308
898.6736, 92.39329
899.1557, 95.22940
899.6378, 93.08585
900.1199, 89.76888
900.6021, 90.59035
901.0842, 93.72311
901.5663, 95.21590
902.0484, 94.45745
902.5305, 92.86375
903.0126, 91.25035
903.4948, 89.66636
903.9769, 87.83161
904.4590, 86.14271
904.9411, 86.31310
905.4232, 88.10661
905.9053, 89.05589
906.3875, 88.37078
906.8696, 88.06442
907.3517, 90.20938
907.8338, 93.99833
908.3159, 97.58986
908.7980, 101.0103
909.2802, 99.36234
909.7623, 91.14966
910.2444, 85.67365
910.7265, 88.02956
911.2086, 93.62392
911.6907, 96.07484
912.1729, 95.39445
912.6550, 92.96529
913.1371, 87.30079
913.6192, 84.79020
914.1013, 87.80932
914.5834, 91.89661
915.0656, 95.21821
915.5477, 96.87498
916.0298, 94.11845
916.5119, 84.40794
916.9940, 79.86993
917.4761, 84.08290
917.9583, 88.41121
918.4404, 91.59151
918.9225, 93.53212
919.4046, 94.20627
919.8867, 93.58474
920.3688, 91.36369
920.8510, 86.00946
921.3331, 82.41566
921.8152, 81.28284
922.2973, 82.05009
922.7794, 85.62907
923.2615, 90.20558
923.7437, 94.79294
924.2258, 98.69614
924.7079, 98.76863
925.1900, 90.91703
925.6721, 84.31068
926.1542, 82.55604
926.6364, 83.63615
927.1185, 88.05733
927.6006, 93.30183
928.0827, 94.96069
928.5648, 92.37620
929.0469, 90.12718
929.5291, 91.93589
930.0112, 93.65308
930.4933, 90.99212
930.9754, 87.25414
931.4575, 86.73114
931.9396, 88.92472
932.4218, 91.25254
932.9039, 92.77027
933.3860, 93.90843
933.8681, 95.09087
934.3502, 96.05582
934.8323, 96.83219
935.3145, 96.99812
935.7966, 94.98870
936.2787, 91.25240
936.7608, 88.59608
937.2429, 88.54028
937.7250, 89.68159
938.2072, 90.44074
938.6893, 91.07140
939.1714, 92.32141
939.6535, 93.99362
940.1356, 95.56651
940.6177, 96.79976
941.0999, 96.50231
941.5820, 93.57807
942.0641, 90.02650
942.5462, 89.73019
943.0283, 92.07261
943.5104, 94.32451
943.9926, 96.25431
944.4747, 96.20486
944.9568, 93.62072
945.4389, 90.44739
945.9210, 88.12907
946.4031, 87.24440
946.8853, 90.89175
947.3674, 99.02262
947.8495, 100.4778
948.3316, 93.86995
948.8137, 88.48586
949.2958, 87.87588
949.7780, 90.16346
950.2601, 93.93177
950.7422, 98.32720
951.2243, 98.27026
951.7064, 92.90945
952.1885, 88.25978
952.6707, 84.29815
953.1528, 83.79115
953.6349, 89.35476
954.1170, 96.16300
954.5991, 97.28736
955.0812, 93.09606
955.5634, 92.04186
956.0455, 95.18444
956.5276, 98.40771
957.0097, 102.0773
957.4918, 103.8472
957.9739, 101.1831
958.4561, 97.28753
958.9382, 97.79775
959.4203, 103.1931
959.9024, 106.1523
960.3845, 105.8267
960.8666, 104.7063
961.3488, 102.5184
961.8309, 100.4549
962.3130, 98.79749
962.7951, 97.99194
963.2772, 99.23031
963.7593, 103.1447
964.2415, 105.7143
964.7236, 105.9777
965.2057, 106.2941
965.6878, 107.4952
966.1699, 108.4429
966.6520, 108.2578
967.1342, 107.3214
967.6163, 106.4477
968.0984, 105.5976
968.5805, 105.0487
969.0626, 104.5096
969.5447, 104.6777
970.0269, 105.8141
970.5090, 107.6410
970.9911, 110.4790
971.4732, 113.7684
971.9553, 116.1068
972.4374, 117.3386
972.9196, 117.7192
973.4017, 116.1512
973.8838, 115.1923
974.3659, 115.6716
974.8480, 117.1971
975.3301, 120.0826
975.8123, 123.6692
976.2944, 126.0539
976.7765, 126.7742
977.2586, 126.8376
977.7407, 126.2230
978.2228, 125.2871
978.7050, 123.4721
979.1871, 121.9663
979.6692, 121.9537
980.1513, 123.2918
980.6334, 125.4748
981.1155, 129.3658
981.5977, 131.0148
982.0798, 125.0936
982.5619, 121.5097
983.0440, 128.5853
983.5261, 138.2829
984.0082, 140.6597
984.4904, 137.1248
984.9725, 137.0124
985.4546, 145.1624
985.9367, 149.6926
986.4188, 142.2679
986.9009, 134.6108
987.3831, 133.5110
987.8652, 136.0359
988.3473, 139.3181
988.8294, 142.6273
989.3115, 145.3134
989.7936, 147.3916
990.2758, 148.2011
990.7579, 146.2818
991.2400, 144.2942
991.7221, 143.7689
992.2042, 144.2842
992.6863, 145.6338
993.1685, 147.4487
993.6506, 148.6291
994.1327, 148.6702
994.6148, 148.4473
995.0969, 148.1281
995.5790, 147.9120
996.0612, 147.8165
996.5433, 147.9815
997.0254, 149.3046
997.5075, 151.1687
997.9896, 150.6952
998.4717, 145.8964
998.9539, 141.7326
999.4360, 140.1426
999.9181, 140.3394
1000.400, 143.0908
1000.882, 146.4644
1001.364, 148.2121
1001.847, 148.2422
1002.329, 147.4656
1002.811, 145.7918
1003.293, 144.6182
1003.775, 145.6367
1004.257, 146.2542
1004.739, 142.7960
1005.221, 139.1184
1005.703, 142.2239
1006.186, 150.1502
1006.668, 152.4302
1007.150, 143.6035
1007.632, 135.5212
1008.114, 134.1101
1008.596, 134.6413
1009.078, 135.0188
1009.560, 134.9189
1010.043, 133.7634
1010.525, 131.9487
1011.007, 131.1865
1011.489, 132.6745
1011.971, 132.6991
1012.453, 127.0574
1012.935, 122.4400
1013.417, 124.6690
1013.899, 128.8751
1014.382, 129.2878
1014.864, 126.4393
1015.346, 124.4021
1015.828, 124.6327
1016.310, 124.2254
1016.792, 121.5190
1017.274, 118.5285
1017.756, 115.1014
1018.239, 112.9182
1018.721, 114.7614
1019.203, 119.2234
1019.685, 121.9226
1020.167, 121.6563
1020.649, 120.6089
1021.131, 119.0802
1021.613, 117.4335
1022.095, 115.1838
1022.578, 113.4377
1023.060, 113.9214
1023.542, 115.6056
1024.024, 115.7869
1024.506, 113.8201
1024.988, 111.3642
1025.470, 107.8140
1025.952, 105.2096
1026.435, 103.8790
1026.917, 104.2144
1027.399, 108.7304
1027.881, 114.4877
1028.363, 114.7459
1028.845, 107.8250
1029.327, 102.5646
1029.809, 101.1464
1030.292, 100.7688
1030.774, 101.6096
1031.256, 102.3153
1031.738, 102.0219
1032.220, 100.9515
1032.702, 99.25644
1033.184, 96.83000
1033.666, 95.56704
1034.148, 96.64573
1034.630, 97.46024
1035.113, 97.96535
1035.595, 97.69713
1036.077, 95.60254
1036.559, 92.99484
1037.041, 92.29576
1037.523, 93.63290
1038.005, 92.92385
1038.487, 87.36978
1038.970, 84.25826
1039.452, 84.81137
1039.934, 86.88378
1040.416, 91.44178
1040.898, 95.40367
1041.380, 94.06474
1041.862, 88.14010
1042.344, 85.74423
1042.826, 89.27685
1043.309, 91.04075
1043.791, 89.91665
1044.273, 88.53826
1044.755, 87.19939
1045.237, 87.02076
1045.719, 89.81432
1046.201, 94.57258
1046.683, 96.48131
1047.166, 94.51537
1047.648, 93.40354
1048.130, 93.97162
1048.612, 92.66978
1049.094, 87.28267
1049.576, 82.76022
1050.058, 83.68527
1050.540, 88.05426
1051.022, 90.46401
1051.505, 90.71145
1051.987, 91.25651
1052.469, 92.45365
1052.951, 91.00451
1053.433, 85.32427
1053.915, 81.55975
1054.397, 84.17041
1054.879, 90.07016
1055.361, 93.96680
1055.844, 95.88069
1056.326, 95.77811
1056.808, 93.66735
1057.290, 91.79311
1057.772, 90.53091
1058.254, 90.45101
1058.736, 92.01671
1059.218, 92.89111
1059.701, 89.17818
1060.183, 82.96581
1060.665, 81.76649
1061.147, 84.68491
1061.629, 86.93793
1062.111, 88.06413
1062.593, 89.54941
1063.075, 91.93030
1063.557, 93.73777
1064.040, 93.37058
1064.522, 91.89907
1065.004, 91.56033
1065.486, 91.55910
1065.968, 89.25826
1066.450, 85.44880
1066.932, 83.41861
1067.414, 83.92921
1067.896, 85.40588
1068.379, 86.93830
1068.861, 88.38109
1069.343, 90.32522
1069.825, 91.50684
1070.307, 88.99322
1070.789, 84.80809
1071.271, 83.01664
1071.753, 83.96172
1072.236, 85.70967
1072.718, 87.57320
1073.200, 88.82327
1073.682, 88.86064
1074.164, 88.15427
1074.646, 85.72416
1075.128, 83.78127
1075.610, 85.83752
1076.093, 90.59126
1076.575, 94.20294
1077.057, 95.67563
1077.539, 95.73528
1078.021, 93.57068
1078.503, 91.53997
1078.985, 91.10461
1079.467, 90.82533
1079.949, 88.20210
1080.432, 85.62256
1080.914, 87.96391
1081.396, 95.40176
1081.878, 100.6840
1082.360, 103.0715
1082.842, 102.3918
1083.324, 94.47343
1083.806, 88.43769
1084.288, 90.63979
1084.771, 95.10764
1085.253, 94.94997
1085.735, 91.24047
1086.217, 89.29977
1086.699, 89.17632
1087.181, 90.96799
1087.663, 97.07081
1088.145, 100.0301
1088.628, 96.63102
1089.110, 91.86937
1089.592, 88.78239
1090.074, 87.54690
1090.556, 88.78747
1091.038, 92.60375
1091.520, 96.26101
1092.002, 100.0844
1092.484, 101.1735
1092.967, 98.69377
1093.449, 95.72987
1093.931, 93.65777
1094.413, 92.73831
1094.895, 93.25979
1095.377, 95.22556
1095.859, 99.70816
1096.341, 106.0132
1096.823, 108.5145
1097.306, 106.9492
1097.788, 102.9653
1098.270, 97.35509
1098.752, 93.04332
1099.234, 92.33839
1099.716, 94.33471
1100.198, 99.44588
1100.680, 105.2796
1101.163, 106.4495
1101.645, 104.2764
1102.127, 102.1864
1102.609, 100.9065
1103.091, 100.0378
1103.573, 99.41665
1104.055, 98.95700
1104.537, 98.08171
1105.020, 97.88101
1105.502, 100.7248
1105.984, 103.7877
1106.466, 102.9991
1106.948, 99.74619
1107.430, 98.06024
1107.912, 98.65475
1108.394, 97.92149
1108.876, 91.12608
1109.359, 87.69408
1109.841, 94.30924
1110.323, 101.7826
1110.805, 104.9319
1111.287, 105.4460
1111.769, 105.5068
1112.251, 105.1576
1112.733, 103.5268
1113.215, 99.15463
1113.698, 96.97032
1114.180, 97.51530
1114.662, 99.69513
1115.144, 104.9986
1115.626, 109.4590
1116.108, 110.3892
1116.590, 108.7457
1117.072, 105.9471
1117.555, 101.9778
1118.037, 99.60902
1118.519, 98.88219
1119.001, 99.70250
1119.483, 102.2444
1119.965, 105.4148
1120.447, 108.9924
1120.929, 111.2608
1121.411, 110.0940
1121.894, 107.1635
1122.376, 107.3032
1122.858, 109.6687
1123.340, 109.2915
1123.822, 106.6827
1124.304, 106.2295
1124.786, 108.5365
1125.268, 109.8909
1125.750, 108.1515
1126.233, 105.2620
1126.715, 102.1362
1127.197, 100.2680
1127.679, 103.5835
1128.161, 108.4511
1128.643, 108.5501
1129.125, 105.0408
1129.607, 102.3388
1130.090, 101.6860
1130.572, 102.4111
1131.054, 105.3708
1131.536, 107.4918
1132.018, 107.0233
1132.500, 105.3565
1132.982, 102.4229
1133.464, 99.57928
1133.947, 98.52288
1134.429, 98.96628
1134.911, 99.40100
1135.393, 99.92751
1135.875, 99.48306
1136.357, 95.50964
1136.839, 94.42676
1137.321, 100.3065
1137.803, 104.9172
1138.286, 103.2301
1138.768, 97.84846
1139.250, 91.43410
1139.732, 84.79538
1140.214, 87.09035
1140.696, 100.4799
1141.178, 105.0667
1141.660, 98.68964
1142.142, 93.52536
1142.625, 93.47281
1143.107, 95.49191
1143.589, 97.44978
1144.071, 98.95590
1144.553, 98.61853
1145.035, 97.51713
1145.517, 100.7145
1145.999, 105.7018
1146.482, 102.8003
1146.964, 93.27190
1147.446, 88.13290
1147.928, 91.23251
1148.410, 94.75399
1148.892, 92.19196
1149.374, 88.96500
1149.856, 90.08942
1150.339, 92.68504
1150.821, 94.40561
1151.303, 95.32439
1151.785, 95.71441
1152.267, 95.74794
1152.749, 96.00906
1153.231, 97.06670
1153.713, 96.62355
1154.195, 91.88252
1154.677, 88.72793
1155.160, 90.37241
1155.642, 92.50878
1156.124, 91.59911
1156.606, 90.37066
1157.088, 93.95036
1157.570, 101.4352
1158.052, 101.1434
1158.534, 90.08795
1159.017, 85.72251
1159.499, 90.29775
1159.981, 92.76908
1160.463, 89.43420
1160.945, 87.27855
1161.427, 91.84215
1161.909, 98.05679
1162.391, 96.41007
1162.874, 89.77499
1163.356, 87.63020
1163.838, 88.91039
1164.320, 90.99630
1164.802, 93.10178
1165.284, 94.06037
1165.766, 93.52929
1166.248, 91.97235
1166.730, 89.11163
1167.213, 86.84865
1167.695, 87.95599
1168.177, 89.10700
1168.659, 86.31746
1169.141, 82.53345
1169.623, 81.79942
1170.105, 83.45965
1170.587, 84.45184
1171.069, 84.12633
1171.552, 84.09524
1172.034, 85.25045
1172.516, 85.75108
1172.998, 84.92893
1173.480, 83.93362
1173.962, 82.85335
1174.444, 82.44998
1174.926, 84.02364
1175.409, 86.52126
1175.891, 85.78322
1176.373, 81.39816
1176.855, 80.05027
1177.337, 81.82205
1177.819, 82.51997
1178.301, 81.39931
1178.783, 81.00759
1179.266, 82.59547
1179.748, 83.50366
1180.230, 80.23802
1180.712, 75.89499
1181.194, 75.65456
1181.676, 77.75183
1182.158, 79.75013
1182.640, 81.39852
1183.122, 82.72063
1183.604, 83.69485
1184.087, 84.20478
1184.569, 84.18481
1185.051, 83.86152
1185.533, 84.27029
1186.015, 83.12754
1186.497, 76.43432
1186.979, 71.08644
1187.461, 73.54937
1187.944, 79.18962
1188.426, 81.24124
1188.908, 80.28335
1189.390, 80.25572
1189.872, 82.13620
1190.354, 81.12138
1190.836, 76.27731
1191.318, 72.51332
1191.801, 70.80597
1192.283, 71.28830
1192.765, 74.27735
1193.247, 77.54708
1193.729, 77.87801
1194.211, 77.12077
1194.693, 81.81316
1195.175, 88.37759
1195.657, 85.30787
1196.140, 75.87477
1196.622, 71.11216
1197.104, 72.57010
1197.586, 75.43027
1198.068, 77.80463
1198.550, 78.87878
1199.032, 76.71340
1199.514, 74.95779
1199.996, 76.32887
1200.479, 78.26931
1200.961, 78.68111
1201.443, 78.39913
1201.925, 79.22099
1202.407, 80.83237
1202.889, 80.15808
1203.371, 75.15623
1203.853, 75.02151
1204.336, 82.49158
1204.818, 85.36115
1205.300, 80.02669
1205.782, 75.55229
1206.264, 77.09249
1206.746, 79.52100
1207.228, 76.13974
1207.710, 70.35825
1208.193, 71.75702
1208.675, 77.42966
1209.157, 79.09703
1209.639, 77.42213
1210.121, 75.03713
1210.603, 72.85510
1211.085, 72.14826
1211.567, 73.46400
1212.049, 73.79476
1212.531, 70.04517
1213.014, 66.50701
1213.496, 65.27384
1213.978, 65.23735
1214.460, 65.75053
1214.942, 66.93050
1215.424, 69.66493
1215.906, 73.19130
1216.388, 74.68481
1216.871, 73.72742
1217.353, 73.39765
1217.835, 74.08282
1218.317, 73.41550
1218.799, 70.68923
1219.281, 69.44235
1219.763, 71.22143
1220.245, 74.08231
1220.728, 76.63982
1221.210, 77.65765
1221.692, 73.58012
1222.174, 67.21574
1222.656, 63.42250
1223.138, 62.37706
1223.620, 65.34074
1224.102, 70.83717
1224.584, 74.98643
1225.067, 76.81299
1225.549, 78.21837
1226.031, 81.18702
1226.513, 81.48257
1226.995, 75.17455
1227.477, 69.15574
1227.959, 66.16878
1228.441, 64.90768
1228.923, 64.48785
1229.406, 64.94192
1229.888, 66.52299
##END=



