##NAMES=Montgomeryite
##RRUFFID=R080094
##IDEAL CHEMISTRY=Ca_4_MgAl_4_(PO_4_)_6_(OH)_4_&#183;12H_2_O
##LOCALITY=Tur√≥ de Montcada, Montcada i Reixac, Barcelona, Catalonia, Spain
##OWNER=RRUFF
##SOURCE=Joan Abella i Creus
##DESCRIPTION=Lime green clusters of flattened laths with poor crystallinity
##STATUS=The identification of this mineral has been confirmed by single-crystal X-ray diffraction.
##URL=rruff.info/R080094
92.52344, 167.1601
93.00555, 167.5033
93.48767, 167.6394
93.96979, 170.2530
94.45190, 172.7932
94.93402, 174.6185
95.41614, 173.7893
95.89825, 171.3533
96.38037, 168.8470
96.86249, 166.2944
97.34460, 163.8977
97.82672, 161.7788
98.30884, 159.9353
98.79095, 158.8204
99.27307, 157.8051
99.75519, 155.8465
100.2373, 152.6725
100.7194, 148.7038
101.2015, 145.5088
101.6837, 143.2131
102.1658, 141.3872
102.6479, 139.7003
103.1300, 138.1089
103.6121, 136.8066
104.0942, 136.1505
104.5764, 135.8466
105.0585, 135.5009
105.5406, 135.0102
106.0227, 134.3663
106.5048, 133.5434
106.9869, 132.4553
107.4691, 131.2015
107.9512, 129.8881
108.4333, 128.4769
108.9154, 126.8774
109.3975, 124.8565
109.8796, 122.2498
110.3618, 120.2657
110.8439, 119.3877
111.3260, 118.7014
111.8081, 117.8112
112.2902, 116.6795
112.7723, 115.5234
113.2544, 114.6609
113.7366, 114.3159
114.2187, 113.8728
114.7008, 113.2686
115.1829, 112.6045
115.6650, 112.0044
116.1471, 111.5120
116.6293, 111.0279
117.1114, 110.2784
117.5935, 109.0590
118.0756, 107.9927
118.5577, 107.2024
119.0398, 106.6687
119.5220, 106.3645
120.0041, 106.3520
120.4862, 106.5139
120.9683, 106.5615
121.4504, 106.4397
121.9325, 106.2969
122.4147, 106.2892
122.8968, 106.4337
123.3789, 106.4953
123.8610, 106.2596
124.3431, 105.9061
124.8252, 105.6043
125.3074, 105.4296
125.7895, 105.3049
126.2716, 105.0562
126.7537, 104.5992
127.2358, 104.1668
127.7179, 103.7719
128.2001, 103.4518
128.6822, 103.2602
129.1643, 103.2465
129.6464, 103.3959
130.1285, 103.5182
130.6107, 103.5789
131.0928, 103.6456
131.5749, 103.7145
132.0570, 103.8005
132.5391, 103.9294
133.0212, 104.1234
133.5034, 104.3896
133.9855, 104.7010
134.4676, 105.1314
134.9497, 105.5405
135.4318, 105.8177
135.9139, 105.9656
136.3960, 106.1000
136.8782, 106.3324
137.3603, 106.6678
137.8424, 107.1599
138.3245, 108.0232
138.8066, 108.9632
139.2887, 109.6108
139.7709, 109.8574
140.2530, 109.9093
140.7351, 109.9332
141.2172, 109.9263
141.6993, 110.0803
142.1814, 110.6705
142.6636, 111.5353
143.1457, 112.0502
143.6278, 111.8826
144.1099, 111.5295
144.5920, 111.4337
145.0741, 111.5996
145.5563, 111.8110
146.0384, 111.9091
146.5205, 111.8953
147.0026, 111.7604
147.4847, 111.3569
147.9668, 110.9219
148.4490, 110.5998
148.9311, 110.4167
149.4132, 110.2721
149.8953, 110.0077
150.3774, 109.5440
150.8595, 109.1130
151.3417, 108.4929
151.8238, 108.0297
152.3059, 108.0666
152.7880, 108.7179
153.2701, 109.7642
153.7522, 110.6476
154.2344, 111.4080
154.7165, 111.9087
155.1986, 111.9080
155.6807, 111.7083
156.1628, 111.7219
156.6449, 112.1727
157.1271, 112.9142
157.6092, 113.3359
158.0913, 113.2766
158.5734, 113.1556
159.0555, 113.1185
159.5376, 113.1140
160.0198, 112.9806
160.5019, 112.5732
160.9840, 112.0016
161.4661, 111.6829
161.9482, 111.9500
162.4303, 112.1170
162.9125, 111.6076
163.3946, 110.4508
163.8767, 109.3217
164.3588, 108.6644
164.8409, 108.2880
165.3230, 107.8661
165.8052, 107.3621
166.2873, 106.7787
166.7694, 106.1323
167.2515, 105.4274
167.7336, 104.6302
168.2157, 103.5550
168.6979, 102.4248
169.1800, 101.5085
169.6621, 100.9470
170.1442, 100.6539
170.6263, 100.4108
171.1084, 100.3313
171.5906, 100.1077
172.0727, 99.47508
172.5548, 98.69031
173.0369, 98.13243
173.5190, 98.07683
174.0011, 98.44430
174.4833, 98.56789
174.9654, 98.34287
175.4475, 97.93755
175.9296, 97.18167
176.4117, 96.27374
176.8938, 95.55375
177.3760, 95.30052
177.8581, 95.53008
178.3402, 95.60356
178.8223, 95.57346
179.3044, 95.36320
179.7865, 94.85759
180.2687, 94.12565
180.7508, 93.34399
181.2329, 92.65148
181.7150, 92.05092
182.1971, 91.58350
182.6792, 91.31462
183.1614, 91.10307
183.6435, 90.90022
184.1256, 90.69231
184.6077, 90.44092
185.0898, 90.09892
185.5719, 89.65866
186.0541, 89.25002
186.5362, 88.91840
187.0183, 88.59436
187.5004, 88.15408
187.9825, 87.57054
188.4646, 87.09544
188.9468, 87.09705
189.4289, 87.44637
189.9110, 87.61102
190.3931, 87.36118
190.8752, 86.89040
191.3573, 86.47974
191.8395, 86.14767
192.3216, 85.88171
192.8037, 85.69344
193.2858, 85.56230
193.7679, 85.44737
194.2500, 85.33620
194.7322, 85.22865
195.2143, 85.12211
195.6964, 85.01814
196.1785, 84.91409
196.6606, 84.76554
197.1427, 84.61126
197.6249, 84.54594
198.1070, 84.71951
198.5891, 85.08543
199.0712, 85.16602
199.5533, 84.79908
200.0354, 84.28836
200.5176, 83.66722
200.9997, 82.99645
201.4818, 82.38659
201.9639, 81.94067
202.4460, 81.66299
202.9281, 81.35973
203.4103, 81.11361
203.8924, 80.76218
204.3745, 80.17577
204.8566, 79.42556
205.3387, 78.69606
205.8208, 78.14928
206.3030, 77.80148
206.7851, 77.47429
207.2672, 77.10836
207.7493, 76.81358
208.2314, 76.78929
208.7135, 76.92008
209.1957, 76.82991
209.6778, 76.10801
210.1599, 74.59405
210.6420, 73.77612
211.1241, 74.24337
211.6062, 74.75075
212.0884, 74.61021
212.5705, 73.85416
213.0526, 72.95999
213.5347, 72.33308
214.0168, 72.01193
214.4989, 71.73125
214.9811, 71.49812
215.4632, 71.29465
215.9453, 71.10891
216.4274, 70.94028
216.9095, 70.79395
217.3916, 70.39998
217.8737, 70.65945
218.3559, 70.78408
218.8380, 70.78112
219.3201, 70.26838
219.8022, 70.41391
220.2843, 70.29564
220.7664, 70.16655
221.2486, 70.40472
221.7307, 69.96613
222.2128, 70.19848
222.6949, 70.16300
223.1770, 70.25011
223.6591, 70.07178
224.1413, 69.97543
224.6234, 70.25224
225.1055, 70.45988
225.5876, 70.59600
226.0697, 70.60997
226.5518, 70.31639
227.0340, 69.98120
227.5161, 70.08052
227.9982, 70.75807
228.4803, 71.36848
228.9624, 71.42423
229.4445, 71.20741
229.9267, 71.07527
230.4088, 71.19265
230.8909, 71.43568
231.3730, 71.56255
231.8551, 71.53091
232.3372, 71.48827
232.8194, 71.45297
233.3015, 71.45531
233.7836, 71.56209
234.2657, 71.84539
234.7478, 72.17818
235.2299, 72.24711
235.7121, 71.90724
236.1942, 71.58821
236.6763, 71.44554
237.1584, 71.37502
237.6405, 71.25835
238.1227, 71.03737
238.6048, 70.76812
239.0869, 70.59541
239.5690, 70.56080
240.0511, 70.55785
240.5332, 70.63161
241.0154, 70.69343
241.4975, 70.65027
241.9796, 70.46228
242.4617, 70.16833
242.9438, 69.84983
243.4259, 69.37486
243.9081, 69.10106
244.3902, 69.17881
244.8723, 69.39838
245.3544, 69.59440
245.8365, 69.69907
246.3186, 69.70142
246.8008, 69.56553
247.2829, 69.11812
247.7650, 68.78210
248.2471, 68.62523
248.7292, 68.55358
249.2113, 68.50626
249.6935, 68.45644
250.1756, 68.37530
250.6577, 68.19400
251.1398, 67.64185
251.6219, 67.40577
252.1040, 67.77408
252.5862, 68.29041
253.0683, 68.52165
253.5504, 68.35005
254.0325, 68.00433
254.5146, 67.85972
254.9967, 68.07972
255.4789, 68.21390
255.9610, 68.21333
256.4431, 68.15694
256.9252, 68.09189
257.4073, 68.03445
257.8894, 68.01102
258.3716, 68.05428
258.8537, 68.17280
259.3358, 68.36726
259.8179, 68.75977
260.3000, 69.15662
260.7821, 69.39357
261.2643, 69.44226
261.7464, 69.36970
262.2285, 69.23550
262.7106, 69.02172
263.1927, 68.81545
263.6748, 68.54602
264.1570, 68.33020
264.6391, 68.30563
265.1212, 68.47662
265.6033, 68.68587
266.0854, 68.80750
266.5675, 68.82865
267.0497, 68.75066
267.5318, 68.39178
268.0139, 68.05948
268.4960, 68.06906
268.9781, 68.41912
269.4602, 68.75682
269.9424, 68.79848
270.4245, 68.57827
270.9066, 68.44333
271.3887, 68.54810
271.8708, 68.33944
272.3529, 68.63426
272.8351, 68.79423
273.3172, 68.82660
273.7993, 68.34920
274.2814, 68.53006
274.7635, 68.44712
275.2456, 68.35336
275.7278, 68.62686
276.2099, 68.22360
276.6920, 68.49129
277.1741, 68.49113
277.6562, 68.48001
278.1383, 68.49358
278.6205, 68.49716
279.1026, 68.44465
279.5847, 68.21484
280.0668, 68.57631
280.5489, 68.80292
281.0310, 68.90194
281.5132, 68.49120
281.9953, 68.73870
282.4774, 68.72240
282.9595, 68.69530
283.4416, 69.03545
283.9237, 68.69884
284.4059, 69.03319
284.8880, 69.09969
285.3701, 69.28877
285.8522, 69.21243
286.3343, 69.21806
286.8164, 69.48921
287.2986, 69.61336
287.7807, 69.50645
288.2628, 69.70332
288.7449, 69.75843
289.2270, 69.67027
289.7091, 69.45628
290.1913, 69.36278
290.6734, 69.35072
291.1555, 69.26983
291.6376, 69.00435
292.1197, 68.62605
292.6018, 68.29699
293.0840, 68.03088
293.5661, 67.80459
294.0482, 67.60639
294.5303, 67.43458
295.0124, 67.28951
295.4945, 67.19071
295.9767, 67.11025
296.4588, 67.00621
296.9409, 66.88513
297.4230, 66.71712
297.9051, 66.45427
298.3872, 66.14365
298.8694, 65.84824
299.3515, 65.61820
299.8336, 65.35342
300.3157, 64.83784
300.7978, 63.99393
301.2799, 63.35448
301.7621, 63.34116
302.2442, 63.51802
302.7263, 63.52067
303.2084, 63.27861
303.6905, 62.89126
304.1726, 62.35586
304.6548, 61.65743
305.1369, 61.22162
305.6190, 61.40569
306.1011, 61.68881
306.5832, 61.65483
307.0653, 61.28276
307.5475, 60.84426
308.0296, 60.56355
308.5117, 60.42556
308.9938, 60.24012
309.4759, 59.97907
309.9580, 59.66607
310.4402, 59.27080
310.9223, 58.82880
311.4044, 58.46927
311.8865, 58.34715
312.3686, 58.39398
312.8507, 58.27471
313.3329, 57.83730
313.8150, 57.49433
314.2971, 57.59698
314.7792, 57.92523
315.2613, 58.06760
315.7434, 57.78403
316.2256, 57.23410
316.7077, 56.73595
317.1898, 56.26703
317.6719, 55.90514
318.1540, 55.76312
318.6361, 55.71155
319.1183, 55.62971
319.6004, 55.49482
320.0825, 55.28078
320.5646, 54.91292
321.0467, 54.35835
321.5288, 53.85964
322.0110, 53.50156
322.4931, 53.23026
322.9752, 53.06722
323.4573, 53.02166
323.9394, 52.89741
324.4215, 52.41612
324.9037, 51.59121
325.3858, 50.97709
325.8679, 50.80664
326.3500, 50.74828
326.8321, 50.56289
327.3142, 50.26203
327.7964, 49.96294
328.2785, 49.75024
328.7606, 49.60750
329.2427, 49.44538
329.7248, 49.22911
330.2069, 49.04916
330.6891, 49.00332
331.1712, 49.02969
331.6533, 48.99281
332.1354, 48.79371
332.6175, 48.51257
333.0996, 48.30355
333.5818, 48.16718
334.0639, 48.09949
334.5460, 48.13913
335.0281, 48.23293
335.5102, 48.34320
335.9923, 48.48985
336.4745, 48.58306
336.9566, 48.49657
337.4387, 48.22135
337.9208, 47.91697
338.4029, 47.53135
338.8850, 47.22151
339.3671, 47.17990
339.8492, 47.43859
340.3314, 47.71907
340.8135, 47.80753
341.2956, 47.73120
341.7777, 47.65717
342.2598, 47.62675
342.7419, 47.58595
343.2241, 47.43855
343.7062, 47.21760
344.1883, 46.85257
344.6704, 47.17654
345.1525, 47.36567
345.6346, 47.42719
346.1168, 46.97895
346.5989, 47.18897
347.0810, 47.13519
347.5631, 47.07058
348.0452, 47.37325
348.5273, 46.99915
349.0095, 47.29600
349.4916, 47.32501
349.9737, 47.47660
350.4558, 47.36276
350.9379, 47.33091
351.4200, 47.56457
351.9022, 47.65121
352.3843, 47.50682
352.8664, 47.66620
353.3485, 47.28283
353.8306, 47.37573
354.3127, 47.67413
354.7949, 47.54308
355.2770, 47.70732
355.7591, 47.56850
356.2412, 47.40539
356.7233, 47.27355
357.2054, 47.32348
357.6876, 47.45365
358.1697, 47.48494
358.6518, 47.38074
359.1339, 47.27728
359.6160, 47.29969
360.0981, 47.42992
360.5803, 47.56533
361.0624, 47.74432
361.5445, 47.88617
362.0266, 47.85117
362.5087, 47.67332
362.9908, 47.62225
363.4730, 47.87268
363.9551, 48.34586
364.4372, 48.79839
364.9193, 49.33416
365.4014, 49.68541
365.8835, 49.57312
366.3657, 49.21309
366.8478, 49.04758
367.3299, 49.23297
367.8120, 49.61632
368.2941, 49.97431
368.7762, 50.29279
369.2584, 50.64692
369.7405, 51.10894
370.2226, 51.57354
370.7047, 51.90369
371.1868, 52.09475
371.6689, 52.30210
372.1511, 52.69223
372.6332, 53.27557
373.1153, 53.67302
373.5974, 53.62449
374.0795, 53.66674
374.5616, 54.19151
375.0438, 55.02490
375.5259, 55.68500
376.0080, 55.87937
376.4901, 55.77486
376.9722, 55.96370
377.4543, 56.70569
377.9365, 57.39823
378.4186, 58.00889
378.9007, 58.52787
379.3828, 58.88543
379.8649, 59.07808
380.3470, 59.26515
380.8292, 59.68330
381.3113, 60.45962
381.7934, 61.09459
382.2755, 61.50062
382.7576, 61.86234
383.2397, 62.29260
383.7219, 62.77847
384.2040, 63.22568
384.6861, 63.54925
385.1682, 63.76228
385.6503, 64.06168
386.1324, 64.66585
386.6146, 65.11177
387.0967, 65.19894
387.5788, 65.11931
388.0609, 65.12746
388.5430, 65.33096
389.0251, 65.62681
389.5073, 65.82310
389.9894, 65.95376
390.4715, 65.89469
390.9536, 65.59277
391.4357, 65.16730
391.9178, 64.61810
392.4000, 63.99091
392.8821, 63.42928
393.3642, 63.13878
393.8463, 63.13536
394.3284, 62.81222
394.8105, 61.86431
395.2927, 60.92846
395.7748, 60.20259
396.2569, 59.63944
396.7390, 59.15305
397.2211, 58.71930
397.7032, 58.29885
398.1854, 57.78427
398.6675, 57.11440
399.1496, 56.53226
399.6317, 56.23088
400.1138, 55.96391
400.5959, 55.51336
401.0781, 54.84723
401.5602, 54.17468
402.0423, 53.72557
402.5244, 53.47552
403.0065, 53.12384
403.4886, 52.54018
403.9708, 51.99571
404.4529, 51.78573
404.9350, 51.77547
405.4171, 51.56962
405.8992, 50.77047
406.3813, 49.79689
406.8635, 49.39407
407.3456, 49.63092
407.8277, 49.79002
408.3098, 49.39997
408.7919, 48.77129
409.2740, 48.45050
409.7562, 48.56714
410.2383, 48.72760
410.7204, 48.67851
411.2025, 48.48370
411.6846, 48.32587
412.1667, 48.24904
412.6489, 48.22559
413.1310, 48.28418
413.6131, 48.42672
414.0952, 48.37093
414.5773, 47.87597
415.0594, 47.29150
415.5416, 46.90376
416.0237, 46.73153
416.5058, 46.74435
416.9879, 46.97575
417.4700, 47.36084
417.9521, 47.54364
418.4343, 47.41914
418.9164, 47.25684
419.3985, 47.04931
419.8806, 46.87170
420.3627, 46.85708
420.8448, 47.04622
421.3270, 47.33390
421.8091, 47.57195
422.2912, 47.75886
422.7733, 47.88328
423.2554, 47.84344
423.7375, 47.83326
424.2197, 48.04907
424.7018, 48.41309
425.1839, 48.65191
425.6660, 48.54983
426.1481, 48.17163
426.6302, 47.95868
427.1124, 48.05008
427.5945, 48.15158
428.0766, 48.17587
428.5587, 48.21873
429.0408, 48.39174
429.5229, 48.72356
430.0051, 49.13782
430.4872, 49.59494
430.9693, 50.19066
431.4514, 50.42285
431.9335, 49.76238
432.4156, 49.18751
432.8978, 49.13933
433.3799, 49.50284
433.8620, 49.92579
434.3441, 50.20243
434.8262, 50.37663
435.3083, 50.57253
435.7905, 50.80058
436.2726, 51.01923
436.7547, 51.21431
437.2368, 51.39385
437.7189, 51.54138
438.2010, 51.64804
438.6832, 51.80589
439.1653, 52.12194
439.6474, 52.56720
440.1295, 53.00295
440.6116, 53.43585
441.0938, 53.79857
441.5759, 53.91768
442.0580, 53.89652
442.5401, 54.08084
443.0222, 54.79808
443.5043, 55.60255
443.9865, 55.98901
444.4686, 56.00215
444.9507, 56.09130
445.4328, 56.51234
445.9149, 57.08998
446.3970, 57.38557
446.8792, 57.26294
447.3613, 57.29554
447.8434, 57.80865
448.3255, 58.48312
448.8076, 58.85164
449.2897, 58.85820
449.7719, 58.92696
450.2540, 59.50904
450.7361, 60.64576
451.2182, 61.40830
451.7003, 61.51970
452.1824, 61.62146
452.6646, 61.98244
453.1467, 62.48594
453.6288, 62.90118
454.1109, 63.12767
454.5930, 63.27287
455.0751, 63.56501
455.5573, 64.14404
456.0394, 64.59422
456.5215, 64.82126
457.0036, 65.02113
457.4857, 65.37108
457.9678, 65.81459
458.4500, 66.12025
458.9321, 66.05681
459.4142, 65.72556
459.8963, 65.74637
460.3784, 66.32497
460.8605, 66.89752
461.3427, 67.43379
461.8248, 67.83511
462.3069, 67.96532
462.7890, 67.79141
463.2711, 67.50867
463.7532, 67.26626
464.2354, 67.06944
464.7175, 67.02924
465.1996, 67.22133
465.6817, 67.47544
466.1638, 67.74066
466.6459, 67.97559
467.1281, 68.05641
467.6102, 67.83558
468.0923, 67.53849
468.5744, 67.44092
469.0565, 67.51857
469.5386, 67.51937
470.0208, 67.29878
470.5029, 67.00865
470.9850, 66.97132
471.4671, 67.25733
471.9492, 67.36230
472.4313, 66.94636
472.9135, 66.41087
473.3956, 66.26357
473.8777, 66.50854
474.3598, 66.68948
474.8419, 66.42630
475.3240, 65.78371
475.8062, 65.40855
476.2883, 65.66271
476.7704, 65.70187
477.2525, 65.09812
477.7346, 64.30303
478.2167, 63.91645
478.6989, 64.07348
479.1810, 64.37949
479.6631, 64.31694
480.1452, 63.79857
480.6273, 63.35796
481.1094, 63.02116
481.5916, 62.73842
482.0737, 62.48001
482.5558, 62.26838
483.0379, 62.16750
483.5200, 62.22341
484.0021, 62.32149
484.4843, 62.16490
484.9664, 61.62620
485.4485, 61.42816
485.9306, 62.06777
486.4127, 62.79149
486.8948, 63.08873
487.3770, 62.99581
487.8591, 62.84875
488.3412, 62.77430
488.8233, 62.79317
489.3054, 62.95129
489.7875, 63.25096
490.2697, 63.67059
490.7518, 64.28866
491.2339, 64.96964
491.7160, 65.43107
492.1981, 65.57184
492.6802, 65.78281
493.1624, 66.29633
493.6445, 66.95371
494.1266, 67.49747
494.6087, 67.88907
495.0908, 68.28889
495.5729, 68.84440
496.0551, 69.55385
496.5372, 70.26662
497.0193, 70.98752
497.5014, 71.70384
497.9835, 72.48530
498.4656, 73.23694
498.9478, 73.78551
499.4299, 74.08671
499.9120, 74.32493
500.3941, 74.77473
500.8762, 75.50920
501.3583, 76.17662
501.8405, 76.74510
502.3226, 77.27657
502.8047, 77.67704
503.2868, 78.07436
503.7689, 78.72414
504.2510, 79.79610
504.7331, 81.00626
505.2152, 81.81459
505.6974, 82.16352
506.1795, 82.48564
506.6616, 82.92965
507.1437, 83.30340
507.6258, 83.40746
508.1079, 83.29314
508.5901, 83.24155
509.0722, 83.53564
509.5543, 83.89883
510.0364, 83.89416
510.5185, 83.52417
511.0006, 83.10878
511.4828, 82.85739
511.9649, 82.59176
512.4470, 81.88783
512.9291, 80.60677
513.4113, 79.44313
513.8934, 78.72787
514.3755, 78.12857
514.8576, 77.25327
515.3397, 76.10176
515.8218, 75.01269
516.3040, 74.25317
516.7861, 73.76069
517.2682, 73.09446
517.7503, 72.17554
518.2324, 71.17410
518.7145, 69.85069
519.1967, 68.59522
519.6788, 67.86247
520.1609, 67.66809
520.6430, 67.57034
521.1251, 67.12550
521.6072, 66.34092
522.0894, 65.57085
522.5715, 64.75526
523.0536, 64.05323
523.5357, 63.52806
524.0178, 63.12417
524.4999, 62.77300
524.9821, 62.45358
525.4642, 62.22126
525.9463, 62.24269
526.4284, 62.42284
526.9105, 62.28516
527.3926, 61.68562
527.8748, 61.00460
528.3569, 60.51485
528.8390, 60.18415
529.3211, 59.89075
529.8032, 59.55782
530.2853, 59.33661
530.7675, 59.43818
531.2496, 59.68921
531.7317, 59.73894
532.2138, 59.48391
532.6959, 59.07195
533.1780, 58.66659
533.6602, 58.25167
534.1423, 57.94762
534.6244, 57.91739
535.1065, 57.80079
535.5886, 57.32697
536.0707, 56.71881
536.5529, 56.34432
537.0350, 56.34732
537.5171, 56.52424
537.9992, 56.55414
538.4813, 56.40462
538.9634, 56.27994
539.4456, 56.27827
539.9277, 56.19893
540.4098, 55.88692
540.8919, 55.44273
541.3740, 55.06276
541.8561, 54.82038
542.3383, 54.67958
542.8204, 54.64595
543.3025, 54.70270
543.7846, 54.67104
544.2667, 54.46460
544.7488, 54.24108
545.2310, 54.20075
545.7131, 54.32069
546.1952, 54.39977
546.6773, 54.42306
547.1594, 54.38281
547.6415, 54.24903
548.1237, 54.04809
548.6058, 53.82561
549.0879, 53.59814
549.5700, 53.40248
550.0521, 53.30957
550.5342, 53.37759
551.0164, 53.37170
551.4985, 53.26633
551.9806, 53.12618
552.4627, 52.99818
552.9448, 52.85213
553.4269, 52.60150
553.9091, 52.19610
554.3912, 51.76278
554.8733, 51.51433
555.3554, 51.45853
555.8375, 51.53999
556.3196, 51.88209
556.8018, 52.21105
557.2839, 52.34067
557.7660, 52.32133
558.2481, 52.29250
558.7302, 52.29038
559.2123, 52.31495
559.6945, 52.37159
560.1766, 52.45659
560.6587, 52.56639
561.1408, 52.71519
561.6229, 52.83449
562.1050, 52.80613
562.5872, 52.58977
563.0693, 52.54913
563.5514, 52.89958
564.0335, 53.21410
564.5156, 53.16618
564.9977, 52.94944
565.4799, 52.95454
565.9620, 53.33308
566.4441, 53.86691
566.9262, 54.20652
567.4083, 54.29847
567.8904, 54.41230
568.3726, 54.55812
568.8547, 54.71661
569.3368, 54.85958
569.8189, 55.01661
570.3010, 55.25213
570.7831, 55.60796
571.2653, 55.96441
571.7474, 56.17699
572.2295, 56.25872
572.7116, 56.28879
573.1937, 56.21484
573.6758, 56.25532
574.1580, 56.70731
574.6401, 57.44712
575.1222, 57.98719
575.6043, 58.11990
576.0864, 58.22837
576.5685, 58.47480
577.0507, 58.82664
577.5328, 59.29094
578.0149, 59.85421
578.4970, 60.31742
578.9791, 60.42419
579.4612, 60.14859
579.9434, 60.17452
580.4255, 60.69950
580.9076, 61.30565
581.3897, 62.07469
581.8718, 62.81013
582.3539, 63.29856
582.8361, 63.49867
583.3182, 63.53180
583.8003, 63.44574
584.2824, 63.27126
584.7645, 63.24900
585.2466, 63.41615
585.7288, 63.63616
586.2108, 63.95057
586.6929, 64.22461
587.1750, 64.22986
587.6572, 63.89006
588.1393, 63.54570
588.6214, 63.32711
589.1035, 63.20463
589.5856, 63.22223
590.0677, 63.34580
590.5499, 63.29106
591.0320, 62.83081
591.5141, 62.11536
591.9962, 61.70939
592.4783, 61.91472
592.9604, 62.02046
593.4426, 62.12139
593.9247, 62.04025
594.4068, 61.49512
594.8889, 60.63693
595.3710, 59.95161
595.8531, 59.80306
596.3353, 59.92942
596.8174, 59.65929
597.2995, 58.90148
597.7816, 58.27367
598.2637, 57.90504
598.7458, 57.72839
599.2280, 57.83459
599.7101, 58.12540
600.1922, 58.06142
600.6743, 57.05976
601.1564, 55.99387
601.6385, 55.67427
602.1207, 55.89594
602.6028, 56.06388
603.0849, 55.98510
603.5670, 55.73614
604.0491, 55.39950
604.5313, 54.95750
605.0134, 54.53555
605.4955, 54.09041
605.9776, 53.71017
606.4597, 53.50935
606.9418, 53.35131
607.4240, 53.05762
607.9061, 52.58192
608.3882, 52.02843
608.8703, 51.43701
609.3524, 50.83046
609.8345, 50.55530
610.3167, 50.75959
610.7988, 50.94408
611.2809, 50.94465
611.7630, 50.73830
612.2451, 50.23151
612.7272, 49.34276
613.2094, 48.50419
613.6915, 47.84252
614.1736, 47.37654
614.6557, 47.26007
615.1378, 47.42631
615.6199, 47.42576
616.1021, 46.95245
616.5842, 46.21527
617.0663, 45.82783
617.5484, 46.16166
618.0305, 46.21019
618.5126, 45.80410
618.9948, 45.29774
619.4769, 44.88593
619.9590, 44.53876
620.4411, 44.12975
620.9232, 43.57434
621.4053, 43.00109
621.8875, 42.62682
622.3696, 42.44891
622.8517, 42.29032
623.3338, 42.15147
623.8159, 41.97009
624.2980, 41.66965
624.7802, 41.28285
625.2623, 40.91130
625.7444, 40.51221
626.2265, 40.20123
626.7086, 40.09715
627.1907, 40.08448
627.6729, 40.00135
628.1550, 39.81829
628.6371, 39.59051
629.1192, 39.35565
629.6013, 39.12319
630.0834, 38.98409
630.5656, 39.00891
631.0477, 39.01013
631.5298, 38.98923
632.0119, 38.91647
632.4940, 38.72748
632.9761, 38.45076
633.4583, 38.22378
633.9404, 38.15800
634.4225, 38.16369
634.9046, 38.08794
635.3867, 37.93853
635.8688, 37.82303
636.3510, 37.78007
636.8331, 37.77262
637.3152, 37.77946
637.7973, 37.80764
638.2794, 37.71726
638.7615, 37.39445
639.2437, 37.07774
639.7258, 36.82442
640.2079, 36.65334
640.6900, 36.60378
641.1721, 36.67544
641.6542, 36.80724
642.1364, 36.98359
642.6185, 37.18134
643.1006, 37.02895
643.5827, 36.28181
644.0648, 35.72811
644.5469, 35.87751
645.0291, 36.20183
645.5112, 36.19389
645.9933, 35.82168
646.4754, 35.51550
646.9575, 35.48502
647.4396, 35.60390
647.9218, 35.83467
648.4039, 36.11337
648.8860, 36.18668
649.3681, 35.93991
649.8502, 35.54316
650.3323, 35.23879
650.8145, 35.02113
651.2966, 34.92686
651.7787, 35.12280
652.2608, 35.24466
652.7429, 35.16182
653.2250, 34.95133
653.7072, 34.66999
654.1893, 34.34375
654.6714, 34.09810
655.1535, 34.10431
655.6356, 34.28482
656.1177, 34.38568
656.5999, 34.39783
657.0820, 34.34076
657.5641, 34.20221
658.0462, 34.01945
658.5283, 33.85757
659.0104, 33.72005
659.4926, 33.58187
659.9747, 33.40096
660.4568, 33.25555
660.9389, 33.23172
661.4210, 33.27494
661.9031, 33.27372
662.3853, 33.18416
662.8674, 33.04723
663.3495, 32.89458
663.8316, 32.71762
664.3137, 32.68573
664.7958, 32.94917
665.2780, 33.08317
665.7601, 32.74691
666.2422, 32.25194
666.7243, 31.94847
667.2064, 31.88498
667.6885, 31.92106
668.1707, 32.13839
668.6528, 32.32430
669.1349, 32.13297
669.6170, 31.65488
670.0991, 31.34417
670.5812, 31.42386
671.0634, 31.67935
671.5455, 31.75002
672.0276, 31.62467
672.5097, 31.35417
672.9918, 30.57884
673.4739, 30.05914
673.9561, 30.21134
674.4382, 30.67311
674.9203, 30.97880
675.4024, 31.01113
675.8845, 30.97026
676.3666, 31.10458
676.8488, 31.25633
677.3309, 30.96157
677.8130, 30.21327
678.2951, 29.67547
678.7772, 29.70540
679.2593, 30.03308
679.7415, 30.15772
680.2236, 29.96022
680.7057, 29.92966
681.1878, 30.24575
681.6699, 30.53210
682.1520, 30.67350
682.6342, 30.65530
683.1163, 30.40944
683.5984, 29.93456
684.0805, 29.47699
684.5626, 29.34628
685.0447, 29.47399
685.5269, 29.45603
686.0090, 29.24572
686.4911, 29.13088
686.9732, 29.28530
687.4553, 29.55854
687.9374, 29.73306
688.4196, 29.82009
688.9017, 29.77252
689.3838, 29.45047
689.8659, 29.12398
690.3480, 28.91963
690.8301, 28.83481
691.3123, 28.89363
691.7944, 29.08670
692.2765, 29.25923
692.7586, 29.20680
693.2407, 28.95105
693.7228, 28.79261
694.2050, 28.72156
694.6871, 28.77953
695.1692, 29.14928
695.6513, 29.52836
696.1334, 29.55024
696.6155, 29.21503
697.0977, 28.94030
697.5798, 28.94785
698.0619, 28.96518
698.5440, 28.75891
699.0261, 28.41803
699.5082, 28.11447
699.9904, 27.90345
700.4725, 27.78272
700.9546, 27.75767
701.4367, 27.82333
701.9188, 27.91929
702.4009, 28.11799
702.8831, 28.20127
703.3652, 27.91029
703.8473, 27.63838
704.3294, 27.77169
704.8115, 28.24456
705.2936, 28.56358
705.7758, 28.43386
706.2579, 28.17337
706.7400, 28.01410
707.2221, 27.92803
707.7042, 27.83042
708.1863, 27.70717
708.6685, 27.66682
709.1506, 27.82884
709.6327, 28.15385
710.1148, 28.34335
710.5969, 28.35670
711.0790, 28.30420
711.5612, 28.14013
712.0433, 27.97015
712.5254, 27.87030
713.0075, 27.82328
713.4896, 27.76214
713.9717, 27.64911
714.4539, 27.53643
714.9360, 27.50009
715.4181, 27.49350
715.9002, 27.34764
716.3823, 27.05204
716.8644, 26.92468
717.3466, 27.24647
717.8287, 27.84398
718.3108, 28.06333
718.7929, 27.63027
719.2750, 27.33512
719.7571, 27.22889
720.2393, 27.22857
720.7214, 27.35793
721.2035, 27.54983
721.6856, 27.69976
722.1677, 27.77979
722.6498, 27.77664
723.1320, 27.59492
723.6141, 27.34769
724.0962, 27.32895
724.5783, 27.53587
725.0604, 27.60327
725.5425, 27.29714
726.0247, 26.84681
726.5068, 26.72830
726.9889, 27.05832
727.4710, 27.36809
727.9531, 27.77258
728.4352, 28.02595
728.9174, 27.90826
729.3995, 27.65666
729.8816, 27.60978
730.3637, 27.83228
730.8458, 28.00929
731.3279, 27.36346
731.8101, 27.61346
732.2922, 27.72864
732.7743, 27.71620
733.2564, 27.19400
733.7385, 27.33006
734.2206, 27.20232
734.7028, 27.06374
735.1849, 27.29245
735.6670, 26.84438
736.1491, 27.73259
736.6312, 27.96669
737.1133, 27.75314
737.5955, 27.43085
738.0776, 27.31093
738.5597, 27.38680
739.0418, 27.43895
739.5239, 27.33949
740.0060, 27.18089
740.4882, 27.00994
740.9703, 26.86757
741.4524, 26.92531
741.9345, 27.21700
742.4166, 27.52425
742.8987, 27.67761
743.3809, 27.68533
743.8630, 27.57629
744.3451, 27.21041
744.8272, 26.98474
745.3093, 26.97573
745.7914, 27.04926
746.2736, 27.20769
746.7557, 27.38112
747.2378, 27.43162
747.7199, 27.29209
748.2020, 27.12650
748.6841, 27.06335
749.1663, 27.05530
749.6484, 27.00333
750.1305, 26.91428
750.6126, 26.90529
751.0947, 27.04712
751.5768, 27.23269
752.0590, 27.25096
752.5411, 27.03551
753.0232, 26.97356
753.5053, 27.21788
753.9874, 27.41236
754.4695, 27.42932
754.9517, 27.35806
755.4338, 27.30069
755.9159, 27.26618
756.3980, 27.17201
756.8801, 26.85244
757.3622, 26.56220
757.8444, 26.64364
758.3265, 26.93607
758.8086, 27.01872
759.2907, 26.79449
759.7728, 26.53579
760.2549, 26.51264
760.7371, 26.68248
761.2192, 26.78154
761.7013, 26.78912
762.1834, 26.77973
762.6655, 26.70431
763.1476, 26.68141
763.6298, 26.86100
764.1119, 27.15136
764.5940, 27.28740
765.0761, 27.13634
765.5582, 26.98642
766.0403, 26.96120
766.5225, 27.02044
767.0046, 27.21521
767.4867, 27.46281
767.9688, 27.47106
768.4509, 27.08429
768.9330, 26.56365
769.4152, 26.34448
769.8973, 26.43484
770.3794, 26.58452
770.8615, 26.82245
771.3436, 27.02911
771.8257, 27.15443
772.3079, 27.21625
772.7900, 27.21996
773.2721, 27.15598
773.7542, 27.15817
774.2363, 27.34108
774.7184, 27.49183
775.2006, 27.46342
775.6827, 27.35841
776.1648, 27.33234
776.6469, 27.39776
777.1290, 27.43509
777.6111, 27.34473
778.0933, 27.17412
778.5754, 27.00845
779.0575, 26.84961
779.5396, 26.78299
780.0217, 26.85425
780.5038, 26.90116
780.9860, 26.74537
781.4681, 26.47258
781.9502, 26.46515
782.4323, 26.99106
782.9144, 27.33280
783.3965, 27.37110
783.8787, 27.30564
784.3608, 27.18353
784.8429, 27.05927
785.3250, 27.02945
785.8071, 27.12528
786.2892, 27.19900
786.7714, 27.05094
787.2535, 26.82782
787.7356, 26.82623
788.2177, 27.02746
788.6998, 27.25515
789.1819, 27.45439
789.6641, 27.56936
790.1462, 27.51150
790.6283, 27.28198
791.1104, 27.14495
791.5925, 27.06246
792.0746, 27.14148
792.5568, 27.62106
793.0389, 28.07268
793.5210, 28.16768
794.0031, 27.97442
794.4852, 27.76578
794.9673, 27.62087
795.4495, 27.47938
795.9316, 27.25504
796.4137, 27.04144
796.8958, 26.98228
797.3779, 27.06031
797.8600, 27.14703
798.3422, 27.17557
798.8243, 27.19076
799.3064, 27.28983
799.7885, 27.47950
800.2706, 27.54244
800.7527, 27.43426
801.2349, 27.32818
801.7170, 27.26927
802.1991, 27.26718
802.6812, 27.39088
803.1633, 27.64444
803.6454, 27.72465
804.1276, 27.46411
804.6097, 27.19680
805.0918, 26.93210
805.5739, 26.79815
806.0560, 27.04901
806.5381, 27.58162
807.0203, 27.94674
807.5024, 27.85019
807.9845, 27.56685
808.4666, 27.48137
808.9487, 27.53749
809.4308, 27.48966
809.9130, 27.30669
810.3951, 27.18011
810.8772, 27.22727
811.3593, 27.37976
811.8414, 27.50605
812.3235, 27.61543
812.8057, 27.66409
813.2878, 27.60002
813.7699, 27.53885
814.2520, 27.43438
814.7341, 27.39745
815.2162, 27.61793
815.6984, 28.06900
816.1805, 28.38111
816.6626, 28.30049
817.1447, 28.13650
817.6268, 28.13222
818.1089, 28.18815
818.5911, 28.09221
819.0732, 27.86098
819.5553, 27.77073
820.0374, 28.02350
820.5195, 28.40802
821.0016, 28.45631
821.4838, 28.15705
821.9659, 27.92149
822.4480, 27.76077
822.9301, 27.73046
823.4122, 27.92408
823.8943, 28.20883
824.3765, 28.35400
824.8586, 28.33955
825.3407, 28.28948
825.8228, 28.18534
826.3049, 28.07308
826.7870, 27.91146
827.2692, 27.78672
827.7513, 27.82569
828.2334, 28.00376
828.7155, 28.14662
829.1976, 28.14038
829.6797, 28.09817
830.1619, 28.14737
830.6440, 28.25831
831.1261, 28.41924
831.6082, 28.60112
832.0903, 28.56271
832.5724, 28.13655
833.0546, 27.56967
833.5367, 27.35872
834.0188, 27.55484
834.5009, 27.74868
834.9830, 27.94611
835.4651, 28.13108
835.9473, 28.33443
836.4294, 28.49126
836.9115, 28.51838
837.3936, 28.42143
837.8757, 28.32424
838.3578, 28.22228
838.8400, 28.15315
839.3221, 28.17291
839.8042, 28.20142
840.2863, 28.12366
840.7684, 27.97810
841.2505, 27.91754
841.7327, 28.02468
842.2148, 28.17817
842.6969, 28.24836
843.1790, 28.24748
843.6611, 28.18621
844.1432, 28.07310
844.6254, 28.02728
845.1075, 28.11616
845.5896, 28.17241
846.0717, 27.92406
846.5538, 27.36880
847.0359, 27.21240
847.5181, 27.73075
848.0002, 28.10817
848.4823, 28.09515
848.9644, 27.97519
849.4465, 27.92825
849.9286, 27.93311
850.4108, 27.91210
850.8929, 27.82421
851.3750, 27.77508
851.8571, 27.82183
852.3392, 27.90454
852.8214, 28.02575
853.3035, 28.13055
853.7856, 28.07430
854.2677, 27.83118
854.7498, 27.64537
855.2319, 27.83472
855.7141, 28.20264
856.1962, 28.26872
856.6783, 28.07576
857.1604, 27.92501
857.6425, 27.89044
858.1246, 27.91245
858.6068, 27.95620
859.0889, 28.00014
859.5710, 27.94935
860.0531, 27.72874
860.5352, 27.61303
861.0173, 27.65298
861.4995, 27.74583
861.9816, 27.97710
862.4637, 28.16720
862.9458, 27.95156
863.4279, 27.26245
863.9100, 26.98214
864.3922, 27.83253
864.8743, 28.57492
865.3564, 28.35332
865.8385, 27.78164
866.3206, 27.62878
866.8027, 27.91220
867.2849, 28.17285
867.7670, 28.14849
868.2491, 27.99307
868.7312, 27.81343
869.2133, 27.67558
869.6954, 27.90727
870.1776, 28.47756
870.6597, 28.66181
871.1418, 28.09194
871.6239, 27.33771
872.1060, 27.22557
872.5881, 27.75005
873.0703, 28.02099
873.5524, 27.96511
874.0345, 27.83551
874.5166, 27.60088
874.9987, 27.40578
875.4808, 27.41215
875.9630, 27.55037
876.4451, 27.62233
876.9272, 27.64197
877.4093, 27.53986
877.8914, 27.12698
878.3735, 26.76781
878.8557, 26.69216
879.3378, 26.81500
879.8199, 27.04078
880.3020, 27.32169
880.7841, 27.49436
881.2662, 27.32245
881.7484, 27.10372
882.2305, 27.30497
882.7126, 27.72852
883.1947, 27.87979
883.6768, 27.70301
884.1589, 27.46096
884.6411, 27.31466
885.1232, 27.25343
885.6053, 27.29861
886.0874, 27.45715
886.5695, 27.41182
887.0516, 27.07137
887.5338, 26.90100
888.0159, 27.16431
888.4980, 27.53445
888.9801, 27.61889
889.4622, 27.41823
889.9443, 27.23032
890.4265, 26.93869
890.9086, 26.82755
891.3907, 27.09304
891.8728, 27.38147
892.3549, 27.47996
892.8370, 27.43971
893.3192, 27.36799
893.8013, 27.27953
894.2834, 27.23387
894.7655, 27.30800
895.2476, 27.39113
895.7297, 27.37022
896.2119, 27.30064
896.6940, 27.27248
897.1761, 27.30654
897.6582, 27.39583
898.1403, 27.55423
898.6224, 27.70951
899.1046, 27.73974
899.5867, 27.66301
900.0688, 27.48523
900.5509, 27.21784
901.0330, 27.27026
901.5151, 27.89562
901.9973, 28.59742
902.4794, 28.59020
902.9615, 27.87284
903.4436, 27.52053
903.9257, 27.69430
904.4078, 27.80435
904.8900, 27.66000
905.3721, 27.50957
905.8542, 27.57751
906.3363, 27.78754
906.8184, 27.91278
907.3005, 27.97141
907.7827, 27.89063
908.2648, 27.36765
908.7469, 27.03272
909.2290, 27.36583
909.7111, 27.95984
910.1932, 28.29141
910.6754, 28.31597
911.1575, 28.36936
911.6396, 28.75148
912.1217, 29.01456
912.6038, 28.59800
913.0859, 27.95210
913.5681, 27.70362
914.0502, 27.85223
914.5323, 28.15208
915.0144, 28.49070
915.4965, 28.78127
915.9786, 28.92047
916.4607, 28.92733
916.9428, 28.81879
917.4249, 28.61108
917.9070, 28.55291
918.3892, 28.71642
918.8713, 28.89911
919.3534, 28.92527
919.8355, 28.87612
920.3176, 29.03324
920.7997, 29.52143
921.2819, 29.73583
921.7640, 29.52441
922.2461, 29.31868
922.7282, 29.26647
923.2103, 29.32017
923.6924, 29.47850
924.1746, 29.73023
924.6567, 29.83187
925.1388, 29.61309
925.6209, 29.46906
926.1030, 29.46198
926.5851, 29.55926
927.0673, 29.85726
927.5494, 30.20206
928.0315, 30.28884
928.5136, 30.03589
928.9957, 29.82915
929.4778, 29.90257
929.9600, 30.07126
930.4421, 30.19963
930.9242, 30.31605
931.4063, 30.46994
931.8884, 30.66687
932.3705, 30.90038
932.8527, 31.17816
933.3348, 31.41851
933.8169, 31.51460
934.2990, 31.49088
934.7811, 31.33447
935.2632, 31.09059
935.7454, 31.10246
936.2275, 31.48428
936.7096, 31.88023
937.1917, 31.93548
937.6738, 31.73269
938.1559, 31.56607
938.6381, 31.42891
939.1202, 31.38330
939.6023, 31.42012
940.0844, 31.62660
940.5665, 32.16538
941.0486, 32.73650
941.5308, 32.81530
942.0129, 32.33467
942.4950, 32.10269
942.9771, 32.17367
943.4592, 32.41429
943.9413, 32.96301
944.4235, 33.51547
944.9056, 33.93494
945.3877, 34.20887
945.8698, 34.28173
946.3519, 34.07752
946.8340, 33.98847
947.3162, 34.24752
947.7983, 34.49338
948.2804, 34.42057
948.7625, 34.30983
949.2446, 34.54660
949.7267, 35.08226
950.2089, 35.53111
950.6910, 35.68211
951.1731, 35.84704
951.6552, 36.40577
952.1373, 37.01888
952.6194, 37.14662
953.1016, 36.98577
953.5837, 37.10505
954.0658, 37.63948
954.5479, 38.24866
955.0300, 38.65165
955.5121, 38.97191
955.9943, 39.51681
956.4764, 40.18342
956.9585, 40.48700
957.4406, 40.40968
957.9227, 40.41114
958.4048, 40.70364
958.8870, 41.17810
959.3691, 41.71355
959.8512, 42.29638
960.3333, 42.80874
960.8154, 43.23644
961.2975, 43.68744
961.7797, 44.18392
962.2618, 44.68543
962.7439, 45.15651
963.2260, 45.61921
963.7081, 46.12247
964.1902, 46.67753
964.6724, 47.21901
965.1545, 47.72955
965.6366, 48.25374
966.1187, 48.83345
966.6008, 49.39930
967.0829, 49.83803
967.5651, 50.22451
968.0472, 50.79741
968.5293, 51.64757
969.0114, 52.47994
969.4935, 53.24615
969.9756, 54.00194
970.4578, 54.93935
970.9399, 55.76745
971.4220, 56.04124
971.9041, 55.87144
972.3862, 55.91243
972.8683, 56.41308
973.3505, 57.09682
973.8326, 58.01154
974.3147, 58.87996
974.7968, 59.48383
975.2789, 59.84205
975.7610, 59.91871
976.2432, 59.77620
976.7253, 59.79510
977.2074, 60.34058
977.6895, 60.94308
978.1716, 61.02260
978.6537, 60.84076
979.1359, 60.92501
979.6180, 61.19179
980.1001, 61.10212
980.5822, 60.48125
981.0643, 59.82731
981.5464, 59.67744
982.0286, 59.81408
982.5107, 59.75151
982.9928, 59.52285
983.4749, 59.27915
983.9570, 59.04317
984.4391, 58.76829
984.9213, 58.41957
985.4034, 58.14343
985.8855, 58.19320
986.3676, 58.51709
986.8497, 58.62620
987.3318, 58.49055
987.8140, 58.47345
988.2961, 58.62560
988.7782, 59.02301
989.2603, 59.79640
989.7424, 60.70597
990.2245, 61.22921
990.7067, 61.29082
991.1888, 61.58022
991.6709, 62.10622
992.1530, 62.85426
992.6351, 63.88810
993.1172, 65.04787
993.5994, 66.19804
994.0815, 67.39089
994.5636, 68.80214
995.0457, 70.58047
995.5278, 72.15249
996.0099, 73.26046
996.4921, 74.51035
996.9742, 76.21140
997.4563, 77.98286
997.9384, 79.49085
998.4205, 80.79720
998.9026, 82.11740
999.3848, 83.39918
999.8669, 84.88206
1000.349, 86.69682
1000.831, 88.62344
1001.313, 90.83376
1001.795, 92.90732
1002.277, 94.19106
1002.760, 94.87112
1003.242, 96.00215
1003.724, 98.11388
1004.206, 100.1868
1004.688, 101.8004
1005.170, 103.1566
1005.652, 104.2911
1006.134, 105.3455
1006.617, 106.6752
1007.099, 108.1880
1007.581, 109.1561
1008.063, 109.0630
1008.545, 108.7204
1009.027, 108.7608
1009.509, 108.9227
1009.991, 108.9264
1010.473, 108.7877
1010.956, 108.5751
1011.438, 108.3172
1011.920, 108.0762
1012.402, 107.9608
1012.884, 107.7147
1013.366, 106.9169
1013.848, 105.8106
1014.330, 104.8922
1014.813, 104.1030
1015.295, 103.1075
1015.777, 101.8043
1016.259, 100.3901
1016.741, 99.05996
1017.223, 97.65898
1017.705, 95.85682
1018.187, 93.73963
1018.669, 91.64467
1019.152, 89.57755
1019.634, 87.42186
1020.116, 85.12776
1020.598, 82.50608
1021.080, 79.32188
1021.562, 75.79812
1022.044, 72.59864
1022.526, 69.69582
1023.008, 66.80455
1023.491, 63.89185
1023.973, 61.38759
1024.455, 59.50435
1024.937, 57.79778
1025.419, 55.73824
1025.901, 53.44518
1026.383, 51.45273
1026.865, 49.77192
1027.348, 48.21577
1027.830, 46.74872
1028.312, 45.50496
1028.794, 44.59193
1029.276, 43.76385
1029.758, 42.69890
1030.240, 41.44292
1030.722, 40.40517
1031.204, 39.61898
1031.687, 38.93366
1032.169, 38.37547
1032.651, 37.78687
1033.133, 37.04352
1033.615, 36.33452
1034.097, 35.95408
1034.579, 35.86789
1035.061, 35.54545
1035.544, 34.89434
1036.026, 34.22777
1036.508, 33.43433
1036.990, 32.89269
1037.472, 32.91329
1037.954, 33.14188
1038.436, 33.11835
1038.918, 32.85170
1039.401, 32.60595
1039.883, 32.47809
1040.365, 32.18590
1040.847, 31.49384
1041.329, 30.92812
1041.811, 30.81094
1042.293, 30.87940
1042.775, 30.79035
1043.257, 30.54970
1043.740, 30.38379
1044.222, 30.35306
1044.704, 30.30377
1045.186, 30.18861
1045.668, 30.09914
1046.150, 30.19969
1046.632, 30.26844
1047.114, 29.90690
1047.596, 29.16508
1048.079, 28.82321
1048.561, 29.41202
1049.043, 29.69651
1049.525, 29.26278
1050.007, 28.80620
1050.489, 28.64474
1050.971, 28.65177
1051.453, 28.71477
1051.936, 28.80505
1052.418, 28.79080
1052.900, 28.53633
1053.382, 28.37404
1053.864, 28.43336
1054.346, 28.52342
1054.828, 28.58028
1055.310, 28.58930
1055.792, 28.49847
1056.275, 28.33634
1056.757, 28.27203
1057.239, 28.38873
1057.721, 28.50962
1058.203, 28.61834
1058.685, 28.68299
1059.167, 28.62403
1059.649, 28.55317
1060.131, 28.57588
1060.614, 28.70756
1061.096, 28.98248
1061.578, 29.55277
1062.060, 29.87951
1062.542, 29.50699
1063.024, 29.15013
1063.506, 29.23657
1063.988, 29.54482
1064.471, 29.80452
1064.953, 30.02409
1065.435, 30.39160
1065.917, 31.05088
1066.399, 31.53222
1066.881, 31.49886
1067.363, 31.41087
1067.845, 31.44573
1068.328, 31.63484
1068.810, 32.06289
1069.292, 32.65762
1069.774, 33.24290
1070.256, 33.80103
1070.738, 34.16655
1071.220, 34.06075
1071.702, 33.98118
1072.184, 34.23098
1072.667, 34.64216
1073.149, 35.12731
1073.631, 35.59304
1074.113, 35.82920
1074.595, 35.75677
1075.077, 35.75087
1075.559, 35.92566
1076.041, 36.27748
1076.523, 37.06544
1077.006, 37.80900
1077.488, 37.97523
1077.970, 37.73807
1078.452, 37.57016
1078.934, 37.58313
1079.416, 37.52555
1079.898, 37.08027
1080.380, 36.79653
1080.862, 37.12876
1081.345, 37.59604
1081.827, 37.82180
1082.309, 37.82937
1082.791, 37.69932
1083.273, 37.46039
1083.755, 37.22364
1084.237, 36.95535
1084.719, 36.81156
1085.202, 37.03326
1085.684, 37.24739
1086.166, 37.03994
1086.648, 36.67767
1087.130, 36.69226
1087.612, 37.07857
1088.094, 37.17846
1088.576, 36.59096
1089.058, 35.99402
1089.541, 35.58927
1090.023, 35.37182
1090.505, 35.44391
1090.987, 35.63368
1091.469, 35.76819
1091.951, 35.80785
1092.433, 35.72543
1092.915, 35.51283
1093.397, 35.17676
1093.880, 34.52666
1094.362, 33.97744
1094.844, 33.85489
1095.326, 33.90605
1095.808, 33.90629
1096.290, 33.81577
1096.772, 33.60780
1097.254, 33.25455
1097.737, 32.89391
1098.219, 32.45816
1098.701, 32.17138
1099.183, 32.36568
1099.665, 32.55010
1100.147, 32.19102
1100.629, 31.50130
1101.111, 31.01810
1101.594, 30.84444
1102.076, 30.64745
1102.558, 30.29105
1103.040, 29.96363
1103.522, 29.67408
1104.004, 29.48586
1104.486, 29.59338
1104.968, 29.75938
1105.450, 29.54928
1105.932, 28.93772
1106.415, 28.45230
1106.897, 28.29936
1107.379, 28.12076
1107.861, 27.75029
1108.343, 27.44994
1108.825, 27.39011
1109.307, 27.45042
1109.789, 27.49600
1110.272, 27.52115
1110.754, 27.55789
1111.236, 27.69951
1111.718, 27.67317
1112.200, 27.29064
1112.682, 26.94715
1113.164, 26.72977
1113.646, 26.64878
1114.129, 26.78454
1114.611, 27.05976
1115.093, 27.20488
1115.575, 27.13815
1116.057, 27.19263
1116.539, 27.68110
1117.021, 27.80641
1117.503, 27.00674
1117.985, 26.28943
1118.468, 26.45501
1118.950, 27.05515
1119.432, 27.19550
1119.914, 26.81197
1120.396, 26.76337
1120.878, 27.26708
1121.360, 27.63651
1121.842, 27.75434
1122.324, 27.78705
1122.807, 27.74265
1123.289, 27.75557
1123.771, 28.04493
1124.253, 28.55730
1124.735, 28.82134
1125.217, 28.72503
1125.699, 28.79895
1126.181, 29.13796
1126.664, 29.42606
1127.146, 29.54921
1127.628, 29.58855
1128.110, 29.57947
1128.592, 29.59323
1129.074, 29.87348
1129.556, 30.45530
1130.038, 30.91314
1130.521, 31.23791
1131.003, 31.48439
1131.485, 31.65342
1131.967, 31.84364
1132.449, 32.13956
1132.931, 32.40147
1133.413, 32.36326
1133.895, 32.08654
1134.377, 32.03120
1134.859, 32.18781
1135.342, 32.27949
1135.824, 32.26967
1136.306, 32.20489
1136.788, 32.10316
1137.270, 32.03825
1137.752, 32.11615
1138.234, 32.22901
1138.716, 32.03962
1139.199, 31.64953
1139.681, 31.53155
1140.163, 31.66568
1140.645, 31.77411
1141.127, 31.77272
1141.609, 31.64538
1142.091, 31.35666
1142.573, 31.10830
1143.056, 31.30655
1143.538, 31.67885
1144.020, 31.59111
1144.502, 31.23346
1144.984, 31.15052
1145.466, 31.35575
1145.948, 31.49894
1146.430, 31.43122
1146.912, 31.31353
1147.395, 31.29111
1147.877, 31.28714
1148.359, 31.24436
1148.841, 31.14383
1149.323, 30.90011
1149.805, 30.59350
1150.287, 30.44819
1150.769, 30.47480
1151.251, 30.36630
1151.734, 29.87943
1152.216, 29.43188
1152.698, 29.45102
1153.180, 29.46785
1153.662, 29.00856
1154.144, 28.36941
1154.626, 27.92902
1155.108, 27.69766
1155.591, 27.57029
1156.073, 27.56489
1156.555, 27.36548
1157.037, 26.61867
1157.519, 25.97956
1158.001, 25.76389
1158.483, 25.70762
1158.965, 25.70068
1159.448, 25.66169
1159.930, 25.44536
1160.412, 25.04480
1160.894, 24.71985
1161.376, 24.55446
1161.858, 24.37918
1162.340, 24.20571
1162.822, 23.98775
1163.304, 23.67522
1163.786, 23.34625
1164.269, 23.07231
1164.751, 22.83962
1165.233, 22.57556
1165.715, 22.21012
1166.197, 22.17513
1166.679, 22.71454
1167.161, 22.86301
1167.643, 22.28496
1168.126, 21.67005
1168.608, 21.41534
1169.090, 21.37640
1169.572, 21.35687
1170.054, 21.34727
1170.536, 21.27325
1171.018, 21.13223
1171.500, 20.94992
1171.983, 20.72216
1172.465, 20.66163
1172.947, 20.85230
1173.429, 20.97690
1173.911, 20.74791
1174.393, 20.38581
1174.875, 20.32237
1175.357, 20.48058
1175.839, 20.62647
1176.322, 20.71948
1176.804, 20.52971
1177.286, 20.09340
1177.768, 19.85649
1178.250, 20.01567
1178.732, 20.25304
1179.214, 20.29571
1179.696, 20.20920
1180.178, 19.96867
1180.661, 19.73378
1181.143, 19.90240
1181.625, 20.23715
1182.107, 20.05116
1182.589, 19.34991
1183.071, 18.95051
1183.553, 19.30233
1184.035, 19.76481
1184.518, 20.09099
1185.000, 20.20621
1185.482, 19.87789
1185.964, 19.45962
1186.446, 19.32991
1186.928, 19.41726
1187.410, 19.50426
1187.892, 19.55462
1188.375, 19.53391
1188.857, 19.38925
1189.339, 19.23974
1189.821, 19.06917
1190.303, 18.94751
1190.785, 18.91114
1191.267, 18.93914
1191.749, 19.06896
1192.231, 19.23782
1192.714, 19.17273
1193.196, 18.73893
1193.678, 18.61930
1194.160, 18.98316
1194.642, 19.18797
1195.124, 19.06302
1195.606, 18.87600
1196.088, 18.73954
1196.570, 18.74797
1197.053, 19.10113
1197.535, 19.66097
1198.017, 19.61451
1198.499, 18.98656
1198.981, 18.96679
1199.463, 19.59529
1199.945, 19.90314
1200.427, 19.62083
1200.910, 19.14141
1201.392, 18.71274
1201.874, 18.42463
1202.356, 18.48855
1202.838, 18.73417
1203.320, 18.80482
1203.802, 18.76147
1204.284, 18.72052
1204.766, 18.70894
1205.249, 18.77000
1205.731, 18.90215
1206.213, 18.97813
1206.695, 18.89411
1207.177, 18.79078
1207.659, 18.75648
1208.141, 18.77006
1208.623, 18.85842
1209.105, 18.95059
1209.588, 18.91950
1210.070, 18.81962
1210.552, 18.85194
1211.034, 19.07681
1211.516, 19.24379
1211.998, 19.25116
1212.480, 19.25913
1212.962, 19.40326
1213.445, 19.44409
1213.927, 19.15120
1214.409, 18.77437
1214.891, 18.58412
1215.373, 18.54169
1215.855, 18.45456
1216.337, 18.24907
1216.819, 18.37116
1217.302, 18.66440
1217.784, 19.02775
1218.266, 19.23379
1218.748, 19.29095
1219.230, 18.75338
1219.712, 18.98379
1220.194, 18.90642
1220.676, 18.81644
1221.158, 19.15494
1221.641, 18.70388
1222.123, 19.03558
1222.605, 19.05482
1223.087, 19.21706
1223.569, 19.06963
1224.051, 19.01785
1224.533, 19.27584
1225.015, 19.36231
1225.497, 19.17923
1225.980, 19.35057
1226.462, 18.88869
1226.944, 18.98246
1227.426, 19.31597
1227.908, 19.14847
1228.390, 19.32546
1228.872, 19.39693
1229.354, 19.49156
1229.837, 19.16887
1230.319, 18.87250
1230.801, 18.75088
1231.283, 18.68951
1231.765, 18.72098
1232.247, 18.71359
1232.729, 18.50585
1233.211, 18.21918
1233.693, 18.06753
1234.176, 18.04837
1234.658, 18.09889
1235.140, 18.29557
1235.622, 18.29120
1236.104, 17.95105
1236.586, 17.89014
1237.068, 18.36663
1237.550, 18.78839
1238.032, 18.71486
1238.515, 18.38794
1238.997, 18.20026
1239.479, 18.10848
1239.961, 17.89064
1240.443, 17.60376
1240.925, 17.53027
1241.407, 17.65704
1241.889, 17.82709
1242.372, 17.97430
1242.854, 17.99699
1243.336, 17.80755
1243.818, 17.63153
1244.300, 17.72427
1244.782, 17.88509
1245.264, 17.93913
1245.746, 17.92974
1246.229, 17.90706
1246.711, 17.87162
1247.193, 17.78009
1247.675, 17.64266
1248.157, 17.62361
1248.639, 17.88352
1249.121, 18.01966
1249.603, 17.79014
1250.085, 17.66746
1250.568, 17.92401
1251.050, 18.17319
1251.532, 18.13115
1252.014, 17.95385
1252.496, 17.89811
1252.978, 17.95420
1253.460, 18.03888
1253.942, 18.16865
1254.424, 18.09834
1254.907, 17.80239
1255.389, 17.64696
1255.871, 17.73224
1256.353, 17.96863
1256.835, 18.31421
1257.317, 18.57171
1257.799, 18.44046
1258.281, 18.10302
1258.764, 17.79574
1259.246, 17.57829
1259.728, 17.61811
1260.210, 17.81728
1260.692, 17.92365
1261.174, 17.91773
1261.656, 18.01198
1262.138, 18.33988
1262.620, 18.50000
1263.103, 18.13194
1263.585, 17.79036
1264.067, 17.72705
1264.549, 17.77198
1265.031, 17.84675
1265.513, 17.92511
1265.995, 18.00686
1266.477, 18.06920
1266.959, 17.96484
1267.442, 17.57874
1267.924, 17.54315
1268.406, 17.97130
1268.888, 18.21830
1269.370, 18.14961
1269.852, 17.99137
1270.334, 17.84944
1270.816, 17.72486
1271.299, 17.60502
1271.781, 17.54193
1272.263, 17.66550
1272.745, 17.91772
1273.227, 18.21434
1273.709, 18.49796
1274.191, 18.63720
1274.673, 18.64145
1275.156, 18.62750
1275.638, 18.62970
1276.120, 18.53492
1276.602, 18.13639
1277.084, 17.88150
1277.566, 18.14224
1278.048, 18.43449
1278.530, 18.47181
1279.012, 18.39658
1279.495, 18.32384
1279.977, 18.26804
1280.459, 18.24247
1280.941, 18.24592
1281.423, 18.27790
1281.905, 18.35249
1282.387, 18.42370
1282.869, 18.50306
1283.351, 18.47684
1283.834, 18.29935
1284.316, 18.13168
1284.798, 18.07866
1285.280, 18.12662
1285.762, 18.25944
1286.244, 18.48723
##END=



