##NAMES=Monticellite
##RRUFFID=R100107
##IDEAL CHEMISTRY=CaMgSiO_4_
##LOCALITY=Crestmore, Riverside County, California, USA
##OWNER=RRUFF
##SOURCE=American Museum of Natural History
##DESCRIPTION=White to dirty-white massive
##STATUS=The identification of this mineral is confirmed by single-crystal X-ray diffraction and chemical analysis.
##URL=rruff.info/R100107
##MEASURED CHEMISTRY=(Ca_1.021_Mg_0.896_Fe^+2^_0.086_Mn^+2^_0.003_)_Î£=2.006_Si_0.996_O_4_
128.0973, 17.89356
128.5794, 19.30047
129.0615, 21.81485
129.5436, 23.24028
130.0258, 22.66367
130.5079, 21.26040
130.9900, 21.22138
131.4721, 22.54582
131.9542, 24.09520
132.4363, 24.92638
132.9185, 25.11166
133.4006, 25.09114
133.8827, 24.67448
134.3648, 24.19128
134.8469, 25.15199
135.3290, 27.85370
135.8112, 30.70387
136.2933, 31.44052
136.7754, 29.88735
137.2575, 29.04904
137.7396, 30.07840
138.2217, 32.90967
138.7039, 35.86988
139.1860, 39.00215
139.6681, 42.20327
140.1502, 45.31841
140.6323, 48.21065
141.1144, 51.37837
141.5966, 55.34862
142.0787, 60.62975
142.5608, 64.27164
143.0429, 65.95917
143.5250, 66.19070
144.0071, 65.88615
144.4893, 64.48663
144.9714, 63.46437
145.4535, 63.55187
145.9356, 65.36100
146.4177, 67.05220
146.8998, 68.44489
147.3820, 69.68192
147.8641, 71.42249
148.3462, 73.74898
148.8283, 76.47830
149.3104, 79.55956
149.7925, 83.25725
150.2747, 86.93510
150.7568, 90.09698
151.2389, 92.86929
151.7210, 96.91296
152.2031, 102.6667
152.6852, 109.3677
153.1674, 116.6127
153.6495, 125.5086
154.1316, 133.7147
154.6137, 141.0198
155.0958, 147.4187
155.5779, 152.7434
156.0601, 155.3781
156.5422, 157.6551
157.0243, 161.5408
157.5064, 168.4825
157.9885, 176.0479
158.4706, 184.0179
158.9528, 192.5417
159.4349, 199.8554
159.9170, 203.7634
160.3991, 206.7362
160.8812, 211.6297
161.3633, 220.3413
161.8455, 230.2849
162.3276, 240.2456
162.8097, 249.7361
163.2918, 260.4460
163.7739, 275.7981
164.2560, 292.0580
164.7382, 301.9696
165.2203, 304.0054
165.7024, 302.0201
166.1845, 297.3886
166.6666, 289.5288
167.1487, 281.7272
167.6309, 273.7453
168.1130, 266.9202
168.5951, 264.2598
169.0772, 268.5997
169.5593, 276.7123
170.0414, 286.0215
170.5236, 296.2426
171.0057, 307.1986
171.4878, 322.1711
171.9699, 338.7505
172.4520, 349.2308
172.9341, 351.2748
173.4163, 344.4816
173.8984, 327.1745
174.3805, 295.0331
174.8626, 258.9352
175.3447, 226.0665
175.8268, 196.6333
176.3090, 171.7934
176.7911, 153.7093
177.2732, 140.5885
177.7553, 129.8179
178.2374, 120.8829
178.7195, 113.7464
179.2017, 108.6228
179.6838, 105.3645
180.1659, 103.1573
180.6480, 101.6920
181.1301, 100.7777
181.6122, 99.95318
182.0944, 99.17181
182.5765, 98.34914
183.0586, 97.09100
183.5407, 95.42587
184.0228, 94.10478
184.5049, 94.17240
184.9871, 95.25478
185.4692, 95.99415
185.9513, 95.79887
186.4334, 95.05107
186.9155, 94.53338
187.3976, 94.23616
187.8798, 94.29520
188.3619, 95.20171
188.8440, 96.77979
189.3261, 97.82528
189.8082, 97.79855
190.2903, 96.93960
190.7725, 95.94387
191.2546, 94.71909
191.7367, 93.77212
192.2188, 93.88535
192.7009, 94.99911
193.1830, 95.98350
193.6652, 96.35216
194.1473, 96.21104
194.6294, 96.19264
195.1115, 96.31001
195.5936, 96.50386
196.0757, 96.58233
196.5579, 96.52694
197.0400, 96.85862
197.5221, 98.01505
198.0042, 99.91029
198.4863, 101.2767
198.9684, 102.0481
199.4506, 102.4241
199.9327, 102.5751
200.4148, 102.4610
200.8969, 102.4882
201.3790, 102.8503
201.8611, 103.5552
202.3433, 104.3591
202.8254, 105.3543
203.3075, 106.3024
203.7896, 106.6107
204.2717, 106.0879
204.7538, 105.8916
205.2360, 106.6395
205.7181, 108.4529
206.2002, 110.0691
206.6823, 111.4514
207.1644, 112.6804
207.6465, 113.9346
208.1287, 115.2520
208.6108, 116.4248
209.0929, 117.2554
209.5750, 117.6132
210.0571, 118.3673
210.5392, 119.5666
211.0214, 121.1276
211.5035, 122.8310
211.9856, 124.5415
212.4677, 126.7172
212.9498, 129.6027
213.4319, 133.2528
213.9140, 137.3587
214.3962, 142.2507
214.8783, 147.4000
215.3604, 151.5277
215.8425, 154.5792
216.3246, 156.8200
216.8067, 158.5990
217.2889, 160.3640
217.7710, 159.9995
218.2531, 157.0247
218.7352, 152.1387
219.2173, 146.7260
219.6994, 140.2531
220.1816, 134.2310
220.6637, 129.2173
221.1458, 125.2848
221.6279, 122.1218
222.1100, 119.7003
222.5921, 118.0360
223.0743, 117.2902
223.5564, 118.1165
224.0385, 118.7261
224.5206, 117.9852
225.0027, 114.6411
225.4848, 113.3940
225.9670, 115.0834
226.4491, 118.6584
226.9312, 121.3972
227.4133, 122.8331
227.8954, 124.1619
228.3775, 125.8946
228.8597, 128.1964
229.3418, 130.5774
229.8239, 133.1122
230.3060, 135.7048
230.7881, 137.9501
231.2702, 139.5081
231.7524, 141.2734
232.2345, 143.6498
232.7166, 146.9284
233.1987, 150.2148
233.6808, 153.4549
234.1629, 156.6959
234.6451, 160.0824
235.1272, 163.3653
235.6093, 167.1337
236.0914, 171.5605
236.5735, 176.3274
237.0556, 182.5027
237.5378, 190.2987
238.0199, 199.4412
238.5020, 209.1640
238.9841, 219.2956
239.4662, 230.4382
239.9483, 243.1455
240.4305, 258.3925
240.9126, 272.5999
241.3947, 285.5016
241.8768, 297.4500
242.3589, 309.2619
242.8410, 320.7791
243.3232, 332.3663
243.8053, 344.1694
244.2874, 356.6352
244.7695, 368.2164
245.2516, 378.4557
245.7337, 388.0563
246.2159, 398.5670
246.6980, 410.1765
247.1801, 422.4262
247.6622, 435.0328
248.1443, 447.3857
248.6264, 462.0707
249.1086, 479.9899
249.5907, 499.8903
250.0728, 519.1352
250.5549, 537.0615
251.0370, 555.4238
251.5191, 574.4587
252.0013, 592.8707
252.4834, 615.8152
252.9655, 643.8751
253.4476, 675.8578
253.9297, 709.5098
254.4118, 744.0779
254.8940, 780.9890
255.3761, 820.8552
255.8582, 864.2704
256.3403, 910.0383
256.8224, 962.5699
257.3046, 1014.152
257.7867, 1052.985
258.2688, 1084.181
258.7509, 1092.732
259.2330, 1072.345
259.7151, 1020.577
260.1973, 952.1418
260.6794, 861.2677
261.1615, 760.8100
261.6436, 670.4716
262.1257, 589.0652
262.6078, 518.8275
263.0900, 461.7214
263.5721, 417.7979
264.0542, 382.0151
264.5363, 355.0692
265.0184, 334.9957
265.5005, 319.0268
265.9827, 308.1237
266.4648, 298.9280
266.9469, 290.7407
267.4290, 283.5883
267.9111, 277.3818
268.3932, 272.3362
268.8754, 267.9738
269.3575, 263.8674
269.8396, 260.0674
270.3217, 256.1224
270.8038, 251.5089
271.2859, 246.3262
271.7681, 243.4871
272.2502, 243.4917
272.7323, 244.7979
273.2144, 245.6784
273.6965, 245.8329
274.1786, 247.3709
274.6608, 251.6616
275.1429, 257.9429
275.6250, 260.6559
276.1071, 259.3108
276.5892, 255.8286
277.0714, 252.1020
277.5535, 248.2931
278.0356, 242.6275
278.5177, 234.5464
278.9998, 224.4239
279.4819, 213.3541
279.9641, 200.8642
280.4462, 188.9610
280.9283, 179.2199
281.4104, 171.7615
281.8925, 165.1980
282.3746, 159.4050
282.8568, 154.3118
283.3389, 149.5236
283.8210, 144.9351
284.3031, 141.4479
284.7852, 140.2095
285.2673, 141.0839
285.7495, 141.3477
286.2316, 140.4105
286.7137, 139.0725
287.1958, 138.8132
287.6779, 139.6304
288.1600, 141.5435
288.6422, 144.8487
289.1243, 149.4340
289.6064, 154.3049
290.0885, 159.5618
290.5706, 164.7746
291.0527, 169.0510
291.5349, 172.4603
292.0170, 176.0250
292.4991, 180.4348
292.9812, 185.4781
293.4633, 190.3387
293.9454, 195.0748
294.4276, 199.3575
294.9097, 201.8682
295.3918, 203.1115
295.8739, 205.7304
296.3560, 211.5560
296.8381, 219.6135
297.3203, 227.5229
297.8024, 235.1602
298.2845, 242.9970
298.7666, 251.4866
299.2487, 260.5089
299.7308, 269.9588
300.2130, 280.0723
300.6951, 290.4835
301.1772, 300.4894
301.6593, 310.0503
302.1414, 320.0189
302.6235, 330.9345
303.1057, 342.7546
303.5878, 355.1504
304.0699, 368.6481
304.5520, 382.3451
305.0341, 396.0527
305.5162, 409.5015
305.9984, 420.8694
306.4805, 430.7238
306.9626, 437.0855
307.4447, 437.0440
307.9268, 429.6698
308.4089, 415.8456
308.8911, 394.6229
309.3732, 366.9939
309.8553, 337.0504
310.3374, 303.8747
310.8195, 271.0314
311.3016, 242.5237
311.7838, 219.6933
312.2659, 200.2671
312.7480, 183.3250
313.2301, 168.9786
313.7122, 157.1084
314.1943, 148.0847
314.6765, 141.1410
315.1586, 135.9212
315.6407, 132.6691
316.1228, 130.1209
316.6049, 127.6296
317.0870, 125.4789
317.5692, 124.1650
318.0513, 124.5484
318.5334, 125.2285
319.0155, 125.4098
319.4976, 124.9013
319.9797, 124.8179
320.4619, 125.9996
320.9440, 127.6346
321.4261, 128.7999
321.9082, 128.6151
322.3903, 128.5744
322.8724, 129.0206
323.3546, 129.9701
323.8367, 131.5343
324.3188, 134.3039
324.8009, 137.4002
325.2830, 140.1204
325.7651, 141.0465
326.2473, 143.0997
326.7294, 147.4240
327.2115, 153.6535
327.6936, 158.8857
328.1757, 161.8269
328.6578, 164.5085
329.1400, 167.9460
329.6221, 172.6298
330.1042, 177.3721
330.5863, 182.7578
331.0684, 188.2302
331.5505, 192.0818
332.0327, 194.0593
332.5148, 194.7552
332.9969, 194.3513
333.4790, 192.8058
333.9611, 190.3425
334.4432, 187.1419
334.9254, 182.8946
335.4075, 177.0518
335.8896, 169.1147
336.3717, 160.4590
336.8538, 151.2750
337.3359, 141.3236
337.8180, 132.5010
338.3001, 124.6795
338.7823, 118.1900
339.2644, 113.9118
339.7465, 112.3746
340.2286, 110.5900
340.7107, 107.7604
341.1928, 104.0465
341.6750, 100.7294
342.1571, 97.66054
342.6392, 95.34558
343.1213, 94.60921
343.6034, 95.49052
344.0855, 95.57289
344.5677, 94.24538
345.0498, 92.11320
345.5319, 90.67081
346.0140, 89.93553
346.4961, 89.39793
346.9782, 88.80850
347.4604, 88.15577
347.9425, 87.35661
348.4246, 86.33589
348.9067, 85.35088
349.3888, 85.04150
349.8709, 85.23046
350.3531, 84.92711
350.8352, 82.94102
351.3173, 80.28177
351.7994, 78.94328
352.2815, 79.05368
352.7636, 79.83812
353.2458, 80.79642
353.7279, 81.87086
354.2100, 82.94972
354.6921, 84.45618
355.1742, 85.62577
355.6563, 85.34489
356.1385, 83.73971
356.6206, 82.14332
357.1027, 81.42451
357.5848, 81.24414
358.0669, 81.20509
358.5490, 81.24651
359.0312, 81.33952
359.5133, 81.69951
359.9954, 82.14319
360.4775, 82.11317
360.9596, 80.66657
361.4417, 79.09608
361.9239, 78.22717
362.4060, 78.20163
362.8881, 78.84362
363.3702, 80.94370
363.8523, 83.50909
364.3344, 85.01833
364.8166, 83.39895
365.2987, 82.11915
365.7808, 82.99157
366.2629, 86.48512
366.7450, 88.77142
367.2271, 88.26496
367.7093, 86.78291
368.1914, 85.92258
368.6735, 86.54015
369.1556, 86.99207
369.6377, 86.81567
370.1198, 86.13549
370.6020, 86.08054
371.0841, 86.86528
371.5662, 88.08006
372.0483, 89.51810
372.5304, 91.31004
373.0125, 93.11155
373.4947, 94.95840
373.9768, 96.77792
374.4589, 98.40429
374.9410, 99.75853
375.4231, 101.0913
375.9052, 102.5610
376.3874, 104.2296
376.8695, 105.3854
377.3516, 105.5754
377.8337, 106.0362
378.3158, 108.7211
378.7979, 113.9996
379.2801, 118.7766
379.7622, 122.0221
380.2443, 124.1395
380.7264, 127.0430
381.2085, 130.7527
381.6906, 135.0308
382.1728, 139.3171
382.6549, 143.8535
383.1370, 150.1845
383.6191, 159.2053
384.1012, 169.1009
384.5833, 176.8913
385.0655, 182.8021
385.5476, 188.5001
386.0297, 194.2600
386.5118, 200.7080
386.9939, 209.4572
387.4760, 220.8056
387.9582, 232.9411
388.4403, 244.5052
388.9224, 255.7198
389.4045, 266.9525
389.8866, 277.5696
390.3687, 288.9466
390.8509, 302.3626
391.3330, 317.6458
391.8151, 333.6184
392.2972, 349.1522
392.7793, 365.0771
393.2614, 382.2668
393.7436, 400.8569
394.2257, 420.5269
394.7078, 441.0482
395.1899, 462.4072
395.6720, 484.5710
396.1541, 507.8266
396.6363, 531.6531
397.1184, 556.0063
397.6005, 581.2774
398.0826, 605.8348
398.5647, 629.5341
399.0468, 652.3656
399.5290, 674.3163
400.0111, 695.7813
400.4932, 715.9344
400.9753, 734.8105
401.4574, 752.4726
401.9395, 768.0407
402.4217, 781.6005
402.9038, 793.1199
403.3859, 802.5130
403.8680, 809.5089
404.3501, 814.9496
404.8322, 818.5500
405.3144, 820.7499
405.7965, 823.0206
406.2786, 826.1062
406.7607, 826.8645
407.2428, 823.6862
407.7249, 816.4692
408.2071, 808.0011
408.6892, 798.6984
409.1713, 786.8344
409.6534, 769.3525
410.1355, 746.5361
410.6176, 722.9491
411.0998, 699.9767
411.5819, 676.8923
412.0640, 652.2011
412.5461, 626.0889
413.0282, 597.7311
413.5103, 565.2316
413.9925, 530.5847
414.4746, 497.4352
414.9567, 466.3002
415.4388, 436.8354
415.9209, 408.1730
416.4030, 380.6751
416.8852, 354.4156
417.3673, 328.6511
417.8494, 305.0677
418.3315, 285.3423
418.8136, 269.7759
419.2957, 255.3404
419.7779, 240.4720
420.2600, 225.9769
420.7421, 212.9068
421.2242, 201.3050
421.7063, 191.2822
422.1884, 183.2512
422.6706, 176.8598
423.1527, 170.4502
423.6348, 163.1623
424.1169, 156.2535
424.5990, 150.1433
425.0811, 144.7026
425.5633, 140.5833
426.0454, 138.8743
426.5275, 138.0357
427.0096, 136.0623
427.4917, 132.1608
427.9738, 128.3330
428.4560, 124.9460
428.9381, 121.9653
429.4202, 119.2206
429.9023, 116.6347
430.3844, 114.4793
430.8665, 113.2398
431.3487, 113.1925
431.8308, 112.2580
432.3129, 110.0047
432.7950, 107.1111
433.2771, 105.1351
433.7592, 104.1359
434.2414, 102.9484
434.7235, 100.6128
435.2056, 97.59559
435.6877, 96.05641
436.1698, 96.10508
436.6519, 96.31693
437.1341, 94.90022
437.6162, 92.52451
438.0983, 90.95174
438.5804, 90.92577
439.0625, 91.52108
439.5446, 92.13384
440.0268, 92.58865
440.5089, 92.24130
440.9910, 89.53840
441.4731, 86.56142
441.9552, 85.48266
442.4373, 86.96773
442.9195, 88.04539
443.4016, 86.33125
443.8837, 83.64314
444.3658, 82.19104
444.8479, 84.35878
445.3300, 86.11739
445.8122, 85.81645
446.2943, 83.70422
446.7764, 82.17445
447.2585, 82.01314
447.7406, 82.18019
448.2227, 82.19324
448.7049, 82.14575
449.1870, 81.69688
449.6691, 80.20953
450.1512, 78.64108
450.6333, 78.76176
451.1154, 81.78480
451.5976, 83.84611
452.0797, 83.55006
452.5618, 81.11885
453.0439, 79.95712
453.5260, 80.42769
454.0081, 81.10061
454.4903, 80.72313
454.9724, 79.31746
455.4545, 78.25964
455.9366, 77.80048
456.4187, 77.59447
456.9008, 76.86002
457.3830, 75.71186
457.8651, 75.10344
458.3472, 76.12732
458.8293, 77.77840
459.3114, 78.02695
459.7935, 76.87066
460.2757, 75.68077
460.7578, 76.06083
461.2399, 76.94516
461.7220, 76.69388
462.2041, 74.01553
462.6862, 71.58421
463.1684, 71.54565
463.6505, 73.08289
464.1326, 74.30939
464.6147, 74.68711
465.0968, 74.38634
465.5789, 72.93313
466.0611, 69.96131
466.5432, 68.61771
467.0253, 71.13663
467.5074, 74.69503
467.9895, 76.92131
468.4716, 76.58900
468.9538, 76.34732
469.4359, 76.43704
469.9180, 76.73009
470.4001, 76.84936
470.8822, 76.89729
471.3643, 76.57252
471.8465, 75.51070
472.3286, 73.54346
472.8107, 72.74063
473.2928, 73.36819
473.7749, 74.52223
474.2570, 75.43085
474.7392, 76.09193
475.2213, 75.89467
475.7034, 74.34081
476.1855, 72.29820
476.6676, 71.51591
477.1497, 71.93172
477.6319, 72.95226
478.1140, 74.90323
478.5961, 77.01743
479.0782, 77.86491
479.5603, 77.28868
480.0424, 76.33739
480.5246, 75.36463
481.0067, 74.68640
481.4888, 74.77369
481.9709, 76.49446
482.4530, 78.18523
482.9352, 78.97729
483.4173, 79.04457
483.8994, 78.93723
484.3815, 79.15966
484.8636, 78.98465
485.3457, 77.85951
485.8279, 75.32673
486.3100, 73.44646
486.7921, 72.52842
487.2742, 72.26956
487.7563, 72.47910
488.2384, 73.74080
488.7206, 74.44096
489.2027, 74.18423
489.6848, 73.27370
490.1669, 72.74419
490.6490, 72.60202
491.1311, 72.84150
491.6133, 73.72717
492.0954, 75.24184
492.5775, 75.75745
493.0596, 75.09667
493.5417, 74.17394
494.0238, 74.03811
494.5060, 74.53104
494.9881, 74.92343
495.4702, 75.00254
495.9523, 74.94352
496.4344, 74.98571
496.9165, 75.10220
497.3987, 75.19207
497.8808, 75.21272
498.3629, 75.17173
498.8450, 74.90990
499.3271, 74.38563
499.8092, 74.33988
500.2914, 75.73952
500.7735, 77.52527
501.2556, 78.72182
501.7377, 78.49255
502.2198, 78.34939
502.7019, 78.69914
503.1841, 79.37713
503.6662, 79.93214
504.1483, 79.99387
504.6304, 80.30215
505.1125, 81.18284
505.5946, 82.71294
506.0768, 83.80363
506.5589, 84.26681
507.0410, 84.55953
507.5231, 85.01466
508.0052, 85.62663
508.4873, 86.43308
508.9695, 87.44013
509.4516, 88.61813
509.9337, 89.90993
510.4158, 91.31602
510.8979, 92.83894
511.3800, 94.46903
511.8622, 96.23255
512.3443, 98.20458
512.8264, 100.3680
513.3085, 102.7275
513.7906, 105.5022
514.2728, 108.3874
514.7549, 110.7918
515.2370, 112.2270
515.7191, 114.3322
516.2012, 118.3616
516.6833, 123.6666
517.1655, 129.3136
517.6476, 135.1700
518.1297, 141.1472
518.6118, 147.0691
519.0939, 152.9887
519.5760, 159.5086
520.0582, 167.1915
520.5403, 175.0278
521.0224, 182.4785
521.5045, 189.3823
521.9866, 196.4503
522.4688, 203.5577
522.9509, 210.9688
523.4330, 219.1250
523.9151, 228.0727
524.3972, 237.5386
524.8793, 247.4091
525.3615, 257.6818
525.8436, 268.3893
526.3257, 279.5857
526.8078, 291.5838
527.2899, 304.7491
527.7720, 318.9774
528.2542, 333.8433
528.7363, 349.2640
529.2184, 365.4828
529.7005, 383.0456
530.1826, 401.2192
530.6647, 419.1082
531.1469, 436.8947
531.6290, 453.3425
532.1111, 468.6418
532.5932, 481.9128
533.0753, 491.3226
533.5574, 499.2887
534.0396, 500.5960
534.5217, 492.6485
535.0038, 475.0690
535.4859, 453.5921
535.9680, 426.8085
536.4501, 397.9676
536.9323, 368.6291
537.4144, 337.4704
537.8965, 308.5877
538.3786, 281.8640
538.8607, 257.7073
539.3428, 237.5484
539.8250, 221.3684
540.3071, 207.1113
540.7892, 194.4169
541.2713, 183.2109
541.7534, 174.0211
542.2355, 166.7607
542.7177, 160.5432
543.1998, 155.0777
543.6819, 150.1128
544.1640, 145.0859
544.6461, 139.9008
545.1282, 135.5761
545.6104, 134.0264
546.0925, 133.2961
546.5746, 131.0468
547.0567, 124.3451
547.5388, 119.2454
548.0209, 118.9138
548.5031, 121.6069
548.9852, 123.4666
549.4673, 123.6215
549.9494, 123.1838
550.4315, 122.1735
550.9136, 120.5954
551.3958, 119.6684
551.8779, 119.6133
552.3600, 119.8383
552.8421, 119.9381
553.3242, 119.8674
553.8063, 120.1284
554.2885, 120.7833
554.7706, 121.6572
555.2527, 122.3681
555.7348, 123.0162
556.2169, 124.3383
556.6990, 126.9829
557.1812, 129.8297
557.6633, 130.9564
558.1454, 130.7941
558.6275, 130.9676
559.1096, 132.5522
559.5917, 134.7514
560.0739, 137.1935
560.5560, 139.8725
561.0381, 141.8445
561.5202, 141.6948
562.0023, 141.3017
562.4844, 142.1002
562.9666, 145.6485
563.4487, 148.3373
563.9308, 149.3502
564.4129, 149.6733
564.8950, 150.8174
565.3771, 153.0749
565.8593, 155.4405
566.3414, 157.5840
566.8235, 159.6655
567.3056, 162.7601
567.7877, 167.0248
568.2698, 171.0282
568.7520, 173.6133
569.2341, 175.2049
569.7162, 177.4841
570.1983, 180.4868
570.6804, 184.0855
571.1625, 188.3674
571.6447, 193.0797
572.1268, 197.9054
572.6089, 203.1389
573.0910, 207.7650
573.5731, 210.8435
574.0552, 212.9492
574.5374, 215.1550
575.0195, 218.0586
575.5016, 220.8372
575.9837, 223.2706
576.4658, 225.3414
576.9479, 227.1244
577.4301, 228.8586
577.9122, 230.0143
578.3943, 230.2731
578.8764, 229.4609
579.3585, 228.7513
579.8406, 228.2550
580.3228, 227.6129
580.8049, 226.4990
581.2870, 224.9201
581.7691, 222.7826
582.2512, 219.9210
582.7333, 216.8694
583.2155, 214.2850
583.6975, 212.1753
584.1796, 210.4471
584.6617, 209.6026
585.1439, 208.7499
585.6260, 207.0972
586.1081, 204.7147
586.5902, 201.9741
587.0723, 198.6899
587.5544, 195.3940
588.0366, 192.4276
588.5187, 190.0178
589.0008, 187.1797
589.4829, 183.8922
589.9650, 180.0639
590.4471, 175.5061
590.9293, 169.6178
591.4114, 164.4226
591.8935, 160.2488
592.3756, 156.5625
592.8577, 152.4194
593.3398, 147.8402
593.8220, 143.0320
594.3041, 137.9055
594.7862, 132.7180
595.2683, 128.0670
595.7504, 123.9513
596.2325, 120.0678
596.7147, 116.0683
597.1968, 112.3030
597.6789, 109.2513
598.1610, 106.9583
598.6431, 104.6812
599.1252, 101.7832
599.6074, 98.88790
600.0895, 96.50135
600.5716, 94.94466
601.0537, 93.49321
601.5358, 92.17469
602.0179, 90.86580
602.5001, 89.41087
602.9822, 87.78861
603.4643, 86.05629
603.9464, 84.07719
604.4285, 82.04402
604.9106, 80.54774
605.3928, 79.62862
605.8749, 78.99002
606.3570, 78.67162
606.8391, 78.50962
607.3212, 77.79472
607.8033, 76.55995
608.2855, 75.54887
608.7676, 75.76797
609.2497, 76.37399
609.7318, 76.17546
610.2139, 74.81934
610.6960, 73.52853
611.1782, 72.90636
611.6603, 72.72859
612.1424, 72.75228
612.6245, 73.52855
613.1066, 73.77235
613.5887, 72.86131
614.0709, 71.40420
614.5530, 70.64278
615.0351, 70.97410
615.5172, 71.19276
615.9993, 71.01965
616.4814, 70.47147
616.9636, 69.33871
617.4457, 67.51212
617.9278, 66.35599
618.4099, 67.36042
618.8920, 69.65475
619.3741, 70.92039
619.8563, 71.08010
620.3384, 70.57923
620.8205, 68.84980
621.3026, 67.07260
621.7847, 66.95918
622.2668, 69.68963
622.7490, 71.82766
623.2311, 71.51978
623.7132, 69.89024
624.1953, 68.37622
624.6774, 66.73849
625.1595, 65.84583
625.6417, 66.10960
626.1238, 67.12855
626.6059, 67.73878
627.0880, 67.77615
627.5701, 67.93836
628.0522, 68.65170
628.5344, 69.68881
629.0165, 69.83406
629.4986, 69.07473
629.9807, 67.99651
630.4628, 66.58102
630.9449, 65.25871
631.4271, 64.94730
631.9092, 65.74204
632.3913, 66.78313
632.8734, 67.66762
633.3555, 68.36845
633.8376, 68.91736
634.3198, 69.55345
634.8019, 69.55572
635.2840, 67.67332
635.7661, 65.41976
636.2482, 64.96466
636.7303, 67.93211
637.2125, 70.04241
637.6946, 70.58775
638.1767, 69.96333
638.6588, 69.17090
639.1409, 68.16056
639.6230, 67.28024
640.1052, 66.58583
640.5873, 66.14352
641.0694, 66.39559
641.5515, 67.26749
642.0336, 67.87701
642.5157, 67.23693
642.9979, 66.21436
643.4800, 65.85055
643.9621, 66.25391
644.4442, 66.78030
644.9263, 67.44366
645.4084, 67.89788
645.8906, 67.78919
646.3727, 66.35001
646.8548, 65.68424
647.3369, 66.30969
647.8190, 67.45432
648.3011, 68.25976
648.7833, 68.75401
649.2654, 68.73672
649.7475, 67.92078
650.2296, 66.88992
650.7117, 66.86344
651.1938, 67.79005
651.6760, 69.06969
652.1581, 70.67582
652.6402, 72.33257
653.1223, 73.94830
653.6044, 75.34246
654.0865, 75.83545
654.5687, 73.91660
655.0508, 71.84972
655.5329, 71.06475
656.0150, 71.70002
656.4971, 72.88296
656.9792, 75.56908
657.4614, 77.79607
657.9435, 78.37968
658.4256, 76.69437
658.9077, 75.54528
659.3898, 75.04903
659.8719, 74.88210
660.3541, 74.60494
660.8362, 74.23733
661.3183, 74.70165
661.8004, 76.40655
662.2825, 78.07217
662.7646, 77.61152
663.2468, 75.78500
663.7289, 74.48418
664.2110, 74.87419
664.6931, 75.40091
665.1752, 74.63457
665.6573, 73.18040
666.1395, 72.45304
666.6216, 73.53702
667.1037, 74.73388
667.5858, 75.64614
668.0679, 76.25889
668.5500, 76.34367
669.0322, 75.55507
669.5143, 74.92911
669.9964, 75.05396
670.4785, 75.85696
670.9606, 76.17812
671.4427, 76.00290
671.9249, 75.46873
672.4070, 74.18387
672.8891, 72.71294
673.3712, 72.40847
673.8533, 73.47295
674.3354, 74.86325
674.8176, 76.22301
675.2997, 77.33109
675.7818, 77.87360
676.2639, 77.29199
676.7460, 77.08460
677.2281, 78.20135
677.7103, 79.60100
678.1924, 79.93438
678.6745, 78.46266
679.1566, 77.59396
679.6387, 77.89092
680.1208, 78.72630
680.6030, 78.48272
681.0851, 77.17307
681.5672, 76.54133
682.0493, 77.69626
682.5314, 79.44456
683.0135, 79.49306
683.4957, 78.23103
683.9778, 77.19350
684.4599, 77.43156
684.9420, 78.01031
685.4241, 78.29172
685.9063, 78.27294
686.3884, 78.34709
686.8705, 79.26587
687.3526, 79.68307
687.8347, 78.72962
688.3168, 76.03127
688.7990, 74.74104
689.2811, 75.24020
689.7632, 76.24939
690.2453, 76.76958
690.7274, 76.85603
691.2095, 77.26751
691.6917, 78.11350
692.1738, 78.82545
692.6559, 78.50513
693.1380, 77.70180
693.6201, 77.35608
694.1022, 77.75410
694.5844, 78.43135
695.0665, 79.90496
695.5486, 81.22005
696.0307, 81.15219
696.5128, 77.61680
696.9949, 74.99870
697.4771, 73.78777
697.9592, 73.68448
698.4413, 74.35605
698.9234, 76.15316
699.4055, 77.27275
699.8876, 77.03719
700.3698, 76.01498
700.8519, 75.73724
701.3340, 76.07497
701.8161, 76.17207
702.2982, 75.12658
702.7803, 73.91762
703.2625, 73.57127
703.7446, 74.01756
704.2267, 74.85622
704.7088, 76.63961
705.1909, 78.13649
705.6730, 78.48363
706.1552, 77.51897
706.6373, 77.17007
707.1194, 77.91185
707.6015, 78.61384
708.0836, 78.54179
708.5657, 77.63421
709.0479, 77.21411
709.5300, 77.31390
710.0121, 77.69322
710.4942, 78.27589
710.9763, 78.95000
711.4584, 79.45997
711.9406, 79.75784
712.4227, 79.97864
712.9048, 80.26906
713.3869, 80.51383
713.8690, 80.54527
714.3511, 79.93639
714.8333, 79.82504
715.3154, 81.22934
715.7975, 82.80762
716.2796, 82.99734
716.7617, 81.12659
717.2438, 79.87363
717.7260, 79.66131
718.2081, 80.05141
718.6902, 80.34953
719.1723, 80.57272
719.6544, 80.86715
720.1365, 81.43919
720.6187, 81.85073
721.1008, 80.75383
721.5829, 79.10126
722.0650, 79.10287
722.5471, 83.85422
723.0292, 88.31591
723.5114, 90.24281
723.9935, 89.98690
724.4756, 89.22619
724.9577, 87.59228
725.4398, 86.17360
725.9219, 85.16260
726.4041, 84.62501
726.8862, 85.25584
727.3683, 87.19530
727.8504, 88.77319
728.3325, 88.75286
728.8146, 87.82001
729.2968, 87.33662
729.7789, 87.28750
730.2610, 87.43627
730.7431, 87.48009
731.2252, 87.78088
731.7073, 88.82480
732.1895, 90.74269
732.6716, 92.11121
733.1537, 92.29827
733.6358, 92.20464
734.1179, 92.26968
734.6000, 92.55655
735.0822, 92.57725
735.5643, 92.25606
736.0464, 91.92506
736.5285, 91.82443
737.0106, 91.95866
737.4927, 92.35988
737.9749, 93.03812
738.4570, 93.92346
738.9391, 95.54269
739.4212, 97.05252
739.9033, 97.29868
740.3854, 95.28880
740.8676, 93.89593
741.3497, 94.41590
741.8318, 95.67632
742.3139, 96.47771
742.7960, 96.67810
743.2781, 96.72820
743.7603, 96.58215
744.2424, 96.41311
744.7245, 96.43369
745.2066, 96.64405
745.6887, 97.14644
746.1708, 98.13540
746.6530, 98.97925
747.1351, 98.53763
747.6172, 97.51476
748.0993, 97.15866
748.5814, 98.89736
749.0635, 100.2515
749.5457, 99.86839
750.0278, 98.59799
750.5099, 98.31245
750.9920, 99.80387
751.4741, 100.7958
751.9562, 100.6685
752.4384, 99.95557
752.9205, 100.0402
753.4026, 100.9033
753.8847, 101.9035
754.3668, 102.9573
754.8489, 103.8225
755.3311, 103.9906
755.8132, 103.6594
756.2953, 103.4020
756.7774, 103.1004
757.2595, 103.3103
757.7416, 104.7872
758.2238, 107.1710
758.7059, 108.5498
759.1880, 108.2214
759.6701, 107.8550
760.1522, 107.8583
760.6343, 108.2222
761.1165, 109.0966
761.5986, 110.5158
762.0807, 111.6136
762.5628, 111.5974
763.0449, 111.0895
763.5270, 110.9919
764.0092, 111.3287
764.4913, 112.2330
764.9734, 114.7961
765.4555, 117.0814
765.9376, 117.6482
766.4197, 116.4472
766.9019, 115.6671
767.3840, 115.3985
767.8661, 115.6125
768.3482, 116.3662
768.8303, 117.6483
769.3124, 119.0985
769.7946, 120.7322
770.2767, 122.2031
770.7588, 123.1439
771.2409, 123.7972
771.7230, 124.5584
772.2051, 125.4461
772.6873, 126.4353
773.1694, 127.5796
773.6515, 128.7653
774.1336, 129.9807
774.6157, 131.2661
775.0978, 132.2531
775.5800, 132.7821
776.0621, 133.2155
776.5442, 133.6296
777.0263, 133.9966
777.5084, 135.1960
777.9905, 137.3029
778.4727, 139.5493
778.9548, 141.1687
779.4369, 142.5169
779.9190, 144.3603
780.4011, 146.7924
780.8832, 148.9131
781.3654, 149.5732
781.8475, 150.1417
782.3296, 151.7649
782.8117, 155.1200
783.2938, 157.6844
783.7759, 158.9246
784.2581, 160.1281
784.7402, 162.2325
785.2223, 165.2274
785.7044, 168.8200
786.1865, 173.0549
786.6686, 177.0975
787.1508, 180.0091
787.6329, 182.2379
788.1150, 184.3904
788.5971, 186.4982
789.0792, 189.0391
789.5613, 192.6525
790.0435, 196.5660
790.5256, 200.1323
791.0077, 202.8640
791.4898, 206.3325
791.9719, 210.4023
792.4540, 215.4107
792.9362, 221.7684
793.4183, 229.4413
793.9004, 236.9861
794.3825, 244.2933
794.8646, 252.0404
795.3467, 261.2621
795.8289, 271.3221
796.3110, 281.1634
796.7931, 290.5833
797.2752, 300.5189
797.7573, 310.9556
798.2394, 322.4436
798.7216, 335.1484
799.2037, 348.1855
799.6858, 365.3054
800.1679, 387.2852
800.6500, 411.6124
801.1321, 435.3758
801.6143, 459.4585
802.0964, 488.8686
802.5785, 524.1893
803.0606, 563.3529
803.5427, 604.6356
804.0248, 648.1829
804.5070, 694.7279
804.9891, 744.5678
805.4712, 796.5744
805.9533, 850.4992
806.4354, 907.1904
806.9175, 967.5266
807.3997, 1031.841
807.8818, 1098.428
808.3639, 1166.404
808.8460, 1237.566
809.3281, 1312.167
809.8102, 1391.348
810.2924, 1478.173
810.7745, 1573.190
811.2566, 1675.048
811.7387, 1780.808
812.2208, 1893.000
812.7029, 2013.636
813.1851, 2143.809
813.6672, 2281.070
814.1493, 2426.798
814.6314, 2577.735
815.1135, 2731.733
815.5956, 2890.447
816.0778, 3044.272
816.5599, 3194.894
817.0420, 3329.841
817.5241, 3448.250
818.0062, 3538.500
818.4883, 3586.181
818.9705, 3589.502
819.4526, 3546.501
819.9347, 3445.903
820.4168, 3306.715
820.8989, 3135.982
821.3810, 2928.898
821.8632, 2724.459
822.3453, 2521.016
822.8274, 2322.352
823.3095, 2132.075
823.7916, 1950.109
824.2737, 1790.927
824.7559, 1654.445
825.2380, 1534.517
825.7201, 1430.748
826.2022, 1339.370
826.6843, 1258.417
827.1664, 1187.706
827.6486, 1126.481
828.1307, 1076.817
828.6128, 1034.309
829.0949, 996.7736
829.5770, 964.5073
830.0591, 936.7570
830.5413, 913.4164
831.0234, 896.2244
831.5055, 887.1842
831.9876, 884.9715
832.4697, 886.4654
832.9518, 891.7228
833.4340, 903.5055
833.9161, 921.2855
834.3982, 947.8297
834.8803, 985.1328
835.3624, 1033.986
835.8445, 1090.831
836.3267, 1155.256
836.8088, 1228.174
837.2909, 1310.575
837.7730, 1401.504
838.2551, 1495.413
838.7372, 1592.384
839.2194, 1693.546
839.7015, 1798.877
840.1836, 1909.339
840.6657, 2024.728
841.1478, 2146.326
841.6299, 2275.516
842.1121, 2409.302
842.5942, 2555.426
843.0763, 2716.372
843.5584, 2891.862
844.0405, 3079.517
844.5226, 3278.717
845.0048, 3494.569
845.4869, 3730.594
845.9690, 3984.524
846.4511, 4251.350
846.9332, 4530.041
847.4153, 4814.008
847.8975, 5115.821
848.3796, 5405.913
848.8617, 5691.316
849.3438, 5954.162
849.8259, 6143.707
850.3080, 6276.045
850.7902, 6304.590
851.2723, 6217.537
851.7544, 6023.485
852.2365, 5718.826
852.7186, 5315.449
853.2007, 4876.593
853.6829, 4406.537
854.1650, 3947.340
854.6471, 3520.606
855.1292, 3129.956
855.6113, 2780.159
856.0934, 2482.592
856.5756, 2221.100
857.0577, 1994.714
857.5398, 1800.936
858.0219, 1631.452
858.5040, 1486.136
858.9861, 1358.857
859.4683, 1248.984
859.9504, 1151.577
860.4325, 1062.940
860.9146, 982.6013
861.3967, 911.6030
861.8788, 851.1523
862.3610, 797.5844
862.8431, 752.6418
863.3252, 712.8885
863.8073, 675.3083
864.2894, 639.2545
864.7715, 606.5806
865.2537, 577.5839
865.7358, 551.2219
866.2179, 526.0339
866.7000, 502.4893
867.1821, 482.0606
867.6642, 464.8027
868.1464, 448.5572
868.6285, 430.5898
869.1106, 413.7654
869.5927, 400.3926
870.0748, 391.3263
870.5569, 382.2092
871.0391, 372.9819
871.5212, 363.7897
872.0033, 354.6317
872.4854, 345.5630
872.9675, 337.3012
873.4496, 329.7482
873.9318, 323.0793
874.4139, 317.6797
874.8960, 312.9799
875.3781, 308.5062
875.8602, 304.2315
876.3423, 300.4229
876.8245, 297.2498
877.3066, 294.5108
877.7887, 292.2514
878.2708, 290.3830
878.7529, 288.5191
879.2350, 286.6699
879.7172, 285.0222
880.1993, 283.9730
880.6814, 282.8611
881.1635, 280.5998
881.6456, 277.6129
882.1277, 274.8857
882.6099, 272.6459
883.0920, 270.8776
883.5741, 269.0405
884.0562, 267.9167
884.5383, 268.7479
885.0204, 271.5773
885.5026, 276.1494
885.9847, 282.5132
886.4668, 290.3261
886.9489, 299.7819
887.4310, 310.2509
887.9131, 320.0698
888.3953, 328.0097
888.8774, 337.5320
889.3595, 351.3040
889.8416, 366.6768
890.3237, 380.9773
890.8058, 392.7882
891.2880, 407.1234
891.7701, 424.0475
892.2522, 443.0228
892.7343, 463.9322
893.2164, 486.5991
893.6985, 510.2046
894.1807, 534.5189
894.6628, 561.8009
895.1449, 593.4547
895.6270, 628.1556
896.1091, 666.1011
896.5912, 707.2242
897.0734, 748.5842
897.5555, 791.7706
898.0376, 830.9215
898.5197, 865.5772
899.0018, 893.0467
899.4839, 904.3643
899.9661, 899.2403
900.4482, 876.0829
900.9303, 827.3822
901.4124, 766.5052
901.8945, 695.4332
902.3766, 618.7508
902.8588, 548.2518
903.3409, 485.2545
903.8230, 429.8535
904.3051, 381.7585
904.7872, 341.1034
905.2693, 308.0262
905.7515, 282.1603
906.2336, 260.6433
906.7157, 243.3090
907.1978, 228.3811
907.6799, 214.2156
908.1620, 201.6663
908.6442, 191.7048
909.1263, 186.2754
909.6084, 180.6060
910.0905, 174.1308
910.5726, 167.9754
911.0547, 163.1483
911.5369, 159.5738
912.0190, 156.1513
912.5011, 152.8206
912.9832, 149.5193
913.4653, 146.2040
913.9474, 142.8883
914.4296, 139.3153
914.9117, 135.4227
915.3938, 132.7389
915.8759, 132.2518
916.3580, 131.8870
916.8401, 130.7078
917.3223, 128.9512
917.8044, 128.1762
918.2865, 128.3213
918.7686, 128.2881
919.2507, 127.3421
919.7328, 126.0772
920.2150, 125.0760
920.6971, 124.2196
921.1792, 123.1889
921.6613, 121.2246
922.1434, 120.0008
922.6255, 119.8123
923.1077, 120.3979
923.5898, 121.5479
924.0719, 123.2035
924.5540, 124.4671
925.0361, 125.1476
925.5182, 125.4499
926.0004, 124.9434
926.4825, 124.4940
926.9646, 125.2286
927.4467, 127.7702
927.9288, 130.3539
928.4109, 132.7869
928.8931, 135.2039
929.3752, 137.4374
929.8573, 139.4995
930.3394, 142.8799
930.8215, 147.5510
931.3036, 152.9870
931.7858, 158.5559
932.2679, 164.8714
932.7500, 172.3985
933.2321, 181.1412
933.7142, 191.8051
934.1964, 204.9923
934.6785, 219.4364
935.1606, 234.4447
935.6427, 250.6524
936.1248, 270.0158
936.6069, 292.5334
937.0891, 314.8716
937.5712, 336.0702
938.0533, 357.2722
938.5354, 379.4399
939.0175, 402.5168
939.4996, 425.9819
939.9818, 449.1465
940.4639, 473.9896
940.9460, 499.4643
941.4281, 527.6202
941.9102, 560.2631
942.3923, 597.2096
942.8745, 636.6450
943.3566, 678.7640
943.8387, 723.6719
944.3208, 771.1369
944.8029, 821.0012
945.2850, 874.5628
945.7672, 931.7648
946.2493, 987.7142
946.7314, 1046.489
947.2135, 1096.847
947.6956, 1137.620
948.1777, 1165.485
948.6599, 1167.284
949.1420, 1143.740
949.6241, 1097.766
950.1062, 1021.365
950.5883, 934.1531
951.0704, 843.1530
951.5526, 751.8993
952.0347, 668.6376
952.5168, 592.7458
952.9989, 525.3265
953.4810, 466.6739
953.9631, 416.1008
954.4453, 374.2242
954.9274, 339.7765
955.4095, 308.2868
955.8916, 279.3986
956.3737, 253.9566
956.8558, 233.2777
957.3380, 215.8045
957.8201, 200.4692
958.3022, 187.1813
958.7843, 175.5853
959.2664, 165.8808
959.7485, 157.1421
960.2307, 149.0149
960.7128, 141.4624
961.1949, 134.0445
961.6770, 127.0983
962.1591, 121.9378
962.6412, 121.1451
963.1234, 119.9549
963.6055, 115.7373
964.0876, 110.1413
964.5697, 105.8172
965.0518, 102.9502
965.5339, 100.8844
966.0161, 99.81034
966.4982, 98.48952
966.9803, 94.55223
967.4624, 89.66442
967.9445, 86.87878
968.4266, 86.84877
968.9088, 87.03606
969.3909, 86.71076
969.8730, 86.11756
970.3551, 85.24850
970.8372, 84.15703
971.3193, 83.86545
971.8015, 84.42309
972.2836, 84.36293
972.7657, 82.40186
973.2478, 79.81349
973.7299, 77.68116
974.2120, 76.13277
974.6942, 75.45259
975.1763, 76.95551
975.6584, 77.64768
976.1405, 76.89636
976.6226, 75.46440
977.1047, 74.26895
977.5869, 73.32516
978.0690, 73.09780
978.5511, 73.75790
979.0332, 74.16880
979.5153, 73.07988
979.9974, 71.49446
980.4796, 70.23753
980.9617, 69.41244
981.4438, 69.10697
981.9259, 69.66454
982.4080, 69.97250
982.8901, 69.33705
983.3723, 68.17003
983.8544, 67.89961
984.3365, 68.30369
984.8186, 68.46072
985.3007, 67.28703
985.7828, 66.45390
986.2650, 67.55568
986.7471, 69.20278
987.2292, 68.84291
987.7113, 65.39079
988.1934, 64.08547
988.6755, 65.76456
989.1577, 68.09638
989.6398, 68.49239
990.1219, 67.75857
990.6040, 67.09541
991.0861, 66.63870
991.5682, 66.57468
992.0504, 67.45833
992.5325, 68.25384
993.0146, 68.48377
993.4967, 68.23672
993.9788, 67.97396
994.4609, 67.69672
994.9431, 67.44851
995.4252, 67.04305
995.9073, 66.98656
996.3894, 68.41267
996.8715, 70.39628
997.3536, 71.44371
997.8358, 70.77657
998.3179, 69.55823
998.8000, 67.32152
999.2821, 65.33720
999.7642, 64.81755
1000.246, 65.63249
1000.728, 67.61707
1001.211, 70.67879
1001.693, 72.57006
1002.175, 70.82166
1002.657, 68.31345
1003.139, 66.78097
1003.621, 66.20581
1004.103, 65.71065
1004.585, 65.10024
1005.068, 65.48226
1005.550, 67.62926
1006.032, 69.99871
1006.514, 69.90776
1006.996, 68.23324
1007.478, 66.57539
1007.960, 64.92091
1008.442, 64.52068
1008.924, 66.74157
1009.407, 69.52373
1009.889, 71.77991
1010.371, 73.51819
1010.853, 73.80660
1011.335, 72.63249
1011.817, 71.41445
1012.299, 71.08252
1012.781, 71.15201
1013.263, 71.36425
1013.746, 71.61722
1014.228, 71.56345
1014.710, 70.60476
1015.192, 70.46555
1015.674, 71.78680
1016.156, 73.37533
1016.638, 72.93633
1017.120, 71.27665
1017.603, 71.16669
1018.085, 73.27190
1018.567, 75.17820
1019.049, 75.49222
1019.531, 75.05694
1020.013, 74.10930
1020.495, 72.72868
1020.977, 72.99709
1021.459, 75.15550
1021.942, 76.81832
1022.424, 76.62116
1022.906, 75.61707
1023.388, 75.16236
1023.870, 75.01060
1024.352, 74.67910
1024.834, 73.81968
1025.316, 73.04285
1025.799, 72.31351
1026.281, 71.79556
1026.763, 71.83651
1027.245, 72.30116
1027.727, 72.17838
1028.209, 71.43815
1028.691, 70.79619
1029.173, 70.89320
1029.656, 71.11595
1030.138, 71.10708
1030.620, 70.85809
1031.102, 70.39005
1031.584, 69.55665
1032.066, 69.17932
1032.548, 69.65810
1033.030, 70.18492
1033.512, 69.01729
1033.995, 67.22915
1034.477, 66.99879
1034.959, 69.58341
1035.441, 70.72428
1035.923, 67.75833
1036.405, 64.97054
1036.887, 65.03740
1037.369, 67.49329
1037.851, 68.14705
1038.334, 67.10495
1038.816, 65.45477
1039.298, 62.99406
1039.780, 60.94744
1040.262, 59.94989
1040.744, 60.00097
1041.226, 61.27848
1041.708, 64.92257
1042.191, 66.06128
1042.673, 63.86770
1043.155, 61.05006
1043.637, 60.57966
1044.119, 61.33141
1044.601, 61.27299
1045.083, 60.29345
1045.565, 59.69347
1046.047, 60.48431
1046.530, 61.05850
1047.012, 60.78823
1047.494, 60.03581
1047.976, 59.91376
1048.458, 60.31501
1048.940, 60.31232
1049.422, 59.46956
1049.904, 58.75361
1050.386, 59.15296
1050.869, 59.88279
1051.351, 60.06417
1051.833, 59.49352
1052.315, 59.54219
1052.797, 60.44352
1053.279, 60.87533
1053.761, 59.40108
1054.243, 57.41120
1054.726, 57.84849
1055.208, 59.74171
1055.690, 60.52094
1056.172, 57.40131
1056.654, 55.80095
1057.136, 57.15126
1057.618, 59.30547
1058.100, 59.67056
1058.583, 58.52881
1059.065, 57.65071
1059.547, 57.17136
1060.029, 56.92761
1060.511, 57.03316
1060.993, 57.13636
1061.475, 57.04011
1061.957, 56.75382
1062.439, 56.18920
1062.922, 55.18121
1063.404, 55.10035
1063.886, 56.61284
1064.368, 58.19797
1064.850, 57.60458
1065.332, 56.09158
1065.814, 55.41447
1066.296, 56.12505
1066.778, 56.66975
1067.261, 56.81625
1067.743, 56.92133
1068.225, 57.20026
1068.707, 57.56069
1069.189, 57.67641
1069.671, 57.59339
1070.153, 57.47189
1070.635, 57.38431
1071.118, 57.27019
1071.600, 56.85579
1072.082, 56.58257
1072.564, 57.05851
1073.046, 58.39386
1073.528, 58.96138
1074.010, 58.68875
1074.492, 58.24055
1074.974, 57.87170
1075.457, 57.76703
1075.939, 58.21524
1076.421, 59.09075
1076.903, 59.94650
1077.385, 61.04608
1077.867, 61.16832
1078.349, 59.78292
1078.831, 58.26170
1079.313, 58.63677
1079.796, 60.08222
1080.278, 61.12962
1080.760, 61.56421
1081.242, 62.01913
1081.724, 62.75557
1082.206, 63.47812
1082.688, 63.98500
1083.170, 64.44566
1083.652, 65.55897
1084.135, 67.17591
1084.617, 68.37463
1085.099, 68.47475
1085.581, 69.09731
1086.063, 72.40759
1086.545, 75.83662
1087.027, 77.17415
1087.509, 76.30972
1087.992, 73.97184
1088.474, 70.04823
1088.956, 66.38573
1089.438, 64.19255
1089.920, 62.75210
1090.402, 61.63952
1090.884, 60.61991
1091.366, 59.11627
1091.849, 55.86272
1092.331, 54.68941
1092.813, 56.33223
1093.295, 58.57191
1093.777, 59.08720
1094.259, 58.63238
1094.741, 58.83102
1095.223, 59.65731
1095.705, 60.25215
1096.188, 60.10924
1096.670, 59.86498
1097.152, 59.62276
1097.634, 59.43817
1098.116, 59.61292
1098.598, 59.99107
1099.080, 59.44184
1099.562, 57.65530
1100.044, 56.42627
1100.527, 57.68785
1101.009, 59.23059
1101.491, 59.35804
1101.973, 58.38995
1102.455, 58.49502
1102.937, 59.71948
1103.419, 60.61462
1103.901, 60.65054
1104.384, 60.26924
1104.866, 59.61480
1105.348, 58.97282
1105.830, 58.71813
1106.312, 59.01558
1106.794, 59.23893
1107.276, 59.40421
1107.758, 59.42889
1108.240, 59.15144
1108.723, 58.79951
1109.205, 58.71692
1109.687, 58.88097
1110.169, 59.23418
1110.651, 60.15462
1111.133, 60.66304
1111.615, 60.61283
1112.097, 60.29504
1112.579, 59.91828
1113.062, 59.49904
1113.544, 59.00616
1114.026, 58.48582
1114.508, 58.25110
1114.990, 58.64471
1115.472, 59.14788
1115.954, 59.69337
1116.436, 60.14386
1116.919, 60.17427
1117.401, 59.82756
1117.883, 59.96067
1118.365, 60.69674
1118.847, 61.05938
1119.329, 59.45888
1119.811, 58.00135
1120.293, 58.74072
1120.776, 60.95437
1121.258, 61.52177
1121.740, 60.27338
1122.222, 58.82831
1122.704, 57.39808
1123.186, 56.51207
1123.668, 57.11319
1124.150, 58.29168
1124.632, 59.19882
1125.115, 59.73005
1125.597, 59.35331
1126.079, 57.59379
1126.561, 56.55143
1127.043, 57.25865
1127.525, 58.78669
1128.007, 59.89892
1128.489, 60.63919
1128.971, 61.06797
1129.454, 61.18740
1129.936, 60.95214
1130.418, 60.10037
1130.900, 59.43532
1131.382, 59.55627
1131.864, 60.15898
1132.346, 60.31261
1132.828, 60.16547
1133.311, 60.19093
1133.793, 60.92374
1134.275, 61.35608
1134.757, 61.06208
1135.239, 60.63732
1135.721, 60.56633
1136.203, 60.82481
1136.685, 61.49954
1137.167, 62.46950
1137.650, 62.69258
1138.132, 60.45285
1138.614, 58.58814
1139.096, 58.76602
1139.578, 59.91101
1140.060, 60.70958
1140.542, 61.16785
1141.024, 61.24218
1141.506, 60.92930
1141.989, 60.25763
1142.471, 58.50175
1142.953, 57.08533
1143.435, 57.40501
1143.917, 58.89529
1144.399, 59.61549
1144.881, 59.52321
1145.363, 58.74474
1145.846, 57.15850
1146.328, 55.85906
1146.810, 56.55923
1147.292, 57.66563
1147.774, 57.26675
1148.256, 55.33138
1148.738, 55.13078
1149.220, 57.37929
1149.703, 58.62679
1150.185, 57.71041
1150.667, 56.04683
1151.149, 55.10354
1151.631, 54.77696
1152.113, 55.04455
1152.595, 56.01218
1153.077, 56.74005
1153.559, 57.14118
1154.042, 57.33601
1154.524, 57.18835
1155.006, 57.13149
1155.488, 58.64691
1155.970, 60.68139
1156.452, 60.95318
1156.934, 58.06490
1157.416, 56.05918
1157.898, 55.81874
1158.381, 55.68482
1158.863, 54.47679
1159.345, 52.86694
1159.827, 52.89907
1160.309, 54.15821
1160.791, 55.54174
1161.273, 56.86674
1161.755, 57.90168
1162.238, 58.70754
1162.720, 59.10136
1163.202, 58.66381
1163.684, 57.66157
1164.166, 57.88414
1164.648, 58.94709
1165.130, 59.13219
1165.612, 56.18041
1166.094, 54.06428
1166.577, 54.46452
1167.059, 55.79782
1167.541, 56.66095
1168.023, 57.10350
1168.505, 57.63329
1168.987, 58.20716
1169.469, 58.30639
1169.951, 57.04457
1170.433, 55.90675
1170.916, 55.63360
1171.398, 55.81765
1171.880, 55.98496
1172.362, 56.14137
1172.844, 56.44543
1173.326, 56.90082
1173.808, 57.23590
1174.290, 57.07909
1174.773, 56.93188
1175.255, 57.12323
1175.737, 57.51857
1176.219, 57.95275
1176.701, 58.43156
1177.183, 58.36283
1177.665, 57.62618
1178.147, 57.15199
1178.630, 58.37592
1179.112, 59.47736
1179.594, 58.63530
1180.076, 56.63346
1180.558, 56.21818
1181.040, 57.48757
1181.522, 58.37478
1182.004, 58.48789
1182.486, 58.14925
1182.969, 57.07180
1183.451, 56.13538
1183.933, 56.31103
1184.415, 57.39870
1184.897, 57.89248
1185.379, 57.76579
1185.861, 57.30150
1186.343, 56.48556
1186.825, 55.73702
1187.308, 55.34663
1187.790, 55.31106
1188.272, 55.83537
1188.754, 56.87475
1189.236, 57.31659
1189.718, 57.10571
1190.200, 56.75447
1190.682, 56.34362
1191.165, 56.09426
1191.647, 56.63656
1192.129, 57.21650
1192.611, 56.76433
1193.093, 55.09236
1193.575, 54.67464
1194.057, 55.76553
1194.539, 56.14956
1195.021, 54.55745
1195.504, 52.71387
1195.986, 52.87714
1196.468, 53.79018
1196.950, 53.74444
1197.432, 52.36000
1197.914, 51.62348
1198.396, 51.64552
1198.878, 51.53801
1199.360, 50.67447
1199.843, 49.79792
1200.325, 50.23385
1200.807, 51.01585
1201.289, 50.47921
1201.771, 47.75416
1202.253, 47.37305
1202.735, 49.74751
1203.217, 51.79481
1203.700, 51.46949
1204.182, 50.30561
1204.664, 49.72170
1205.146, 49.64111
1205.628, 50.10557
1206.110, 51.71331
1206.592, 51.47947
1207.074, 49.07757
1207.557, 46.90589
1208.039, 46.90349
1208.521, 47.53385
1209.003, 46.86405
1209.485, 45.66112
1209.967, 45.44112
1210.449, 46.94219
1210.931, 47.42768
1211.413, 46.71614
1211.896, 46.15757
1212.378, 46.88992
1212.860, 48.08489
1213.342, 49.44174
1213.824, 50.45016
1214.306, 49.81242
1214.788, 46.67141
1215.270, 44.80613
1215.752, 44.36217
1216.235, 44.68465
1216.717, 46.04333
1217.199, 47.27081
1217.681, 47.07042
1218.163, 45.86068
1218.645, 44.51723
1219.127, 42.80758
1219.609, 42.27770
1220.092, 43.08862
1220.574, 44.10759
1221.056, 44.33922
1221.538, 44.45829
1222.020, 45.36954
1222.502, 46.57319
1222.984, 46.83056
1223.466, 45.78823
1223.948, 45.54061
1224.431, 46.28225
1224.913, 46.87867
1225.395, 46.17968
1225.877, 45.17560
1226.359, 44.53826
1226.841, 44.27468
1227.323, 44.31459
1227.805, 44.72335
1228.287, 45.02983
1228.770, 45.21197
1229.252, 45.04767
1229.734, 43.69132
1230.216, 42.57386
1230.698, 43.22345
1231.180, 44.78475
1231.662, 45.18576
1232.144, 44.32033
1232.627, 43.80160
1233.109, 43.76714
1233.591, 43.92059
1234.073, 44.07099
1234.555, 44.30009
1235.037, 44.96923
1235.519, 45.62400
1236.001, 45.11362
1236.484, 43.44222
1236.966, 43.37335
1237.448, 45.14307
1237.930, 46.49418
1238.412, 45.09959
1238.894, 43.69741
1239.376, 44.35453
1239.858, 45.72598
1240.340, 45.46043
1240.823, 43.73468
1241.305, 42.41489
1241.787, 41.69411
1242.269, 41.54534
1242.751, 42.48399
1243.233, 43.38384
1243.715, 43.76531
1244.197, 43.81784
1244.679, 43.89750
1245.162, 43.92076
1245.644, 43.10700
1246.126, 41.48175
1246.608, 40.67249
1247.090, 42.94375
1247.572, 44.28107
1248.054, 43.09147
1248.536, 40.90376
1249.019, 39.70942
1249.501, 39.50018
1249.983, 40.81208
1250.465, 43.47036
1250.947, 45.08197
1251.429, 43.62872
1251.911, 42.33681
1252.393, 41.88414
1252.875, 41.85463
1253.358, 41.61981
1253.840, 41.39761
1254.322, 41.91334
1254.804, 43.08439
1255.286, 43.68240
1255.768, 43.12952
1256.250, 42.29321
1256.732, 41.12170
1257.214, 40.17285
1257.697, 40.22697
1258.179, 40.90815
1258.661, 41.77932
1259.143, 42.74593
1259.625, 43.41080
1260.107, 43.54305
1260.589, 43.93330
1261.071, 44.75832
1261.554, 45.58887
1262.036, 46.21814
1262.518, 46.40939
1263.000, 45.56351
1263.482, 43.96661
1263.964, 43.09871
1264.446, 43.24413
1264.928, 43.00493
1265.411, 42.13634
1265.893, 41.45369
1266.375, 42.09872
1266.857, 42.87897
1267.339, 42.38478
1267.821, 41.23565
1268.303, 41.65671
1268.785, 43.88353
1269.267, 44.31793
1269.750, 42.51821
1270.232, 40.82874
1270.714, 41.34092
1271.196, 42.17051
1271.678, 41.94072
1272.160, 41.31922
1272.642, 41.54771
1273.124, 42.52795
1273.606, 42.74278
1274.089, 42.11516
1274.571, 41.51702
1275.053, 41.43959
1275.535, 41.55059
1276.017, 41.87059
1276.499, 42.13783
1276.981, 41.80119
1277.463, 41.11871
1277.946, 41.31020
1278.428, 42.27810
1278.910, 42.79313
1279.392, 41.83556
1279.874, 41.01186
1280.356, 40.56967
1280.838, 40.41237
1281.320, 40.39843
1281.802, 40.59417
1282.285, 41.34634
1282.767, 42.48204
1283.249, 43.19012
1283.731, 43.03679
1284.213, 42.82285
1284.695, 42.52427
1285.177, 42.49615
1285.659, 43.55865
1286.141, 44.70847
1286.624, 44.38363
1287.106, 43.10053
1287.588, 42.43758
1288.070, 42.69561
1288.552, 42.74831
1289.034, 42.51984
1289.516, 42.33953
1289.998, 42.59489
1290.481, 42.86460
1290.963, 42.67903
1291.445, 42.34294
1291.927, 42.44310
1292.409, 43.02852
1292.891, 42.98677
1293.373, 42.35957
1293.855, 42.12878
1294.338, 43.64689
1294.820, 44.77965
1295.302, 43.89087
1295.784, 42.68285
1296.266, 42.71946
1296.748, 43.79367
1297.230, 44.73223
1297.712, 45.43146
1298.194, 45.48814
1298.677, 44.06947
1299.159, 42.90712
1299.641, 42.19725
1300.123, 41.89657
1300.605, 42.27592
1301.087, 42.88441
1301.569, 42.45165
1302.051, 41.39251
1302.533, 40.64188
1303.016, 40.37938
##END=



