##NAMES=Montmorillonite
##RRUFFID=R110052
##IDEAL CHEMISTRY=(Na,Ca)_0.3_(Al,Mg)_2_Si_4_O_10_(OH)_2_&#183;nH_2_O
##LOCALITY=Santa Rita, New Mexico, USA
##OWNER=RRUFF
##SOURCE=Ward's Natural Science Establishment, Inc.
##DESCRIPTION=Unconsolidated grains
##STATUS=The identification of this mineral has been confirmed only by X-ray diffraction
##URL=rruff.info/R110052
164.4031, 1752.519
164.8853, 1752.108
165.3674, 1751.509
165.8495, 1751.439
166.3316, 1752.145
166.8137, 1753.001
167.2958, 1753.207
167.7780, 1752.969
168.2601, 1753.155
168.7422, 1754.701
169.2243, 1757.149
169.7064, 1758.467
170.1885, 1757.488
170.6707, 1756.566
171.1528, 1757.564
171.6349, 1760.083
172.1170, 1762.408
172.5991, 1763.175
173.0812, 1762.327
173.5634, 1761.122
174.0455, 1759.080
174.5276, 1757.082
175.0097, 1755.582
175.4918, 1754.529
175.9739, 1753.546
176.4561, 1752.120
176.9382, 1749.901
177.4203, 1748.407
177.9024, 1748.202
178.3845, 1748.183
178.8666, 1747.651
179.3488, 1746.587
179.8309, 1745.543
180.3130, 1745.306
180.7951, 1746.314
181.2772, 1747.207
181.7593, 1748.185
182.2415, 1748.948
182.7236, 1749.050
183.2057, 1748.465
183.6878, 1747.808
184.1699, 1748.014
184.6520, 1749.471
185.1342, 1751.227
185.6163, 1753.834
186.0984, 1756.513
186.5805, 1758.106
187.0626, 1758.197
187.5447, 1758.060
188.0269, 1760.133
188.5090, 1764.966
188.9911, 1769.315
189.4732, 1771.877
189.9553, 1773.576
190.4374, 1776.069
190.9196, 1780.031
191.4017, 1784.533
191.8838, 1788.139
192.3659, 1790.742
192.8480, 1793.649
193.3301, 1797.906
193.8123, 1803.046
194.2944, 1807.391
194.7765, 1810.379
195.2586, 1812.480
195.7407, 1814.388
196.2228, 1816.101
196.7050, 1817.394
197.1871, 1818.019
197.6692, 1818.000
198.1513, 1817.833
198.6334, 1817.849
199.1155, 1817.509
199.5977, 1816.539
200.0798, 1814.912
200.5619, 1812.680
201.0440, 1809.998
201.5261, 1806.939
202.0082, 1802.854
202.4904, 1796.152
202.9725, 1789.452
203.4546, 1784.330
203.9367, 1780.840
204.4188, 1777.629
204.9009, 1772.875
205.3831, 1765.830
205.8652, 1759.559
206.3473, 1754.243
206.8294, 1749.580
207.3115, 1745.980
207.7936, 1743.244
208.2758, 1740.252
208.7579, 1735.266
209.2400, 1726.712
209.7221, 1719.623
210.2042, 1714.634
210.6863, 1710.400
211.1685, 1705.802
211.6506, 1700.705
212.1327, 1695.966
212.6148, 1692.876
213.0969, 1692.575
213.5790, 1691.699
214.0612, 1690.551
214.5433, 1688.713
215.0254, 1685.116
215.5075, 1679.732
215.9896, 1674.479
216.4718, 1672.276
216.9539, 1674.999
217.4360, 1676.453
217.9181, 1675.597
218.4002, 1673.901
218.8823, 1672.868
219.3645, 1672.868
219.8466, 1673.112
220.3287, 1672.517
220.8108, 1670.959
221.2929, 1669.292
221.7750, 1667.409
222.2572, 1665.563
222.7393, 1664.256
223.2214, 1663.698
223.7035, 1663.071
224.1856, 1660.833
224.6677, 1657.114
225.1499, 1654.566
225.6320, 1655.115
226.1141, 1656.957
226.5962, 1656.831
227.0783, 1653.693
227.5604, 1650.120
228.0426, 1648.792
228.5247, 1649.252
229.0068, 1649.942
229.4889, 1650.502
229.9710, 1650.858
230.4531, 1650.801
230.9353, 1650.207
231.4174, 1649.398
231.8995, 1648.744
232.3816, 1648.119
232.8637, 1647.130
233.3458, 1645.190
233.8280, 1642.697
234.3101, 1640.950
234.7922, 1640.228
235.2743, 1639.911
235.7564, 1639.886
236.2385, 1639.952
236.7207, 1639.696
237.2028, 1638.885
237.6849, 1637.568
238.1670, 1635.794
238.6491, 1632.817
239.1312, 1630.567
239.6134, 1630.350
240.0955, 1631.217
240.5776, 1631.519
241.0597, 1630.122
241.5418, 1627.435
242.0239, 1625.466
242.5061, 1624.592
242.9882, 1623.987
243.4703, 1623.864
243.9524, 1623.731
244.4345, 1622.727
244.9166, 1620.150
245.3988, 1616.558
245.8809, 1614.711
246.3630, 1616.258
246.8451, 1617.528
247.3272, 1617.964
247.8093, 1617.650
248.2915, 1616.667
248.7736, 1615.031
249.2557, 1612.872
249.7378, 1610.715
250.2199, 1608.080
250.7020, 1606.097
251.1842, 1605.336
251.6663, 1605.160
252.1484, 1604.832
252.6305, 1603.990
253.1126, 1602.819
253.5947, 1601.865
254.0769, 1601.230
254.5590, 1600.750
255.0411, 1601.024
255.5232, 1601.219
256.0053, 1599.999
256.4874, 1596.822
256.9695, 1592.932
257.4517, 1591.335
257.9338, 1595.282
258.4159, 1597.744
258.8980, 1597.881
259.3801, 1596.851
259.8622, 1595.672
260.3444, 1594.717
260.8265, 1594.058
261.3086, 1593.874
261.7907, 1594.909
262.2728, 1595.186
262.7549, 1594.035
263.2371, 1592.419
263.7192, 1591.297
264.2013, 1590.920
264.6834, 1590.930
265.1655, 1590.913
265.6476, 1591.302
266.1298, 1590.363
266.6119, 1586.286
267.0940, 1581.847
267.5761, 1580.046
268.0582, 1581.388
268.5403, 1583.552
269.0225, 1583.823
269.5046, 1581.663
269.9867, 1579.820
270.4688, 1578.215
270.9509, 1577.049
271.4330, 1576.846
271.9152, 1577.588
272.3973, 1578.108
272.8794, 1577.095
273.3615, 1574.411
273.8436, 1572.644
274.3257, 1572.296
274.8079, 1572.538
275.2900, 1572.758
275.7721, 1572.923
276.2542, 1573.310
276.7363, 1574.259
277.2184, 1575.657
277.7006, 1576.574
278.1827, 1576.449
278.6648, 1576.274
279.1469, 1576.985
279.6290, 1578.446
280.1111, 1579.467
280.5933, 1579.107
281.0754, 1577.828
281.5575, 1577.332
282.0396, 1578.017
282.5217, 1578.994
283.0038, 1579.698
283.4860, 1580.208
283.9681, 1581.028
284.4502, 1582.702
284.9323, 1584.533
285.4144, 1585.048
285.8965, 1583.727
286.3787, 1582.432
286.8608, 1582.416
287.3429, 1583.323
287.8250, 1583.885
288.3071, 1583.730
288.7892, 1582.965
289.2714, 1581.653
289.7535, 1579.713
290.2356, 1577.958
290.7177, 1577.120
291.1998, 1576.764
291.6819, 1575.763
292.1641, 1573.898
292.6462, 1571.224
293.1283, 1567.304
293.6104, 1562.330
294.0925, 1558.088
294.5746, 1555.811
295.0568, 1554.672
295.5389, 1552.958
296.0210, 1550.305
296.5031, 1547.585
296.9852, 1545.618
297.4673, 1544.185
297.9495, 1542.729
298.4316, 1540.756
298.9137, 1538.787
299.3958, 1537.987
299.8779, 1538.744
300.3600, 1538.870
300.8422, 1536.173
301.3243, 1531.936
301.8064, 1528.313
302.2885, 1525.760
302.7706, 1523.974
303.2527, 1522.748
303.7349, 1522.109
304.2170, 1521.581
304.6991, 1520.900
305.1812, 1520.236
305.6633, 1519.847
306.1454, 1519.840
306.6276, 1519.927
307.1097, 1520.109
307.5918, 1520.345
308.0739, 1519.771
308.5560, 1517.599
309.0381, 1514.914
309.5203, 1512.951
310.0024, 1511.773
310.4845, 1510.881
310.9666, 1509.793
311.4487, 1508.648
311.9308, 1508.271
312.4130, 1509.292
312.8951, 1510.429
313.3772, 1510.436
313.8593, 1509.456
314.3414, 1508.378
314.8235, 1507.470
315.3057, 1506.793
315.7878, 1506.635
316.2699, 1507.302
316.7520, 1507.809
317.2341, 1507.585
317.7162, 1506.695
318.1984, 1505.084
318.6805, 1501.803
319.1626, 1498.230
319.6447, 1496.829
320.1268, 1498.009
320.6089, 1499.339
321.0911, 1499.445
321.5732, 1498.856
322.0553, 1498.234
322.5374, 1497.684
323.0195, 1497.183
323.5016, 1496.832
323.9838, 1496.636
324.4659, 1496.030
324.9480, 1494.294
325.4301, 1492.411
325.9122, 1491.650
326.3943, 1492.232
326.8765, 1493.083
327.3586, 1493.736
327.8407, 1494.106
328.3228, 1493.593
328.8049, 1491.594
329.2870, 1489.301
329.7692, 1488.071
330.2513, 1487.804
330.7334, 1487.376
331.2155, 1486.064
331.6976, 1484.222
332.1797, 1482.604
332.6619, 1481.216
333.1440, 1480.250
333.6261, 1480.432
334.1082, 1481.213
334.5903, 1481.195
335.0724, 1478.977
335.5546, 1476.227
336.0367, 1475.426
336.5188, 1476.788
337.0009, 1477.921
337.4830, 1477.022
337.9651, 1475.126
338.4473, 1474.302
338.9294, 1475.543
339.4115, 1476.677
339.8936, 1475.710
340.3758, 1472.903
340.8579, 1470.164
341.3400, 1467.987
341.8221, 1466.456
342.3042, 1465.724
342.7863, 1465.941
343.2685, 1466.045
343.7506, 1465.613
344.2327, 1464.682
344.7148, 1463.136
345.1969, 1460.680
345.6790, 1458.330
346.1612, 1457.620
346.6433, 1458.267
347.1254, 1458.570
347.6075, 1457.895
348.0896, 1456.734
348.5717, 1455.648
349.0539, 1454.677
349.5360, 1453.754
350.0181, 1452.608
350.5002, 1451.478
350.9823, 1451.247
351.4644, 1453.088
351.9466, 1454.883
352.4287, 1455.292
352.9108, 1454.433
353.3929, 1452.691
353.8750, 1449.801
354.3571, 1446.605
354.8393, 1445.306
355.3214, 1446.727
355.8035, 1447.882
356.2856, 1447.499
356.7677, 1446.173
357.2498, 1444.916
357.7320, 1444.000
358.2141, 1443.282
358.6962, 1442.528
359.1783, 1441.677
359.6604, 1441.179
360.1425, 1441.681
360.6247, 1442.197
361.1068, 1441.684
361.5889, 1440.093
362.0710, 1438.223
362.5531, 1436.644
363.0352, 1435.385
363.5174, 1434.593
363.9995, 1435.026
364.4816, 1435.132
364.9637, 1433.643
365.4458, 1431.197
365.9279, 1429.519
366.4101, 1429.577
366.8922, 1430.830
367.3743, 1431.540
367.8564, 1431.371
368.3385, 1431.169
368.8206, 1430.995
369.3028, 1430.856
369.7849, 1430.805
370.2670, 1430.847
370.7491, 1430.853
371.2312, 1430.680
371.7133, 1430.406
372.1955, 1429.601
372.6776, 1427.881
373.1597, 1426.003
373.6418, 1424.267
374.1239, 1422.776
374.6060, 1421.611
375.0882, 1420.815
375.5703, 1420.399
376.0524, 1420.475
376.5345, 1422.279
377.0166, 1423.174
377.4987, 1422.009
377.9809, 1419.708
378.4630, 1417.468
378.9451, 1415.832
379.4272, 1414.848
379.9093, 1414.682
380.3914, 1416.032
380.8736, 1417.066
381.3557, 1417.945
381.8378, 1418.366
382.3199, 1417.919
382.8020, 1416.656
383.2841, 1415.161
383.7663, 1414.101
384.2484, 1413.546
384.7305, 1412.860
385.2126, 1411.790
385.6947, 1410.811
386.1768, 1410.236
386.6590, 1409.853
387.1411, 1409.191
387.6232, 1407.890
388.1053, 1406.209
388.5874, 1405.074
389.0695, 1404.545
389.5517, 1404.499
390.0338, 1405.044
390.5159, 1405.906
390.9980, 1407.100
391.4801, 1408.614
391.9622, 1409.686
392.4444, 1408.944
392.9265, 1406.092
393.4086, 1404.388
393.8907, 1405.060
394.3728, 1406.272
394.8549, 1407.320
395.3371, 1408.060
395.8192, 1408.192
396.3013, 1407.255
396.7834, 1405.570
397.2655, 1404.106
397.7477, 1402.722
398.2298, 1401.932
398.7119, 1402.276
399.1940, 1403.283
399.6761, 1404.504
400.1582, 1406.005
400.6404, 1407.281
401.1225, 1407.940
401.6046, 1407.972
402.0867, 1407.064
402.5688, 1404.463
403.0509, 1401.605
403.5331, 1400.339
404.0152, 1400.692
404.4973, 1400.929
404.9794, 1399.931
405.4615, 1398.430
405.9436, 1397.854
406.4258, 1398.478
406.9079, 1399.175
407.3900, 1399.054
407.8721, 1398.209
408.3542, 1397.258
408.8363, 1395.811
409.3185, 1394.667
409.8006, 1394.742
410.2827, 1395.652
410.7648, 1395.916
411.2469, 1394.692
411.7290, 1392.835
412.2112, 1392.477
412.6933, 1394.489
413.1754, 1395.590
413.6575, 1394.147
414.1396, 1392.090
414.6217, 1391.686
415.1039, 1393.218
415.5860, 1395.074
416.0681, 1395.683
416.5502, 1394.932
417.0323, 1393.944
417.5144, 1392.279
417.9966, 1390.861
418.4787, 1389.970
418.9608, 1389.612
419.4429, 1389.823
419.9250, 1390.650
420.4071, 1391.858
420.8893, 1392.810
421.3714, 1393.484
421.8535, 1393.901
422.3356, 1394.351
422.8177, 1394.381
423.2998, 1393.301
423.7820, 1391.233
424.2641, 1389.224
424.7462, 1388.404
425.2283, 1388.854
425.7104, 1389.217
426.1925, 1389.831
426.6747, 1389.943
427.1568, 1389.322
427.6389, 1388.066
428.1210, 1386.119
428.6031, 1383.289
429.0852, 1380.423
429.5674, 1379.663
430.0495, 1381.943
430.5316, 1382.957
431.0137, 1379.699
431.4958, 1376.215
431.9779, 1375.524
432.4601, 1377.638
432.9422, 1379.742
433.4243, 1379.805
433.9064, 1378.107
434.3885, 1375.643
434.8706, 1371.973
435.3528, 1368.654
435.8349, 1366.380
436.3170, 1365.153
436.7991, 1365.380
437.2812, 1368.402
437.7633, 1371.151
438.2455, 1370.262
438.7276, 1366.216
439.2097, 1362.332
439.6918, 1359.631
440.1739, 1357.772
440.6560, 1356.427
441.1382, 1355.624
441.6203, 1354.720
442.1024, 1353.592
442.5845, 1352.245
443.0666, 1350.450
443.5487, 1348.258
444.0309, 1346.526
444.5130, 1346.063
444.9951, 1346.679
445.4772, 1346.503
445.9593, 1345.002
446.4414, 1343.462
446.9236, 1342.445
447.4057, 1341.584
447.8878, 1340.234
448.3699, 1338.184
448.8520, 1335.887
449.3341, 1334.020
449.8163, 1332.726
450.2984, 1331.506
450.7805, 1330.536
451.2626, 1329.474
451.7447, 1328.029
452.2268, 1326.330
452.7090, 1324.653
453.1911, 1323.138
453.6732, 1321.895
454.1553, 1321.546
454.6374, 1323.200
455.1195, 1323.814
455.6017, 1322.390
456.0838, 1320.210
456.5659, 1318.169
457.0480, 1316.485
457.5301, 1315.187
458.0122, 1314.437
458.4944, 1314.218
458.9765, 1313.891
459.4586, 1313.853
459.9407, 1313.020
460.4228, 1310.093
460.9049, 1306.205
461.3871, 1303.479
461.8692, 1303.063
462.3513, 1303.427
462.8334, 1302.836
463.3155, 1301.313
463.7976, 1299.357
464.2798, 1296.780
464.7619, 1294.247
465.2440, 1292.783
465.7261, 1292.408
466.2082, 1291.650
466.6903, 1289.158
467.1725, 1286.471
467.6546, 1285.880
468.1367, 1287.426
468.6188, 1288.841
469.1009, 1288.666
469.5830, 1287.108
470.0652, 1285.238
470.5473, 1282.687
471.0294, 1280.346
471.5115, 1278.319
471.9936, 1276.675
472.4757, 1275.649
472.9579, 1275.256
473.4400, 1274.961
473.9221, 1274.025
474.4042, 1272.151
474.8863, 1271.380
475.3684, 1273.249
475.8506, 1274.449
476.3327, 1273.512
476.8148, 1271.114
477.2969, 1268.466
477.7790, 1266.166
478.2611, 1263.979
478.7433, 1261.199
479.2254, 1257.091
479.7075, 1254.545
480.1896, 1255.642
480.6717, 1256.944
481.1538, 1256.443
481.6360, 1254.339
482.1181, 1252.147
482.6002, 1250.768
483.0823, 1250.083
483.5644, 1249.964
484.0465, 1250.725
484.5287, 1250.888
485.0108, 1249.274
485.4929, 1246.967
485.9750, 1245.152
486.4571, 1243.947
486.9392, 1243.277
487.4214, 1243.501
487.9035, 1244.168
488.3856, 1244.343
488.8677, 1243.894
489.3498, 1242.789
489.8319, 1240.758
490.3141, 1237.892
490.7962, 1235.632
491.2783, 1234.407
491.7604, 1233.309
492.2425, 1231.646
492.7246, 1229.866
493.2068, 1228.961
493.6889, 1229.283
494.1710, 1230.023
494.6531, 1229.872
495.1352, 1228.298
495.6173, 1227.542
496.0995, 1228.875
496.5816, 1229.677
497.0637, 1227.838
497.5458, 1224.523
498.0279, 1222.512
498.5100, 1223.490
498.9922, 1226.071
499.4743, 1226.513
499.9564, 1223.510
500.4385, 1221.676
500.9206, 1223.215
501.4027, 1224.861
501.8849, 1224.343
502.3670, 1221.857
502.8491, 1219.379
503.3312, 1218.376
503.8133, 1218.340
504.2954, 1218.010
504.7776, 1217.432
505.2597, 1216.316
505.7418, 1213.825
506.2239, 1211.130
506.7060, 1210.059
507.1881, 1211.131
507.6703, 1212.057
508.1524, 1211.450
508.6345, 1210.039
509.1166, 1209.000
509.5987, 1208.504
510.0808, 1208.289
510.5630, 1208.268
511.0451, 1208.372
511.5272, 1207.874
512.0093, 1205.929
512.4914, 1204.451
512.9735, 1204.033
513.4556, 1204.377
513.9377, 1205.491
514.4199, 1207.221
514.9020, 1208.500
515.3841, 1207.805
515.8662, 1204.742
516.3483, 1202.464
516.8304, 1201.960
517.3126, 1201.222
517.7947, 1199.517
518.2768, 1197.287
518.7589, 1195.189
519.2410, 1193.479
519.7231, 1191.746
520.2053, 1190.505
520.6874, 1188.958
521.1695, 1187.696
521.6516, 1186.768
522.1337, 1186.145
522.6158, 1186.057
523.0980, 1186.244
523.5801, 1185.945
524.0622, 1184.619
524.5443, 1182.961
525.0264, 1181.534
525.5085, 1180.365
525.9907, 1179.830
526.4728, 1180.325
526.9549, 1180.921
527.4370, 1180.036
527.9191, 1177.353
528.4012, 1175.327
528.8834, 1174.494
529.3655, 1174.147
529.8476, 1174.063
530.3297, 1174.061
530.8118, 1173.769
531.2939, 1172.976
531.7761, 1171.832
532.2582, 1170.717
532.7403, 1169.620
533.2224, 1168.549
533.7045, 1167.243
534.1866, 1166.165
534.6688, 1165.686
535.1509, 1165.681
535.6330, 1165.786
536.1151, 1165.878
536.5972, 1165.768
537.0793, 1164.736
537.5615, 1162.443
538.0436, 1160.692
538.5257, 1160.529
539.0078, 1160.753
539.4899, 1160.309
539.9720, 1159.197
540.4542, 1158.057
540.9363, 1157.061
541.4184, 1156.305
541.9005, 1156.185
542.3826, 1156.653
542.8647, 1156.573
543.3469, 1155.132
543.8290, 1152.988
544.3111, 1151.930
544.7932, 1152.581
545.2753, 1152.681
545.7574, 1151.393
546.2396, 1149.789
546.7217, 1148.787
547.2038, 1148.385
547.6859, 1148.085
548.1680, 1147.533
548.6501, 1146.811
549.1323, 1146.385
549.6144, 1147.046
550.0965, 1146.570
550.5786, 1143.533
551.0607, 1140.334
551.5428, 1138.806
552.0250, 1138.946
552.5071, 1139.517
552.9892, 1139.774
553.4713, 1139.744
553.9534, 1139.218
554.4355, 1137.901
554.9177, 1137.738
555.3998, 1140.881
555.8819, 1144.548
556.3640, 1144.727
556.8461, 1140.909
557.3282, 1137.337
557.8104, 1135.925
558.2925, 1135.453
558.7746, 1134.617
559.2567, 1133.315
559.7388, 1131.669
560.2209, 1129.564
560.7031, 1127.447
561.1852, 1126.753
561.6673, 1130.000
562.1494, 1131.074
562.6315, 1127.772
563.1136, 1123.940
563.5958, 1122.577
564.0779, 1123.414
564.5600, 1124.298
565.0421, 1123.631
565.5242, 1122.012
566.0063, 1121.607
566.4885, 1123.009
566.9706, 1123.887
567.4527, 1123.462
567.9348, 1122.470
568.4169, 1121.081
568.8990, 1119.451
569.3812, 1118.287
569.8633, 1118.500
570.3454, 1119.127
570.8275, 1118.619
571.3096, 1117.054
571.7917, 1115.693
572.2739, 1115.166
572.7560, 1114.949
573.2381, 1113.995
573.7202, 1112.002
574.2023, 1110.528
574.6844, 1109.895
575.1666, 1109.673
575.6487, 1109.907
576.1308, 1110.301
576.6129, 1110.114
577.0950, 1108.927
577.5771, 1107.312
578.0593, 1106.634
578.5414, 1107.450
579.0235, 1107.668
579.5056, 1106.760
579.9877, 1105.613
580.4698, 1104.437
580.9520, 1103.334
581.4341, 1102.480
581.9162, 1102.028
582.3983, 1101.691
582.8804, 1100.927
583.3625, 1099.814
583.8447, 1099.298
584.3268, 1099.742
584.8089, 1100.524
585.2910, 1101.373
585.7732, 1102.183
586.2553, 1101.721
586.7374, 1098.487
587.2195, 1095.425
587.7017, 1093.952
588.1838, 1093.731
588.6659, 1094.475
589.1480, 1096.010
589.6301, 1097.360
590.1122, 1097.228
590.5944, 1095.408
591.0765, 1094.031
591.5586, 1093.551
592.0407, 1092.982
592.5228, 1091.975
593.0049, 1090.799
593.4871, 1089.751
593.9692, 1088.906
594.4513, 1088.237
594.9334, 1087.639
595.4155, 1087.176
595.8976, 1087.310
596.3798, 1088.273
596.8619, 1088.917
597.3440, 1088.636
597.8261, 1087.517
598.3082, 1085.755
598.7903, 1082.702
599.2725, 1080.655
599.7546, 1081.047
600.2367, 1082.384
600.7188, 1083.351
601.2009, 1083.713
601.6830, 1083.308
602.1652, 1081.891
602.6473, 1079.952
603.1294, 1079.450
603.6115, 1081.969
604.0936, 1082.972
604.5757, 1080.957
605.0579, 1078.554
605.5400, 1077.459
606.0221, 1077.425
606.5042, 1077.198
606.9863, 1076.048
607.4684, 1074.386
607.9506, 1072.635
608.4327, 1070.813
608.9148, 1069.748
609.3969, 1069.850
609.8790, 1070.437
610.3611, 1071.043
610.8433, 1071.630
611.3254, 1071.433
611.8075, 1069.889
612.2896, 1068.047
612.7717, 1066.018
613.2538, 1064.186
613.7360, 1063.431
614.2181, 1063.922
614.7002, 1064.487
615.1823, 1063.615
615.6644, 1061.191
616.1465, 1059.670
616.6287, 1059.695
617.1108, 1059.769
617.5929, 1059.592
618.0750, 1059.224
618.5571, 1058.689
619.0392, 1058.002
619.5214, 1057.301
620.0035, 1056.646
620.4856, 1056.068
620.9677, 1055.694
621.4498, 1055.541
621.9319, 1055.289
622.4141, 1054.754
622.8962, 1054.063
623.3783, 1053.469
623.8604, 1052.978
624.3425, 1052.565
624.8246, 1052.202
625.3068, 1051.943
625.7889, 1051.903
626.2710, 1051.989
626.7531, 1052.001
627.2352, 1051.841
627.7173, 1051.527
628.1995, 1051.178
628.6816, 1050.894
629.1637, 1049.939
629.6458, 1047.661
630.1279, 1045.487
630.6100, 1043.836
631.0922, 1042.813
631.5743, 1042.766
632.0564, 1044.101
632.5385, 1045.440
633.0206, 1045.951
633.5027, 1045.726
633.9849, 1044.761
634.4670, 1043.079
634.9491, 1041.311
635.4312, 1039.851
635.9133, 1038.716
636.3954, 1037.966
636.8776, 1037.954
637.3597, 1037.883
637.8418, 1037.606
638.3239, 1037.365
638.8060, 1037.551
639.2881, 1037.950
639.7703, 1037.880
640.2524, 1036.888
640.7345, 1035.319
641.2166, 1033.752
641.6987, 1032.170
642.1808, 1030.760
642.6630, 1029.473
643.1451, 1028.481
643.6272, 1028.016
644.1093, 1027.983
644.5914, 1028.125
645.0735, 1029.091
645.5557, 1029.446
646.0378, 1028.055
646.5199, 1025.839
647.0020, 1023.988
647.4841, 1022.788
647.9662, 1022.132
648.4484, 1021.989
648.9305, 1022.279
649.4126, 1022.501
649.8947, 1023.001
650.3768, 1022.746
650.8589, 1021.155
651.3411, 1019.113
651.8232, 1017.073
652.3053, 1015.120
652.7874, 1013.306
653.2695, 1011.368
653.7516, 1009.855
654.2338, 1009.804
654.7159, 1010.884
655.1980, 1011.638
655.6801, 1011.676
656.1622, 1011.124
656.6443, 1010.035
657.1265, 1008.378
657.6086, 1006.809
658.0907, 1005.050
658.5728, 1003.716
659.0549, 1003.224
659.5370, 1003.059
660.0192, 1002.588
660.5013, 1001.787
660.9834, 1001.285
661.4655, 1001.959
661.9476, 1003.118
662.4297, 1002.129
662.9119, 998.5869
663.3940, 996.2379
663.8761, 996.8682
664.3582, 998.4157
664.8403, 998.2842
665.3224, 996.6323
665.8046, 995.4592
666.2867, 995.1342
666.7688, 995.3063
667.2509, 996.4749
667.7330, 997.7848
668.2151, 997.5997
668.6973, 995.6236
669.1794, 993.3470
669.6615, 992.3283
670.1436, 992.4737
670.6257, 992.4505
671.1078, 992.3748
671.5900, 991.8874
672.0721, 990.3964
672.5542, 988.7874
673.0363, 987.7073
673.5184, 987.1828
674.0005, 986.9542
674.4827, 987.0701
674.9648, 987.2935
675.4469, 987.5997
675.9290, 987.8213
676.4111, 987.2327
676.8932, 985.5875
677.3754, 984.0298
677.8575, 984.0138
678.3396, 985.6248
678.8217, 986.6052
679.3038, 986.9081
679.7859, 986.5958
680.2681, 984.9532
680.7502, 983.2030
681.2323, 982.5583
681.7144, 983.0411
682.1965, 983.6552
682.6786, 983.6878
683.1608, 983.5070
683.6429, 983.8817
684.1250, 984.7057
684.6071, 984.9276
685.0892, 984.0706
685.5714, 983.0930
686.0535, 983.1299
686.5356, 984.2509
687.0177, 985.1094
687.4998, 985.7226
687.9819, 986.0646
688.4641, 985.7482
688.9462, 985.3912
689.4283, 985.7844
689.9104, 986.8896
690.3925, 987.7764
690.8746, 987.3137
691.3568, 986.5594
691.8389, 988.6605
692.3210, 993.7821
692.8031, 997.5484
693.2852, 998.5502
693.7673, 998.3417
694.2495, 998.3201
694.7316, 998.4807
695.2137, 998.6495
695.6958, 998.1961
696.1779, 998.5144
696.6600, 1000.680
697.1422, 1003.510
697.6243, 1005.433
698.1064, 1006.468
698.5885, 1008.081
699.0706, 1011.511
699.5527, 1016.092
700.0349, 1019.979
700.5170, 1023.084
700.9991, 1025.920
701.4812, 1028.095
701.9633, 1030.720
702.4454, 1035.279
702.9276, 1041.136
703.4097, 1046.261
703.8918, 1050.204
704.3739, 1053.623
704.8560, 1056.797
705.3381, 1059.622
705.8203, 1062.084
706.3024, 1064.117
706.7845, 1065.432
707.2666, 1065.747
707.7487, 1065.510
708.2308, 1066.374
708.7130, 1069.113
709.1951, 1069.189
709.6772, 1064.758
710.1593, 1059.272
710.6414, 1054.877
711.1235, 1051.097
711.6057, 1046.935
712.0878, 1042.213
712.5699, 1037.147
713.0520, 1031.776
713.5341, 1026.213
714.0162, 1020.431
714.4984, 1014.575
714.9805, 1009.050
715.4626, 1004.064
715.9447, 999.4924
716.4268, 994.9847
716.9089, 990.4156
717.3911, 986.4218
717.8732, 983.1604
718.3553, 980.2463
718.8374, 977.7269
719.3195, 975.3176
719.8016, 972.5904
720.2838, 969.4291
720.7659, 966.1967
721.2480, 962.6663
721.7301, 959.4351
722.2122, 957.5483
722.6943, 956.5901
723.1765, 954.8750
723.6586, 951.6541
724.1407, 948.0831
724.6228, 946.0827
725.1049, 945.8885
725.5870, 944.8479
726.0692, 942.3704
726.5513, 940.0037
727.0334, 938.3810
727.5155, 937.0505
727.9976, 935.2369
728.4797, 932.9325
728.9619, 931.9397
729.4440, 934.5670
729.9261, 937.4982
730.4082, 937.4942
730.8903, 935.4271
731.3724, 933.2484
731.8546, 931.5961
732.3367, 930.8162
732.8188, 931.5248
733.3009, 933.4893
733.7830, 933.8893
734.2651, 932.4232
734.7473, 930.0419
735.2294, 925.4478
735.7115, 921.2540
736.1936, 919.5758
736.6757, 920.0345
737.1578, 920.6488
737.6400, 921.2859
738.1221, 921.2975
738.6042, 919.9991
739.0863, 917.8929
739.5684, 915.3773
740.0505, 912.7487
740.5327, 911.0795
741.0148, 911.2579
741.4969, 912.6442
741.9790, 913.3262
742.4611, 913.1905
742.9432, 912.7406
743.4254, 911.8464
743.9075, 910.8571
744.3896, 909.8973
744.8717, 909.0018
745.3538, 908.2972
745.8359, 907.9415
746.3181, 907.3230
746.8002, 905.5215
747.2823, 903.8000
747.7644, 904.1023
748.2465, 905.7195
748.7286, 905.8935
749.2108, 903.3676
749.6929, 900.1866
750.1750, 899.7906
750.6571, 902.3969
751.1392, 902.9582
751.6213, 900.3788
752.1035, 898.2864
752.5856, 898.5526
753.0677, 899.7321
753.5498, 900.0589
754.0319, 899.4830
754.5140, 898.9296
754.9962, 898.8257
755.4783, 898.5804
755.9604, 897.5478
756.4425, 896.2543
756.9246, 895.6161
757.4067, 895.7460
757.8889, 895.9586
758.3710, 895.7511
758.8531, 895.0677
759.3352, 893.4263
759.8173, 890.6051
760.2994, 888.8546
760.7816, 889.0715
761.2637, 889.7377
761.7458, 889.4984
762.2279, 888.6111
762.7100, 888.3503
763.1921, 889.6738
763.6743, 890.1908
764.1564, 888.4814
764.6385, 886.4759
765.1206, 885.9175
765.6027, 886.4488
766.0848, 886.6492
766.5670, 885.8392
767.0491, 884.8182
767.5312, 884.7700
768.0133, 885.4814
768.4954, 885.7840
768.9775, 885.5934
769.4597, 885.0427
769.9418, 884.0381
770.4239, 882.9246
770.9060, 882.3264
771.3881, 882.3895
771.8702, 882.3954
772.3524, 882.3859
772.8345, 882.2650
773.3166, 881.9943
773.7987, 881.5944
774.2808, 880.7619
774.7629, 879.6634
775.2451, 879.4302
775.7272, 881.5752
776.2093, 884.2831
776.6914, 884.6486
777.1735, 883.1652
777.6556, 881.8096
778.1378, 881.0284
778.6199, 880.4007
779.1020, 879.5033
779.5841, 878.5015
780.0662, 878.2619
780.5483, 878.9954
781.0305, 880.1017
781.5126, 882.9167
781.9947, 884.6956
782.4768, 883.1512
782.9589, 879.8467
783.4410, 877.7265
783.9232, 877.5546
784.4053, 878.3226
784.8874, 880.5002
785.3695, 882.5715
785.8516, 882.2485
786.3337, 880.0651
786.8159, 878.0687
787.2980, 877.0880
787.7801, 876.9440
788.2622, 877.7010
788.7443, 879.2838
789.2264, 879.0076
789.7086, 875.7104
790.1907, 873.8606
790.6728, 875.7245
791.1549, 878.6195
791.6370, 879.9496
792.1191, 879.8899
792.6013, 879.5646
793.0834, 878.9044
793.5655, 878.2894
794.0476, 878.0756
794.5297, 877.8263
795.0118, 877.0862
795.4940, 875.8619
795.9761, 874.3214
796.4582, 872.4974
796.9403, 870.7747
797.4224, 869.8116
797.9045, 869.5023
798.3867, 869.2371
798.8688, 868.9857
799.3509, 868.5297
799.8330, 867.6049
800.3151, 866.6652
800.7972, 866.7585
801.2794, 868.6036
801.7615, 868.6074
802.2436, 864.9378
802.7257, 861.8616
803.2078, 860.7822
803.6899, 860.8018
804.1721, 861.2485
804.6542, 861.8783
805.1363, 862.1660
805.6184, 861.6020
806.1005, 860.8503
806.5826, 860.7595
807.0648, 860.9817
807.5469, 860.6495
808.0290, 859.6609
808.5111, 858.5876
808.9932, 857.8127
809.4753, 857.2974
809.9575, 856.9808
810.4396, 856.9495
810.9217, 856.7105
811.4038, 856.1849
811.8859, 855.5400
812.3680, 854.8762
812.8502, 854.1295
813.3323, 853.1107
813.8144, 851.7278
814.2965, 850.7079
814.7786, 850.3303
815.2607, 850.2316
815.7429, 850.3652
816.2250, 850.5677
816.7071, 850.6541
817.1892, 850.5776
817.6713, 850.3244
818.1534, 849.7448
818.6356, 849.1916
819.1177, 849.5383
819.5998, 850.6393
820.0819, 851.4684
820.5640, 851.8845
821.0461, 851.5652
821.5283, 850.1008
822.0104, 847.9274
822.4925, 846.3834
822.9746, 845.6171
823.4567, 845.1278
823.9388, 844.9153
824.4210, 844.9802
824.9031, 845.7226
825.3852, 846.5460
825.8673, 846.6052
826.3494, 845.8011
826.8315, 845.0052
827.3137, 844.8674
827.7958, 844.6884
828.2779, 843.5731
828.7600, 842.1031
829.2421, 841.4060
829.7242, 841.6393
830.2064, 842.1599
830.6885, 842.5184
831.1706, 842.7133
831.6527, 842.6931
832.1348, 842.4431
832.6169, 842.3609
833.0991, 842.6708
833.5812, 842.4520
834.0633, 840.7126
834.5454, 838.4065
835.0275, 837.7469
835.5096, 839.5497
835.9918, 840.5573
836.4739, 840.3779
836.9560, 839.8357
837.4381, 838.7372
837.9202, 837.7410
838.4023, 837.8737
838.8845, 839.0254
839.3666, 839.6505
839.8487, 838.7280
840.3308, 837.1707
840.8129, 835.4131
841.2950, 833.8643
841.7772, 833.6598
842.2593, 834.7449
842.7414, 835.7008
843.2235, 835.6306
843.7056, 834.9081
844.1877, 834.3471
844.6699, 834.0159
845.1520, 832.8555
845.6341, 830.3096
846.1162, 828.4659
846.5983, 828.4973
847.0804, 829.3840
847.5626, 829.7175
848.0447, 829.4557
848.5268, 829.3231
849.0089, 830.1089
849.4910, 830.0410
849.9731, 827.3819
850.4553, 824.6176
850.9374, 824.4299
851.4195, 826.2204
851.9016, 827.4042
852.3837, 826.8432
852.8658, 825.4538
853.3480, 823.6745
853.8301, 821.8176
854.3122, 820.2721
854.7943, 819.1589
855.2764, 819.0104
855.7585, 820.0714
856.2407, 821.2963
856.7228, 821.2638
857.2049, 820.0764
857.6870, 819.0377
858.1691, 818.1004
858.6512, 817.5840
859.1334, 817.9579
859.6155, 818.1299
860.0976, 816.7479
860.5797, 814.2435
861.0618, 813.0637
861.5439, 814.2128
862.0261, 814.9764
862.5082, 814.8719
862.9903, 814.5153
863.4724, 814.1183
863.9545, 813.7864
864.4366, 813.7651
864.9188, 814.0931
865.4009, 814.0831
865.8830, 812.8552
866.3651, 811.3969
866.8472, 810.9990
867.3293, 811.2504
867.8115, 811.0179
868.2936, 810.1254
868.7757, 809.4049
869.2578, 809.5529
869.7399, 808.7809
870.2220, 809.6940
870.7042, 808.2721
871.1863, 807.5541
871.6684, 807.8944
872.1505, 808.1414
872.6326, 807.6591
873.1147, 806.7919
873.5969, 806.0756
874.0790, 805.4950
874.5611, 805.1498
875.0432, 805.1112
875.5253, 805.2009
876.0074, 805.8344
876.4896, 806.2176
876.9717, 805.2835
877.4538, 803.4576
877.9359, 802.5114
878.4180, 803.5891
878.9001, 804.2765
879.3823, 802.3373
879.8644, 799.7725
880.3465, 799.1641
880.8286, 799.9279
881.3107, 799.8510
881.7928, 798.1834
882.2750, 796.2962
882.7571, 795.7387
883.2392, 796.0923
883.7213, 795.8615
884.2034, 795.1217
884.6855, 795.3807
885.1677, 797.1459
885.6498, 798.8260
886.1319, 799.2020
886.6140, 798.5172
887.0961, 797.5450
887.5782, 796.0681
888.0604, 794.8519
888.5425, 793.9851
889.0246, 793.2595
889.5067, 792.7805
889.9888, 792.2770
890.4709, 791.2596
890.9531, 789.7188
891.4352, 788.7307
891.9173, 788.8677
892.3994, 789.1488
892.8815, 789.3396
893.3636, 789.3633
893.8458, 789.0677
894.3279, 788.5510
894.8100, 788.0960
895.2921, 787.8324
895.7742, 787.6020
896.2563, 787.2823
896.7385, 786.8893
897.2206, 786.3121
897.7027, 785.6758
898.1848, 785.5414
898.6669, 786.0608
899.1490, 786.6788
899.6312, 786.8998
900.1133, 786.7312
900.5954, 786.0023
901.0775, 784.6010
901.5596, 784.0615
902.0417, 784.9028
902.5239, 785.5703
903.0060, 785.0010
903.4881, 783.8074
903.9702, 783.2897
904.4523, 783.7235
904.9344, 783.7021
905.4166, 782.6627
905.8987, 781.8870
906.3808, 781.6492
906.8629, 781.7855
907.3450, 782.2982
907.8271, 783.0725
908.3093, 783.7688
908.7914, 784.6044
909.2735, 784.7343
909.7556, 782.7430
910.2377, 780.7917
910.7198, 781.3911
911.2020, 783.3803
911.6841, 784.1140
912.1662, 782.8928
912.6483, 781.3842
913.1304, 781.0599
913.6125, 781.2186
914.0947, 780.6559
914.5768, 779.6092
915.0589, 778.8702
915.5410, 778.5494
916.0231, 778.2027
916.5052, 777.5048
916.9874, 776.8610
917.4695, 777.2232
917.9516, 778.6475
918.4337, 779.5014
918.9158, 779.7494
919.3979, 779.5234
919.8801, 778.7675
920.3622, 777.7392
920.8443, 776.6403
921.3264, 775.4952
921.8085, 774.6150
922.2906, 774.3057
922.7728, 773.7585
923.2549, 772.5876
923.7370, 771.5695
924.2191, 771.3664
924.7012, 771.4180
925.1833, 770.7214
925.6655, 769.1191
926.1476, 767.9855
926.6297, 767.1150
927.1118, 767.5439
927.5939, 771.7882
928.0760, 776.2058
928.5582, 776.2193
929.0403, 772.5784
929.5224, 769.2738
930.0045, 768.0480
930.4866, 767.5564
930.9688, 766.5587
931.4509, 765.5060
931.9330, 765.2331
932.4151, 765.5348
932.8972, 765.8182
933.3793, 765.8622
933.8615, 765.3186
934.3436, 763.7021
934.8257, 761.7066
935.3078, 761.2642
935.7899, 762.2443
936.2720, 762.6825
936.7542, 762.3345
937.2363, 761.8614
937.7184, 761.5842
938.2005, 761.3537
938.6826, 760.9014
939.1647, 760.2147
939.6469, 760.0240
940.1290, 760.8645
940.6111, 760.8662
941.0932, 759.1279
941.5753, 757.1821
942.0574, 755.8796
942.5396, 755.2245
943.0217, 755.3265
943.5038, 756.7531
943.9859, 757.2098
944.4680, 755.6181
944.9501, 754.1290
945.4323, 753.4398
945.9144, 753.3195
946.3965, 753.8000
946.8786, 754.6411
947.3607, 754.9785
947.8428, 754.4609
948.3250, 753.5316
948.8071, 751.8638
949.2892, 750.3714
949.7713, 750.1682
950.2534, 750.7424
950.7355, 751.0475
951.2177, 750.7922
951.6998, 750.2639
952.1819, 749.3841
952.6640, 748.7274
953.1461, 749.2919
953.6282, 750.6389
954.1104, 752.0477
954.5925, 753.2474
955.0746, 753.4531
955.5567, 752.2639
956.0388, 750.4355
956.5209, 748.7792
957.0031, 747.3878
957.4852, 746.8898
957.9673, 747.2799
958.4494, 747.5710
958.9315, 747.5779
959.4136, 747.1517
959.8958, 746.1318
960.3779, 744.6950
960.8600, 743.1912
961.3421, 741.4527
961.8242, 740.5890
962.3063, 740.9380
962.7885, 741.3654
963.2706, 741.7291
963.7527, 741.7106
964.2348, 740.6193
964.7169, 738.7385
965.1990, 738.1552
965.6812, 740.0878
966.1633, 741.4613
966.6454, 742.4704
967.1275, 742.6940
967.6096, 741.3762
968.0917, 739.5144
968.5739, 738.4417
969.0560, 738.1988
969.5381, 737.6511
970.0202, 735.9059
970.5023, 734.6293
970.9844, 735.1524
971.4666, 735.6992
971.9487, 734.1689
972.4308, 731.7359
972.9129, 731.1631
973.3950, 733.1281
973.8771, 734.9003
974.3593, 734.8379
974.8414, 733.9235
975.3235, 732.3705
975.8056, 730.8848
976.2877, 730.7638
976.7698, 731.7651
977.2520, 732.5886
977.7341, 732.6364
978.2162, 732.1006
978.6983, 730.8141
979.1804, 729.2833
979.6625, 728.3692
980.1447, 728.0836
980.6268, 728.5594
981.1089, 729.7303
981.5910, 730.9518
982.0731, 731.8079
982.5552, 732.3021
983.0374, 732.4898
983.5195, 732.3412
984.0016, 731.4597
984.4837, 729.8394
984.9658, 728.5726
985.4479, 728.0072
985.9301, 727.8760
986.4122, 727.9897
986.8943, 728.2542
987.3764, 728.4010
987.8585, 728.4987
988.3406, 727.8004
988.8228, 725.7596
989.3049, 724.8004
989.7870, 726.4626
990.2691, 728.6250
990.7512, 728.6310
991.2333, 726.6998
991.7155, 725.6464
992.1976, 726.2162
992.6797, 726.0423
993.1618, 724.2309
993.6439, 722.6811
994.1260, 722.5428
994.6082, 723.0300
995.0903, 722.9233
995.5724, 722.1865
996.0545, 721.9907
996.5366, 723.1180
997.0187, 723.7341
997.5009, 722.8365
997.9830, 722.0726
998.4651, 723.2148
998.9472, 724.8672
999.4293, 724.2092
999.9114, 720.7280
1000.394, 718.3214
1000.876, 718.9397
1001.358, 719.7243
1001.840, 719.2670
1002.322, 718.6541
1002.804, 719.1951
1003.286, 720.3262
1003.768, 720.4916
1004.250, 719.2157
1004.733, 717.9666
1005.215, 717.6928
1005.697, 717.5682
1006.179, 716.7908
1006.661, 715.9168
1007.143, 715.7873
1007.625, 716.2772
1008.107, 716.5978
1008.590, 716.3905
1009.072, 716.3754
1009.554, 717.9269
1010.036, 719.3583
1010.518, 717.8756
1011.000, 714.9873
1011.482, 713.8555
1011.964, 714.7258
1012.446, 715.8806
1012.929, 716.4472
1013.411, 716.3572
1013.893, 715.0186
1014.375, 713.2235
1014.857, 712.7240
1015.339, 713.2224
1015.821, 713.3971
1016.303, 713.0402
1016.786, 713.2597
1017.268, 714.9365
1017.750, 716.8066
1018.232, 716.6707
1018.714, 714.9480
1019.196, 713.0763
1019.678, 711.2103
1020.160, 710.1523
1020.642, 710.1181
1021.125, 710.7015
1021.607, 711.6758
1022.089, 712.6842
1022.571, 712.8342
1023.053, 712.1719
1023.535, 711.5224
1024.017, 710.9040
1024.499, 710.6442
1024.981, 710.9016
1025.464, 711.1432
1025.946, 710.8843
1026.428, 710.2441
1026.910, 709.5529
1027.392, 708.7935
1027.874, 708.0203
1028.356, 707.0430
1028.838, 707.1571
1029.321, 709.2012
1029.803, 711.3418
1030.285, 711.7697
1030.767, 710.8080
1031.249, 709.8801
1031.731, 708.9464
1032.213, 708.1970
1032.695, 707.7465
1033.177, 707.1609
1033.660, 706.1848
1034.142, 705.1555
1034.624, 704.3411
1035.106, 703.7818
1035.588, 703.8105
1036.070, 704.8440
1036.552, 705.4959
1037.034, 705.9362
1037.516, 705.6194
1037.999, 703.7138
1038.481, 701.6273
1038.963, 701.0328
1039.445, 701.6934
1039.927, 701.7448
1040.409, 700.3068
1040.891, 699.8316
1041.373, 701.3939
1041.856, 702.5623
1042.338, 702.2200
1042.820, 701.2266
1043.302, 700.2174
1043.784, 699.2692
1044.266, 698.9208
1044.748, 700.4366
1045.230, 700.4537
1045.713, 696.7473
1046.195, 693.9885
1046.677, 695.1117
1047.159, 697.3285
1047.641, 697.4387
1048.123, 695.6871
1048.605, 694.5926
1049.087, 694.4477
1049.569, 694.9142
1050.052, 696.6730
1050.534, 698.1688
1051.016, 698.8156
1051.498, 698.7374
1051.980, 697.7673
1052.462, 696.1357
1052.944, 695.0241
1053.426, 694.7512
1053.908, 694.7698
1054.391, 695.2874
1054.873, 695.6879
1055.355, 695.6917
1055.837, 695.3904
1056.319, 694.9041
1056.801, 694.2332
1057.283, 693.1514
1057.765, 690.7029
1058.248, 690.0143
1058.730, 694.1351
1059.212, 697.8267
1059.694, 697.8406
1060.176, 696.0735
1060.658, 694.3948
1061.140, 693.1445
1061.622, 692.5780
1062.104, 693.1271
1062.587, 693.3318
1063.069, 692.3225
1063.551, 691.2132
1064.033, 690.5995
1064.515, 690.2756
1064.997, 690.0205
1065.479, 689.7903
1065.961, 689.5760
1066.443, 689.3936
1066.926, 689.1508
1067.408, 688.4871
1067.890, 688.1165
1068.372, 688.9552
1068.854, 689.9603
1069.336, 689.8723
1069.818, 688.8436
1070.300, 687.7372
1070.783, 686.6976
1071.265, 686.0812
1071.747, 686.3153
1072.229, 686.6988
1072.711, 686.9034
1073.193, 686.9651
1073.675, 686.4661
1074.157, 685.9348
1074.640, 687.1668
1075.122, 691.0755
1075.604, 693.4757
1076.086, 691.3748
1076.568, 688.5041
1077.050, 686.5927
1077.532, 685.3782
1078.014, 684.6746
1078.496, 684.3453
1078.979, 684.2344
1079.461, 684.3126
1079.943, 684.3663
1080.425, 684.3013
1080.907, 684.1818
1081.389, 684.0771
1081.871, 683.9059
1082.353, 683.6614
1082.836, 683.2643
1083.318, 682.4152
1083.800, 681.0641
1084.282, 680.1732
1084.764, 680.3740
1085.246, 680.8618
1085.728, 681.6057
1086.210, 682.1249
1086.693, 681.6389
1087.175, 680.7768
1087.657, 680.7691
1088.139, 681.7816
1088.621, 682.7342
1089.103, 683.3333
1089.585, 683.5920
1090.067, 683.4677
1090.549, 683.0447
1091.031, 682.0739
1091.514, 681.0091
1091.996, 680.3275
1092.478, 680.1770
1092.960, 680.9835
1093.442, 683.8323
1093.924, 685.8853
1094.406, 685.6437
1094.888, 684.7625
1095.371, 684.1081
1095.853, 683.6057
1096.335, 683.1224
1096.817, 682.6191
1097.299, 681.9999
1097.781, 681.1251
1098.263, 680.4510
1098.745, 680.0936
1099.228, 680.0201
1099.710, 680.4995
1100.192, 681.0412
1100.674, 681.0378
1101.156, 680.6378
1101.638, 680.4631
1102.120, 680.6581
1102.602, 680.9568
1103.084, 681.8008
1103.567, 682.0689
1104.049, 680.5748
1104.531, 678.9711
1105.013, 678.8751
1105.495, 679.7271
1105.977, 680.0371
1106.459, 679.5560
1106.941, 679.0004
1107.423, 677.7198
1107.906, 677.4492
1108.388, 680.1004
1108.870, 682.4284
1109.352, 681.9404
1109.834, 679.8468
1110.316, 678.1992
1110.798, 677.1177
1111.280, 676.3725
1111.763, 675.9201
1112.245, 675.8502
1112.727, 676.7650
1113.209, 677.3933
1113.691, 677.1459
1114.173, 676.2543
1114.655, 674.7179
1115.137, 672.6367
1115.620, 671.2975
1116.102, 670.9171
1116.584, 670.9075
1117.066, 671.6437
1117.548, 672.1768
1118.030, 672.2773
1118.512, 671.9232
1118.994, 670.9822
1119.476, 669.5779
1119.958, 668.1255
1120.441, 666.2043
1120.923, 665.6777
1121.405, 667.3446
1121.887, 668.6720
1122.369, 669.0303
1122.851, 668.8658
1123.333, 668.4912
1123.815, 667.8185
1124.298, 666.4871
1124.780, 666.1788
1125.262, 665.8697
1125.744, 664.9141
1126.226, 665.5275
1126.708, 664.8815
1127.190, 664.0116
1127.672, 663.4022
1128.155, 663.0966
1128.637, 663.2324
1129.119, 663.7204
1129.601, 663.6847
1130.083, 663.0065
1130.565, 663.3340
1131.047, 665.0213
1131.529, 665.7288
1132.011, 664.3645
1132.494, 662.8089
1132.976, 663.0532
1133.458, 664.3731
1133.940, 664.6298
1134.422, 663.9210
1134.904, 663.5280
1135.386, 663.4796
1135.868, 663.0152
1136.350, 661.9421
1136.833, 660.9572
1137.315, 660.5330
1137.797, 660.5992
1138.279, 661.3063
1138.761, 662.3506
1139.243, 662.5720
1139.725, 662.1484
1140.207, 661.7585
1140.690, 661.5626
1141.172, 661.8023
1141.654, 662.5816
1142.136, 663.1296
1142.618, 662.3671
1143.100, 662.6016
1143.582, 661.0576
1144.064, 661.5092
1144.547, 660.8533
1145.029, 659.5144
1145.511, 659.4933
1145.993, 661.1756
1146.475, 662.5813
1146.957, 662.2358
1147.439, 661.4115
1147.921, 661.6699
1148.403, 661.9002
1148.885, 659.9158
1149.368, 657.3170
1149.850, 657.4817
1150.332, 660.1422
1150.814, 661.9824
1151.296, 661.5932
1151.778, 660.5394
1152.260, 659.1616
1152.742, 658.1376
1153.225, 658.1036
1153.707, 658.5145
1154.189, 659.1666
1154.671, 659.6567
1155.153, 658.9611
1155.635, 656.8531
1156.117, 655.6945
1156.599, 657.0986
1157.082, 658.3201
1157.564, 658.3610
1158.046, 658.1230
1158.528, 658.1051
1159.010, 658.1799
1159.492, 658.0385
1159.974, 657.7399
1160.456, 657.8644
1160.938, 658.4716
1161.421, 659.4816
1161.903, 661.7269
1162.385, 663.1762
1162.867, 663.1600
1163.349, 662.2477
1163.831, 660.3967
1164.313, 658.2371
1164.795, 657.3590
1165.277, 657.8867
1165.760, 658.7135
1166.242, 660.1139
1166.724, 660.9305
1167.206, 660.9378
1167.688, 660.4219
1168.170, 659.3367
1168.652, 658.3646
1169.134, 658.4747
1169.617, 659.3788
1170.099, 659.6537
1170.581, 659.2900
1171.063, 659.2051
1171.545, 659.4562
1172.027, 659.7762
1172.509, 660.0872
1172.991, 660.1957
1173.474, 659.9189
1173.956, 659.5605
1174.438, 659.8328
1174.920, 659.3480
1175.402, 659.9936
1175.884, 658.9266
1176.366, 658.3966
1176.848, 658.5222
1177.330, 658.8865
1177.813, 659.2955
1178.295, 659.5617
1178.777, 659.3795
1179.259, 659.1843
1179.741, 659.7823
1180.223, 660.5269
1180.705, 660.4955
1181.187, 659.8396
1181.669, 658.6082
1182.152, 657.1682
1182.634, 657.0998
1183.116, 659.6188
1183.598, 661.7032
1184.080, 661.4117
1184.562, 660.2829
1185.044, 658.6082
1185.526, 657.2318
1186.009, 657.3191
1186.491, 658.2761
1186.973, 658.4688
1187.455, 657.5607
1187.937, 657.2194
1188.419, 657.8860
1188.901, 658.9713
1189.383, 661.3532
1189.865, 662.9722
1190.348, 662.2571
1190.830, 660.6529
1191.312, 659.4573
1191.794, 658.7092
1192.276, 658.6553
1192.758, 659.6594
1193.240, 660.0527
1193.722, 659.4861
1194.204, 659.4283
1194.687, 660.4332
1195.169, 661.3143
1195.651, 661.3163
1196.133, 661.3077
1196.615, 660.3224
1197.097, 659.8344
1197.579, 658.6145
1198.061, 658.1658
1198.544, 658.0635
1199.026, 657.2327
1199.508, 658.0012
1199.990, 657.9983
1200.472, 657.4805
1200.954, 656.5341
1201.436, 655.7570
1201.918, 656.3398
1202.401, 657.5760
1202.883, 658.1979
1203.365, 658.2426
1203.847, 657.6901
1204.329, 656.7617
1204.811, 656.1993
1205.293, 656.2509
1205.775, 656.0070
1206.257, 654.4295
1206.740, 652.9188
1207.222, 652.6179
1207.704, 652.7200
1208.186, 652.6230
1208.668, 652.3597
1209.150, 651.8245
1209.632, 651.2205
1210.114, 651.5173
1210.596, 653.4673
1211.079, 654.5271
1211.561, 653.4333
1212.043, 652.4406
1212.525, 652.2079
1213.007, 652.3079
1213.489, 652.7308
1213.971, 653.0889
1214.453, 652.6298
1214.936, 651.4294
1215.418, 650.9744
1215.900, 651.3843
1216.382, 652.2502
1216.864, 653.8920
1217.346, 654.3288
1217.828, 652.7525
1218.310, 650.7598
1218.792, 649.4732
1219.275, 648.8591
1219.757, 649.0951
1220.239, 649.8909
1220.721, 649.7559
1221.203, 648.8640
1221.685, 647.9987
1222.167, 647.2701
1222.649, 646.5355
1223.131, 645.7726
1223.614, 645.3331
1224.096, 645.5623
1224.578, 645.9761
1225.060, 645.8915
1225.542, 645.8217
1226.024, 646.6669
1226.506, 647.7759
1226.988, 648.0565
1227.471, 647.6212
1227.953, 647.2963
1228.435, 647.3259
1228.917, 646.9156
1229.399, 645.1378
1229.881, 643.7689
1230.363, 643.4421
1230.845, 643.6142
1231.328, 644.5989
1231.810, 645.4385
1232.292, 644.6918
1232.774, 642.8331
1233.256, 641.7135
1233.738, 641.3083
1234.220, 641.9174
1234.702, 644.1940
1235.184, 645.2808
1235.667, 644.4550
1236.149, 643.1296
1236.631, 641.9584
1237.113, 640.9634
1237.595, 640.1430
1238.077, 639.5685
1238.559, 639.5970
1239.041, 640.0600
1239.523, 640.1428
1240.006, 639.8104
1240.488, 638.8802
1240.970, 637.5057
1241.452, 636.7064
1241.934, 636.9846
1242.416, 637.6291
1242.898, 638.2831
1243.380, 638.6398
1243.863, 637.9611
1244.345, 637.1851
1244.827, 637.3580
1245.309, 638.2233
1245.791, 639.5126
1246.273, 640.9479
1246.755, 641.5785
1247.237, 640.8130
1247.719, 640.4582
1248.202, 641.8648
1248.684, 642.4069
1249.166, 640.3001
1249.648, 638.2949
1250.130, 638.0774
1250.612, 638.6999
1251.094, 638.9808
1251.576, 638.9485
1252.058, 638.7615
1252.541, 638.4100
1253.023, 637.8319
1253.505, 636.9330
1253.987, 637.2238
1254.469, 639.0905
1254.951, 640.2347
1255.433, 639.2840
1255.915, 637.8821
1256.398, 637.9506
1256.880, 639.0256
1257.362, 640.7617
1257.844, 642.5119
1258.326, 642.8503
1258.808, 642.1262
1259.290, 641.2074
1259.772, 640.3811
1260.255, 639.7653
1260.737, 639.3680
1261.219, 639.5473
1261.701, 641.4341
1262.183, 642.6826
1262.665, 641.0344
1263.147, 639.5273
1263.629, 640.9457
1264.111, 643.5121
1264.594, 644.5417
1265.076, 644.2576
1265.558, 644.5330
1266.040, 645.8056
1266.522, 645.9632
1267.004, 644.6961
1267.486, 643.2574
1267.968, 641.6823
1268.450, 641.0713
1268.933, 642.1077
1269.415, 643.5455
1269.897, 644.0125
1270.379, 643.8066
1270.861, 643.4370
1271.343, 643.0676
1271.825, 643.3489
1272.307, 644.0433
1272.790, 644.3402
1273.272, 644.2157
1273.754, 644.2061
1274.236, 644.5092
1274.718, 644.8672
1275.200, 645.4648
1275.682, 645.5656
1276.164, 643.6283
1276.646, 642.2600
1277.129, 644.5456
1277.611, 647.5066
1278.093, 647.3314
1278.575, 644.8565
1279.057, 643.3788
1279.539, 643.1243
1280.021, 643.1676
1280.503, 643.3962
1280.985, 643.9669
1281.468, 645.3181
1281.950, 646.0931
1282.432, 645.6780
1282.914, 645.0780
1283.396, 645.1435
1283.878, 645.5407
1284.360, 645.4709
1284.842, 644.9901
1285.325, 644.3636
1285.807, 643.7054
##END=



