##NAMES=Moraesite
##RRUFFID=R060876
##IDEAL CHEMISTRY=Be_2_PO_4_(OH)&#183;4H_2_O
##LOCALITY=Galileia, Minas Gerais, Brazil
##OWNER=RRUFF
##SOURCE=Bob Jenkins
##DESCRIPTION=Colorless to tan fibrous crystals associated with beryllonite
##STATUS=The identification of this mineral is confirmed by single-crystal X-ray diffraction and chemical analysis.
##URL=rruff.info/R060876
##MEASURED CHEMISTRY=Be_2.00_P_1.00_O_4_((OH)_0.85_F_0.15_)_Σ=1_·4H_2_O; trace amounts of Al and Fe; Be and H not measured but assumed by stoichiometry
156.1903, 906.4733
156.6724, 924.8364
157.1546, 938.2850
157.6367, 941.2795
158.1188, 942.4326
158.6009, 943.8003
159.0830, 944.2489
159.5652, 948.8547
160.0473, 962.1983
160.5294, 980.5229
161.0115, 996.3138
161.4936, 1007.219
161.9757, 1015.186
162.4579, 1020.849
162.9400, 1022.313
163.4221, 1024.862
163.9042, 1032.171
164.3863, 1042.646
164.8684, 1050.988
165.3506, 1052.119
165.8327, 1051.367
166.3148, 1053.196
166.7969, 1062.732
167.2790, 1071.244
167.7611, 1071.492
168.2433, 1064.654
168.7254, 1060.861
169.2075, 1068.317
169.6896, 1081.373
170.1717, 1093.386
170.6538, 1104.776
171.1360, 1112.312
171.6181, 1110.531
172.1002, 1098.997
172.5823, 1089.703
173.0644, 1096.095
173.5465, 1110.518
174.0287, 1119.356
174.5108, 1112.758
174.9929, 1099.120
175.4750, 1086.537
175.9571, 1075.296
176.4392, 1066.539
176.9214, 1063.183
177.4035, 1063.618
177.8856, 1063.322
178.3677, 1060.740
178.8498, 1055.676
179.3319, 1045.918
179.8141, 1028.569
180.2962, 1013.321
180.7783, 1015.183
181.2604, 1031.282
181.7425, 1046.601
182.2246, 1049.062
182.7068, 1043.464
183.1889, 1041.095
183.6710, 1044.324
184.1531, 1051.198
184.6352, 1061.507
185.1173, 1074.914
185.5995, 1083.563
186.0816, 1076.812
186.5637, 1059.062
187.0458, 1046.287
187.5279, 1042.646
188.0100, 1046.238
188.4922, 1054.191
188.9743, 1066.795
189.4564, 1080.531
189.9385, 1093.752
190.4206, 1106.018
190.9027, 1113.685
191.3849, 1113.693
191.8670, 1108.373
192.3491, 1106.146
192.8312, 1107.054
193.3133, 1110.771
193.7955, 1119.313
194.2776, 1132.502
194.7597, 1141.409
195.2418, 1139.284
195.7239, 1128.278
196.2060, 1126.980
196.6882, 1137.530
197.1703, 1152.480
197.6524, 1161.243
198.1345, 1163.440
198.6166, 1163.832
199.0987, 1164.025
199.5809, 1164.017
200.0630, 1164.197
200.5451, 1164.666
201.0272, 1165.168
201.5093, 1164.668
201.9914, 1162.679
202.4736, 1162.256
202.9557, 1168.266
203.4378, 1182.250
203.9199, 1182.383
204.4020, 1162.756
204.8841, 1132.830
205.3663, 1117.881
205.8484, 1121.929
206.3305, 1127.176
206.8126, 1120.859
207.2947, 1099.779
207.7768, 1088.045
208.2590, 1091.325
208.7411, 1104.141
209.2232, 1106.057
209.7053, 1093.275
210.1874, 1078.608
210.6695, 1070.646
211.1517, 1070.697
211.6338, 1072.411
212.1159, 1077.003
212.5980, 1082.874
213.0801, 1078.333
213.5622, 1057.535
214.0444, 1037.420
214.5265, 1033.959
215.0086, 1053.754
215.4907, 1068.572
215.9728, 1072.543
216.4549, 1066.639
216.9371, 1064.312
217.4192, 1067.648
217.9013, 1071.515
218.3834, 1070.404
218.8655, 1061.816
219.3476, 1055.050
219.8298, 1052.033
220.3119, 1052.806
220.7940, 1054.917
221.2761, 1058.474
221.7582, 1063.256
222.2403, 1069.487
222.7225, 1078.126
223.2046, 1085.843
223.6867, 1092.450
224.1688, 1098.309
224.6509, 1098.711
225.1330, 1090.103
225.6152, 1079.366
226.0973, 1076.065
226.5794, 1084.079
227.0615, 1091.581
227.5436, 1094.835
228.0257, 1092.751
228.5079, 1093.359
228.9900, 1098.258
229.4721, 1104.651
229.9542, 1108.047
230.4363, 1105.832
230.9185, 1105.463
231.4006, 1110.478
231.8827, 1123.612
232.3648, 1129.949
232.8469, 1125.682
233.3290, 1116.903
233.8112, 1114.692
234.2933, 1123.803
234.7754, 1131.556
235.2575, 1133.472
235.7396, 1127.932
236.2217, 1121.422
236.7039, 1111.909
237.1860, 1102.312
237.6681, 1098.480
238.1502, 1102.035
238.6323, 1108.856
239.1144, 1119.233
239.5966, 1138.536
240.0787, 1145.585
240.5608, 1132.913
241.0429, 1110.727
241.5250, 1102.820
242.0071, 1117.694
242.4893, 1133.999
242.9714, 1142.373
243.4535, 1138.333
243.9356, 1137.382
244.4177, 1141.345
244.8998, 1147.940
245.3820, 1150.995
245.8641, 1148.720
246.3462, 1145.523
246.8283, 1143.175
247.3104, 1141.303
247.7925, 1141.484
248.2747, 1145.640
248.7568, 1151.439
249.2389, 1151.285
249.7210, 1139.776
250.2031, 1130.499
250.6852, 1131.507
251.1674, 1150.754
251.6495, 1160.730
252.1316, 1156.827
252.6137, 1143.775
253.0958, 1136.697
253.5779, 1138.323
254.0601, 1141.696
254.5422, 1142.934
255.0243, 1140.277
255.5064, 1140.079
255.9885, 1143.087
256.4706, 1148.646
256.9528, 1155.070
257.4349, 1163.624
257.9170, 1170.958
258.3991, 1175.248
258.8812, 1175.732
259.3633, 1174.829
259.8455, 1171.095
260.3276, 1166.344
260.8097, 1167.697
261.2918, 1178.302
261.7739, 1189.266
262.2560, 1195.681
262.7382, 1196.532
263.2203, 1195.746
263.7024, 1193.072
264.1845, 1189.057
264.6666, 1184.783
265.1487, 1178.664
265.6309, 1175.649
266.1130, 1180.099
266.5951, 1195.331
267.0772, 1206.249
267.5593, 1211.428
268.0414, 1211.809
268.5236, 1209.513
269.0057, 1202.905
269.4878, 1197.517
269.9699, 1196.213
270.4520, 1198.925
270.9341, 1207.345
271.4163, 1225.200
271.8984, 1247.115
272.3805, 1254.011
272.8626, 1240.697
273.3447, 1227.866
273.8268, 1230.130
274.3090, 1250.261
274.7911, 1265.974
275.2732, 1274.353
275.7553, 1277.565
276.2374, 1281.341
276.7195, 1286.052
277.2017, 1290.024
277.6838, 1291.548
278.1659, 1290.285
278.6480, 1291.142
279.1301, 1295.417
279.6122, 1301.223
280.0944, 1303.463
280.5765, 1301.405
281.0586, 1299.859
281.5407, 1301.488
282.0229, 1306.302
282.5050, 1313.563
282.9871, 1323.689
283.4692, 1335.632
283.9513, 1348.240
284.4334, 1361.730
284.9156, 1373.335
285.3977, 1380.120
285.8798, 1382.559
286.3619, 1387.104
286.8440, 1394.595
287.3261, 1403.971
287.8083, 1414.452
288.2904, 1426.068
288.7725, 1435.742
289.2546, 1440.464
289.7367, 1441.138
290.2188, 1443.862
290.7010, 1450.082
291.1831, 1456.363
291.6652, 1454.815
292.1473, 1446.143
292.6294, 1440.351
293.1115, 1443.758
293.5937, 1454.667
294.0758, 1468.225
294.5579, 1485.051
295.0400, 1501.538
295.5221, 1515.279
296.0042, 1525.573
296.4864, 1527.541
296.9685, 1513.359
297.4506, 1489.320
297.9327, 1469.838
298.4148, 1455.710
298.8969, 1446.428
299.3791, 1444.719
299.8612, 1448.390
300.3433, 1449.920
300.8254, 1446.306
301.3075, 1437.819
301.7896, 1423.312
302.2718, 1401.706
302.7539, 1380.061
303.2360, 1365.563
303.7181, 1356.500
304.2002, 1348.507
304.6823, 1337.608
305.1645, 1327.617
305.6466, 1324.668
306.1287, 1329.554
306.6108, 1334.777
307.0929, 1334.416
307.5750, 1330.052
308.0572, 1324.571
308.5393, 1318.807
309.0214, 1312.793
309.5035, 1306.421
309.9856, 1299.711
310.4677, 1292.923
310.9499, 1285.959
311.4320, 1279.050
311.9141, 1272.393
312.3962, 1264.239
312.8783, 1257.685
313.3604, 1254.105
313.8426, 1253.582
314.3247, 1257.095
314.8068, 1270.926
315.2889, 1286.907
315.7710, 1296.614
316.2531, 1292.504
316.7353, 1285.973
317.2174, 1279.405
317.6995, 1273.462
318.1816, 1273.969
318.6637, 1291.122
319.1458, 1311.651
319.6280, 1324.898
320.1101, 1324.485
320.5922, 1320.185
321.0743, 1308.963
321.5564, 1293.626
322.0385, 1289.737
322.5207, 1314.130
323.0028, 1343.227
323.4849, 1362.242
323.9670, 1364.454
324.4491, 1362.003
324.9312, 1351.544
325.4134, 1336.435
325.8955, 1329.306
326.3776, 1339.984
326.8597, 1352.745
327.3418, 1360.251
327.8239, 1356.159
328.3061, 1355.035
328.7882, 1357.671
329.2703, 1363.504
329.7524, 1371.284
330.2345, 1385.835
330.7166, 1397.613
331.1988, 1403.053
331.6809, 1400.216
332.1630, 1395.188
332.6451, 1386.699
333.1272, 1376.441
333.6093, 1367.741
334.0915, 1361.411
334.5736, 1355.253
335.0557, 1348.176
335.5378, 1339.517
336.0199, 1333.323
336.5020, 1329.886
336.9842, 1328.572
337.4663, 1328.876
337.9484, 1331.681
338.4305, 1333.677
338.9126, 1333.702
339.3947, 1331.739
339.8769, 1330.834
340.3590, 1332.189
340.8411, 1332.154
341.3232, 1324.923
341.8053, 1309.168
342.2874, 1297.022
342.7696, 1292.317
343.2517, 1293.801
343.7338, 1295.760
344.2159, 1298.467
344.6980, 1300.376
345.1801, 1298.724
345.6623, 1293.947
346.1444, 1292.484
346.6265, 1296.355
347.1086, 1303.760
347.5907, 1313.244
348.0728, 1324.610
348.5550, 1330.569
349.0371, 1319.216
349.5192, 1297.061
350.0013, 1285.443
350.4834, 1289.536
350.9655, 1302.704
351.4477, 1319.578
351.9298, 1338.888
352.4119, 1353.104
352.8940, 1353.763
353.3762, 1347.416
353.8583, 1344.402
354.3404, 1346.190
354.8225, 1350.645
355.3046, 1354.934
355.7867, 1360.233
356.2689, 1369.366
356.7510, 1387.523
357.2331, 1407.973
357.7152, 1424.808
358.1973, 1437.480
358.6794, 1447.616
359.1616, 1451.719
359.6437, 1454.939
360.1258, 1464.482
360.6079, 1487.943
361.0900, 1514.495
361.5721, 1540.043
362.0543, 1564.339
362.5364, 1584.477
363.0185, 1596.568
363.5006, 1605.260
363.9827, 1614.589
364.4648, 1621.788
364.9470, 1633.728
365.4291, 1654.964
365.9112, 1683.913
366.3933, 1710.588
366.8754, 1730.691
367.3575, 1749.682
367.8397, 1770.452
368.3218, 1797.576
368.8039, 1821.382
369.2860, 1836.839
369.7681, 1848.003
370.2502, 1867.551
370.7324, 1902.350
371.2145, 1938.815
371.6966, 1971.818
372.1787, 2000.306
372.6608, 2027.862
373.1429, 2056.148
373.6251, 2082.541
374.1072, 2103.546
374.5893, 2120.000
375.0714, 2129.311
375.5535, 2129.732
376.0356, 2120.885
376.5178, 2110.365
376.9999, 2100.389
377.4820, 2085.061
377.9641, 2055.755
378.4462, 2010.213
378.9283, 1964.726
379.4105, 1923.750
379.8926, 1886.226
380.3747, 1847.235
380.8568, 1806.166
381.3389, 1765.390
381.8210, 1726.726
382.3032, 1690.179
382.7853, 1651.182
383.2674, 1605.583
383.7495, 1562.296
384.2316, 1545.373
384.7137, 1551.916
385.1959, 1556.274
385.6780, 1537.670
386.1601, 1505.423
386.6422, 1479.300
387.1243, 1461.622
387.6064, 1449.391
388.0886, 1440.863
388.5707, 1435.107
389.0528, 1429.946
389.5349, 1423.230
390.0170, 1417.203
390.4991, 1415.157
390.9813, 1417.623
391.4634, 1418.608
391.9455, 1412.639
392.4276, 1403.352
392.9097, 1395.365
393.3918, 1386.697
393.8740, 1382.978
394.3561, 1391.420
394.8382, 1410.167
395.3203, 1422.139
395.8024, 1412.091
396.2845, 1398.392
396.7667, 1393.734
397.2488, 1408.590
397.7309, 1422.382
398.2130, 1433.114
398.6951, 1440.374
399.1772, 1442.872
399.6594, 1437.243
400.1415, 1429.516
400.6236, 1420.217
401.1057, 1402.649
401.5878, 1399.945
402.0699, 1420.134
402.5521, 1451.276
403.0342, 1475.931
403.5163, 1491.294
403.9984, 1505.298
404.4805, 1521.028
404.9626, 1538.481
405.4448, 1548.417
405.9269, 1546.750
406.4090, 1545.067
406.8911, 1555.960
407.3732, 1581.590
407.8553, 1606.087
408.3375, 1627.543
408.8196, 1645.350
409.3017, 1654.859
409.7838, 1655.194
410.2659, 1657.131
410.7480, 1667.133
411.2302, 1684.874
411.7123, 1710.945
412.1944, 1747.890
412.6765, 1785.468
413.1586, 1811.123
413.6407, 1825.847
414.1229, 1833.603
414.6050, 1831.953
415.0871, 1826.335
415.5692, 1826.658
416.0513, 1833.682
416.5334, 1837.750
417.0156, 1833.053
417.4977, 1820.099
417.9798, 1799.809
418.4619, 1769.085
418.9440, 1733.968
419.4261, 1692.814
419.9083, 1648.427
420.3904, 1612.721
420.8725, 1597.750
421.3546, 1589.753
421.8367, 1579.337
422.3188, 1563.269
422.8010, 1547.057
423.2831, 1533.227
423.7652, 1520.103
424.2473, 1503.752
424.7295, 1472.903
425.2116, 1448.454
425.6937, 1439.600
426.1758, 1452.438
426.6579, 1457.394
427.1400, 1450.681
427.6222, 1438.622
428.1043, 1426.660
428.5864, 1411.663
429.0685, 1403.354
429.5506, 1405.434
430.0327, 1416.300
430.5149, 1424.553
430.9970, 1430.037
431.4791, 1433.134
431.9612, 1434.583
432.4433, 1434.593
432.9254, 1429.073
433.4076, 1415.647
433.8897, 1399.857
434.3718, 1392.961
434.8539, 1394.723
435.3360, 1396.787
435.8181, 1391.634
436.3003, 1383.705
436.7824, 1387.794
437.2645, 1405.123
437.7466, 1423.598
438.2287, 1431.170
438.7108, 1430.989
439.1930, 1429.918
439.6751, 1429.974
440.1572, 1430.443
440.6393, 1430.598
441.1214, 1430.535
441.6035, 1430.732
442.0857, 1432.696
442.5678, 1434.340
443.0499, 1433.366
443.5320, 1427.628
444.0141, 1423.587
444.4962, 1423.272
444.9784, 1426.401
445.4605, 1432.500
445.9426, 1449.662
446.4247, 1462.100
446.9068, 1462.702
447.3889, 1449.270
447.8711, 1438.480
448.3532, 1429.125
448.8353, 1424.114
449.3174, 1426.433
449.7995, 1445.520
450.2816, 1455.486
450.7638, 1448.452
451.2459, 1430.601
451.7280, 1427.451
452.2101, 1444.135
452.6922, 1463.159
453.1743, 1476.943
453.6565, 1485.436
454.1386, 1486.771
454.6207, 1478.827
455.1028, 1468.404
455.5849, 1464.929
456.0670, 1468.123
456.5492, 1473.433
457.0313, 1480.486
457.5134, 1488.032
457.9955, 1492.917
458.4776, 1495.217
458.9597, 1495.909
459.4419, 1496.738
459.9240, 1496.300
460.4061, 1490.435
460.8882, 1474.432
461.3703, 1462.153
461.8524, 1471.702
462.3346, 1494.600
462.8167, 1510.994
463.2988, 1498.966
463.7809, 1486.777
464.2630, 1496.292
464.7451, 1531.585
465.2273, 1558.929
465.7094, 1558.224
466.1915, 1548.222
466.6736, 1545.774
467.1557, 1564.543
467.6378, 1579.062
468.1200, 1584.985
468.6021, 1583.503
469.0842, 1579.275
469.5663, 1567.161
470.0484, 1558.324
470.5305, 1557.997
471.0127, 1568.906
471.4948, 1580.380
471.9769, 1595.456
472.4590, 1607.469
472.9411, 1605.010
473.4232, 1585.685
473.9054, 1567.224
474.3875, 1553.437
474.8696, 1544.624
475.3517, 1544.463
475.8338, 1553.426
476.3159, 1561.994
476.7981, 1561.271
477.2802, 1554.116
477.7623, 1548.865
478.2444, 1546.420
478.7265, 1547.102
479.2086, 1553.385
479.6908, 1563.262
480.1729, 1571.646
480.6550, 1578.368
481.1371, 1581.005
481.6192, 1573.516
482.1013, 1556.339
482.5835, 1545.535
483.0656, 1553.443
483.5477, 1569.070
484.0298, 1583.765
484.5119, 1603.327
484.9940, 1611.391
485.4762, 1591.710
485.9583, 1557.482
486.4404, 1542.686
486.9225, 1579.775
487.4046, 1607.808
487.8867, 1606.647
488.3689, 1569.818
488.8510, 1542.120
489.3331, 1525.498
489.8152, 1515.357
490.2973, 1508.079
490.7794, 1504.476
491.2616, 1500.611
491.7437, 1496.417
492.2258, 1491.183
492.7079, 1479.917
493.1900, 1462.071
493.6722, 1450.875
494.1543, 1461.015
494.6364, 1484.648
495.1185, 1492.998
495.6006, 1483.265
496.0828, 1470.275
496.5649, 1470.213
497.0470, 1477.865
497.5291, 1482.358
498.0112, 1477.056
498.4933, 1464.109
498.9755, 1471.398
499.4576, 1475.390
499.9397, 1476.260
500.4218, 1464.662
500.9039, 1469.164
501.3860, 1467.214
501.8682, 1465.000
502.3503, 1471.768
502.8324, 1461.983
503.3145, 1468.610
503.7966, 1468.685
504.2787, 1471.758
504.7609, 1468.339
505.2430, 1466.926
505.7251, 1468.141
506.2072, 1469.376
506.6893, 1471.163
507.1714, 1471.607
507.6536, 1469.118
508.1357, 1463.191
508.6178, 1458.097
509.0999, 1453.298
509.5820, 1450.916
510.0641, 1455.912
510.5463, 1467.574
511.0284, 1476.654
511.5105, 1480.117
511.9926, 1479.425
512.4747, 1474.041
512.9568, 1465.095
513.4390, 1462.046
513.9211, 1479.323
514.4032, 1502.978
514.8853, 1514.310
515.3674, 1508.247
515.8495, 1500.390
516.3317, 1502.798
516.8138, 1508.562
517.2959, 1508.126
517.7780, 1492.417
518.2601, 1476.041
518.7422, 1461.080
519.2244, 1448.277
519.7065, 1444.422
520.1886, 1458.797
520.6707, 1475.005
521.1528, 1485.492
521.6349, 1486.413
522.1171, 1492.136
522.5992, 1506.273
523.0813, 1521.595
523.5634, 1528.806
524.0455, 1527.261
524.5276, 1520.389
525.0098, 1506.256
525.4919, 1488.636
525.9740, 1479.943
526.4561, 1480.293
526.9382, 1485.344
527.4203, 1494.665
527.9025, 1506.242
528.3846, 1515.201
528.8667, 1521.040
529.3488, 1524.918
529.8309, 1526.640
530.3130, 1527.315
530.7952, 1528.771
531.2773, 1534.837
531.7594, 1539.005
532.2415, 1534.558
532.7236, 1524.115
533.2057, 1519.150
533.6879, 1526.817
534.1700, 1537.977
534.6521, 1548.901
535.1342, 1560.618
535.6163, 1568.028
536.0984, 1568.821
536.5806, 1566.777
537.0627, 1565.632
537.5448, 1565.318
538.0269, 1565.836
538.5090, 1566.335
538.9911, 1568.023
539.4733, 1576.414
539.9554, 1592.720
540.4375, 1607.412
540.9196, 1615.552
541.4017, 1617.785
541.8839, 1615.057
542.3660, 1606.787
542.8481, 1599.509
543.3302, 1599.838
543.8123, 1605.536
544.2944, 1612.275
544.7766, 1619.141
545.2587, 1626.185
545.7408, 1633.457
546.2229, 1640.851
546.7050, 1648.279
547.1871, 1657.672
547.6693, 1665.397
548.1514, 1666.062
548.6335, 1657.687
549.1156, 1661.322
549.5977, 1696.748
550.0798, 1734.017
550.5620, 1751.424
551.0441, 1732.843
551.5262, 1727.597
552.0083, 1745.436
552.4904, 1771.964
552.9725, 1776.741
553.4547, 1755.431
553.9368, 1734.939
554.4189, 1724.603
554.9010, 1722.411
555.3831, 1722.421
555.8652, 1724.715
556.3474, 1724.996
556.8295, 1716.761
557.3116, 1704.561
557.7937, 1698.289
558.2758, 1700.047
558.7579, 1704.376
559.2401, 1708.168
559.7222, 1711.148
560.2043, 1712.859
560.6864, 1708.713
561.1685, 1707.542
561.6506, 1715.609
562.1328, 1730.953
562.6149, 1743.128
563.0970, 1749.091
563.5791, 1752.331
564.0612, 1753.297
564.5433, 1749.807
565.0255, 1752.366
565.5076, 1761.339
565.9897, 1775.891
566.4718, 1798.244
566.9539, 1830.856
567.4360, 1853.120
567.9182, 1857.752
568.4003, 1855.059
568.8824, 1869.095
569.3645, 1898.353
569.8466, 1925.951
570.3287, 1938.025
570.8109, 1944.254
571.2930, 1960.741
571.7751, 1987.553
572.2572, 2017.537
572.7393, 2045.317
573.2214, 2074.279
573.7036, 2109.696
574.1857, 2158.634
574.6678, 2199.907
575.1499, 2213.522
575.6320, 2217.522
576.1141, 2238.594
576.5963, 2298.978
577.0784, 2356.264
577.5605, 2403.057
578.0426, 2439.881
578.5247, 2473.464
579.0068, 2502.698
579.4890, 2530.393
579.9711, 2559.410
580.4532, 2590.037
580.9353, 2612.021
581.4174, 2623.365
581.8995, 2634.332
582.3817, 2660.959
582.8638, 2697.746
583.3459, 2723.944
583.8280, 2732.726
584.3101, 2732.589
584.7922, 2731.311
585.2744, 2728.520
585.7565, 2723.233
586.2386, 2722.776
586.7207, 2713.171
587.2028, 2681.583
587.6849, 2628.616
588.1671, 2578.302
588.6492, 2542.883
589.1313, 2507.984
589.6134, 2464.646
590.0955, 2406.469
590.5776, 2353.428
591.0598, 2307.841
591.5419, 2265.312
592.0240, 2218.617
592.5061, 2165.488
592.9882, 2120.398
593.4703, 2090.835
593.9525, 2068.168
594.4346, 2025.669
594.9167, 1965.470
595.3988, 1917.542
595.8809, 1908.433
596.3630, 1919.103
596.8452, 1921.675
597.3273, 1914.978
597.8094, 1898.671
598.2915, 1861.220
598.7736, 1819.797
599.2557, 1791.471
599.7379, 1785.084
600.2200, 1781.999
600.7021, 1781.492
601.1843, 1779.942
601.6664, 1771.247
602.1485, 1746.523
602.6306, 1726.659
603.1127, 1715.952
603.5948, 1712.946
604.0770, 1712.011
604.5591, 1715.033
605.0412, 1713.865
605.5233, 1700.580
606.0054, 1677.317
606.4875, 1665.436
606.9697, 1665.880
607.4518, 1669.244
607.9339, 1667.100
608.4160, 1661.243
608.8981, 1655.104
609.3802, 1648.721
609.8624, 1643.794
610.3445, 1641.932
610.8266, 1642.288
611.3087, 1643.408
611.7908, 1646.188
612.2729, 1648.231
612.7551, 1647.192
613.2372, 1643.913
613.7193, 1644.866
614.2014, 1655.970
614.6835, 1664.160
615.1656, 1663.233
615.6478, 1652.000
616.1299, 1643.340
616.6120, 1638.001
617.0941, 1633.379
617.5762, 1625.451
618.0583, 1615.057
618.5405, 1610.591
619.0226, 1614.488
619.5047, 1621.006
619.9868, 1621.458
620.4689, 1618.859
620.9510, 1620.536
621.4332, 1636.998
621.9153, 1652.272
622.3974, 1654.043
622.8795, 1645.172
623.3616, 1637.741
623.8438, 1637.149
624.3259, 1637.657
624.8080, 1635.596
625.2901, 1629.534
625.7722, 1630.346
626.2543, 1644.043
626.7365, 1657.142
627.2186, 1657.270
627.7007, 1641.136
628.1828, 1634.348
628.6649, 1640.978
629.1470, 1651.980
629.6292, 1653.007
630.1113, 1646.162
630.5934, 1642.661
631.0755, 1649.002
631.5576, 1656.993
632.0397, 1653.929
632.5219, 1643.538
633.0040, 1637.545
633.4861, 1650.203
633.9682, 1662.106
634.4503, 1658.614
634.9324, 1638.522
635.4146, 1626.172
635.8967, 1634.872
636.3788, 1645.952
636.8609, 1649.166
637.3430, 1640.871
637.8251, 1634.555
638.3073, 1630.104
638.7894, 1627.896
639.2715, 1630.198
639.7536, 1637.067
640.2357, 1638.611
640.7178, 1630.587
641.2000, 1620.590
641.6821, 1623.585
642.1642, 1635.695
642.6463, 1643.074
643.1284, 1631.075
643.6105, 1617.629
644.0927, 1620.243
644.5748, 1636.400
645.0569, 1649.401
645.5390, 1649.837
646.0211, 1647.847
646.5032, 1649.455
646.9854, 1657.376
647.4675, 1659.675
647.9496, 1652.177
648.4317, 1643.790
648.9138, 1642.679
649.3959, 1650.805
649.8781, 1653.967
650.3602, 1649.615
650.8423, 1642.924
651.3244, 1643.023
651.8065, 1648.242
652.2886, 1649.386
652.7708, 1639.503
653.2529, 1629.115
653.7350, 1633.432
654.2171, 1647.637
654.6992, 1651.436
655.1813, 1661.517
655.6635, 1668.300
656.1456, 1671.962
656.6277, 1663.154
657.1098, 1670.448
657.5919, 1671.290
658.0740, 1671.866
658.5562, 1681.427
659.0383, 1674.433
659.5204, 1683.851
660.0025, 1686.717
660.4846, 1692.582
660.9667, 1691.954
661.4489, 1693.332
661.9310, 1701.205
662.4131, 1705.480
662.8952, 1700.207
663.3773, 1689.367
663.8594, 1672.274
664.3416, 1662.894
664.8237, 1674.500
665.3058, 1688.311
665.7879, 1692.061
666.2700, 1689.261
666.7521, 1691.896
667.2343, 1715.175
667.7164, 1731.527
668.1985, 1729.434
668.6806, 1709.021
669.1627, 1694.701
669.6448, 1686.079
670.1270, 1684.454
670.6091, 1693.529
671.0912, 1712.622
671.5733, 1726.270
672.0554, 1733.429
672.5375, 1739.267
673.0197, 1753.095
673.5018, 1768.474
673.9839, 1771.186
674.4660, 1752.650
674.9481, 1735.186
675.4302, 1735.630
675.9124, 1745.499
676.3945, 1752.383
676.8766, 1749.593
677.3587, 1747.539
677.8408, 1747.315
678.3229, 1749.365
678.8051, 1756.396
679.2872, 1772.887
679.7693, 1782.455
680.2514, 1774.664
680.7335, 1755.461
681.2156, 1759.008
681.6978, 1785.697
682.1799, 1812.691
682.6620, 1823.956
683.1441, 1825.470
683.6262, 1825.693
684.1083, 1825.140
684.5905, 1826.177
685.0726, 1830.017
685.5547, 1836.319
686.0368, 1844.771
686.5189, 1855.338
687.0010, 1868.045
687.4832, 1885.503
687.9653, 1903.620
688.4474, 1918.594
688.9295, 1931.236
689.4116, 1937.442
689.8937, 1934.144
690.3759, 1927.426
690.8580, 1931.029
691.3401, 1943.799
691.8222, 1952.000
692.3043, 1947.913
692.7864, 1939.298
693.2686, 1935.666
693.7507, 1936.692
694.2328, 1941.162
694.7149, 1953.587
695.1970, 1964.920
695.6791, 1967.654
696.1613, 1961.692
696.6434, 1961.674
697.1255, 1981.213
697.6076, 1995.248
698.0897, 1990.152
698.5718, 1961.746
699.0540, 1942.899
699.5361, 1934.057
700.0182, 1933.425
700.5003, 1946.143
700.9824, 1967.449
701.4645, 1971.986
701.9467, 1954.361
702.4288, 1931.863
702.9109, 1921.464
703.3930, 1917.222
703.8751, 1909.819
704.3572, 1890.177
704.8394, 1876.280
705.3215, 1880.387
705.8036, 1893.885
706.2857, 1900.319
706.7678, 1897.588
707.2499, 1889.528
707.7321, 1873.476
708.2142, 1853.463
708.6963, 1845.054
709.1784, 1849.460
709.6605, 1853.000
710.1426, 1848.133
710.6248, 1838.767
711.1069, 1834.910
711.5890, 1835.742
712.0711, 1835.791
712.5532, 1829.281
713.0353, 1822.062
713.5175, 1821.604
713.9996, 1829.044
714.4817, 1828.499
714.9638, 1799.198
715.4459, 1773.825
715.9280, 1774.185
716.4102, 1813.955
716.8923, 1832.921
717.3744, 1825.958
717.8565, 1808.140
718.3386, 1791.851
718.8207, 1777.430
719.3029, 1766.987
719.7850, 1760.885
720.2671, 1758.965
720.7492, 1761.824
721.2313, 1768.677
721.7134, 1778.760
722.1956, 1798.951
722.6777, 1812.022
723.1598, 1802.373
723.6419, 1781.314
724.1240, 1771.210
724.6061, 1789.560
725.0883, 1799.040
725.5704, 1789.823
726.0525, 1768.565
726.5346, 1757.434
727.0167, 1757.350
727.4988, 1760.375
727.9810, 1763.529
728.4631, 1767.297
728.9452, 1775.463
729.4273, 1786.672
729.9094, 1792.215
730.3915, 1780.780
730.8737, 1765.828
731.3558, 1758.328
731.8379, 1759.048
732.3200, 1759.959
732.8021, 1756.900
733.2842, 1755.174
733.7664, 1757.941
734.2485, 1766.565
734.7306, 1772.725
735.2127, 1775.909
735.6948, 1777.836
736.1769, 1780.227
736.6591, 1782.823
737.1412, 1783.430
737.6233, 1781.653
738.1054, 1801.706
738.5875, 1794.026
739.0696, 1788.508
739.5518, 1785.324
740.0339, 1775.131
740.5161, 1786.499
740.9982, 1796.871
741.4803, 1812.434
741.9624, 1752.895
742.4445, 1769.918
742.9266, 1785.501
743.4088, 1796.639
743.8909, 1801.771
744.3730, 1793.750
744.8551, 1772.513
745.3372, 1759.209
745.8193, 1762.608
746.3015, 1773.738
746.7836, 1779.374
747.2657, 1781.250
747.7478, 1784.701
748.2299, 1798.169
748.7120, 1808.354
749.1942, 1804.497
749.6763, 1789.641
750.1584, 1780.797
750.6405, 1782.965
751.1226, 1787.867
751.6047, 1795.978
752.0869, 1805.906
752.5690, 1798.220
753.0511, 1769.601
753.5332, 1749.699
754.0153, 1766.967
754.4974, 1804.394
754.9796, 1820.732
755.4617, 1816.040
755.9438, 1808.261
756.4259, 1809.632
756.9080, 1812.569
757.3901, 1809.635
757.8723, 1798.056
758.3544, 1792.559
758.8365, 1802.764
759.3186, 1813.306
759.8007, 1813.577
760.2828, 1798.988
760.7650, 1796.599
761.2471, 1809.474
761.7292, 1824.276
762.2113, 1826.824
762.6934, 1819.877
763.1755, 1810.462
763.6577, 1798.511
764.1398, 1790.822
764.6219, 1798.286
765.1040, 1810.716
765.5861, 1815.589
766.0682, 1800.894
766.5504, 1793.202
767.0325, 1804.952
767.5146, 1821.370
767.9967, 1824.903
768.4788, 1812.324
768.9609, 1798.343
769.4431, 1782.654
769.9252, 1771.054
770.4073, 1777.339
770.8894, 1797.374
771.3715, 1813.234
771.8536, 1816.884
772.3358, 1817.746
772.8179, 1823.635
773.3000, 1832.688
773.7821, 1841.226
774.2642, 1856.589
774.7463, 1861.231
775.2285, 1847.011
775.7106, 1820.046
776.1927, 1792.585
776.6748, 1759.710
777.1569, 1746.064
777.6390, 1766.293
778.1212, 1805.268
778.6033, 1823.700
779.0854, 1824.209
779.5675, 1822.651
780.0496, 1828.083
780.5317, 1834.615
781.0139, 1834.293
781.4960, 1821.697
781.9781, 1833.320
782.4602, 1840.325
782.9423, 1842.960
783.4244, 1828.139
783.9066, 1835.859
784.3887, 1834.546
784.8708, 1832.863
785.3529, 1843.756
785.8350, 1831.474
786.3171, 1842.167
786.7993, 1843.689
787.2814, 1849.409
787.7635, 1846.039
788.2456, 1845.477
788.7277, 1854.007
789.2098, 1836.614
789.6920, 1830.063
790.1741, 1828.295
790.6562, 1837.199
791.1383, 1846.011
791.6204, 1849.423
792.1025, 1846.763
792.5847, 1847.093
793.0668, 1851.076
793.5489, 1855.134
794.0310, 1856.921
794.5131, 1856.501
794.9952, 1853.516
795.4774, 1847.907
795.9595, 1841.924
796.4416, 1832.974
796.9237, 1827.031
797.4058, 1831.378
797.8879, 1851.683
798.3701, 1863.995
798.8522, 1862.108
799.3343, 1855.863
799.8164, 1851.518
800.2985, 1849.253
800.7806, 1847.626
801.2628, 1846.679
801.7449, 1845.934
802.2270, 1845.202
802.7091, 1844.265
803.1912, 1842.990
803.6733, 1841.590
804.1555, 1838.332
804.6376, 1828.852
805.1197, 1818.922
805.6018, 1814.098
806.0839, 1819.836
806.5660, 1821.788
807.0482, 1818.733
807.5303, 1813.409
808.0124, 1806.518
808.4945, 1798.057
808.9766, 1799.469
809.4587, 1813.868
809.9409, 1828.993
810.4230, 1829.899
810.9051, 1823.112
811.3872, 1819.267
811.8693, 1822.355
812.3514, 1824.409
812.8336, 1816.469
813.3157, 1808.748
813.7978, 1813.834
814.2799, 1843.752
814.7620, 1859.108
815.2441, 1854.991
815.7263, 1841.602
816.2084, 1829.402
816.6905, 1818.903
817.1726, 1814.329
817.6547, 1817.906
818.1368, 1822.370
818.6190, 1820.931
819.1011, 1816.041
819.5832, 1810.758
820.0653, 1803.611
820.5474, 1799.916
821.0295, 1803.728
821.5117, 1809.793
821.9938, 1811.580
822.4759, 1806.685
822.9580, 1809.543
823.4401, 1824.242
823.9222, 1840.801
824.4044, 1842.957
824.8865, 1835.319
825.3686, 1830.106
825.8507, 1830.528
826.3328, 1834.157
826.8149, 1843.805
827.2971, 1854.027
827.7792, 1857.740
828.2613, 1849.697
828.7434, 1839.761
829.2255, 1825.036
829.7076, 1811.735
830.1898, 1811.009
830.6719, 1822.828
831.1540, 1827.305
831.6361, 1819.047
832.1182, 1808.233
832.6003, 1805.497
833.0825, 1809.148
833.5646, 1817.533
834.0467, 1838.280
834.5288, 1849.196
835.0109, 1832.076
835.4930, 1805.462
835.9752, 1794.934
836.4573, 1807.981
836.9394, 1815.762
837.4215, 1813.829
837.9036, 1809.284
838.3857, 1813.755
838.8679, 1824.707
839.3500, 1831.902
839.8321, 1832.532
840.3142, 1830.018
840.7963, 1821.870
841.2784, 1814.267
841.7606, 1815.117
842.2427, 1837.398
842.7248, 1852.026
843.2069, 1854.162
843.6890, 1850.970
844.1711, 1852.026
844.6533, 1857.867
845.1354, 1856.709
845.6175, 1846.010
846.0996, 1831.853
846.5817, 1816.157
847.0638, 1803.436
847.5460, 1804.272
848.0281, 1829.750
848.5102, 1846.640
848.9923, 1832.480
849.4744, 1807.925
849.9565, 1794.642
850.4387, 1795.601
850.9208, 1802.458
851.4029, 1817.733
851.8850, 1832.451
852.3671, 1833.704
852.8492, 1825.198
853.3314, 1820.924
853.8135, 1823.428
854.2956, 1828.646
854.7777, 1838.628
855.2598, 1846.848
855.7419, 1845.162
856.2241, 1822.108
856.7062, 1812.865
857.1883, 1827.928
857.6704, 1846.935
858.1525, 1851.542
858.6346, 1841.291
859.1168, 1833.513
859.5989, 1829.275
860.0810, 1827.410
860.5631, 1828.924
861.0452, 1831.217
861.5273, 1829.219
862.0095, 1820.740
862.4916, 1817.389
862.9737, 1830.543
863.4558, 1844.879
863.9379, 1849.354
864.4200, 1841.234
864.9022, 1836.509
865.3843, 1834.752
865.8664, 1837.847
866.3485, 1852.704
866.8306, 1872.723
867.3127, 1880.428
867.7949, 1874.895
868.2770, 1867.071
868.7591, 1859.797
869.2412, 1855.805
869.7233, 1859.003
870.2054, 1871.812
870.6876, 1876.522
871.1697, 1870.051
871.6518, 1861.406
872.1339, 1854.908
872.6160, 1850.529
873.0981, 1848.167
873.5803, 1847.791
874.0624, 1833.671
874.5445, 1844.078
875.0266, 1849.869
875.5087, 1851.289
875.9908, 1835.254
876.4730, 1841.759
876.9551, 1839.231
877.4372, 1836.333
877.9193, 1846.011
878.4014, 1832.515
878.8835, 1841.993
879.3657, 1842.301
879.8478, 1846.806
880.3299, 1842.221
880.8120, 1840.444
881.2941, 1847.759
881.7763, 1850.040
882.2584, 1844.409
882.7405, 1849.181
883.2227, 1835.367
883.7048, 1837.862
884.1869, 1850.206
884.6690, 1851.615
885.1511, 1850.250
885.6332, 1849.292
886.1154, 1848.927
886.5975, 1850.618
887.0796, 1862.605
887.5617, 1879.098
888.0438, 1884.131
888.5259, 1856.163
889.0081, 1831.998
889.4902, 1830.889
889.9723, 1843.936
890.4544, 1853.896
890.9365, 1858.736
891.4186, 1865.455
891.9008, 1877.427
892.3829, 1887.145
892.8650, 1876.086
893.3471, 1851.987
893.8292, 1844.016
894.3113, 1865.073
894.7935, 1886.895
895.2756, 1889.360
895.7577, 1881.379
896.2398, 1872.621
896.7219, 1861.302
897.2040, 1855.334
897.6862, 1855.432
898.1683, 1859.708
898.6504, 1869.229
899.1325, 1882.373
899.6146, 1885.952
900.0967, 1877.990
900.5789, 1868.512
901.0610, 1865.729
901.5431, 1865.400
902.0252, 1862.103
902.5073, 1853.117
902.9894, 1852.429
903.4716, 1866.768
903.9537, 1882.092
904.4358, 1890.567
904.9179, 1892.375
905.4000, 1894.291
905.8821, 1896.308
906.3643, 1897.999
906.8464, 1901.109
907.3285, 1902.376
907.8106, 1896.423
908.2927, 1884.110
908.7748, 1874.363
909.2570, 1868.172
909.7391, 1867.290
910.2212, 1874.336
910.7033, 1887.052
911.1854, 1894.041
911.6675, 1895.135
912.1497, 1894.985
912.6318, 1896.475
913.1139, 1896.953
913.5960, 1890.799
914.0781, 1880.975
914.5602, 1874.572
915.0424, 1870.764
915.5245, 1875.656
916.0066, 1899.434
916.4887, 1927.922
916.9708, 1932.742
917.4529, 1911.494
917.9351, 1890.803
918.4172, 1873.914
918.8993, 1865.640
919.3814, 1880.671
919.8635, 1906.467
920.3456, 1920.974
920.8278, 1911.946
921.3099, 1904.837
921.7920, 1910.060
922.2741, 1918.430
922.7562, 1922.274
923.2383, 1920.986
923.7205, 1917.247
924.2026, 1910.305
924.6847, 1905.840
925.1668, 1912.788
925.6489, 1924.456
926.1310, 1930.224
926.6132, 1928.804
927.0953, 1924.488
927.5774, 1917.036
928.0595, 1908.875
928.5416, 1899.490
929.0237, 1888.930
929.5059, 1888.807
929.9880, 1899.969
930.4701, 1915.466
930.9522, 1938.381
931.4343, 1959.135
931.9164, 1954.865
932.3986, 1932.352
932.8807, 1917.585
933.3628, 1932.045
933.8449, 1945.678
934.3270, 1946.329
934.8091, 1938.349
935.2913, 1930.830
935.7734, 1923.082
936.2555, 1920.434
936.7376, 1925.482
937.2197, 1933.487
937.7018, 1936.038
938.1840, 1936.565
938.6661, 1937.968
939.1482, 1949.942
939.6303, 1957.298
940.1124, 1960.285
940.5945, 1945.815
941.0767, 1953.887
941.5588, 1952.925
942.0409, 1951.592
942.5230, 1962.837
943.0051, 1950.906
943.4872, 1961.951
943.9694, 1963.824
944.4515, 1969.895
944.9336, 1966.877
945.4157, 1966.666
945.8978, 1975.547
946.3799, 1979.394
946.8621, 1975.329
947.3442, 1981.667
947.8263, 1969.419
948.3084, 1973.480
948.7905, 1984.578
949.2726, 1980.970
949.7548, 1987.474
950.2369, 1990.127
950.7190, 1975.278
951.2011, 1990.867
951.6832, 1993.292
952.1653, 1982.201
952.6475, 1996.747
953.1296, 1987.520
953.6117, 1976.211
954.0938, 1961.236
954.5759, 1956.983
955.0580, 1969.935
955.5402, 1986.408
956.0223, 1990.184
956.5044, 1986.892
956.9865, 1984.637
957.4686, 1985.254
957.9507, 1987.865
958.4329, 1998.318
958.9150, 2004.373
959.3971, 1991.822
959.8792, 1959.974
960.3613, 1945.808
960.8434, 1950.503
961.3256, 1964.324
961.8077, 1991.236
962.2898, 2015.252
962.7719, 2015.050
963.2540, 1990.993
963.7361, 1978.331
964.2183, 1993.301
964.7004, 2006.912
965.1825, 2009.882
965.6646, 2004.559
966.1467, 1997.065
966.6288, 1988.033
967.1110, 1982.215
967.5931, 1983.804
968.0752, 1986.532
968.5573, 1986.435
969.0394, 1983.608
969.5215, 1977.765
970.0037, 1961.334
970.4858, 1956.229
970.9679, 1967.665
971.4500, 1984.300
971.9321, 1990.832
972.4142, 1989.980
972.8964, 1994.221
973.3785, 2005.862
973.8606, 2013.803
974.3427, 2003.482
974.8248, 1991.270
975.3069, 1992.135
975.7891, 2008.914
976.2712, 2018.051
976.7533, 2017.365
977.2354, 2015.862
977.7175, 2019.481
978.1996, 2025.320
978.6818, 2023.056
979.1639, 2015.601
979.6460, 2014.583
980.1281, 2037.594
980.6102, 2055.242
981.0923, 2051.296
981.5745, 2034.468
982.0566, 2019.528
982.5387, 2004.922
983.0208, 2002.404
983.5029, 2016.316
983.9850, 2035.650
984.4672, 2051.970
984.9493, 2062.362
985.4314, 2058.560
985.9135, 2032.092
986.3956, 2018.025
986.8777, 2039.246
987.3599, 2064.972
987.8420, 2079.425
988.3241, 2082.583
988.8062, 2076.683
989.2883, 2061.617
989.7704, 2047.944
990.2526, 2043.997
990.7347, 2044.047
991.2168, 2039.788
991.6989, 2033.746
992.1810, 2037.888
992.6631, 2070.930
993.1453, 2088.560
993.6274, 2075.398
994.1095, 2050.052
994.5916, 2053.364
995.0737, 2079.447
995.5558, 2097.989
996.0380, 2098.853
996.5201, 2097.938
997.0022, 2110.584
997.4843, 2125.150
997.9664, 2127.067
998.4485, 2107.870
998.9307, 2105.013
999.4128, 2122.963
999.8949, 2143.297
1000.377, 2149.962
1000.859, 2149.223
1001.341, 2159.190
1001.823, 2177.808
1002.305, 2189.222
1002.788, 2177.247
1003.270, 2165.571
1003.752, 2162.194
1004.234, 2166.797
1004.716, 2182.168
1005.198, 2209.815
1005.680, 2228.758
1006.162, 2230.321
1006.645, 2229.176
1007.127, 2241.700
1007.609, 2263.759
1008.091, 2290.298
1008.573, 2324.490
1009.055, 2351.573
1009.537, 2366.997
1010.019, 2379.053
1010.501, 2395.022
1010.984, 2413.779
1011.466, 2419.581
1011.948, 2413.491
1012.430, 2415.235
1012.912, 2440.163
1013.394, 2475.510
1013.876, 2517.565
1014.358, 2563.223
1014.841, 2600.128
1015.323, 2625.020
1015.805, 2650.093
1016.287, 2677.352
1016.769, 2707.433
1017.251, 2744.419
1017.733, 2784.038
1018.215, 2815.432
1018.697, 2830.816
1019.180, 2853.306
1019.662, 2896.787
1020.144, 2947.555
1020.626, 2999.573
1021.108, 3053.677
1021.590, 3081.993
1022.072, 3083.268
1022.554, 3088.847
1023.037, 3130.602
1023.519, 3179.643
1024.001, 3206.334
1024.483, 3213.502
1024.965, 3215.046
1025.447, 3202.866
1025.929, 3203.502
1026.411, 3225.184
1026.893, 3256.096
1027.376, 3281.460
1027.858, 3298.764
1028.340, 3295.195
1028.822, 3265.507
1029.304, 3229.753
1029.786, 3192.514
1030.268, 3160.549
1030.750, 3141.443
1031.233, 3136.541
1031.715, 3123.078
1032.197, 3100.555
1032.679, 3074.244
1033.161, 3044.333
1033.643, 3014.593
1034.125, 2992.177
1034.607, 2974.314
1035.089, 2953.533
1035.572, 2924.335
1036.054, 2895.385
1036.536, 2867.615
1037.018, 2841.262
1037.500, 2817.985
1037.982, 2797.088
1038.464, 2775.817
1038.946, 2753.959
1039.428, 2727.393
1039.911, 2688.010
1040.393, 2646.373
1040.875, 2609.357
1041.357, 2577.625
1041.839, 2558.013
1042.321, 2554.120
1042.803, 2548.897
1043.285, 2535.322
1043.768, 2516.012
1044.250, 2493.542
1044.732, 2469.617
1045.214, 2447.698
1045.696, 2431.782
1046.178, 2414.319
1046.660, 2391.034
1047.142, 2368.387
1047.625, 2353.371
1048.107, 2345.482
1048.589, 2334.349
1049.071, 2319.459
1049.553, 2307.759
1050.035, 2309.412
1050.517, 2312.040
1050.999, 2304.380
1051.481, 2287.647
1051.964, 2278.289
1052.446, 2280.524
1052.928, 2275.275
1053.410, 2253.865
1053.892, 2229.733
1054.374, 2228.987
1054.856, 2241.298
1055.338, 2246.910
1055.820, 2238.467
1056.303, 2229.744
1056.785, 2221.798
1057.267, 2217.499
1057.749, 2221.332
1058.231, 2232.153
1058.713, 2229.154
1059.195, 2213.788
1059.677, 2204.965
1060.160, 2227.473
1060.642, 2247.816
1061.124, 2237.035
1061.606, 2206.987
1062.088, 2190.799
1062.570, 2192.943
1063.052, 2194.739
1063.534, 2191.666
1064.016, 2195.038
1064.499, 2228.365
1064.981, 2273.169
1065.463, 2299.307
1065.945, 2302.398
1066.427, 2297.308
1066.909, 2279.131
1067.391, 2264.405
1067.873, 2258.249
1068.355, 2260.492
1068.838, 2276.191
1069.320, 2301.698
1069.802, 2317.709
1070.284, 2310.474
1070.766, 2302.441
1071.248, 2306.318
1071.730, 2317.650
1072.212, 2331.417
1072.695, 2349.142
1073.177, 2362.406
1073.659, 2370.845
1074.141, 2378.409
1074.623, 2387.455
1075.105, 2398.052
1075.587, 2411.193
1076.069, 2426.371
1076.552, 2440.990
1077.034, 2460.633
1077.516, 2469.008
1077.998, 2458.987
1078.480, 2443.188
1078.962, 2445.758
1079.444, 2460.182
1079.926, 2464.794
1080.408, 2453.948
1080.891, 2445.205
1081.373, 2448.576
1081.855, 2456.531
1082.337, 2467.626
1082.819, 2480.296
1083.301, 2475.963
1083.783, 2454.759
1084.265, 2427.703
1084.747, 2392.155
1085.230, 2363.427
1085.712, 2361.251
1086.194, 2373.394
1086.676, 2380.418
1087.158, 2377.599
1087.640, 2375.602
1088.122, 2375.117
1088.604, 2373.639
1089.087, 2368.234
1089.569, 2360.657
1090.051, 2352.314
1090.533, 2344.158
1091.015, 2341.103
1091.497, 2356.260
1091.979, 2361.452
1092.461, 2346.661
1092.943, 2322.597
1093.426, 2308.775
1093.908, 2303.763
1094.390, 2301.034
1094.872, 2299.781
1095.354, 2297.736
1095.836, 2295.011
1096.318, 2289.484
1096.800, 2278.024
1097.283, 2261.378
1097.765, 2250.861
1098.247, 2246.791
1098.729, 2243.063
1099.211, 2236.190
1099.693, 2229.938
1100.175, 2228.993
1100.657, 2231.185
1101.140, 2233.214
1101.622, 2235.373
1102.104, 2235.275
1102.586, 2232.306
1103.068, 2228.918
1103.550, 2231.195
1104.032, 2232.790
1104.514, 2214.588
1104.996, 2181.653
1105.479, 2160.260
1105.961, 2168.370
1106.443, 2179.747
1106.925, 2191.498
1107.407, 2200.220
1107.889, 2197.528
1108.371, 2186.163
1108.853, 2180.293
1109.335, 2182.013
1109.818, 2187.067
1110.300, 2196.809
1110.782, 2205.149
1111.264, 2207.610
1111.746, 2205.271
1112.228, 2203.075
1112.710, 2200.948
1113.192, 2201.844
1113.675, 2208.156
1114.157, 2214.466
1114.639, 2213.369
1115.121, 2210.149
1115.603, 2212.438
1116.085, 2225.092
1116.567, 2226.195
1117.049, 2212.527
1117.531, 2200.175
1118.014, 2201.664
1118.496, 2209.617
1118.978, 2213.213
1119.460, 2213.087
1119.942, 2210.891
1120.424, 2205.242
1120.906, 2199.542
1121.388, 2191.621
1121.870, 2187.990
1122.353, 2202.520
1122.835, 2226.418
1123.317, 2228.907
1123.799, 2209.887
1124.281, 2194.401
1124.763, 2200.398
1125.245, 2206.320
1125.727, 2202.648
1126.210, 2194.695
1126.692, 2195.651
1127.174, 2204.355
1127.656, 2209.879
1128.138, 2209.561
1128.620, 2208.039
1129.102, 2210.946
1129.584, 2211.951
1130.067, 2202.625
1130.549, 2184.558
1131.031, 2182.376
1131.513, 2197.337
1131.995, 2208.722
1132.477, 2205.323
1132.959, 2200.073
1133.441, 2212.982
1133.923, 2229.601
1134.406, 2227.630
1134.888, 2194.764
1135.370, 2173.018
1135.852, 2162.131
1136.334, 2164.068
1136.816, 2191.991
1137.298, 2226.526
1137.780, 2235.403
1138.262, 2224.394
1138.745, 2210.127
1139.227, 2192.043
1139.709, 2178.742
1140.191, 2170.988
1140.673, 2167.922
1141.155, 2169.201
1141.637, 2174.378
1142.119, 2185.665
1142.602, 2201.956
1143.084, 2209.820
1143.566, 2191.977
1144.048, 2180.135
1144.530, 2185.235
1145.012, 2198.949
1145.494, 2206.695
1145.976, 2208.781
1146.458, 2205.752
1146.941, 2197.026
1147.423, 2189.265
1147.905, 2179.518
1148.387, 2179.414
1148.869, 2199.419
1149.351, 2233.931
1149.833, 2251.545
1150.315, 2253.136
1150.797, 2250.820
1151.280, 2248.682
1151.762, 2243.728
1152.244, 2223.975
1152.726, 2207.209
1153.208, 2215.852
1153.690, 2254.457
1154.172, 2262.759
1154.654, 2239.308
1155.137, 2218.660
1155.619, 2225.376
1156.101, 2238.198
1156.583, 2234.596
1157.065, 2223.373
1157.547, 2222.154
1158.029, 2240.596
1158.511, 2239.780
1158.994, 2214.520
1159.476, 2192.967
1159.958, 2205.219
1160.440, 2229.976
1160.922, 2240.115
1161.404, 2238.491
1161.886, 2240.640
1162.368, 2254.520
1162.850, 2259.340
1163.333, 2250.522
1163.815, 2237.917
1164.297, 2231.219
1164.779, 2229.403
1165.261, 2231.186
1165.743, 2236.352
1166.225, 2244.387
1166.707, 2263.408
1167.189, 2269.942
1167.672, 2253.396
1168.154, 2229.546
1168.636, 2229.579
1169.118, 2244.012
1169.600, 2250.872
1170.082, 2244.888
1170.564, 2241.379
1171.046, 2249.966
1171.529, 2255.603
1172.011, 2249.714
1172.493, 2238.928
1172.975, 2245.822
1173.457, 2264.669
1173.939, 2276.532
1174.421, 2273.304
1174.903, 2268.181
1175.385, 2263.144
1175.868, 2261.120
1176.350, 2265.098
1176.832, 2273.834
1177.314, 2281.073
1177.796, 2286.112
1178.278, 2284.422
1178.760, 2261.682
1179.242, 2248.954
1179.724, 2271.826
1180.207, 2301.935
1180.689, 2316.149
1181.171, 2314.575
1181.653, 2289.271
1182.135, 2243.065
1182.617, 2214.922
1183.099, 2250.823
1183.581, 2286.838
1184.064, 2283.004
1184.546, 2261.565
1185.028, 2255.425
1185.510, 2265.084
1185.992, 2272.162
1186.474, 2275.354
1186.956, 2277.390
1187.438, 2274.435
1187.921, 2276.706
1188.403, 2300.387
1188.885, 2332.636
1189.367, 2338.972
1189.849, 2317.562
1190.331, 2299.509
1190.813, 2289.338
1191.295, 2284.607
1191.777, 2287.824
1192.260, 2291.810
1192.742, 2289.709
1193.224, 2282.755
1193.706, 2278.125
1194.188, 2275.264
1194.670, 2282.831
1195.152, 2305.761
1195.634, 2327.340
1196.116, 2333.225
1196.599, 2328.332
1197.081, 2311.891
1197.563, 2284.868
1198.045, 2277.545
1198.527, 2292.185
1199.009, 2304.918
1199.491, 2306.985
1199.973, 2304.309
1200.456, 2301.925
1200.938, 2299.051
1201.420, 2292.265
1201.902, 2279.382
1202.384, 2284.502
1202.866, 2310.017
1203.348, 2335.792
1203.830, 2355.135
1204.313, 2365.187
1204.795, 2354.909
1205.277, 2336.379
1205.759, 2329.043
1206.241, 2340.469
1206.723, 2338.989
1207.205, 2322.717
1207.687, 2306.068
1208.169, 2294.981
1208.651, 2290.894
1209.134, 2298.263
1209.616, 2313.024
1210.098, 2327.838
1210.580, 2345.365
1211.062, 2352.203
1211.544, 2346.725
1212.026, 2339.066
1212.508, 2336.403
1212.991, 2336.411
1213.473, 2337.361
1213.955, 2338.912
1214.437, 2340.550
1214.919, 2343.338
1215.401, 2342.440
1215.883, 2337.089
1216.365, 2330.269
1216.848, 2321.900
1217.330, 2315.424
1217.812, 2315.854
1218.294, 2321.755
1218.776, 2326.414
1219.258, 2329.090
1219.740, 2330.881
1220.222, 2331.240
1220.704, 2334.422
1221.187, 2350.195
1221.669, 2367.069
1222.151, 2372.947
1222.633, 2367.649
1223.115, 2355.690
1223.597, 2331.401
1224.079, 2330.275
1224.561, 2364.132
1225.043, 2398.344
1225.526, 2388.302
1226.008, 2363.396
1226.490, 2353.752
1226.972, 2361.934
1227.454, 2372.606
1227.936, 2387.984
1228.418, 2391.965
1228.900, 2377.820
1229.383, 2361.353
1229.865, 2361.178
1230.347, 2367.304
1230.829, 2370.157
1231.311, 2368.710
1231.793, 2362.177
1232.275, 2348.978
1232.757, 2342.947
1233.240, 2349.495
1233.722, 2361.379
1234.204, 2378.775
1234.686, 2392.148
1235.168, 2387.261
1235.650, 2363.431
1236.132, 2354.468
1236.614, 2361.715
1237.096, 2366.358
1237.579, 2358.507
1238.061, 2351.819
1238.543, 2364.499
1239.025, 2381.783
1239.507, 2384.782
1239.989, 2372.589
1240.471, 2372.206
1240.953, 2383.825
1241.436, 2398.508
1241.918, 2416.932
1242.400, 2427.873
1242.882, 2416.735
1243.364, 2396.349
1243.846, 2378.827
1244.328, 2364.013
1244.810, 2362.690
1245.292, 2374.484
1245.775, 2386.967
1246.257, 2394.976
1246.739, 2400.669
1247.221, 2406.283
1247.703, 2409.588
1248.185, 2407.807
1248.667, 2400.704
1249.149, 2397.020
1249.631, 2396.546
1250.114, 2397.328
1250.596, 2394.627
1251.078, 2397.534
1251.560, 2421.258
1252.042, 2444.573
1252.524, 2445.093
1253.006, 2424.116
1253.488, 2404.512
1253.971, 2387.089
1254.453, 2376.139
1254.935, 2371.855
1255.417, 2377.581
1255.899, 2403.270
1256.381, 2430.988
1256.863, 2443.876
1257.345, 2443.854
1257.828, 2442.130
1258.310, 2438.824
1258.792, 2433.061
1259.274, 2417.341
1259.756, 2409.361
1260.238, 2415.578
1260.720, 2426.663
1261.202, 2434.663
1261.684, 2439.511
1262.167, 2439.604
1262.649, 2435.907
1263.131, 2433.291
1263.613, 2437.978
1264.095, 2437.001
1264.577, 2426.314
1265.059, 2414.224
1265.541, 2408.124
1266.023, 2407.869
1266.506, 2415.421
1266.988, 2429.187
1267.470, 2441.963
1267.952, 2454.996
1268.434, 2460.464
1268.916, 2456.321
1269.398, 2448.455
1269.880, 2438.790
1270.363, 2431.931
1270.845, 2436.430
1271.327, 2450.495
1271.809, 2464.176
1272.291, 2477.901
1272.773, 2486.730
1273.255, 2489.762
1273.737, 2489.144
1274.219, 2482.784
1274.702, 2477.187
1275.184, 2480.125
1275.666, 2490.239
1276.148, 2500.580
1276.630, 2511.869
1277.112, 2517.997
1277.594, 2518.240
1278.076, 2512.432
1278.558, 2493.353
1279.041, 2474.664
1279.523, 2470.410
1280.005, 2474.809
1280.487, 2469.493
1280.969, 2454.105
1281.451, 2453.306
1281.933, 2470.457
1282.415, 2492.806
1282.898, 2526.097
1283.380, 2545.652
1283.862, 2527.140
1284.344, 2492.761
1284.826, 2486.511
1285.308, 2503.793
1285.790, 2513.697
1286.272, 2512.814
1286.755, 2508.220
1287.237, 2500.345
1287.719, 2493.741
1288.201, 2489.727
1288.683, 2487.819
1289.165, 2490.072
1289.647, 2493.344
1290.129, 2484.825
1290.611, 2464.322
1291.094, 2454.930
1291.576, 2474.220
1292.058, 2492.184
1292.540, 2504.590
1293.022, 2509.962
1293.504, 2499.601
1293.986, 2484.102
1294.468, 2481.924
1294.950, 2493.579
1295.433, 2503.260
1295.915, 2509.432
1296.397, 2512.972
1296.879, 2513.907
1297.361, 2512.966
1297.843, 2505.790
1298.325, 2501.024
1298.807, 2514.084
1299.290, 2540.730
1299.772, 2543.709
1300.254, 2518.745
1300.736, 2510.374
1301.218, 2528.214
1301.700, 2544.135
1302.182, 2523.885
1302.664, 2501.376
1303.146, 2508.358
1303.629, 2530.346
1304.111, 2531.911
1304.593, 2515.209
1305.075, 2507.989
1305.557, 2514.293
1306.039, 2523.035
1306.521, 2526.914
1307.003, 2532.486
1307.485, 2542.690
1307.968, 2555.400
1308.450, 2572.519
1308.932, 2588.374
1309.414, 2581.988
1309.896, 2551.943
1310.378, 2523.823
1310.860, 2500.507
1311.342, 2493.443
1311.825, 2510.516
1312.307, 2532.209
1312.789, 2527.559
1313.271, 2511.608
1313.753, 2508.527
1314.235, 2519.079
1314.717, 2527.835
1315.199, 2531.730
1315.682, 2540.392
1316.164, 2556.854
1316.646, 2570.639
1317.128, 2565.564
1317.610, 2557.278
1318.092, 2557.918
##END=



