##NAMES=Moraesite
##RRUFFID=R060876
##IDEAL CHEMISTRY=Be_2_PO_4_(OH)&#183;4H_2_O
##LOCALITY=Galileia, Minas Gerais, Brazil
##OWNER=RRUFF
##SOURCE=Bob Jenkins
##DESCRIPTION=Colorless to tan fibrous crystals associated with beryllonite
##STATUS=The identification of this mineral is confirmed by single-crystal X-ray diffraction and chemical analysis.
##URL=rruff.info/R060876
##MEASURED CHEMISTRY=Be_2.00_P_1.00_O_4_((OH)_0.85_F_0.15_)_Σ=1_·4H_2_O; trace amounts of Al and Fe; Be and H not measured but assumed by stoichiometry
184.1864, 2036.913
184.6686, 2051.941
185.1507, 2066.433
185.6328, 2067.484
186.1149, 2062.161
186.5970, 2058.197
187.0791, 2059.026
187.5613, 2063.688
188.0434, 2070.506
188.5255, 2083.438
189.0076, 2091.170
189.4897, 2086.062
189.9718, 2077.512
190.4540, 2076.501
190.9361, 2088.475
191.4182, 2106.821
191.9003, 2114.783
192.3824, 2104.677
192.8645, 2097.588
193.3467, 2095.166
193.8288, 2097.735
194.3109, 2108.786
194.7930, 2129.958
195.2751, 2152.582
195.7572, 2155.373
196.2394, 2119.938
196.7215, 2099.464
197.2036, 2106.895
197.6857, 2126.106
198.1678, 2145.336
198.6499, 2160.355
199.1321, 2170.767
199.6142, 2175.498
200.0963, 2172.652
200.5784, 2167.343
201.0605, 2158.279
201.5426, 2148.507
202.0248, 2138.932
202.5069, 2130.211
202.9890, 2125.077
203.4711, 2128.872
203.9532, 2146.785
204.4353, 2162.128
204.9175, 2176.440
205.3996, 2186.896
205.8817, 2190.740
206.3638, 2187.798
206.8459, 2180.954
207.3280, 2172.737
207.8102, 2159.488
208.2923, 2154.942
208.7744, 2165.344
209.2565, 2178.512
209.7386, 2190.261
210.2207, 2198.557
210.7029, 2200.645
211.1850, 2190.450
211.6671, 2160.759
212.1492, 2145.994
212.6313, 2157.539
213.1134, 2173.159
213.5956, 2183.571
214.0777, 2187.908
214.5598, 2189.692
215.0419, 2192.862
215.5240, 2198.477
216.0061, 2198.128
216.4883, 2184.820
216.9704, 2172.110
217.4525, 2164.555
217.9346, 2162.041
218.4167, 2162.110
218.8988, 2162.097
219.3810, 2161.784
219.8631, 2169.499
220.3452, 2196.792
220.8273, 2221.227
221.3094, 2237.360
221.7915, 2245.897
222.2737, 2248.964
222.7558, 2247.309
223.2379, 2241.524
223.7200, 2238.062
224.2021, 2234.808
224.6842, 2236.794
225.1664, 2252.644
225.6485, 2272.917
226.1306, 2282.662
226.6127, 2272.125
227.0948, 2247.156
227.5770, 2232.730
228.0591, 2239.619
228.5412, 2242.922
229.0233, 2233.472
229.5054, 2220.198
229.9875, 2214.141
230.4697, 2220.453
230.9518, 2234.073
231.4339, 2242.745
231.9160, 2244.822
232.3981, 2244.124
232.8802, 2238.763
233.3624, 2232.606
233.8445, 2229.600
234.3266, 2230.940
234.8087, 2233.646
235.2908, 2231.737
235.7729, 2220.941
236.2551, 2215.880
236.7372, 2219.818
237.2193, 2227.615
237.7014, 2237.525
238.1835, 2248.534
238.6656, 2258.303
239.1478, 2264.142
239.6299, 2265.881
240.1120, 2264.125
240.5941, 2254.983
241.0762, 2245.555
241.5583, 2237.072
242.0405, 2230.836
242.5226, 2229.991
243.0047, 2240.868
243.4868, 2265.374
243.9689, 2278.583
244.4510, 2271.118
244.9332, 2260.386
245.4153, 2249.799
245.8974, 2240.937
246.3795, 2236.094
246.8616, 2237.130
247.3437, 2243.726
247.8259, 2253.445
248.3080, 2271.730
248.7901, 2285.640
249.2722, 2288.364
249.7543, 2284.639
250.2364, 2282.767
250.7186, 2288.654
251.2007, 2297.677
251.6828, 2294.351
252.1649, 2268.654
252.6470, 2251.244
253.1291, 2258.479
253.6113, 2275.410
254.0934, 2286.035
254.5755, 2284.113
255.0576, 2275.726
255.5397, 2269.262
256.0219, 2264.057
256.5040, 2263.485
256.9861, 2275.811
257.4682, 2288.995
257.9503, 2291.909
258.4324, 2281.844
258.9146, 2271.704
259.3967, 2278.430
259.8788, 2303.121
260.3609, 2319.002
260.8430, 2315.784
261.3251, 2306.424
261.8073, 2297.751
262.2894, 2290.650
262.7715, 2288.780
263.2536, 2299.785
263.7357, 2320.325
264.2178, 2330.281
264.7000, 2324.464
265.1821, 2312.099
265.6642, 2294.073
266.1463, 2274.038
266.6284, 2265.383
267.1105, 2282.821
267.5927, 2314.383
268.0748, 2334.782
268.5569, 2341.746
269.0390, 2342.995
269.5211, 2338.317
270.0032, 2331.876
270.4854, 2331.844
270.9675, 2347.582
271.4496, 2364.640
271.9317, 2362.621
272.4138, 2340.807
272.8959, 2325.275
273.3781, 2335.045
273.8602, 2356.470
274.3423, 2362.012
274.8244, 2341.961
275.3065, 2321.385
275.7886, 2320.025
276.2708, 2333.201
276.7529, 2340.514
277.2350, 2331.825
277.7171, 2318.177
278.1992, 2318.651
278.6813, 2335.077
279.1635, 2352.821
279.6456, 2371.163
280.1277, 2386.390
280.6098, 2390.387
281.0919, 2380.418
281.5740, 2365.216
282.0562, 2355.253
282.5383, 2351.273
283.0204, 2343.625
283.5025, 2321.956
283.9846, 2302.057
284.4667, 2299.612
284.9489, 2315.207
285.4310, 2338.218
285.9131, 2362.536
286.3952, 2387.486
286.8773, 2401.552
287.3594, 2398.528
287.8416, 2391.775
288.3237, 2386.732
288.8058, 2383.121
289.2879, 2378.526
289.7700, 2370.907
290.2521, 2362.427
290.7343, 2362.681
291.2164, 2382.934
291.6985, 2397.406
292.1806, 2401.632
292.6627, 2398.202
293.1448, 2387.418
293.6270, 2369.694
294.1091, 2352.033
294.5912, 2347.589
295.0733, 2368.079
295.5554, 2379.872
296.0375, 2374.516
296.5197, 2367.170
297.0018, 2371.567
297.4839, 2387.236
297.9660, 2401.058
298.4481, 2398.524
298.9302, 2376.573
299.4124, 2359.305
299.8945, 2343.414
300.3766, 2335.284
300.8587, 2344.837
301.3408, 2363.892
301.8229, 2375.653
302.3050, 2368.352
302.7871, 2345.649
303.2693, 2325.484
303.7514, 2303.170
304.2335, 2291.427
304.7156, 2298.421
305.1977, 2313.600
305.6798, 2327.172
306.1620, 2335.674
306.6441, 2338.426
307.1262, 2331.447
307.6083, 2309.860
308.0904, 2296.900
308.5725, 2307.924
309.0547, 2321.098
309.5368, 2322.233
310.0189, 2310.625
310.5010, 2297.343
310.9831, 2293.372
311.4652, 2297.519
311.9474, 2295.616
312.4295, 2280.493
312.9116, 2268.436
313.3937, 2272.853
313.8758, 2288.152
314.3579, 2299.690
314.8401, 2298.386
315.3222, 2290.396
315.8043, 2285.323
316.2864, 2282.847
316.7685, 2285.454
317.2506, 2299.709
317.7328, 2318.225
318.2149, 2328.640
318.6970, 2327.547
319.1791, 2321.517
319.6612, 2312.526
320.1433, 2301.829
320.6255, 2295.233
321.1076, 2295.539
321.5897, 2299.564
322.0718, 2301.938
322.5539, 2301.933
323.0360, 2304.464
323.5182, 2312.847
324.0003, 2323.734
324.4824, 2333.779
324.9645, 2342.431
325.4466, 2347.848
325.9287, 2347.471
326.4109, 2340.564
326.8930, 2336.115
327.3751, 2333.480
327.8572, 2333.727
328.3393, 2339.319
328.8214, 2348.573
329.3036, 2356.636
329.7857, 2360.551
330.2678, 2361.355
330.7499, 2363.617
331.2320, 2375.774
331.7141, 2378.860
332.1963, 2363.482
332.6784, 2341.459
333.1605, 2324.963
333.6426, 2317.839
334.1247, 2316.561
334.6068, 2316.850
335.0890, 2321.717
335.5711, 2319.612
336.0532, 2303.716
336.5353, 2287.743
337.0174, 2279.124
337.4995, 2277.017
337.9817, 2276.185
338.4638, 2272.417
338.9459, 2266.225
339.4280, 2262.692
339.9101, 2266.407
340.3922, 2265.774
340.8744, 2252.656
341.3565, 2235.460
341.8386, 2225.824
342.3207, 2229.037
342.8028, 2236.588
343.2849, 2233.403
343.7671, 2216.804
344.2492, 2208.996
344.7313, 2223.810
345.2134, 2242.656
345.6955, 2251.166
346.1776, 2248.672
346.6598, 2242.021
347.1419, 2232.989
347.6240, 2223.131
348.1061, 2216.196
348.5882, 2212.017
349.0703, 2212.505
349.5525, 2222.658
350.0346, 2239.179
350.5167, 2252.242
350.9988, 2257.959
351.4809, 2261.375
351.9630, 2266.259
352.4452, 2272.431
352.9273, 2278.562
353.4094, 2283.558
353.8915, 2288.662
354.3736, 2297.838
354.8557, 2313.625
355.3379, 2327.189
355.8200, 2336.036
356.3021, 2341.861
356.7842, 2346.120
357.2663, 2349.252
357.7484, 2351.219
358.2306, 2350.700
358.7127, 2345.038
359.1948, 2353.254
359.6769, 2383.911
360.1590, 2417.625
360.6411, 2450.859
361.1233, 2480.151
361.6054, 2498.628
362.0875, 2501.230
362.5696, 2493.849
363.0517, 2498.488
363.5338, 2523.847
364.0160, 2547.793
364.4981, 2565.896
364.9802, 2582.737
365.4623, 2602.696
365.9444, 2626.405
366.4265, 2650.716
366.9087, 2670.793
367.3908, 2686.281
367.8729, 2706.242
368.3550, 2733.488
368.8371, 2762.670
369.3192, 2790.431
369.8014, 2817.935
370.2835, 2847.879
370.7656, 2881.731
371.2477, 2918.615
371.7298, 2960.257
372.2119, 3008.171
372.6941, 3045.143
373.1762, 3057.278
373.6583, 3057.682
374.1404, 3067.825
374.6225, 3091.665
375.1046, 3113.162
375.5868, 3126.437
376.0689, 3130.984
376.5510, 3124.054
377.0331, 3104.337
377.5152, 3079.148
377.9973, 3057.407
378.4795, 3039.872
378.9616, 3008.680
379.4437, 2957.721
379.9258, 2898.432
380.4079, 2832.712
380.8900, 2764.069
381.3722, 2700.797
381.8543, 2647.322
382.3364, 2602.375
382.8185, 2561.318
383.3006, 2525.473
383.7827, 2492.731
384.2649, 2464.175
384.7470, 2437.973
385.2291, 2411.176
385.7112, 2384.178
386.1933, 2361.329
386.6754, 2348.386
387.1576, 2346.092
387.6397, 2340.259
388.1218, 2326.229
388.6039, 2313.960
389.0860, 2309.642
389.5681, 2308.469
390.0503, 2302.607
390.5324, 2288.020
391.0145, 2269.187
391.4966, 2251.159
391.9787, 2233.371
392.4608, 2222.888
392.9430, 2226.535
393.4251, 2234.077
393.9072, 2234.596
394.3893, 2228.077
394.8714, 2224.122
395.3535, 2232.424
395.8357, 2244.588
396.3178, 2244.239
396.7999, 2229.254
397.2820, 2214.769
397.7641, 2211.091
398.2462, 2217.048
398.7284, 2223.630
399.2105, 2236.509
399.6926, 2243.675
400.1747, 2235.435
400.6568, 2219.578
401.1389, 2208.117
401.6211, 2204.959
402.1032, 2209.043
402.5853, 2219.864
403.0674, 2242.162
403.5495, 2256.269
404.0316, 2260.183
404.5138, 2259.155
404.9959, 2252.466
405.4780, 2243.063
405.9601, 2237.387
406.4422, 2240.217
406.9243, 2248.179
407.4065, 2248.215
407.8886, 2233.450
408.3707, 2225.026
408.8528, 2229.175
409.3349, 2239.215
409.8170, 2252.084
410.2992, 2266.696
410.7813, 2279.077
411.2634, 2284.755
411.7455, 2284.938
412.2276, 2284.304
412.7097, 2280.542
413.1919, 2282.272
413.6740, 2302.482
414.1561, 2332.063
414.6382, 2352.249
415.1203, 2356.215
415.6024, 2354.126
416.0846, 2352.500
416.5667, 2350.804
417.0488, 2347.294
417.5309, 2341.294
418.0130, 2333.667
418.4951, 2326.177
418.9773, 2320.337
419.4594, 2308.715
419.9415, 2286.053
420.4236, 2261.689
420.9057, 2239.379
421.3878, 2220.637
421.8700, 2208.988
422.3521, 2207.738
422.8342, 2212.907
423.3163, 2206.549
423.7984, 2174.378
424.2805, 2153.113
424.7627, 2153.737
425.2448, 2160.852
425.7269, 2163.707
426.2090, 2159.949
426.6911, 2151.261
427.1732, 2136.464
427.6554, 2116.419
428.1375, 2102.527
428.6196, 2094.399
429.1017, 2093.426
429.5838, 2108.491
430.0659, 2128.806
430.5481, 2137.369
431.0302, 2127.233
431.5123, 2111.023
431.9944, 2094.139
432.4765, 2078.992
432.9586, 2076.701
433.4408, 2092.921
433.9229, 2113.064
434.4050, 2119.323
434.8871, 2110.022
435.3692, 2103.139
435.8513, 2103.414
436.3335, 2102.913
436.8156, 2093.510
437.2977, 2079.244
437.7798, 2071.394
438.2619, 2076.129
438.7440, 2088.195
439.2262, 2093.744
439.7083, 2084.647
440.1904, 2083.711
440.6725, 2103.578
441.1546, 2120.776
441.6367, 2115.751
442.1189, 2092.406
442.6010, 2070.957
443.0831, 2067.467
443.5652, 2077.447
444.0473, 2083.304
444.5294, 2083.175
445.0116, 2084.188
445.4937, 2093.872
445.9758, 2103.474
446.4579, 2101.780
446.9400, 2085.623
447.4221, 2072.602
447.9043, 2078.429
448.3864, 2094.065
448.8685, 2099.590
449.3506, 2091.844
449.8327, 2081.799
450.3148, 2077.774
450.7970, 2079.218
451.2791, 2079.396
451.7612, 2075.896
452.2433, 2074.021
452.7254, 2077.664
453.2076, 2083.207
453.6897, 2084.888
454.1718, 2081.281
454.6539, 2076.503
455.1360, 2075.987
455.6181, 2080.536
456.1003, 2084.795
456.5824, 2091.833
457.0645, 2095.238
457.5466, 2092.124
458.0287, 2084.242
458.5108, 2072.424
458.9930, 2055.467
459.4751, 2042.260
459.9572, 2049.546
460.4393, 2077.698
460.9214, 2098.415
461.4035, 2103.466
461.8857, 2103.370
462.3678, 2109.015
462.8499, 2118.686
463.3320, 2122.680
463.8141, 2112.171
464.2962, 2099.761
464.7784, 2096.398
465.2605, 2100.958
465.7426, 2107.350
466.2247, 2112.315
466.7068, 2110.296
467.1889, 2122.209
467.6711, 2131.352
468.1532, 2137.828
468.6353, 2136.131
469.1174, 2143.090
469.5995, 2145.421
470.0816, 2146.769
470.5638, 2152.582
471.0459, 2144.054
471.5280, 2121.276
472.0101, 2111.685
472.4922, 2121.734
472.9743, 2127.531
473.4565, 2120.386
473.9386, 2109.884
474.4207, 2101.718
474.9028, 2096.144
475.3849, 2090.586
475.8670, 2079.909
476.3492, 2069.757
476.8313, 2073.955
477.3134, 2092.934
477.7955, 2104.215
478.2776, 2093.425
478.7597, 2070.429
479.2419, 2059.453
479.7240, 2064.266
480.2061, 2069.460
480.6882, 2074.768
481.1703, 2077.438
481.6524, 2074.030
482.1346, 2065.028
482.6167, 2053.385
483.0988, 2040.313
483.5809, 2027.469
484.0630, 2024.689
484.5451, 2042.006
485.0273, 2052.880
485.5094, 2050.832
485.9915, 2043.623
486.4736, 2035.657
486.9557, 2028.225
487.4378, 2023.307
487.9200, 2025.095
488.4021, 2030.459
488.8842, 2029.044
489.3663, 2019.704
489.8484, 2009.685
490.3305, 2001.783
490.8127, 1996.008
491.2948, 1992.630
491.7769, 1993.422
492.2590, 1991.485
492.7411, 1981.156
493.2232, 1968.776
493.7054, 1960.303
494.1875, 1956.905
494.6696, 1959.961
495.1517, 1972.082
495.6338, 1990.519
496.1159, 1997.450
496.5981, 1983.194
497.0802, 1970.471
497.5623, 1959.620
498.0444, 1952.361
498.5265, 1951.940
499.0086, 1957.560
499.4908, 1963.182
499.9729, 1965.127
500.4550, 1963.052
500.9371, 1952.918
501.4192, 1931.126
501.9013, 1916.992
502.3835, 1925.107
502.8656, 1942.216
503.3477, 1946.793
503.8298, 1935.763
504.3119, 1923.597
504.7940, 1911.653
505.2762, 1903.739
505.7583, 1907.256
506.2404, 1920.992
506.7225, 1933.969
507.2046, 1938.627
507.6867, 1937.091
508.1689, 1938.959
508.6510, 1955.300
509.1331, 1958.204
509.6152, 1929.227
510.0973, 1899.998
510.5794, 1897.618
511.0616, 1919.494
511.5437, 1941.471
512.0258, 1945.461
512.5079, 1937.578
512.9901, 1935.079
513.4722, 1939.301
513.9543, 1940.919
514.4364, 1936.524
514.9185, 1927.942
515.4006, 1915.687
515.8828, 1898.883
516.3649, 1889.026
516.8470, 1892.979
517.3291, 1902.830
517.8112, 1913.538
518.2933, 1923.794
518.7755, 1931.518
519.2576, 1935.658
519.7397, 1936.157
520.2218, 1932.369
520.7039, 1919.500
521.1860, 1911.555
521.6682, 1910.226
522.1503, 1911.598
522.6324, 1914.906
523.1145, 1919.162
523.5966, 1922.689
524.0787, 1924.708
524.5609, 1925.385
525.0430, 1924.181
525.5251, 1921.121
526.0072, 1920.835
526.4893, 1927.417
526.9714, 1932.175
527.4536, 1919.800
527.9357, 1893.231
528.4178, 1882.075
528.8999, 1902.367
529.3820, 1927.421
529.8641, 1946.726
530.3463, 1958.421
530.8284, 1957.436
531.3105, 1942.422
531.7926, 1922.570
532.2747, 1909.560
532.7568, 1903.002
533.2390, 1905.849
533.7211, 1933.846
534.2032, 1953.044
534.6853, 1946.558
535.1674, 1927.870
535.6495, 1915.022
536.1317, 1913.234
536.6138, 1916.621
537.0959, 1921.735
537.5780, 1927.681
538.0601, 1931.456
538.5422, 1932.605
539.0244, 1932.303
539.5065, 1931.299
539.9886, 1929.493
540.4707, 1926.489
540.9528, 1920.597
541.4349, 1915.917
541.9171, 1912.707
542.3992, 1911.437
542.8813, 1915.170
543.3634, 1922.303
543.8455, 1924.640
544.3276, 1914.050
544.8098, 1894.974
545.2919, 1887.510
545.7740, 1895.155
546.2561, 1904.924
546.7382, 1918.685
547.2203, 1929.421
547.7025, 1929.176
548.1846, 1918.912
548.6666, 1911.308
549.1487, 1913.406
549.6309, 1919.870
550.1130, 1925.886
550.5951, 1931.282
551.0772, 1935.520
551.5593, 1938.184
552.0414, 1940.938
552.5236, 1946.910
553.0057, 1958.371
553.4878, 1965.300
553.9699, 1967.598
554.4520, 1966.222
554.9341, 1957.297
555.4163, 1946.273
555.8984, 1942.153
556.3805, 1948.381
556.8626, 1957.607
557.3447, 1959.115
557.8268, 1954.552
558.3090, 1959.323
558.7911, 1978.515
559.2732, 1995.161
559.7553, 1995.252
560.2374, 1984.492
560.7195, 1982.186
561.2017, 1995.378
561.6838, 2004.928
562.1659, 2000.542
562.6480, 1992.191
563.1301, 1987.937
563.6122, 1990.076
564.0944, 2001.991
564.5765, 2028.169
565.0586, 2062.716
565.5407, 2081.712
566.0228, 2078.643
566.5049, 2076.469
566.9871, 2078.642
567.4692, 2083.337
567.9513, 2088.819
568.4334, 2095.659
568.9155, 2106.578
569.3976, 2124.109
569.8798, 2145.044
570.3619, 2166.847
570.8440, 2189.476
571.3261, 2213.051
571.8082, 2237.703
572.2903, 2262.408
572.7725, 2285.794
573.2546, 2307.844
573.7367, 2329.471
574.2188, 2350.338
574.7009, 2371.496
575.1830, 2392.021
575.6652, 2413.575
576.1473, 2440.141
576.6294, 2471.790
577.1115, 2500.368
577.5936, 2513.932
578.0757, 2518.588
578.5579, 2536.178
579.0400, 2568.189
579.5221, 2602.329
580.0042, 2633.128
580.4863, 2662.631
580.9684, 2696.590
581.4506, 2739.172
581.9327, 2769.485
582.4148, 2776.441
582.8969, 2777.423
583.3790, 2783.000
583.8611, 2791.885
584.3433, 2799.982
584.8254, 2805.398
585.3075, 2807.088
585.7896, 2803.325
586.2717, 2793.989
586.7538, 2780.820
587.2360, 2765.046
587.7181, 2743.228
588.2002, 2708.655
588.6823, 2667.986
589.1644, 2632.690
589.6465, 2606.973
590.1287, 2579.081
590.6108, 2546.479
591.0929, 2506.728
591.5750, 2451.370
592.0571, 2383.567
592.5392, 2321.628
593.0214, 2278.146
593.5035, 2248.517
593.9856, 2218.214
594.4677, 2186.835
594.9498, 2156.090
595.4319, 2122.974
595.9141, 2093.719
596.3962, 2074.542
596.8783, 2061.822
597.3604, 2046.394
597.8425, 2024.263
598.3246, 1999.748
598.8068, 1972.945
599.2889, 1947.042
599.7710, 1931.314
600.2531, 1927.511
600.7352, 1928.642
601.2173, 1929.940
601.6995, 1930.808
602.1816, 1926.324
602.6637, 1912.054
603.1458, 1898.276
603.6279, 1883.897
604.1100, 1871.736
604.5922, 1862.627
605.0743, 1857.486
605.5564, 1859.746
606.0385, 1877.497
606.5206, 1895.377
607.0027, 1882.740
607.4849, 1844.727
607.9670, 1825.910
608.4491, 1841.629
608.9312, 1861.656
609.4133, 1853.792
609.8954, 1817.864
610.3776, 1794.665
610.8597, 1789.977
611.3418, 1789.419
611.8239, 1791.639
612.3060, 1795.187
612.7881, 1799.667
613.2703, 1804.421
613.7524, 1807.349
614.2345, 1806.056
614.7166, 1802.484
615.1987, 1802.090
615.6808, 1805.104
616.1630, 1806.096
616.6451, 1803.383
617.1272, 1798.286
617.6093, 1791.132
618.0914, 1781.855
618.5735, 1776.120
619.0557, 1778.245
619.5378, 1779.215
620.0199, 1775.396
620.5020, 1768.536
620.9841, 1757.510
621.4662, 1744.177
621.9484, 1738.765
622.4305, 1754.218
622.9126, 1783.356
623.3947, 1796.445
623.8768, 1790.777
624.3589, 1785.070
624.8411, 1786.573
625.3232, 1788.526
625.8053, 1780.291
626.2874, 1762.572
626.7695, 1751.822
627.2516, 1757.926
627.7338, 1763.287
628.2159, 1756.594
628.6980, 1744.554
629.1801, 1736.881
629.6622, 1735.958
630.1443, 1738.828
630.6265, 1743.606
631.1086, 1749.543
631.5907, 1752.988
632.0728, 1754.579
632.5549, 1750.561
633.0370, 1733.846
633.5192, 1716.756
634.0013, 1716.061
634.4834, 1730.644
634.9655, 1737.776
635.4476, 1724.535
635.9297, 1711.589
636.4119, 1711.185
636.8940, 1718.443
637.3761, 1727.537
637.8582, 1735.985
638.3403, 1739.208
638.8224, 1729.701
639.3046, 1711.493
639.7867, 1713.603
640.2688, 1745.876
640.7509, 1762.476
641.2330, 1737.716
641.7151, 1703.994
642.1973, 1695.421
642.6794, 1710.099
643.1615, 1725.962
643.6436, 1744.085
644.1257, 1756.288
644.6078, 1754.674
645.0900, 1745.588
645.5721, 1739.009
646.0542, 1736.783
646.5363, 1732.780
647.0184, 1719.388
647.5005, 1700.618
647.9827, 1697.747
648.4648, 1715.750
648.9469, 1729.765
649.4290, 1732.307
649.9111, 1729.917
650.3932, 1729.624
650.8754, 1730.646
651.3575, 1726.871
651.8396, 1707.267
652.3217, 1694.004
652.8038, 1706.925
653.2859, 1727.742
653.7681, 1728.974
654.2502, 1708.736
654.7323, 1687.830
655.2144, 1682.745
655.6965, 1690.214
656.1786, 1702.468
656.6608, 1721.974
657.1429, 1729.431
657.6250, 1712.297
658.1071, 1694.292
658.5892, 1703.185
659.0714, 1731.377
659.5535, 1744.191
660.0356, 1723.903
660.5177, 1706.051
660.9998, 1706.335
661.4819, 1712.681
661.9641, 1711.848
662.4462, 1703.641
662.9283, 1695.436
663.4104, 1691.482
663.8925, 1692.443
664.3746, 1702.991
664.8568, 1723.698
665.3389, 1733.721
665.8210, 1725.900
666.3031, 1716.381
666.7852, 1716.526
667.2673, 1724.949
667.7495, 1735.012
668.2316, 1754.177
668.7137, 1762.896
669.1958, 1747.765
669.6779, 1728.729
670.1600, 1722.929
670.6422, 1727.125
671.1243, 1727.084
671.6064, 1715.035
672.0885, 1701.250
672.5706, 1700.291
673.0527, 1710.902
673.5349, 1726.093
674.0170, 1746.960
674.4991, 1761.686
674.9812, 1760.778
675.4633, 1750.922
675.9454, 1749.721
676.4276, 1762.619
676.9097, 1772.322
677.3918, 1776.695
677.8739, 1779.531
678.3560, 1781.929
678.8381, 1784.407
679.3203, 1787.755
679.8024, 1792.213
680.2845, 1796.365
680.7666, 1797.618
681.2487, 1797.852
681.7308, 1803.244
682.2130, 1813.536
682.6951, 1818.518
683.1772, 1811.912
683.6593, 1804.304
684.1414, 1813.789
684.6235, 1845.690
685.1057, 1866.288
685.5878, 1869.594
686.0699, 1868.812
686.5520, 1859.188
687.0341, 1851.793
687.5162, 1859.111
687.9984, 1881.985
688.4805, 1909.374
688.9626, 1945.186
689.4447, 1974.582
689.9268, 1974.919
690.4089, 1954.751
690.8911, 1938.142
691.3732, 1931.792
691.8553, 1931.985
692.3374, 1935.844
692.8195, 1942.728
693.3016, 1946.503
693.7838, 1944.608
694.2659, 1945.316
694.7480, 1952.074
695.2301, 1960.223
695.7122, 1967.134
696.1943, 1972.819
696.6765, 1977.736
697.1586, 1984.022
697.6407, 1986.531
698.1228, 1977.179
698.6049, 1965.518
699.0870, 1967.032
699.5692, 1979.645
700.0513, 1987.403
700.5334, 1980.568
701.0155, 1962.636
701.4976, 1936.105
701.9797, 1899.697
702.4619, 1883.097
702.9440, 1897.331
703.4261, 1909.623
703.9082, 1897.261
704.3903, 1871.101
704.8724, 1858.384
705.3546, 1866.099
705.8367, 1866.201
706.3188, 1847.206
706.8009, 1827.202
707.2830, 1820.043
707.7651, 1818.338
708.2473, 1807.884
708.7294, 1784.642
709.2115, 1758.969
709.6936, 1737.094
710.1757, 1721.075
710.6578, 1720.343
711.1400, 1733.814
711.6221, 1741.424
712.1042, 1735.880
712.5863, 1722.258
713.0684, 1705.115
713.5505, 1683.856
714.0327, 1671.806
714.5148, 1671.467
714.9969, 1677.445
715.4790, 1700.551
715.9611, 1720.428
716.4432, 1718.758
716.9254, 1697.793
717.4075, 1673.246
717.8896, 1646.582
718.3717, 1625.404
718.8538, 1619.744
719.3359, 1622.099
719.8181, 1617.613
720.3002, 1605.998
720.7823, 1600.377
721.2644, 1610.236
721.7465, 1629.036
722.2286, 1641.343
722.7108, 1646.498
723.1929, 1649.964
723.6750, 1653.476
724.1571, 1652.456
724.6392, 1639.749
725.1213, 1622.575
725.6035, 1616.208
726.0856, 1624.176
726.5677, 1630.908
727.0498, 1634.537
727.5319, 1635.228
728.0140, 1631.536
728.4962, 1625.565
728.9783, 1620.381
729.4604, 1616.849
729.9425, 1613.984
730.4246, 1610.389
730.9067, 1607.059
731.3889, 1606.702
731.8710, 1609.035
732.3531, 1612.295
732.8352, 1616.580
733.3173, 1617.146
733.7994, 1607.329
734.2816, 1588.653
734.7637, 1581.296
735.2458, 1594.106
735.7279, 1603.455
736.2100, 1605.189
736.6921, 1604.240
737.1743, 1600.433
737.6564, 1596.557
738.1385, 1601.393
738.6206, 1625.120
739.1027, 1638.573
739.5848, 1612.753
740.0670, 1576.315
740.5491, 1562.743
741.0312, 1570.192
741.5133, 1583.040
741.9954, 1593.983
742.4775, 1601.324
742.9597, 1601.526
743.4418, 1595.099
743.9239, 1589.228
744.4060, 1584.050
744.8881, 1579.185
745.3702, 1574.961
745.8524, 1570.024
746.3345, 1560.750
746.8166, 1545.543
747.2987, 1541.843
747.7808, 1557.898
748.2629, 1574.032
748.7451, 1591.285
749.2272, 1602.530
749.7093, 1597.619
750.1914, 1580.032
750.6735, 1565.666
751.1556, 1563.506
751.6378, 1564.381
752.1199, 1559.578
752.6020, 1551.884
753.0841, 1544.085
753.5662, 1537.944
754.0483, 1542.277
754.5305, 1563.452
755.0126, 1589.244
755.4947, 1594.048
755.9768, 1575.208
756.4589, 1559.129
756.9410, 1544.467
757.4232, 1537.774
757.9053, 1548.479
758.3874, 1563.773
758.8695, 1561.745
759.3516, 1540.454
759.8337, 1525.687
760.3159, 1520.813
760.7980, 1521.201
761.2801, 1527.978
761.7622, 1537.253
762.2443, 1545.770
762.7264, 1552.816
763.2086, 1558.479
763.6907, 1562.575
764.1728, 1565.719
764.6549, 1567.386
765.1370, 1568.891
765.6191, 1575.991
766.1013, 1588.272
766.5834, 1594.146
767.0655, 1585.723
767.5476, 1569.909
768.0297, 1561.779
768.5118, 1562.604
768.9940, 1563.878
769.4761, 1566.364
769.9582, 1567.546
770.4403, 1567.766
770.9224, 1565.054
771.4045, 1554.695
771.8867, 1535.738
772.3688, 1522.490
772.8509, 1517.329
773.3330, 1517.363
773.8151, 1523.612
774.2972, 1533.089
774.7794, 1545.468
775.2615, 1558.539
775.7436, 1565.134
776.2257, 1559.138
776.7078, 1549.745
777.1899, 1548.527
777.6721, 1551.479
778.1542, 1548.106
778.6363, 1538.122
779.1184, 1529.642
779.6005, 1527.158
780.0826, 1529.282
780.5648, 1534.627
781.0469, 1543.914
781.5290, 1548.598
782.0111, 1546.951
782.4932, 1545.283
782.9753, 1545.768
783.4575, 1547.589
783.9396, 1551.054
784.4217, 1556.339
784.9038, 1556.108
785.3859, 1548.119
785.8680, 1537.061
786.3502, 1518.513
786.8323, 1501.908
787.3144, 1493.419
787.7965, 1494.157
788.2786, 1506.067
788.7607, 1534.120
789.2429, 1559.827
789.7250, 1565.149
790.2071, 1559.445
790.6892, 1558.760
791.1713, 1562.029
791.6534, 1557.730
792.1356, 1540.838
792.6177, 1519.620
793.0998, 1502.495
793.5819, 1490.451
794.0640, 1498.970
794.5461, 1534.110
795.0283, 1549.037
795.5104, 1521.818
795.9925, 1488.587
796.4746, 1486.839
796.9567, 1512.807
797.4388, 1525.952
797.9210, 1517.861
798.4031, 1508.668
798.8852, 1492.454
799.3673, 1482.068
799.8494, 1493.234
800.3315, 1513.129
800.8137, 1514.253
801.2958, 1486.708
801.7779, 1466.555
802.2600, 1480.492
802.7421, 1502.137
803.2242, 1510.135
803.7064, 1506.948
804.1885, 1494.322
804.6706, 1475.834
805.1527, 1469.480
805.6348, 1497.056
806.1169, 1537.715
806.5991, 1543.428
807.0812, 1518.686
807.5633, 1495.174
808.0454, 1477.810
808.5275, 1469.637
809.0096, 1474.218
809.4918, 1485.962
809.9739, 1490.062
810.4560, 1482.869
810.9381, 1481.950
811.4202, 1493.410
811.9023, 1501.179
812.3845, 1496.729
812.8666, 1486.968
813.3487, 1477.923
813.8308, 1469.768
814.3129, 1467.864
814.7950, 1479.872
815.2772, 1489.523
815.7593, 1488.659
816.2414, 1485.080
816.7235, 1486.701
817.2056, 1492.212
817.6877, 1495.666
818.1699, 1494.829
818.6520, 1490.145
819.1341, 1478.721
819.6162, 1465.495
820.0983, 1457.634
820.5804, 1455.086
821.0626, 1457.048
821.5447, 1462.952
822.0268, 1468.027
822.5089, 1466.207
822.9910, 1459.641
823.4731, 1458.934
823.9553, 1464.612
824.4374, 1463.343
824.9195, 1449.837
825.4016, 1439.548
825.8837, 1445.806
826.3658, 1462.935
826.8480, 1471.844
827.3301, 1470.438
827.8122, 1465.473
828.2943, 1449.383
828.7764, 1439.124
829.2585, 1448.231
829.7407, 1461.917
830.2228, 1459.950
830.7049, 1441.349
831.1870, 1429.756
831.6691, 1436.005
832.1512, 1444.003
832.6334, 1447.533
833.1155, 1448.882
833.5976, 1452.503
834.0797, 1456.333
834.5618, 1451.608
835.0439, 1432.479
835.5261, 1414.983
836.0082, 1415.456
836.4903, 1426.396
836.9724, 1439.487
837.4545, 1451.810
837.9366, 1455.406
838.4188, 1447.891
838.9009, 1435.375
839.3830, 1422.129
839.8651, 1410.913
840.3472, 1414.843
840.8293, 1434.331
841.3115, 1447.323
841.7936, 1449.530
842.2757, 1446.515
842.7578, 1440.765
843.2399, 1434.029
843.7220, 1430.641
844.2042, 1430.982
844.6863, 1433.756
845.1684, 1443.967
845.6505, 1449.145
846.1326, 1439.145
846.6147, 1426.311
847.0969, 1423.759
847.5790, 1430.732
848.0611, 1435.273
848.5432, 1431.761
849.0253, 1431.065
849.5074, 1440.836
849.9896, 1450.303
850.4717, 1448.755
850.9538, 1440.787
851.4359, 1438.752
851.9180, 1447.004
852.4001, 1452.093
852.8823, 1438.916
853.3644, 1423.465
853.8465, 1428.678
854.3286, 1442.932
854.8107, 1437.631
855.2928, 1410.480
855.7750, 1387.197
856.2571, 1386.903
856.7392, 1400.421
857.2213, 1416.257
857.7034, 1432.198
858.1855, 1436.714
858.6677, 1429.064
859.1498, 1420.074
859.6319, 1414.606
860.1140, 1411.149
860.5961, 1407.642
861.0782, 1404.113
861.5604, 1400.354
862.0425, 1395.472
862.5246, 1394.286
863.0067, 1399.742
863.4888, 1405.525
863.9709, 1406.949
864.4531, 1404.703
864.9352, 1400.980
865.4173, 1392.533
865.8994, 1389.426
866.3815, 1393.988
866.8636, 1400.859
867.3458, 1410.882
867.8279, 1420.538
868.3100, 1426.927
868.7921, 1429.566
869.2742, 1426.337
869.7563, 1410.806
870.2385, 1396.983
870.7206, 1391.268
871.2027, 1388.700
871.6848, 1383.817
872.1669, 1378.578
872.6490, 1379.231
873.1312, 1388.090
873.6133, 1397.255
874.0954, 1399.645
874.5775, 1400.530
875.0596, 1409.642
875.5417, 1420.780
876.0239, 1419.212
876.5060, 1403.776
876.9881, 1385.223
877.4702, 1369.525
877.9523, 1359.866
878.4344, 1365.741
878.9166, 1382.115
879.3987, 1389.390
879.8808, 1386.855
880.3629, 1383.829
880.8450, 1384.074
881.3271, 1384.731
881.8093, 1381.804
882.2914, 1376.510
882.7735, 1377.919
883.2556, 1387.564
883.7377, 1391.962
884.2198, 1387.735
884.7020, 1381.769
885.1841, 1377.814
885.6662, 1375.844
886.1483, 1376.277
886.6304, 1380.475
887.1125, 1380.530
887.5947, 1370.262
888.0768, 1365.999
888.5589, 1380.313
889.0410, 1394.984
889.5231, 1391.222
890.0052, 1373.667
890.4874, 1363.640
890.9695, 1365.246
891.4516, 1369.577
891.9337, 1380.156
892.4158, 1388.047
892.8979, 1387.017
893.3801, 1381.281
893.8622, 1377.098
894.3443, 1375.057
894.8264, 1370.492
895.3085, 1358.174
895.7906, 1346.995
896.2728, 1338.783
896.7549, 1336.260
897.2370, 1348.586
897.7191, 1368.160
898.2012, 1374.859
898.6833, 1361.409
899.1655, 1345.452
899.6476, 1338.396
900.1297, 1338.778
900.6118, 1349.788
901.0939, 1365.316
901.5760, 1371.402
902.0582, 1367.170
902.5403, 1363.694
903.0224, 1368.301
903.5045, 1374.262
903.9866, 1371.286
904.4688, 1361.676
904.9509, 1350.777
905.4330, 1339.682
905.9151, 1334.486
906.3972, 1337.122
906.8793, 1342.152
907.3615, 1344.145
907.8436, 1344.890
908.3257, 1352.837
908.8078, 1368.115
909.2899, 1369.945
909.7720, 1354.380
910.2542, 1338.641
910.7363, 1330.687
911.2184, 1328.050
911.7005, 1327.812
912.1826, 1329.919
912.6647, 1329.953
913.1469, 1327.008
913.6290, 1324.375
914.1111, 1320.214
914.5932, 1321.409
915.0753, 1336.133
915.5574, 1357.077
916.0396, 1367.156
916.5217, 1363.301
917.0038, 1360.112
917.4859, 1360.653
917.9680, 1357.519
918.4501, 1343.380
918.9323, 1329.750
919.4144, 1326.247
919.8965, 1330.911
920.3786, 1336.505
920.8607, 1345.098
921.3428, 1348.801
921.8250, 1343.521
922.3071, 1336.542
922.7892, 1327.408
923.2713, 1320.845
923.7534, 1324.965
924.2355, 1338.197
924.7177, 1346.057
925.1998, 1338.856
925.6819, 1334.489
926.1640, 1347.312
926.6461, 1359.174
927.1282, 1351.542
927.6104, 1334.053
928.0925, 1325.546
928.5746, 1329.493
929.0567, 1332.560
929.5388, 1322.499
930.0209, 1314.435
930.5031, 1326.275
930.9852, 1342.148
931.4673, 1338.046
931.9494, 1320.084
932.4315, 1312.641
932.9136, 1324.303
933.3958, 1336.293
933.8779, 1329.459
934.3600, 1316.285
934.8421, 1312.146
935.3242, 1314.302
935.8063, 1317.351
936.2885, 1320.488
936.7706, 1326.057
937.2527, 1335.559
937.7348, 1343.383
938.2169, 1340.922
938.6990, 1332.414
939.1812, 1325.827
939.6633, 1322.016
940.1454, 1325.625
940.6275, 1336.598
941.1096, 1343.726
941.5917, 1338.310
942.0739, 1328.825
942.5560, 1334.016
943.0381, 1349.318
943.5202, 1347.787
944.0023, 1329.953
944.4844, 1317.157
944.9666, 1315.947
945.4487, 1323.052
945.9308, 1337.352
946.4129, 1353.515
946.8950, 1352.021
947.3771, 1333.059
947.8593, 1339.556
948.3414, 1378.169
948.8235, 1391.928
949.3056, 1354.428
949.7877, 1306.306
950.2698, 1293.316
950.7520, 1308.950
951.2341, 1318.709
951.7162, 1321.340
952.1983, 1326.992
952.6804, 1338.394
953.1625, 1345.637
953.6447, 1343.109
954.1268, 1336.275
954.6089, 1332.626
955.0910, 1331.908
955.5731, 1327.256
956.0552, 1315.453
956.5374, 1310.118
957.0195, 1315.494
957.5016, 1322.095
957.9837, 1324.955
958.4658, 1325.989
958.9479, 1329.179
959.4301, 1335.214
959.9122, 1332.874
960.3943, 1313.959
960.8764, 1303.431
961.3585, 1310.763
961.8406, 1319.194
962.3228, 1316.881
962.8049, 1309.683
963.2870, 1309.877
963.7691, 1319.728
964.2512, 1324.779
964.7333, 1318.422
965.2155, 1316.885
965.6976, 1327.591
966.1797, 1339.359
966.6618, 1346.999
967.1439, 1350.056
967.6260, 1346.091
968.1082, 1331.714
968.5903, 1323.834
969.0724, 1332.783
969.5545, 1335.517
970.0366, 1319.254
970.5187, 1301.073
971.0009, 1292.913
971.4830, 1293.350
971.9651, 1298.383
972.4472, 1309.741
972.9293, 1318.155
973.4114, 1321.528
973.8936, 1322.915
974.3757, 1323.390
974.8578, 1322.315
975.3399, 1315.226
975.8220, 1306.253
976.3041, 1309.897
976.7863, 1335.776
977.2684, 1349.598
977.7505, 1329.785
978.2326, 1313.310
978.7147, 1320.720
979.1968, 1335.817
979.6790, 1343.889
980.1611, 1344.678
980.6432, 1341.172
981.1253, 1329.086
981.6074, 1328.290
982.0895, 1362.764
982.5717, 1388.787
983.0538, 1375.258
983.5359, 1348.052
984.0180, 1334.213
984.5001, 1334.123
984.9822, 1337.997
985.4644, 1347.215
985.9465, 1348.392
986.4286, 1328.917
986.9107, 1308.832
987.3928, 1297.459
987.8749, 1293.617
988.3571, 1298.957
988.8392, 1310.324
989.3213, 1316.001
989.8034, 1309.083
990.2855, 1306.284
990.7676, 1321.913
991.2498, 1335.703
991.7319, 1329.492
992.2140, 1317.300
992.6961, 1317.847
993.1782, 1330.287
993.6603, 1340.954
994.1425, 1346.229
994.6246, 1346.573
995.1067, 1334.229
995.5888, 1325.555
996.0709, 1339.104
996.5530, 1358.157
997.0352, 1357.438
997.5173, 1340.020
997.9994, 1332.710
998.4815, 1348.059
998.9636, 1364.067
999.4457, 1370.945
999.9279, 1374.635
1000.410, 1376.223
1000.892, 1378.989
1001.374, 1389.220
1001.856, 1404.734
1002.338, 1414.640
1002.821, 1414.676
1003.303, 1410.400
1003.785, 1397.000
1004.267, 1388.196
1004.749, 1393.587
1005.231, 1409.143
1005.713, 1434.798
1006.195, 1465.469
1006.677, 1485.211
1007.160, 1485.010
1007.642, 1485.548
1008.124, 1496.640
1008.606, 1511.119
1009.088, 1529.210
1009.570, 1544.700
1010.052, 1544.517
1010.534, 1534.620
1011.017, 1539.628
1011.499, 1569.788
1011.981, 1605.382
1012.463, 1652.908
1012.945, 1686.469
1013.427, 1675.345
1013.909, 1652.443
1014.391, 1652.113
1014.873, 1674.777
1015.356, 1709.422
1015.838, 1758.298
1016.320, 1795.576
1016.802, 1801.592
1017.284, 1804.952
1017.766, 1819.592
1018.248, 1840.659
1018.730, 1860.017
1019.213, 1880.993
1019.695, 1918.368
1020.177, 1981.686
1020.659, 2029.713
1021.141, 2035.334
1021.623, 2039.983
1022.105, 2063.203
1022.587, 2093.953
1023.069, 2123.743
1023.552, 2151.649
1024.034, 2179.209
1024.516, 2207.838
1024.998, 2227.902
1025.480, 2235.809
1025.962, 2236.028
1026.444, 2218.298
1026.926, 2204.344
1027.409, 2218.494
1027.891, 2247.688
1028.373, 2263.695
1028.855, 2262.413
1029.337, 2251.698
1029.819, 2222.220
1030.301, 2198.409
1030.783, 2196.421
1031.266, 2192.426
1031.748, 2166.619
1032.230, 2128.997
1032.712, 2095.560
1033.194, 2066.878
1033.676, 2051.527
1034.158, 2067.007
1034.640, 2071.628
1035.122, 2055.011
1035.604, 2029.849
1036.087, 2000.309
1036.569, 1968.070
1037.051, 1933.334
1037.533, 1895.710
1038.015, 1868.224
1038.497, 1860.673
1038.979, 1847.670
1039.461, 1830.772
1039.944, 1803.687
1040.426, 1750.776
1040.908, 1697.566
1041.390, 1680.239
1041.872, 1694.346
1042.354, 1689.069
1042.836, 1651.798
1043.318, 1623.580
1043.800, 1613.406
1044.283, 1597.094
1044.765, 1557.476
1045.247, 1519.866
1045.729, 1512.813
1046.211, 1528.801
1046.693, 1533.097
1047.175, 1523.776
1047.657, 1508.346
1048.140, 1483.766
1048.622, 1462.031
1049.104, 1446.256
1049.586, 1435.969
1050.068, 1432.109
1050.550, 1431.856
1051.032, 1427.583
1051.514, 1419.003
1051.996, 1409.141
1052.479, 1397.852
1052.961, 1387.198
1053.443, 1378.400
1053.925, 1364.277
1054.407, 1337.006
1054.889, 1311.143
1055.371, 1317.750
1055.853, 1352.658
1056.335, 1364.774
1056.818, 1354.257
1057.300, 1342.068
1057.782, 1331.711
1058.264, 1326.714
1058.746, 1329.347
1059.228, 1333.199
1059.710, 1328.796
1060.192, 1319.660
1060.675, 1318.467
1061.157, 1323.709
1061.639, 1326.276
1062.121, 1325.897
1062.603, 1331.245
1063.085, 1345.247
1063.567, 1355.676
1064.049, 1350.170
1064.531, 1334.819
1065.014, 1317.328
1065.496, 1300.007
1065.978, 1286.169
1066.460, 1278.042
1066.942, 1284.877
1067.424, 1306.577
1067.906, 1324.860
1068.388, 1325.775
1068.870, 1323.753
1069.353, 1339.434
1069.835, 1358.978
1070.317, 1360.424
1070.799, 1351.637
1071.281, 1350.607
1071.763, 1358.238
1072.245, 1362.523
1072.727, 1357.418
1073.210, 1352.983
1073.692, 1357.010
1074.174, 1364.231
1074.656, 1371.889
1075.138, 1378.971
1075.620, 1383.858
1076.102, 1387.365
1076.584, 1392.727
1077.067, 1400.984
1077.549, 1405.287
1078.031, 1395.963
1078.513, 1390.884
1078.995, 1401.927
1079.477, 1416.569
1079.959, 1427.339
1080.441, 1433.862
1080.923, 1437.011
1081.406, 1436.809
1081.888, 1432.126
1082.370, 1416.749
1082.852, 1406.063
1083.334, 1406.290
1083.816, 1407.014
1084.298, 1407.510
1084.780, 1403.189
1085.262, 1383.494
1085.745, 1353.834
1086.227, 1341.545
1086.709, 1356.932
1087.191, 1361.507
1087.673, 1344.848
1088.155, 1340.302
1088.637, 1368.151
1089.119, 1387.639
1089.602, 1363.737
1090.084, 1317.328
1090.566, 1293.900
1091.048, 1294.317
1091.530, 1293.414
1092.012, 1290.646
1092.494, 1291.523
1092.976, 1298.357
1093.458, 1297.640
1093.941, 1280.850
1094.423, 1262.917
1094.905, 1264.906
1095.387, 1278.814
1095.869, 1272.358
1096.351, 1248.974
1096.833, 1235.317
1097.315, 1233.048
1097.797, 1235.689
1098.280, 1240.655
1098.762, 1243.156
1099.244, 1239.207
1099.726, 1231.460
1100.208, 1219.359
1100.690, 1208.911
1101.172, 1217.574
1101.654, 1237.047
1102.137, 1244.958
1102.619, 1239.443
1103.101, 1232.565
1103.583, 1229.890
1104.065, 1228.375
1104.547, 1226.106
1105.029, 1223.263
1105.511, 1220.705
1105.994, 1217.128
1106.476, 1207.931
1106.958, 1197.339
1107.440, 1197.577
1107.922, 1210.041
1108.404, 1214.010
1108.886, 1189.984
1109.368, 1172.745
1109.850, 1179.452
1110.333, 1192.125
1110.815, 1206.538
1111.297, 1216.037
1111.779, 1209.189
1112.261, 1189.780
1112.743, 1178.692
1113.225, 1178.562
1113.707, 1185.168
1114.189, 1209.986
1114.672, 1239.050
1115.154, 1236.202
1115.636, 1232.057
1116.118, 1226.753
1116.600, 1212.722
1117.082, 1213.104
1117.564, 1209.631
1118.046, 1207.315
1118.529, 1213.650
1119.011, 1207.948
1119.493, 1216.912
1119.975, 1221.939
1120.457, 1230.768
1120.939, 1191.554
1121.421, 1180.882
1121.903, 1173.949
1122.385, 1175.188
1122.868, 1182.496
1123.350, 1183.733
1123.832, 1179.997
1124.314, 1182.103
1124.796, 1191.047
1125.278, 1193.109
1125.760, 1179.902
1126.242, 1166.987
1126.724, 1174.680
1127.207, 1190.750
1127.689, 1202.544
1128.171, 1208.307
1128.653, 1202.981
1129.135, 1189.932
1129.617, 1176.826
1130.099, 1166.161
1130.581, 1159.563
1131.064, 1156.587
1131.546, 1160.095
1132.028, 1180.484
1132.510, 1197.996
1132.992, 1196.661
1133.474, 1186.556
1133.956, 1179.367
1134.438, 1175.191
1134.921, 1169.271
1135.403, 1159.405
1135.885, 1153.458
1136.367, 1152.822
1136.849, 1155.328
1137.331, 1163.427
1137.813, 1170.559
1138.295, 1173.345
1138.777, 1172.479
1139.260, 1167.866
1139.742, 1160.443
1140.224, 1160.368
1140.706, 1169.531
1141.188, 1169.270
1141.670, 1156.903
1142.152, 1154.120
1142.634, 1168.672
1143.116, 1179.157
1143.599, 1167.727
1144.081, 1148.847
1144.563, 1152.462
1145.045, 1167.540
1145.527, 1154.204
1146.009, 1124.153
1146.491, 1116.133
1146.973, 1130.615
1147.456, 1145.597
1147.938, 1152.479
1148.420, 1154.802
1148.902, 1153.167
1149.384, 1151.497
1149.866, 1155.221
1150.348, 1158.763
1150.830, 1152.285
1151.313, 1144.428
1151.795, 1150.183
1152.277, 1167.834
1152.759, 1183.348
1153.241, 1194.763
1153.723, 1198.022
1154.205, 1185.193
1154.687, 1173.898
1155.169, 1168.020
1155.651, 1167.027
1156.134, 1176.527
1156.616, 1185.464
1157.098, 1174.262
1157.580, 1145.835
1158.062, 1136.420
1158.544, 1151.999
1159.026, 1158.545
1159.508, 1152.826
1159.991, 1147.782
1160.473, 1147.490
1160.955, 1146.128
1161.437, 1138.890
1161.919, 1131.016
1162.401, 1131.831
1162.883, 1139.043
1163.365, 1146.061
1163.848, 1152.592
1164.330, 1157.076
1164.812, 1159.904
1165.294, 1164.616
1165.776, 1171.522
1166.258, 1172.190
1166.740, 1157.304
1167.222, 1143.975
1167.704, 1150.021
1168.187, 1160.043
1168.669, 1161.049
1169.151, 1157.228
1169.633, 1153.139
1170.115, 1150.040
1170.597, 1150.365
1171.079, 1155.616
1171.561, 1155.025
1172.043, 1135.915
1172.526, 1127.724
1173.008, 1139.711
1173.490, 1157.002
1173.972, 1180.575
1174.454, 1196.220
1174.936, 1185.878
1175.418, 1158.159
1175.900, 1142.596
1176.383, 1139.786
1176.865, 1142.616
1177.347, 1151.339
1177.829, 1152.858
1178.311, 1145.009
1178.793, 1141.221
1179.275, 1148.052
1179.757, 1157.061
1180.240, 1161.367
1180.722, 1158.578
1181.204, 1134.573
1181.686, 1107.444
1182.168, 1114.710
1182.650, 1141.688
1183.132, 1153.821
1183.614, 1149.000
1184.096, 1147.254
1184.578, 1156.563
1185.061, 1163.781
1185.543, 1165.931
1186.025, 1160.601
1186.507, 1135.971
1186.989, 1115.004
1187.471, 1116.742
1187.953, 1129.861
1188.435, 1139.907
1188.918, 1146.337
1189.400, 1145.556
1189.882, 1132.775
1190.364, 1131.408
1190.846, 1145.826
1191.328, 1151.290
1191.810, 1141.187
1192.292, 1129.647
1192.775, 1124.431
1193.257, 1123.808
1193.739, 1126.441
1194.221, 1130.748
1194.703, 1132.039
1195.185, 1132.182
1195.667, 1137.276
1196.149, 1145.520
1196.631, 1151.960
1197.114, 1154.931
1197.596, 1152.188
1198.078, 1142.050
1198.560, 1133.472
1199.042, 1130.848
1199.524, 1132.976
1200.006, 1146.549
1200.488, 1156.985
1200.970, 1148.450
1201.453, 1132.168
1201.935, 1123.185
1202.417, 1122.591
1202.899, 1130.888
1203.381, 1157.167
1203.863, 1160.834
1204.345, 1131.603
1204.827, 1114.068
1205.310, 1119.331
1205.792, 1127.309
1206.274, 1127.775
1206.756, 1122.527
1207.238, 1111.723
1207.720, 1100.653
1208.202, 1103.613
1208.684, 1116.816
1209.167, 1135.399
1209.649, 1152.982
1210.131, 1147.289
1210.613, 1122.146
1211.095, 1108.740
1211.577, 1119.540
1212.059, 1135.709
1212.541, 1152.923
1213.023, 1162.562
1213.505, 1156.196
1213.988, 1144.976
1214.470, 1131.499
1214.952, 1121.383
1215.434, 1123.929
1215.916, 1135.185
1216.398, 1139.894
1216.880, 1136.648
1217.362, 1136.380
1217.845, 1141.862
1218.327, 1136.715
1218.809, 1116.514
1219.291, 1099.865
1219.773, 1094.058
1220.255, 1100.348
1220.737, 1122.145
1221.219, 1147.360
1221.702, 1154.927
1222.184, 1150.129
1222.666, 1139.863
1223.148, 1127.802
1223.630, 1120.917
1224.112, 1118.571
1224.594, 1115.525
1225.076, 1110.833
1225.558, 1110.500
1226.041, 1118.165
1226.523, 1128.443
1227.005, 1145.214
1227.487, 1156.872
1227.969, 1156.502
1228.451, 1150.839
1228.933, 1143.055
1229.415, 1135.117
1229.897, 1130.493
1230.380, 1128.914
1230.862, 1127.679
1231.344, 1126.747
1231.826, 1128.547
1232.308, 1132.870
1232.790, 1129.171
1233.272, 1116.074
1233.754, 1111.777
1234.237, 1126.996
1234.719, 1143.209
1235.201, 1138.131
1235.683, 1127.638
1236.165, 1130.428
1236.647, 1136.398
1237.129, 1134.509
1237.611, 1127.524
1238.094, 1121.026
1238.576, 1115.068
1239.058, 1105.193
1239.540, 1086.931
1240.022, 1081.570
1240.504, 1097.244
1240.986, 1112.276
1241.468, 1127.867
1241.950, 1131.442
1242.432, 1114.293
1242.915, 1095.663
1243.397, 1091.816
1243.879, 1102.786
##END=



