##NAMES=Moraesite
##RRUFFID=R070480
##IDEAL CHEMISTRY=Be_2_PO_4_(OH)&#183;4H_2_O
##LOCALITY=Itinga, Minas Gerais, Brazil
##OWNER=RRUFF
##SOURCE=Bob Jenkins
##DESCRIPTION=Unconsolidated colorless flat fragments
##STATUS=The identification of this mineral has been confirmed by X-ray diffraction.
##URL=rruff.info/R070480
148.8803, 16131.06
149.3624, 16487.37
149.8445, 16843.60
150.3267, 17149.44
150.8088, 17387.75
151.2909, 17565.91
151.7730, 17700.61
152.2551, 17799.06
152.7372, 17854.94
153.2194, 17860.13
153.7015, 17820.14
154.1836, 17741.73
154.6657, 17612.89
155.1478, 17465.60
155.6299, 17356.24
156.1121, 17284.13
156.5942, 17242.19
157.0763, 17228.85
157.5584, 17243.47
158.0405, 17283.23
158.5226, 17345.15
159.0048, 17437.84
159.4869, 17574.22
159.9690, 17767.47
160.4511, 17957.77
160.9332, 18084.58
161.4153, 18122.11
161.8975, 18102.33
162.3796, 18147.97
162.8617, 18220.72
163.3438, 18279.57
163.8259, 18328.41
164.3080, 18347.02
164.7902, 18304.78
165.2723, 18207.99
165.7544, 18130.67
166.2365, 18114.34
166.7186, 18112.59
167.2007, 18078.78
167.6829, 18008.06
168.1650, 17927.62
168.6471, 17865.37
169.1292, 17821.78
169.6113, 17760.85
170.0934, 17659.84
170.5756, 17549.46
171.0577, 17453.97
171.5398, 17376.84
172.0219, 17307.74
172.5040, 17240.84
172.9861, 17176.59
173.4683, 17102.40
173.9504, 16989.03
174.4325, 16881.79
174.9146, 16819.88
175.3967, 16808.23
175.8788, 16807.15
176.3610, 16771.76
176.8431, 16696.47
177.3252, 16635.00
177.8073, 16594.98
178.2894, 16574.76
178.7715, 16585.07
179.2537, 16625.55
179.7358, 16662.30
180.2179, 16654.78
180.7000, 16596.22
181.1821, 16541.20
181.6642, 16489.37
182.1464, 16450.57
182.6285, 16439.30
183.1106, 16455.10
183.5927, 16472.97
184.0748, 16465.70
184.5569, 16430.65
185.0391, 16390.21
185.5212, 16326.90
186.0033, 16274.13
186.4854, 16256.56
186.9675, 16273.54
187.4496, 16296.68
187.9318, 16293.56
188.4139, 16258.35
188.8960, 16231.45
189.3781, 16219.46
189.8602, 16214.06
190.3423, 16212.86
190.8245, 16215.06
191.3066, 16219.88
191.7887, 16231.10
192.2708, 16252.94
192.7529, 16255.13
193.2350, 16203.52
193.7172, 16158.14
194.1993, 16149.32
194.6814, 16174.63
195.1635, 16209.34
195.6456, 16231.06
196.1277, 16238.74
196.6099, 16242.55
197.0920, 16229.34
197.5741, 16223.99
198.0562, 16251.93
198.5383, 16301.87
199.0204, 16333.77
199.5026, 16302.64
199.9847, 16200.89
200.4668, 16128.99
200.9489, 16110.27
201.4310, 16103.53
201.9131, 16099.98
202.3953, 16097.96
202.8774, 16098.59
203.3595, 16106.58
203.8416, 16122.41
204.3237, 16115.49
204.8058, 16050.67
205.2880, 15995.62
205.7701, 15971.80
206.2522, 15973.67
206.7343, 15986.96
207.2164, 16003.93
207.6985, 16023.67
208.1807, 16032.86
208.6628, 16016.01
209.1449, 16004.19
209.6270, 16011.51
210.1091, 16028.90
210.5912, 16039.58
211.0734, 16031.37
211.5555, 16007.49
212.0376, 15989.58
212.5197, 15972.65
213.0018, 15969.28
213.4839, 15999.29
213.9661, 16040.45
214.4482, 16058.19
214.9303, 16030.03
215.4124, 15970.79
215.8945, 15941.67
216.3766, 15964.82
216.8587, 15988.73
217.3409, 16004.17
217.8230, 16014.33
218.3051, 16023.41
218.7872, 16033.53
219.2693, 16043.26
219.7514, 16047.24
220.2336, 16036.12
220.7157, 16036.47
221.1978, 16073.55
221.6799, 16112.78
222.1620, 16113.16
222.6441, 16059.21
223.1263, 15983.95
223.6084, 15957.84
224.0905, 16016.32
224.5726, 16047.50
225.0547, 16015.10
225.5368, 15967.86
226.0190, 15946.97
226.5011, 15962.76
226.9832, 15988.24
227.4653, 15975.68
227.9474, 15899.05
228.4296, 15862.10
228.9117, 15912.20
229.3938, 15974.67
229.8759, 16003.58
230.3580, 15992.53
230.8401, 15966.94
231.3223, 15959.94
231.8044, 15980.70
232.2865, 15977.89
232.7686, 15907.47
233.2507, 15846.11
233.7328, 15834.30
234.2150, 15869.29
234.6971, 15917.67
235.1792, 15950.77
235.6613, 15967.67
236.1434, 15979.93
236.6255, 15977.81
237.1077, 15980.34
237.5898, 16006.39
238.0719, 16045.14
238.5540, 16066.84
239.0361, 16039.59
239.5182, 15970.62
240.0004, 15935.19
240.4825, 15955.58
240.9646, 15983.80
241.4467, 16011.03
241.9288, 16031.98
242.4109, 16037.02
242.8931, 16016.78
243.3752, 15979.21
243.8573, 15949.31
244.3394, 15923.71
244.8215, 15913.78
245.3036, 15936.75
245.7858, 15971.24
246.2679, 15988.79
246.7500, 15974.72
247.2321, 15944.87
247.7142, 15925.95
248.1963, 15915.58
248.6785, 15923.71
249.1606, 15985.87
249.6427, 16051.42
250.1248, 16071.21
250.6069, 16027.61
251.0890, 15959.22
251.5712, 15908.96
252.0533, 15877.70
252.5354, 15858.62
253.0175, 15850.37
253.4996, 15854.65
253.9817, 15883.05
254.4639, 15937.43
254.9460, 15979.67
255.4281, 15962.00
255.9102, 15889.09
256.3923, 15847.22
256.8745, 15867.24
257.3566, 15905.50
257.8387, 15927.70
258.3208, 15934.66
258.8029, 15937.53
259.2850, 15943.64
259.7672, 15951.14
260.2493, 15954.10
260.7314, 15953.16
261.2135, 15944.88
261.6956, 15916.49
262.1777, 15876.90
262.6599, 15854.71
263.1420, 15877.01
263.6241, 15918.61
264.1062, 15936.12
264.5883, 15924.70
265.0704, 15906.90
265.5526, 15893.89
266.0347, 15885.76
266.5168, 15883.11
266.9989, 15886.03
267.4810, 15894.79
267.9631, 15915.11
268.4453, 15946.37
268.9274, 15967.92
269.4095, 15965.52
269.8916, 15947.62
270.3737, 15935.54
270.8558, 15927.84
271.3380, 15928.23
271.8201, 15948.31
272.3022, 15980.21
272.7843, 15993.14
273.2664, 15969.03
273.7485, 15930.89
274.2307, 15920.93
274.7128, 15940.80
275.1949, 15971.61
275.6770, 16018.68
276.1591, 16069.88
276.6412, 16106.06
277.1234, 16122.62
277.6055, 16124.42
278.0876, 16113.70
278.5697, 16087.02
279.0518, 16069.45
279.5339, 16062.82
280.0161, 16066.50
280.4982, 16086.06
280.9803, 16119.92
281.4624, 16150.67
281.9445, 16162.38
282.4266, 16153.75
282.9088, 16148.34
283.3909, 16150.58
283.8730, 16151.74
284.3551, 16145.49
284.8372, 16134.30
285.3193, 16123.91
285.8015, 16116.81
286.2836, 16114.62
286.7657, 16128.19
287.2478, 16178.94
287.7299, 16218.85
288.2120, 16234.79
288.6942, 16235.69
289.1763, 16231.13
289.6584, 16225.05
290.1405, 16221.10
290.6226, 16227.83
291.1047, 16260.00
291.5869, 16280.58
292.0690, 16285.94
292.5511, 16282.92
293.0332, 16269.91
293.5153, 16250.08
293.9974, 16238.75
294.4796, 16261.05
294.9617, 16336.21
295.4438, 16366.87
295.9259, 16303.55
296.4080, 16243.70
296.8901, 16233.42
297.3723, 16264.78
297.8544, 16305.10
298.3365, 16332.49
298.8186, 16346.63
299.3007, 16343.50
299.7828, 16307.58
300.2650, 16273.39
300.7471, 16247.44
301.2292, 16229.66
301.7113, 16219.84
302.1934, 16218.04
302.6755, 16223.55
303.1577, 16237.21
303.6398, 16263.99
304.1219, 16284.60
304.6040, 16297.53
305.0861, 16300.58
305.5682, 16285.37
306.0504, 16250.09
306.5325, 16217.43
307.0146, 16215.73
307.4967, 16244.58
307.9788, 16265.12
308.4609, 16267.90
308.9431, 16263.89
309.4252, 16262.70
309.9073, 16263.67
310.3894, 16261.04
310.8715, 16250.17
311.3536, 16233.67
311.8358, 16213.81
312.3179, 16185.74
312.8000, 16170.82
313.2821, 16199.19
313.7642, 16252.98
314.2463, 16290.92
314.7285, 16291.86
315.2106, 16283.48
315.6927, 16291.82
316.1748, 16315.33
316.6569, 16339.30
317.1390, 16355.53
317.6212, 16368.33
318.1033, 16389.90
318.5854, 16429.79
319.0675, 16459.44
319.5496, 16454.72
320.0317, 16434.44
320.5139, 16436.11
320.9960, 16472.56
321.4781, 16520.89
321.9602, 16545.45
322.4423, 16532.52
322.9244, 16540.64
323.4066, 16578.30
323.8887, 16633.70
324.3708, 16707.19
324.8529, 16793.53
325.3350, 16872.41
325.8171, 16925.80
326.2993, 16953.17
326.7814, 16972.57
327.2635, 16978.93
327.7456, 16984.13
328.2277, 16993.12
328.7098, 17003.34
329.1920, 17010.53
329.6741, 17012.61
330.1562, 17009.84
330.6383, 17002.07
331.1204, 16981.39
331.6025, 16969.11
332.0847, 16980.82
332.5668, 16992.05
333.0489, 16980.16
333.5310, 16942.14
334.0131, 16895.82
334.4952, 16864.04
334.9774, 16850.47
335.4595, 16829.34
335.9416, 16786.92
336.4237, 16749.91
336.9058, 16733.69
337.3879, 16732.53
337.8701, 16730.25
338.3522, 16716.97
338.8343, 16695.21
339.3164, 16669.37
339.7985, 16632.51
340.2806, 16609.52
340.7627, 16629.49
341.2448, 16662.53
341.7270, 16671.55
342.2091, 16640.99
342.6912, 16604.29
343.1733, 16593.38
343.6554, 16605.89
344.1375, 16622.68
344.6197, 16638.85
345.1018, 16656.69
345.5839, 16680.42
346.0660, 16710.17
346.5481, 16737.83
347.0302, 16767.95
347.5124, 16791.41
347.9945, 16788.71
348.4766, 16757.18
348.9587, 16727.39
349.4408, 16725.02
349.9229, 16750.11
350.4051, 16772.50
350.8872, 16801.86
351.3693, 16819.64
351.8514, 16806.68
352.3335, 16775.25
352.8156, 16755.84
353.2978, 16764.29
353.7799, 16788.57
354.2620, 16797.97
354.7441, 16768.81
355.2262, 16755.88
355.7083, 16762.29
356.1905, 16804.29
356.6726, 16843.03
357.1547, 16878.67
357.6368, 16902.00
358.1189, 16941.23
358.6010, 16974.09
359.0832, 17006.70
359.5653, 17048.17
360.0474, 17073.29
360.5295, 17114.62
361.0116, 17169.75
361.4937, 17236.18
361.9759, 17293.81
362.4580, 17343.52
362.9401, 17385.93
363.4222, 17415.82
363.9043, 17452.17
364.3864, 17506.98
364.8686, 17566.01
365.3507, 17615.01
365.8328, 17651.26
366.3149, 17694.64
366.7970, 17765.75
367.2791, 17859.98
367.7613, 17952.39
368.2434, 18037.85
368.7255, 18124.91
369.2076, 18226.21
369.6897, 18336.26
370.1718, 18437.55
370.6540, 18517.98
371.1361, 18564.78
371.6182, 18647.03
372.1003, 18724.93
372.5824, 18798.72
373.0645, 18856.08
373.5467, 18934.67
374.0288, 19004.75
374.5109, 19074.47
374.9930, 19156.04
375.4751, 19202.37
375.9572, 19239.47
376.4394, 19247.42
376.9215, 19217.15
377.4036, 19147.55
377.8857, 19032.42
378.3678, 18859.46
378.8499, 18700.69
379.3321, 18566.25
379.8142, 18433.78
380.2963, 18298.09
380.7784, 18156.46
381.2605, 18006.99
381.7426, 17847.90
382.2248, 17682.30
382.7069, 17519.71
383.1890, 17346.49
383.6711, 17204.70
384.1532, 17122.57
384.6353, 17055.50
385.1175, 16964.79
385.5996, 16846.24
386.0817, 16730.20
386.5638, 16636.51
387.0459, 16558.57
387.5280, 16538.46
388.0102, 16512.47
388.4923, 16480.99
388.9744, 16422.92
389.4565, 16402.79
389.9386, 16369.66
390.4207, 16337.50
390.9029, 16327.20
391.3850, 16281.07
391.8671, 16273.59
392.3492, 16252.88
392.8313, 16240.52
393.3134, 16215.05
393.7956, 16195.69
394.2777, 16192.57
394.7598, 16182.89
395.2419, 16162.02
395.7240, 16159.51
396.2061, 16128.56
396.6883, 16125.51
397.1704, 16135.39
397.6525, 16123.11
398.1346, 16128.71
398.6167, 16129.67
399.0988, 16103.95
399.5810, 16128.92
400.0631, 16134.22
400.5452, 16119.28
401.0273, 16147.28
401.5094, 16138.49
401.9915, 16144.95
402.4737, 16163.30
402.9558, 16171.21
403.4379, 16179.27
403.9200, 16173.99
404.4021, 16167.48
404.8842, 16164.88
405.3664, 16165.99
405.8485, 16168.44
406.3306, 16171.80
406.8127, 16174.77
407.2948, 16170.69
407.7769, 16154.38
408.2591, 16150.22
408.7412, 16187.60
409.2233, 16233.95
409.7054, 16243.92
410.1875, 16202.79
410.6696, 16163.07
411.1518, 16149.72
411.6339, 16162.09
412.1160, 16208.35
412.5981, 16294.67
413.0802, 16380.60
413.5623, 16424.68
414.0445, 16422.81
414.5266, 16419.54
415.0087, 16416.20
415.4908, 16410.30
415.9729, 16401.98
416.4550, 16390.03
416.9372, 16370.83
417.4193, 16342.26
417.9014, 16308.88
418.3835, 16281.54
418.8656, 16271.54
419.3477, 16246.97
419.8299, 16206.17
420.3120, 16154.17
420.7941, 16083.60
421.2762, 16002.17
421.7583, 15934.01
422.2404, 15902.48
422.7226, 15899.13
423.2047, 15877.38
423.6868, 15822.28
424.1689, 15781.85
424.6510, 15801.32
425.1331, 15831.20
425.6153, 15811.09
426.0974, 15720.86
426.5795, 15634.44
427.0616, 15623.59
427.5437, 15664.97
428.0258, 15677.09
428.5080, 15641.18
428.9901, 15592.53
429.4722, 15559.55
429.9543, 15541.95
430.4364, 15533.03
430.9185, 15537.76
431.4007, 15545.47
431.8828, 15557.89
432.3649, 15568.04
432.8470, 15554.76
433.3291, 15507.37
433.8112, 15450.38
434.2934, 15435.32
434.7755, 15503.44
435.2576, 15527.62
435.7397, 15470.50
436.2218, 15407.34
436.7039, 15381.69
437.1861, 15389.97
437.6682, 15407.10
438.1503, 15417.86
438.6324, 15422.54
439.1145, 15422.34
439.5966, 15419.62
440.0788, 15406.62
440.5609, 15363.29
441.0430, 15319.80
441.5251, 15306.41
442.0072, 15327.42
442.4893, 15346.32
442.9715, 15330.69
443.4536, 15295.65
443.9357, 15277.25
444.4178, 15279.41
444.8999, 15294.89
445.3820, 15325.81
445.8642, 15366.38
446.3463, 15388.02
446.8284, 15386.01
447.3105, 15370.83
447.7926, 15335.98
448.2747, 15293.63
448.7569, 15259.32
449.2390, 15238.11
449.7211, 15233.80
450.2032, 15257.46
450.6853, 15323.84
451.1674, 15341.61
451.6496, 15251.46
452.1317, 15178.49
452.6138, 15183.79
453.0959, 15232.44
453.5780, 15262.00
454.0602, 15243.02
454.5423, 15201.48
455.0244, 15179.06
455.5065, 15177.68
455.9886, 15181.24
456.4707, 15188.51
456.9529, 15198.66
457.4350, 15215.15
457.9171, 15235.25
458.3992, 15245.37
458.8813, 15232.27
459.3634, 15211.31
459.8456, 15198.98
460.3277, 15194.80
460.8098, 15192.48
461.2919, 15187.07
461.7740, 15185.05
462.2561, 15202.69
462.7383, 15251.03
463.2204, 15292.67
463.7025, 15327.63
464.1846, 15352.27
464.6667, 15359.27
465.1488, 15352.21
465.6310, 15343.82
466.1131, 15343.13
466.5952, 15349.19
467.0773, 15358.02
467.5594, 15377.95
468.0415, 15385.46
468.5237, 15355.61
469.0058, 15327.37
469.4879, 15344.50
469.9700, 15407.41
470.4521, 15457.37
470.9342, 15426.21
471.4164, 15346.71
471.8985, 15331.42
472.3806, 15397.10
472.8627, 15459.04
473.3448, 15467.11
473.8269, 15435.69
474.3091, 15407.33
474.7912, 15380.37
475.2733, 15359.75
475.7554, 15346.11
476.2375, 15340.37
476.7196, 15351.79
477.2018, 15378.92
477.6839, 15394.10
478.1660, 15366.28
478.6481, 15295.27
479.1302, 15260.93
479.6123, 15316.68
480.0945, 15346.98
480.5766, 15309.47
481.0587, 15247.40
481.5408, 15205.73
482.0229, 15197.22
482.5050, 15210.23
482.9872, 15240.76
483.4693, 15286.81
483.9514, 15318.70
484.4335, 15340.75
484.9156, 15337.05
485.3977, 15278.68
485.8799, 15190.92
486.3620, 15115.63
486.8441, 15058.67
487.3262, 15017.69
487.8083, 15007.01
488.2904, 15008.99
488.7726, 14981.96
489.2547, 14915.66
489.7368, 14844.17
490.2189, 14807.16
490.7010, 14810.26
491.1831, 14776.47
491.6653, 14656.22
492.1474, 14561.32
492.6295, 14541.45
493.1116, 14559.95
493.5937, 14568.75
494.0758, 14551.93
494.5580, 14527.37
495.0401, 14523.78
495.5222, 14543.30
496.0043, 14536.06
496.4864, 14487.58
496.9685, 14431.19
497.4507, 14377.35
497.9328, 14330.27
498.4149, 14299.51
498.8970, 14292.52
499.3791, 14292.12
499.8612, 14284.92
500.3434, 14274.32
500.8255, 14271.70
501.3076, 14280.49
501.7897, 14285.57
502.2718, 14268.02
502.7539, 14224.85
503.2361, 14203.12
503.7182, 14230.65
504.2003, 14244.53
504.6824, 14201.46
505.1645, 14142.31
505.6466, 14132.25
506.1288, 14187.82
506.6109, 14250.90
507.0930, 14234.76
507.5751, 14133.15
508.0572, 14080.47
508.5393, 14098.68
509.0215, 14134.42
509.5036, 14174.33
509.9857, 14209.96
510.4678, 14228.03
510.9499, 14225.55
511.4320, 14205.39
511.9142, 14156.59
512.3963, 14093.44
512.8784, 14047.35
513.3605, 14024.29
513.8427, 14017.52
514.3248, 14023.72
514.8069, 14042.71
515.2890, 14055.52
515.7711, 14055.46
516.2532, 14058.35
516.7354, 14077.38
517.2175, 14096.08
517.6996, 14090.81
518.1817, 14059.32
518.6638, 14027.19
519.1459, 14026.96
519.6281, 14054.65
520.1102, 14055.09
520.5923, 14009.98
521.0744, 13977.52
521.5565, 14009.88
522.0386, 14059.81
522.5208, 14063.12
523.0029, 13999.50
523.4850, 13943.52
523.9671, 13941.92
524.4492, 13968.35
524.9313, 13985.90
525.4135, 13990.09
525.8956, 13987.94
526.3777, 13981.35
526.8598, 13974.68
527.3419, 13991.16
527.8240, 14073.83
528.3062, 14122.49
528.7883, 14112.49
529.2704, 14081.70
529.7525, 14051.46
530.2346, 14028.46
530.7167, 14017.96
531.1989, 14026.17
531.6810, 14048.29
532.1631, 14071.86
532.6452, 14097.58
533.1273, 14121.97
533.6094, 14148.01
534.0916, 14168.04
534.5737, 14169.71
535.0558, 14151.68
535.5379, 14137.14
536.0200, 14129.74
536.5021, 14130.20
536.9843, 14144.08
537.4664, 14166.77
537.9485, 14186.91
538.4306, 14199.22
538.9127, 14201.63
539.3948, 14189.09
539.8770, 14157.51
540.3591, 14121.04
540.8412, 14050.37
541.3233, 14003.86
541.8054, 14018.71
542.2875, 14075.61
542.7697, 14136.00
543.2518, 14187.79
543.7339, 14226.37
544.2160, 14248.94
544.6981, 14254.42
545.1802, 14227.20
545.6624, 14153.19
546.1445, 14087.12
546.6266, 14058.34
547.1087, 14096.43
547.5908, 14127.06
548.0729, 14150.64
548.5551, 14146.06
549.0372, 14177.84
549.5193, 14195.05
550.0014, 14211.66
550.4835, 14248.57
550.9656, 14248.08
551.4478, 14284.67
551.9299, 14306.45
552.4120, 14335.01
552.8941, 14348.91
553.3762, 14388.50
553.8583, 14413.27
554.3405, 14424.82
554.8226, 14405.43
555.3047, 14363.00
555.7868, 14349.25
556.2689, 14330.48
556.7510, 14307.08
557.2332, 14257.94
557.7153, 14247.61
558.1974, 14225.13
558.6795, 14204.48
559.1616, 14206.56
559.6437, 14173.67
560.1259, 14180.29
560.6080, 14134.38
561.0901, 14121.91
561.5722, 14115.09
562.0543, 14118.06
562.5364, 14127.38
563.0186, 14136.57
563.5007, 14143.74
563.9828, 14146.08
564.4649, 14139.67
564.9470, 14124.72
565.4291, 14098.10
565.9113, 14050.96
566.3934, 14017.27
566.8755, 14038.06
567.3576, 14108.25
567.8397, 14144.31
568.3218, 14122.39
568.8040, 14094.77
569.2861, 14067.69
569.7682, 14049.77
570.2503, 14055.73
570.7324, 14085.18
571.2145, 14117.86
571.6967, 14133.23
572.1788, 14135.38
572.6609, 14154.07
573.1430, 14197.61
573.6251, 14234.92
574.1072, 14248.47
574.5894, 14256.38
575.0715, 14279.47
575.5536, 14318.75
576.0357, 14349.90
576.5178, 14350.54
576.9999, 14348.85
577.4821, 14380.01
577.9642, 14433.80
578.4463, 14470.26
578.9284, 14471.63
579.4105, 14459.79
579.8926, 14471.59
580.3748, 14512.79
580.8569, 14555.56
581.3390, 14610.86
581.8211, 14656.44
582.3032, 14681.00
582.7853, 14692.78
583.2675, 14703.23
583.7496, 14715.62
584.2317, 14727.32
584.7138, 14741.14
585.1959, 14751.77
585.6780, 14744.27
586.1602, 14717.05
586.6422, 14681.61
587.1243, 14645.98
587.6064, 14607.40
588.0886, 14556.20
588.5707, 14480.83
589.0528, 14409.68
589.5349, 14338.60
590.0170, 14275.73
590.4991, 14238.30
590.9813, 14214.20
591.4634, 14167.93
591.9455, 14073.62
592.4276, 13968.67
592.9097, 13925.72
593.3918, 13941.77
593.8740, 13927.74
594.3561, 13856.34
594.8382, 13778.02
595.3203, 13736.32
595.8024, 13727.21
596.2845, 13711.49
596.7667, 13678.64
597.2488, 13650.93
597.7309, 13643.95
598.2130, 13640.33
598.6951, 13617.25
599.1772, 13574.47
599.6594, 13531.21
600.1415, 13501.57
600.6236, 13485.08
601.1057, 13484.82
601.5878, 13508.47
602.0699, 13515.47
602.5521, 13487.98
603.0342, 13447.58
603.5163, 13412.24
603.9984, 13382.24
604.4805, 13358.15
604.9626, 13346.00
605.4448, 13334.22
605.9269, 13314.05
606.4090, 13289.44
606.8911, 13267.13
607.3732, 13249.06
607.8553, 13234.24
608.3375, 13223.22
608.8196, 13215.46
609.3017, 13194.83
609.7838, 13147.49
610.2659, 13113.62
610.7480, 13120.83
611.2302, 13136.69
611.7123, 13127.99
612.1944, 13093.43
612.6765, 13070.91
613.1586, 13092.92
613.6407, 13122.06
614.1229, 13120.90
614.6050, 13094.98
615.0871, 13059.90
615.5692, 13021.11
616.0513, 12991.08
616.5334, 12991.19
617.0156, 13027.89
617.4977, 13041.50
617.9798, 13015.03
618.4619, 12986.84
618.9440, 12960.54
619.4261, 12942.01
619.9083, 12941.53
620.3904, 12960.70
620.8725, 12979.38
621.3546, 12984.73
621.8367, 12982.77
622.3188, 12982.12
622.8010, 12982.28
623.2831, 12979.08
623.7652, 12971.10
624.2473, 12956.27
624.7294, 12927.95
625.2115, 12876.49
625.6937, 12850.91
626.1758, 12870.76
626.6579, 12895.73
627.1400, 12933.40
627.6221, 12961.10
628.1042, 12939.29
628.5864, 12857.33
629.0685, 12783.76
629.5506, 12780.05
630.0327, 12812.21
630.5148, 12817.93
630.9969, 12796.85
631.4791, 12780.62
631.9612, 12785.08
632.4433, 12801.00
632.9254, 12813.19
633.4075, 12829.65
633.8896, 12817.31
634.3718, 12743.40
634.8539, 12678.12
635.3360, 12646.98
635.8181, 12639.90
636.3002, 12645.61
636.7823, 12661.65
637.2645, 12672.17
637.7466, 12661.19
638.2287, 12636.81
638.7108, 12612.50
639.1929, 12589.51
639.6750, 12570.76
640.1572, 12555.00
640.6393, 12551.60
641.1214, 12583.79
641.6035, 12680.88
642.0856, 12728.48
642.5677, 12692.30
643.0499, 12648.06
643.5320, 12621.19
644.0141, 12604.86
644.4962, 12583.64
644.9783, 12552.63
645.4604, 12534.64
645.9426, 12562.84
646.4247, 12611.45
646.9068, 12630.00
647.3889, 12617.44
647.8710, 12596.41
648.3531, 12578.04
648.8353, 12556.67
649.3174, 12518.20
649.7995, 12446.66
650.2816, 12411.03
650.7637, 12442.29
651.2458, 12474.11
651.7280, 12487.77
652.2101, 12487.31
652.6922, 12477.50
653.1743, 12459.34
653.6564, 12439.97
654.1385, 12417.89
654.6207, 12401.07
655.1028, 12409.72
655.5849, 12440.16
656.0670, 12459.31
656.5491, 12451.03
657.0313, 12432.84
657.5134, 12436.29
657.9955, 12473.03
658.4776, 12477.75
658.9597, 12422.73
659.4418, 12367.07
659.9240, 12309.32
660.4061, 12268.36
660.8882, 12275.69
661.3703, 12335.96
661.8524, 12390.87
662.3345, 12403.87
662.8167, 12393.46
663.2988, 12373.75
663.7809, 12350.29
664.2630, 12345.03
664.7451, 12367.25
665.2272, 12391.15
665.7094, 12379.27
666.1915, 12327.82
666.6736, 12286.89
667.1557, 12249.91
667.6378, 12234.19
668.1199, 12253.41
668.6021, 12288.72
669.0842, 12330.71
669.5663, 12376.39
670.0484, 12400.57
670.5305, 12372.65
671.0126, 12335.61
671.4948, 12330.56
671.9769, 12345.99
672.4590, 12353.91
672.9411, 12346.48
673.4232, 12332.62
673.9053, 12319.52
674.3875, 12308.66
674.8696, 12317.92
675.3517, 12360.37
675.8338, 12390.46
676.3159, 12391.51
676.7980, 12380.28
677.2802, 12367.45
677.7623, 12354.38
678.2444, 12350.19
678.7265, 12360.36
679.2086, 12376.39
679.6907, 12405.79
680.1729, 12432.63
680.6550, 12428.51
681.1371, 12393.68
681.6192, 12357.10
682.1013, 12339.82
682.5834, 12340.76
683.0656, 12362.00
683.5477, 12407.04
684.0298, 12441.78
684.5119, 12454.37
684.9940, 12464.82
685.4761, 12494.03
685.9583, 12536.25
686.4404, 12561.48
686.9225, 12550.03
687.4046, 12547.72
687.8867, 12578.43
688.3688, 12611.86
688.8510, 12613.73
689.3331, 12593.70
689.8152, 12589.39
690.2973, 12622.24
690.7794, 12671.70
691.2615, 12716.49
691.7437, 12753.95
692.2258, 12763.91
692.7079, 12742.26
693.1900, 12707.42
693.6721, 12663.54
694.1542, 12621.26
694.6364, 12610.27
695.1185, 12652.12
695.6006, 12683.63
696.0827, 12709.86
696.5648, 12720.73
697.0469, 12700.05
697.5291, 12664.77
698.0112, 12643.72
698.4933, 12646.01
698.9754, 12645.54
699.4575, 12613.28
699.9396, 12569.25
700.4218, 12550.92
700.9039, 12555.08
701.3860, 12552.88
701.8681, 12532.06
702.3502, 12502.12
702.8323, 12476.90
703.3145, 12456.93
703.7966, 12434.16
704.2787, 12402.34
704.7608, 12378.17
705.2429, 12381.67
705.7250, 12384.85
706.2072, 12350.95
706.6893, 12281.79
707.1714, 12239.55
707.6535, 12282.64
708.1356, 12322.03
708.6177, 12285.75
709.0999, 12208.36
709.5820, 12142.89
710.0641, 12102.02
710.5462, 12077.11
711.0283, 12062.63
711.5104, 12055.99
711.9926, 12049.21
712.4747, 12042.20
712.9568, 12037.28
713.4389, 12039.67
713.9210, 12033.60
714.4031, 11995.91
714.8853, 11936.78
715.3674, 11913.56
715.8495, 11965.44
716.3316, 11994.88
716.8137, 11971.76
717.2958, 11935.57
717.7780, 11914.21
718.2601, 11904.00
718.7422, 11887.11
719.2243, 11854.51
719.7064, 11823.88
720.1885, 11817.13
720.6707, 11826.03
721.1528, 11834.82
721.6349, 11840.91
722.1170, 11822.28
722.5991, 11762.43
723.0812, 11693.78
723.5634, 11679.38
724.0455, 11737.56
724.5276, 11761.44
725.0097, 11728.93
725.4918, 11692.28
725.9739, 11661.77
726.4561, 11639.12
726.9382, 11625.91
727.4203, 11622.37
727.9024, 11629.05
728.3845, 11666.19
728.8666, 11693.96
729.3488, 11671.96
729.8309, 11624.87
730.3130, 11592.70
730.7951, 11584.59
731.2772, 11589.50
731.7593, 11599.52
732.2415, 11613.82
732.7236, 11633.82
733.2057, 11660.78
733.6878, 11670.63
734.1699, 11655.19
734.6520, 11631.52
735.1342, 11610.21
735.6163, 11591.77
736.0984, 11579.73
736.5805, 11575.42
737.0626, 11574.89
737.5447, 11581.90
738.0269, 11588.64
738.5090, 11593.57
738.9911, 11593.79
739.4732, 11581.86
739.9553, 11553.87
740.4374, 11529.44
740.9196, 11524.93
741.4017, 11533.46
741.8838, 11553.18
742.3659, 11577.75
742.8480, 11579.57
743.3301, 11547.36
743.8123, 11502.96
744.2944, 11472.99
744.7765, 11457.63
745.2586, 11461.48
745.7407, 11498.76
746.2228, 11517.04
746.7050, 11489.17
747.1871, 11448.51
747.6692, 11426.05
748.1513, 11420.53
748.6334, 11424.26
749.1155, 11453.55
749.5977, 11470.15
750.0798, 11453.30
750.5619, 11424.64
751.0440, 11403.05
751.5261, 11389.42
752.0082, 11376.22
752.4904, 11358.83
752.9725, 11343.61
753.4546, 11339.68
753.9367, 11344.20
754.4188, 11348.55
754.9009, 11352.01
755.3831, 11360.24
755.8652, 11377.83
756.3473, 11395.05
756.8294, 11390.75
757.3115, 11357.37
757.7936, 11344.54
758.2758, 11364.18
758.7579, 11385.10
759.2400, 11398.07
759.7221, 11405.70
760.2042, 11411.25
760.6863, 11414.62
761.1685, 11410.05
761.6506, 11388.14
762.1327, 11367.03
762.6148, 11357.04
763.0969, 11352.18
763.5790, 11345.83
764.0612, 11336.86
764.5433, 11326.32
765.0254, 11314.42
765.5075, 11302.81
765.9896, 11291.98
766.4717, 11283.43
766.9539, 11286.33
767.4360, 11302.04
767.9181, 11315.89
768.4002, 11319.99
768.8823, 11314.23
769.3644, 11295.81
769.8466, 11256.28
770.3287, 11235.61
770.8108, 11249.59
771.2929, 11260.21
771.7750, 11244.21
772.2571, 11223.21
772.7393, 11224.32
773.2214, 11249.42
773.7035, 11267.76
774.1856, 11263.70
774.6677, 11258.96
775.1498, 11272.59
775.6320, 11287.85
776.1141, 11278.52
776.5962, 11246.07
777.0783, 11216.57
777.5604, 11207.39
778.0425, 11207.64
778.5247, 11199.92
779.0068, 11187.18
779.4889, 11180.89
779.9710, 11182.56
780.4531, 11193.01
780.9352, 11215.58
781.4174, 11238.56
781.8995, 11234.17
782.3816, 11194.28
782.8637, 11164.09
783.3458, 11142.05
783.8279, 11132.88
784.3101, 11150.63
784.7922, 11174.58
785.2743, 11179.32
785.7564, 11163.99
786.2385, 11154.61
786.7206, 11156.75
787.2028, 11164.28
787.6849, 11185.58
788.1670, 11203.48
788.6491, 11195.29
789.1312, 11164.79
789.6133, 11134.78
790.0955, 11115.58
790.5776, 11107.16
791.0597, 11114.64
791.5418, 11131.77
792.0239, 11146.25
792.5060, 11156.03
792.9882, 11155.26
793.4703, 11139.98
793.9524, 11122.23
794.4345, 11128.08
794.9166, 11160.33
795.3987, 11144.38
795.8809, 11055.04
796.3630, 10994.13
796.8451, 11006.07
797.3272, 11047.41
797.8093, 11076.00
798.2914, 11091.33
798.7736, 11093.05
799.2557, 11070.51
799.7378, 11048.83
800.2199, 11031.94
800.7020, 11018.00
801.1841, 11003.48
801.6663, 10990.92
802.1484, 10987.90
802.6305, 10998.77
803.1126, 11011.56
803.5947, 11020.32
804.0768, 11024.73
804.5590, 11024.31
805.0411, 11019.20
805.5232, 11007.56
806.0053, 10989.43
806.4874, 10974.08
806.9695, 10974.72
807.4517, 10985.07
807.9338, 10981.11
808.4159, 10962.76
808.8980, 10933.39
809.3801, 10890.37
809.8622, 10852.13
810.3444, 10835.79
810.8265, 10836.24
811.3086, 10828.66
811.7907, 10796.09
812.2728, 10791.77
812.7549, 10843.13
813.2371, 10894.23
813.7192, 10925.94
814.2013, 10940.50
814.6834, 10938.71
815.1655, 10919.03
815.6476, 10897.67
816.1298, 10875.36
816.6119, 10856.62
817.0940, 10841.90
817.5761, 10833.17
818.0582, 10835.56
818.5403, 10847.27
819.0225, 10857.41
819.5046, 10858.02
819.9867, 10857.40
820.4688, 10874.35
820.9509, 10895.38
821.4330, 10881.81
821.9152, 10835.79
822.3973, 10798.11
822.8794, 10790.73
823.3615, 10797.49
823.8436, 10790.23
824.3257, 10769.69
824.8079, 10769.69
825.2900, 10794.85
825.7721, 10817.54
826.2542, 10830.68
826.7363, 10834.05
827.2184, 10825.06
827.7006, 10804.63
828.1827, 10788.94
828.6648, 10782.02
829.1469, 10773.44
829.6290, 10760.59
830.1111, 10747.54
830.5933, 10733.26
831.0754, 10721.13
831.5575, 10718.48
832.0396, 10728.43
832.5217, 10737.72
833.0038, 10744.04
833.4860, 10745.28
833.9681, 10739.48
834.4502, 10727.80
834.9323, 10705.75
835.4144, 10676.85
835.8965, 10664.40
836.3787, 10694.51
836.8608, 10732.86
837.3429, 10727.29
837.8250, 10695.45
838.3071, 10682.03
838.7892, 10691.15
839.2714, 10702.92
839.7535, 10706.53
840.2356, 10706.54
840.7177, 10713.27
841.1998, 10726.35
841.6819, 10725.01
842.1641, 10708.19
842.6462, 10680.55
843.1283, 10636.76
843.6104, 10599.92
844.0925, 10599.24
844.5746, 10630.89
845.0568, 10640.83
845.5389, 10604.05
846.0210, 10589.43
846.5031, 10625.89
846.9852, 10662.32
847.4673, 10670.18
847.9495, 10660.36
848.4316, 10652.20
848.9137, 10646.49
849.3958, 10647.89
849.8779, 10666.56
850.3600, 10682.65
850.8422, 10685.79
851.3243, 10680.34
851.8064, 10670.89
852.2885, 10658.92
852.7706, 10645.25
853.2527, 10628.03
853.7349, 10613.84
854.2170, 10616.57
854.6991, 10622.35
855.1812, 10601.72
855.6633, 10561.98
856.1454, 10539.58
856.6276, 10550.38
857.1097, 10574.62
857.5918, 10594.05
858.0739, 10606.11
858.5560, 10594.23
859.0381, 10561.09
859.5203, 10545.70
860.0024, 10559.30
860.4845, 10577.36
860.9666, 10578.40
861.4487, 10568.25
861.9308, 10571.10
862.4130, 10594.50
862.8951, 10592.20
863.3772, 10547.34
863.8593, 10509.31
864.3414, 10504.15
864.8235, 10517.07
865.3057, 10526.66
865.7878, 10532.46
866.2699, 10537.94
866.7520, 10551.23
867.2341, 10553.07
867.7162, 10519.53
868.1984, 10491.72
868.6805, 10510.87
869.1626, 10560.09
869.6447, 10587.74
870.1268, 10577.90
870.6089, 10562.54
871.0911, 10549.78
871.5732, 10538.79
872.0553, 10529.01
872.5374, 10520.70
873.0195, 10514.67
873.5016, 10510.80
873.9838, 10507.07
874.4659, 10500.08
874.9480, 10495.45
875.4301, 10497.46
875.9122, 10506.34
876.3943, 10529.53
876.8765, 10561.25
877.3586, 10576.45
877.8407, 10562.73
878.3228, 10539.11
878.8049, 10534.50
879.2870, 10539.22
879.7692, 10513.95
880.2513, 10462.86
880.7334, 10423.04
881.2155, 10404.27
881.6976, 10406.11
882.1797, 10430.88
882.6619, 10470.48
883.1440, 10501.19
883.6261, 10523.80
884.1082, 10530.21
884.5903, 10517.31
885.0724, 10496.35
885.5546, 10468.72
886.0367, 10441.63
886.5188, 10426.13
887.0009, 10422.77
887.4830, 10419.72
887.9651, 10416.08
888.4473, 10414.10
888.9294, 10413.78
889.4115, 10415.51
889.8936, 10422.11
890.3757, 10430.40
890.8578, 10431.77
891.3400, 10421.17
891.8221, 10417.86
892.3042, 10434.14
892.7863, 10446.89
893.2684, 10445.35
893.7505, 10436.04
894.2327, 10419.65
894.7148, 10401.20
895.1969, 10402.78
895.6790, 10453.15
896.1611, 10487.58
896.6432, 10455.29
897.1254, 10406.35
897.6075, 10382.45
898.0896, 10380.78
898.5717, 10389.77
899.0538, 10404.91
899.5359, 10417.74
900.0181, 10418.11
900.5002, 10416.03
900.9823, 10430.71
901.4644, 10448.87
901.9465, 10437.64
902.4286, 10400.22
902.9108, 10376.42
903.3929, 10388.83
903.8750, 10409.32
904.3571, 10390.49
904.8392, 10351.74
905.3214, 10357.74
905.8035, 10402.38
906.2856, 10435.26
906.7677, 10442.19
907.2498, 10429.86
907.7319, 10399.65
908.2141, 10364.97
908.6962, 10372.99
909.1783, 10423.70
909.6604, 10430.39
910.1425, 10379.58
910.6246, 10338.83
911.1068, 10338.59
911.5889, 10361.15
912.0710, 10386.83
912.5531, 10414.57
913.0352, 10415.97
913.5173, 10374.06
913.9995, 10364.30
914.4816, 10417.93
914.9637, 10466.42
915.4458, 10464.54
915.9279, 10429.37
916.4100, 10395.56
916.8922, 10359.64
917.3743, 10339.78
917.8564, 10344.36
918.3385, 10353.51
918.8206, 10368.23
919.3027, 10381.16
919.7849, 10386.42
920.2670, 10385.17
920.7491, 10381.29
921.2312, 10370.11
921.7133, 10367.32
922.1954, 10382.42
922.6776, 10397.92
923.1597, 10409.73
923.6418, 10414.83
924.1239, 10408.48
924.6060, 10391.52
925.0881, 10372.67
925.5703, 10342.90
926.0524, 10329.27
926.5345, 10356.74
927.0166, 10391.86
927.4987, 10410.69
927.9808, 10415.18
928.4630, 10408.87
928.9451, 10393.79
929.4272, 10387.56
929.9093, 10413.70
930.3914, 10438.05
930.8735, 10424.78
931.3557, 10399.92
931.8378, 10401.53
932.3199, 10424.03
932.8020, 10436.07
933.2841, 10424.45
933.7662, 10407.97
934.2484, 10399.25
934.7305, 10398.10
935.2126, 10409.10
935.6947, 10425.94
936.1768, 10434.03
936.6589, 10432.30
937.1411, 10432.24
937.6232, 10442.08
938.1053, 10448.74
938.5874, 10426.21
939.0695, 10390.25
939.5516, 10376.03
940.0338, 10383.72
940.5159, 10413.81
940.9980, 10463.25
941.4801, 10496.90
941.9622, 10482.44
942.4443, 10441.65
942.9265, 10416.21
943.4086, 10405.46
943.8907, 10406.49
944.3728, 10418.79
944.8549, 10441.02
945.3370, 10473.31
945.8192, 10503.43
946.3013, 10518.94
946.7834, 10520.25
947.2655, 10505.44
947.7476, 10474.47
948.2297, 10452.04
948.7119, 10441.23
949.1940, 10440.79
949.6761, 10451.90
950.1582, 10466.15
950.6403, 10471.86
951.1224, 10469.07
951.6046, 10454.20
952.0867, 10422.60
952.5688, 10408.24
953.0509, 10420.33
953.5330, 10440.61
954.0151, 10460.65
954.4973, 10476.16
954.9794, 10476.53
955.4615, 10459.20
955.9436, 10449.50
956.4257, 10445.09
956.9078, 10456.74
957.3900, 10496.56
957.8721, 10534.48
958.3542, 10545.78
958.8363, 10539.33
959.3184, 10543.48
959.8005, 10568.72
960.2827, 10566.27
960.7648, 10512.84
961.2469, 10474.04
961.7290, 10473.80
962.2111, 10489.40
962.6932, 10507.45
963.1754, 10524.59
963.6575, 10523.76
964.1396, 10489.34
964.6217, 10469.31
965.1038, 10476.57
965.5859, 10481.36
966.0681, 10461.92
966.5502, 10444.06
967.0323, 10463.43
967.5144, 10512.87
967.9965, 10534.75
968.4786, 10493.68
968.9608, 10477.98
969.4429, 10523.63
969.9250, 10558.52
970.4071, 10537.12
970.8892, 10497.76
971.3713, 10491.65
971.8535, 10517.78
972.3356, 10525.50
972.8177, 10482.82
973.2998, 10460.42
973.7819, 10485.59
974.2640, 10516.12
974.7462, 10529.81
975.2283, 10534.05
975.7104, 10541.30
976.1925, 10552.44
976.6746, 10557.63
977.1567, 10539.87
977.6389, 10536.95
978.1210, 10574.34
978.6031, 10613.72
979.0852, 10631.91
979.5673, 10633.42
980.0494, 10626.28
980.5316, 10611.66
981.0137, 10596.42
981.4958, 10567.98
981.9779, 10558.75
982.4600, 10601.39
982.9421, 10647.32
983.4243, 10652.37
983.9064, 10634.83
984.3885, 10639.96
984.8706, 10677.67
985.3527, 10691.82
985.8348, 10631.49
986.3170, 10584.89
986.7991, 10597.27
987.2812, 10633.30
987.7633, 10676.34
988.2454, 10713.87
988.7275, 10724.34
989.2097, 10701.54
989.6918, 10675.12
990.1739, 10643.37
990.6560, 10627.11
991.1381, 10645.86
991.6202, 10677.66
992.1024, 10712.45
992.5845, 10740.46
993.0666, 10739.70
993.5487, 10701.19
994.0308, 10672.84
994.5129, 10675.82
994.9951, 10693.63
995.4772, 10733.99
995.9593, 10771.21
996.4414, 10767.13
996.9235, 10739.90
997.4056, 10747.09
997.8878, 10809.38
998.3699, 10861.41
998.8520, 10869.37
999.3341, 10864.01
999.8162, 10857.94
1000.298, 10852.16
1000.780, 10841.52
1001.263, 10832.08
1001.745, 10841.10
1002.227, 10875.63
1002.709, 10913.51
1003.191, 10954.27
1003.673, 10984.33
1004.155, 10986.61
1004.637, 10980.24
1005.120, 10980.53
1005.602, 10991.49
1006.084, 11021.15
1006.566, 11076.73
1007.048, 11117.61
1007.530, 11111.56
1008.012, 11101.94
1008.494, 11107.62
1008.976, 11128.25
1009.459, 11166.97
1009.941, 11218.76
1010.423, 11272.67
1010.905, 11327.48
1011.387, 11374.62
1011.869, 11409.42
1012.351, 11437.04
1012.833, 11450.50
1013.315, 11466.21
1013.798, 11498.00
1014.280, 11547.26
1014.762, 11616.47
1015.244, 11711.63
1015.726, 11793.40
1016.208, 11836.56
1016.690, 11874.54
1017.172, 11920.85
1017.655, 11973.32
1018.137, 12034.66
1018.619, 12098.77
1019.101, 12149.00
1019.583, 12178.11
1020.065, 12215.60
1020.547, 12281.71
1021.029, 12345.50
1021.511, 12388.53
1021.994, 12426.60
1022.476, 12467.49
1022.958, 12517.17
1023.440, 12589.45
1023.922, 12691.98
1024.404, 12784.73
1024.886, 12866.14
1025.368, 12924.66
1025.851, 12945.28
1026.333, 12950.02
1026.815, 12953.69
1027.297, 12956.54
1027.779, 12953.61
1028.261, 12953.48
1028.743, 12945.56
1029.225, 12930.20
1029.708, 12907.73
1030.190, 12857.14
1030.672, 12842.93
1031.154, 12814.13
1031.636, 12771.09
1032.118, 12750.58
1032.600, 12723.70
1033.082, 12690.81
1033.564, 12630.81
1034.047, 12608.18
1034.529, 12572.10
1035.011, 12536.49
1035.493, 12522.23
1035.975, 12471.63
1036.457, 12459.16
1036.939, 12432.96
1037.421, 12414.59
1037.903, 12382.61
1038.386, 12356.17
1038.868, 12345.51
1039.350, 12327.79
1039.832, 12298.36
1040.314, 12286.78
1040.796, 12246.25
1041.278, 12163.08
1041.760, 12121.60
1042.243, 12169.20
1042.725, 12187.28
1043.207, 12156.03
1043.689, 12109.23
1044.171, 12049.66
1044.653, 11997.14
1045.135, 11982.83
1045.617, 12002.52
1046.099, 12001.82
1046.582, 11977.02
1047.064, 11939.12
1047.546, 11875.70
1048.028, 11834.06
1048.510, 11839.50
1048.992, 11862.49
1049.474, 11871.90
1049.956, 11869.60
1050.438, 11864.70
1050.921, 11857.02
1051.403, 11846.60
1051.885, 11831.49
1052.367, 11825.62
1052.849, 11837.26
1053.331, 11845.50
1053.813, 11830.20
1054.295, 11798.03
1054.778, 11762.80
1055.260, 11723.69
1055.742, 11723.84
1056.224, 11766.19
1056.706, 11812.26
1057.188, 11852.61
1057.670, 11874.73
1058.152, 11866.99
1058.635, 11843.17
1059.117, 11828.35
1059.599, 11822.17
1060.081, 11819.42
1060.563, 11821.65
1061.045, 11852.44
1061.527, 11913.50
1062.009, 11952.50
1062.491, 11936.75
1062.974, 11902.64
1063.456, 11901.50
1063.938, 11921.95
1064.420, 11930.78
1064.902, 11934.26
1065.384, 11958.33
1065.866, 12001.38
1066.348, 12032.21
1066.830, 12036.96
1067.313, 12038.28
1067.795, 12058.40
1068.277, 12089.38
1068.759, 12122.31
1069.241, 12156.27
1069.723, 12191.88
1070.205, 12226.85
1070.687, 12253.71
1071.170, 12270.72
1071.652, 12285.49
1072.134, 12298.70
1072.616, 12318.92
1073.098, 12361.47
1073.580, 12408.73
1074.062, 12439.08
1074.544, 12459.01
1075.026, 12479.26
1075.509, 12504.71
1075.991, 12549.67
##END=



