##NAMES=Mordenite
##RRUFFID=R061118
##IDEAL CHEMISTRY=(Na_2_,Ca,K_2_)_4_(Al_8_Si_40_)O_96_&#183;28H_2_O
##LOCALITY=Chipman's Brook, Nova Scotia, Canada
##OWNER=RRUFF
##SOURCE=Michael Scott
##DESCRIPTION=Water worn white pebbles
##STATUS=The identification of this mineral has been confirmed by X-ray diffraction and chemical analysis
##URL=rruff.info/R061118
##MEASURED CHEMISTRY=(Na_5.47_Ca_0.29_K_2.01_)_Σ=7.77_(Al_8.06_Si_39.94_)O_96_·28H_2_O; H_2_O estimated by difference
169.9485, 8587.222
170.4306, 8612.821
170.9127, 8638.045
171.3948, 8662.929
171.8769, 8687.896
172.3590, 8712.854
172.8412, 8735.614
173.3233, 8749.415
173.8054, 8760.211
174.2875, 8777.941
174.7696, 8814.239
175.2517, 8856.134
175.7339, 8888.739
176.2160, 8912.242
176.6981, 8927.677
177.1802, 8925.867
177.6623, 8915.265
178.1444, 8918.729
178.6266, 8960.463
179.1087, 9020.272
179.5908, 9059.714
180.0729, 9074.914
180.5550, 9081.325
181.0371, 9095.036
181.5193, 9115.027
182.0014, 9135.794
182.4835, 9151.282
182.9656, 9165.256
183.4477, 9190.144
183.9299, 9229.668
184.4120, 9273.718
184.8941, 9306.905
185.3762, 9330.144
185.8583, 9350.916
186.3404, 9373.911
186.8226, 9398.506
187.3047, 9424.357
187.7868, 9454.132
188.2689, 9481.356
188.7510, 9488.121
189.2331, 9473.823
189.7153, 9459.767
190.1974, 9459.738
190.6795, 9473.552
191.1616, 9503.208
191.6437, 9558.001
192.1258, 9624.291
192.6080, 9653.980
193.0901, 9643.014
193.5722, 9626.116
194.0543, 9638.964
194.5364, 9681.188
195.0185, 9717.939
195.5007, 9742.448
195.9828, 9754.302
196.4649, 9744.064
196.9470, 9704.533
197.4291, 9667.231
197.9112, 9672.903
198.3934, 9725.591
198.8755, 9776.565
199.3576, 9810.862
199.8397, 9829.409
200.3218, 9849.017
200.8039, 9871.573
201.2861, 9891.217
201.7682, 9895.310
202.2503, 9879.104
202.7324, 9873.035
203.2145, 9891.952
203.6966, 9937.949
204.1788, 9976.950
204.6609, 10010.00
205.1430, 10034.06
205.6251, 10040.40
206.1072, 10023.88
206.5893, 10007.82
207.0715, 10000.10
207.5536, 10000.29
208.0357, 10013.31
208.5178, 10043.91
208.9999, 10083.41
209.4820, 10113.81
209.9642, 10132.85
210.4463, 10148.71
210.9284, 10166.24
211.4105, 10187.45
211.8926, 10201.07
212.3748, 10204.10
212.8569, 10200.42
213.3390, 10200.79
213.8211, 10205.43
214.3032, 10213.59
214.7853, 10225.93
215.2675, 10244.49
215.7496, 10259.86
216.2317, 10269.41
216.7138, 10275.45
217.1959, 10288.04
217.6780, 10309.91
218.1602, 10333.82
218.6423, 10354.97
219.1244, 10372.44
219.6065, 10390.20
220.0886, 10409.62
220.5707, 10430.13
221.0529, 10446.06
221.5350, 10454.80
222.0171, 10463.12
222.4992, 10477.44
222.9813, 10503.75
223.4634, 10521.12
223.9456, 10522.22
224.4277, 10509.17
224.9098, 10510.72
225.3919, 10537.16
225.8740, 10565.41
226.3561, 10574.04
226.8383, 10547.18
227.3204, 10534.10
227.8025, 10546.45
228.2846, 10583.63
228.7667, 10615.95
229.2488, 10643.26
229.7310, 10665.10
230.2131, 10680.70
230.6952, 10687.71
231.1773, 10692.43
231.6594, 10693.42
232.1415, 10690.06
232.6237, 10698.47
233.1058, 10724.65
233.5879, 10756.94
234.0700, 10783.74
234.5521, 10804.20
235.0342, 10820.33
235.5164, 10828.90
235.9985, 10827.77
236.4806, 10843.50
236.9627, 10889.24
237.4448, 10940.01
237.9269, 10966.01
238.4091, 10952.11
238.8912, 10939.46
239.3733, 10938.81
239.8554, 10952.49
240.3375, 10960.83
240.8196, 10960.17
241.3018, 10957.04
241.7839, 10959.03
242.2660, 10965.12
242.7481, 10978.42
243.2302, 11002.85
243.7124, 11042.28
244.1945, 11069.73
244.6766, 11081.39
245.1587, 11083.85
245.6408, 11085.43
246.1229, 11083.80
246.6051, 11085.41
247.0872, 11092.65
247.5693, 11106.72
248.0514, 11120.74
248.5335, 11135.63
249.0156, 11149.89
249.4978, 11160.16
249.9799, 11161.69
250.4620, 11168.11
250.9441, 11186.40
251.4262, 11222.12
251.9083, 11243.48
252.3905, 11244.74
252.8726, 11235.53
253.3547, 11228.68
253.8368, 11216.91
254.3189, 11221.83
254.8010, 11257.50
255.2832, 11337.44
255.7653, 11385.16
256.2474, 11385.68
256.7295, 11364.79
257.2116, 11366.07
257.6937, 11399.40
258.1758, 11434.07
258.6580, 11459.61
259.1401, 11474.85
259.6222, 11487.10
260.1043, 11494.90
260.5865, 11500.81
261.0686, 11510.52
261.5507, 11528.39
262.0328, 11539.52
262.5149, 11533.00
262.9970, 11500.14
263.4792, 11498.56
263.9613, 11542.27
264.4434, 11604.24
264.9255, 11637.23
265.4076, 11631.86
265.8897, 11622.88
266.3719, 11621.98
266.8540, 11629.68
267.3361, 11642.64
267.8182, 11662.36
268.3003, 11685.48
268.7824, 11706.47
269.2646, 11724.14
269.7467, 11743.29
270.2288, 11770.55
270.7109, 11809.03
271.1930, 11822.56
271.6751, 11802.49
272.1573, 11769.17
272.6394, 11754.25
273.1215, 11759.22
273.6036, 11776.38
274.0857, 11807.17
274.5678, 11852.79
275.0500, 11888.71
275.5321, 11913.47
276.0142, 11931.53
276.4963, 11949.39
276.9784, 11967.09
277.4605, 11984.71
277.9427, 12006.74
278.4248, 12032.93
278.9069, 12034.79
279.3890, 12002.88
279.8711, 11966.77
280.3532, 11976.57
280.8354, 12036.63
281.3175, 12091.16
281.7996, 12114.19
282.2817, 12108.73
282.7638, 12108.68
283.2459, 12114.17
283.7281, 12124.66
284.2102, 12141.53
284.6923, 12164.81
285.1744, 12186.81
285.6565, 12204.55
286.1386, 12218.39
286.6208, 12226.58
287.1029, 12226.51
287.5850, 12231.72
288.0671, 12271.23
288.5492, 12340.67
289.0313, 12387.77
289.5135, 12377.79
289.9956, 12328.85
290.4777, 12307.21
290.9598, 12314.49
291.4419, 12335.98
291.9240, 12358.25
292.4062, 12381.51
292.8883, 12406.30
293.3704, 12433.54
293.8525, 12462.37
294.3346, 12491.16
294.8167, 12519.55
295.2989, 12549.25
295.7810, 12590.04
296.2631, 12635.06
296.7452, 12662.09
297.2273, 12649.30
297.7094, 12620.38
298.1916, 12615.31
298.6737, 12634.07
299.1558, 12662.93
299.6379, 12698.04
300.1200, 12734.25
300.6021, 12760.77
301.0843, 12772.06
301.5664, 12772.92
302.0485, 12755.49
302.5306, 12722.74
303.0127, 12715.61
303.4948, 12803.21
303.9770, 12930.25
304.4591, 13007.11
304.9412, 12981.08
305.4233, 12917.42
305.9054, 12864.03
306.3875, 12823.00
306.8697, 12806.78
307.3518, 12846.14
307.8339, 12907.98
308.3160, 12951.73
308.7981, 12959.98
309.2802, 12955.36
309.7624, 12946.42
310.2445, 12935.97
310.7266, 12936.03
311.2087, 12963.96
311.6908, 13000.23
312.1729, 13027.45
312.6551, 13042.45
313.1372, 13046.84
313.6193, 13028.01
314.1014, 12996.60
314.5835, 12984.77
315.0656, 13027.37
315.5478, 13081.32
316.0299, 13116.68
316.5120, 13120.62
316.9941, 13119.64
317.4762, 13113.57
317.9583, 13109.45
318.4405, 13122.91
318.9226, 13181.52
319.4047, 13242.15
319.8868, 13283.62
320.3690, 13299.86
320.8511, 13304.72
321.3332, 13288.87
321.8153, 13265.21
322.2974, 13255.98
322.7795, 13284.65
323.2617, 13311.71
323.7438, 13319.01
324.2259, 13292.33
324.7080, 13285.27
325.1901, 13322.37
325.6722, 13377.16
326.1544, 13412.83
326.6365, 13413.88
327.1186, 13409.46
327.6007, 13402.14
328.0828, 13387.85
328.5649, 13390.09
329.0471, 13420.28
329.5292, 13461.08
330.0113, 13495.08
330.4934, 13526.26
330.9755, 13544.85
331.4576, 13542.02
331.9398, 13516.08
332.4219, 13512.46
332.9040, 13545.23
333.3861, 13586.23
333.8682, 13609.95
334.3503, 13609.00
334.8325, 13608.07
335.3146, 13609.90
335.7967, 13614.73
336.2788, 13625.59
336.7609, 13645.70
337.2430, 13665.77
337.7252, 13677.18
338.2073, 13677.82
338.6894, 13682.15
339.1715, 13694.49
339.6536, 13710.66
340.1357, 13713.07
340.6179, 13697.77
341.1000, 13685.98
341.5821, 13696.33
342.0642, 13728.67
342.5463, 13748.61
343.0284, 13750.55
343.5106, 13742.09
343.9927, 13731.92
344.4748, 13719.88
344.9569, 13722.66
345.4390, 13761.53
345.9211, 13826.70
346.4033, 13869.75
346.8854, 13884.33
347.3675, 13889.32
347.8496, 13909.50
348.3317, 13942.45
348.8138, 13976.78
349.2960, 14012.45
349.7781, 14044.08
350.2602, 14057.66
350.7423, 14050.91
351.2244, 14044.61
351.7065, 14065.20
352.1887, 14101.84
352.6708, 14129.52
353.1529, 14124.24
353.6350, 14112.71
354.1171, 14132.31
354.5992, 14181.05
355.0814, 14218.43
355.5635, 14197.60
356.0456, 14153.55
356.5277, 14131.99
357.0098, 14161.44
357.4919, 14203.98
357.9741, 14238.78
358.4562, 14266.57
358.9383, 14291.91
359.4204, 14319.25
359.9025, 14343.56
360.3846, 14360.01
360.8668, 14360.93
361.3489, 14364.07
361.8310, 14377.32
362.3131, 14397.95
362.7952, 14418.96
363.2773, 14444.29
363.7595, 14464.63
364.2416, 14473.16
364.7237, 14459.90
365.2058, 14456.37
365.6879, 14475.02
366.1700, 14505.15
366.6522, 14529.36
367.1343, 14532.93
367.6164, 14542.85
368.0985, 14568.48
368.5806, 14614.09
369.0627, 14656.68
369.5449, 14693.35
370.0270, 14728.55
370.5091, 14769.41
370.9912, 14830.05
371.4733, 14873.09
371.9554, 14883.81
372.4376, 14863.59
372.9197, 14864.33
373.4018, 14897.65
373.8839, 14934.86
374.3660, 14952.20
374.8481, 14944.16
375.3303, 14935.35
375.8124, 14924.83
376.2945, 14917.38
376.7766, 14931.80
377.2587, 14971.57
377.7408, 15018.47
378.2230, 15064.31
378.7051, 15108.64
379.1872, 15144.54
379.6693, 15167.12
380.1514, 15189.00
380.6335, 15239.66
381.1157, 15317.81
381.5978, 15383.28
382.0799, 15405.15
382.5620, 15397.99
383.0442, 15406.41
383.5263, 15432.75
384.0084, 15468.01
384.4905, 15506.93
384.9726, 15547.95
385.4547, 15585.94
385.9369, 15619.91
386.4190, 15650.02
386.9011, 15673.67
387.3832, 15691.65
387.8653, 15713.30
388.3474, 15748.78
388.8296, 15791.05
389.3117, 15830.51
389.7938, 15861.69
390.2759, 15892.06
390.7580, 15934.03
391.2401, 15981.41
391.7223, 16012.37
392.2044, 15999.33
392.6865, 15977.50
393.1686, 15970.63
393.6507, 15987.09
394.1328, 16009.78
394.6150, 16038.88
395.0971, 16070.06
395.5792, 16095.69
396.0613, 16121.53
396.5434, 16134.83
397.0255, 16118.35
397.5077, 16052.27
397.9898, 16039.30
398.4719, 16140.75
398.9540, 16272.37
399.4361, 16353.38
399.9182, 16352.31
400.4004, 16343.57
400.8825, 16345.14
401.3646, 16354.46
401.8467, 16318.07
402.3288, 16200.10
402.8109, 16087.97
403.2931, 16045.96
403.7752, 16094.72
404.2573, 16145.22
404.7394, 16198.91
405.2215, 16243.64
405.7036, 16236.22
406.1858, 16166.00
406.6679, 16101.21
407.1500, 16081.79
407.6321, 16105.38
408.1142, 16123.60
408.5963, 16135.53
409.0785, 16140.31
409.5606, 16129.68
410.0427, 16106.81
410.5248, 16095.45
411.0069, 16112.25
411.4890, 16143.87
411.9712, 16164.43
412.4533, 16174.10
412.9354, 16173.24
413.4175, 16153.44
413.8996, 16124.80
414.3817, 16104.05
414.8639, 16092.91
415.3460, 16095.65
415.8281, 16126.89
416.3102, 16178.23
416.7923, 16220.84
417.2744, 16227.45
417.7566, 16224.93
418.2387, 16237.25
418.7208, 16276.18
419.2029, 16303.87
419.6850, 16289.63
420.1671, 16257.44
420.6493, 16242.85
421.1314, 16269.26
421.6135, 16302.56
422.0956, 16337.48
422.5777, 16374.91
423.0598, 16394.04
423.5420, 16366.78
424.0241, 16334.91
424.5062, 16330.53
424.9883, 16373.23
425.4704, 16417.40
425.9525, 16467.20
426.4347, 16517.23
426.9168, 16542.29
427.3989, 16528.55
427.8810, 16512.41
428.3631, 16511.58
428.8452, 16528.51
429.3274, 16551.88
429.8095, 16584.85
430.2916, 16619.24
430.7737, 16643.18
431.2558, 16656.73
431.7379, 16657.96
432.2201, 16635.04
432.7022, 16597.95
433.1843, 16598.62
433.6664, 16639.14
434.1485, 16696.15
434.6306, 16763.79
435.1128, 16832.65
435.5949, 16866.69
436.0770, 16842.89
436.5591, 16802.17
437.0412, 16804.89
437.5233, 16841.94
438.0055, 16875.22
438.4876, 16872.19
438.9697, 16857.77
439.4518, 16860.60
439.9339, 16887.07
440.4160, 16916.67
440.8982, 16938.19
441.3803, 16954.32
441.8624, 16969.36
442.3445, 16989.81
442.8266, 17004.93
443.3088, 17008.70
443.7909, 17001.18
444.2730, 16991.72
444.7551, 16963.96
445.2372, 16946.67
445.7194, 16958.50
446.2015, 17061.99
446.6836, 17118.85
447.1657, 17097.47
447.6478, 17027.92
448.1299, 16991.46
448.6121, 17004.78
449.0942, 17027.47
449.5763, 17046.04
450.0584, 17060.23
450.5405, 17072.20
451.0226, 17080.32
451.5048, 17088.94
451.9869, 17101.68
452.4690, 17117.92
452.9511, 17145.34
453.4332, 17190.59
453.9153, 17246.05
454.3975, 17285.54
454.8796, 17309.12
455.3617, 17325.13
455.8438, 17335.39
456.3259, 17342.78
456.8080, 17356.73
457.2902, 17378.88
457.7723, 17405.47
458.2544, 17433.72
458.7365, 17463.04
459.2186, 17491.11
459.7007, 17510.22
460.1829, 17532.25
460.6650, 17572.63
461.1471, 17631.18
461.6292, 17684.58
462.1113, 17714.51
462.5934, 17736.63
463.0756, 17765.87
463.5577, 17821.35
464.0398, 17865.70
464.5219, 17881.93
465.0040, 17878.21
465.4861, 17878.26
465.9683, 17885.10
466.4504, 17896.96
466.9325, 17911.81
467.4146, 17925.79
467.8967, 17956.95
468.3788, 18022.24
468.8610, 18091.62
469.3431, 18130.63
469.8252, 18129.00
470.3073, 18123.33
470.7894, 18120.69
471.2715, 18119.26
471.7537, 18109.25
472.2358, 18089.23
472.7179, 18067.24
473.2000, 18042.84
473.6821, 18017.97
474.1642, 18018.38
474.6464, 18052.51
475.1285, 18090.45
475.6106, 18085.07
476.0927, 18045.94
476.5748, 18013.22
477.0569, 18010.93
477.5391, 18020.74
478.0212, 18021.35
478.5033, 18012.79
478.9854, 17995.10
479.4675, 17955.85
479.9496, 17913.41
480.4318, 17887.27
480.9139, 17886.68
481.3960, 17894.03
481.8781, 17905.69
482.3602, 17919.55
482.8423, 17931.28
483.3245, 17940.06
483.8066, 17946.30
484.2887, 17949.45
484.7708, 17948.94
485.2529, 17949.34
485.7350, 17961.42
486.2172, 17966.62
486.6993, 17946.91
487.1814, 17875.38
487.6635, 17836.84
488.1456, 17852.84
488.6277, 17901.36
489.1099, 17914.69
489.5920, 17882.75
490.0741, 17854.93
490.5562, 17861.27
491.0383, 17898.70
491.5204, 17903.82
492.0026, 17869.86
492.4847, 17838.12
492.9668, 17864.45
493.4489, 17933.59
493.9310, 17990.45
494.4131, 18019.88
494.8953, 18029.25
495.3774, 18020.76
495.8595, 17997.71
496.3416, 17974.81
496.8237, 17944.70
497.3058, 17927.70
497.7880, 17951.81
498.2701, 18028.86
498.7522, 18091.49
499.2343, 18091.61
499.7164, 18065.50
500.1985, 18053.46
500.6807, 18084.88
501.1628, 18110.84
501.6449, 18113.78
502.1270, 18098.46
502.6091, 18099.09
503.0912, 18131.29
503.5734, 18163.94
504.0555, 18184.73
504.5376, 18192.55
505.0197, 18189.12
505.5019, 18165.02
505.9840, 18141.59
506.4661, 18148.81
506.9482, 18190.19
507.4303, 18240.07
507.9124, 18301.03
508.3946, 18361.16
508.8767, 18374.68
509.3588, 18342.44
509.8409, 18309.35
510.3230, 18307.93
510.8051, 18327.87
511.2873, 18349.24
511.7694, 18371.33
512.2515, 18387.11
512.7336, 18382.86
513.2157, 18369.28
513.6978, 18364.35
514.1799, 18380.69
514.6620, 18402.76
515.1442, 18419.93
515.6263, 18434.35
516.1084, 18457.21
516.5905, 18511.44
517.0726, 18560.86
517.5547, 18584.77
518.0369, 18572.43
518.5190, 18555.07
519.0011, 18520.36
519.4832, 18488.55
519.9653, 18485.85
520.4474, 18528.29
520.9296, 18567.53
521.4117, 18596.03
521.8938, 18614.41
522.3759, 18623.27
522.8580, 18620.10
523.3401, 18618.10
523.8223, 18620.06
524.3044, 18627.89
524.7865, 18663.53
525.2686, 18732.33
525.7507, 18806.30
526.2328, 18860.47
526.7150, 18893.66
527.1971, 18902.01
527.6792, 18862.35
528.1613, 18819.39
528.6434, 18826.35
529.1255, 18871.29
529.6077, 18906.04
530.0898, 18888.50
530.5719, 18863.78
531.0540, 18864.60
531.5361, 18901.50
532.0182, 18937.49
532.5004, 18961.17
532.9825, 18980.09
533.4646, 19001.87
533.9467, 19040.69
534.4288, 19064.77
534.9109, 19065.34
535.3931, 19048.73
535.8752, 19039.59
536.3574, 19039.97
536.8395, 19042.99
537.3216, 19043.19
537.8037, 19040.20
538.2858, 19053.48
538.7679, 19085.59
539.2501, 19124.31
539.7322, 19158.05
540.2143, 19187.42
540.6964, 19216.65
541.1785, 19250.54
541.6606, 19277.99
542.1428, 19270.88
542.6249, 19241.66
543.1070, 19230.68
543.5891, 19290.75
544.0712, 19355.99
544.5533, 19363.62
545.0355, 19308.53
545.5176, 19266.45
545.9997, 19274.78
546.4818, 19305.19
546.9639, 19335.98
547.4460, 19382.87
547.9282, 19403.72
548.4103, 19367.46
548.8924, 19310.15
549.3745, 19302.41
549.8566, 19372.70
550.3387, 19440.31
550.8209, 19484.29
551.3030, 19505.61
551.7851, 19512.36
552.2672, 19500.42
552.7493, 19491.56
553.2314, 19507.85
553.7136, 19544.57
554.1957, 19567.71
554.6778, 19570.16
555.1599, 19572.46
555.6420, 19610.23
556.1241, 19668.24
556.6063, 19708.52
557.0884, 19704.55
557.5705, 19685.40
558.0526, 19662.71
558.5347, 19641.15
559.0168, 19642.31
559.4990, 19704.62
559.9811, 19770.87
560.4632, 19805.13
560.9453, 19791.65
561.4274, 19785.96
561.9095, 19798.10
562.3917, 19819.60
562.8738, 19843.77
563.3559, 19872.75
563.8380, 19899.03
564.3201, 19921.08
564.8022, 19940.04
565.2844, 19960.76
565.7665, 19984.39
566.2486, 20003.61
566.7307, 20013.15
567.2128, 20015.17
567.6949, 20020.16
568.1771, 20028.21
568.6592, 20038.12
569.1413, 20047.92
569.6234, 20059.08
570.1055, 20075.72
570.5876, 20101.28
571.0698, 20125.31
571.5519, 20134.22
572.0340, 20137.10
572.5161, 20149.43
572.9982, 20202.06
573.4803, 20240.47
573.9625, 20227.02
574.4446, 20167.09
574.9267, 20145.46
575.4088, 20210.23
575.8909, 20274.02
576.3730, 20293.54
576.8552, 20250.45
577.3373, 20232.87
577.8194, 20249.89
578.3015, 20278.47
578.7836, 20284.06
579.2657, 20264.75
579.7479, 20281.56
580.2300, 20363.37
580.7121, 20464.45
581.1942, 20484.00
581.6763, 20435.84
582.1584, 20395.73
582.6406, 20418.49
583.1227, 20464.46
583.6048, 20487.92
584.0869, 20487.99
584.5690, 20487.65
585.0511, 20497.14
585.5333, 20513.26
586.0154, 20534.40
586.4975, 20566.15
586.9796, 20591.69
587.4617, 20601.50
587.9438, 20605.66
588.4260, 20619.48
588.9081, 20653.53
589.3902, 20679.17
589.8723, 20688.00
590.3544, 20684.31
590.8365, 20689.63
591.3187, 20706.46
591.8008, 20719.73
592.2829, 20711.11
592.7650, 20688.73
593.2471, 20702.98
593.7292, 20757.40
594.2114, 20817.99
594.6935, 20861.85
595.1756, 20888.24
595.6577, 20892.70
596.1398, 20862.01
596.6219, 20835.93
597.1041, 20846.72
597.5862, 20880.37
598.0683, 20911.53
598.5504, 20921.12
599.0325, 20937.51
599.5146, 20973.02
599.9968, 21026.80
600.4789, 21078.99
600.9610, 21149.47
601.4431, 21192.27
601.9252, 21172.36
602.4073, 21071.06
602.8895, 21029.31
603.3716, 21059.88
603.8537, 21118.17
604.3358, 21157.85
604.8179, 21181.02
605.3000, 21210.55
605.7822, 21256.32
606.2643, 21299.27
606.7464, 21313.16
607.2285, 21303.72
607.7106, 21287.49
608.1927, 21258.63
608.6749, 21237.00
609.1570, 21240.21
609.6391, 21266.35
610.1212, 21296.17
610.6033, 21333.48
611.0854, 21364.55
611.5676, 21378.47
612.0497, 21363.01
612.5318, 21365.26
613.0139, 21397.76
613.4960, 21436.05
613.9781, 21452.99
614.4603, 21442.70
614.9424, 21440.67
615.4245, 21453.90
615.9066, 21474.39
616.3887, 21483.92
616.8708, 21484.11
617.3530, 21492.65
617.8351, 21519.09
618.3172, 21557.15
618.7993, 21613.39
619.2814, 21680.98
619.7635, 21715.99
620.2457, 21639.12
620.7278, 21554.34
621.2099, 21555.87
621.6920, 21677.44
622.1741, 21771.99
622.6563, 21775.13
623.1384, 21749.20
623.6205, 21751.28
624.1026, 21810.01
624.5847, 21846.93
625.0668, 21847.55
625.5490, 21831.42
626.0311, 21840.15
626.5132, 21878.05
626.9953, 21907.30
627.4774, 21910.05
627.9595, 21899.02
628.4417, 21910.17
628.9238, 21941.90
629.4059, 21975.57
629.8880, 22003.71
630.3701, 22024.91
630.8522, 22033.81
631.3344, 22029.35
631.8165, 22028.98
632.2986, 22034.66
632.7807, 22052.77
633.2628, 22091.07
633.7449, 22183.97
634.2271, 22243.45
634.7092, 22243.64
635.1913, 22214.85
635.6734, 22196.75
636.1555, 22191.76
636.6376, 22192.89
637.1198, 22203.26
637.6019, 22216.25
638.0840, 22202.48
638.5661, 22161.12
639.0482, 22141.00
639.5303, 22183.12
640.0125, 22261.39
640.4946, 22324.74
640.9767, 22372.54
641.4588, 22408.50
641.9409, 22436.31
642.4230, 22452.38
642.9052, 22447.09
643.3873, 22407.28
643.8694, 22386.17
644.3515, 22427.52
644.8336, 22483.25
645.3157, 22498.61
645.7979, 22428.33
646.2800, 22390.39
646.7621, 22399.70
647.2442, 22443.37
647.7263, 22501.42
648.2084, 22580.46
648.6906, 22634.33
649.1727, 22640.23
649.6548, 22613.34
650.1369, 22582.13
650.6190, 22549.33
651.1011, 22539.47
651.5833, 22589.41
652.0654, 22660.18
652.5475, 22711.57
653.0296, 22740.30
653.5117, 22748.38
653.9938, 22707.10
654.4760, 22663.73
654.9581, 22656.99
655.4402, 22716.90
655.9223, 22771.46
656.4044, 22821.23
656.8865, 22861.66
657.3687, 22886.69
657.8508, 22894.94
658.3329, 22890.42
658.8150, 22866.97
659.2971, 22838.88
659.7793, 22842.74
660.2614, 22876.12
660.7435, 22910.41
661.2256, 22934.92
661.7078, 22951.04
662.1899, 22958.65
662.6720, 22958.68
663.1541, 22956.68
663.6362, 22961.76
664.1183, 22961.44
664.6005, 22936.71
665.0826, 22874.04
665.5647, 22854.08
666.0468, 22918.36
666.5289, 23009.25
667.0110, 23097.72
667.4932, 23201.54
667.9753, 23245.41
668.4574, 23207.96
668.9395, 23141.46
669.4216, 23121.84
669.9037, 23145.43
670.3859, 23163.45
670.8680, 23158.54
671.3501, 23150.54
671.8322, 23174.05
672.3143, 23218.07
672.7964, 23253.22
673.2786, 23257.14
673.7607, 23255.24
674.2428, 23268.59
674.7249, 23293.20
675.2070, 23299.01
675.6891, 23254.59
676.1713, 23212.94
676.6534, 23195.56
677.1355, 23205.29
677.6176, 23211.99
678.0997, 23207.71
678.5818, 23218.12
679.0640, 23283.04
679.5461, 23394.66
680.0282, 23443.57
680.5103, 23413.23
680.9924, 23363.64
681.4745, 23357.36
681.9567, 23379.78
682.4388, 23404.45
682.9209, 23426.49
683.4030, 23444.81
683.8851, 23453.13
684.3672, 23458.36
684.8494, 23472.64
685.3315, 23512.36
685.8136, 23545.98
686.2957, 23573.35
686.7778, 23590.61
687.2599, 23576.14
687.7421, 23514.54
688.2242, 23468.19
688.7063, 23467.69
689.1884, 23503.86
689.6705, 23530.23
690.1526, 23547.00
690.6348, 23567.62
691.1169, 23608.65
691.5990, 23656.53
692.0811, 23694.05
692.5632, 23719.62
693.0453, 23734.28
693.5275, 23729.15
694.0096, 23719.11
694.4917, 23716.84
694.9738, 23729.43
695.4559, 23741.33
695.9380, 23757.80
696.4202, 23768.75
696.9023, 23757.62
697.3844, 23715.67
697.8665, 23689.16
698.3486, 23681.97
698.8307, 23699.20
699.3129, 23778.40
699.7950, 23900.94
700.2771, 23969.96
700.7592, 23909.02
701.2413, 23813.24
701.7234, 23769.34
702.2056, 23772.06
702.6877, 23804.45
703.1698, 23894.07
703.6519, 23978.41
704.1340, 24025.61
704.6161, 24033.70
705.0983, 24049.71
705.5804, 24085.80
706.0625, 24112.49
706.5446, 24112.60
707.0267, 24085.40
707.5089, 24055.07
707.9910, 24018.98
708.4731, 23996.05
708.9552, 24015.26
709.4373, 24059.17
709.9194, 24084.63
710.4016, 24082.64
710.8837, 24080.56
711.3658, 24090.54
711.8479, 24115.27
712.3300, 24158.99
712.8121, 24249.28
713.2943, 24320.04
713.7764, 24348.12
714.2585, 24353.86
714.7406, 24363.20
715.2227, 24379.82
715.7048, 24390.90
716.1870, 24396.25
716.6691, 24392.40
717.1512, 24356.55
717.6333, 24293.60
718.1154, 24263.64
718.5975, 24318.28
719.0797, 24398.69
719.5618, 24432.94
720.0439, 24427.93
720.5260, 24411.66
721.0081, 24364.61
721.4902, 24339.32
721.9724, 24382.00
722.4545, 24496.94
722.9366, 24560.20
723.4187, 24537.90
723.9008, 24501.66
724.3829, 24483.85
724.8651, 24485.68
725.3472, 24487.63
725.8293, 24490.01
726.3114, 24490.91
726.7935, 24486.37
727.2756, 24479.34
727.7578, 24475.31
728.2399, 24474.23
728.7220, 24482.24
729.2041, 24504.36
729.6862, 24537.90
730.1683, 24582.19
730.6505, 24658.17
731.1326, 24708.72
731.6147, 24701.59
732.0968, 24675.58
732.5789, 24675.24
733.0610, 24709.73
733.5432, 24741.03
734.0253, 24763.05
734.5074, 24779.44
734.9895, 24792.82
735.4716, 24804.79
735.9537, 24828.06
736.4359, 24883.27
736.9180, 24932.27
737.4001, 24916.89
737.8822, 24859.91
738.3643, 24821.04
738.8464, 24840.56
739.3286, 24867.39
739.8107, 24879.76
740.2928, 24879.88
740.7749, 24889.92
741.2570, 24915.47
741.7391, 24940.85
742.2213, 24960.14
742.7034, 24974.13
743.1855, 24988.19
743.6676, 25002.39
744.1497, 25016.57
744.6318, 25037.10
745.1140, 25054.93
745.5961, 25052.71
746.0782, 25029.97
746.5603, 25005.07
747.0424, 24971.34
747.5245, 24951.36
748.0067, 24964.88
748.4888, 25028.02
748.9709, 25082.29
749.4530, 25128.61
749.9351, 25163.25
750.4172, 25181.27
750.8994, 25181.53
751.3815, 25176.83
751.8636, 25167.05
752.3457, 25155.73
752.8278, 25132.15
753.3099, 25111.44
753.7921, 25136.77
754.2742, 25236.93
754.7563, 25329.32
755.2384, 25349.03
755.7205, 25331.68
756.2026, 25324.21
756.6848, 25354.30
757.1669, 25372.97
757.6490, 25374.88
758.1311, 25364.17
758.6132, 25342.94
759.0953, 25306.51
759.5775, 25285.67
760.0596, 25284.84
760.5417, 25307.32
761.0238, 25378.34
761.5059, 25482.21
761.9880, 25559.33
762.4702, 25564.56
762.9523, 25548.97
763.4344, 25555.63
763.9165, 25572.31
764.3986, 25561.27
764.8807, 25449.51
765.3629, 25380.78
765.8450, 25412.13
766.3271, 25522.11
766.8092, 25585.08
767.2913, 25590.81
767.7734, 25594.30
768.2556, 25629.93
768.7377, 25680.19
769.2198, 25676.50
769.7019, 25627.07
770.1840, 25600.74
770.6661, 25689.45
771.1483, 25785.77
771.6304, 25779.35
772.1125, 25666.58
772.5946, 25592.71
773.0767, 25623.46
773.5588, 25676.15
774.0410, 25715.04
774.5231, 25738.79
775.0052, 25762.00
775.4873, 25784.36
775.9694, 25807.52
776.4515, 25839.16
776.9337, 25873.10
777.4158, 25883.89
777.8979, 25869.27
778.3800, 25852.64
778.8621, 25853.64
779.3442, 25860.66
779.8264, 25858.44
780.3085, 25835.60
780.7906, 25836.13
781.2727, 25891.42
781.7548, 25956.63
782.2369, 26001.92
782.7191, 26023.22
783.2012, 26038.16
783.6833, 26045.54
784.1655, 26051.43
784.6476, 26059.74
785.1297, 26072.17
785.6118, 26097.79
786.0939, 26142.92
786.5760, 26180.81
787.0582, 26174.53
787.5403, 26154.96
788.0224, 26158.52
788.5045, 26220.26
788.9866, 26264.58
789.4688, 26281.28
789.9509, 26278.63
790.4330, 26261.17
790.9151, 26223.18
791.3972, 26200.79
791.8793, 26199.57
792.3615, 26213.46
792.8436, 26236.58
793.3257, 26267.57
793.8078, 26304.10
794.2899, 26353.94
794.7720, 26394.61
795.2542, 26402.39
795.7363, 26394.14
796.2184, 26397.40
796.7005, 26431.33
797.1826, 26460.36
797.6647, 26483.83
798.1469, 26498.52
798.6290, 26482.47
799.1111, 26429.58
799.5932, 26437.24
800.0753, 26557.95
800.5574, 26708.47
801.0396, 26752.33
801.5217, 26716.95
802.0038, 26673.13
802.4859, 26644.82
802.9680, 26624.27
803.4501, 26601.17
803.9323, 26582.99
804.4144, 26593.46
804.8965, 26663.74
805.3786, 26707.49
805.8607, 26690.00
806.3428, 26644.09
806.8250, 26678.21
807.3071, 26789.63
807.7892, 26875.64
808.2713, 26881.48
808.7534, 26852.72
809.2355, 26838.79
809.7177, 26840.20
810.1998, 26858.44
810.6819, 26929.38
811.1640, 26980.77
811.6461, 26975.33
812.1282, 26924.03
812.6104, 26872.97
813.0925, 26809.34
813.5746, 26778.50
814.0567, 26801.99
814.5388, 26864.29
815.0209, 26930.68
815.5031, 26998.20
815.9852, 27042.16
816.4673, 27039.98
816.9494, 27016.45
817.4315, 26980.78
817.9136, 26940.56
818.3958, 26923.26
818.8779, 26963.97
819.3600, 26999.22
819.8421, 26999.22
820.3242, 26975.90
820.8063, 27005.48
821.2885, 27102.53
821.7706, 27171.92
822.2527, 27154.05
822.7348, 27092.46
823.2169, 27089.61
823.6990, 27134.36
824.1812, 27174.00
824.6633, 27178.57
825.1454, 27169.45
825.6275, 27152.14
826.1096, 27129.92
826.5917, 27123.26
827.0739, 27146.62
827.5560, 27163.85
828.0381, 27156.61
828.5202, 27134.43
829.0023, 27157.53
829.4844, 27224.66
829.9666, 27274.43
830.4487, 27252.42
830.9308, 27206.11
831.4129, 27200.36
831.8950, 27226.83
832.3771, 27250.59
832.8593, 27246.18
833.3414, 27245.85
833.8235, 27268.23
834.3056, 27308.01
834.7877, 27339.51
835.2698, 27367.27
835.7520, 27371.33
836.2341, 27328.20
836.7162, 27263.67
837.1983, 27253.13
837.6804, 27290.64
838.1625, 27340.43
838.6447, 27396.41
839.1268, 27444.99
839.6089, 27480.46
840.0910, 27501.34
840.5731, 27498.40
841.0552, 27432.10
841.5374, 27391.20
842.0195, 27406.63
842.5016, 27464.49
842.9837, 27500.81
843.4658, 27514.91
843.9479, 27529.87
844.4301, 27565.56
844.9122, 27601.29
845.3943, 27596.11
845.8764, 27563.11
846.3585, 27545.75
846.8406, 27579.75
847.3228, 27616.21
847.8049, 27634.57
848.2870, 27638.74
848.7691, 27646.10
849.2512, 27659.68
849.7333, 27663.78
850.2155, 27640.37
850.6976, 27615.83
851.1797, 27676.60
851.6618, 27803.25
852.1439, 27906.30
852.6260, 27940.28
853.1082, 27938.54
853.5903, 27903.46
854.0724, 27849.51
854.5545, 27817.87
855.0366, 27829.30
855.5187, 27845.08
856.0009, 27858.78
856.4830, 27872.59
856.9651, 27894.88
857.4472, 27925.15
857.9293, 27947.48
858.4114, 27952.77
858.8936, 27953.15
859.3757, 27963.25
859.8578, 27980.22
860.3399, 27998.35
860.8220, 28022.38
861.3041, 28039.12
861.7863, 28036.78
862.2684, 28027.48
862.7505, 28031.09
863.2326, 28048.36
863.7147, 28077.04
864.1968, 28121.22
864.6790, 28166.76
865.1611, 28188.92
865.6432, 28194.35
866.1253, 28200.08
866.6074, 28206.13
867.0895, 28223.57
867.5717, 28281.39
868.0538, 28346.70
868.5359, 28366.88
869.0180, 28305.41
869.5001, 28270.90
869.9822, 28280.94
870.4644, 28304.83
870.9465, 28294.75
871.4286, 28257.06
871.9107, 28221.42
872.3928, 28187.08
872.8749, 28181.73
873.3571, 28258.96
873.8392, 28366.58
874.3213, 28440.05
874.8034, 28450.97
875.2855, 28458.31
875.7676, 28461.88
876.2498, 28470.01
876.7319, 28500.12
877.2140, 28554.36
877.6961, 28556.49
878.1782, 28493.29
878.6603, 28431.43
879.1425, 28444.22
879.6246, 28494.71
880.1067, 28536.29
880.5888, 28562.20
881.0709, 28575.56
881.5530, 28565.34
882.0352, 28552.69
882.5173, 28551.61
882.9994, 28564.36
883.4815, 28571.88
883.9636, 28572.91
884.4457, 28575.11
884.9279, 28578.08
885.4100, 28588.57
885.8921, 28630.42
886.3742, 28701.97
886.8563, 28758.08
887.3384, 28760.75
887.8206, 28752.07
888.3027, 28755.36
888.7848, 28771.61
889.2669, 28792.66
889.7490, 28818.54
890.2311, 28849.26
890.7133, 28892.71
891.1954, 28938.51
891.6775, 28941.06
892.1596, 28908.63
892.6417, 28891.68
893.1238, 28941.43
893.6060, 28996.42
894.0881, 29013.69
894.5702, 29000.06
895.0523, 28999.14
895.5344, 29015.87
896.0165, 29042.54
896.4987, 29085.41
896.9808, 29130.80
897.4629, 29133.38
897.9450, 29100.17
898.4271, 29074.29
898.9092, 29072.13
899.3914, 29086.32
899.8735, 29122.66
900.3556, 29169.30
900.8377, 29201.64
901.3198, 29207.33
901.8019, 29207.05
902.2841, 29198.33
902.7662, 29189.01
903.2483, 29191.06
903.7304, 29204.30
904.2125, 29230.20
904.6946, 29273.08
905.1768, 29312.86
905.6589, 29330.77
906.1410, 29332.52
906.6232, 29323.94
907.1053, 29294.91
907.5874, 29280.21
908.0695, 29287.17
908.5516, 29307.26
909.0338, 29339.39
909.5159, 29384.72
909.9980, 29404.93
910.4801, 29394.92
910.9622, 29387.78
911.4443, 29420.21
911.9265, 29470.31
912.4086, 29513.72
912.8907, 29547.74
913.3728, 29571.69
913.8549, 29560.72
914.3370, 29564.59
914.8192, 29619.38
915.3013, 29724.44
915.7834, 29764.39
916.2655, 29734.92
916.7476, 29691.11
917.2297, 29650.85
917.7119, 29626.81
918.1940, 29657.13
918.6761, 29726.39
919.1582, 29761.13
919.6403, 29676.84
920.1224, 29614.27
920.6046, 29633.07
921.0867, 29707.20
921.5688, 29747.68
922.0509, 29750.42
922.5330, 29753.73
923.0151, 29771.21
923.4973, 29793.88
923.9794, 29805.09
924.4615, 29811.53
924.9436, 29827.80
925.4257, 29872.46
925.9078, 29911.57
926.3900, 29931.43
926.8721, 29942.49
927.3542, 29956.01
927.8363, 29971.91
928.3184, 29993.27
928.8005, 30023.97
929.2827, 30046.45
929.7648, 30016.18
930.2469, 29971.55
930.7290, 29993.27
931.2111, 30116.78
931.6932, 30196.79
932.1754, 30134.07
932.6575, 30043.38
933.1396, 30003.99
933.6217, 30023.79
934.1038, 30028.41
934.5859, 30012.51
935.0681, 30015.37
935.5502, 30089.19
936.0323, 30189.57
936.5144, 30245.96
936.9965, 30258.86
937.4786, 30259.30
937.9608, 30251.35
938.4429, 30242.59
938.9250, 30222.02
939.4071, 30201.76
939.8892, 30260.49
940.3713, 30415.16
940.8535, 30504.10
941.3356, 30432.69
941.8177, 30312.39
942.2998, 30338.43
942.7819, 30451.02
943.2640, 30519.05
943.7462, 30434.08
944.2283, 30371.50
944.7104, 30390.32
945.1925, 30446.63
945.6746, 30490.73
946.1567, 30521.64
946.6389, 30547.90
947.1210, 30572.50
947.6031, 30584.56
948.0852, 30551.44
948.5673, 30506.40
949.0494, 30504.81
949.5316, 30567.54
950.0137, 30616.05
950.4958, 30599.37
950.9779, 30587.80
951.4600, 30630.27
951.9421, 30729.68
952.4243, 30765.06
952.9064, 30733.21
953.3885, 30698.84
953.8706, 30717.42
954.3527, 30751.49
954.8348, 30754.27
955.3170, 30730.29
955.7991, 30710.61
956.2812, 30685.77
956.7633, 30692.83
957.2454, 30756.60
957.7275, 30850.16
958.2097, 30890.76
958.6918, 30881.21
959.1739, 30876.83
959.6560, 30895.85
960.1381, 30924.77
960.6202, 30960.32
961.1024, 30992.27
961.5845, 31005.67
962.0666, 30981.47
962.5487, 30960.30
963.0308, 30935.47
963.5129, 30925.68
963.9951, 30969.29
964.4772, 31056.44
964.9593, 31058.13
965.4414, 30962.10
965.9235, 30890.80
966.4056, 30971.09
966.8878, 31095.69
967.3699, 31178.50
967.8520, 31209.31
968.3341, 31226.14
968.8162, 31225.83
969.2983, 31224.61
969.7805, 31227.51
970.2626, 31235.47
970.7447, 31257.58
971.2268, 31289.77
971.7089, 31310.84
972.1910, 31289.76
972.6732, 31275.67
973.1553, 31316.88
973.6374, 31380.56
974.1195, 31392.00
974.6016, 31312.57
975.0837, 31287.41
975.5659, 31349.91
976.0480, 31433.67
976.5301, 31441.60
977.0122, 31404.70
977.4943, 31398.55
977.9764, 31439.40
978.4586, 31492.42
978.9407, 31576.99
979.4228, 31635.38
979.9049, 31610.73
980.3870, 31492.08
980.8691, 31456.87
981.3513, 31515.13
981.8334, 31595.75
982.3155, 31672.37
982.7976, 31732.57
983.2797, 31742.96
983.7618, 31715.98
984.2440, 31697.95
984.7261, 31712.22
985.2082, 31731.47
985.6903, 31746.03
986.1724, 31761.57
986.6545, 31792.54
987.1367, 31838.64
987.6188, 31887.06
988.1009, 31940.33
988.5830, 31976.00
989.0651, 31950.46
989.5472, 31902.47
990.0294, 31880.61
990.5115, 31901.79
990.9936, 31933.10
991.4757, 31982.52
991.9578, 32023.23
992.4399, 32028.23
992.9221, 32004.64
993.4042, 32008.39
993.8863, 32037.98
994.3684, 32068.88
994.8505, 32101.15
995.3326, 32115.42
995.8148, 32075.61
996.2969, 32000.56
996.7790, 31988.50
997.2611, 32068.40
997.7432, 32130.92
998.2253, 32143.11
998.7075, 32138.89
999.1896, 32182.96
999.6717, 32256.90
1000.154, 32317.59
1000.636, 32357.82
1001.118, 32372.88
1001.600, 32329.56
1002.082, 32283.67
1002.564, 32284.72
1003.047, 32342.97
1003.529, 32382.29
1004.011, 32401.78
1004.493, 32414.10
1004.975, 32434.15
1005.457, 32449.58
1005.939, 32431.95
1006.421, 32389.64
1006.903, 32377.72
1007.386, 32439.71
1007.868, 32501.75
1008.350, 32556.77
1008.832, 32594.89
1009.314, 32565.33
1009.796, 32484.79
1010.278, 32471.32
1010.760, 32582.60
1011.242, 32702.56
1011.725, 32755.09
1012.207, 32760.05
1012.689, 32732.11
1013.171, 32648.41
1013.653, 32615.43
1014.135, 32644.73
1014.617, 32690.19
1015.099, 32713.59
1015.582, 32727.28
1016.064, 32771.80
1016.546, 32840.55
1017.028, 32884.63
1017.510, 32855.22
1017.992, 32823.16
1018.474, 32814.69
1018.956, 32824.73
1019.438, 32842.20
1019.921, 32867.34
1020.403, 32896.10
1020.885, 32928.06
1021.367, 32960.76
1021.849, 32996.24
1022.331, 33028.44
1022.813, 33046.63
1023.295, 33037.80
1023.778, 33049.77
1024.260, 33100.36
1024.742, 33146.66
1025.224, 33148.78
1025.706, 33119.69
1026.188, 33139.18
1026.670, 33199.54
1027.152, 33243.49
1027.635, 33206.24
1028.117, 33174.69
1028.599, 33218.86
1029.081, 33302.68
1029.563, 33321.67
1030.045, 33256.69
1030.527, 33214.45
1031.009, 33215.68
1031.491, 33238.72
1031.974, 33257.36
1032.456, 33277.68
1032.938, 33313.40
1033.420, 33373.01
1033.902, 33414.37
1034.384, 33406.07
1034.866, 33402.76
1035.348, 33440.45
1035.830, 33508.96
1036.313, 33530.27
1036.795, 33509.82
1037.277, 33499.10
1037.759, 33550.11
1038.241, 33597.81
1038.723, 33582.55
1039.205, 33535.16
1039.687, 33523.97
1040.170, 33566.54
1040.652, 33601.79
1041.134, 33625.61
1041.616, 33635.68
1042.098, 33606.59
1042.580, 33570.23
1043.062, 33596.97
1043.544, 33697.89
1044.026, 33776.09
1044.509, 33783.45
1044.991, 33770.60
1045.473, 33748.41
1045.955, 33724.05
1046.437, 33738.09
1046.919, 33787.31
1047.401, 33834.96
1047.883, 33867.36
1048.365, 33890.68
1048.848, 33907.53
1049.330, 33919.40
1049.812, 33927.50
1050.294, 33929.04
1050.776, 33935.32
1051.258, 33948.18
1051.740, 33960.26
1052.222, 33962.36
1052.705, 33960.01
1053.187, 33958.44
1053.669, 33959.99
1054.151, 33980.47
1054.633, 34038.83
1055.115, 34104.71
1055.597, 34180.80
1056.079, 34250.34
1056.562, 34261.67
1057.044, 34219.90
1057.526, 34183.33
1058.008, 34165.73
1058.490, 34162.12
1058.972, 34176.64
1059.454, 34197.91
1059.936, 34214.66
1060.418, 34225.38
1060.901, 34230.88
1061.383, 34225.54
1061.865, 34236.88
1062.347, 34292.42
1062.829, 34370.07
1063.311, 34437.75
1063.793, 34493.27
1064.275, 34528.62
1064.757, 34522.52
1065.240, 34520.52
1065.722, 34531.54
1066.204, 34549.55
1066.686, 34563.38
1067.168, 34575.42
1067.650, 34612.08
1068.132, 34678.90
1068.614, 34728.31
1069.097, 34704.20
1069.579, 34670.09
1070.061, 34668.16
1070.543, 34699.08
1071.025, 34769.20
1071.507, 34896.64
1071.989, 34952.38
1072.471, 34857.21
1072.953, 34731.48
1073.436, 34757.54
1073.918, 34862.66
1074.400, 34926.69
1074.882, 34898.01
1075.364, 34866.98
1075.846, 34833.09
1076.328, 34812.64
1076.810, 34820.14
1077.292, 34851.52
1077.775, 34899.04
1078.257, 34958.31
1078.739, 35001.69
1079.221, 34996.98
1079.703, 34992.08
1080.185, 35003.22
1080.667, 35030.89
1081.149, 35093.62
1081.632, 35197.02
1082.114, 35220.39
1082.596, 35132.66
1083.078, 35048.63
1083.560, 35111.77
1084.042, 35216.45
1084.524, 35252.50
1085.006, 35201.64
1085.489, 35177.67
1085.971, 35185.20
1086.453, 35216.68
1086.935, 35282.32
1087.417, 35354.16
1087.899, 35372.62
1088.381, 35355.49
1088.863, 35341.64
1089.345, 35335.21
1089.828, 35350.00
1090.310, 35399.41
1090.792, 35458.39
1091.274, 35512.28
1091.756, 35560.04
1092.238, 35583.82
1092.720, 35585.09
1093.202, 35583.44
1093.685, 35587.16
1094.167, 35595.65
1094.649, 35605.19
1095.131, 35620.43
1095.613, 35656.00
1096.095, 35718.00
1096.577, 35756.59
1097.059, 35761.86
1097.542, 35755.67
1098.024, 35757.78
1098.506, 35762.79
1098.988, 35760.18
1099.470, 35748.16
1099.952, 35760.82
1100.434, 35813.46
1100.916, 35856.51
1101.398, 35866.00
1101.880, 35863.92
1102.363, 35907.48
1102.845, 35974.59
1103.327, 36011.49
1103.809, 35985.95
1104.291, 35965.57
1104.773, 35960.25
1105.255, 35974.57
1105.737, 36025.47
1106.220, 36106.22
1106.702, 36126.86
1107.184, 36094.94
1107.666, 36073.02
1108.148, 36117.08
1108.630, 36159.77
1109.112, 36152.21
1109.594, 36123.96
1110.077, 36130.22
1110.559, 36175.98
1111.041, 36218.29
1111.523, 36253.54
1112.005, 36282.42
1112.487, 36290.15
1112.969, 36303.35
1113.451, 36362.95
1113.933, 36464.71
1114.416, 36517.45
1114.898, 36501.24
1115.380, 36480.79
1115.862, 36466.31
1116.344, 36470.82
1116.826, 36546.25
1117.308, 36645.28
1117.790, 36676.14
1118.272, 36595.77
1118.755, 36544.46
1119.237, 36558.95
1119.719, 36589.84
1120.201, 36617.61
1120.683, 36639.96
1121.165, 36643.49
1121.647, 36633.51
1122.129, 36630.78
1122.612, 36642.93
1123.094, 36666.05
1123.576, 36716.08
1124.058, 36764.05
1124.540, 36769.47
1125.022, 36732.73
1125.504, 36774.18
1125.986, 36895.17
1126.469, 36995.16
1126.951, 36975.83
1127.433, 36937.92
1127.915, 36960.27
1128.397, 37017.55
1128.879, 37027.09
1129.361, 36977.84
1129.843, 36939.86
1130.325, 36919.50
1130.807, 36932.51
1131.290, 37020.63
1131.772, 37134.64
1132.254, 37228.34
1132.736, 37296.14
1133.218, 37323.14
1133.700, 37293.39
1134.182, 37270.88
1134.664, 37279.18
1135.147, 37299.84
1135.629, 37295.23
1136.111, 37282.73
1136.593, 37296.54
1137.075, 37358.84
1137.557, 37400.83
1138.039, 37395.80
1138.521, 37401.44
1139.004, 37469.67
1139.486, 37566.83
1139.968, 37567.38
1140.450, 37497.32
1140.932, 37446.93
1141.414, 37485.49
1141.896, 37510.45
1142.378, 37469.52
1142.860, 37428.73
1143.343, 37463.17
1143.825, 37563.23
1144.307, 37609.11
1144.789, 37713.00
1145.271, 37827.59
1145.753, 37902.30
1146.235, 37939.25
1146.717, 37825.38
1147.199, 37906.26
1147.682, 37909.15
1148.164, 37908.79
1148.646, 38017.08
1149.128, 37925.15
1149.610, 38031.72
1150.092, 38059.05
1150.574, 38122.65
1151.056, 38107.72
1151.539, 38117.09
1152.021, 38204.97
1152.503, 38249.36
1152.985, 37981.77
1153.467, 37982.88
1153.949, 37993.59
1154.431, 38058.07
1154.913, 38125.82
1155.396, 38124.36
1155.878, 38016.75
1156.360, 37993.37
1156.842, 38078.48
1157.324, 38162.53
1157.806, 38189.64
1158.288, 38194.16
1158.770, 38237.70
1159.252, 38297.59
1159.734, 38331.50
1160.217, 38308.07
1160.699, 38296.54
1161.181, 38298.82
1161.663, 38314.73
1162.145, 38351.98
1162.627, 38399.84
1163.109, 38428.82
1163.591, 38445.57
1164.074, 38472.82
1164.556, 38547.15
1165.038, 38589.48
1165.520, 38582.08
1166.002, 38554.11
1166.484, 38521.41
1166.966, 38496.02
1167.448, 38538.48
1167.931, 38640.76
1168.413, 38700.96
1168.895, 38623.21
1169.377, 38556.65
1169.859, 38541.93
1170.341, 38564.82
1170.823, 38618.66
1171.305, 38691.59
1171.787, 38718.11
1172.270, 38686.68
1172.752, 38667.72
1173.234, 38730.34
1173.716, 38782.63
1174.198, 38769.61
1174.680, 38718.71
1175.162, 38720.04
1175.644, 38767.59
1176.126, 38820.31
1176.609, 38872.19
1177.091, 38905.66
1177.573, 38877.36
1178.055, 38854.42
1178.537, 38892.47
1179.019, 38982.04
1179.501, 39040.57
1179.983, 39069.34
1180.466, 39097.11
1180.948, 39141.21
1181.430, 39176.38
1181.912, 39181.20
1182.394, 39168.68
1182.876, 39148.19
1183.358, 39117.18
1183.840, 39120.36
1184.323, 39158.09
1184.805, 39200.39
1185.287, 39236.25
1185.769, 39263.05
1186.251, 39263.98
1186.733, 39260.76
1187.215, 39291.40
1187.697, 39369.83
1188.179, 39413.86
1188.661, 39419.07
1189.144, 39424.52
1189.626, 39480.86
1190.108, 39531.25
1190.590, 39501.84
1191.072, 39429.99
1191.554, 39421.04
1192.036, 39498.63
1192.518, 39544.38
1193.001, 39542.71
1193.483, 39543.86
1193.965, 39612.24
1194.447, 39692.21
1194.929, 39729.11
1195.411, 39724.66
1195.893, 39709.47
1196.375, 39678.80
1196.858, 39661.36
1197.340, 39661.77
1197.822, 39679.31
1198.304, 39729.89
1198.786, 39786.40
1199.268, 39815.04
1199.750, 39813.18
1200.232, 39822.21
1200.714, 39853.39
1201.197, 39851.07
1201.679, 39782.56
1202.161, 39726.75
1202.643, 39829.24
1203.125, 39982.63
1203.607, 40043.32
1204.089, 39975.11
1204.571, 39942.96
1205.053, 39960.12
1205.536, 39976.09
1206.018, 39961.96
1206.500, 39955.29
1206.982, 40037.46
1207.464, 40152.30
1207.946, 40211.17
1208.428, 40179.20
1208.910, 40159.44
1209.393, 40152.96
1209.875, 40158.13
1210.357, 40179.08
1210.839, 40205.17
1211.321, 40222.73
1211.803, 40233.06
1212.285, 40238.44
1212.767, 40235.15
1213.250, 40236.81
1213.732, 40244.25
1214.214, 40253.76
1214.696, 40263.54
1215.178, 40273.47
1215.660, 40272.99
1216.142, 40274.29
1216.624, 40306.02
1217.106, 40411.11
1217.589, 40464.81
1218.071, 40449.24
1218.553, 40441.66
1219.035, 40538.26
1219.517, 40657.11
1219.999, 40667.89
1220.481, 40603.12
1220.963, 40564.96
1221.446, 40580.17
1221.928, 40599.16
1222.410, 40619.65
1222.892, 40639.79
1223.374, 40653.38
1223.856, 40668.82
1224.338, 40715.89
1224.820, 40778.64
1225.302, 40773.33
1225.785, 40633.79
1226.267, 40602.37
1226.749, 40728.48
1227.231, 40877.29
1227.713, 40888.63
1228.195, 40851.21
1228.677, 40885.17
1229.159, 40982.06
1229.641, 41021.12
1230.124, 40971.83
1230.606, 40948.43
1231.088, 40975.24
1231.570, 41013.16
1232.052, 41021.36
1232.534, 41013.39
1233.016, 40990.64
1233.498, 40960.02
1233.981, 40988.68
1234.463, 41097.35
1234.945, 41173.79
1235.427, 41186.47
1235.909, 41181.30
1236.391, 41213.61
1236.873, 41254.68
1237.355, 41268.21
1237.838, 41252.26
1238.320, 41259.86
1238.802, 41295.78
1239.284, 41324.39
1239.766, 41336.04
1240.248, 41335.79
1240.730, 41311.56
1241.212, 41290.54
1241.694, 41306.95
1242.177, 41360.80
1242.659, 41399.20
1243.141, 41419.58
1243.623, 41457.12
1244.105, 41531.99
1244.587, 41602.07
1245.069, 41617.90
1245.551, 41614.26
1246.033, 41630.95
1246.516, 41667.74
1246.998, 41662.92
1247.480, 41615.92
1247.962, 41611.08
1248.444, 41705.10
1248.926, 41795.70
1249.408, 41794.91
1249.890, 41755.93
1250.373, 41717.03
1250.855, 41680.84
1251.337, 41741.93
1251.819, 41888.32
1252.301, 41970.95
1252.783, 41881.88
1253.265, 41792.25
1253.747, 41828.85
1254.229, 41895.17
1254.712, 41898.25
1255.194, 41844.87
1255.676, 41873.08
1256.158, 41969.73
1256.640, 42045.95
1257.122, 42047.21
1257.604, 42041.61
1258.086, 42058.28
1258.568, 42081.79
1259.051, 42099.82
1259.533, 42114.15
1260.015, 42133.28
1260.497, 42159.36
1260.979, 42203.05
1261.461, 42310.64
1261.943, 42374.24
1262.425, 42338.88
1262.908, 42286.62
1263.390, 42287.25
1263.872, 42324.41
1264.354, 42328.98
1264.836, 42490.15
1265.318, 42596.19
1265.800, 42662.34
1266.282, 42690.74
1266.765, 42568.36
1267.247, 42640.68
1267.729, 42634.97
1268.211, 42626.06
1268.693, 42725.80
1269.175, 42625.32
1269.657, 42723.34
1270.139, 42742.12
1270.621, 42797.16
1271.104, 42773.71
1271.586, 42774.49
1272.068, 42853.82
1272.550, 42889.65
1273.032, 42624.18
1273.514, 42782.88
1273.996, 42845.60
1274.478, 42727.64
1274.960, 42681.70
1275.443, 42731.21
1275.925, 42801.86
1276.407, 42833.09
1276.889, 42851.14
1277.371, 42884.07
1277.853, 42926.93
1278.335, 42964.64
1278.817, 42997.79
1279.300, 43019.11
1279.782, 43027.29
1280.264, 43037.17
1280.746, 43054.78
1281.228, 43083.92
1281.710, 43133.32
1282.192, 43194.30
1282.674, 43257.22
1283.156, 43323.93
1283.639, 43340.08
1284.121, 43303.16
1284.603, 43263.08
1285.085, 43235.32
1285.567, 43233.10
1286.049, 43284.94
1286.531, 43349.59
1287.013, 43369.64
1287.495, 43351.59
1287.978, 43336.04
1288.460, 43326.43
1288.942, 43327.36
1289.424, 43341.07
1289.906, 43368.15
1290.388, 43414.87
1290.870, 43463.37
1291.352, 43492.18
1291.835, 43504.01
1292.317, 43496.56
1292.799, 43475.50
1293.281, 43477.07
1293.763, 43548.91
1294.245, 43582.75
1294.727, 43544.57
1295.209, 43519.38
1295.692, 43658.20
1296.174, 43839.44
1296.656, 43847.45
1297.138, 43711.18
1297.620, 43657.15
1298.102, 43743.82
1298.584, 43786.43
1299.066, 43757.84
1299.548, 43719.38
1300.031, 43727.32
1300.513, 43756.10
1300.995, 43777.73
1301.477, 43800.87
1301.959, 43863.14
1302.441, 43972.93
1302.923, 44026.18
1303.405, 44010.01
1303.887, 43987.91
1304.370, 44007.04
1304.852, 44036.98
1305.334, 44066.43
1305.816, 44090.00
1306.298, 44097.84
1306.780, 44091.55
1307.262, 44083.20
##END=



