##NAMES=Mordenite
##RRUFFID=R061118
##IDEAL CHEMISTRY=(Na_2_,Ca,K_2_)_4_(Al_8_Si_40_)O_96_&#183;28H_2_O
##LOCALITY=Chipman's Brook, Nova Scotia, Canada
##OWNER=RRUFF
##SOURCE=Michael Scott
##DESCRIPTION=Water worn white pebbles
##STATUS=The identification of this mineral has been confirmed by X-ray diffraction and chemical analysis
##URL=rruff.info/R061118
##MEASURED CHEMISTRY=(Na_5.47_Ca_0.29_K_2.01_)_Σ=7.77_(Al_8.06_Si_39.94_)O_96_·28H_2_O; H_2_O estimated by difference
174.3429, 1830.276
174.8250, 1839.931
175.3071, 1834.326
175.7892, 1822.473
176.2713, 1819.252
176.7534, 1830.456
177.2356, 1847.842
177.7177, 1855.853
178.1998, 1852.099
178.6819, 1850.372
179.1640, 1857.731
179.6461, 1868.500
180.1283, 1872.188
180.6104, 1864.545
181.0925, 1853.139
181.5746, 1850.175
182.0567, 1855.536
182.5388, 1863.761
183.0210, 1875.160
183.5031, 1888.126
183.9852, 1900.935
184.4673, 1914.279
184.9494, 1924.293
185.4315, 1920.771
185.9137, 1902.943
186.3958, 1894.024
186.8779, 1909.169
187.3600, 1936.105
187.8421, 1953.063
188.3242, 1954.383
188.8064, 1948.425
189.2885, 1943.039
189.7706, 1938.031
190.2527, 1936.057
190.7348, 1941.753
191.2169, 1950.209
191.6991, 1951.453
192.1812, 1942.005
192.6633, 1931.220
193.1454, 1930.093
193.6275, 1936.884
194.1096, 1943.926
194.5918, 1949.546
195.0739, 1953.739
195.5560, 1956.220
196.0381, 1956.624
196.5202, 1956.391
197.0023, 1956.649
197.4845, 1957.310
197.9666, 1958.256
198.4487, 1960.963
198.9308, 1963.466
199.4129, 1961.087
199.8950, 1951.776
200.3772, 1944.260
200.8593, 1950.484
201.3414, 1964.618
201.8235, 1972.681
202.3056, 1964.301
202.7877, 1950.082
203.2699, 1946.512
203.7520, 1956.113
204.2341, 1966.348
204.7162, 1968.206
205.1983, 1964.388
205.6804, 1959.430
206.1626, 1953.726
206.6447, 1947.809
207.1268, 1941.691
207.6089, 1935.022
208.0910, 1930.532
208.5731, 1930.647
209.0553, 1933.974
209.5374, 1938.943
210.0195, 1948.593
210.5016, 1956.370
210.9837, 1951.466
211.4658, 1932.440
211.9480, 1918.942
212.4301, 1926.654
212.9122, 1943.724
213.3943, 1952.902
213.8764, 1950.132
214.3585, 1941.836
214.8407, 1931.424
215.3228, 1918.808
215.8049, 1911.874
216.2870, 1917.643
216.7691, 1928.817
217.2512, 1935.225
217.7334, 1934.605
218.2155, 1933.323
218.6976, 1938.836
219.1797, 1950.178
219.6618, 1955.432
220.1439, 1948.248
220.6261, 1934.790
221.1082, 1921.847
221.5903, 1908.975
222.0724, 1900.078
222.5545, 1899.602
223.0366, 1906.211
223.5188, 1912.733
224.0009, 1919.156
224.4830, 1922.562
224.9651, 1920.026
225.4472, 1911.571
225.9293, 1900.992
226.4115, 1886.141
226.8936, 1870.195
227.3757, 1864.812
227.8578, 1875.107
228.3399, 1891.087
228.8220, 1906.512
229.3041, 1920.824
229.7863, 1927.510
230.2684, 1918.467
230.7505, 1900.507
231.2326, 1888.477
231.7147, 1884.838
232.1968, 1884.620
232.6790, 1885.936
233.1611, 1887.773
233.6432, 1886.343
234.1253, 1877.261
234.6074, 1865.385
235.0895, 1858.066
235.5717, 1855.992
236.0538, 1856.119
236.5359, 1856.124
237.0180, 1856.796
237.5001, 1860.328
237.9822, 1871.676
238.4644, 1883.085
238.9465, 1884.106
239.4286, 1874.421
239.9107, 1866.602
240.3928, 1869.216
240.8749, 1878.285
241.3571, 1884.875
241.8392, 1889.540
242.3213, 1890.006
242.8034, 1880.743
243.2855, 1863.489
243.7676, 1852.035
244.2498, 1854.646
244.7319, 1865.006
245.2140, 1869.727
245.6961, 1866.531
246.1782, 1863.345
246.6603, 1865.878
247.1425, 1872.038
247.6246, 1874.537
248.1067, 1869.756
248.5888, 1862.538
249.0709, 1861.740
249.5530, 1868.908
250.0352, 1872.326
250.5173, 1863.362
250.9994, 1848.869
251.4815, 1840.210
251.9636, 1839.833
252.4457, 1846.245
252.9279, 1861.665
253.4100, 1886.764
253.8921, 1903.088
254.3742, 1902.557
254.8563, 1893.981
255.3384, 1886.521
255.8206, 1881.382
256.3027, 1876.705
256.7848, 1870.262
257.2669, 1862.168
257.7490, 1857.739
258.2311, 1862.678
258.7133, 1867.054
259.1954, 1861.756
259.6775, 1847.949
260.1596, 1834.665
260.6417, 1826.896
261.1238, 1825.227
261.6060, 1830.836
262.0881, 1850.660
262.5702, 1869.728
263.0523, 1882.930
263.5344, 1890.443
264.0165, 1892.229
264.4987, 1887.471
264.9808, 1878.471
265.4629, 1872.413
265.9450, 1867.930
266.4271, 1867.698
266.9092, 1877.500
267.3914, 1890.213
267.8735, 1895.286
268.3556, 1889.061
268.8377, 1877.431
269.3198, 1870.424
269.8019, 1871.482
270.2841, 1871.189
270.7662, 1865.473
271.2483, 1860.898
271.7304, 1866.084
272.2125, 1881.069
272.6946, 1894.645
273.1768, 1892.840
273.6589, 1869.072
274.1410, 1859.910
274.6231, 1876.091
275.1052, 1894.833
275.5873, 1906.742
276.0695, 1910.987
276.5516, 1908.875
277.0337, 1900.420
277.5158, 1886.020
277.9979, 1878.492
278.4800, 1883.847
278.9622, 1889.416
279.4443, 1892.270
279.9264, 1893.432
280.4085, 1894.349
280.8906, 1895.649
281.3727, 1898.074
281.8549, 1904.237
282.3370, 1916.690
282.8191, 1929.416
283.3012, 1943.239
283.7833, 1956.273
284.2654, 1968.810
284.7476, 1980.320
285.2297, 1986.734
285.7118, 1978.351
286.1939, 1943.867
286.6760, 1925.987
287.1581, 1941.407
287.6403, 1960.807
288.1224, 1966.878
288.6045, 1959.680
289.0866, 1951.259
289.5687, 1953.376
290.0508, 1966.487
290.5330, 1978.435
291.0151, 1990.229
291.4972, 1999.447
291.9793, 2003.982
292.4614, 2005.410
292.9435, 2006.996
293.4257, 2011.166
293.9078, 2016.564
294.3899, 2018.110
294.8720, 2012.901
295.3541, 2010.393
295.8362, 2014.190
296.3184, 2022.366
296.8005, 2034.456
297.2826, 2051.892
297.7647, 2068.073
298.2468, 2071.583
298.7289, 2060.830
299.2111, 2056.612
299.6932, 2071.497
300.1753, 2090.360
300.6574, 2098.426
301.1395, 2094.301
301.6216, 2088.878
302.1038, 2085.523
302.5859, 2077.178
303.0680, 2094.552
303.5501, 2105.526
304.0322, 2110.445
304.5143, 2091.169
304.9964, 2103.135
305.4785, 2102.581
305.9607, 2101.513
306.4428, 2117.877
306.9249, 2102.120
307.4070, 2118.207
307.8891, 2124.879
308.3712, 2124.204
308.8534, 2114.240
309.3355, 2108.023
309.8176, 2108.022
310.2997, 2109.653
310.7818, 2111.496
311.2639, 2113.040
311.7461, 2112.118
312.2282, 2107.069
312.7103, 2100.353
313.1924, 2098.100
313.6745, 2102.110
314.1566, 2105.630
314.6388, 2105.993
315.1209, 2105.724
315.6030, 2109.231
316.0851, 2117.293
316.5672, 2124.491
317.0493, 2124.092
317.5315, 2113.940
318.0136, 2103.910
318.4957, 2092.010
318.9778, 2081.969
319.4599, 2076.599
319.9420, 2075.252
320.4242, 2075.287
320.9063, 2074.861
321.3884, 2074.060
321.8705, 2073.831
322.3526, 2075.198
322.8347, 2075.980
323.3169, 2074.202
323.7990, 2072.197
324.2811, 2073.924
324.7632, 2080.977
325.2453, 2089.392
325.7274, 2090.485
326.2096, 2078.889
326.6917, 2071.844
327.1738, 2072.527
327.6559, 2075.869
328.1380, 2079.988
328.6201, 2083.971
329.1023, 2086.344
329.5844, 2085.559
330.0665, 2081.566
330.5486, 2076.081
331.0307, 2066.642
331.5128, 2058.824
331.9950, 2054.089
332.4771, 2052.572
332.9592, 2055.103
333.4413, 2064.008
333.9234, 2075.004
334.4055, 2079.004
334.8877, 2074.640
335.3698, 2069.420
335.8519, 2063.983
336.3340, 2060.456
336.8161, 2062.770
337.2982, 2073.037
337.7804, 2081.130
338.2625, 2075.545
338.7446, 2060.117
339.2267, 2053.295
339.7088, 2062.980
340.1909, 2074.596
340.6731, 2068.727
341.1552, 2047.614
341.6373, 2032.446
342.1194, 2031.966
342.6015, 2038.438
343.0836, 2045.487
343.5658, 2052.343
344.0479, 2054.615
344.5300, 2047.150
345.0121, 2032.536
345.4942, 2026.581
345.9763, 2038.517
346.4585, 2048.202
346.9406, 2045.787
347.4227, 2036.427
347.9048, 2029.538
348.3869, 2028.752
348.8690, 2031.302
349.3512, 2031.867
349.8333, 2013.653
350.3154, 2031.624
350.7975, 2043.195
351.2796, 2048.710
351.7617, 2030.031
352.2439, 2042.594
352.7260, 2042.637
353.2081, 2042.166
353.6902, 2059.125
354.1723, 2043.965
354.6544, 2060.648
355.1366, 2064.621
355.6187, 2074.411
356.1008, 2071.603
356.5829, 2072.686
357.0650, 2086.371
357.5471, 2093.078
358.0293, 2088.820
358.5114, 2098.980
358.9935, 2092.385
359.4756, 2110.367
359.9577, 2127.971
360.4398, 2137.279
360.9220, 2137.794
361.4041, 2133.973
361.8862, 2127.258
362.3683, 2118.586
362.8504, 2111.792
363.3326, 2105.143
363.8147, 2104.606
364.2968, 2119.881
364.7789, 2143.283
365.2610, 2160.392
365.7431, 2164.680
366.2253, 2164.302
366.7074, 2164.156
367.1895, 2164.951
367.6716, 2173.853
368.1537, 2197.741
368.6358, 2226.121
369.1180, 2237.497
369.6001, 2227.588
370.0822, 2222.199
370.5643, 2231.760
371.0464, 2247.970
371.5285, 2261.855
372.0107, 2271.863
372.4928, 2279.052
372.9749, 2283.285
373.4570, 2284.167
373.9391, 2292.355
374.4212, 2315.217
374.9034, 2336.240
375.3855, 2346.866
375.8676, 2351.778
376.3497, 2358.598
376.8318, 2370.833
377.3139, 2388.559
377.7961, 2413.765
378.2782, 2457.473
378.7603, 2487.019
379.2424, 2491.039
379.7245, 2490.836
380.2066, 2501.542
380.6888, 2522.940
381.1709, 2543.707
381.6530, 2551.923
382.1351, 2549.400
382.6172, 2556.384
383.0993, 2574.424
383.5815, 2600.329
384.0636, 2642.626
384.5457, 2687.821
385.0278, 2714.980
385.5099, 2712.497
385.9920, 2704.648
386.4742, 2725.072
386.9563, 2771.750
387.4384, 2802.173
387.9205, 2797.222
388.4026, 2782.773
388.8847, 2788.983
389.3669, 2814.860
389.8490, 2839.363
390.3311, 2855.530
390.8132, 2866.841
391.2953, 2874.881
391.7774, 2880.388
392.2596, 2891.427
392.7417, 2915.878
393.2238, 2949.912
393.7059, 2970.725
394.1880, 2971.823
394.6701, 2969.819
395.1523, 2968.115
395.6344, 2966.082
396.1165, 2964.280
396.5986, 2962.531
397.0807, 2956.609
397.5628, 2938.881
398.0450, 2902.349
398.5271, 2881.517
399.0092, 2888.123
399.4913, 2896.991
399.9734, 2899.810
400.4555, 2896.402
400.9377, 2888.307
401.4197, 2875.890
401.9019, 2860.743
402.3840, 2847.704
402.8661, 2839.160
403.3482, 2826.543
403.8303, 2804.778
404.3124, 2780.309
404.7946, 2756.694
405.2767, 2734.603
405.7588, 2714.447
406.2409, 2696.036
406.7230, 2679.662
407.2051, 2667.039
407.6873, 2659.731
408.1694, 2651.469
408.6515, 2637.472
409.1336, 2619.182
409.6157, 2600.161
410.0978, 2578.370
410.5800, 2558.903
411.0621, 2547.525
411.5442, 2540.934
412.0263, 2529.336
412.5084, 2508.726
412.9905, 2486.370
413.4727, 2473.391
413.9548, 2473.973
414.4369, 2472.629
414.9190, 2470.560
415.4011, 2465.556
415.8832, 2454.695
416.3654, 2439.473
416.8475, 2423.166
417.3296, 2406.981
417.8117, 2393.087
418.2938, 2390.998
418.7759, 2412.149
419.2581, 2426.355
419.7402, 2429.917
420.2223, 2426.299
420.7044, 2415.752
421.1865, 2399.573
421.6686, 2383.692
422.1508, 2371.901
422.6329, 2364.551
423.1150, 2367.458
423.5971, 2388.882
424.0792, 2404.412
424.5613, 2394.382
425.0435, 2371.472
425.5256, 2354.012
426.0077, 2345.157
426.4898, 2344.575
426.9719, 2356.447
427.4540, 2377.220
427.9362, 2393.603
428.4183, 2401.784
428.9004, 2405.471
429.3825, 2408.920
429.8646, 2412.264
430.3467, 2414.029
430.8289, 2410.192
431.3110, 2408.188
431.7931, 2415.331
432.2752, 2428.569
432.7573, 2438.524
433.2394, 2439.833
433.7216, 2435.958
434.2037, 2436.835
434.6858, 2447.516
435.1679, 2454.516
435.6500, 2453.854
436.1321, 2452.472
436.6143, 2456.728
437.0964, 2465.589
437.5785, 2472.004
438.0606, 2469.013
438.5427, 2458.932
439.0248, 2454.851
439.5070, 2461.619
439.9891, 2483.799
440.4712, 2488.405
440.9533, 2491.221
441.4354, 2492.344
441.9175, 2486.700
442.3997, 2489.794
442.8818, 2468.300
443.3639, 2455.042
443.8460, 2444.291
444.3281, 2439.231
444.8102, 2434.759
445.2924, 2427.141
445.7745, 2416.122
446.2566, 2402.647
446.7387, 2383.645
447.2208, 2365.617
447.7029, 2348.656
448.1851, 2335.144
448.6672, 2330.795
449.1493, 2337.355
449.6314, 2347.375
450.1135, 2348.997
450.5956, 2338.040
451.0778, 2333.753
451.5599, 2340.449
452.0420, 2349.145
452.5241, 2358.667
453.0062, 2367.248
453.4883, 2371.820
453.9705, 2370.194
454.4526, 2366.038
454.9347, 2366.181
455.4168, 2371.082
455.8989, 2376.804
456.3810, 2383.864
456.8632, 2390.071
457.3453, 2392.825
457.8274, 2392.581
458.3095, 2393.599
458.7916, 2397.042
459.2737, 2402.906
459.7559, 2410.415
460.2380, 2419.883
460.7201, 2434.861
461.2022, 2458.359
461.6843, 2486.558
462.1664, 2509.846
462.6486, 2531.096
463.1307, 2542.060
463.6128, 2529.890
464.0949, 2515.889
464.5770, 2516.199
465.0591, 2531.623
465.5413, 2556.927
466.0234, 2590.529
466.5055, 2628.291
466.9876, 2646.399
467.4697, 2629.465
467.9518, 2620.098
468.4340, 2636.941
468.9161, 2657.051
469.3982, 2658.582
469.8803, 2639.715
470.3624, 2620.895
470.8445, 2619.148
471.3267, 2629.698
471.8088, 2640.199
472.2909, 2651.777
472.7730, 2654.538
473.2551, 2638.281
473.7372, 2610.207
474.2194, 2591.240
474.7015, 2589.825
475.1836, 2581.367
475.6657, 2548.787
476.1478, 2507.187
476.6299, 2478.351
477.1121, 2465.018
477.5942, 2453.247
478.0763, 2429.871
478.5584, 2395.128
479.0405, 2364.062
479.5226, 2338.306
480.0048, 2314.170
480.4869, 2294.351
480.9690, 2274.144
481.4511, 2246.438
481.9332, 2210.185
482.4153, 2175.533
482.8975, 2154.543
483.3796, 2146.285
483.8617, 2136.928
484.3438, 2127.429
484.8259, 2114.199
485.3080, 2091.750
485.7902, 2065.107
486.2723, 2042.263
486.7544, 2026.116
487.2365, 2010.080
487.7186, 1986.045
488.2007, 1960.104
488.6829, 1948.388
489.1650, 1954.307
489.6471, 1957.272
490.1292, 1934.650
490.6113, 1885.414
491.0934, 1858.568
491.5756, 1871.272
492.0577, 1882.408
492.5398, 1882.730
493.0219, 1875.234
493.5040, 1861.765
493.9861, 1843.822
494.4683, 1826.782
494.9504, 1818.470
495.4325, 1819.185
495.9146, 1816.120
496.3967, 1809.022
496.8788, 1798.396
497.3610, 1782.286
497.8431, 1763.771
498.3252, 1746.474
498.8073, 1730.012
499.2894, 1718.639
499.7715, 1718.914
500.2536, 1726.166
500.7357, 1729.671
501.2179, 1727.518
501.7000, 1721.365
502.1821, 1711.288
502.6642, 1697.704
503.1463, 1689.790
503.6284, 1690.411
504.1106, 1692.439
504.5927, 1695.893
505.0748, 1698.903
505.5569, 1699.992
506.0390, 1698.569
506.5211, 1693.725
507.0033, 1682.003
507.4854, 1663.868
507.9675, 1659.202
508.4496, 1678.198
508.9317, 1693.138
509.4138, 1689.599
509.8960, 1678.358
510.3781, 1671.357
510.8602, 1671.207
511.3423, 1672.779
511.8244, 1674.636
512.3066, 1675.265
512.7887, 1669.691
513.2708, 1657.204
513.7529, 1647.003
514.2350, 1646.461
514.7172, 1653.544
515.1993, 1656.572
515.6814, 1654.555
516.1635, 1650.381
516.6456, 1641.943
517.1277, 1633.141
517.6099, 1626.871
518.0920, 1623.875
518.5741, 1624.840
519.0562, 1631.932
519.5383, 1642.854
520.0204, 1643.873
520.5026, 1629.105
520.9847, 1619.016
521.4668, 1610.266
521.9489, 1624.600
522.4310, 1632.534
522.9131, 1634.412
523.3953, 1612.095
523.8774, 1621.021
524.3595, 1617.427
524.8416, 1613.318
525.3237, 1626.641
525.8058, 1607.844
526.2880, 1620.890
526.7701, 1621.225
527.2522, 1627.378
527.7343, 1620.933
528.2164, 1618.379
528.6985, 1628.427
529.1807, 1631.497
529.6628, 1618.954
530.1449, 1621.565
530.6270, 1621.161
531.1091, 1612.989
531.5912, 1601.639
532.0734, 1595.952
532.5555, 1596.014
533.0376, 1602.030
533.5197, 1620.482
534.0018, 1636.900
534.4839, 1637.574
534.9661, 1625.682
535.4482, 1614.518
535.9303, 1605.053
536.4124, 1599.806
536.8945, 1603.803
537.3766, 1613.253
537.8588, 1619.577
538.3409, 1620.060
538.8230, 1616.432
539.3051, 1609.801
539.7872, 1598.835
540.2693, 1594.896
540.7515, 1604.848
541.2336, 1613.948
541.7157, 1620.239
542.1978, 1622.844
542.6799, 1619.732
543.1620, 1610.516
543.6442, 1600.673
544.1263, 1596.554
544.6084, 1596.647
545.0905, 1593.700
545.5726, 1586.619
546.0547, 1579.198
546.5369, 1571.767
547.0190, 1566.319
547.5011, 1568.532
547.9832, 1584.231
548.4653, 1594.822
548.9474, 1590.587
549.4296, 1582.076
549.9116, 1582.477
550.3937, 1589.891
550.8759, 1588.698
551.3580, 1566.150
551.8401, 1532.778
552.3222, 1527.560
552.8043, 1567.020
553.2864, 1593.124
553.7686, 1584.297
554.2507, 1570.165
554.7328, 1567.913
555.2149, 1575.577
555.6970, 1581.474
556.1791, 1579.887
556.6613, 1574.810
557.1434, 1569.436
557.6255, 1564.118
558.1076, 1560.639
558.5897, 1559.763
559.0718, 1559.443
559.5540, 1556.848
560.0361, 1551.257
560.5182, 1549.148
561.0003, 1552.927
561.4824, 1556.846
561.9645, 1560.288
562.4467, 1562.364
562.9288, 1561.231
563.4109, 1556.783
563.8930, 1552.434
564.3751, 1553.148
564.8572, 1557.644
565.3394, 1557.534
565.8215, 1552.304
566.3036, 1543.729
566.7857, 1529.134
567.2678, 1513.726
567.7499, 1506.463
568.2321, 1508.184
568.7142, 1514.600
569.1963, 1530.297
569.6784, 1545.821
570.1605, 1553.791
570.6426, 1553.897
571.1248, 1545.920
571.6069, 1529.068
572.0890, 1510.181
572.5711, 1505.332
573.0532, 1519.513
573.5353, 1531.443
574.0175, 1542.835
574.4996, 1548.567
574.9817, 1543.300
575.4638, 1531.219
575.9459, 1521.030
576.4280, 1515.726
576.9102, 1512.233
577.3923, 1506.945
577.8744, 1501.725
578.3565, 1501.553
578.8386, 1507.289
579.3207, 1515.318
579.8029, 1523.847
580.2850, 1531.959
580.7671, 1532.552
581.2492, 1514.508
581.7313, 1503.340
582.2134, 1506.286
582.6956, 1512.532
583.1777, 1513.389
583.6598, 1509.155
584.1419, 1505.746
584.6240, 1507.202
585.1061, 1511.453
585.5883, 1514.406
586.0704, 1516.125
586.5525, 1520.501
587.0346, 1530.554
587.5167, 1539.287
587.9988, 1537.617
588.4810, 1524.981
588.9631, 1516.402
589.4452, 1515.185
589.9273, 1514.717
590.4094, 1513.286
590.8915, 1510.678
591.3737, 1505.330
591.8558, 1497.661
592.3379, 1492.344
592.8200, 1495.169
593.3021, 1504.583
593.7842, 1510.322
594.2664, 1512.252
594.7485, 1510.616
595.2306, 1501.048
595.7127, 1491.336
596.1948, 1491.672
596.6769, 1502.626
597.1591, 1511.771
597.6412, 1518.416
598.1233, 1519.558
598.6054, 1507.385
599.0875, 1488.337
599.5696, 1478.236
600.0518, 1482.866
600.5339, 1493.498
601.0160, 1497.687
601.4981, 1494.523
601.9802, 1494.266
602.4623, 1499.401
602.9445, 1503.696
603.4266, 1506.723
603.9087, 1506.896
604.3908, 1500.463
604.8729, 1486.243
605.3550, 1475.034
605.8372, 1476.294
606.3193, 1481.793
606.8014, 1478.860
607.2835, 1469.076
607.7656, 1464.775
608.2477, 1472.611
608.7299, 1485.126
609.2120, 1487.737
609.6941, 1475.861
610.1762, 1468.538
610.6583, 1468.586
611.1404, 1470.222
611.6226, 1472.658
612.1047, 1475.068
612.5868, 1476.664
613.0689, 1477.305
613.5510, 1476.347
614.0331, 1471.452
614.5153, 1465.097
614.9974, 1463.221
615.4795, 1466.028
615.9616, 1468.842
616.4437, 1469.273
616.9258, 1467.603
617.4080, 1464.158
617.8901, 1455.747
618.3722, 1452.579
618.8543, 1462.133
619.3364, 1468.885
619.8185, 1459.832
620.3007, 1444.210
620.7828, 1439.644
621.2649, 1453.457
621.7470, 1471.017
622.2291, 1477.536
622.7112, 1475.520
623.1934, 1472.735
623.6755, 1469.857
624.1576, 1466.233
624.6397, 1460.465
625.1218, 1454.652
625.6039, 1454.531
626.0861, 1463.603
626.5682, 1472.093
627.0503, 1484.207
627.5324, 1491.548
628.0145, 1484.421
628.4966, 1469.766
628.9788, 1462.561
629.4609, 1469.499
629.9430, 1479.225
630.4251, 1476.871
630.9072, 1465.172
631.3893, 1456.853
631.8715, 1453.068
632.3536, 1453.387
632.8357, 1459.837
633.3178, 1468.735
633.7999, 1468.904
634.2820, 1453.769
634.7642, 1444.051
635.2463, 1447.056
635.7284, 1450.243
636.2105, 1443.561
636.6926, 1431.413
637.1747, 1424.305
637.6569, 1426.805
638.1390, 1433.039
638.6211, 1437.230
639.1032, 1439.050
639.5853, 1433.744
640.0674, 1418.393
640.5496, 1411.711
641.0317, 1429.893
641.5138, 1460.482
641.9959, 1469.451
642.4780, 1446.088
642.9601, 1428.750
643.4423, 1421.060
643.9244, 1419.319
644.4065, 1425.438
644.8886, 1434.849
645.3707, 1439.360
645.8528, 1435.666
646.3350, 1428.854
646.8171, 1424.123
647.2992, 1421.437
647.7813, 1421.863
648.2634, 1426.362
648.7455, 1427.420
649.2277, 1419.974
649.7098, 1407.534
650.1919, 1396.747
650.6740, 1385.508
651.1561, 1382.123
651.6382, 1394.165
652.1204, 1407.017
652.6025, 1412.039
653.0846, 1412.819
653.5667, 1418.180
654.0488, 1430.762
654.5309, 1439.533
655.0131, 1428.370
655.4952, 1403.459
655.9773, 1386.819
656.4594, 1379.095
656.9415, 1381.399
657.4236, 1397.745
657.9058, 1418.994
658.3879, 1429.648
658.8700, 1426.792
659.3521, 1422.558
659.8342, 1418.027
660.3163, 1410.924
660.7985, 1396.180
661.2806, 1380.210
661.7627, 1371.927
662.2448, 1373.219
662.7269, 1378.283
663.2090, 1383.904
663.6912, 1389.134
664.1733, 1392.038
664.6554, 1392.569
665.1375, 1389.521
665.6196, 1381.064
666.1017, 1373.344
666.5839, 1375.530
667.0660, 1389.679
667.5481, 1397.184
668.0302, 1392.899
668.5123, 1388.888
668.9944, 1389.533
669.4766, 1390.767
669.9587, 1386.638
670.4408, 1377.654
670.9229, 1372.235
671.4050, 1379.139
671.8871, 1389.705
672.3693, 1388.756
672.8514, 1379.682
673.3335, 1380.197
673.8156, 1395.854
674.2977, 1410.184
674.7798, 1405.167
675.2620, 1382.605
675.7441, 1370.787
676.2262, 1377.812
676.7083, 1383.385
677.1904, 1383.750
677.6725, 1383.090
678.1547, 1384.136
678.6368, 1386.790
679.1189, 1390.057
679.6010, 1394.996
680.0831, 1397.944
680.5652, 1393.492
681.0474, 1385.307
681.5295, 1381.016
682.0116, 1381.625
682.4937, 1383.374
682.9758, 1383.462
683.4579, 1382.969
683.9401, 1386.492
684.4222, 1398.348
684.9043, 1401.273
685.3864, 1385.101
685.8685, 1370.014
686.3506, 1367.653
686.8328, 1373.264
687.3149, 1377.636
687.7970, 1378.935
688.2791, 1379.464
688.7612, 1381.238
689.2433, 1382.142
689.7255, 1379.757
690.2076, 1374.376
690.6897, 1365.721
691.1718, 1353.555
691.6539, 1344.473
692.1360, 1352.851
692.6182, 1379.727
693.1003, 1392.326
693.5824, 1385.764
694.0645, 1377.263
694.5466, 1373.346
695.0287, 1372.468
695.5109, 1373.223
695.9930, 1376.353
696.4751, 1375.410
696.9572, 1364.064
697.4393, 1354.043
697.9214, 1350.985
698.4036, 1353.501
698.8857, 1361.603
699.3678, 1373.938
699.8499, 1383.043
700.3320, 1379.401
700.8141, 1369.487
701.2963, 1373.695
701.7784, 1391.612
702.2605, 1399.725
702.7426, 1390.041
703.2247, 1373.425
703.7068, 1358.161
704.1890, 1344.656
704.6711, 1342.818
705.1532, 1367.741
705.6353, 1383.510
706.1174, 1377.859
706.5995, 1368.592
707.0817, 1370.349
707.5638, 1380.335
708.0459, 1386.081
708.5280, 1381.205
709.0101, 1372.945
709.4922, 1365.990
709.9744, 1361.369
710.4565, 1363.297
710.9386, 1371.301
711.4207, 1376.813
711.9028, 1374.487
712.3849, 1367.180
712.8671, 1361.197
713.3492, 1356.247
713.8313, 1353.760
714.3134, 1355.829
714.7955, 1357.466
715.2776, 1356.014
715.7598, 1353.132
716.2419, 1350.524
716.7240, 1348.177
717.2061, 1347.745
717.6882, 1353.866
718.1703, 1358.304
718.6525, 1351.567
719.1346, 1339.458
719.6167, 1333.806
720.0988, 1337.557
720.5809, 1343.928
721.0630, 1346.501
721.5452, 1346.140
722.0273, 1345.831
722.5094, 1345.519
722.9915, 1346.395
723.4736, 1349.816
723.9557, 1352.080
724.4379, 1349.156
724.9200, 1341.402
725.4021, 1334.189
725.8842, 1325.967
726.3663, 1320.418
726.8484, 1318.671
727.3306, 1319.281
727.8127, 1322.373
728.2948, 1326.822
728.7769, 1331.156
729.2590, 1335.921
729.7411, 1335.822
730.2233, 1318.298
730.7054, 1295.003
731.1875, 1292.620
731.6696, 1310.565
732.1517, 1326.716
732.6339, 1329.848
733.1160, 1325.166
733.5981, 1321.125
734.0802, 1317.414
734.5623, 1316.635
735.0444, 1320.484
735.5266, 1324.274
736.0087, 1328.533
736.4908, 1330.392
736.9729, 1325.298
737.4550, 1313.184
737.9371, 1303.285
738.4193, 1295.225
738.9014, 1292.717
739.3835, 1303.067
739.8656, 1317.186
740.3477, 1322.398
740.8298, 1318.288
741.3120, 1314.221
741.7941, 1316.719
742.2762, 1322.899
742.7583, 1328.485
743.2404, 1333.304
743.7225, 1335.974
744.2047, 1336.221
744.6868, 1334.624
745.1689, 1330.867
745.6510, 1326.359
746.1331, 1325.314
746.6152, 1329.386
747.0973, 1333.279
747.5794, 1338.257
748.0615, 1341.620
748.5436, 1344.561
749.0258, 1344.285
749.5079, 1334.672
749.9900, 1314.332
750.4721, 1298.307
750.9542, 1294.063
751.4363, 1296.715
751.9185, 1307.259
752.4006, 1320.079
752.8827, 1322.809
753.3648, 1313.644
753.8469, 1304.128
754.3290, 1305.055
754.8112, 1312.545
755.2933, 1314.461
755.7754, 1310.588
756.2575, 1305.385
756.7396, 1298.333
757.2217, 1294.521
757.7039, 1300.027
758.1860, 1311.302
758.6681, 1314.035
759.1502, 1295.944
759.6323, 1289.371
760.1144, 1308.839
760.5966, 1324.853
761.0787, 1315.951
761.5608, 1296.430
762.0429, 1292.287
762.5250, 1310.234
763.0071, 1324.949
763.4893, 1314.905
763.9714, 1298.537
764.4535, 1298.387
764.9356, 1308.832
765.4177, 1312.600
765.8998, 1305.597
766.3820, 1299.265
766.8641, 1306.282
767.3462, 1321.249
767.8283, 1320.394
768.3104, 1301.087
768.7925, 1290.758
769.2747, 1297.441
769.7568, 1307.124
770.2389, 1309.780
770.7210, 1306.867
771.2031, 1303.870
771.6852, 1299.592
772.1674, 1297.433
772.6495, 1298.255
773.1316, 1300.443
773.6137, 1304.110
774.0958, 1308.233
774.5779, 1311.930
775.0601, 1314.977
775.5422, 1315.536
776.0243, 1310.114
776.5064, 1303.540
776.9885, 1299.086
777.4706, 1292.221
777.9528, 1307.320
778.4349, 1316.018
778.9170, 1318.661
779.3991, 1297.109
779.8812, 1306.799
780.3633, 1303.969
780.8455, 1300.625
781.3276, 1314.713
781.8097, 1296.680
782.2918, 1310.491
782.7739, 1311.591
783.2560, 1318.508
783.7382, 1312.828
784.2203, 1311.038
784.7024, 1321.850
785.1845, 1325.685
785.6666, 1318.554
786.1487, 1307.081
786.6309, 1310.655
787.1130, 1307.403
787.5951, 1296.516
788.0772, 1289.025
788.5593, 1290.082
789.0414, 1296.622
789.5236, 1312.673
790.0057, 1329.785
790.4878, 1330.729
790.9699, 1315.858
791.4520, 1302.193
791.9341, 1301.242
792.4163, 1308.656
792.8984, 1318.579
793.3805, 1330.340
793.8626, 1336.809
794.3447, 1336.865
794.8268, 1335.165
795.3090, 1333.378
795.7911, 1332.756
796.2732, 1336.264
796.7553, 1345.660
797.2374, 1349.377
797.7195, 1344.893
798.2017, 1338.243
798.6838, 1325.179
799.1659, 1315.039
799.6480, 1316.568
800.1301, 1328.856
800.6122, 1344.494
801.0944, 1368.041
801.5765, 1385.483
802.0586, 1385.369
802.5407, 1380.223
803.0228, 1383.880
803.5049, 1393.566
803.9871, 1397.425
804.4692, 1390.211
804.9513, 1380.796
805.4334, 1378.402
805.9155, 1380.900
806.3976, 1384.814
806.8798, 1389.346
807.3619, 1389.280
807.8440, 1382.656
808.3261, 1376.628
808.8082, 1379.515
809.2903, 1389.644
809.7725, 1395.262
810.2546, 1395.940
810.7367, 1393.060
811.2188, 1382.616
811.7009, 1375.843
812.1830, 1384.658
812.6652, 1402.107
813.1473, 1406.997
813.6294, 1391.977
814.1115, 1383.657
814.5936, 1391.013
815.0757, 1397.910
815.5579, 1398.131
816.0400, 1392.998
816.5221, 1383.337
817.0042, 1369.952
817.4863, 1357.218
817.9684, 1344.422
818.4506, 1336.211
818.9327, 1338.611
819.4148, 1347.110
819.8969, 1357.865
820.3790, 1367.958
820.8611, 1368.820
821.3433, 1354.825
821.8254, 1335.012
822.3075, 1323.573
822.7896, 1318.988
823.2717, 1312.222
823.7538, 1302.775
824.2360, 1297.069
824.7181, 1298.680
825.2002, 1300.092
825.6823, 1290.022
826.1644, 1269.157
826.6465, 1264.184
827.1287, 1286.630
827.6108, 1299.042
828.0929, 1291.303
828.5750, 1276.398
829.0571, 1259.008
829.5392, 1241.842
830.0214, 1232.422
830.5035, 1233.628
830.9856, 1235.940
831.4677, 1240.285
831.9498, 1242.456
832.4319, 1238.163
832.9141, 1231.247
833.3962, 1226.969
833.8783, 1226.184
834.3604, 1226.126
834.8425, 1224.389
835.3246, 1223.583
835.8068, 1230.555
836.2889, 1238.239
836.7710, 1231.092
837.2531, 1210.867
837.7352, 1194.445
838.2173, 1191.216
838.6995, 1196.198
839.1816, 1204.027
839.6637, 1213.758
840.1458, 1220.881
840.6279, 1225.223
841.1100, 1226.175
841.5922, 1223.322
842.0743, 1218.041
842.5564, 1211.527
843.0385, 1203.968
843.5206, 1196.157
844.0027, 1185.605
844.4849, 1182.337
844.9670, 1192.848
845.4491, 1203.296
845.9312, 1203.728
846.4133, 1198.394
846.8954, 1198.030
847.3776, 1206.043
847.8597, 1206.877
848.3418, 1190.073
848.8239, 1176.678
849.3060, 1178.000
849.7881, 1184.798
850.2703, 1186.870
850.7524, 1184.136
851.2345, 1183.404
851.7166, 1188.768
852.1987, 1194.377
852.6808, 1198.109
853.1630, 1198.910
853.6451, 1192.419
854.1272, 1182.264
854.6093, 1179.030
855.0914, 1186.534
855.5735, 1194.399
856.0557, 1189.817
856.5378, 1179.100
857.0199, 1176.259
857.5020, 1179.552
857.9841, 1181.896
858.4662, 1181.577
858.9484, 1177.873
859.4305, 1169.623
859.9126, 1159.649
860.3947, 1156.507
860.8768, 1160.938
861.3589, 1157.900
861.8411, 1143.219
862.3232, 1136.665
862.8053, 1150.434
863.2874, 1169.442
863.7695, 1171.539
864.2516, 1156.042
864.7338, 1155.360
865.2159, 1182.640
865.6980, 1202.802
866.1801, 1210.885
866.6622, 1210.682
867.1443, 1197.017
867.6265, 1178.196
868.1086, 1174.048
868.5907, 1191.971
869.0728, 1203.880
869.5549, 1202.336
870.0370, 1195.423
870.5192, 1182.521
871.0013, 1169.407
871.4834, 1162.802
871.9655, 1162.798
872.4476, 1165.264
872.9297, 1170.838
873.4119, 1173.464
873.8940, 1166.976
874.3761, 1156.276
874.8582, 1143.546
875.3403, 1132.446
875.8224, 1131.747
876.3046, 1144.093
876.7867, 1160.337
877.2688, 1174.857
877.7509, 1184.877
878.2330, 1181.995
878.7151, 1169.529
879.1973, 1159.772
879.6794, 1155.028
880.1615, 1151.259
880.6436, 1145.559
881.1257, 1140.713
881.6078, 1144.350
882.0900, 1156.154
882.5721, 1158.156
883.0542, 1148.236
883.5363, 1142.685
884.0184, 1147.839
884.5005, 1157.221
884.9827, 1165.536
885.4648, 1171.765
885.9469, 1166.239
886.4290, 1138.650
886.9111, 1127.017
887.3932, 1145.021
887.8754, 1163.003
888.3575, 1166.631
888.8396, 1160.514
889.3217, 1150.344
889.8038, 1134.807
890.2859, 1125.360
890.7681, 1124.957
891.2502, 1127.112
891.7323, 1137.061
892.2144, 1143.119
892.6965, 1129.366
893.1786, 1105.317
893.6608, 1097.465
894.1429, 1115.459
894.6250, 1134.496
895.1071, 1151.651
895.5892, 1160.249
896.0714, 1145.101
896.5535, 1124.667
897.0356, 1130.066
897.5177, 1159.212
897.9998, 1175.023
898.4819, 1152.096
898.9641, 1123.525
899.4462, 1118.088
899.9283, 1123.630
900.4104, 1124.224
900.8925, 1120.942
901.3746, 1122.859
901.8568, 1132.288
902.3389, 1138.510
902.8210, 1127.341
903.3031, 1110.909
903.7852, 1113.328
904.2673, 1129.384
904.7495, 1144.762
905.2316, 1156.187
905.7137, 1155.915
906.1958, 1138.859
906.6779, 1119.035
907.1600, 1122.290
907.6422, 1144.011
908.1243, 1147.249
908.6064, 1131.812
909.0885, 1118.391
909.5706, 1111.897
910.0527, 1112.160
910.5349, 1120.839
911.0170, 1132.902
911.4991, 1131.533
911.9812, 1112.841
912.4633, 1103.514
912.9454, 1106.694
913.4276, 1111.307
913.9097, 1113.670
914.3918, 1115.226
914.8739, 1118.227
915.3560, 1122.194
915.8381, 1121.088
916.3203, 1109.052
916.8024, 1103.655
917.2845, 1108.709
917.7666, 1117.110
918.2487, 1130.609
918.7308, 1142.740
919.2130, 1141.579
919.6951, 1125.579
920.1772, 1117.112
920.6593, 1127.073
921.1414, 1131.528
921.6235, 1119.597
922.1057, 1106.229
922.5878, 1100.243
923.0699, 1100.946
923.5520, 1107.540
924.0341, 1121.832
924.5162, 1128.802
924.9984, 1111.588
925.4805, 1100.767
925.9626, 1122.162
926.4447, 1150.003
926.9268, 1154.986
927.4089, 1140.514
927.8911, 1127.496
928.3732, 1122.571
928.8553, 1123.141
929.3374, 1133.090
929.8195, 1142.771
930.3016, 1139.089
930.7838, 1131.325
931.2659, 1139.756
931.7480, 1162.891
932.2301, 1174.567
932.7122, 1156.367
933.1943, 1131.531
933.6765, 1121.133
934.1586, 1118.976
934.6407, 1118.984
935.1228, 1119.030
935.6049, 1113.622
936.0870, 1102.426
936.5692, 1096.540
937.0513, 1108.565
937.5334, 1124.513
938.0155, 1119.872
938.4976, 1102.768
938.9797, 1093.822
939.4619, 1093.668
939.9440, 1092.256
940.4261, 1085.565
940.9082, 1080.992
941.3903, 1088.109
941.8724, 1102.236
942.3546, 1112.662
942.8367, 1118.977
943.3188, 1116.692
943.8009, 1105.842
944.2830, 1097.374
944.7651, 1097.102
945.2472, 1102.869
945.7293, 1112.981
946.2114, 1126.297
946.6935, 1135.934
947.1757, 1141.939
947.6578, 1138.461
948.1399, 1123.675
948.6220, 1104.660
949.1041, 1084.575
949.5862, 1068.303
950.0684, 1068.130
950.5505, 1084.892
951.0326, 1092.019
951.5147, 1086.864
951.9968, 1089.190
952.4789, 1107.540
952.9611, 1121.657
953.4432, 1113.505
953.9253, 1091.461
954.4074, 1079.895
954.8895, 1081.191
955.3716, 1081.312
955.8538, 1078.310
956.3359, 1080.268
956.8180, 1092.508
957.3001, 1105.396
957.7822, 1109.847
958.2643, 1107.508
958.7465, 1105.972
959.2286, 1107.988
959.7107, 1103.072
960.1928, 1083.892
960.6749, 1071.487
961.1570, 1079.774
961.6392, 1090.683
962.1213, 1079.709
962.6034, 1052.025
963.0855, 1049.074
963.5676, 1098.542
964.0497, 1122.834
964.5319, 1101.342
965.0140, 1079.696
965.4961, 1077.730
965.9782, 1083.218
966.4603, 1079.902
966.9424, 1068.810
967.4246, 1068.228
967.9067, 1087.867
968.3888, 1103.594
968.8709, 1117.047
969.3530, 1122.544
969.8351, 1114.409
970.3173, 1098.639
970.7994, 1079.590
971.2815, 1057.961
971.7636, 1046.787
972.2457, 1052.852
972.7278, 1061.624
973.2100, 1077.113
973.6921, 1088.036
974.1742, 1082.594
974.6563, 1071.309
975.1384, 1071.302
975.6205, 1083.923
976.1027, 1092.142
976.5848, 1089.066
977.0669, 1086.472
977.5490, 1087.811
978.0311, 1090.116
978.5132, 1092.396
978.9954, 1093.858
979.4775, 1092.898
979.9596, 1089.311
980.4417, 1086.939
980.9238, 1086.214
981.4059, 1087.651
981.8881, 1095.207
982.3702, 1101.347
982.8523, 1099.072
983.3344, 1091.899
983.8165, 1086.510
984.2986, 1084.046
984.7808, 1082.430
985.2629, 1081.333
985.7450, 1080.512
986.2271, 1078.973
986.7092, 1078.494
987.1913, 1082.217
987.6735, 1087.523
988.1556, 1089.721
988.6377, 1087.874
989.1198, 1082.400
989.6019, 1065.560
990.0840, 1055.141
990.5662, 1064.952
991.0483, 1079.933
991.5304, 1087.861
992.0125, 1089.983
992.4946, 1091.089
992.9767, 1092.254
993.4589, 1092.281
993.9410, 1088.831
994.4231, 1086.442
994.9052, 1088.234
995.3873, 1091.443
995.8694, 1094.971
996.3516, 1097.406
996.8337, 1096.104
997.3158, 1090.421
997.7979, 1084.061
998.2800, 1077.315
998.7621, 1071.993
999.2443, 1068.120
999.7264, 1066.874
1000.208, 1071.059
1000.691, 1078.210
1001.173, 1083.609
1001.655, 1086.167
1002.137, 1086.455
1002.619, 1081.332
1003.101, 1078.240
1003.583, 1084.851
1004.065, 1092.029
1004.548, 1088.481
1005.030, 1079.497
1005.512, 1078.798
1005.994, 1089.326
1006.476, 1095.721
1006.958, 1085.420
1007.440, 1076.687
1007.922, 1080.529
1008.404, 1088.587
1008.887, 1094.417
1009.369, 1098.194
1009.851, 1103.198
1010.333, 1109.891
1010.815, 1109.813
1011.297, 1089.787
1011.779, 1074.805
1012.261, 1082.728
1012.744, 1094.978
1013.226, 1094.265
1013.708, 1086.672
1014.190, 1086.126
1014.672, 1094.900
1015.154, 1101.460
1015.636, 1097.252
1016.118, 1095.578
1016.600, 1106.301
1017.083, 1117.472
1017.565, 1121.718
1018.047, 1119.032
1018.529, 1107.257
1019.011, 1087.289
1019.493, 1075.342
1019.975, 1084.991
1020.457, 1091.931
1020.940, 1081.341
1021.422, 1072.022
1021.904, 1080.504
1022.386, 1096.861
1022.868, 1108.260
1023.350, 1112.320
1023.832, 1105.079
1024.314, 1068.657
1024.797, 1046.551
1025.279, 1061.124
1025.761, 1081.424
1026.243, 1092.374
1026.725, 1096.044
1027.207, 1093.553
1027.689, 1086.568
1028.171, 1085.131
1028.653, 1095.045
1029.135, 1103.912
1029.618, 1111.194
1030.100, 1114.779
1030.582, 1112.872
1031.064, 1107.228
1031.546, 1097.234
1032.028, 1084.623
1032.510, 1078.944
1032.992, 1087.733
1033.475, 1090.406
1033.957, 1080.462
1034.439, 1069.451
1034.921, 1057.565
1035.403, 1049.737
1035.885, 1051.714
1036.367, 1061.871
1036.849, 1073.561
1037.332, 1090.609
1037.814, 1099.660
1038.296, 1095.984
1038.778, 1090.292
1039.260, 1084.586
1039.742, 1078.416
1040.224, 1069.748
1040.706, 1060.726
1041.188, 1057.351
1041.671, 1059.794
1042.153, 1067.896
1042.635, 1090.481
1043.117, 1101.563
1043.599, 1089.313
1044.081, 1073.723
1044.563, 1067.594
1045.045, 1067.715
1045.527, 1067.561
1046.010, 1067.082
1046.492, 1066.660
1046.974, 1065.578
1047.456, 1067.360
1047.938, 1075.599
1048.420, 1078.676
1048.902, 1067.506
1049.384, 1051.682
1049.866, 1046.814
1050.349, 1052.311
1050.831, 1055.560
1051.313, 1056.083
1051.795, 1057.164
1052.277, 1059.441
1052.759, 1061.230
1053.241, 1061.988
1053.723, 1060.694
1054.206, 1054.972
1054.688, 1047.130
1055.170, 1049.676
1055.652, 1062.844
1056.134, 1069.962
1056.616, 1069.564
1057.098, 1066.736
1057.580, 1063.022
1058.063, 1061.986
1058.545, 1067.964
1059.027, 1076.120
1059.509, 1072.302
1059.991, 1059.219
1060.473, 1055.437
1060.955, 1060.460
1061.437, 1061.852
1061.919, 1056.626
1062.401, 1053.253
1062.884, 1058.035
1063.366, 1065.267
1063.848, 1064.442
1064.330, 1059.735
1064.812, 1064.630
1065.294, 1075.308
1065.776, 1076.161
1066.258, 1066.896
1066.741, 1063.291
1067.223, 1073.573
1067.705, 1084.824
1068.187, 1081.256
1068.669, 1071.874
1069.151, 1067.422
1069.633, 1067.994
1070.115, 1077.352
1070.598, 1091.531
1071.080, 1098.793
1071.562, 1095.272
1072.044, 1086.292
1072.526, 1070.012
1073.008, 1057.193
1073.490, 1060.578
1073.972, 1069.383
1074.454, 1073.174
1074.937, 1072.142
1075.419, 1067.332
1075.901, 1059.922
1076.383, 1055.523
1076.865, 1061.225
1077.347, 1060.886
1077.829, 1033.433
1078.311, 1011.600
1078.793, 1027.072
1079.276, 1055.141
1079.758, 1063.225
1080.240, 1053.398
1080.722, 1049.897
1081.204, 1060.459
1081.686, 1068.594
1082.168, 1069.917
1082.650, 1069.509
1083.133, 1069.918
1083.615, 1068.675
1084.097, 1060.249
1084.579, 1049.399
1085.061, 1048.873
1085.543, 1061.435
1086.025, 1070.211
1086.507, 1074.419
1086.990, 1076.207
1087.472, 1075.500
1087.954, 1072.723
1088.436, 1066.173
1088.918, 1059.999
1089.400, 1060.122
1089.882, 1066.163
1090.364, 1075.001
1090.846, 1090.051
1091.328, 1090.556
1091.811, 1071.332
1092.293, 1054.399
1092.775, 1047.537
1093.257, 1046.865
1093.739, 1048.977
1094.221, 1054.028
1094.703, 1064.731
1095.185, 1080.186
1095.668, 1085.111
1096.150, 1079.723
1096.632, 1071.570
1097.114, 1062.776
1097.596, 1059.469
1098.078, 1065.628
1098.560, 1075.875
1099.042, 1085.629
1099.525, 1092.290
1100.007, 1086.709
1100.489, 1073.641
1100.971, 1065.998
1101.453, 1064.109
1101.935, 1060.177
1102.417, 1051.930
1102.899, 1049.075
1103.381, 1064.781
1103.864, 1079.713
1104.346, 1065.694
1104.828, 1045.599
1105.310, 1049.537
1105.792, 1068.343
1106.274, 1085.616
1106.756, 1095.894
1107.238, 1091.836
1107.720, 1063.532
1108.203, 1043.322
1108.685, 1054.696
1109.167, 1069.691
1109.649, 1071.069
1110.131, 1068.473
1110.613, 1073.843
1111.095, 1083.614
1111.577, 1086.009
1112.060, 1078.455
1112.542, 1071.179
1113.024, 1064.775
1113.506, 1059.863
1113.988, 1058.136
1114.470, 1055.987
1114.952, 1049.211
1115.434, 1043.329
1115.917, 1046.866
1116.399, 1058.370
1116.881, 1064.423
1117.363, 1064.052
1117.845, 1061.049
1118.327, 1053.888
1118.809, 1051.256
1119.291, 1056.989
1119.773, 1062.804
1120.255, 1061.599
1120.738, 1057.387
1121.220, 1058.172
1121.702, 1063.766
1122.184, 1074.372
1122.666, 1089.093
1123.148, 1100.115
1123.630, 1106.145
1124.112, 1108.889
1124.595, 1109.120
1125.077, 1105.687
1125.559, 1094.773
1126.041, 1083.689
1126.523, 1088.935
1127.005, 1099.782
1127.487, 1091.898
1127.969, 1073.522
1128.452, 1070.614
1128.934, 1085.726
1129.416, 1097.394
1129.898, 1092.890
1130.380, 1090.913
1130.862, 1113.014
1131.344, 1132.066
1131.826, 1124.115
1132.308, 1105.526
1132.791, 1089.835
1133.273, 1080.570
1133.755, 1083.179
1134.237, 1099.848
1134.719, 1110.374
1135.201, 1108.328
1135.683, 1103.531
1136.165, 1094.646
1136.647, 1087.179
1137.130, 1083.932
1137.612, 1082.919
1138.094, 1081.324
1138.576, 1080.124
1139.058, 1084.951
1139.540, 1099.011
1140.022, 1105.150
1140.504, 1101.312
1140.987, 1099.664
1141.469, 1103.735
1141.951, 1106.371
1142.433, 1102.827
1142.915, 1096.340
1143.397, 1090.560
1143.879, 1086.931
1144.361, 1093.211
1144.844, 1106.685
1145.326, 1117.046
1145.808, 1122.289
1146.290, 1117.081
1146.772, 1101.227
1147.254, 1087.312
1147.736, 1084.048
1148.218, 1087.481
1148.700, 1100.280
1149.182, 1111.117
1149.665, 1100.941
1150.147, 1083.519
1150.629, 1083.196
1151.111, 1095.550
1151.593, 1096.297
1152.075, 1077.844
1152.557, 1068.774
1153.039, 1091.793
1153.522, 1109.274
1154.004, 1104.768
1154.486, 1094.826
1154.968, 1085.146
1155.450, 1078.871
1155.932, 1081.860
1156.414, 1091.830
1156.896, 1097.288
1157.379, 1098.608
1157.861, 1093.447
1158.343, 1078.985
1158.825, 1066.239
1159.307, 1056.726
1159.789, 1053.234
1160.271, 1058.621
1160.753, 1066.346
1161.235, 1065.801
1161.718, 1060.479
1162.200, 1068.478
1162.682, 1085.324
1163.164, 1081.447
1163.646, 1059.729
1164.128, 1049.976
1164.610, 1059.529
1165.092, 1073.361
1165.574, 1082.767
1166.057, 1087.138
1166.539, 1082.893
1167.021, 1076.074
1167.503, 1074.990
1167.985, 1074.380
1168.467, 1062.385
1168.949, 1045.919
1169.431, 1040.901
1169.914, 1060.531
1170.396, 1079.679
1170.878, 1092.427
1171.360, 1099.118
1171.842, 1081.615
1172.324, 1095.354
1172.806, 1096.573
1173.288, 1087.218
1173.771, 1080.428
1174.253, 1064.427
1174.735, 1056.595
1175.217, 1057.339
1175.699, 1063.593
1176.181, 1078.076
1176.663, 1080.526
1177.145, 1067.045
1177.627, 1050.857
1178.109, 1037.080
1178.592, 1031.377
1179.074, 1041.515
1179.556, 1056.206
1180.038, 1049.665
1180.520, 1031.947
1181.002, 1029.559
1181.484, 1037.429
1181.966, 1039.639
1182.449, 1035.351
1182.931, 1033.267
1183.413, 1036.672
1183.895, 1040.949
1184.377, 1046.835
1184.859, 1047.868
1185.341, 1033.782
1185.823, 1020.321
1186.306, 1021.333
1186.788, 1028.802
1187.270, 1032.008
1187.752, 1031.259
1188.234, 1032.632
1188.716, 1038.766
1189.198, 1038.085
1189.680, 1026.492
1190.162, 1017.169
1190.645, 1010.688
1191.127, 1012.631
1191.609, 1028.720
1192.091, 1044.047
1192.573, 1040.385
1193.055, 1024.525
1193.537, 1015.329
1194.019, 1012.048
1194.501, 1011.877
1194.984, 1014.096
1195.466, 1017.292
1195.948, 1020.478
1196.430, 1020.610
1196.912, 1016.334
1197.394, 1010.179
1197.876, 999.5207
1198.358, 993.9485
1198.841, 1010.672
1199.323, 1027.000
1199.805, 1016.480
1200.287, 995.3365
1200.769, 986.2653
1201.251, 990.2247
1201.733, 999.6270
1202.215, 1017.024
1202.698, 1026.988
1203.180, 1026.095
1203.662, 1022.913
1204.144, 1015.889
1204.626, 1013.857
1205.108, 1023.772
1205.590, 1032.591
1206.072, 1024.057
1206.554, 1006.281
1207.036, 1005.699
1207.519, 1018.637
1208.001, 1017.145
1208.483, 1004.602
1208.965, 1003.516
1209.447, 1015.005
1209.929, 1023.747
1210.411, 1023.205
1210.893, 1015.056
1211.376, 994.1145
1211.858, 977.4745
1212.340, 986.2104
1212.822, 998.1511
1213.304, 991.8044
1213.786, 978.4289
1214.268, 972.8079
1214.750, 974.0753
1215.233, 974.3995
1215.715, 972.0927
1216.197, 974.3424
1216.679, 986.3425
1217.161, 991.6614
1217.643, 986.3637
1218.125, 980.2499
1218.607, 976.1613
1219.089, 976.2097
1219.572, 982.9714
1220.054, 992.9388
1220.536, 999.6512
1221.018, 1003.273
1221.500, 1006.148
1221.982, 1006.332
1222.464, 993.2956
1222.946, 971.2855
1223.428, 958.8033
1223.911, 960.4298
1224.393, 964.5213
1224.875, 964.9839
1225.357, 965.3873
1225.839, 969.1672
1226.321, 971.9976
1226.803, 969.2120
1227.285, 966.2385
1227.768, 970.4220
1228.250, 976.7340
1228.732, 973.5798
1229.214, 962.0385
1229.696, 958.9829
1230.178, 967.9695
1230.660, 970.7828
1231.142, 965.8452
1231.625, 961.6303
##END=



