##NAMES=Mottramite
##RRUFFID=R050517
##IDEAL CHEMISTRY=Pb^2+^Cu^2+^V^5+^O_4_(OH)
##LOCALITY=Tsumeb mine, Tsumeb, Otavi District, Oshikoto, Namibia
##OWNER=RRUFF
##SOURCE=University of Arizona Mineral Museum
##DESCRIPTION=Coating of green prismatic crystals
##STATUS=The identification of this mineral has been confirmed by X-ray diffraction and chemical analysis
##URL=rruff.info/R050517
##MEASURED CHEMISTRY=Pb_1.00_Cu_1.00_((V_0.88_As_0.12_)_Î£=1_O_4_)(OH)
132.0062, 1294.162
132.4883, 1302.159
132.9705, 1311.485
133.4526, 1309.241
133.9347, 1281.779
134.4168, 1254.122
134.8989, 1242.497
135.3810, 1250.372
135.8632, 1271.917
136.3453, 1299.200
136.8274, 1337.940
137.3095, 1371.529
137.7916, 1392.978
138.2737, 1413.527
138.7559, 1443.132
139.2380, 1484.321
139.7201, 1532.386
140.2022, 1579.060
140.6843, 1622.069
141.1664, 1668.094
141.6486, 1715.805
142.1307, 1767.116
142.6128, 1824.340
143.0949, 1888.320
143.5770, 1957.003
144.0591, 2028.883
144.5413, 2114.185
145.0234, 2181.242
145.5055, 2209.985
145.9876, 2222.215
146.4697, 2251.357
146.9518, 2311.404
147.4340, 2382.374
147.9161, 2422.542
148.3982, 2427.574
148.8803, 2424.023
149.3624, 2413.915
149.8445, 2400.155
150.3266, 2388.512
150.8088, 2381.334
151.2909, 2376.232
151.7730, 2368.342
152.2551, 2356.868
152.7372, 2345.953
153.2193, 2338.583
153.7015, 2333.132
154.1836, 2324.066
154.6657, 2306.784
155.1478, 2289.262
155.6299, 2284.755
156.1120, 2294.904
156.5942, 2308.774
157.0763, 2319.225
157.5584, 2328.296
158.0405, 2344.703
158.5226, 2373.730
159.0047, 2409.090
159.4869, 2441.868
159.9690, 2471.763
160.4511, 2500.450
160.9332, 2528.104
161.4153, 2549.330
161.8974, 2556.924
162.3796, 2563.640
162.8617, 2566.770
163.3438, 2564.457
163.8259, 2556.618
164.3080, 2545.098
164.7901, 2530.160
165.2723, 2512.190
165.7544, 2495.279
166.2365, 2482.541
166.7186, 2469.662
167.2007, 2452.028
167.6828, 2429.133
168.1650, 2407.049
168.6471, 2391.041
169.1292, 2381.023
169.6113, 2372.752
170.0934, 2368.667
170.5755, 2363.370
171.0577, 2351.486
171.5398, 2332.531
172.0219, 2313.702
172.5040, 2302.295
172.9861, 2298.624
173.4682, 2294.261
173.9504, 2285.844
174.4325, 2277.386
174.9146, 2272.803
175.3967, 2272.191
175.8788, 2270.028
176.3609, 2258.421
176.8431, 2235.774
177.3252, 2219.309
177.8073, 2214.628
178.2894, 2215.078
178.7715, 2218.521
179.2536, 2224.289
179.7358, 2230.292
180.2179, 2235.273
180.7000, 2239.641
181.1821, 2239.930
181.6642, 2230.519
182.1463, 2220.566
182.6285, 2214.377
183.1106, 2212.371
183.5927, 2212.600
184.0748, 2212.565
184.5569, 2211.659
185.0390, 2214.580
185.5212, 2230.951
186.0033, 2244.137
186.4854, 2243.660
186.9675, 2230.543
187.4496, 2215.828
187.9317, 2210.722
188.4139, 2216.759
188.8960, 2223.010
189.3781, 2230.549
189.8602, 2237.064
190.3423, 2243.074
190.8244, 2247.627
191.3066, 2247.868
191.7887, 2239.025
192.2708, 2219.083
192.7529, 2204.310
193.2350, 2199.764
193.7171, 2196.242
194.1993, 2188.236
194.6814, 2177.412
195.1635, 2170.387
195.6456, 2175.046
196.1277, 2193.130
196.6098, 2204.410
197.0920, 2203.897
197.5741, 2200.624
198.0562, 2198.436
198.5383, 2196.229
199.0204, 2189.873
199.5025, 2173.952
199.9847, 2147.807
200.4668, 2131.050
200.9489, 2133.170
201.4310, 2136.633
201.9131, 2140.488
202.3952, 2142.033
202.8774, 2135.889
203.3595, 2115.470
203.8416, 2081.644
204.3237, 2061.526
204.8058, 2070.532
205.2879, 2078.823
205.7701, 2079.499
206.2522, 2073.949
206.7343, 2065.418
207.2164, 2055.511
207.6985, 2044.629
208.1806, 2036.489
208.6628, 2031.400
209.1449, 2029.093
209.6270, 2030.687
210.1091, 2034.704
210.5912, 2039.926
211.0733, 2046.355
211.5555, 2052.314
212.0376, 2048.860
212.5197, 2018.625
213.0018, 2001.545
213.4839, 2016.139
213.9660, 2044.070
214.4482, 2061.941
214.9303, 2057.692
215.4124, 2037.968
215.8945, 2023.329
216.3766, 2010.874
216.8587, 2009.287
217.3409, 2032.144
217.8230, 2060.003
218.3051, 2070.326
218.7872, 2053.678
219.2693, 2023.360
219.7514, 2010.150
220.2336, 2027.262
220.7157, 2038.130
221.1978, 2038.270
221.6799, 2031.837
222.1620, 2019.986
222.6441, 2003.559
223.1263, 1987.413
223.6084, 1980.405
224.0905, 1986.439
224.5726, 1993.223
225.0547, 2004.651
225.5368, 2013.288
226.0190, 2012.362
226.5011, 2001.226
226.9832, 1986.349
227.4653, 1976.216
227.9474, 1972.007
228.4296, 1969.098
228.9117, 1965.885
229.3938, 1964.968
229.8759, 1969.298
230.3580, 1978.235
230.8401, 1987.625
231.3223, 1993.717
231.8044, 1996.659
232.2865, 1995.234
232.7686, 1980.272
233.2507, 1968.863
233.7328, 1970.025
234.2150, 1981.507
234.6971, 1994.096
235.1792, 1999.409
235.6613, 1997.299
236.1434, 1999.610
236.6255, 2012.990
237.1077, 2024.067
237.5898, 2026.417
238.0719, 2023.258
238.5540, 2021.630
239.0361, 2026.719
239.5182, 2037.255
240.0004, 2045.279
240.4825, 2049.557
240.9646, 2052.769
241.4467, 2057.424
241.9288, 2061.314
242.4109, 2060.268
242.8931, 2050.777
243.3752, 2037.477
243.8573, 2033.815
244.3394, 2044.149
244.8215, 2055.971
245.3036, 2065.515
245.7858, 2074.769
246.2679, 2087.313
246.7500, 2105.266
247.2321, 2122.130
247.7142, 2123.919
248.1963, 2103.225
248.6785, 2091.286
249.1606, 2103.994
249.6427, 2122.644
250.1248, 2133.898
250.6069, 2134.628
251.0890, 2131.962
251.5712, 2133.483
252.0533, 2139.445
252.5354, 2147.442
253.0175, 2160.521
253.4996, 2172.848
253.9817, 2180.075
254.4639, 2182.242
254.9460, 2183.485
255.4281, 2185.740
255.9102, 2189.259
256.3923, 2198.406
256.8744, 2220.086
257.3565, 2239.244
257.8387, 2244.591
258.3208, 2239.143
258.8029, 2234.049
259.2850, 2234.212
259.7671, 2239.662
260.2492, 2251.159
260.7314, 2270.582
261.2135, 2292.309
261.6956, 2312.627
262.1777, 2332.618
262.6598, 2355.123
263.1419, 2385.890
263.6241, 2416.790
264.1062, 2433.190
264.5883, 2432.560
265.0704, 2430.521
265.5525, 2433.926
266.0346, 2441.494
266.5168, 2451.547
266.9989, 2463.150
267.4810, 2478.194
267.9631, 2500.495
268.4452, 2529.639
268.9273, 2556.752
269.4095, 2577.273
269.8916, 2594.780
270.3737, 2616.243
270.8558, 2643.815
271.3379, 2668.493
271.8200, 2682.353
272.3022, 2688.849
272.7843, 2698.884
273.2664, 2714.999
273.7485, 2736.499
274.2306, 2764.062
274.7127, 2797.735
275.1949, 2831.315
275.6770, 2862.554
276.1591, 2892.644
276.6412, 2923.807
277.1233, 2956.854
277.6054, 2988.236
278.0876, 3014.554
278.5697, 3035.706
279.0518, 3053.344
279.5339, 3062.064
280.0160, 3071.311
280.4981, 3091.223
280.9803, 3121.086
281.4624, 3150.161
281.9445, 3171.030
282.4266, 3184.077
282.9087, 3196.073
283.3908, 3203.949
283.8730, 3214.013
284.3551, 3232.808
284.8372, 3256.007
285.3193, 3272.760
285.8014, 3276.491
286.2835, 3272.203
286.7657, 3276.027
287.2478, 3299.948
287.7299, 3315.756
288.2120, 3314.420
288.6941, 3305.077
289.1762, 3299.258
289.6584, 3300.456
290.1405, 3302.786
290.6226, 3296.111
291.1047, 3270.817
291.5868, 3257.733
292.0689, 3263.538
292.5511, 3275.462
293.0332, 3286.798
293.5153, 3295.863
293.9974, 3302.758
294.4795, 3307.645
294.9616, 3310.678
295.4438, 3310.281
295.9259, 3300.401
296.4080, 3293.323
296.8901, 3294.608
297.3722, 3302.016
297.8543, 3310.262
298.3365, 3315.808
298.8186, 3319.659
299.3007, 3327.438
299.7828, 3343.771
300.2649, 3357.525
300.7470, 3357.448
301.2292, 3357.789
301.7113, 3378.478
302.1934, 3427.376
302.6755, 3484.519
303.1576, 3513.503
303.6397, 3504.731
304.1219, 3497.755
304.6040, 3497.962
305.0861, 3502.021
305.5682, 3508.362
306.0503, 3516.695
306.5324, 3527.403
307.0146, 3541.097
307.4967, 3557.703
307.9788, 3576.037
308.4609, 3597.552
308.9430, 3618.808
309.4251, 3639.453
309.9073, 3658.580
310.3894, 3673.580
310.8715, 3682.844
311.3536, 3687.226
311.8357, 3686.803
312.3178, 3679.538
312.8000, 3674.970
313.2821, 3679.579
313.7642, 3689.943
314.2463, 3701.537
314.7284, 3712.731
315.2105, 3726.321
315.6927, 3751.896
316.1748, 3786.207
316.6569, 3801.898
317.1390, 3782.695
317.6211, 3746.946
318.1032, 3723.742
318.5854, 3714.101
319.0675, 3709.718
319.5496, 3710.789
320.0317, 3714.198
320.5138, 3714.859
320.9959, 3711.702
321.4781, 3706.192
321.9602, 3700.308
322.4423, 3694.195
322.9244, 3683.393
323.4065, 3663.804
323.8886, 3642.507
324.3708, 3623.362
324.8529, 3606.853
325.3350, 3594.086
325.8171, 3587.056
326.2992, 3584.211
326.7813, 3572.812
327.2635, 3545.123
327.7456, 3519.292
328.2277, 3500.744
328.7098, 3486.394
329.1919, 3472.851
329.6740, 3458.753
330.1562, 3442.748
330.6383, 3421.760
331.1204, 3390.316
331.6025, 3363.699
332.0846, 3338.766
332.5667, 3320.291
333.0489, 3317.407
333.5310, 3326.864
334.0131, 3331.568
334.4952, 3311.584
334.9773, 3265.099
335.4594, 3235.532
335.9416, 3239.994
336.4237, 3244.198
336.9058, 3236.749
337.3879, 3222.276
337.8700, 3209.239
338.3521, 3201.850
338.8343, 3198.534
339.3164, 3197.841
339.7985, 3204.190
340.2806, 3199.859
340.7627, 3165.923
341.2448, 3126.735
341.7270, 3103.544
342.2091, 3100.600
342.6912, 3101.823
343.1733, 3091.008
343.6554, 3070.308
344.1375, 3058.033
344.6197, 3063.017
345.1018, 3067.508
345.5839, 3053.933
346.0660, 3025.827
346.5481, 2998.779
347.0302, 2975.982
347.5124, 2958.365
347.9945, 2952.448
348.4766, 2958.582
348.9587, 2954.775
349.4408, 2923.961
349.9229, 2872.970
350.4051, 2830.461
350.8872, 2800.200
351.3693, 2773.406
351.8514, 2748.818
352.3335, 2724.714
352.8156, 2696.806
353.2978, 2663.452
353.7799, 2627.949
354.2620, 2595.209
354.7441, 2563.740
355.2262, 2539.804
355.7083, 2534.422
356.1905, 2528.454
356.6726, 2505.101
357.1547, 2465.802
357.6368, 2424.949
358.1189, 2394.675
358.6010, 2374.807
359.0832, 2353.389
359.5653, 2328.133
360.0474, 2303.758
360.5295, 2281.938
361.0116, 2261.456
361.4937, 2239.906
361.9759, 2216.209
362.4580, 2193.234
362.9401, 2177.149
363.4222, 2171.141
363.9043, 2162.673
364.3864, 2152.416
364.8686, 2137.537
365.3507, 2111.415
365.8328, 2076.511
366.3149, 2046.508
366.7970, 2034.963
367.2791, 2038.284
367.7613, 2038.506
368.2434, 2035.846
368.7255, 2029.084
369.2076, 2013.600
369.6897, 1994.346
370.1718, 1979.512
370.6540, 1973.211
371.1361, 1969.107
371.6182, 1959.701
372.1003, 1946.190
372.5824, 1937.481
373.0645, 1938.260
373.5467, 1943.126
374.0288, 1943.427
374.5109, 1939.078
374.9930, 1932.887
375.4751, 1924.437
375.9572, 1915.099
376.4394, 1906.891
376.9215, 1899.914
377.4036, 1891.165
377.8857, 1876.339
378.3678, 1855.433
378.8499, 1849.204
379.3321, 1873.708
379.8142, 1892.301
380.2963, 1887.633
380.7784, 1870.543
381.2605, 1858.890
381.7426, 1860.298
382.2248, 1868.634
382.7069, 1871.215
383.1890, 1863.325
383.6711, 1859.592
384.1532, 1863.543
384.6353, 1868.580
385.1175, 1869.362
385.5996, 1866.975
386.0817, 1867.695
386.5638, 1879.669
387.0459, 1899.634
387.5280, 1904.024
388.0102, 1881.463
388.4923, 1864.806
388.9744, 1874.105
389.4565, 1893.605
389.9386, 1903.220
390.4207, 1895.590
390.9029, 1884.161
391.3850, 1883.103
391.8671, 1890.972
392.3492, 1896.910
392.8313, 1898.447
393.3134, 1897.011
393.7956, 1892.357
394.2777, 1884.779
394.7598, 1881.062
395.2419, 1890.618
395.7240, 1899.765
396.2061, 1893.121
396.6883, 1871.587
397.1704, 1847.058
397.6525, 1825.573
398.1346, 1807.939
398.6167, 1798.145
399.0988, 1801.669
399.5810, 1804.993
400.0631, 1809.948
400.5452, 1811.671
401.0273, 1801.389
401.5094, 1778.346
401.9915, 1754.876
402.4737, 1747.731
402.9558, 1762.405
403.4379, 1764.068
403.9200, 1738.891
404.4021, 1714.540
404.8842, 1700.192
405.3664, 1693.149
405.8485, 1687.003
406.3306, 1678.343
406.8127, 1669.127
407.2948, 1664.248
407.7769, 1665.087
408.2591, 1664.062
408.7412, 1656.395
409.2233, 1648.277
409.7054, 1646.940
410.1875, 1652.341
410.6696, 1652.824
411.1518, 1634.851
411.6339, 1608.735
412.1160, 1597.871
412.5981, 1605.626
413.0802, 1615.189
413.5623, 1615.539
414.0445, 1608.063
414.5266, 1601.256
415.0087, 1594.969
415.4908, 1589.501
415.9729, 1584.255
416.4550, 1580.071
416.9372, 1579.220
417.4193, 1582.416
417.9014, 1586.528
418.3835, 1587.496
418.8656, 1585.521
419.3477, 1579.080
419.8299, 1564.122
420.3120, 1549.328
420.7941, 1536.727
421.2762, 1527.655
421.7583, 1524.342
422.2404, 1528.563
422.7226, 1537.818
423.2047, 1545.870
423.6868, 1553.863
424.1689, 1557.713
424.6510, 1555.732
425.1331, 1550.090
425.6153, 1540.155
426.0974, 1526.627
426.5795, 1515.028
427.0616, 1511.655
427.5437, 1513.228
428.0258, 1508.503
428.5080, 1495.011
428.9901, 1483.486
429.4722, 1482.204
429.9543, 1487.439
430.4364, 1489.568
430.9185, 1485.678
431.4007, 1482.230
431.8828, 1484.073
432.3649, 1488.341
432.8470, 1489.149
433.3291, 1484.860
433.8112, 1479.115
434.2934, 1476.635
434.7755, 1478.645
435.2576, 1477.260
435.7397, 1469.076
436.2218, 1461.405
436.7039, 1457.573
437.1861, 1456.608
437.6682, 1456.513
438.1503, 1456.363
438.6324, 1455.907
439.1145, 1454.271
439.5966, 1450.499
440.0788, 1448.369
440.5609, 1451.172
441.0430, 1453.424
441.5251, 1451.028
442.0072, 1444.891
442.4893, 1439.850
442.9715, 1440.644
443.4536, 1443.894
443.9357, 1441.008
444.4178, 1430.962
444.8999, 1423.281
445.3820, 1423.988
445.8642, 1428.756
446.3463, 1428.679
446.8284, 1421.635
447.3105, 1416.399
447.7926, 1420.059
448.2747, 1425.689
448.7569, 1422.184
449.2390, 1408.752
449.7211, 1396.219
450.2032, 1394.552
450.6853, 1403.259
451.1674, 1406.642
451.6496, 1396.138
452.1317, 1390.964
452.6138, 1400.926
453.0959, 1415.623
453.5780, 1422.727
454.0602, 1418.883
454.5423, 1410.154
455.0244, 1402.877
455.5065, 1396.837
455.9886, 1395.163
456.4707, 1402.666
456.9529, 1408.225
457.4349, 1404.587
457.9171, 1395.955
458.3992, 1390.163
458.8813, 1390.345
459.3634, 1393.250
459.8455, 1397.194
460.3276, 1401.488
460.8098, 1401.195
461.2919, 1393.281
461.7740, 1384.534
462.2561, 1385.435
462.7382, 1397.106
463.2203, 1400.444
463.7025, 1383.541
464.1846, 1366.950
464.6667, 1366.280
465.1488, 1376.785
465.6309, 1384.471
466.1130, 1382.221
466.5952, 1374.972
467.0773, 1374.798
467.5594, 1390.151
468.0415, 1395.159
468.5236, 1382.668
469.0057, 1366.827
469.4879, 1353.728
469.9700, 1344.149
470.4521, 1336.972
470.9342, 1330.000
471.4163, 1326.455
471.8984, 1338.083
472.3806, 1368.599
472.8627, 1389.360
473.3448, 1386.223
473.8269, 1371.679
474.3090, 1359.931
474.7911, 1350.761
475.2733, 1347.811
475.7554, 1357.575
476.2375, 1371.346
476.7196, 1380.791
477.2017, 1384.822
477.6838, 1380.847
478.1660, 1364.961
478.6481, 1342.366
479.1302, 1333.549
479.6123, 1354.522
480.0944, 1368.650
480.5765, 1370.400
481.0587, 1367.824
481.5408, 1366.983
482.0229, 1368.589
482.5050, 1370.322
482.9871, 1370.208
483.4692, 1368.610
483.9514, 1367.522
484.4335, 1367.159
484.9156, 1366.822
485.3977, 1367.353
485.8798, 1367.196
486.3619, 1364.649
486.8441, 1359.415
487.3262, 1353.164
487.8083, 1344.032
488.2904, 1335.459
488.7725, 1334.996
489.2546, 1343.350
489.7368, 1353.289
490.2189, 1360.748
490.7010, 1365.620
491.1831, 1367.232
491.6652, 1364.554
492.1473, 1360.504
492.6295, 1354.708
493.1116, 1348.277
493.5937, 1341.397
494.0758, 1334.659
494.5579, 1329.749
495.0400, 1328.148
495.5222, 1329.806
496.0043, 1335.233
496.4864, 1350.008
496.9685, 1358.250
497.4506, 1346.444
497.9327, 1331.112
498.4149, 1331.212
498.8970, 1350.495
499.3791, 1367.748
499.8612, 1364.069
500.3433, 1348.681
500.8254, 1342.669
501.3076, 1348.340
501.7897, 1353.919
502.2718, 1350.857
502.7539, 1341.705
503.2360, 1338.096
503.7181, 1345.787
504.2003, 1350.132
504.6824, 1343.316
505.1645, 1334.970
505.6466, 1337.125
506.1287, 1349.431
506.6108, 1359.791
507.0930, 1356.488
507.5751, 1341.990
508.0572, 1336.351
508.5393, 1344.920
509.0214, 1352.446
509.5035, 1355.220
509.9857, 1355.213
510.4678, 1352.501
510.9499, 1347.330
511.4320, 1345.173
511.9141, 1354.600
512.3962, 1367.993
512.8784, 1368.000
513.3605, 1353.574
513.8426, 1340.537
514.3247, 1338.666
514.8068, 1343.952
515.2889, 1343.601
515.7711, 1332.246
516.2532, 1325.707
516.7353, 1330.426
517.2174, 1337.462
517.6995, 1339.082
518.1816, 1335.493
518.6638, 1331.232
519.1459, 1329.158
519.6280, 1329.595
520.1101, 1335.011
520.5922, 1349.317
521.0743, 1358.381
521.5565, 1354.735
522.0386, 1347.727
522.5207, 1343.168
523.0028, 1341.305
523.4849, 1340.150
523.9670, 1340.866
524.4492, 1340.486
524.9313, 1331.916
525.4134, 1316.764
525.8955, 1309.162
526.3776, 1316.799
526.8597, 1331.410
527.3419, 1337.350
527.8240, 1328.883
528.3061, 1325.147
528.7882, 1328.985
529.2703, 1334.799
529.7524, 1342.923
530.2346, 1350.199
530.7167, 1349.117
531.1988, 1334.945
531.6809, 1317.296
532.1630, 1316.379
532.6451, 1335.123
533.1273, 1346.695
533.6094, 1345.748
534.0915, 1338.870
534.5736, 1326.196
535.0557, 1311.175
535.5378, 1305.317
536.0200, 1317.355
536.5021, 1333.216
536.9842, 1346.887
537.4663, 1356.273
537.9484, 1354.452
538.4305, 1339.425
538.9127, 1320.695
539.3948, 1308.880
539.8769, 1304.299
540.3590, 1302.818
540.8411, 1307.159
541.3232, 1311.440
541.8054, 1313.767
542.2875, 1315.598
542.7696, 1319.012
543.2517, 1324.456
543.7338, 1329.883
544.2159, 1334.398
544.6981, 1337.412
545.1802, 1335.299
545.6623, 1326.725
546.1444, 1318.153
546.6265, 1311.768
547.1086, 1308.546
547.5908, 1311.107
548.0729, 1323.797
548.5550, 1331.968
549.0371, 1326.812
549.5192, 1318.630
550.0013, 1317.905
550.4835, 1324.366
550.9656, 1331.798
551.4477, 1336.328
551.9298, 1337.958
552.4119, 1336.005
552.8940, 1327.678
553.3762, 1322.789
553.8583, 1327.988
554.3404, 1332.780
554.8225, 1328.805
555.3046, 1318.428
555.7867, 1312.103
556.2689, 1317.166
556.7510, 1325.928
557.2331, 1331.256
557.7152, 1333.211
558.1973, 1331.090
558.6794, 1324.053
559.1616, 1316.413
559.6437, 1313.711
560.1258, 1316.968
560.6079, 1318.405
561.0900, 1318.131
561.5721, 1316.259
562.0543, 1309.076
562.5364, 1301.992
563.0185, 1303.324
563.5006, 1314.850
563.9827, 1327.867
564.4648, 1332.870
564.9470, 1330.886
565.4291, 1328.283
565.9112, 1324.701
566.3933, 1322.398
566.8754, 1323.397
567.3575, 1326.060
567.8397, 1327.025
568.3218, 1326.014
568.8039, 1324.116
569.2860, 1319.177
569.7681, 1315.250
570.2502, 1317.214
570.7324, 1324.017
571.2145, 1330.905
571.6966, 1335.222
572.1787, 1337.115
572.6608, 1336.339
573.1429, 1331.300
573.6251, 1328.814
574.1072, 1333.744
574.5893, 1337.091
575.0714, 1330.051
575.5535, 1317.621
576.0356, 1313.489
576.5178, 1326.632
576.9999, 1342.542
577.4820, 1350.328
577.9641, 1351.422
578.4462, 1348.085
578.9283, 1340.793
579.4105, 1332.665
579.8926, 1326.147
580.3747, 1321.333
580.8568, 1320.678
581.3389, 1328.934
581.8210, 1335.639
582.3032, 1340.319
582.7853, 1342.458
583.2674, 1339.819
583.7495, 1333.370
584.2316, 1328.923
584.7137, 1332.224
585.1959, 1339.474
585.6780, 1342.614
586.1601, 1341.690
586.6422, 1340.190
587.1243, 1339.063
587.6064, 1338.411
588.0886, 1338.473
588.5707, 1339.396
589.0528, 1340.239
589.5349, 1340.186
590.0170, 1340.906
590.4991, 1346.940
590.9813, 1352.926
591.4634, 1348.128
591.9455, 1330.078
592.4276, 1311.970
592.9097, 1311.773
593.3918, 1327.897
593.8740, 1337.735
594.3561, 1340.196
594.8382, 1339.340
595.3203, 1335.606
595.8024, 1330.332
596.2845, 1325.403
596.7667, 1320.245
597.2488, 1317.688
597.7309, 1319.687
598.2130, 1323.689
598.6951, 1328.258
599.1772, 1332.885
599.6594, 1337.182
600.1415, 1341.034
600.6236, 1343.270
601.1057, 1340.719
601.5878, 1331.778
602.0699, 1326.771
602.5521, 1329.376
603.0342, 1331.555
603.5163, 1326.110
603.9984, 1318.426
604.4805, 1319.096
604.9626, 1334.194
605.4448, 1345.845
605.9269, 1336.820
606.4090, 1321.744
606.8911, 1326.424
607.3732, 1349.716
607.8553, 1364.018
608.3375, 1349.488
608.8196, 1317.789
609.3017, 1305.730
609.7838, 1325.350
610.2659, 1337.640
610.7480, 1334.615
611.2302, 1328.915
611.7123, 1325.417
612.1944, 1324.121
612.6765, 1324.276
613.1586, 1325.954
613.6407, 1328.275
614.1229, 1331.231
614.6050, 1334.125
615.0871, 1335.162
615.5692, 1334.061
616.0513, 1332.203
616.5334, 1330.496
617.0156, 1329.059
617.4977, 1328.507
617.9798, 1327.166
618.4619, 1329.502
618.9440, 1341.648
619.4261, 1352.285
619.9083, 1351.686
620.3904, 1342.588
620.8725, 1335.337
621.3546, 1335.285
621.8367, 1338.701
622.3188, 1342.457
622.8010, 1346.073
623.2831, 1347.246
623.7652, 1345.305
624.2473, 1343.120
624.7294, 1343.733
625.2115, 1346.614
625.6937, 1345.568
626.1758, 1333.272
626.6579, 1326.741
627.1400, 1332.163
627.6221, 1340.302
628.1042, 1343.697
628.5864, 1342.711
629.0685, 1342.552
629.5506, 1347.628
630.0327, 1353.063
630.5148, 1349.910
630.9969, 1339.875
631.4791, 1334.151
631.9612, 1336.059
632.4433, 1338.589
632.9254, 1334.426
633.4075, 1324.029
633.8896, 1318.310
634.3718, 1317.831
634.8539, 1321.043
635.3360, 1332.906
635.8181, 1344.639
636.3002, 1347.103
636.7823, 1341.476
637.2645, 1336.909
637.7466, 1339.282
638.2287, 1345.637
638.7108, 1352.668
639.1929, 1359.921
639.6750, 1363.119
640.1572, 1360.656
640.6393, 1356.512
641.1214, 1354.372
641.6035, 1354.156
642.0856, 1353.714
642.5677, 1351.834
643.0499, 1351.333
643.5320, 1354.430
644.0141, 1357.799
644.4962, 1358.517
644.9783, 1356.621
645.4604, 1353.908
645.9426, 1351.138
646.4247, 1348.693
646.9068, 1346.359
647.3889, 1344.555
647.8710, 1346.618
648.3531, 1353.750
648.8353, 1362.778
649.3174, 1371.485
649.7995, 1379.659
650.2816, 1384.570
650.7637, 1385.454
651.2458, 1384.139
651.7280, 1377.381
652.2101, 1371.176
652.6922, 1369.286
653.1743, 1372.344
653.6564, 1380.875
654.1385, 1398.477
654.6207, 1416.001
655.1028, 1419.268
655.5849, 1411.000
656.0670, 1403.485
656.5491, 1399.020
657.0313, 1397.975
657.5134, 1401.776
657.9955, 1409.306
658.4776, 1411.896
658.9597, 1404.603
659.4418, 1399.106
659.9240, 1394.891
660.4061, 1393.612
660.8882, 1398.364
661.3703, 1407.092
661.8524, 1414.120
662.3345, 1416.900
662.8167, 1416.845
663.2988, 1413.022
663.7809, 1407.675
664.2630, 1408.904
664.7451, 1417.942
665.2272, 1424.975
665.7094, 1421.701
666.1915, 1411.838
666.6736, 1410.392
667.1557, 1421.584
667.6378, 1433.607
668.1199, 1449.775
668.6021, 1462.908
669.0842, 1468.473
669.5663, 1468.161
670.0484, 1465.973
670.5305, 1463.389
671.0126, 1458.557
671.4948, 1445.654
671.9769, 1431.212
672.4590, 1428.329
672.9411, 1437.049
673.4232, 1446.712
673.9053, 1451.045
674.3875, 1451.943
674.8696, 1454.172
675.3517, 1459.390
675.8338, 1460.672
676.3159, 1450.416
676.7980, 1445.493
677.2802, 1459.848
677.7623, 1481.443
678.2444, 1489.843
678.7265, 1478.607
679.2086, 1469.433
679.6907, 1477.006
680.1729, 1489.159
680.6550, 1492.692
681.1371, 1488.771
681.6192, 1483.893
682.1013, 1480.920
682.5834, 1479.641
683.0656, 1480.505
683.5477, 1483.818
684.0298, 1482.887
684.5119, 1473.169
684.9940, 1469.779
685.4761, 1487.129
685.9583, 1509.058
686.4404, 1510.811
686.9225, 1489.274
687.4046, 1477.423
687.8867, 1490.611
688.3688, 1507.624
688.8510, 1517.907
689.3331, 1522.084
689.8152, 1521.585
690.2973, 1517.177
690.7794, 1510.325
691.2615, 1499.915
691.7437, 1488.998
692.2258, 1492.622
692.7079, 1512.655
693.1900, 1525.140
693.6721, 1520.862
694.1542, 1510.554
694.6364, 1505.200
695.1185, 1504.989
695.6006, 1505.092
696.0827, 1501.655
696.5648, 1503.473
697.0469, 1519.173
697.5291, 1536.349
698.0112, 1542.954
698.4933, 1539.408
698.9754, 1534.245
699.4575, 1531.824
699.9396, 1531.234
700.4218, 1531.793
700.9039, 1533.179
701.3860, 1534.275
701.8681, 1534.893
702.3502, 1534.546
702.8323, 1532.325
703.3145, 1529.394
703.7966, 1530.915
704.2787, 1541.939
704.7608, 1547.604
705.2429, 1544.994
705.7250, 1539.352
706.2072, 1528.341
706.6893, 1517.212
707.1714, 1517.262
707.6535, 1534.629
708.1356, 1549.555
708.6177, 1547.597
709.0999, 1538.056
709.5820, 1530.377
710.0641, 1525.853
710.5462, 1525.361
711.0283, 1529.343
711.5104, 1535.950
711.9926, 1542.844
712.4747, 1550.104
712.9568, 1556.057
713.4389, 1561.429
713.9210, 1563.343
714.4031, 1557.349
714.8853, 1549.784
715.3674, 1550.739
715.8495, 1560.996
716.3316, 1566.851
716.8137, 1563.293
717.2958, 1558.315
717.7780, 1551.753
718.2601, 1548.027
718.7422, 1556.452
719.2243, 1575.756
719.7064, 1589.498
720.1885, 1581.617
720.6707, 1564.295
721.1528, 1564.576
721.6349, 1579.783
722.1170, 1585.165
722.5991, 1574.005
723.0812, 1560.867
723.5634, 1558.394
724.0455, 1564.701
724.5276, 1568.041
725.0097, 1564.305
725.4918, 1564.521
725.9739, 1571.077
726.4561, 1579.683
726.9382, 1590.590
727.4203, 1601.209
727.9024, 1605.935
728.3845, 1601.430
728.8666, 1597.128
729.3488, 1600.437
729.8309, 1606.349
730.3130, 1609.455
730.7951, 1609.223
731.2772, 1604.522
731.7593, 1594.772
732.2415, 1586.245
732.7236, 1590.264
733.2057, 1606.843
733.6878, 1614.968
734.1699, 1612.123
734.6520, 1609.204
735.1342, 1609.056
735.6163, 1611.973
736.0984, 1620.198
736.5805, 1634.224
737.0626, 1642.863
737.5447, 1641.197
738.0269, 1639.231
738.5090, 1642.881
738.9911, 1646.169
739.4732, 1638.156
739.9553, 1622.017
740.4374, 1616.401
740.9196, 1637.067
741.4017, 1665.306
741.8838, 1678.043
742.3659, 1678.582
742.8480, 1675.461
743.3301, 1670.295
743.8123, 1665.242
744.2944, 1661.265
744.7765, 1659.695
745.2586, 1665.329
745.7407, 1682.521
746.2228, 1692.727
746.7050, 1691.046
747.1871, 1688.424
747.6692, 1689.333
748.1513, 1692.774
748.6334, 1697.572
749.1155, 1703.699
749.5977, 1710.743
750.0798, 1717.942
750.5619, 1726.702
751.0440, 1741.161
751.5261, 1756.536
752.0082, 1764.985
752.4904, 1764.963
752.9725, 1760.937
753.4546, 1753.509
753.9367, 1747.294
754.4188, 1754.324
754.9009, 1773.354
755.3831, 1794.875
755.8652, 1817.893
756.3473, 1832.212
756.8294, 1825.827
757.3115, 1804.611
757.7936, 1801.367
758.2758, 1828.845
758.7579, 1849.455
759.2400, 1858.439
759.7221, 1861.981
760.2042, 1855.999
760.6863, 1848.284
761.1685, 1855.082
761.6506, 1883.377
762.1327, 1909.114
762.6148, 1923.608
763.0969, 1930.008
763.5790, 1923.915
764.0612, 1913.579
764.5433, 1917.046
765.0254, 1939.173
765.5075, 1964.965
765.9896, 1978.286
766.4717, 1983.576
766.9539, 1994.800
767.4360, 2011.823
767.9181, 2030.512
768.4002, 2050.220
768.8823, 2068.357
769.3644, 2081.200
769.8466, 2090.068
770.3287, 2106.628
770.8108, 2143.811
771.2929, 2165.891
771.7750, 2153.611
772.2571, 2142.054
772.7393, 2152.199
773.2214, 2176.533
773.7035, 2198.169
774.1856, 2213.545
774.6677, 2226.605
775.1498, 2238.113
775.6320, 2248.913
776.1141, 2257.492
776.5962, 2266.446
777.0783, 2282.828
777.5604, 2308.246
778.0425, 2332.970
778.5247, 2342.463
779.0068, 2345.255
779.4889, 2371.016
779.9710, 2417.996
780.4531, 2454.836
780.9352, 2472.444
781.4174, 2481.547
781.8995, 2490.932
782.3816, 2500.795
782.8637, 2512.401
783.3458, 2525.456
783.8279, 2540.897
784.3101, 2563.056
784.7922, 2583.069
785.2743, 2591.938
785.7564, 2596.716
786.2385, 2612.662
786.7206, 2645.649
787.2028, 2674.366
787.6849, 2690.137
788.1670, 2700.720
788.6491, 2706.902
789.1312, 2713.809
789.6133, 2730.610
790.0955, 2758.731
790.5776, 2789.095
791.0597, 2815.074
791.5418, 2837.439
792.0239, 2856.559
792.5060, 2872.969
792.9882, 2887.419
793.4703, 2900.087
793.9524, 2919.803
794.4345, 2955.245
794.9166, 2999.910
795.3987, 3030.964
795.8809, 3042.808
796.3630, 3061.967
796.8451, 3093.017
797.3272, 3126.609
797.8093, 3158.871
798.2914, 3190.567
798.7736, 3222.965
799.2557, 3256.308
799.7378, 3289.332
800.2199, 3315.402
800.7020, 3348.648
801.1841, 3399.958
801.6663, 3458.762
802.1484, 3511.086
802.6305, 3557.006
803.1126, 3608.312
803.5947, 3675.344
804.0768, 3745.040
804.5590, 3804.539
805.0411, 3857.323
805.5232, 3908.158
806.0053, 3958.338
806.4874, 4009.737
806.9695, 4063.353
807.4517, 4118.464
807.9338, 4173.911
808.4159, 4229.632
808.8980, 4282.966
809.3801, 4334.991
809.8622, 4375.376
810.3444, 4393.552
810.8265, 4411.631
811.3086, 4462.028
811.7907, 4546.435
812.2728, 4608.956
812.7549, 4633.891
813.2371, 4658.619
813.7192, 4687.933
814.2013, 4718.495
814.6834, 4755.063
815.1655, 4790.645
815.6476, 4805.964
816.1298, 4791.467
816.6119, 4770.667
817.0940, 4755.714
817.5761, 4736.362
818.0582, 4701.809
818.5403, 4656.573
819.0225, 4608.426
819.5046, 4560.109
819.9867, 4515.395
820.4688, 4481.795
820.9509, 4450.865
821.4330, 4408.732
821.9152, 4356.029
822.3973, 4291.498
822.8794, 4215.764
823.3615, 4138.674
823.8436, 4068.241
824.3257, 4002.321
824.8079, 3933.714
825.2900, 3861.819
825.7721, 3793.696
826.2542, 3730.911
826.7363, 3669.568
827.2184, 3607.184
827.7006, 3545.218
828.1826, 3484.817
828.6647, 3425.162
829.1469, 3371.748
829.6290, 3329.035
830.1111, 3286.058
830.5932, 3242.456
831.0753, 3195.524
831.5574, 3138.588
832.0396, 3075.250
832.5217, 3021.358
833.0038, 2985.829
833.4859, 2952.146
833.9680, 2909.020
834.4501, 2866.003
834.9323, 2837.031
835.4144, 2815.669
835.8965, 2783.481
836.3786, 2734.700
836.8607, 2686.674
837.3428, 2661.248
837.8250, 2646.205
838.3071, 2613.208
838.7892, 2567.662
839.2713, 2535.344
839.7534, 2521.778
840.2355, 2511.930
840.7177, 2493.766
841.1998, 2470.120
841.6819, 2448.984
842.1640, 2430.502
842.6461, 2413.161
843.1282, 2396.874
843.6104, 2382.113
844.0925, 2370.720
844.5746, 2358.740
845.0567, 2337.953
845.5388, 2304.891
846.0209, 2284.136
846.5031, 2294.407
846.9852, 2291.960
847.4673, 2258.091
847.9494, 2218.016
848.4315, 2188.651
848.9136, 2170.053
849.3958, 2158.999
849.8779, 2158.906
850.3600, 2157.573
850.8421, 2148.311
851.3242, 2138.351
851.8063, 2134.243
852.2885, 2133.167
852.7706, 2129.296
853.2527, 2121.226
853.7348, 2111.996
854.2169, 2105.515
854.6990, 2097.865
855.1812, 2084.274
855.6633, 2065.736
856.1454, 2041.017
856.6275, 2012.120
857.1096, 1991.144
857.5917, 1986.359
858.0739, 1989.807
858.5560, 1987.469
859.0381, 1980.450
859.5202, 1978.283
860.0023, 1981.669
860.4844, 1982.745
860.9666, 1979.015
861.4487, 1968.690
861.9308, 1947.012
862.4129, 1915.937
862.8950, 1903.038
863.3771, 1915.683
863.8593, 1925.750
864.3414, 1931.608
864.8235, 1929.734
865.3056, 1912.986
865.7877, 1888.129
866.2698, 1872.966
866.7520, 1870.732
867.2341, 1868.083
867.7162, 1866.605
868.1983, 1862.162
868.6804, 1846.973
869.1625, 1832.514
869.6447, 1835.877
870.1268, 1853.683
870.6089, 1858.941
871.0910, 1834.074
871.5731, 1809.037
872.0552, 1798.878
872.5374, 1794.359
873.0195, 1786.725
873.5016, 1777.426
873.9837, 1771.898
874.4658, 1771.891
874.9479, 1773.415
875.4301, 1773.743
875.9122, 1773.352
876.3943, 1772.879
876.8764, 1772.182
877.3585, 1771.848
877.8406, 1771.373
878.3228, 1766.371
878.8049, 1752.819
879.2870, 1738.451
879.7691, 1741.510
880.2512, 1757.016
880.7333, 1754.178
881.2155, 1731.668
881.6976, 1715.056
882.1797, 1715.092
882.6618, 1718.378
883.1439, 1707.972
883.6260, 1686.768
884.1082, 1679.081
884.5903, 1689.012
885.0724, 1692.990
885.5545, 1684.672
886.0366, 1677.193
886.5187, 1680.393
887.0009, 1688.616
887.4830, 1689.293
887.9651, 1680.661
888.4472, 1671.133
888.9293, 1655.353
889.4114, 1646.135
889.8936, 1654.329
890.3757, 1663.796
890.8578, 1658.438
891.3399, 1641.736
891.8220, 1631.626
892.3041, 1634.457
892.7863, 1636.700
893.2684, 1636.600
893.7505, 1634.060
894.2326, 1626.073
894.7147, 1617.040
895.1968, 1614.583
895.6790, 1619.422
896.1611, 1622.157
896.6432, 1618.928
897.1253, 1611.544
897.6074, 1594.360
898.0895, 1578.234
898.5717, 1580.649
899.0538, 1596.260
899.5359, 1604.783
900.0180, 1597.612
900.5001, 1586.444
900.9822, 1583.884
901.4644, 1582.768
901.9465, 1567.162
902.4286, 1544.894
902.9107, 1541.349
903.3928, 1559.024
903.8749, 1572.871
904.3571, 1563.884
904.8392, 1545.388
905.3213, 1540.791
905.8034, 1546.921
906.2855, 1550.581
906.7676, 1550.857
907.2498, 1548.285
907.7319, 1542.904
908.2140, 1537.673
908.6961, 1536.157
909.1782, 1537.525
909.6603, 1537.705
910.1425, 1536.630
910.6246, 1534.824
911.1067, 1531.766
911.5888, 1531.531
912.0709, 1538.096
912.5530, 1545.481
913.0352, 1540.913
913.5173, 1522.065
913.9994, 1515.994
914.4815, 1529.646
914.9636, 1538.602
915.4457, 1534.221
915.9279, 1527.751
916.4100, 1529.616
916.8921, 1536.495
917.3742, 1535.577
917.8563, 1518.377
918.3384, 1511.617
918.8206, 1526.970
919.3027, 1538.295
919.7848, 1533.894
920.2669, 1524.131
920.7490, 1519.764
921.2311, 1520.462
921.7133, 1519.606
922.1954, 1516.484
922.6775, 1511.505
923.1596, 1500.960
923.6417, 1492.484
924.1238, 1492.685
924.6060, 1497.159
925.0881, 1498.798
925.5702, 1496.459
926.0523, 1494.205
926.5344, 1494.482
927.0165, 1494.099
927.4987, 1488.224
927.9808, 1483.397
928.4629, 1487.900
928.9450, 1498.881
929.4271, 1508.350
929.9092, 1513.685
930.3914, 1516.345
930.8735, 1518.555
931.3556, 1517.308
931.8377, 1503.927
932.3198, 1488.068
932.8019, 1487.940
933.2841, 1502.145
933.7662, 1513.416
934.2483, 1512.932
934.7304, 1505.867
935.2125, 1493.245
935.6946, 1480.197
936.1768, 1476.380
936.6589, 1479.030
937.1410, 1478.128
937.6231, 1472.240
938.1052, 1471.498
938.5873, 1485.240
939.0695, 1503.533
939.5516, 1511.594
940.0337, 1510.927
940.5158, 1504.164
940.9979, 1492.644
941.4800, 1481.724
941.9622, 1473.400
942.4443, 1465.823
942.9264, 1455.572
943.4085, 1446.569
943.8906, 1453.155
944.3727, 1472.888
944.8549, 1484.378
945.3370, 1485.072
945.8191, 1483.509
946.3012, 1483.703
946.7833, 1485.541
947.2654, 1490.097
947.7476, 1496.121
948.2297, 1492.078
948.7118, 1477.052
949.1939, 1469.113
949.6760, 1472.186
950.1581, 1479.023
950.6403, 1485.911
951.1224, 1491.371
951.6045, 1491.959
952.0866, 1487.391
952.5687, 1483.916
953.0508, 1481.357
953.5330, 1480.987
954.0151, 1483.779
954.4972, 1487.277
954.9793, 1490.424
955.4614, 1491.958
955.9435, 1487.507
956.4257, 1474.513
956.9078, 1466.086
957.3899, 1463.139
957.8720, 1462.667
958.3541, 1464.633
958.8362, 1467.518
959.3184, 1470.548
959.8005, 1473.230
960.2826, 1472.851
960.7647, 1465.623
961.2468, 1463.933
961.7289, 1470.563
962.2111, 1478.611
962.6932, 1489.716
963.1753, 1497.262
963.6574, 1491.692
964.1395, 1474.475
964.6216, 1461.919
965.1038, 1453.705
965.5859, 1450.748
966.0680, 1456.409
966.5501, 1463.481
967.0322, 1471.940
967.5143, 1478.425
967.9965, 1477.285
968.4786, 1468.621
968.9607, 1463.305
969.4428, 1465.379
969.9249, 1465.625
970.4070, 1459.852
970.8892, 1455.396
971.3713, 1456.307
971.8534, 1460.917
972.3355, 1468.848
972.8176, 1480.386
973.2997, 1483.089
973.7819, 1462.805
974.2640, 1451.072
974.7461, 1462.423
975.2282, 1476.924
975.7103, 1481.965
976.1924, 1480.867
976.6746, 1481.329
977.1567, 1484.661
977.6388, 1483.474
978.1209, 1471.366
978.6030, 1460.907
979.0851, 1456.352
979.5673, 1454.876
980.0494, 1454.940
980.5315, 1456.148
981.0136, 1458.085
981.4957, 1460.677
981.9778, 1464.134
982.4600, 1472.288
982.9421, 1476.580
983.4242, 1468.909
983.9063, 1459.722
984.3884, 1458.793
984.8705, 1463.880
985.3527, 1468.130
985.8348, 1470.209
986.3169, 1470.412
986.7990, 1468.360
987.2811, 1465.033
987.7632, 1457.629
988.2454, 1451.806
988.7275, 1452.875
989.2096, 1460.310
989.6917, 1473.746
990.1738, 1496.099
990.6559, 1506.956
991.1381, 1485.984
991.6202, 1465.429
992.1023, 1467.033
992.5844, 1475.705
993.0665, 1473.021
993.5486, 1462.182
994.0308, 1459.785
994.5129, 1473.140
994.9950, 1482.673
995.4771, 1477.948
995.9592, 1469.043
996.4413, 1456.866
996.9235, 1447.532
997.4056, 1449.566
997.8877, 1460.493
998.3698, 1470.816
998.8519, 1478.544
999.3340, 1481.423
999.8162, 1473.807
1000.298, 1466.167
1000.780, 1464.366
1001.263, 1466.871
1001.745, 1474.031
1002.227, 1483.516
1002.709, 1488.579
1003.191, 1486.435
1003.673, 1482.576
1004.155, 1477.352
1004.637, 1473.649
1005.119, 1471.709
1005.602, 1473.445
1006.084, 1486.402
1006.566, 1505.301
1007.048, 1509.601
1007.530, 1487.909
1008.012, 1470.438
1008.494, 1472.307
1008.976, 1480.969
1009.458, 1498.401
1009.941, 1511.140
1010.423, 1496.280
1010.905, 1462.137
1011.387, 1445.016
1011.869, 1460.971
1012.351, 1475.085
1012.833, 1467.720
1013.315, 1459.670
1013.798, 1464.797
1014.280, 1475.144
1014.762, 1481.928
1015.244, 1484.850
1015.726, 1487.331
1016.208, 1491.025
1016.690, 1491.544
1017.172, 1483.656
1017.654, 1476.291
1018.137, 1471.764
1018.619, 1472.253
1019.101, 1485.533
1019.583, 1505.550
1020.065, 1511.320
1020.547, 1492.971
1021.029, 1479.534
1021.511, 1484.667
1021.994, 1491.796
1022.476, 1495.325
1022.958, 1494.968
1023.440, 1486.778
1023.922, 1475.064
1024.404, 1473.689
1024.886, 1489.461
1025.368, 1498.083
1025.850, 1482.158
1026.333, 1471.850
1026.815, 1488.385
1027.297, 1508.277
1027.779, 1508.518
1028.261, 1494.873
1028.743, 1486.267
1029.225, 1485.930
1029.707, 1488.108
1030.190, 1494.676
1030.672, 1499.783
1031.154, 1502.461
1031.636, 1502.096
1032.118, 1494.532
1032.600, 1484.395
1033.082, 1484.113
1033.564, 1498.233
1034.047, 1504.728
1034.529, 1492.719
1035.011, 1485.178
1035.493, 1490.229
1035.975, 1498.590
1036.457, 1510.393
1036.939, 1519.033
1037.421, 1506.136
1037.903, 1463.261
1038.385, 1445.580
1038.868, 1477.463
1039.350, 1497.537
1039.832, 1486.865
1040.314, 1474.817
1040.796, 1479.762
1041.278, 1492.963
1041.760, 1500.110
1042.242, 1500.920
1042.725, 1498.757
1043.207, 1490.695
1043.689, 1485.803
1044.171, 1486.199
1044.653, 1488.300
1045.135, 1491.483
1045.617, 1493.780
1046.099, 1490.902
1046.582, 1483.280
1047.064, 1486.085
1047.546, 1505.049
1048.028, 1515.838
1048.510, 1514.642
1048.992, 1508.555
1049.474, 1497.831
1049.956, 1490.222
1050.438, 1496.835
1050.921, 1514.497
1051.403, 1522.853
1051.885, 1520.585
1052.367, 1516.758
1052.849, 1511.267
1053.331, 1508.993
1053.813, 1512.697
1054.295, 1515.694
1054.777, 1510.432
1055.260, 1500.557
1055.742, 1498.458
1056.224, 1504.078
1056.706, 1510.989
1057.188, 1518.967
1057.670, 1520.550
1058.152, 1513.165
1058.634, 1506.058
1059.117, 1506.942
1059.599, 1512.368
1060.081, 1515.991
1060.563, 1517.828
1061.045, 1516.598
1061.527, 1513.156
1062.009, 1515.661
1062.491, 1525.068
1062.974, 1529.242
1063.456, 1519.806
1063.938, 1507.362
1064.420, 1508.078
1064.902, 1516.789
1065.384, 1521.891
1065.866, 1524.077
1066.348, 1525.393
1066.830, 1526.535
1067.313, 1530.040
1067.795, 1537.188
1068.277, 1539.243
1068.759, 1519.876
1069.241, 1496.593
1069.723, 1495.785
1070.205, 1506.892
1070.687, 1512.107
1071.169, 1511.641
1071.652, 1514.082
1072.134, 1521.986
1072.616, 1528.751
1073.098, 1529.482
1073.580, 1527.602
1074.062, 1526.100
1074.544, 1523.255
1075.026, 1512.905
1075.508, 1501.447
1075.991, 1503.834
1076.473, 1520.680
1076.955, 1531.706
1077.437, 1524.788
1077.919, 1516.999
1078.401, 1515.201
1078.883, 1516.155
1079.365, 1519.844
1079.848, 1523.587
1080.330, 1521.250
1080.812, 1515.157
1081.294, 1519.896
1081.776, 1547.988
1082.258, 1563.186
1082.740, 1548.772
1083.222, 1532.915
1083.704, 1524.664
1084.187, 1520.756
1084.669, 1519.543
1085.151, 1520.026
1085.633, 1519.420
1086.115, 1517.444
1086.597, 1515.300
1087.079, 1511.279
1087.561, 1510.223
1088.043, 1513.169
1088.526, 1519.391
1089.008, 1531.158
1089.490, 1542.687
1089.972, 1542.803
1090.454, 1531.754
1090.936, 1529.449
1091.418, 1538.849
1091.900, 1541.805
1092.383, 1535.072
1092.865, 1526.787
1093.347, 1519.653
1093.829, 1516.952
1094.311, 1523.801
1094.793, 1536.241
1095.275, 1539.277
1095.757, 1533.849
1096.240, 1531.587
1096.722, 1532.979
1097.204, 1533.722
1097.686, 1532.475
1098.168, 1528.665
1098.650, 1521.303
1099.132, 1513.839
1099.614, 1511.803
1100.096, 1513.878
1100.578, 1518.179
1101.061, 1523.623
1101.543, 1527.473
1102.025, 1529.398
1102.507, 1530.730
1102.989, 1532.118
1103.471, 1532.552
1103.953, 1529.371
1104.435, 1526.554
1104.918, 1529.443
1105.400, 1534.459
1105.882, 1538.210
1106.364, 1539.468
1106.846, 1534.093
1107.328, 1522.145
1107.810, 1518.464
1108.292, 1541.448
1108.775, 1557.736
1109.257, 1544.518
1109.739, 1527.495
1110.221, 1521.796
1110.703, 1525.032
1111.185, 1536.195
1111.667, 1552.698
1112.149, 1561.954
1112.631, 1560.105
1113.114, 1555.733
1113.596, 1546.394
1114.078, 1539.120
1114.560, 1539.603
1115.042, 1538.173
1115.524, 1521.473
1116.006, 1501.253
1116.488, 1508.048
1116.970, 1546.431
1117.453, 1564.937
1117.935, 1557.676
1118.417, 1552.246
1118.899, 1553.354
1119.381, 1554.607
1119.863, 1552.948
1120.345, 1548.730
1120.827, 1540.648
1121.310, 1532.421
1121.792, 1544.202
1122.274, 1572.305
1122.756, 1573.496
1123.238, 1548.236
1123.720, 1535.036
1124.202, 1544.398
1124.684, 1551.843
1125.167, 1538.056
1125.649, 1520.382
1126.131, 1525.584
1126.613, 1542.115
1127.095, 1550.437
1127.577, 1552.939
1128.059, 1555.960
1128.541, 1560.035
1129.023, 1563.577
1129.505, 1566.041
1129.988, 1563.183
1130.470, 1544.010
1130.952, 1528.510
1131.434, 1534.225
1131.916, 1546.316
1132.398, 1552.742
1132.880, 1554.411
1133.362, 1554.843
1133.845, 1554.413
1134.327, 1551.262
1134.809, 1539.381
1135.291, 1534.760
1135.773, 1548.325
1136.255, 1558.696
1136.737, 1554.447
1137.219, 1546.748
1137.702, 1542.464
1138.184, 1542.737
1138.666, 1552.412
1139.148, 1574.371
1139.630, 1582.420
1140.112, 1572.306
1140.594, 1567.187
1141.076, 1573.239
1141.558, 1570.832
1142.041, 1547.132
1142.523, 1525.345
1143.005, 1537.186
1143.487, 1569.449
1143.969, 1577.771
1144.451, 1566.665
1144.933, 1557.781
1145.415, 1553.041
1145.897, 1553.190
1146.380, 1558.185
1146.862, 1567.760
1147.344, 1583.106
1147.826, 1593.971
1148.308, 1584.687
1148.790, 1568.599
1149.272, 1558.479
1149.754, 1554.911
1150.237, 1563.847
1150.719, 1578.292
1151.201, 1578.625
1151.683, 1560.086
1152.165, 1545.756
1152.647, 1546.429
1153.129, 1551.659
1153.611, 1561.194
1154.094, 1570.209
1154.576, 1579.026
1155.058, 1583.503
1155.540, 1575.125
1156.022, 1557.309
1156.504, 1549.202
1156.986, 1555.138
1157.468, 1556.196
1157.950, 1548.839
1158.432, 1546.237
1158.915, 1552.611
1159.397, 1559.590
1159.879, 1561.946
1160.361, 1562.732
1160.843, 1566.744
1161.325, 1572.940
1161.807, 1576.116
1162.289, 1576.716
1162.772, 1579.802
1163.254, 1584.652
1163.736, 1581.535
1164.218, 1568.656
1164.700, 1557.809
1165.182, 1556.846
1165.664, 1562.182
1166.146, 1574.764
1166.629, 1586.717
1167.111, 1586.957
1167.593, 1580.527
1168.075, 1573.932
1168.557, 1568.315
1169.039, 1562.836
1169.521, 1557.342
1170.003, 1555.210
1170.485, 1562.027
1170.968, 1566.101
1171.450, 1557.304
1171.932, 1552.425
1172.414, 1568.687
1172.896, 1587.093
1173.378, 1583.799
1173.860, 1565.543
1174.342, 1556.665
1174.824, 1559.170
1175.307, 1560.263
1175.789, 1558.446
1176.271, 1562.400
1176.753, 1574.911
1177.235, 1586.745
1177.717, 1593.534
1178.199, 1594.970
1178.681, 1590.039
1179.164, 1580.754
1179.646, 1570.607
1180.128, 1560.986
1180.610, 1556.343
1181.092, 1556.631
1181.574, 1562.678
1182.056, 1572.819
1182.538, 1578.600
1183.021, 1575.493
1183.503, 1570.695
1183.985, 1568.083
1184.467, 1567.740
1184.949, 1571.479
1185.431, 1575.934
1185.913, 1575.906
1186.395, 1575.182
1186.877, 1584.057
1187.359, 1601.949
1187.842, 1607.298
1188.324, 1587.683
1188.806, 1573.124
1189.288, 1563.561
1189.770, 1560.452
1190.252, 1566.070
1190.734, 1575.037
1191.216, 1585.596
1191.699, 1592.662
1192.181, 1584.541
1192.663, 1565.257
1193.145, 1564.015
1193.627, 1578.494
1194.109, 1585.705
1194.591, 1584.627
1195.073, 1586.208
1195.556, 1593.411
1196.038, 1600.565
1196.520, 1604.372
1197.002, 1603.663
1197.484, 1593.354
1197.966, 1581.754
1198.448, 1578.121
1198.930, 1578.285
1199.412, 1577.205
1199.895, 1574.805
1200.377, 1571.846
1200.859, 1568.575
1201.341, 1568.019
1201.823, 1572.950
1202.305, 1577.330
1202.787, 1579.399
1203.269, 1582.154
1203.751, 1586.211
1204.234, 1591.876
1204.716, 1600.394
1205.198, 1609.357
1205.680, 1614.179
1206.162, 1614.823
1206.644, 1610.138
1207.126, 1600.337
1207.608, 1588.469
1208.091, 1575.698
1208.573, 1570.838
1209.055, 1576.258
1209.537, 1583.391
1210.019, 1586.212
1210.501, 1587.606
1210.983, 1592.800
1211.465, 1596.319
1211.948, 1588.430
1212.430, 1577.700
1212.912, 1574.581
1213.394, 1578.745
1213.876, 1588.547
1214.358, 1603.261
1214.840, 1611.964
1215.322, 1612.153
1215.804, 1606.025
1216.286, 1580.580
1216.769, 1570.583
1217.251, 1596.613
1217.733, 1623.013
1218.215, 1623.033
1218.697, 1606.335
1219.179, 1587.722
1219.661, 1569.394
1220.143, 1570.737
1220.626, 1588.801
1221.108, 1598.508
1221.590, 1598.481
1222.072, 1595.903
1222.554, 1593.163
1223.036, 1589.570
1223.518, 1584.001
1224.000, 1581.636
1224.483, 1591.211
1224.965, 1601.535
1225.447, 1601.518
1225.929, 1598.245
1226.411, 1600.129
1226.893, 1604.113
1227.375, 1601.565
1227.857, 1592.583
1228.339, 1591.480
1228.822, 1605.613
1229.304, 1613.913
1229.786, 1613.774
1230.268, 1614.856
1230.750, 1620.859
1231.232, 1623.099
1231.714, 1615.966
1232.196, 1603.937
1232.678, 1591.359
1233.161, 1581.018
1233.643, 1584.146
1234.125, 1595.181
1234.607, 1598.019
1235.089, 1593.555
1235.571, 1586.448
1236.053, 1578.564
1236.535, 1570.992
1237.018, 1563.768
1237.500, 1563.812
1237.982, 1581.141
1238.464, 1598.131
1238.946, 1610.377
1239.428, 1615.524
1239.910, 1607.001
1240.392, 1594.528
1240.875, 1588.303
1241.357, 1587.614
1241.839, 1590.861
1242.321, 1598.657
1242.803, 1603.852
1243.285, 1606.557
1243.767, 1603.661
1244.249, 1594.964
1244.731, 1590.477
1245.214, 1593.980
1245.696, 1600.298
1246.178, 1606.356
1246.660, 1608.882
1247.142, 1600.417
1247.624, 1589.378
1248.106, 1585.292
1248.588, 1585.403
1249.070, 1585.984
1249.553, 1587.232
1250.035, 1590.813
1250.517, 1596.901
1250.999, 1603.603
1251.481, 1616.016
1251.963, 1618.354
1252.445, 1603.502
1252.927, 1593.734
1253.410, 1595.413
1253.892, 1600.656
1254.374, 1605.340
1254.856, 1608.452
1255.338, 1608.252
1255.820, 1606.030
1256.302, 1603.691
1256.784, 1602.822
1257.266, 1612.006
1257.749, 1625.352
1258.231, 1623.651
1258.713, 1608.914
1259.195, 1603.110
1259.677, 1614.253
1260.159, 1620.809
1260.641, 1604.933
1261.123, 1594.302
1261.605, 1602.451
1262.088, 1612.823
1262.570, 1618.870
1263.052, 1621.857
1263.534, 1622.432
1264.016, 1621.150
1264.498, 1618.913
1264.980, 1615.873
1265.462, 1614.089
1265.945, 1613.465
1266.427, 1613.198
1266.909, 1613.097
##END=



