##NAMES=Mottramite
##RRUFFID=R050521
##IDEAL CHEMISTRY=Pb^2+^Cu^2+^V^5+^O_4_(OH)
##LOCALITY=Tsumeb mine, Tsumeb, Otavi District, Oshikoto, Namibia
##OWNER=RRUFF
##SOURCE=University of Arizona Mineral Museum
##DESCRIPTION=Green tubular sprays
##STATUS=The identification of this mineral has been confirmed by X-ray diffraction and chemical analysis
##URL=rruff.info/R050521
##MEASURED CHEMISTRY=Pb_1.00_Cu_1.00_((V_0.97_As_0.03_)_Î£=1_O_4_)(OH)
90.92609, 0.0000000E+00
91.40820, 25.92363
91.89032, 25.53224
92.37244, 25.76585
92.85455, 26.51599
93.33667, 27.13459
93.81879, 27.01321
94.30090, 26.37050
94.78302, 25.84913
95.26514, 25.56605
95.74725, 25.50721
96.22937, 25.83215
96.71149, 26.58875
97.19360, 27.15515
97.67572, 26.59684
98.15784, 24.94995
98.63995, 23.94215
99.12207, 24.26323
99.60419, 25.73626
100.0863, 26.74625
100.5684, 27.12510
101.0505, 27.38078
101.5327, 28.21944
102.0148, 29.78816
102.4969, 31.42439
102.9790, 32.86109
103.4611, 33.96854
103.9432, 35.45850
104.4253, 37.07331
104.9075, 39.20851
105.3896, 42.59691
105.8717, 47.46800
106.3538, 53.32936
106.8359, 60.06906
107.3180, 67.31651
107.8002, 75.99614
108.2823, 86.64363
108.7644, 98.80104
109.2465, 111.2405
109.7286, 122.9569
110.2107, 135.5112
110.6929, 149.7977
111.1750, 166.3186
111.6571, 183.8520
112.1392, 202.0399
112.6213, 221.0039
113.1034, 242.0731
113.5856, 265.4315
114.0677, 291.2903
114.5498, 319.5630
115.0319, 346.4151
115.5140, 379.5071
115.9961, 421.8769
116.4783, 473.4984
116.9604, 528.9227
117.4425, 590.1952
117.9246, 653.6946
118.4067, 714.8823
118.8888, 773.1820
119.3710, 828.6327
119.8531, 882.0293
120.3352, 933.4972
120.8173, 980.1331
121.2994, 1019.528
121.7815, 1052.441
122.2637, 1080.309
122.7458, 1100.391
123.2279, 1117.126
123.7100, 1134.588
124.1921, 1153.295
124.6742, 1172.355
125.1564, 1189.758
125.6385, 1206.504
126.1206, 1225.847
126.6027, 1249.019
127.0848, 1276.016
127.5669, 1307.427
128.0491, 1344.523
128.5312, 1383.601
129.0133, 1419.874
129.4954, 1453.210
129.9775, 1485.435
130.4596, 1518.446
130.9418, 1551.347
131.4239, 1581.730
131.9060, 1608.669
132.3881, 1633.348
132.8702, 1657.378
133.3523, 1680.754
133.8345, 1704.993
134.3166, 1732.379
134.7987, 1763.099
135.2808, 1791.498
135.7629, 1815.791
136.2450, 1837.263
136.7272, 1861.708
137.2093, 1889.701
137.6914, 1919.295
138.1735, 1948.495
138.6556, 1976.871
139.1377, 2006.077
139.6199, 2036.039
140.1020, 2066.510
140.5841, 2102.959
141.0662, 2147.456
141.5483, 2194.562
142.0304, 2237.063
142.5126, 2272.475
142.9947, 2307.245
143.4768, 2336.348
143.9589, 2355.624
144.4410, 2370.644
144.9231, 2382.701
145.4053, 2390.218
145.8874, 2390.668
146.3695, 2382.458
146.8516, 2369.937
147.3337, 2355.158
147.8158, 2339.985
148.2980, 2317.589
148.7801, 2285.260
149.2622, 2246.337
149.7443, 2208.326
150.2264, 2172.312
150.7085, 2135.536
151.1907, 2097.474
151.6728, 2055.932
152.1549, 2015.498
152.6370, 1976.289
153.1191, 1937.939
153.6012, 1900.667
154.0834, 1863.531
154.5655, 1828.161
155.0476, 1794.630
155.5297, 1762.621
156.0118, 1733.671
156.4939, 1708.698
156.9761, 1686.887
157.4582, 1666.499
157.9403, 1646.224
158.4224, 1627.764
158.9045, 1612.026
159.3866, 1599.479
159.8688, 1589.508
160.3509, 1582.625
160.8330, 1578.489
161.3151, 1575.554
161.7972, 1573.993
162.2793, 1573.050
162.7615, 1572.137
163.2436, 1569.937
163.7257, 1568.828
164.2078, 1570.049
164.6899, 1573.381
165.1720, 1577.379
165.6541, 1582.570
166.1363, 1587.581
166.6184, 1591.059
167.1005, 1593.800
167.5826, 1593.892
168.0647, 1591.320
168.5468, 1585.886
169.0290, 1574.709
169.5111, 1553.373
169.9932, 1525.895
170.4753, 1497.451
170.9574, 1470.329
171.4395, 1443.252
171.9217, 1414.161
172.4038, 1383.078
172.8859, 1353.141
173.3680, 1326.307
173.8501, 1302.404
174.3322, 1280.612
174.8144, 1260.283
175.2965, 1241.901
175.7786, 1226.102
176.2607, 1212.647
176.7428, 1202.754
177.2249, 1200.664
177.7071, 1203.329
178.1892, 1203.219
178.6713, 1193.515
179.1534, 1179.873
179.6355, 1171.727
180.1176, 1169.535
180.5998, 1170.149
181.0819, 1170.248
181.5640, 1170.295
182.0461, 1172.010
182.5282, 1177.443
183.0103, 1184.983
183.4925, 1191.041
183.9746, 1195.411
184.4567, 1198.534
184.9388, 1199.416
185.4209, 1198.746
185.9030, 1200.627
186.3852, 1208.928
186.8673, 1221.621
187.3494, 1231.455
187.8315, 1237.549
188.3136, 1242.760
188.7957, 1251.474
189.2779, 1263.408
189.7600, 1275.671
190.2421, 1286.045
190.7242, 1295.084
191.2063, 1306.847
191.6884, 1322.198
192.1706, 1338.393
192.6527, 1350.791
193.1348, 1359.236
193.6169, 1368.774
194.0990, 1383.339
194.5811, 1402.362
195.0633, 1418.542
195.5454, 1431.550
196.0275, 1441.665
196.5096, 1449.168
196.9917, 1454.185
197.4738, 1455.895
197.9560, 1453.925
198.4381, 1448.338
198.9202, 1439.263
199.4023, 1426.694
199.8844, 1410.750
200.3665, 1391.142
200.8487, 1367.293
201.3308, 1342.894
201.8129, 1319.713
202.2950, 1297.816
202.7771, 1276.208
203.2592, 1254.199
203.7414, 1232.855
204.2235, 1214.339
204.7056, 1199.123
205.1877, 1185.474
205.6698, 1173.025
206.1519, 1162.094
206.6341, 1149.981
207.1162, 1136.306
207.5983, 1121.782
208.0804, 1108.030
208.5625, 1095.230
209.0446, 1083.040
209.5268, 1071.168
210.0089, 1059.382
210.4910, 1049.339
210.9731, 1042.071
211.4552, 1035.872
211.9373, 1026.141
212.4195, 1011.145
212.9016, 997.1457
213.3837, 987.8137
213.8658, 984.9846
214.3479, 979.8687
214.8300, 971.4671
215.3121, 961.1257
215.7943, 951.9126
216.2764, 943.7305
216.7585, 937.0063
217.2406, 932.2858
217.7227, 930.6644
218.2048, 927.4449
218.6870, 921.6982
219.1691, 914.7726
219.6512, 909.8210
220.1333, 907.6285
220.6154, 905.9221
221.0975, 903.4772
221.5797, 899.4775
222.0618, 897.4238
222.5439, 898.5815
223.0260, 901.1128
223.5081, 900.4445
223.9902, 894.2321
224.4724, 888.9745
224.9545, 887.8045
225.4366, 892.6105
225.9187, 896.0067
226.4008, 897.5579
226.8829, 897.9505
227.3651, 898.6384
227.8472, 899.7906
228.3293, 900.9530
228.8114, 901.6711
229.2935, 901.0995
229.7757, 902.7679
230.2578, 907.6878
230.7399, 914.3088
231.2220, 919.6719
231.7041, 923.2057
232.1862, 926.2651
232.6684, 928.9017
233.1505, 930.0934
233.6326, 934.3929
234.1147, 943.5702
234.5968, 954.9028
235.0789, 963.0960
235.5611, 966.2368
236.0432, 969.3156
236.5253, 973.8878
237.0074, 979.9576
237.4895, 987.3636
237.9716, 996.5788
238.4538, 1006.850
238.9359, 1017.040
239.4180, 1027.663
239.9001, 1037.526
240.3822, 1045.856
240.8643, 1051.779
241.3465, 1060.032
241.8286, 1071.790
242.3107, 1085.044
242.7928, 1097.065
243.2749, 1107.922
243.7570, 1117.382
244.2392, 1125.055
244.7213, 1130.586
245.2034, 1136.629
245.6855, 1143.301
246.1676, 1150.438
246.6497, 1158.108
247.1319, 1167.609
247.6140, 1175.253
248.0961, 1179.490
248.5782, 1179.778
249.0603, 1182.085
249.5424, 1187.224
250.0246, 1193.647
250.5067, 1199.711
250.9888, 1205.048
251.4709, 1210.754
251.9530, 1216.992
252.4351, 1223.807
252.9173, 1231.270
253.3994, 1239.466
253.8815, 1248.277
254.3636, 1257.596
254.8457, 1267.202
255.3278, 1277.553
255.8100, 1289.059
256.2921, 1301.701
256.7742, 1313.180
257.2563, 1322.817
257.7384, 1332.173
258.2205, 1341.988
258.7026, 1351.229
259.1848, 1363.855
259.6669, 1381.086
260.1490, 1402.563
260.6311, 1423.752
261.1132, 1444.298
261.5953, 1465.135
262.0775, 1486.548
262.5596, 1508.591
263.0417, 1531.378
263.5238, 1554.052
264.0059, 1577.442
264.4880, 1607.232
264.9702, 1644.761
265.4523, 1685.691
265.9344, 1727.253
266.4165, 1769.657
266.8986, 1812.825
267.3807, 1856.053
267.8629, 1900.622
268.3450, 1951.536
268.8271, 2010.887
269.3092, 2072.867
269.7913, 2135.361
270.2734, 2197.438
270.7556, 2262.972
271.2377, 2332.846
271.7198, 2406.585
272.2019, 2484.184
272.6840, 2566.364
273.1661, 2650.221
273.6483, 2733.947
274.1304, 2816.749
274.6125, 2903.899
275.0946, 2996.017
275.5767, 3090.904
276.0588, 3183.376
276.5410, 3271.534
277.0231, 3365.562
277.5052, 3470.015
277.9873, 3585.477
278.4694, 3695.794
278.9515, 3798.692
279.4337, 3900.947
279.9158, 4012.117
280.3979, 4132.086
280.8800, 4257.325
281.3621, 4385.774
281.8442, 4517.448
282.3264, 4646.804
282.8085, 4773.053
283.2906, 4899.910
283.7727, 5033.834
284.2548, 5175.006
284.7369, 5312.039
285.2191, 5444.097
285.7012, 5568.820
286.1833, 5682.712
286.6654, 5786.324
287.1475, 5876.109
287.6296, 5951.605
288.1118, 6012.075
288.5939, 6045.365
289.0760, 6048.766
289.5581, 6023.022
290.0402, 5967.586
290.5223, 5881.790
291.0045, 5774.678
291.4866, 5650.333
291.9687, 5509.278
292.4508, 5352.479
292.9329, 5175.631
293.4150, 4989.411
293.8972, 4801.638
294.3793, 4612.954
294.8614, 4429.652
295.3435, 4256.477
295.8256, 4093.011
296.3077, 3940.059
296.7899, 3799.579
297.2720, 3668.246
297.7541, 3543.125
298.2362, 3425.395
298.7183, 3317.762
299.2004, 3220.842
299.6826, 3135.771
300.1647, 3063.035
300.6468, 3003.408
301.1289, 2954.410
301.6110, 2914.785
302.0931, 2883.720
302.5753, 2857.957
303.0574, 2834.914
303.5395, 2817.032
304.0216, 2808.703
304.5037, 2810.026
304.9858, 2816.893
305.4680, 2823.457
305.9501, 2833.514
306.4322, 2853.530
306.9143, 2889.770
307.3964, 2934.258
307.8785, 2980.053
308.3607, 3027.422
308.8428, 3080.268
309.3249, 3141.079
309.8070, 3208.857
310.2891, 3282.136
310.7712, 3361.343
311.2534, 3446.062
311.7355, 3536.468
312.2176, 3632.835
312.6997, 3733.519
313.1818, 3837.675
313.6639, 3944.303
314.1461, 4053.160
314.6282, 4162.368
315.1103, 4275.887
315.5924, 4395.808
316.0745, 4520.909
316.5566, 4650.812
317.0388, 4785.073
317.5209, 4922.874
318.0030, 5065.312
318.4851, 5212.954
318.9672, 5363.237
319.4493, 5515.229
319.9315, 5668.773
320.4136, 5825.818
320.8957, 5989.194
321.3778, 6152.468
321.8599, 6315.226
322.3420, 6477.550
322.8242, 6637.220
323.3063, 6798.257
323.7884, 6954.296
324.2705, 7099.782
324.7526, 7235.706
325.2347, 7360.138
325.7169, 7473.342
326.1990, 7575.642
326.6811, 7656.180
327.1632, 7711.379
327.6453, 7746.569
328.1274, 7764.634
328.6096, 7767.284
329.0917, 7750.728
329.5738, 7713.788
330.0559, 7657.799
330.5380, 7585.627
331.0201, 7493.461
331.5023, 7389.272
331.9844, 7274.820
332.4665, 7148.236
332.9486, 7018.251
333.4307, 6886.158
333.9128, 6750.505
334.3950, 6611.348
334.8771, 6465.458
335.3592, 6319.700
335.8413, 6176.828
336.3234, 6035.926
336.8055, 5899.573
337.2877, 5768.683
337.7698, 5642.972
338.2519, 5520.387
338.7340, 5401.658
339.2161, 5287.046
339.6982, 5177.038
340.1803, 5071.326
340.6624, 4973.843
341.1446, 4882.798
341.6267, 4802.454
342.1088, 4734.294
342.5909, 4678.978
343.0730, 4633.221
343.5551, 4598.144
344.0373, 4571.118
344.5194, 4546.872
345.0015, 4525.067
345.4836, 4508.535
345.9657, 4498.956
346.4478, 4496.063
346.9300, 4500.460
347.4121, 4514.049
347.8942, 4528.293
348.3763, 4533.146
348.8584, 4528.967
349.3405, 4518.026
349.8227, 4500.885
350.3048, 4477.884
350.7869, 4450.110
351.2690, 4417.804
351.7511, 4379.040
352.2332, 4330.118
352.7154, 4273.804
353.1975, 4215.702
353.6796, 4155.555
354.1617, 4096.377
354.6438, 4041.034
355.1259, 3989.423
355.6081, 3941.474
356.0902, 3894.535
356.5723, 3851.675
357.0544, 3815.590
357.5365, 3786.320
358.0186, 3765.868
358.5008, 3756.283
358.9829, 3756.593
359.4650, 3764.748
359.9471, 3785.271
360.4292, 3809.387
360.9113, 3831.254
361.3935, 3849.558
361.8756, 3869.936
362.3577, 3899.433
362.8398, 3930.650
363.3219, 3955.169
363.8040, 3974.973
364.2862, 3983.725
364.7683, 3981.536
365.2504, 3967.960
365.7325, 3936.725
366.2146, 3885.823
366.6967, 3817.442
367.1789, 3732.944
367.6610, 3626.231
368.1431, 3510.744
368.6252, 3385.002
369.1073, 3249.803
369.5894, 3110.337
370.0716, 2956.258
370.5537, 2807.380
371.0358, 2669.585
371.5179, 2544.712
372.0000, 2424.542
372.4821, 2308.280
372.9643, 2198.357
373.4464, 2098.599
373.9285, 2011.144
374.4106, 1931.014
374.8927, 1856.612
375.3748, 1787.698
375.8570, 1726.223
376.3391, 1672.299
376.8212, 1624.444
377.3033, 1581.306
377.7854, 1543.437
378.2675, 1508.052
378.7497, 1474.590
379.2318, 1443.261
379.7139, 1412.817
380.1960, 1383.241
380.6781, 1357.841
381.1602, 1340.392
381.6424, 1329.731
382.1245, 1318.257
382.6066, 1305.238
383.0887, 1292.651
383.5708, 1281.940
384.0529, 1273.434
384.5351, 1268.292
385.0172, 1268.238
385.4993, 1271.323
385.9814, 1273.841
386.4635, 1275.869
386.9456, 1279.646
387.4278, 1286.093
387.9099, 1295.598
388.3920, 1309.485
388.8741, 1329.984
389.3562, 1351.490
389.8383, 1368.094
390.3205, 1381.784
390.8026, 1397.718
391.2847, 1419.016
391.7668, 1443.279
392.2489, 1469.243
392.7310, 1496.772
393.2132, 1525.206
393.6953, 1553.626
394.1774, 1582.590
394.6595, 1613.033
395.1416, 1645.235
395.6237, 1678.659
396.1059, 1712.865
396.5880, 1747.927
397.0701, 1785.109
397.5522, 1823.579
398.0343, 1864.603
398.5164, 1908.863
398.9986, 1957.995
399.4807, 2008.360
399.9628, 2060.969
400.4449, 2114.703
400.9270, 2167.237
401.4091, 2217.686
401.8913, 2267.410
402.3734, 2317.643
402.8555, 2369.582
403.3376, 2415.422
403.8197, 2455.232
404.3018, 2488.853
404.7840, 2516.956
405.2661, 2541.177
405.7482, 2554.132
406.2303, 2554.137
406.7124, 2541.965
407.1945, 2521.065
407.6767, 2491.712
408.1588, 2452.115
408.6409, 2398.167
409.1230, 2330.863
409.6051, 2262.373
410.0872, 2193.105
410.5694, 2123.003
411.0515, 2051.752
411.5336, 1979.661
412.0157, 1910.463
412.4978, 1845.474
412.9799, 1784.571
413.4621, 1726.561
413.9442, 1671.019
414.4263, 1620.634
414.9084, 1577.365
415.3905, 1540.304
415.8727, 1507.284
416.3548, 1477.870
416.8369, 1452.044
417.3190, 1430.527
417.8011, 1412.662
418.2832, 1396.339
418.7654, 1379.738
419.2475, 1365.017
419.7296, 1354.250
420.2117, 1347.927
420.6938, 1342.917
421.1759, 1336.029
421.6581, 1330.574
422.1402, 1330.013
422.6223, 1340.163
423.1044, 1350.048
423.5865, 1355.423
424.0686, 1357.216
424.5508, 1363.187
425.0329, 1377.697
425.5150, 1393.562
425.9971, 1407.516
426.4792, 1418.089
426.9613, 1429.802
427.4435, 1443.121
427.9256, 1457.274
428.4077, 1471.268
428.8898, 1486.154
429.3719, 1498.987
429.8540, 1509.383
430.3362, 1517.258
430.8183, 1521.529
431.3004, 1521.816
431.7825, 1519.477
432.2646, 1515.867
432.7467, 1511.024
433.2289, 1502.900
433.7110, 1491.172
434.1931, 1476.356
434.6752, 1459.784
435.1573, 1441.304
435.6394, 1419.350
436.1216, 1391.475
436.6036, 1359.700
437.0858, 1329.152
437.5679, 1299.841
438.0500, 1269.998
438.5321, 1237.499
439.0142, 1203.525
439.4963, 1169.915
439.9785, 1136.403
440.4606, 1104.456
440.9427, 1076.337
441.4248, 1051.100
441.9069, 1026.308
442.3890, 999.8597
442.8712, 974.1426
443.3533, 950.9244
443.8354, 930.7787
444.3175, 911.1281
444.7996, 891.2897
445.2817, 871.6609
445.7639, 852.4875
446.2460, 832.5023
446.7281, 814.3234
447.2102, 798.9797
447.6923, 786.1371
448.1744, 774.0226
448.6566, 763.5471
449.1387, 752.7549
449.6208, 740.5130
450.1029, 725.5714
450.5850, 712.7942
451.0671, 703.0499
451.5493, 694.7350
452.0314, 685.4288
452.5135, 674.7621
452.9956, 665.0981
453.4777, 657.2626
453.9598, 650.9808
454.4420, 644.9537
454.9241, 639.2366
455.4062, 633.7579
455.8883, 628.6227
456.3704, 623.7578
456.8525, 618.9934
457.3347, 614.4967
457.8168, 609.7361
458.2989, 603.2899
458.7810, 595.9513
459.2631, 590.2646
459.7452, 589.3488
460.2274, 589.3624
460.7095, 585.2239
461.1916, 577.4894
461.6737, 570.8386
462.1558, 568.8566
462.6379, 568.7943
463.1201, 568.1978
463.6022, 566.5094
464.0843, 564.3914
464.5664, 561.0306
465.0485, 557.6110
465.5306, 556.0242
466.0128, 559.0276
466.4949, 561.6160
466.9770, 562.4963
467.4591, 561.5995
467.9412, 559.3365
468.4233, 554.2689
468.9055, 549.1085
469.3876, 545.4398
469.8697, 544.1888
470.3518, 542.4736
470.8339, 540.3004
471.3160, 537.5654
471.7982, 533.9784
472.2803, 529.4105
472.7624, 524.4409
473.2445, 518.9362
473.7266, 513.1588
474.2087, 509.1714
474.6909, 507.1709
475.1730, 505.3327
475.6551, 501.8382
476.1372, 497.1354
476.6193, 493.2088
477.1014, 490.5598
477.5836, 488.2018
478.0657, 484.9942
478.5478, 481.0869
479.0299, 476.9880
479.5120, 472.4445
479.9941, 468.0875
480.4763, 464.5878
480.9584, 461.8997
481.4405, 459.6337
481.9226, 457.8773
482.4047, 456.2855
482.8868, 454.5366
483.3690, 452.3866
483.8511, 450.5030
484.3332, 449.7836
484.8153, 449.3167
485.2974, 447.5968
485.7795, 442.7092
486.2617, 438.3814
486.7438, 435.4455
487.2259, 433.8794
487.7080, 432.7570
488.1901, 432.4163
488.6722, 432.0708
489.1544, 431.1187
489.6365, 429.2433
490.1186, 428.1234
490.6007, 428.0766
491.0828, 428.4078
491.5649, 427.9919
492.0471, 426.8035
492.5292, 425.4669
493.0113, 423.9867
493.4934, 422.6095
493.9755, 422.3255
494.4576, 423.0709
494.9398, 423.4727
495.4219, 422.1396
495.9040, 419.8435
496.3861, 418.0109
496.8682, 416.8058
497.3503, 415.9417
497.8325, 415.4529
498.3146, 415.0830
498.7967, 414.4236
499.2788, 413.0002
499.7609, 411.5626
500.2430, 410.5991
500.7252, 409.9910
501.2073, 409.1570
501.6894, 407.7149
502.1715, 406.2036
502.6536, 404.8234
503.1357, 403.5336
503.6179, 402.5983
504.1000, 402.2304
504.5821, 402.0755
505.0642, 401.7125
505.5463, 400.7353
506.0284, 400.5315
506.5106, 401.7885
506.9927, 403.7790
507.4748, 403.7661
507.9569, 401.2613
508.4390, 399.0862
508.9211, 399.0696
509.4033, 400.8542
509.8854, 401.3860
510.3675, 400.5726
510.8496, 399.2748
511.3317, 397.9913
511.8138, 396.8851
512.2960, 396.5161
512.7781, 397.2809
513.2602, 398.2269
513.7423, 398.6308
514.2244, 398.4528
514.7065, 397.5914
515.1887, 395.2551
515.6708, 392.8022
516.1529, 391.2201
516.6350, 390.5127
517.1171, 389.8067
517.5992, 388.4854
518.0814, 387.2811
518.5635, 386.6860
519.0456, 387.0428
519.5277, 387.5656
520.0098, 388.5623
520.4919, 389.5552
520.9741, 389.7400
521.4562, 388.5031
521.9383, 387.7252
522.4204, 388.1057
522.9025, 389.3375
523.3846, 389.3570
523.8668, 387.9398
524.3489, 386.2315
524.8310, 384.5816
525.3131, 383.0954
525.7952, 383.0966
526.2773, 384.8836
526.7595, 386.7105
527.2416, 386.2319
527.7237, 384.2075
528.2058, 382.6002
528.6879, 382.2679
529.1700, 382.2259
529.6522, 381.3775
530.1343, 380.0214
530.6164, 378.9922
531.0985, 378.8397
531.5806, 379.0532
532.0627, 379.4797
532.5449, 380.1308
533.0270, 380.4609
533.5091, 379.7236
533.9912, 378.9787
534.4733, 378.9941
534.9554, 380.9105
535.4376, 382.0475
535.9197, 382.1200
536.4018, 381.5405
536.8839, 381.0272
537.3660, 380.6693
537.8481, 380.0695
538.3303, 378.8956
538.8124, 377.3874
539.2945, 376.9966
539.7766, 377.8474
540.2587, 378.7644
540.7408, 378.9320
541.2230, 378.5065
541.7051, 377.9738
542.1872, 377.3423
542.6693, 376.8422
543.1514, 376.6660
543.6335, 376.7924
544.1157, 377.2016
544.5978, 378.1023
545.0799, 378.9813
545.5620, 379.5792
546.0441, 379.8800
546.5262, 379.8427
547.0084, 379.1317
547.4905, 378.3687
547.9726, 377.5689
548.4547, 376.6764
548.9368, 376.7691
549.4189, 379.3373
549.9011, 381.7593
550.3832, 382.3579
550.8653, 379.6835
551.3474, 378.7045
551.8295, 380.1855
552.3116, 382.5443
552.7938, 383.2533
553.2759, 382.0935
553.7580, 381.4723
554.2401, 382.3261
554.7222, 383.8704
555.2043, 383.8372
555.6865, 382.3860
556.1686, 381.2589
556.6507, 382.2323
557.1328, 383.9291
557.6149, 383.9883
558.0970, 382.2737
558.5792, 380.7242
559.0613, 380.8657
559.5434, 381.8023
560.0255, 382.6747
560.5076, 383.3829
560.9897, 383.8095
561.4719, 383.7654
561.9540, 383.4441
562.4361, 383.1685
562.9182, 383.0174
563.4003, 382.8715
563.8824, 382.7975
564.3646, 382.7404
564.8467, 382.2261
565.3288, 380.9205
565.8109, 379.8290
566.2930, 379.4439
566.7751, 379.7775
567.2573, 380.7414
567.7394, 382.5540
568.2215, 384.0133
568.7036, 383.0872
569.1857, 380.6159
569.6678, 380.1160
570.1500, 383.1555
570.6321, 386.3227
571.1142, 384.3339
571.5963, 379.4609
572.0784, 376.8246
572.5605, 381.4713
573.0427, 386.6072
573.5248, 388.0707
574.0069, 386.2304
574.4890, 384.1184
574.9711, 381.7734
575.4532, 380.1532
575.9354, 380.0493
576.4175, 382.2165
576.8996, 383.2833
577.3817, 382.5778
577.8638, 381.4207
578.3459, 380.8746
578.8281, 380.9066
579.3102, 381.9029
579.7923, 384.3367
580.2744, 387.1006
580.7565, 387.6925
581.2386, 386.2460
581.7208, 385.1723
582.2029, 385.5921
582.6850, 386.8051
583.1671, 387.7346
583.6492, 388.3723
584.1313, 388.6670
584.6134, 388.3359
585.0955, 387.8078
585.5776, 387.5033
586.0598, 387.4892
586.5419, 387.4682
587.0240, 387.2863
587.5061, 387.0630
587.9882, 386.8907
588.4703, 386.5591
588.9525, 386.6013
589.4346, 387.1359
589.9167, 387.9966
590.3988, 389.0504
590.8809, 390.6670
591.3630, 391.3964
591.8452, 390.5370
592.3273, 388.6567
592.8094, 387.9352
593.2915, 388.4066
593.7736, 389.4355
594.2557, 391.1740
594.7379, 393.1328
595.2200, 393.9428
595.7021, 393.5742
596.1842, 392.8051
596.6663, 391.9285
597.1484, 391.1480
597.6306, 390.6888
598.1127, 390.5848
598.5948, 390.8837
599.0769, 392.2320
599.5590, 393.7891
600.0411, 394.4993
600.5233, 393.1335
601.0054, 392.0819
601.4875, 391.5033
601.9696, 391.5099
602.4517, 392.7065
602.9338, 396.2017
603.4160, 398.4795
603.8981, 397.9179
604.3802, 394.8594
604.8623, 392.6378
605.3444, 391.1819
605.8265, 390.9764
606.3087, 393.5115
606.7908, 397.5354
607.2729, 399.1008
607.7550, 397.6017
608.2371, 396.0467
608.7192, 397.8213
609.2014, 400.9973
609.6835, 402.8172
610.1656, 401.4482
610.6477, 400.3099
611.1298, 401.0382
611.6119, 402.9703
612.0941, 404.9340
612.5762, 406.6827
613.0583, 408.4592
613.5404, 410.5968
614.0225, 412.8656
614.5046, 414.0641
614.9868, 413.6493
615.4689, 413.3803
615.9510, 414.1690
616.4331, 415.9513
616.9152, 417.5418
617.3973, 418.9640
617.8795, 419.9556
618.3616, 419.8712
618.8437, 419.1968
619.3258, 419.0479
619.8079, 419.5698
620.2900, 420.7027
620.7722, 423.0099
621.2543, 425.7231
621.7364, 427.7249
622.2185, 428.2288
622.7006, 428.5414
623.1827, 428.6448
623.6649, 428.8823
624.1470, 430.0833
624.6291, 432.9072
625.1112, 436.0154
625.5933, 439.1992
626.0754, 442.4382
626.5576, 445.5965
627.0397, 448.8151
627.5218, 451.4740
628.0039, 452.8624
628.4860, 453.1958
628.9681, 454.3600
629.4503, 456.3853
629.9324, 458.9804
630.4145, 462.5856
630.8966, 466.4293
631.3787, 468.9063
631.8608, 469.3425
632.3430, 470.0141
632.8251, 473.0716
633.3072, 477.0240
633.7893, 480.0764
634.2714, 480.4879
634.7535, 481.4176
635.2357, 483.8115
635.7178, 487.1349
636.1999, 490.1532
636.6820, 492.5540
637.1641, 495.1694
637.6462, 498.1978
638.1284, 501.5990
638.6105, 505.1424
639.0926, 508.8835
639.5747, 512.3539
640.0568, 515.0028
640.5389, 517.1699
641.0211, 519.5892
641.5032, 522.2717
641.9853, 525.6758
642.4674, 530.6326
642.9495, 536.2245
643.4316, 541.4983
643.9138, 546.2587
644.3959, 550.6805
644.8780, 554.6820
645.3601, 558.3870
645.8422, 561.8346
646.3243, 563.9700
646.8065, 567.3689
647.2886, 572.6793
647.7707, 578.9969
648.2528, 584.7599
648.7349, 589.7247
649.2170, 595.1083
649.6992, 601.3567
650.1813, 608.1953
650.6634, 615.2296
651.1455, 622.4067
651.6276, 629.4610
652.1097, 636.1537
652.5919, 642.7538
653.0740, 649.0389
653.5561, 655.2618
654.0382, 663.6279
654.5203, 677.5707
655.0024, 692.3005
655.4846, 704.7992
655.9667, 714.3230
656.4488, 723.1566
656.9309, 730.6857
657.4130, 738.2323
657.8951, 746.4981
658.3773, 754.7813
658.8594, 766.1298
659.3415, 781.6451
659.8236, 798.4106
660.3057, 811.6550
660.7878, 821.7902
661.2700, 835.0306
661.7521, 853.7915
662.2342, 873.9288
662.7163, 889.0902
663.1984, 901.3452
663.6805, 916.1094
664.1627, 937.6782
664.6448, 960.5685
665.1269, 981.5993
665.6090, 1001.341
666.0911, 1021.562
666.5732, 1042.144
667.0554, 1064.100
667.5375, 1088.337
668.0196, 1114.896
668.5017, 1139.452
668.9838, 1160.929
669.4659, 1183.245
669.9481, 1209.590
670.4302, 1239.411
670.9123, 1266.986
671.3944, 1292.107
671.8765, 1316.618
672.3586, 1342.271
672.8408, 1368.160
673.3229, 1392.680
673.8050, 1415.170
674.2871, 1438.252
674.7692, 1464.949
675.2513, 1492.405
675.7335, 1517.536
676.2156, 1537.408
676.6977, 1556.969
677.1798, 1577.167
677.6619, 1597.259
678.1440, 1616.597
678.6262, 1635.694
679.1083, 1652.893
679.5904, 1668.266
680.0725, 1681.345
680.5546, 1690.971
681.0367, 1697.309
681.5189, 1703.304
682.0010, 1711.149
682.4831, 1718.939
682.9652, 1724.621
683.4473, 1727.912
683.9294, 1728.055
684.4116, 1722.241
684.8937, 1715.027
685.3758, 1708.866
685.8579, 1704.015
686.3400, 1700.111
686.8221, 1698.292
687.3043, 1696.409
687.7864, 1693.096
688.2685, 1687.643
688.7506, 1684.763
689.2327, 1684.642
689.7148, 1686.575
690.1970, 1689.538
690.6791, 1693.826
691.1612, 1701.604
691.6433, 1713.374
692.1254, 1726.648
692.6075, 1739.054
693.0897, 1751.337
693.5718, 1764.581
694.0539, 1778.321
694.5360, 1794.459
695.0181, 1814.787
695.5002, 1837.888
695.9824, 1861.963
696.4645, 1885.989
696.9466, 1912.278
697.4287, 1942.338
697.9108, 1974.319
698.3929, 2003.134
698.8751, 2028.552
699.3572, 2054.229
699.8393, 2081.571
700.3214, 2110.140
700.8035, 2139.646
701.2856, 2169.742
701.7678, 2198.421
702.2499, 2226.818
702.7320, 2251.654
703.2141, 2269.052
703.6962, 2279.645
704.1783, 2288.100
704.6605, 2298.396
705.1426, 2304.982
705.6247, 2304.574
706.1068, 2296.799
706.5889, 2286.396
707.0710, 2274.570
707.5532, 2258.146
708.0353, 2234.981
708.5174, 2205.087
708.9995, 2169.482
709.4816, 2127.687
709.9637, 2082.902
710.4459, 2038.880
710.9280, 1993.680
711.4101, 1943.987
711.8922, 1888.216
712.3743, 1832.080
712.8564, 1777.951
713.3386, 1726.126
713.8207, 1675.997
714.3028, 1627.114
714.7849, 1581.368
715.2670, 1538.751
715.7491, 1498.871
716.2313, 1460.778
716.7134, 1425.206
717.1955, 1389.262
717.6776, 1351.473
718.1597, 1314.482
718.6418, 1283.310
719.1240, 1257.333
719.6061, 1232.915
720.0882, 1209.016
720.5703, 1186.080
721.0524, 1164.843
721.5345, 1145.181
722.0167, 1126.787
722.4988, 1108.714
722.9809, 1092.785
723.4630, 1080.746
723.9451, 1071.919
724.4272, 1062.513
724.9094, 1052.451
725.3915, 1042.097
725.8736, 1031.172
726.3557, 1020.175
726.8378, 1011.465
727.3199, 1004.993
727.8021, 999.6545
728.2842, 995.4821
728.7663, 991.6421
729.2484, 986.1382
729.7305, 979.2384
730.2126, 973.8766
730.6948, 972.5578
731.1769, 972.6742
731.6590, 972.9470
732.1411, 973.4598
732.6232, 972.3641
733.1053, 967.9720
733.5875, 963.7734
734.0696, 961.8990
734.5517, 962.5815
735.0338, 963.8859
735.5159, 965.9739
735.9980, 968.0748
736.4802, 969.5193
736.9623, 970.4119
737.4444, 970.6740
737.9265, 970.1431
738.4086, 970.4128
738.8907, 973.4681
739.3729, 977.6232
739.8550, 981.0812
740.3371, 983.5519
740.8192, 985.1854
741.3013, 984.8784
741.7834, 984.4135
742.2656, 985.3553
742.7477, 987.5862
743.2298, 991.8987
743.7119, 998.9341
744.1940, 1006.768
744.6761, 1011.908
745.1583, 1015.087
745.6404, 1019.989
746.1225, 1028.236
746.6046, 1036.953
747.0867, 1042.655
747.5688, 1047.051
748.0510, 1052.967
748.5331, 1064.179
749.0152, 1073.902
749.4973, 1078.567
749.9794, 1080.923
750.4615, 1086.434
750.9437, 1096.076
751.4258, 1106.507
751.9079, 1117.649
752.3900, 1128.562
752.8721, 1136.943
753.3542, 1142.859
753.8364, 1148.276
754.3185, 1153.705
754.8006, 1159.257
755.2827, 1164.480
755.7648, 1169.834
756.2469, 1176.520
756.7291, 1185.743
757.2112, 1195.649
757.6933, 1206.044
758.1754, 1216.624
758.6575, 1226.420
759.1396, 1235.402
759.6218, 1243.362
760.1039, 1249.608
760.5860, 1254.868
761.0681, 1263.560
761.5502, 1275.567
762.0323, 1287.620
762.5145, 1297.680
762.9966, 1306.902
763.4787, 1316.256
763.9608, 1326.011
764.4429, 1337.527
764.9250, 1352.537
765.4072, 1368.524
765.8893, 1384.536
766.3714, 1400.667
766.8535, 1415.204
767.3356, 1425.651
767.8177, 1439.064
768.2999, 1459.931
768.7820, 1487.289
769.2641, 1511.795
769.7462, 1533.271
770.2283, 1553.503
770.7104, 1571.470
771.1926, 1590.108
771.6747, 1613.515
772.1568, 1641.724
772.6389, 1673.389
773.1210, 1709.430
773.6031, 1747.430
774.0853, 1786.010
774.5674, 1825.074
775.0495, 1864.868
775.5316, 1904.594
776.0137, 1946.638
776.4958, 1993.302
776.9780, 2044.453
777.4601, 2095.427
777.9422, 2146.062
778.4243, 2202.173
778.9064, 2272.237
779.3885, 2349.647
779.8707, 2426.610
780.3528, 2502.018
780.8349, 2579.710
781.3170, 2656.065
781.7991, 2738.224
782.2812, 2832.022
782.7633, 2939.643
783.2454, 3051.026
783.7275, 3163.195
784.2097, 3280.435
784.6918, 3406.027
785.1739, 3538.806
785.6560, 3677.857
786.1381, 3823.720
786.6202, 3975.754
787.1024, 4134.137
787.5845, 4298.875
788.0666, 4466.365
788.5487, 4636.730
789.0308, 4814.474
789.5129, 5006.858
789.9951, 5205.908
790.4772, 5402.124
790.9593, 5591.555
791.4414, 5796.427
791.9235, 6023.250
792.4056, 6256.731
792.8878, 6484.722
793.3699, 6708.250
793.8520, 6938.683
794.3341, 7180.880
794.8162, 7420.248
795.2983, 7656.319
795.7805, 7882.278
796.2626, 8096.367
796.7447, 8300.815
797.2268, 8479.117
797.7089, 8630.061
798.1910, 8752.623
798.6732, 8846.397
799.1553, 8915.601
799.6374, 8946.003
800.1195, 8937.080
800.6016, 8890.849
801.0837, 8802.042
801.5659, 8677.162
802.0480, 8532.455
802.5301, 8370.294
803.0122, 8198.676
803.4943, 8007.904
803.9764, 7817.675
804.4586, 7645.284
804.9407, 7490.729
805.4228, 7362.487
805.9049, 7256.376
806.3870, 7179.156
806.8691, 7134.105
807.3513, 7121.511
807.8334, 7141.241
808.3155, 7192.982
808.7976, 7278.462
809.2797, 7399.239
809.7618, 7555.779
810.2440, 7745.898
810.7261, 7969.539
811.2082, 8230.246
811.6903, 8522.180
812.1724, 8858.218
812.6545, 9246.498
813.1367, 9691.521
813.6188, 10187.49
814.1009, 10730.27
814.5830, 11321.76
815.0651, 11961.94
815.5472, 12650.80
816.0294, 13395.01
816.5115, 14190.31
816.9936, 15026.31
817.4757, 15875.34
817.9578, 16755.67
818.4399, 17687.75
818.9221, 18666.29
819.4042, 19698.18
819.8863, 20787.57
820.3684, 21931.37
820.8505, 23129.37
821.3326, 24382.36
821.8148, 25714.82
822.2969, 27129.63
822.7790, 28601.39
823.2611, 30107.04
823.7432, 31637.04
824.2253, 33163.75
824.7075, 34678.54
825.1896, 36130.20
825.6717, 37540.46
826.1538, 38826.88
826.6359, 39953.19
827.1180, 40934.35
827.6002, 41563.18
828.0823, 41847.25
828.5644, 41768.70
829.0465, 41306.98
829.5286, 40470.77
830.0107, 39274.59
830.4929, 37722.84
830.9750, 35894.57
831.4571, 33769.86
831.9392, 31462.16
832.4213, 29119.63
832.9034, 26786.88
833.3856, 24545.38
833.8677, 22416.37
834.3498, 20443.81
834.8319, 18640.27
835.3140, 17004.48
835.7961, 15533.40
836.2783, 14236.23
836.7604, 13078.16
837.2425, 12053.60
837.7246, 11152.11
838.2067, 10342.37
838.6888, 9616.154
839.1710, 8960.250
839.6531, 8372.372
840.1352, 7841.544
840.6173, 7372.664
841.0994, 6960.559
841.5815, 6581.753
842.0637, 6229.212
842.5458, 5907.618
843.0279, 5621.302
843.5100, 5367.528
843.9921, 5128.947
844.4742, 4907.453
844.9564, 4703.250
845.4385, 4519.397
845.9206, 4351.579
846.4027, 4193.466
846.8848, 4045.825
847.3669, 3911.105
847.8491, 3794.436
848.3312, 3686.807
848.8133, 3583.772
849.2954, 3485.854
849.7775, 3397.532
850.2596, 3319.063
850.7418, 3247.948
851.2239, 3184.382
851.7060, 3126.338
852.1881, 3070.312
852.6702, 3016.245
853.1523, 2966.283
853.6345, 2920.859
854.1166, 2879.457
854.5987, 2842.179
855.0808, 2808.659
855.5629, 2777.466
856.0450, 2749.924
856.5272, 2722.778
857.0093, 2695.743
857.4914, 2669.357
857.9735, 2644.232
858.4556, 2620.687
858.9377, 2600.256
859.4199, 2584.395
859.9020, 2569.815
860.3841, 2553.897
860.8662, 2536.870
861.3483, 2518.628
861.8304, 2498.735
862.3126, 2478.802
862.7947, 2461.610
863.2768, 2443.022
863.7589, 2419.129
864.2410, 2388.930
864.7231, 2357.204
865.2053, 2323.776
865.6874, 2289.334
866.1695, 2254.978
866.6516, 2219.536
867.1337, 2179.898
867.6158, 2135.185
868.0980, 2089.886
868.5801, 2042.736
869.0622, 1998.014
869.5443, 1960.576
870.0264, 1932.634
870.5085, 1898.433
870.9907, 1856.359
871.4728, 1813.523
871.9549, 1775.369
872.4370, 1741.213
872.9191, 1708.421
873.4012, 1676.699
873.8834, 1646.620
874.3655, 1619.929
874.8476, 1593.851
875.3297, 1565.944
875.8118, 1536.207
876.2939, 1506.312
876.7761, 1474.757
877.2582, 1445.913
877.7403, 1421.980
878.2224, 1401.885
878.7045, 1381.077
879.1866, 1359.548
879.6688, 1338.334
880.1509, 1317.495
880.6330, 1297.638
881.1151, 1280.098
881.5972, 1264.022
882.0793, 1247.302
882.5615, 1227.376
883.0436, 1209.033
883.5257, 1193.788
884.0078, 1180.401
884.4899, 1166.163
884.9720, 1151.046
885.4542, 1135.602
885.9363, 1119.531
886.4184, 1104.125
886.9005, 1091.840
887.3826, 1081.183
887.8647, 1069.526
888.3469, 1054.715
888.8290, 1041.098
889.3111, 1031.086
889.7932, 1022.382
890.2753, 1012.485
890.7574, 1000.791
891.2396, 990.7323
891.7217, 982.8021
892.2038, 975.0432
892.6859, 964.7524
893.1680, 953.2111
893.6501, 943.0615
894.1323, 934.6786
894.6144, 926.5057
895.0965, 917.3942
895.5786, 908.4087
896.0607, 900.2081
896.5428, 892.8073
897.0250, 886.0602
897.5071, 880.3081
897.9892, 874.1373
898.4713, 865.6608
898.9534, 856.2157
899.4355, 850.2157
899.9177, 847.1481
900.3998, 843.1105
900.8819, 834.9950
901.3640, 826.1159
901.8461, 817.6524
902.3282, 810.0267
902.8104, 804.8927
903.2925, 803.9067
903.7746, 801.4447
904.2567, 795.6370
904.7388, 787.6708
905.2209, 779.5985
905.7031, 771.6857
906.1852, 765.0997
906.6673, 760.9899
907.1494, 757.1617
907.6315, 751.6029
908.1136, 745.5482
908.5958, 741.0612
909.0779, 739.9946
909.5600, 737.3521
910.0421, 732.4138
910.5242, 726.6085
911.0063, 721.2258
911.4885, 716.4186
911.9706, 712.9774
912.4527, 711.1259
912.9348, 709.8513
913.4169, 708.7423
913.8990, 707.5914
914.3812, 706.0457
914.8633, 703.7716
915.3454, 702.5189
915.8275, 702.7422
916.3096, 703.2386
916.7917, 703.2045
917.2739, 702.7827
917.7560, 703.2107
918.2381, 704.3901
918.7202, 705.2109
919.2023, 704.8077
919.6844, 703.8722
920.1666, 702.9440
920.6487, 701.9765
921.1308, 700.5768
921.6129, 698.0364
922.0950, 696.1816
922.5771, 695.6328
923.0593, 695.8948
923.5414, 695.8558
924.0235, 695.5363
924.5056, 695.0458
924.9877, 694.5633
925.4698, 693.6656
925.9520, 691.6425
926.4341, 689.0983
926.9162, 686.8966
927.3983, 686.1163
927.8804, 684.3532
928.3625, 681.6357
928.8447, 677.8953
929.3268, 672.4773
929.8089, 665.7409
930.2910, 660.2509
930.7731, 656.2064
931.2552, 652.8240
931.7374, 649.5861
932.2195, 646.5243
932.7016, 643.7731
933.1837, 641.4211
933.6658, 638.5004
934.1479, 635.0308
934.6301, 630.8377
935.1122, 625.5672
935.5943, 619.5725
936.0764, 614.4787
936.5585, 610.1393
937.0406, 605.7791
937.5228, 600.9750
938.0049, 595.9310
938.4870, 590.3007
938.9691, 584.5772
939.4512, 580.0389
939.9333, 578.0063
940.4155, 574.9559
940.8976, 570.2388
941.3797, 564.6890
941.8618, 559.2363
942.3439, 554.0520
942.8260, 550.3377
943.3082, 548.4621
943.7903, 546.8405
944.2724, 544.7364
944.7545, 541.9970
945.2366, 538.4241
945.7188, 533.8577
946.2009, 528.6299
946.6830, 522.1765
947.1651, 516.2564
947.6472, 512.3309
948.1293, 509.9258
948.6115, 506.9147
949.0936, 503.4164
949.5757, 500.2199
950.0578, 498.2611
950.5399, 496.3689
951.0220, 493.7930
951.5042, 490.6755
951.9863, 487.7001
952.4684, 484.8243
952.9505, 482.2235
953.4326, 479.8752
953.9147, 477.9288
954.3969, 477.1242
954.8790, 476.8960
955.3611, 475.4755
955.8432, 471.7276
956.3253, 468.4871
956.8074, 467.9106
957.2896, 468.1327
957.7717, 467.2833
958.2538, 464.9581
958.7359, 462.6911
959.2180, 460.3098
959.7001, 458.7393
960.1823, 459.5458
960.6644, 461.4260
961.1465, 461.6563
961.6286, 460.2733
962.1107, 458.5032
962.5928, 456.8409
963.0750, 454.9839
963.5571, 452.3541
964.0392, 449.4216
964.5213, 448.3053
965.0034, 449.2736
965.4855, 449.7405
965.9677, 449.0363
966.4498, 447.2875
966.9319, 443.2521
967.4140, 438.6698
967.8961, 436.8704
968.3782, 440.9714
968.8604, 443.7839
969.3425, 443.1758
969.8246, 441.4691
970.3067, 440.5351
970.7888, 440.4192
971.2709, 439.7833
971.7531, 438.5721
972.2352, 437.0118
972.7173, 433.9448
973.1994, 431.5439
973.6815, 433.1374
974.1636, 438.3448
974.6458, 441.3080
975.1279, 439.8056
975.6100, 437.4967
976.0921, 434.8505
976.5742, 432.4226
977.0563, 432.4318
977.5385, 434.3734
978.0206, 435.0378
978.5027, 432.6650
978.9848, 430.0265
979.4669, 429.5037
979.9490, 429.8522
980.4311, 429.4263
980.9132, 427.2765
981.3953, 426.2287
981.8774, 426.7805
982.3596, 427.1960
982.8417, 425.4813
983.3238, 422.4305
983.8059, 420.5040
984.2880, 419.7315
984.7701, 419.0530
985.2523, 418.3770
985.7344, 417.1392
986.2165, 414.6331
986.6986, 411.2457
987.1807, 408.3395
987.6628, 405.8061
988.1450, 404.7435
988.6271, 406.0894
989.1092, 407.8158
989.5913, 406.4148
990.0734, 403.3310
990.5555, 401.2978
991.0377, 401.8995
991.5198, 401.9477
992.0019, 400.5648
992.4840, 398.4949
992.9661, 395.9086
993.4482, 392.7458
993.9304, 391.3590
994.4125, 391.8090
994.8946, 392.3317
995.3767, 391.1461
995.8588, 389.8137
996.3409, 390.1959
996.8231, 391.9576
997.3052, 392.6519
997.7873, 391.2679
998.2694, 389.9554
998.7515, 388.9903
999.2336, 388.5757
999.7158, 389.7756
1000.198, 391.9791
1000.680, 392.7295
1001.162, 390.9523
1001.644, 389.0736
1002.126, 389.0667
1002.608, 389.3933
1003.091, 388.4954
1003.573, 385.9648
1004.055, 384.4271
1004.537, 383.9380
1005.019, 384.1262
1005.501, 385.3358
1005.983, 386.7542
1006.465, 386.8015
1006.948, 385.7770
1007.430, 384.8498
1007.912, 384.7800
1008.394, 384.4825
1008.876, 383.2592
1009.358, 381.9568
1009.840, 382.4896
1010.322, 384.7744
1010.804, 385.6755
1011.287, 384.4484
1011.769, 383.1330
1012.251, 384.2012
1012.733, 385.8161
1013.215, 385.8783
1013.697, 383.7026
1014.179, 382.7823
1014.661, 383.5678
1015.143, 384.8981
1015.626, 386.6498
1016.108, 388.3007
1016.590, 387.8443
1017.072, 385.7974
1017.554, 384.0640
1018.036, 383.4439
1018.518, 383.4235
1019.000, 384.2176
1019.483, 385.3018
1019.965, 385.9894
1020.447, 386.2539
1020.929, 386.1785
1021.411, 385.7179
1021.893, 385.2514
1022.375, 384.5475
1022.857, 384.3975
1023.339, 386.6197
1023.822, 391.1653
1024.304, 393.6735
1024.786, 391.4731
1025.268, 389.3260
1025.750, 388.6470
1026.232, 388.9132
1026.714, 388.6858
1027.196, 388.0881
1027.679, 387.7855
1028.161, 388.1890
1028.643, 388.4885
1029.125, 387.6802
1029.607, 386.7667
1030.089, 386.9807
1030.571, 388.8458
1031.053, 389.5984
1031.536, 388.9130
1032.018, 388.6679
1032.500, 391.2004
1032.982, 394.5360
1033.464, 395.0060
1033.946, 393.2185
1034.428, 391.9998
1034.910, 392.6585
1035.392, 393.7679
1035.875, 395.5141
1036.357, 397.0444
1036.839, 396.3233
1037.321, 393.6979
1037.803, 392.5364
1038.285, 393.5530
1038.767, 394.7530
1039.249, 394.9206
1039.731, 394.2980
1040.214, 392.7180
1040.696, 390.1152
1041.178, 388.7621
1041.660, 389.0627
1042.142, 389.0575
1042.624, 387.4182
1043.106, 385.4878
1043.588, 386.3447
1044.071, 388.7198
1044.553, 389.7104
1045.035, 386.8927
1045.517, 384.7830
1045.999, 384.7165
1046.481, 385.1500
1046.963, 384.6012
1047.445, 383.1540
1047.927, 382.1552
1048.410, 381.6395
1048.892, 381.4207
1049.374, 381.5605
1049.856, 381.7675
1050.338, 381.9965
1050.820, 382.1202
1051.302, 381.6299
1051.784, 380.2602
1052.266, 379.2224
1052.749, 378.8317
1053.231, 378.6514
1053.713, 378.2831
1054.195, 377.6351
1054.677, 376.2993
1055.159, 373.9456
1055.641, 372.5123
1056.123, 373.3897
1056.606, 374.3199
1057.088, 374.3668
1057.570, 373.6136
1058.052, 372.3269
1058.534, 370.6050
1059.016, 369.0148
1059.498, 367.2966
1059.980, 366.4911
1060.463, 368.2515
1060.945, 370.8686
1061.427, 371.9154
1061.909, 371.0218
1062.391, 369.5792
1062.873, 367.5140
1063.355, 365.6236
1063.837, 364.5757
1064.319, 364.1398
1064.802, 364.2379
1065.284, 364.7381
1065.766, 364.9670
1066.248, 364.5991
1066.730, 364.1458
1067.212, 363.7764
1067.694, 363.2578
1068.176, 361.7108
1068.658, 359.6072
1069.141, 359.0182
1069.623, 360.5732
1070.105, 361.8649
1070.587, 361.2426
1071.069, 360.1003
1071.551, 359.3357
1072.033, 358.9399
1072.515, 358.4368
1072.998, 357.8177
1073.480, 357.6186
1073.962, 358.4351
1074.444, 359.2407
1074.926, 358.6916
1075.408, 357.4626
1075.890, 356.6211
1076.372, 356.7553
1076.854, 356.3731
1077.337, 355.0994
1077.819, 354.3125
1078.301, 355.8026
1078.783, 358.4294
1079.265, 359.6276
1079.747, 359.4323
1080.229, 358.4028
1080.711, 355.7867
1081.193, 353.6031
1081.676, 352.2515
1082.158, 351.6711
1082.640, 351.9503
1083.122, 353.0116
1083.604, 354.2018
1084.086, 355.4509
1084.568, 356.5117
1085.050, 357.4965
1085.532, 357.9733
1086.015, 357.2584
1086.497, 355.5549
1086.979, 354.9792
1087.461, 355.9119
1087.943, 355.2704
1088.425, 351.4863
1088.907, 346.9323
1089.389, 344.4573
1089.872, 343.3186
1090.354, 342.4813
1090.836, 341.7791
1091.318, 341.2365
1091.800, 340.6893
1092.282, 340.6367
1092.764, 341.9944
1093.246, 343.8680
1093.729, 343.0859
1094.211, 340.3147
1094.693, 338.0873
1095.175, 337.5990
1095.657, 337.6682
1096.139, 338.5655
1096.621, 339.3374
1097.103, 338.4561
1097.585, 336.0614
1098.068, 336.0975
1098.550, 338.7284
1099.032, 340.7995
1099.514, 339.0738
1099.996, 336.9417
1100.478, 337.1531
1100.960, 338.8964
1101.442, 338.8224
1101.924, 336.5683
1102.407, 334.4896
1102.889, 332.8954
1103.371, 332.0641
1103.853, 332.9302
1104.335, 334.3489
1104.817, 334.9171
1105.299, 334.3603
1105.781, 333.9688
1106.264, 334.0566
1106.746, 333.7501
1107.228, 332.4660
1107.710, 330.9120
1108.192, 330.6565
1108.674, 331.2407
1109.156, 331.6381
1109.638, 331.5559
1110.120, 331.2172
1110.603, 330.4479
1111.085, 329.7207
1111.567, 329.3189
1112.049, 329.2199
1112.531, 329.4285
1113.013, 329.8415
1113.495, 329.8178
1113.977, 328.1010
1114.459, 326.9199
1114.942, 328.2702
1115.424, 330.2457
1115.906, 330.0766
1116.388, 327.4372
1116.870, 326.4950
1117.352, 327.5219
1117.834, 328.7177
1118.316, 328.7808
1118.799, 328.3158
1119.281, 327.6017
1119.763, 326.7744
1120.245, 326.2800
1120.727, 326.1442
1121.209, 326.3231
1121.691, 326.8746
1122.173, 327.4732
1122.656, 327.2440
1123.138, 327.0867
1123.620, 328.8115
1124.102, 332.7084
1124.584, 334.3921
1125.066, 332.2092
1125.548, 330.4126
1126.030, 330.5338
1126.512, 331.4899
1126.995, 331.0903
1127.477, 329.8140
1127.959, 328.6955
1128.441, 327.8592
1128.923, 327.6731
1129.405, 328.7419
1129.887, 329.9433
1130.369, 330.7349
1130.851, 331.1981
1131.334, 331.6968
1131.816, 332.2348
1132.298, 332.8724
1132.780, 333.8230
1133.262, 334.5693
1133.744, 334.9190
1134.226, 334.8977
1134.708, 334.3853
1135.191, 333.3141
1135.673, 333.0042
1136.155, 333.4323
1136.637, 333.9117
1137.119, 334.3482
1137.601, 334.3448
1138.083, 333.2773
1138.565, 331.6611
1139.047, 330.5400
1139.530, 329.8768
1140.012, 329.9726
1140.494, 330.8969
1140.976, 332.1816
1141.458, 333.7617
1141.940, 335.2104
1142.422, 335.9271
1142.904, 336.0363
1143.386, 336.3984
1143.869, 337.1742
1144.351, 337.8908
1144.833, 338.4973
1145.315, 338.8995
1145.797, 339.0568
1146.279, 338.8833
1146.761, 338.0754
1147.243, 336.5844
1147.726, 335.5268
1148.208, 335.0655
1148.690, 335.0030
1149.172, 335.3135
1149.654, 335.9440
1150.136, 336.9667
1150.618, 338.1744
1151.100, 339.1321
1151.583, 339.6808
1152.065, 340.2526
1152.547, 341.7258
1153.029, 342.0653
1153.511, 339.6108
1153.993, 335.6985
1154.475, 335.1304
1154.957, 336.9418
1155.439, 337.8753
1155.922, 336.3799
1156.404, 334.6998
1156.886, 332.6877
1157.368, 331.7426
1157.850, 333.7051
1158.332, 337.9511
1158.814, 337.3906
1159.296, 332.8638
1159.778, 329.8320
1160.261, 333.8941
1160.743, 336.9400
1161.225, 333.1875
1161.707, 327.7829
1162.189, 326.5099
1162.671, 329.5035
1163.153, 330.0440
1163.635, 328.0402
1164.118, 326.1006
1164.600, 326.3738
1165.082, 326.8947
1165.564, 326.1378
1166.046, 324.9029
1166.528, 325.0336
1167.010, 326.8546
1167.492, 326.5338
1167.974, 323.6071
1168.457, 320.6093
1168.939, 319.8620
1169.421, 319.6740
1169.903, 318.3846
1170.385, 316.4390
1170.867, 316.1445
1171.349, 317.9622
1171.831, 318.4791
1172.313, 316.9360
1172.796, 315.1076
1173.278, 314.6478
1173.760, 314.9294
1174.242, 315.5075
1174.724, 316.3148
1175.206, 317.0829
1175.688, 317.9911
1176.170, 317.9041
1176.653, 316.3002
1177.135, 314.3211
1177.617, 312.9002
1178.099, 312.2492
1178.581, 313.1546
1179.063, 315.9943
1179.545, 316.5527
1180.027, 313.9022
1180.510, 311.9986
1180.992, 312.6750
1181.474, 314.1002
1181.956, 313.1008
1182.438, 311.1679
1182.920, 310.9062
1183.402, 313.6596
1183.884, 314.3777
1184.366, 312.0773
1184.849, 310.1282
1185.331, 310.6276
1185.813, 311.9564
1186.295, 310.5533
1186.777, 307.8942
1187.259, 306.8489
1187.741, 309.2963
1188.223, 310.7601
1188.705, 310.7927
1189.188, 310.3693
1189.670, 310.0508
1190.152, 309.7490
1190.634, 309.1256
1191.116, 308.3715
1191.598, 307.9512
1192.080, 308.5928
1192.562, 308.5728
1193.045, 307.4557
1193.527, 306.4175
1194.009, 306.5777
1194.491, 307.4657
1194.973, 308.2368
1195.455, 308.7822
1195.937, 308.7949
1196.419, 308.0636
1196.901, 306.7787
1197.384, 304.5495
1197.866, 302.5991
1198.348, 302.1192
1198.830, 302.7719
1199.312, 304.2444
1199.794, 306.2145
1200.276, 307.2819
1200.758, 306.3062
1201.240, 305.1501
1201.723, 304.0611
1202.205, 302.9763
1202.687, 301.3644
1203.169, 299.8323
1203.651, 300.5901
1204.133, 303.3747
1204.615, 304.7825
1205.097, 302.2771
1205.580, 299.8686
1206.062, 298.0958
1206.544, 297.0880
1207.026, 297.6270
1207.508, 298.9503
1207.990, 299.0275
1208.472, 297.7111
1208.954, 296.4075
1209.437, 294.8834
1209.919, 294.6045
1210.401, 296.4036
1210.883, 298.8322
1211.365, 299.2354
1211.847, 298.4150
1212.329, 298.5132
1212.811, 299.8605
1213.293, 300.4447
1213.776, 298.2401
1214.258, 297.1705
1214.740, 298.8268
1215.222, 301.4101
1215.704, 301.3335
1216.186, 299.4737
1216.668, 297.6006
1217.150, 295.9445
1217.632, 295.2212
1218.115, 296.2277
1218.597, 297.3011
1219.079, 297.9920
1219.561, 298.3208
1220.043, 298.3971
1220.525, 298.1448
1221.007, 297.1867
1221.489, 295.1999
1221.972, 294.1215
1222.454, 294.9322
1222.936, 295.6312
1223.418, 295.3245
1223.900, 294.6208
1224.382, 295.3997
1224.864, 296.6489
1225.346, 295.9751
1225.828, 292.1563
1226.311, 289.3125
1226.793, 288.2889
1227.275, 287.7549
1227.757, 287.1330
1228.239, 286.6148
1228.721, 286.9076
1229.203, 287.5336
1229.685, 287.4610
1230.167, 286.1534
1230.650, 285.0263
1231.132, 284.0330
1231.614, 283.7176
1232.096, 285.0009
1232.578, 286.4075
1233.060, 284.3425
1233.542, 280.4562
1234.024, 277.9921
1234.507, 278.4959
1234.989, 278.3495
1235.471, 277.2047
1235.953, 276.0304
1236.435, 275.2022
1236.917, 274.8555
1237.399, 275.9222
1237.881, 277.4183
1238.364, 277.4327
1238.846, 274.4496
1239.328, 272.8205
1239.810, 272.8617
1240.292, 273.0516
1240.774, 272.3596
1241.256, 271.3939
1241.738, 271.0185
1242.220, 270.9514
1242.703, 270.6792
1243.185, 270.1105
1243.667, 269.3393
1244.149, 268.3226
1244.631, 267.3708
1245.113, 266.6368
1245.595, 266.1364
1246.077, 265.8660
1246.559, 265.8619
1247.042, 266.3123
1247.524, 267.5920
1248.006, 267.8108
1248.488, 266.9192
1248.970, 265.6064
1249.452, 263.6810
1249.934, 262.1788
1250.416, 262.8181
1250.899, 264.1228
1251.381, 263.4256
1251.863, 259.9045
1252.345, 259.6432
1252.827, 262.6802
1253.309, 264.9618
1253.791, 262.5870
1254.273, 259.8388
1254.755, 259.9447
1255.238, 261.2413
1255.720, 261.2395
1256.202, 259.8561
1256.684, 259.2673
1257.166, 259.4808
1257.648, 259.8770
1258.130, 260.1958
1258.612, 260.4590
1259.094, 261.0571
1259.577, 261.3068
1260.059, 260.1076
1260.541, 257.6500
1261.023, 256.7208
1261.505, 257.1729
1261.987, 257.2813
1262.469, 255.5360
1262.951, 254.0260
1263.434, 253.4539
1263.916, 253.3559
1264.398, 253.5208
1264.880, 253.7734
1265.362, 253.0626
1265.844, 251.5880
1266.326, 250.5677
1266.808, 250.5250
1267.291, 251.2220
1267.773, 253.3584
1268.255, 254.8125
1268.737, 252.4126
1269.219, 248.0685
1269.701, 246.7290
1270.183, 247.8787
1270.665, 248.8542
1271.147, 248.3107
1271.630, 248.4171
1272.112, 249.5827
1272.594, 250.6716
1273.076, 250.5107
1273.558, 249.6576
1274.040, 248.5697
1274.522, 247.5476
1275.004, 247.5722
1275.486, 249.7311
1275.969, 250.3108
1276.451, 248.9185
1276.933, 246.8896
1277.415, 244.8005
1277.897, 243.1712
1278.379, 242.8813
1278.861, 243.4700
1279.343, 243.7771
1279.825, 243.6872
1280.308, 243.3730
1280.790, 242.7819
1281.272, 243.2112
1281.754, 247.9636
1282.236, 251.6721
1282.718, 248.9906
1283.200, 243.4045
1283.682, 240.7115
1284.165, 240.9763
1284.647, 241.4403
1285.129, 241.9822
1285.611, 242.6630
1286.093, 244.3789
1286.575, 245.2029
1287.057, 243.4684
1287.539, 241.0750
1288.021, 239.9418
1288.504, 239.9237
1288.986, 240.3017
1289.468, 240.9757
1289.950, 241.5359
1290.432, 241.1490
1290.914, 241.7085
1291.396, 244.2999
1291.878, 246.5814
1292.360, 245.6856
1292.843, 243.0133
1293.325, 242.0581
1293.807, 242.4699
1294.289, 242.7186
1294.771, 242.3701
1295.253, 241.5776
1295.735, 240.0920
1296.217, 238.9995
1296.700, 239.6274
1297.182, 240.9043
1297.664, 241.3459
1298.146, 241.2148
1298.628, 241.2768
1299.110, 241.6686
1299.592, 242.2704
1300.074, 243.1355
1300.557, 243.5422
1301.039, 242.7728
1301.521, 241.5493
1302.003, 240.1172
1302.485, 238.8304
1302.967, 238.1415
1303.449, 238.1881
##END=



