##NAMES=Mozartite
##RRUFFID=R070265
##IDEAL CHEMISTRY=CaMn^3+^SiO_4_(OH)
##LOCALITY=Wessels mine, Kalahari Manganese Field, South Africa
##OWNER=RRUFF
##SOURCE=Michael Scott
##DESCRIPTION=Red to very dark red short prismatic striated crystals associated with datolite, calcite, hausmannite, and pectolite
##STATUS=The identification of this mineral is confirmed by single-crystal X-ray diffraction and chemical analysis.
##URL=rruff.info/R070265
##MEASURED CHEMISTRY=Ca_1.00_Mn^3+^_1.00_Si_1.00_O_4_(OH); = dark phase, trace amounts of Fe and Al; OH estimated by charge balance : Mn^2+^Mn^3+^_2_O_4_ (light phase = hausmannite)
130.3772, 672.3977
130.8593, 698.2995
131.3414, 721.1116
131.8235, 736.2069
132.3056, 742.2877
132.7877, 745.6822
133.2699, 753.6810
133.7520, 766.4509
134.2341, 781.2567
134.7162, 797.4174
135.1983, 815.0009
135.6804, 832.2797
136.1626, 848.1864
136.6447, 864.9623
137.1268, 887.8170
137.6089, 918.1214
138.0910, 949.0959
138.5731, 977.2753
139.0553, 1003.281
139.5374, 1024.940
140.0195, 1040.834
140.5016, 1052.429
140.9837, 1064.840
141.4658, 1078.869
141.9480, 1092.642
142.4301, 1105.550
142.9122, 1120.334
143.3943, 1127.835
143.8764, 1122.362
144.3585, 1104.469
144.8407, 1100.727
145.3228, 1118.825
145.8049, 1145.290
146.2870, 1167.666
146.7691, 1183.409
147.2512, 1198.019
147.7334, 1211.670
148.2155, 1223.797
148.6976, 1238.044
149.1797, 1248.569
149.6618, 1262.993
150.1439, 1291.131
150.6261, 1356.923
151.1082, 1414.617
151.5903, 1448.826
152.0724, 1442.527
152.5545, 1450.180
153.0366, 1484.620
153.5188, 1535.241
154.0009, 1580.996
154.4830, 1624.018
154.9651, 1658.240
155.4472, 1680.813
155.9293, 1684.212
156.4115, 1686.501
156.8936, 1688.090
157.3757, 1690.546
157.8578, 1699.212
158.3399, 1723.623
158.8221, 1750.122
159.3042, 1770.052
159.7863, 1778.821
160.2684, 1783.174
160.7505, 1779.238
161.2326, 1769.186
161.7148, 1770.217
162.1969, 1802.767
162.6790, 1844.928
163.1611, 1875.159
163.6432, 1872.213
164.1253, 1867.138
164.6075, 1879.349
165.0896, 1909.646
165.5717, 1936.624
166.0538, 1943.287
166.5359, 1939.982
167.0180, 1941.549
167.5002, 1964.719
167.9823, 1988.497
168.4644, 1996.701
168.9465, 1987.213
169.4286, 1968.640
169.9107, 1948.814
170.3929, 1924.682
170.8750, 1889.239
171.3571, 1829.251
171.8392, 1760.706
172.3213, 1701.469
172.8034, 1656.177
173.2856, 1614.267
173.7677, 1564.495
174.2498, 1509.318
174.7319, 1458.082
175.2140, 1419.737
175.6961, 1388.052
176.1783, 1353.387
176.6604, 1313.307
177.1425, 1271.741
177.6246, 1231.934
178.1067, 1194.512
178.5888, 1160.868
179.0710, 1135.068
179.5531, 1114.304
180.0352, 1092.388
180.5173, 1066.191
180.9994, 1040.105
181.4815, 1022.111
181.9637, 1011.933
182.4458, 1005.785
182.9279, 1001.491
183.4100, 998.7545
183.8921, 996.3763
184.3742, 993.9514
184.8564, 991.6856
185.3385, 990.2338
185.8206, 989.6249
186.3027, 989.3291
186.7848, 989.2101
187.2669, 989.1364
187.7491, 988.0508
188.2312, 984.3430
188.7133, 979.2906
189.1954, 977.4581
189.6775, 978.9473
190.1596, 983.3161
190.6418, 990.7796
191.1239, 1001.261
191.6060, 1012.569
192.0881, 1023.458
192.5702, 1034.179
193.0524, 1047.383
193.5345, 1063.588
194.0166, 1080.832
194.4987, 1095.166
194.9808, 1106.309
195.4629, 1118.814
195.9451, 1136.151
196.4272, 1158.377
196.9093, 1176.174
197.3914, 1188.681
197.8735, 1197.660
198.3556, 1206.854
198.8378, 1216.706
199.3199, 1223.842
199.8020, 1225.441
200.2841, 1221.082
200.7662, 1217.144
201.2483, 1213.714
201.7305, 1211.155
202.2126, 1210.345
202.6947, 1211.333
203.1768, 1213.885
203.6589, 1216.296
204.1410, 1217.309
204.6232, 1228.019
205.1053, 1252.963
205.5874, 1286.687
206.0695, 1309.311
206.5516, 1316.549
207.0337, 1323.943
207.5159, 1342.663
207.9980, 1374.230
208.4801, 1408.152
208.9622, 1443.225
209.4443, 1479.664
209.9264, 1518.484
210.4086, 1559.664
210.8907, 1603.464
211.3728, 1651.445
211.8549, 1707.555
212.3370, 1755.469
212.8191, 1791.732
213.3013, 1817.304
213.7834, 1843.972
214.2655, 1875.205
214.7476, 1902.025
215.2297, 1918.871
215.7118, 1930.365
216.1940, 1918.393
216.6761, 1874.741
217.1582, 1800.802
217.6403, 1730.010
218.1224, 1663.361
218.6045, 1599.615
219.0867, 1536.483
219.5688, 1470.845
220.0509, 1414.574
220.5330, 1373.136
221.0151, 1346.313
221.4972, 1317.954
221.9794, 1284.339
222.4615, 1253.056
222.9436, 1232.503
223.4257, 1226.910
223.9078, 1223.258
224.3899, 1218.312
224.8721, 1211.606
225.3542, 1208.846
225.8363, 1210.472
226.3184, 1215.587
226.8005, 1223.370
227.2827, 1234.323
227.7648, 1246.896
228.2469, 1260.475
228.7290, 1274.735
229.2111, 1292.084
229.6932, 1313.013
230.1754, 1336.420
230.6575, 1360.632
231.1396, 1382.612
231.6217, 1410.694
232.1038, 1448.798
232.5859, 1499.538
233.0681, 1546.071
233.5502, 1586.434
234.0323, 1623.826
234.5144, 1663.165
234.9965, 1703.771
235.4786, 1747.051
235.9608, 1793.621
236.4429, 1842.919
236.9250, 1895.895
237.4071, 1956.222
237.8892, 2017.566
238.3713, 2068.714
238.8535, 2101.803
239.3356, 2137.982
239.8177, 2186.113
240.2998, 2252.390
240.7819, 2306.797
241.2640, 2346.386
241.7462, 2376.702
242.2283, 2407.313
242.7104, 2438.444
243.1925, 2469.455
243.6746, 2499.398
244.1567, 2526.562
244.6389, 2560.673
245.1210, 2610.833
245.6031, 2662.495
246.0852, 2687.732
246.5673, 2673.649
247.0494, 2655.125
247.5316, 2645.336
248.0137, 2649.607
248.4958, 2644.636
248.9779, 2629.830
249.4600, 2606.083
249.9421, 2575.524
250.4243, 2538.273
250.9064, 2493.604
251.3885, 2438.693
251.8706, 2366.869
252.3527, 2306.857
252.8348, 2262.409
253.3170, 2227.518
253.7991, 2191.257
254.2812, 2152.955
254.7633, 2115.367
255.2454, 2080.779
255.7275, 2052.582
256.2097, 2014.251
256.6918, 1958.391
257.1739, 1897.906
257.6560, 1858.399
258.1381, 1850.150
258.6202, 1841.506
259.1024, 1818.182
259.5845, 1774.263
260.0666, 1741.841
260.5487, 1724.865
261.0308, 1716.471
261.5129, 1703.037
261.9951, 1682.333
262.4772, 1662.219
262.9593, 1647.117
263.4414, 1639.150
263.9235, 1624.784
264.4056, 1601.197
264.8878, 1573.654
265.3699, 1551.116
265.8520, 1534.813
266.3341, 1519.452
266.8162, 1502.608
267.2983, 1483.967
267.7805, 1466.929
268.2626, 1452.124
268.7447, 1438.382
269.2268, 1423.447
269.7089, 1406.768
270.1910, 1390.878
270.6732, 1375.172
271.1553, 1358.946
271.6374, 1351.922
272.1195, 1356.598
272.6016, 1366.814
273.0837, 1374.510
273.5659, 1380.840
274.0480, 1379.091
274.5301, 1363.997
275.0122, 1335.023
275.4943, 1308.793
275.9764, 1284.273
276.4586, 1264.448
276.9407, 1257.722
277.4228, 1266.436
277.9049, 1268.701
278.3870, 1252.221
278.8691, 1218.169
279.3513, 1194.633
279.8334, 1183.747
280.3155, 1177.890
280.7976, 1166.926
281.2798, 1150.755
281.7619, 1134.114
282.2440, 1118.579
282.7261, 1104.064
283.2082, 1089.791
283.6903, 1075.614
284.1725, 1062.214
284.6546, 1050.817
285.1367, 1041.439
285.6188, 1031.926
286.1009, 1021.263
286.5830, 1009.836
287.0652, 998.9438
287.5473, 988.5495
288.0294, 979.5064
288.5115, 973.3324
288.9936, 969.7271
289.4757, 966.4449
289.9579, 962.7816
290.4400, 958.8704
290.9221, 954.4556
291.4042, 949.4044
291.8863, 945.5117
292.3684, 944.9434
292.8506, 947.2222
293.3327, 950.3516
293.8148, 954.6176
294.2969, 958.8411
294.7790, 961.2680
295.2611, 961.8940
295.7433, 959.9193
296.2254, 950.0567
296.7075, 936.4715
297.1896, 931.6630
297.6717, 943.6913
298.1538, 962.2914
298.6360, 971.5970
299.1181, 972.3043
299.6002, 971.6415
300.0823, 974.8615
300.5644, 980.7020
301.0465, 987.0651
301.5287, 994.5377
302.0108, 1000.879
302.4929, 1002.377
302.9750, 999.7933
303.4571, 997.4028
303.9392, 998.8340
304.4214, 1001.968
304.9035, 1003.742
305.3856, 1002.328
305.8677, 1001.092
306.3498, 1001.805
306.8319, 1004.817
307.3141, 1011.460
307.7962, 1026.753
308.2783, 1044.006
308.7604, 1057.110
309.2425, 1064.705
309.7246, 1067.647
310.2068, 1062.553
310.6889, 1052.732
311.1710, 1046.703
311.6531, 1052.876
312.1352, 1061.787
312.6173, 1065.655
313.0995, 1060.936
313.5816, 1057.784
314.0637, 1060.730
314.5458, 1068.564
315.0279, 1078.977
315.5100, 1098.638
315.9922, 1114.956
316.4743, 1118.266
316.9564, 1102.844
317.4385, 1093.607
317.9206, 1102.794
318.4027, 1122.174
318.8849, 1140.245
319.3670, 1154.922
319.8491, 1166.889
320.3312, 1176.390
320.8133, 1183.493
321.2954, 1187.960
321.7776, 1184.242
322.2597, 1180.005
322.7418, 1183.420
323.2239, 1207.590
323.7060, 1227.613
324.1881, 1234.174
324.6703, 1225.314
325.1524, 1225.158
325.6345, 1243.030
326.1166, 1266.168
326.5987, 1284.493
327.0808, 1296.023
327.5630, 1304.957
328.0451, 1310.867
328.5272, 1313.911
329.0093, 1317.301
329.4914, 1317.743
329.9735, 1321.398
330.4557, 1332.751
330.9378, 1357.241
331.4199, 1380.061
331.9020, 1400.038
332.3841, 1417.543
332.8662, 1433.937
333.3484, 1446.978
333.8305, 1462.069
334.3126, 1484.441
334.7947, 1519.924
335.2768, 1542.816
335.7589, 1546.422
336.2411, 1539.693
336.7232, 1546.255
337.2053, 1569.711
337.6874, 1595.832
338.1695, 1617.480
338.6516, 1633.451
339.1338, 1653.883
339.6159, 1679.043
340.0980, 1708.280
340.5801, 1742.235
341.0622, 1782.357
341.5443, 1817.341
342.0265, 1839.736
342.5086, 1851.361
342.9907, 1871.155
343.4728, 1899.316
343.9549, 1934.238
344.4370, 1977.602
344.9192, 2027.921
345.4013, 2072.918
345.8834, 2105.306
346.3655, 2129.524
346.8476, 2155.171
347.3297, 2182.135
347.8119, 2210.543
348.2940, 2241.275
348.7761, 2273.539
349.2582, 2303.962
349.7403, 2330.629
350.2225, 2356.817
350.7046, 2389.629
351.1867, 2428.156
351.6688, 2463.109
352.1509, 2487.913
352.6331, 2504.946
353.1152, 2517.150
353.5973, 2523.528
354.0794, 2528.351
354.5615, 2537.406
355.0436, 2548.470
355.5258, 2554.771
356.0079, 2551.507
356.4900, 2542.450
356.9721, 2530.940
357.4542, 2517.840
357.9363, 2501.085
358.4185, 2475.919
358.9006, 2446.689
359.3827, 2420.915
359.8648, 2408.876
360.3469, 2395.222
360.8290, 2368.332
361.3112, 2324.188
361.7933, 2288.825
362.2754, 2277.377
362.7575, 2276.092
363.2396, 2270.002
363.7217, 2248.063
364.2039, 2228.758
364.6860, 2219.610
365.1681, 2220.807
365.6502, 2216.156
366.1323, 2189.184
366.6144, 2164.563
367.0966, 2159.438
367.5787, 2193.978
368.0608, 2224.007
368.5429, 2246.329
369.0250, 2261.909
369.5071, 2275.219
369.9893, 2286.214
370.4714, 2294.962
370.9535, 2301.252
371.4356, 2303.883
371.9177, 2307.181
372.3998, 2314.014
372.8820, 2320.096
373.3641, 2313.606
373.8462, 2288.124
374.3283, 2266.741
374.8104, 2258.768
375.2925, 2264.836
375.7747, 2277.915
376.2568, 2300.782
376.7389, 2325.376
377.2210, 2340.059
377.7031, 2344.258
378.1852, 2346.506
378.6674, 2347.666
379.1495, 2349.058
379.6316, 2358.263
380.1137, 2376.031
380.5958, 2394.132
381.0779, 2401.428
381.5601, 2401.110
382.0422, 2408.646
382.5243, 2429.346
383.0064, 2457.399
383.4885, 2487.375
383.9706, 2518.370
384.4528, 2541.660
384.9349, 2543.527
385.4170, 2535.968
385.8991, 2541.230
386.3812, 2566.611
386.8633, 2592.158
387.3455, 2597.947
387.8276, 2589.625
388.3097, 2580.122
388.7918, 2579.609
389.2739, 2578.216
389.7560, 2569.260
390.2382, 2552.384
390.7203, 2525.992
391.2024, 2480.353
391.6845, 2427.888
392.1666, 2382.323
392.6487, 2355.405
393.1309, 2329.828
393.6130, 2300.012
394.0951, 2265.850
394.5772, 2229.162
395.0593, 2182.557
395.5414, 2138.476
396.0236, 2105.183
396.5057, 2095.747
396.9878, 2082.856
397.4699, 2060.231
397.9520, 2031.927
398.4341, 2010.869
398.9163, 2000.513
399.3984, 1993.852
399.8805, 1988.302
400.3626, 1982.930
400.8447, 1982.081
401.3268, 1990.101
401.8090, 1999.428
402.2911, 1998.312
402.7732, 1982.181
403.2553, 1967.400
403.7374, 1957.305
404.2195, 1951.980
404.7017, 1954.333
405.1838, 1966.527
405.6659, 1980.637
406.1480, 1988.918
406.6301, 1991.310
407.1122, 1995.317
407.5944, 2003.549
408.0765, 2012.878
408.5586, 2013.645
409.0407, 2006.054
409.5228, 2000.587
410.0049, 2006.900
410.4871, 2020.765
410.9692, 2029.627
411.4513, 2031.233
411.9334, 2031.899
412.4155, 2039.919
412.8976, 2053.163
413.3798, 2065.134
413.8619, 2075.886
414.3440, 2082.367
414.8261, 2079.324
415.3082, 2066.719
415.7903, 2054.130
416.2725, 2046.855
416.7546, 2043.345
417.2367, 2041.663
417.7188, 2039.401
418.2009, 2040.929
418.6830, 2053.133
419.1652, 2072.167
419.6473, 2083.437
420.1294, 2069.445
420.6115, 2055.812
421.0937, 2056.696
421.5758, 2078.645
422.0579, 2105.106
422.5400, 2142.331
423.0221, 2181.122
423.5042, 2206.830
423.9864, 2199.041
424.4685, 2200.383
424.9506, 2223.707
425.4327, 2270.915
425.9148, 2312.129
426.3969, 2347.504
426.8791, 2376.713
427.3612, 2396.336
427.8433, 2399.646
428.3254, 2415.558
428.8075, 2453.243
429.2896, 2504.245
429.7718, 2538.886
430.2539, 2555.656
430.7360, 2564.933
431.2181, 2568.764
431.7002, 2567.999
432.1823, 2577.039
432.6645, 2598.808
433.1466, 2623.076
433.6287, 2635.627
434.1108, 2637.995
434.5929, 2637.583
435.0750, 2636.937
435.5572, 2635.583
436.0393, 2631.401
436.5214, 2624.608
437.0035, 2619.771
437.4856, 2627.966
437.9677, 2638.183
438.4499, 2633.183
438.9320, 2599.469
439.4141, 2565.087
439.8962, 2552.414
440.3783, 2554.948
440.8604, 2555.551
441.3426, 2549.750
441.8247, 2537.568
442.3068, 2518.084
442.7889, 2490.163
443.2710, 2459.994
443.7531, 2427.985
444.2353, 2395.121
444.7174, 2361.931
445.1995, 2322.752
445.6816, 2290.065
446.1637, 2269.976
446.6458, 2260.938
447.1280, 2244.104
447.6101, 2213.752
448.0922, 2181.798
448.5743, 2154.722
449.0564, 2132.725
449.5385, 2114.958
450.0207, 2103.299
450.5028, 2094.162
450.9849, 2078.433
451.4670, 2053.358
451.9491, 2036.484
452.4312, 2036.776
452.9134, 2052.100
453.3955, 2065.531
453.8776, 2076.645
454.3597, 2088.533
454.8418, 2104.743
455.3239, 2124.445
455.8061, 2143.272
456.2882, 2159.683
456.7703, 2176.044
457.2524, 2195.630
457.7345, 2218.066
458.2166, 2242.385
458.6988, 2268.747
459.1809, 2296.119
459.6630, 2323.028
460.1451, 2349.568
460.6272, 2375.867
461.1093, 2403.857
461.5915, 2431.000
462.0736, 2453.550
462.5557, 2462.650
463.0378, 2474.460
463.5199, 2497.816
464.0020, 2530.740
464.4842, 2558.894
464.9663, 2573.612
465.4484, 2586.746
465.9305, 2606.022
466.4126, 2649.095
466.8947, 2667.294
467.3769, 2644.412
467.8590, 2603.796
468.3411, 2584.343
468.8232, 2597.298
469.3053, 2609.312
469.7874, 2610.795
470.2696, 2602.493
470.7517, 2599.001
471.2338, 2601.897
471.7159, 2604.772
472.1980, 2602.164
472.6801, 2594.118
473.1623, 2583.787
473.6444, 2570.940
474.1265, 2557.205
474.6086, 2546.002
475.0907, 2536.828
475.5728, 2526.414
476.0550, 2512.519
476.5371, 2496.400
477.0192, 2481.229
477.5013, 2467.108
477.9834, 2449.808
478.4655, 2424.851
478.9477, 2395.020
479.4298, 2364.167
479.9119, 2331.719
480.3940, 2300.179
480.8761, 2268.907
481.3582, 2239.421
481.8404, 2216.564
482.3225, 2210.582
482.8046, 2204.462
483.2867, 2190.502
483.7688, 2166.939
484.2509, 2139.384
484.7331, 2098.892
485.2152, 2059.617
485.6973, 2035.608
486.1794, 2043.928
486.6615, 2037.537
487.1436, 2004.137
487.6258, 1950.700
488.1079, 1910.256
488.5900, 1885.526
489.0721, 1867.030
489.5542, 1851.360
490.0363, 1838.494
490.5185, 1823.507
491.0006, 1806.663
491.4827, 1786.805
491.9648, 1757.726
492.4470, 1722.358
492.9291, 1698.400
493.4112, 1699.804
493.8933, 1709.525
494.3754, 1700.270
494.8575, 1674.323
495.3397, 1646.637
495.8218, 1623.249
496.3039, 1604.736
496.7860, 1593.593
497.2681, 1592.339
497.7502, 1588.976
498.2324, 1576.438
498.7145, 1558.119
499.1966, 1538.381
499.6787, 1511.485
500.1608, 1490.620
500.6429, 1484.517
501.1251, 1491.808
501.6072, 1490.127
502.0893, 1472.865
502.5714, 1450.770
503.0535, 1427.554
503.5356, 1398.508
504.0178, 1380.438
504.4999, 1377.757
504.9820, 1382.225
505.4641, 1381.218
505.9462, 1373.708
506.4283, 1366.136
506.9105, 1360.454
507.3926, 1356.133
507.8747, 1351.472
508.3568, 1346.497
508.8389, 1340.234
509.3210, 1330.337
509.8032, 1318.500
510.2853, 1309.189
510.7674, 1302.978
511.2495, 1299.217
511.7316, 1299.266
512.2137, 1301.170
512.6959, 1300.967
513.1780, 1294.710
513.6601, 1287.710
514.1422, 1281.583
514.6243, 1276.947
515.1064, 1277.575
515.5886, 1294.534
516.0707, 1310.514
516.5528, 1313.135
517.0349, 1289.338
517.5170, 1276.345
517.9991, 1285.054
518.4813, 1303.655
518.9634, 1317.629
519.4455, 1324.855
519.9276, 1330.911
520.4097, 1335.861
520.8918, 1340.262
521.3740, 1348.676
521.8561, 1361.683
522.3382, 1376.785
522.8203, 1393.781
523.3024, 1412.248
523.7845, 1425.810
524.2667, 1432.692
524.7488, 1440.464
525.2309, 1458.409
525.7130, 1485.366
526.1951, 1517.238
526.6772, 1557.535
527.1594, 1597.795
527.6415, 1624.650
528.1236, 1641.119
528.6057, 1661.188
529.0878, 1693.687
529.5699, 1732.072
530.0521, 1770.775
530.5342, 1808.719
531.0163, 1850.201
531.4984, 1896.411
531.9805, 1947.347
532.4626, 2003.174
532.9448, 2071.312
533.4269, 2135.446
533.9090, 2192.492
534.3911, 2244.067
534.8732, 2292.927
535.3553, 2334.499
535.8375, 2383.313
536.3196, 2448.049
536.8017, 2530.712
537.2838, 2601.956
537.7659, 2659.348
538.2480, 2715.590
538.7302, 2784.872
539.2123, 2866.300
539.6944, 2949.483
540.1765, 3032.497
540.6586, 3115.783
541.1407, 3204.604
541.6229, 3296.727
542.1050, 3385.468
542.5871, 3463.136
543.0692, 3538.624
543.5513, 3619.516
544.0334, 3705.526
544.5156, 3792.195
544.9977, 3881.986
545.4798, 3968.947
545.9619, 4047.213
546.4440, 4111.428
546.9261, 4173.360
547.4083, 4242.730
547.8904, 4309.238
548.3725, 4352.508
548.8546, 4359.195
549.3367, 4365.064
549.8188, 4379.077
550.3010, 4400.327
550.7831, 4418.263
551.2652, 4432.501
551.7473, 4444.741
552.2294, 4456.273
552.7115, 4466.982
553.1937, 4473.014
553.6758, 4472.132
554.1579, 4474.622
554.6400, 4492.589
555.1221, 4524.335
555.6042, 4564.699
556.0864, 4615.512
556.5685, 4671.009
557.0506, 4727.369
557.5327, 4783.958
558.0148, 4837.514
558.4969, 4881.772
558.9791, 4926.231
559.4612, 4977.983
559.9433, 5039.921
560.4254, 5096.770
560.9075, 5152.880
561.3896, 5198.216
561.8718, 5224.513
562.3539, 5218.156
562.8360, 5217.661
563.3181, 5237.593
563.8002, 5259.520
564.2823, 5235.535
564.7645, 5158.947
565.2466, 5066.835
565.7287, 4970.091
566.2108, 4869.953
566.6929, 4776.884
567.1750, 4692.178
567.6572, 4602.073
568.1393, 4490.417
568.6214, 4367.288
569.1035, 4259.465
569.5856, 4174.295
570.0677, 4087.359
570.5499, 3965.375
571.0320, 3829.804
571.5141, 3713.777
571.9962, 3642.015
572.4783, 3579.518
572.9604, 3513.224
573.4426, 3444.985
573.9247, 3383.634
574.4068, 3341.757
574.8889, 3297.170
575.3710, 3236.510
575.8531, 3151.682
576.3353, 3098.802
576.8174, 3089.165
577.2995, 3095.487
577.7816, 3093.424
578.2637, 3082.443
578.7458, 3066.966
579.2280, 3044.611
579.7101, 3023.564
580.1922, 3019.386
580.6743, 3030.299
581.1564, 3046.251
581.6385, 3065.187
582.1207, 3085.171
582.6028, 3103.233
583.0849, 3119.473
583.5670, 3135.914
584.0491, 3152.010
584.5313, 3169.852
585.0134, 3191.350
585.4955, 3217.478
585.9776, 3244.763
586.4597, 3270.953
586.9418, 3298.368
587.4240, 3329.279
587.9061, 3363.114
588.3882, 3402.020
588.8703, 3450.193
589.3524, 3502.513
589.8345, 3543.278
590.3167, 3570.518
590.7988, 3593.662
591.2809, 3612.732
591.7630, 3630.292
592.2451, 3662.643
592.7272, 3710.455
593.2094, 3756.644
593.6915, 3785.202
594.1736, 3802.389
594.6557, 3820.820
595.1378, 3843.191
595.6199, 3862.438
596.1021, 3873.438
596.5842, 3877.802
597.0663, 3877.827
597.5485, 3872.350
598.0306, 3864.683
598.5127, 3856.643
598.9948, 3847.481
599.4769, 3833.827
599.9590, 3814.737
600.4412, 3792.127
600.9233, 3767.720
601.4054, 3741.863
601.8875, 3706.163
602.3696, 3658.401
602.8517, 3606.764
603.3339, 3558.781
603.8160, 3513.894
604.2981, 3471.793
604.7802, 3434.696
605.2623, 3393.664
605.7444, 3333.864
606.2266, 3260.609
606.7087, 3191.046
607.1908, 3130.340
607.6729, 3075.243
608.1550, 3026.521
608.6371, 2981.670
609.1193, 2930.862
609.6014, 2863.990
610.0835, 2795.820
610.5656, 2733.829
611.0477, 2678.697
611.5298, 2628.214
612.0120, 2588.753
612.4941, 2547.861
612.9762, 2496.573
613.4583, 2430.924
613.9404, 2368.855
614.4225, 2309.482
614.9047, 2257.273
615.3868, 2221.539
615.8689, 2200.660
616.3510, 2177.135
616.8331, 2145.040
617.3152, 2108.821
617.7974, 2073.804
618.2795, 2040.237
618.7616, 2007.259
619.2437, 1976.990
619.7258, 1945.424
620.2079, 1905.916
620.6901, 1858.556
621.1722, 1819.087
621.6543, 1797.132
622.1364, 1781.840
622.6185, 1767.343
623.1006, 1756.635
623.5828, 1738.103
624.0649, 1705.428
624.5470, 1670.725
625.0291, 1651.371
625.5112, 1652.052
625.9933, 1641.376
626.4755, 1609.723
626.9576, 1569.321
627.4397, 1547.929
627.9218, 1543.107
628.4039, 1536.229
628.8860, 1515.249
629.3682, 1488.359
629.8503, 1466.603
630.3324, 1449.447
630.8145, 1433.095
631.2966, 1412.288
631.7787, 1393.820
632.2609, 1384.142
632.7430, 1387.214
633.2251, 1386.533
633.7072, 1380.011
634.1893, 1367.712
634.6714, 1348.628
635.1536, 1316.447
635.6357, 1291.787
636.1178, 1278.464
636.5999, 1271.150
637.0820, 1258.527
637.5641, 1240.172
638.0463, 1229.345
638.5284, 1233.866
639.0105, 1245.370
639.4926, 1248.791
639.9747, 1244.453
640.4568, 1234.388
640.9390, 1211.707
641.4211, 1189.061
641.9032, 1179.522
642.3853, 1184.006
642.8674, 1189.958
643.3495, 1199.571
643.8317, 1204.073
644.3138, 1196.229
644.7959, 1162.893
645.2780, 1141.389
645.7601, 1137.407
646.2422, 1140.289
646.7244, 1137.217
647.2065, 1126.752
647.6886, 1118.093
648.1707, 1113.445
648.6528, 1110.665
649.1349, 1104.731
649.6171, 1096.246
650.0992, 1089.279
650.5813, 1087.280
651.0634, 1086.874
651.5455, 1083.943
652.0276, 1078.815
652.5098, 1073.391
652.9919, 1072.452
653.4740, 1068.607
653.9561, 1052.816
654.4382, 1019.596
654.9203, 1003.542
655.4025, 1025.848
655.8846, 1052.718
656.3667, 1060.796
656.8488, 1042.408
657.3309, 1028.062
657.8130, 1019.022
658.2952, 1013.688
658.7773, 1010.242
659.2594, 1008.617
659.7415, 1008.716
660.2236, 1011.551
660.7057, 1014.349
661.1879, 1012.660
661.6700, 1007.620
662.1521, 1002.402
662.6342, 999.5573
663.1163, 996.1523
663.5984, 989.1049
664.0806, 979.0920
664.5627, 971.7722
665.0448, 967.7366
665.5269, 967.7124
666.0090, 973.7042
666.4911, 987.4542
666.9733, 993.1872
667.4554, 988.1642
667.9375, 980.5533
668.4196, 977.0149
668.9017, 977.4070
669.3839, 977.9520
669.8660, 978.6486
670.3481, 977.9025
670.8302, 971.9771
671.3123, 963.3558
671.7944, 957.6649
672.2766, 958.6270
672.7587, 959.8262
673.2408, 955.1686
673.7229, 947.9556
674.2050, 944.5545
674.6871, 952.7444
675.1693, 958.4247
675.6514, 956.1387
676.1335, 947.7106
676.6156, 942.7755
677.0977, 942.7331
677.5798, 942.9940
678.0620, 941.2231
678.5441, 937.7786
679.0262, 936.3820
679.5083, 937.0867
679.9904, 938.7867
680.4725, 940.6896
680.9547, 942.9431
681.4368, 947.1212
681.9189, 953.9619
682.4010, 956.9648
682.8831, 946.8347
683.3652, 933.0023
683.8474, 925.2277
684.3295, 929.8812
684.8116, 933.9985
685.2937, 935.1158
685.7758, 934.9626
686.2579, 935.8596
686.7401, 938.5893
687.2222, 940.2063
687.7043, 940.0895
688.1864, 938.6342
688.6685, 936.1317
689.1506, 932.7159
689.6328, 930.6326
690.1149, 932.8972
690.5970, 935.7487
691.0791, 931.0556
691.5612, 920.7819
692.0433, 914.9966
692.5255, 923.2689
693.0076, 934.2959
693.4897, 941.7090
693.9718, 944.9210
694.4539, 944.9962
694.9360, 938.2216
695.4182, 931.9883
695.9003, 931.7809
696.3824, 941.5474
696.8645, 937.5073
697.3466, 913.9085
697.8287, 891.6027
698.3109, 899.9815
698.7930, 931.9144
699.2751, 947.9543
699.7572, 938.4913
700.2393, 921.6985
700.7214, 913.5999
701.2036, 911.7490
701.6857, 912.1414
702.1678, 916.3363
702.6499, 919.0481
703.1320, 917.0701
703.6141, 912.1804
704.0963, 908.7988
704.5784, 906.8569
705.0605, 906.7377
705.5426, 908.1309
706.0247, 911.4622
706.5068, 921.1355
706.9890, 938.7740
707.4711, 949.6282
707.9532, 941.9240
708.4353, 922.6968
708.9174, 908.5778
709.3995, 899.4924
709.8817, 895.5573
710.3638, 901.1074
710.8459, 909.1422
711.3280, 913.0616
711.8101, 911.6735
712.2922, 911.0439
712.7744, 914.4744
713.2565, 918.0530
713.7386, 919.0837
714.2207, 916.2982
714.7028, 914.1069
715.1849, 912.2877
715.6671, 911.4178
716.1492, 912.9541
716.6313, 916.5562
717.1134, 918.5205
717.5955, 918.4684
718.0776, 915.7390
718.5598, 904.3156
719.0419, 890.3128
719.5240, 885.9401
720.0061, 905.7148
720.4882, 923.5985
720.9703, 926.6298
721.4525, 919.2062
721.9346, 911.2645
722.4167, 898.6881
722.8988, 893.0900
723.3809, 899.9287
723.8630, 915.0375
724.3452, 920.5233
724.8273, 914.9516
725.3094, 909.9141
725.7915, 910.2956
726.2736, 915.3087
726.7557, 926.3043
727.2379, 941.9586
727.7200, 951.8517
728.2021, 943.6714
728.6842, 930.8353
729.1663, 924.4762
729.6484, 925.7402
730.1306, 926.9773
730.6127, 925.3629
731.0948, 923.6877
731.5769, 923.5530
732.0590, 925.4156
732.5411, 926.9136
733.0233, 927.9712
733.5054, 928.8352
733.9875, 929.4382
734.4696, 929.9276
734.9517, 932.0026
735.4338, 936.3277
735.9160, 939.4257
736.3981, 937.6096
736.8802, 932.3334
737.3623, 925.1927
737.8444, 913.8868
738.3266, 906.0804
738.8087, 905.7818
739.2908, 910.3126
739.7729, 916.0466
740.2551, 925.1133
740.7372, 930.9486
741.2193, 931.7495
741.7014, 929.8117
742.1835, 930.1904
742.6656, 932.9172
743.1478, 934.7188
743.6299, 933.8267
744.1120, 932.3589
744.5941, 934.8785
745.0762, 939.8244
745.5583, 942.4250
746.0405, 939.3361
746.5226, 934.1336
747.0047, 924.4785
747.4868, 912.7662
747.9689, 913.0888
748.4510, 941.7559
748.9332, 963.4437
749.4153, 964.5151
749.8974, 947.1727
750.3795, 937.9870
750.8616, 937.7445
751.3438, 939.6575
751.8259, 939.0201
752.3080, 937.4992
752.7901, 939.6034
753.2722, 945.2615
753.7543, 951.1857
754.2365, 957.0760
754.7186, 961.0268
755.2007, 960.5999
755.6828, 954.5751
756.1649, 950.0471
756.6470, 947.9329
757.1292, 947.8414
757.6113, 950.7073
758.0934, 958.6532
758.5755, 958.5208
759.0576, 948.0326
759.5397, 937.0641
760.0219, 936.8470
760.5040, 944.6298
760.9861, 951.8504
761.4682, 957.0140
761.9503, 962.0807
762.4324, 970.6335
762.9146, 979.1332
763.3967, 983.3647
763.8788, 980.3712
764.3609, 976.1620
764.8430, 967.6758
765.3251, 960.7814
765.8073, 964.4078
766.2894, 983.8020
766.7715, 991.4313
767.2536, 979.6138
767.7357, 961.7416
768.2178, 962.2089
768.7000, 976.8632
769.1821, 988.1548
769.6642, 988.8573
770.1463, 986.8192
770.6284, 986.5741
771.1105, 988.7546
771.5927, 994.5828
772.0748, 1014.536
772.5569, 1026.221
773.0390, 1018.669
773.5211, 1000.424
774.0032, 993.5573
774.4854, 1001.004
774.9675, 1008.994
775.4496, 1013.919
775.9317, 1016.318
776.4138, 1017.770
776.8959, 1018.033
777.3781, 1015.874
777.8602, 1001.296
778.3423, 991.5668
778.8244, 1009.095
779.3065, 1046.281
779.7886, 1070.674
780.2708, 1064.029
780.7529, 1051.175
781.2350, 1035.996
781.7171, 1020.204
782.1992, 1024.005
782.6813, 1053.857
783.1635, 1077.313
783.6456, 1071.319
784.1277, 1047.132
784.6098, 1042.821
785.0919, 1056.862
785.5740, 1073.569
786.0562, 1084.525
786.5383, 1092.728
787.0204, 1099.381
787.5025, 1104.729
787.9846, 1112.589
788.4667, 1129.757
788.9489, 1143.870
789.4310, 1149.838
789.9131, 1147.375
790.3952, 1138.845
790.8773, 1121.787
791.3594, 1110.462
791.8416, 1122.469
792.3237, 1147.623
792.8058, 1156.607
793.2879, 1148.322
793.7700, 1140.230
794.2521, 1145.400
794.7343, 1155.280
795.2164, 1162.914
795.6985, 1166.910
796.1806, 1171.420
796.6627, 1176.193
797.1448, 1182.388
797.6270, 1192.729
798.1091, 1209.076
798.5912, 1212.545
799.0733, 1201.148
799.5554, 1187.068
800.0375, 1181.664
800.5197, 1182.201
801.0018, 1183.409
801.4839, 1184.420
801.9660, 1187.575
802.4481, 1196.633
802.9302, 1207.008
803.4124, 1214.910
803.8945, 1219.367
804.3766, 1222.240
804.8587, 1224.207
805.3408, 1223.686
805.8229, 1216.592
806.3051, 1203.022
806.7872, 1200.370
807.2693, 1211.732
807.7514, 1224.117
808.2335, 1223.745
808.7156, 1215.846
809.1978, 1208.168
809.6799, 1202.478
810.1620, 1196.546
810.6441, 1187.434
811.1262, 1178.795
811.6083, 1174.276
812.0905, 1174.789
812.5726, 1178.106
813.0547, 1186.400
813.5368, 1193.163
814.0189, 1188.331
814.5010, 1174.191
814.9832, 1164.042
815.4653, 1160.188
815.9474, 1159.981
816.4295, 1163.295
816.9116, 1167.807
817.3937, 1170.766
817.8759, 1171.931
818.3580, 1170.546
818.8401, 1159.979
819.3222, 1151.112
819.8043, 1156.398
820.2864, 1180.692
820.7686, 1196.569
821.2507, 1200.754
821.7328, 1198.340
822.2149, 1192.484
822.6970, 1185.388
823.1791, 1183.231
823.6613, 1188.818
824.1434, 1194.834
824.6255, 1195.993
825.1076, 1195.107
825.5897, 1195.267
826.0718, 1191.718
826.5540, 1198.298
827.0361, 1222.086
827.5182, 1247.959
828.0003, 1255.628
828.4824, 1245.300
828.9645, 1240.537
829.4467, 1245.444
829.9288, 1253.851
830.4109, 1257.785
830.8930, 1260.839
831.3751, 1268.627
831.8572, 1282.987
832.3394, 1301.179
832.8215, 1327.778
833.3036, 1354.878
833.7857, 1374.021
834.2678, 1382.757
834.7499, 1388.881
835.2321, 1390.624
835.7142, 1394.899
836.1963, 1411.650
836.6784, 1438.525
837.1605, 1467.052
837.6426, 1495.858
838.1248, 1523.916
838.6069, 1553.387
839.0890, 1580.225
839.5711, 1599.057
840.0532, 1602.256
840.5353, 1609.280
841.0175, 1621.389
841.4996, 1637.621
841.9817, 1657.432
842.4638, 1681.017
842.9459, 1705.498
843.4280, 1730.879
843.9102, 1755.715
844.3923, 1776.001
844.8744, 1795.566
845.3565, 1820.586
845.8386, 1853.375
846.3207, 1888.060
846.8029, 1928.467
847.2850, 1965.596
847.7671, 1990.281
848.2492, 1992.687
848.7313, 2011.480
849.2134, 2052.034
849.6956, 2094.939
850.1777, 2123.271
850.6598, 2138.177
851.1419, 2137.903
851.6240, 2119.820
852.1061, 2112.177
852.5883, 2148.630
853.0704, 2197.995
853.5525, 2232.492
854.0346, 2244.543
854.5167, 2249.643
854.9988, 2244.608
855.4810, 2238.694
855.9631, 2239.068
856.4452, 2245.865
856.9273, 2250.426
857.4094, 2252.451
857.8915, 2253.395
858.3737, 2256.312
858.8558, 2257.972
859.3379, 2253.538
859.8200, 2242.169
860.3021, 2229.577
860.7842, 2219.140
861.2664, 2207.096
861.7485, 2190.962
862.2306, 2169.922
862.7127, 2152.013
863.1948, 2137.577
863.6769, 2124.135
864.1591, 2109.704
864.6412, 2094.882
865.1233, 2083.488
865.6054, 2074.658
866.0875, 2057.679
866.5696, 2013.240
867.0518, 1969.136
867.5339, 1946.379
868.0160, 1947.304
868.4981, 1936.455
868.9802, 1906.031
869.4623, 1880.104
869.9445, 1872.840
870.4266, 1879.313
870.9087, 1874.443
871.3908, 1859.604
871.8729, 1849.866
872.3550, 1862.568
872.8372, 1877.522
873.3193, 1873.618
873.8014, 1854.812
874.2835, 1845.735
874.7656, 1860.951
875.2477, 1875.964
875.7299, 1884.391
876.2120, 1888.087
876.6941, 1894.146
877.1762, 1902.528
877.6583, 1913.387
878.1404, 1930.532
878.6226, 1946.140
879.1047, 1944.200
879.5869, 1932.267
880.0690, 1929.719
880.5511, 1954.898
881.0332, 1977.855
881.5153, 1991.363
881.9974, 1996.557
882.4796, 1992.966
882.9617, 1977.770
883.4438, 1970.544
883.9259, 1977.982
884.4080, 1991.272
884.8901, 1997.437
885.3723, 1998.431
885.8544, 1999.263
886.3365, 2005.840
886.8186, 2005.653
887.3007, 1985.336
887.7828, 1958.239
888.2650, 1944.211
888.7471, 1952.261
889.2292, 1949.322
889.7113, 1930.247
890.1934, 1905.064
890.6755, 1884.152
891.1577, 1867.734
891.6398, 1856.930
892.1219, 1853.131
892.6040, 1849.333
893.0861, 1841.523
893.5682, 1831.007
894.0504, 1818.735
894.5325, 1803.891
895.0146, 1789.978
895.4967, 1777.889
895.9788, 1765.128
896.4609, 1748.220
896.9431, 1728.376
897.4252, 1715.060
897.9073, 1708.860
898.3894, 1701.378
898.8715, 1685.760
899.3536, 1666.242
899.8358, 1643.192
900.3179, 1615.887
900.8000, 1601.149
901.2821, 1612.150
901.7642, 1618.552
902.2463, 1605.092
902.7285, 1574.661
903.2106, 1545.447
903.6927, 1517.677
904.1748, 1493.917
904.6569, 1479.214
905.1390, 1466.393
905.6212, 1444.523
906.1033, 1417.232
906.5854, 1399.389
907.0675, 1408.543
907.5496, 1411.528
908.0317, 1397.685
908.5139, 1373.526
908.9960, 1359.541
909.4781, 1355.844
909.9602, 1350.728
910.4423, 1339.843
910.9244, 1326.171
911.4066, 1310.345
911.8887, 1294.975
912.3708, 1284.681
912.8529, 1287.604
913.3350, 1287.528
913.8171, 1281.820
914.2993, 1271.694
914.7814, 1256.042
915.2635, 1233.731
915.7456, 1222.713
916.2277, 1227.487
916.7098, 1235.437
917.1920, 1230.366
917.6741, 1219.598
918.1562, 1214.225
918.6383, 1217.987
919.1204, 1221.980
919.6025, 1227.203
920.0847, 1228.591
920.5668, 1219.964
921.0489, 1197.780
921.5310, 1194.363
922.0131, 1212.045
922.4952, 1229.042
922.9774, 1223.209
923.4595, 1207.666
923.9416, 1201.763
924.4237, 1206.267
924.9058, 1212.783
925.3879, 1225.057
925.8701, 1230.893
926.3522, 1221.328
926.8343, 1199.684
927.3164, 1195.618
927.7985, 1211.284
928.2806, 1224.251
928.7628, 1221.561
929.2449, 1212.662
929.7270, 1212.796
930.2091, 1218.992
930.6912, 1223.207
931.1733, 1220.768
931.6555, 1217.420
932.1376, 1213.484
932.6197, 1210.297
933.1018, 1210.849
933.5839, 1215.883
934.0660, 1218.741
934.5482, 1217.606
935.0303, 1215.931
935.5124, 1220.140
935.9945, 1226.409
936.4766, 1227.442
936.9587, 1219.217
937.4409, 1212.288
937.9230, 1207.414
938.4051, 1207.286
938.8872, 1215.754
939.3693, 1235.882
939.8514, 1245.899
940.3336, 1244.673
940.8157, 1240.795
941.2978, 1241.170
941.7799, 1243.487
942.2620, 1244.091
942.7441, 1242.897
943.2263, 1242.692
943.7084, 1243.838
944.1905, 1247.110
944.6726, 1253.270
945.1547, 1261.800
945.6368, 1270.311
946.1190, 1279.081
946.6011, 1283.830
947.0832, 1279.144
947.5653, 1273.283
948.0474, 1280.839
948.5295, 1295.701
949.0117, 1303.658
949.4938, 1287.290
949.9759, 1279.882
950.4580, 1291.449
950.9401, 1311.927
951.4222, 1328.444
951.9044, 1341.196
952.3865, 1341.007
952.8686, 1323.135
953.3507, 1307.932
953.8328, 1325.394
954.3149, 1354.494
954.7971, 1366.709
955.2792, 1350.026
955.7613, 1341.376
956.2434, 1350.613
956.7255, 1364.068
957.2076, 1371.901
957.6898, 1374.651
958.1719, 1393.062
958.6540, 1427.013
959.1361, 1458.189
959.6182, 1468.519
960.1003, 1474.926
960.5825, 1495.702
961.0646, 1528.191
961.5467, 1553.618
962.0288, 1567.941
962.5109, 1574.817
962.9930, 1570.795
963.4752, 1563.216
963.9573, 1571.208
964.4394, 1592.975
964.9215, 1617.933
965.4036, 1642.592
965.8857, 1669.547
966.3679, 1703.471
966.8500, 1739.818
967.3321, 1772.780
967.8142, 1795.158
968.2963, 1825.651
968.7784, 1865.505
969.2606, 1910.640
969.7427, 1957.307
970.2248, 2005.422
970.7069, 2055.996
971.1890, 2108.839
971.6711, 2158.704
972.1533, 2195.531
972.6354, 2233.101
973.1175, 2282.946
973.5996, 2344.928
974.0817, 2397.791
974.5638, 2438.809
975.0460, 2480.574
975.5281, 2531.494
976.0102, 2584.113
976.4923, 2616.216
976.9744, 2636.438
977.4565, 2670.152
977.9387, 2750.031
978.4208, 2819.985
978.9029, 2853.992
979.3850, 2869.542
979.8671, 2889.635
980.3492, 2915.229
980.8314, 2941.479
981.3135, 2970.125
981.7956, 2989.277
982.2777, 2976.879
982.7598, 2951.058
983.2419, 2942.009
983.7241, 2957.902
984.2062, 2958.112
984.6883, 2916.800
985.1704, 2870.552
985.6525, 2835.256
986.1346, 2809.568
986.6168, 2779.780
987.0989, 2745.919
987.5810, 2708.885
988.0631, 2671.670
988.5452, 2629.252
989.0273, 2572.378
989.5095, 2506.986
989.9916, 2449.000
990.4737, 2408.380
990.9558, 2363.670
991.4379, 2310.195
991.9200, 2255.501
992.4022, 2214.277
992.8843, 2183.115
993.3664, 2143.132
993.8485, 2088.998
994.3306, 2040.352
994.8127, 2021.340
995.2949, 2006.576
995.7770, 1970.219
996.2591, 1906.119
996.7412, 1860.499
997.2233, 1837.142
997.7054, 1819.914
998.1876, 1801.896
998.6697, 1782.151
999.1518, 1755.345
999.6339, 1723.924
1000.116, 1697.299
1000.598, 1690.359
1001.080, 1676.048
1001.562, 1634.677
1002.044, 1584.737
1002.527, 1562.472
1003.009, 1570.628
1003.491, 1567.599
1003.973, 1543.724
1004.455, 1516.648
1004.937, 1511.616
1005.419, 1512.448
1005.901, 1496.305
1006.384, 1452.829
1006.866, 1420.185
1007.348, 1404.776
1007.830, 1397.719
1008.312, 1397.510
1008.794, 1401.841
1009.276, 1396.176
1009.758, 1381.282
1010.240, 1363.562
1010.723, 1341.359
1011.205, 1322.831
1011.687, 1314.185
1012.169, 1313.290
1012.651, 1314.956
1013.133, 1323.748
1013.615, 1319.213
1014.097, 1294.570
1014.580, 1265.590
1015.062, 1254.517
1015.544, 1255.079
1016.026, 1256.320
1016.508, 1256.731
1016.990, 1254.717
1017.472, 1249.297
1017.954, 1241.328
1018.436, 1230.076
1018.919, 1215.992
1019.401, 1208.074
1019.883, 1206.339
1020.365, 1204.941
1020.847, 1199.908
1021.329, 1194.105
1021.811, 1189.275
1022.293, 1186.006
1022.776, 1185.895
1023.258, 1196.342
1023.740, 1196.821
1024.222, 1180.617
1024.704, 1161.686
1025.186, 1162.420
1025.668, 1176.734
1026.150, 1182.368
1026.632, 1175.468
1027.115, 1170.761
1027.597, 1187.783
1028.079, 1200.829
1028.561, 1186.945
1029.043, 1147.985
1029.525, 1129.880
1030.007, 1135.540
1030.489, 1140.062
1030.972, 1128.747
1031.454, 1113.764
1031.936, 1113.814
1032.418, 1122.998
1032.900, 1128.663
1033.382, 1121.535
1033.864, 1118.400
1034.346, 1122.514
1034.828, 1128.962
1035.311, 1133.442
1035.793, 1135.649
1036.275, 1132.524
1036.757, 1123.779
1037.239, 1113.776
1037.721, 1103.334
1038.203, 1094.668
1038.685, 1090.902
1039.167, 1091.288
1039.650, 1086.821
1040.132, 1074.919
1040.614, 1070.417
1041.096, 1081.333
1041.578, 1097.149
1042.060, 1104.267
1042.542, 1103.098
1043.024, 1093.433
1043.507, 1067.598
1043.989, 1048.491
1044.471, 1038.748
1044.953, 1038.103
1045.435, 1051.662
1045.917, 1077.292
1046.399, 1084.764
1046.881, 1074.179
1047.364, 1060.535
1047.846, 1051.543
1048.328, 1045.205
1048.810, 1041.502
1049.292, 1039.490
1049.774, 1034.791
1050.256, 1025.353
1050.738, 1020.717
1051.220, 1023.500
1051.703, 1029.851
1052.185, 1036.491
1052.667, 1041.999
1053.149, 1043.754
1053.631, 1040.867
1054.113, 1035.937
1054.595, 1027.582
1055.077, 1019.635
1055.559, 1013.385
1056.042, 1009.159
1056.524, 1011.781
1057.006, 1019.883
1057.488, 1022.285
1057.970, 1004.237
1058.452, 987.5204
1058.934, 988.4990
1059.416, 999.3846
1059.899, 1005.111
1060.381, 1004.188
1060.863, 1001.848
1061.345, 998.0963
1061.827, 994.7042
1062.309, 995.6863
1062.791, 997.0693
1063.273, 989.7731
1063.755, 973.5009
1064.238, 966.5894
1064.720, 984.0179
1065.202, 998.4854
1065.684, 1000.818
1066.166, 995.6389
1066.648, 997.0979
1067.130, 1003.095
1067.612, 1003.523
1068.094, 993.0510
1068.577, 981.3484
1069.059, 970.5311
1069.541, 963.8929
1070.023, 966.0618
1070.505, 980.3943
1070.987, 981.3392
1071.469, 967.4433
1071.951, 954.5427
1072.434, 956.4719
1072.916, 963.2308
1073.398, 960.8370
1073.880, 952.7929
1074.362, 952.1302
1074.844, 971.2579
1075.326, 981.0244
1075.808, 975.1110
1076.291, 963.6036
1076.773, 959.9952
1077.255, 962.3878
1077.737, 967.0276
1078.219, 973.6519
1078.701, 975.9453
1079.183, 964.2341
1079.665, 953.9676
1080.147, 954.0828
1080.630, 962.2942
1081.112, 964.7169
1081.594, 961.5247
1082.076, 957.9478
1082.558, 955.5330
1083.040, 954.2791
1083.522, 954.4996
1084.004, 955.7399
1084.486, 957.9504
1084.969, 964.1599
1085.451, 961.2718
1085.933, 946.4387
1086.415, 933.3297
1086.897, 932.8444
1087.379, 940.8629
1087.861, 955.1801
1088.343, 972.5696
1088.826, 980.4448
1089.308, 965.3105
1089.790, 951.8378
1090.272, 945.0932
1090.754, 941.3014
1091.236, 929.2859
1091.718, 914.0250
1092.200, 925.4130
1092.682, 970.3918
1093.165, 1003.992
1093.647, 986.3575
1094.129, 958.6083
1094.611, 945.0295
1095.093, 944.5725
1095.575, 950.5034
1096.057, 963.2743
1096.539, 970.8478
1097.022, 967.0446
1097.504, 959.4520
1097.986, 956.3312
1098.468, 954.0338
1098.950, 946.9777
1099.432, 930.3661
1099.914, 919.8298
1100.396, 916.4655
1100.879, 916.1624
1101.361, 916.1070
1101.843, 917.0732
1102.325, 922.0613
1102.807, 929.7005
1103.289, 934.7696
1103.771, 933.1672
1104.253, 931.7145
1104.735, 931.7339
1105.218, 932.2887
1105.700, 932.6060
1106.182, 932.3988
1106.664, 929.1588
1107.146, 922.5043
1107.628, 918.4520
1108.110, 924.0637
1108.592, 929.8668
1109.074, 929.4543
1109.557, 924.8552
1110.039, 926.0996
1110.521, 933.3510
1111.003, 931.8380
1111.485, 912.8019
1111.967, 897.3589
1112.449, 917.8013
1112.931, 945.8331
1113.414, 946.9402
1113.896, 909.7709
1114.378, 889.7104
1114.860, 889.8546
1115.342, 893.5829
1115.824, 890.6063
1116.306, 886.3469
1116.788, 889.8917
1117.271, 898.8609
1117.753, 908.0331
1118.235, 918.2216
1118.717, 924.9337
1119.199, 928.6761
1119.681, 927.7333
1120.163, 916.3036
1120.645, 899.4266
1121.127, 892.1845
1121.609, 894.6735
1122.092, 900.9633
1122.574, 913.3485
1123.056, 922.7170
1123.538, 927.2607
1124.020, 926.5292
1124.502, 917.0562
1124.984, 900.2138
1125.466, 886.9201
1125.949, 879.0718
1126.431, 877.2192
1126.913, 886.5565
1127.395, 898.0887
1127.877, 906.1465
1128.359, 910.6727
1128.841, 912.0437
1129.323, 910.4117
1129.806, 900.6481
1130.288, 874.9290
1130.770, 853.2293
1131.252, 862.7839
1131.734, 885.3841
1132.216, 896.8757
1132.698, 891.5413
1133.180, 886.2620
1133.662, 881.4437
1134.145, 875.0428
1134.627, 861.9406
1135.109, 848.9008
1135.591, 848.9875
1136.073, 857.7822
1136.555, 864.0922
1137.037, 860.3157
1137.519, 860.9677
1138.001, 868.0340
1138.484, 877.2263
1138.966, 887.2007
1139.448, 894.9863
1139.930, 888.5668
1140.412, 869.6772
1140.894, 859.1849
1141.376, 878.0693
1141.858, 890.0493
1142.341, 883.0538
1142.823, 867.1057
1143.305, 860.0532
1143.787, 860.2889
1144.269, 859.6939
1144.751, 856.4888
1145.233, 857.2551
1145.715, 872.1022
1146.198, 885.5392
1146.680, 889.2451
1147.162, 884.7281
1147.644, 877.0053
1148.126, 866.5271
1148.608, 859.5328
1149.090, 857.5580
1149.572, 860.4609
1150.054, 878.2133
1150.536, 893.4702
1151.019, 885.8143
1151.501, 852.3529
1151.983, 838.5864
1152.465, 845.0717
1152.947, 855.3306
1153.429, 862.3729
1153.911, 867.0615
1154.393, 869.4241
1154.876, 870.1529
1155.358, 870.4922
1155.840, 871.3270
1156.322, 868.9555
1156.804, 862.5074
1157.286, 857.2642
1157.768, 858.8529
1158.250, 863.1315
1158.733, 865.6737
1159.215, 866.3897
1159.697, 865.3476
1160.179, 860.2003
1160.661, 859.1092
1161.143, 864.2515
1161.625, 870.1294
1162.107, 869.6889
1162.589, 866.0114
1163.072, 865.3525
1163.554, 867.7468
1164.036, 865.3336
1164.518, 849.0507
1165.000, 840.3368
1165.482, 846.2036
1165.964, 859.0895
1166.446, 867.1758
1166.928, 871.1378
1167.411, 871.8392
1167.893, 868.9072
1168.375, 866.7570
1168.857, 869.2159
1169.339, 869.3119
1169.821, 862.3836
1170.303, 852.6875
1170.785, 855.5546
1171.268, 866.5048
1171.750, 870.0538
1172.232, 857.5623
1172.714, 846.9674
1173.196, 847.4247
1173.678, 850.2369
1174.160, 850.9713
1174.642, 849.6774
1175.125, 844.3450
1175.607, 836.3693
1176.089, 833.7468
1176.571, 844.5501
1177.053, 855.7896
1177.535, 862.9911
1178.017, 866.9635
1178.499, 867.4792
1178.981, 864.6035
1179.464, 863.9055
1179.946, 865.3465
1180.428, 867.1201
1180.910, 866.1758
1181.392, 867.3381
1181.874, 878.3315
1182.356, 890.4684
1182.838, 888.5663
1183.320, 871.9249
1183.803, 861.2995
1184.285, 858.3100
1184.767, 861.5448
1185.249, 876.6529
1185.731, 891.1635
1186.213, 896.5158
1186.695, 894.1340
1187.177, 885.9267
1187.660, 870.8030
1188.142, 869.3975
1188.624, 886.9110
1189.106, 903.3986
1189.588, 900.9785
1190.070, 890.4670
1190.552, 878.1435
1191.034, 865.2900
1191.516, 855.3524
1191.999, 847.7051
1192.481, 851.5334
1192.963, 872.9726
1193.445, 891.9236
1193.927, 884.1005
1194.409, 866.4880
1194.891, 854.3911
1195.373, 849.0375
1195.855, 854.3371
1196.338, 872.3687
1196.820, 882.5322
1197.302, 873.3680
1197.784, 860.1152
1198.266, 858.6221
1198.748, 863.3656
1199.230, 868.1042
1199.712, 872.4329
1200.195, 874.3031
1200.677, 873.5326
1201.159, 871.4045
1201.641, 866.8268
1202.123, 863.4712
1202.605, 865.2850
1203.087, 871.3393
1203.569, 881.2130
1204.052, 899.5258
1204.534, 905.6808
1205.016, 897.7910
1205.498, 889.3246
1205.980, 892.3447
1206.462, 897.5276
1206.944, 892.0510
1207.426, 880.6903
1207.908, 874.9666
1208.391, 877.8626
1208.873, 880.9847
1209.355, 884.6046
1209.837, 885.2469
1210.319, 876.3318
1210.801, 865.6498
1211.283, 863.1367
1211.765, 866.7268
1212.247, 868.5419
1212.730, 868.2728
1213.212, 864.7261
1213.694, 857.0710
1214.176, 849.5463
1214.658, 845.1542
1215.140, 843.7877
1215.622, 845.1906
1216.104, 849.5274
1216.587, 858.7220
1217.069, 877.2913
1217.551, 883.0333
1218.033, 869.4952
1218.515, 854.7696
1218.997, 863.1583
1219.479, 878.6644
1219.961, 882.4066
1220.443, 873.6821
1220.926, 868.5355
1221.408, 869.2899
1221.890, 865.9995
1222.372, 854.4708
1222.854, 844.8152
1223.336, 854.8295
1223.818, 869.8857
1224.300, 871.2040
1224.782, 856.0450
1225.265, 850.0692
1225.747, 855.9178
1226.229, 858.2958
1226.711, 851.4401
1227.193, 842.2217
1227.675, 836.9712
1228.157, 835.2852
1228.639, 837.8444
1229.122, 845.2461
1229.604, 849.3742
1230.086, 849.9052
1230.568, 849.4059
1231.050, 848.6352
1231.532, 847.7402
1232.014, 848.0929
1232.496, 847.7470
1232.979, 842.7142
1233.461, 831.4880
1233.943, 829.5908
1234.425, 837.9971
1234.907, 846.2364
1235.389, 850.0485
1235.871, 850.5015
1236.353, 845.7106
1236.835, 839.8881
1237.318, 839.0350
1237.800, 843.8825
1238.282, 848.4041
1238.764, 852.5317
1239.246, 857.1944
1239.728, 865.8041
1240.210, 871.3486
1240.692, 863.9033
1241.175, 851.7883
1241.657, 847.0334
1242.139, 851.6061
1242.621, 851.5839
1243.103, 846.9255
1243.585, 840.7788
1244.067, 833.7991
1244.549, 827.2704
1245.031, 821.6911
1245.514, 817.2994
1245.996, 814.4466
1246.478, 813.2819
1246.960, 809.5576
1247.442, 803.5917
1247.924, 803.9629
1248.406, 825.3995
1248.888, 844.5209
1249.370, 847.1122
1249.853, 840.1761
1250.335, 830.7443
1250.817, 819.1809
1251.299, 815.3844
1251.781, 819.3322
1252.263, 823.8214
1252.745, 827.3557
1253.227, 826.7405
1253.710, 813.9946
1254.192, 801.6489
1254.674, 811.2871
1255.156, 837.8740
1255.638, 839.8991
1256.120, 817.5505
1256.602, 803.1396
1257.084, 825.7224
1257.567, 845.0889
1258.049, 849.7396
1258.531, 843.5958
1259.013, 827.9433
1259.495, 806.0949
1259.977, 786.8832
1260.459, 772.0474
1260.941, 770.9600
1261.423, 804.1697
1261.906, 829.8384
1262.388, 838.3632
1262.870, 836.1426
1263.352, 829.9479
1263.834, 820.8499
1264.316, 808.8218
1264.798, 794.8496
1265.280, 789.1075
1265.762, 803.5151
1266.245, 811.2283
1266.727, 805.1752
1267.209, 796.2302
1267.691, 800.1142
1268.173, 810.8987
1268.655, 820.3691
1269.137, 827.5400
1269.619, 829.0552
1270.102, 822.9925
1270.584, 816.5373
1271.066, 810.7264
1271.548, 806.6096
1272.030, 805.4352
1272.512, 806.8857
1272.994, 811.6793
1273.476, 819.4673
1273.958, 825.8958
1274.441, 831.5908
1274.923, 831.0818
1275.405, 821.7175
1275.887, 812.4866
1276.369, 812.6052
1276.851, 817.4847
1277.333, 826.1391
1277.815, 836.2525
1278.297, 833.3985
1278.780, 816.5901
1279.262, 810.4702
1279.744, 822.8199
1280.226, 833.4854
1280.708, 823.1677
1281.190, 807.6406
1281.672, 796.6177
1282.154, 790.2108
1282.637, 791.1063
1283.119, 798.1186
1283.601, 798.9034
1284.083, 789.7981
1284.565, 782.2197
1285.047, 785.6030
1285.529, 789.3588
1286.011, 787.0870
1286.494, 782.2828
1286.976, 785.0873
1287.458, 793.8465
1287.940, 804.5703
1288.422, 817.4301
1288.904, 823.6909
1289.386, 816.6662
1289.868, 805.9528
1290.350, 791.6558
1290.833, 779.6416
1291.315, 787.2198
1291.797, 804.2324
1292.279, 808.5912
1292.761, 794.0139
1293.243, 788.8315
1293.725, 801.2528
1294.207, 808.6532
1294.689, 801.5098
1295.172, 791.0084
1295.654, 795.3618
1296.136, 805.3577
1296.618, 808.4245
1297.100, 802.0132
1297.582, 797.5039
1298.064, 795.0963
1298.546, 792.8749
1299.029, 789.4850
1299.511, 788.5447
1299.993, 799.5200
1300.475, 810.6107
1300.957, 807.1414
1301.439, 791.8903
1301.921, 782.3765
1302.403, 778.6442
1302.885, 783.4230
1303.368, 799.6859
1303.850, 814.7740
1304.332, 823.4061
1304.814, 823.2169
##END=



