##NAMES=Munakataite
##RRUFFID=R110006
##IDEAL CHEMISTRY=Pb^2+^_2_Cu^2+^_2_(Se^4+^O_3_)S^6+^O_4_(OH)_4_
##LOCALITY=Tonopah-Belmont mine, Maricopa County, Arizona, USA
##OWNER=RRUFF
##SOURCE=Marcus Origlieri
##DESCRIPTION=Jackstraw aggregate of blue bladed crystals
##STATUS=The identification of this mineral has been confirmed only by single crystal X-ray diffraction.
##URL=rruff.info/R110006
215.9557, 26.48987
216.4378, 26.22958
216.9200, 25.71753
217.4021, 24.86532
217.8842, 23.92740
218.3663, 23.68065
218.8484, 24.97019
219.3305, 25.73630
219.8127, 25.40701
220.2948, 24.61557
220.7769, 24.01290
221.2590, 23.89524
221.7411, 24.12515
222.2232, 24.29985
222.7054, 24.41814
223.1875, 24.47038
223.6696, 24.52475
224.1517, 24.49079
224.6338, 24.18191
225.1159, 23.51029
225.5980, 22.68287
226.0802, 22.30651
226.5623, 22.78541
227.0444, 23.25409
227.5265, 23.77880
228.0086, 24.22439
228.4907, 24.37633
228.9729, 24.13602
229.4550, 23.64221
229.9371, 23.25456
230.4192, 23.12904
230.9013, 22.86279
231.3834, 22.33866
231.8656, 21.64939
232.3477, 20.77808
232.8298, 19.63470
233.3119, 18.64195
233.7940, 18.94207
234.2761, 21.06671
234.7583, 22.85482
235.2404, 23.76490
235.7225, 23.98898
236.2046, 23.69836
236.6867, 22.77389
237.1688, 21.79508
237.6510, 22.02023
238.1331, 23.67947
238.6152, 24.87791
239.0973, 24.68781
239.5794, 23.60615
240.0615, 22.68947
240.5437, 22.23808
241.0258, 21.98036
241.5079, 21.45900
241.9900, 20.65531
242.4721, 20.16324
242.9542, 20.48016
243.4364, 21.30231
243.9185, 21.88325
244.4006, 22.11831
244.8827, 21.98833
245.3648, 21.24014
245.8469, 19.97992
246.3290, 19.09720
246.8112, 19.19655
247.2933, 20.02304
247.7754, 20.88380
248.2575, 21.89493
248.7396, 22.55854
249.2217, 22.39478
249.7039, 21.58442
250.1860, 20.70702
250.6681, 20.06102
251.1502, 19.59527
251.6323, 19.05765
252.1144, 18.22995
252.5966, 17.70561
253.0787, 18.02351
253.5608, 18.87140
254.0429, 19.55150
254.5250, 19.62238
255.0071, 19.21460
255.4893, 18.77356
255.9714, 18.07586
256.4535, 17.74673
256.9356, 18.19420
257.4177, 19.10743
257.8998, 20.00186
258.3820, 20.64653
258.8641, 21.06354
259.3462, 21.31109
259.8283, 21.29609
260.3104, 21.25395
260.7925, 21.46198
261.2747, 21.64539
261.7568, 21.37857
262.2389, 20.36522
262.7210, 18.92690
263.2031, 17.97838
263.6852, 17.63376
264.1674, 17.64878
264.6495, 18.09535
265.1316, 18.74891
265.6137, 19.42658
266.0958, 20.06154
266.5779, 20.57421
267.0601, 20.67750
267.5422, 19.78208
268.0243, 19.58353
268.5064, 21.00549
268.9885, 22.75831
269.4706, 23.67931
269.9528, 23.36508
270.4349, 22.27395
270.9170, 21.19626
271.3991, 19.91680
271.8812, 19.13271
272.3633, 19.17807
272.8455, 19.46098
273.3276, 19.48331
273.8097, 19.14579
274.2918, 18.76035
274.7739, 18.79188
275.2560, 19.33087
275.7382, 20.14571
276.2202, 21.77094
276.7024, 23.22248
277.1845, 23.84034
277.6666, 23.56543
278.1487, 22.79085
278.6308, 21.87189
279.1129, 20.48625
279.5951, 20.15105
280.0772, 22.13227
280.5593, 23.89071
281.0414, 23.87283
281.5235, 22.22857
282.0056, 20.19436
282.4878, 18.93295
282.9699, 18.52835
283.4520, 18.28970
283.9341, 18.44305
284.4162, 18.51943
284.8983, 18.11632
285.3805, 17.44391
285.8626, 17.09941
286.3447, 17.60201
286.8268, 18.92865
287.3089, 19.76832
287.7910, 20.10073
288.2732, 20.02170
288.7553, 18.98493
289.2374, 17.57986
289.7195, 16.99885
290.2016, 18.04686
290.6837, 20.31314
291.1659, 21.50982
291.6480, 20.65227
292.1301, 19.87697
292.6122, 19.65464
293.0943, 19.68769
293.5764, 19.43823
294.0586, 18.64108
294.5407, 17.64503
295.0228, 17.39581
295.5049, 18.98384
295.9870, 20.00626
296.4691, 19.86182
296.9513, 19.33427
297.4334, 19.38400
297.9155, 20.29926
298.3976, 21.45664
298.8797, 21.80062
299.3618, 20.79897
299.8440, 19.88911
300.3261, 18.98642
300.8082, 18.23065
301.2903, 17.74731
301.7724, 17.55534
302.2545, 17.53942
302.7367, 17.52829
303.2188, 17.40285
303.7009, 17.88490
304.1830, 19.92574
304.6651, 21.75358
305.1472, 22.00751
305.6294, 20.83042
306.1115, 19.45743
306.5936, 18.94000
307.0757, 19.33259
307.5578, 19.64415
308.0399, 20.04057
308.5221, 20.21552
309.0042, 19.59652
309.4863, 18.59616
309.9684, 18.43862
310.4505, 20.09665
310.9326, 23.11743
311.4148, 24.21214
311.8969, 21.39952
312.3790, 19.26809
312.8611, 19.10101
313.3432, 20.29340
313.8253, 22.10707
314.3075, 24.29117
314.7896, 26.33001
315.2717, 26.83132
315.7538, 24.07038
316.2359, 22.26203
316.7180, 22.32337
317.2001, 23.23880
317.6823, 24.02826
318.1644, 24.39202
318.6465, 24.37313
319.1286, 23.95389
319.6107, 22.62336
320.0928, 22.23435
320.5750, 23.57104
321.0571, 25.27679
321.5392, 26.28572
322.0213, 26.50103
322.5034, 26.52835
322.9855, 26.94371
323.4677, 27.79404
323.9498, 28.82310
324.4319, 30.43090
324.9140, 31.82568
325.3961, 32.62565
325.8782, 32.86987
326.3604, 32.68404
326.8425, 32.04025
327.3246, 31.05656
327.8067, 31.11154
328.2888, 33.43044
328.7709, 35.24709
329.2531, 35.50690
329.7352, 34.85911
330.2173, 34.39611
330.6994, 34.64189
331.1815, 35.32159
331.6636, 35.69428
332.1458, 35.43784
332.6279, 35.25634
333.1100, 35.11819
333.5921, 35.09011
334.0742, 35.29209
334.5563, 35.74078
335.0385, 36.27230
335.5206, 36.63929
336.0027, 36.74247
336.4848, 36.93406
336.9669, 37.39433
337.4490, 37.79530
337.9312, 37.69458
338.4133, 37.22120
338.8954, 37.09598
339.3775, 38.09899
339.8596, 40.39938
340.3417, 41.70737
340.8239, 41.17301
341.3060, 40.67102
341.7881, 40.80342
342.2702, 41.47826
342.7523, 42.54370
343.2344, 43.97997
343.7166, 45.52813
344.1987, 45.90322
344.6808, 43.57113
345.1629, 41.74903
345.6450, 41.09078
346.1271, 40.94429
346.6093, 40.47986
347.0914, 39.41523
347.5735, 38.22285
348.0556, 37.91213
348.5377, 39.58144
349.0198, 40.10333
349.5020, 38.68506
349.9841, 36.87853
350.4662, 35.55540
350.9483, 34.91364
351.4304, 34.83684
351.9125, 35.26260
352.3947, 36.26490
352.8768, 37.27396
353.3589, 38.15352
353.8410, 39.17109
354.3231, 40.63857
354.8052, 42.31439
355.2874, 43.79836
355.7695, 44.88431
356.2516, 45.47712
356.7337, 44.98193
357.2158, 42.25264
357.6979, 39.95797
358.1800, 38.44126
358.6621, 37.62810
359.1443, 37.55977
359.6264, 38.24535
360.1085, 39.31092
360.5906, 40.12943
361.0727, 40.71166
361.5548, 40.99801
362.0370, 40.71651
362.5191, 40.36066
363.0012, 40.31632
363.4833, 40.56836
363.9654, 40.73289
364.4475, 40.15439
364.9297, 38.72300
365.4118, 38.44444
365.8939, 40.44600
366.3760, 42.42094
366.8581, 43.58686
367.3402, 44.02816
367.8224, 43.95187
368.3045, 43.29862
368.7866, 42.35761
369.2687, 42.16018
369.7508, 43.36336
370.2329, 43.82299
370.7151, 41.81476
371.1972, 39.24346
371.6793, 38.05302
372.1614, 38.88980
372.6435, 40.57317
373.1256, 41.74686
373.6078, 42.37671
374.0899, 43.01736
374.5720, 44.40857
375.0541, 45.21774
375.5362, 43.77965
376.0183, 40.39776
376.5005, 37.92934
376.9826, 39.23165
377.4647, 43.09159
377.9468, 44.88860
378.4289, 43.74868
378.9110, 41.85434
379.3932, 40.70416
379.8753, 39.87330
380.3574, 38.43142
380.8395, 35.21143
381.3216, 32.06197
381.8037, 31.83683
382.2859, 34.60755
382.7680, 36.70547
383.2501, 36.16070
383.7322, 34.22475
384.2143, 33.02184
384.6964, 32.77291
385.1786, 32.63183
385.6607, 32.03720
386.1428, 31.18497
386.6249, 30.64413
387.1070, 30.62581
387.5891, 30.72576
388.0713, 30.50139
388.5534, 29.98337
389.0355, 29.27674
389.5176, 28.31446
389.9997, 27.22721
390.4818, 25.98001
390.9640, 24.61083
391.4461, 23.65516
391.9282, 23.63397
392.4103, 24.32228
392.8924, 24.45085
393.3745, 23.12453
393.8567, 22.26268
394.3388, 23.50336
394.8209, 25.64219
395.3030, 25.93257
395.7851, 23.15557
396.2672, 19.35868
396.7494, 18.30021
397.2315, 21.68276
397.7136, 23.79118
398.1957, 23.43570
398.6778, 22.36757
399.1599, 21.94219
399.6420, 22.31965
400.1241, 23.04910
400.6063, 23.78151
401.0884, 24.52774
401.5705, 24.97271
402.0526, 25.21848
402.5347, 25.10537
403.0168, 24.19240
403.4990, 22.96576
403.9811, 22.37337
404.4632, 22.88974
404.9453, 23.80957
405.4274, 23.26982
405.9095, 19.30754
406.3917, 17.26940
406.8738, 18.76013
407.3559, 20.96993
407.8380, 21.96868
408.3201, 21.51157
408.8022, 20.45955
409.2844, 19.52134
409.7665, 18.66872
410.2486, 18.50136
410.7307, 19.81759
411.2128, 20.97891
411.6949, 21.53834
412.1771, 21.61753
412.6592, 21.40086
413.1413, 20.93149
413.6234, 20.37758
414.1055, 20.09794
414.5876, 20.13177
415.0698, 20.32216
415.5519, 20.60299
416.0340, 21.05037
416.5161, 21.89815
416.9982, 23.12498
417.4803, 24.14120
417.9625, 24.22228
418.4446, 23.54897
418.9267, 23.40880
419.4088, 24.07284
419.8909, 24.95098
420.3730, 25.68279
420.8552, 26.33398
421.3373, 27.05338
421.8194, 28.07432
422.3015, 28.99521
422.7836, 29.16903
423.2657, 28.60695
423.7479, 28.23638
424.2300, 28.46365
424.7121, 29.05546
425.1942, 29.63317
425.6763, 30.19676
426.1584, 30.74081
426.6406, 31.33740
427.1227, 31.89296
427.6048, 32.27552
428.0869, 32.47221
428.5690, 32.39921
429.0511, 31.85125
429.5333, 30.84182
430.0154, 30.27486
430.4975, 30.09972
430.9796, 30.41849
431.4617, 31.57021
431.9438, 33.27312
432.4260, 34.88725
432.9081, 36.12911
433.3902, 37.00396
433.8723, 37.48326
434.3544, 37.05731
434.8365, 37.08474
435.3187, 38.27819
435.8008, 39.49750
436.2829, 39.43057
436.7650, 38.17409
437.2471, 37.26548
437.7292, 38.36967
438.2114, 41.59297
438.6935, 42.71206
439.1756, 39.80131
439.6577, 36.88957
440.1398, 34.87653
440.6219, 33.40241
441.1040, 31.91537
441.5862, 30.18877
442.0683, 28.40488
442.5504, 26.87912
443.0325, 25.57608
443.5146, 24.63320
443.9967, 24.32708
444.4789, 24.16732
444.9610, 23.73733
445.4431, 23.18325
445.9252, 23.09003
446.4073, 24.03442
446.8894, 25.75176
447.3716, 27.22403
447.8537, 28.37173
448.3358, 29.46832
448.8179, 31.01889
449.3000, 32.42156
449.7821, 32.84585
450.2643, 31.95562
450.7464, 30.87446
451.2285, 30.63951
451.7106, 31.08046
452.1927, 31.32251
452.6748, 31.10469
453.1570, 30.83326
453.6391, 30.85731
454.1212, 31.14977
454.6033, 31.73775
455.0854, 32.89218
455.5675, 34.14689
456.0497, 35.12057
456.5318, 35.81689
457.0139, 36.34942
457.4960, 36.75849
457.9781, 37.05956
458.4602, 37.23619
458.9424, 36.95928
459.4245, 37.23774
459.9066, 39.16481
460.3887, 41.21786
460.8708, 41.55338
461.3529, 40.05308
461.8351, 38.21881
462.3172, 37.42835
462.7993, 37.71448
463.2814, 38.20282
463.7635, 39.20447
464.2456, 40.03733
464.7278, 40.51959
465.2099, 40.73876
465.6920, 40.83858
466.1741, 40.87414
466.6562, 40.77156
467.1383, 40.41957
467.6205, 39.82071
468.1026, 38.94582
468.5847, 36.93217
469.0668, 35.42358
469.5489, 35.89066
470.0310, 37.56247
470.5132, 38.27467
470.9953, 36.37502
471.4774, 32.94323
471.9595, 30.66063
472.4416, 29.62158
472.9237, 29.40281
473.4059, 30.83792
473.8880, 32.45138
474.3701, 32.89531
474.8522, 32.00455
475.3343, 30.51461
475.8164, 28.38215
476.2986, 26.05292
476.7807, 24.72000
477.2628, 24.64047
477.7449, 24.91277
478.2270, 24.91976
478.7091, 24.73139
479.1913, 24.66208
479.6734, 25.03247
480.1555, 25.18577
480.6376, 24.63017
481.1197, 23.62745
481.6018, 22.59339
482.0839, 21.63156
482.5660, 21.08799
483.0482, 21.63598
483.5303, 23.96169
484.0124, 24.71459
484.4945, 22.49407
484.9766, 20.11851
485.4587, 19.13741
485.9409, 19.23831
486.4230, 19.38831
486.9051, 19.00617
487.3872, 18.28785
487.8693, 17.77121
488.3514, 17.31992
488.8336, 17.35790
489.3157, 18.16619
489.7978, 19.19187
490.2799, 20.14512
490.7620, 20.96904
491.2441, 21.68611
491.7263, 22.37610
492.2084, 22.96828
492.6905, 23.05853
493.1726, 22.44941
493.6547, 21.81340
494.1368, 21.36311
494.6190, 21.05920
495.1011, 20.96589
495.5832, 21.14443
496.0653, 21.13601
496.5474, 20.08189
497.0295, 18.54640
497.5117, 18.53726
497.9938, 20.68555
498.4759, 22.95568
498.9580, 23.74335
499.4401, 23.19837
499.9222, 22.36141
500.4044, 20.14451
500.8865, 18.82679
501.3686, 20.41521
501.8507, 23.64187
502.3328, 25.90117
502.8149, 26.29117
503.2971, 25.68720
503.7792, 25.27130
504.2613, 25.06130
504.7434, 24.99939
505.2255, 25.41249
505.7076, 25.63714
506.1898, 25.11738
506.6719, 24.19165
507.1540, 23.56201
507.6361, 23.59947
508.1182, 24.09823
508.6003, 24.59904
509.0825, 25.09351
509.5646, 25.61459
510.0467, 26.22010
510.5288, 26.80465
511.0109, 27.51270
511.4930, 28.18981
511.9752, 28.31601
512.4573, 27.20057
512.9394, 25.54925
513.4215, 25.09706
513.9036, 26.01979
514.3857, 27.02971
514.8679, 27.70485
515.3500, 28.17476
515.8321, 28.76153
516.3142, 29.55060
516.7963, 29.71684
517.2784, 28.19225
517.7606, 26.16697
518.2427, 25.46915
518.7248, 26.20225
519.2069, 27.04494
519.6890, 27.10710
520.1711, 26.57254
520.6533, 26.35781
521.1354, 27.00023
521.6175, 27.19895
522.0996, 26.14087
522.5817, 24.88402
523.0638, 24.75858
523.5460, 25.81064
524.0281, 26.79749
524.5102, 26.45101
524.9923, 24.82301
525.4744, 23.69095
525.9565, 23.59805
526.4387, 23.31446
526.9208, 22.39559
527.4029, 21.27295
527.8850, 20.32975
528.3671, 19.67901
528.8492, 19.36503
529.3314, 19.71011
529.8135, 20.59144
530.2956, 20.68412
530.7777, 19.54263
531.2598, 18.38427
531.7419, 18.15342
532.2241, 18.36837
532.7062, 18.17178
533.1883, 17.03586
533.6704, 16.23320
534.1525, 17.04099
534.6346, 18.79023
535.1168, 19.97454
535.5989, 20.26116
536.0810, 19.84182
536.5631, 18.70536
537.0452, 16.80303
537.5273, 15.70232
538.0095, 15.94532
538.4916, 16.30275
538.9737, 16.60068
539.4558, 16.63402
539.9379, 15.85326
540.4200, 14.16905
540.9022, 12.57676
541.3843, 12.64247
541.8664, 14.81050
542.3485, 16.12719
542.8306, 16.30331
543.3127, 15.86158
543.7948, 14.17334
544.2769, 12.20240
544.7590, 11.51526
545.2411, 12.79232
545.7233, 14.68212
546.2054, 15.57997
546.6875, 15.53634
547.1696, 15.16621
547.6517, 14.33368
548.1339, 13.62640
548.6160, 13.67122
549.0981, 14.25015
549.5802, 14.80842
550.0623, 15.68652
550.5444, 16.04469
551.0266, 14.55143
551.5087, 12.19317
551.9908, 11.59721
552.4729, 13.62642
552.9550, 16.13383
553.4371, 16.29600
553.9193, 13.48492
554.4014, 12.15919
554.8835, 13.35976
555.3656, 14.66389
555.8477, 15.35101
556.3298, 15.53496
556.8120, 15.37065
557.2941, 14.93545
557.7762, 14.45533
558.2583, 14.31139
558.7404, 14.57460
559.2225, 14.58319
559.7047, 14.22451
560.1868, 13.72022
560.6689, 13.16822
561.1510, 12.56108
561.6331, 11.80344
562.1152, 10.72241
562.5974, 9.904388
563.0795, 9.935300
563.5616, 10.68697
564.0437, 11.92261
564.5258, 13.79840
565.0079, 15.18849
565.4901, 14.74871
565.9722, 12.59864
566.4543, 11.54890
566.9364, 12.34027
567.4185, 13.37121
567.9006, 14.46332
568.3828, 15.26073
568.8649, 15.02669
569.3470, 13.68400
569.8291, 12.24582
570.3112, 11.93371
570.7933, 12.81914
571.2755, 13.53110
571.7576, 14.10160
572.2397, 14.43945
572.7218, 14.17077
573.2039, 13.84360
573.6860, 14.20388
574.1682, 15.41697
574.6503, 16.66470
575.1324, 17.48513
575.6145, 17.74501
576.0966, 16.49220
576.5787, 13.18674
577.0609, 10.26509
577.5430, 9.218211
578.0251, 9.651915
578.5072, 10.54302
578.9893, 12.26028
579.4714, 13.55822
579.9536, 13.74524
580.4357, 13.36565
580.9178, 13.07398
581.3999, 12.94559
581.8820, 12.62996
582.3641, 11.73804
582.8463, 10.53802
583.3284, 10.63684
583.8105, 13.89114
584.2926, 15.73891
584.7747, 14.86365
585.2568, 13.27949
585.7390, 12.17056
586.2211, 11.81093
586.7032, 12.33362
587.1853, 14.27350
587.6674, 16.84560
588.1495, 17.70162
588.6317, 16.55834
589.1138, 15.44700
589.5959, 15.01055
590.0780, 14.89724
590.5601, 14.56269
591.0422, 14.01238
591.5244, 13.97803
592.0065, 15.18072
592.4886, 16.60438
592.9707, 17.15544
593.4528, 17.08623
593.9349, 17.56763
594.4171, 19.19879
594.8992, 20.94553
595.3813, 20.85580
595.8634, 17.86114
596.3455, 16.19999
596.8276, 16.58131
597.3098, 17.34957
597.7919, 18.33291
598.2740, 19.09154
598.7561, 18.74772
599.2382, 16.88421
599.7203, 14.93267
600.2025, 15.04577
600.6846, 17.16025
601.1667, 18.94483
601.6488, 20.26299
602.1309, 21.03151
602.6130, 20.65604
603.0952, 19.75256
603.5773, 19.69967
604.0594, 21.40715
604.5415, 22.58675
605.0236, 21.35600
605.5057, 19.13244
605.9879, 18.36160
606.4700, 19.31239
606.9521, 20.11482
607.4342, 19.05688
607.9163, 16.54086
608.3984, 15.64995
608.8806, 18.11690
609.3627, 19.87368
609.8448, 20.28189
610.3269, 20.10177
610.8090, 19.87425
611.2911, 19.65040
611.7733, 19.16730
612.2554, 17.92141
612.7375, 16.58332
613.2196, 17.07273
613.7017, 19.62749
614.1838, 21.53880
614.6660, 22.04024
615.1481, 21.51439
615.6302, 20.08704
616.1123, 17.83215
616.5944, 15.94536
617.0765, 14.49643
617.5587, 13.65254
618.0408, 13.74848
618.5229, 14.51219
619.0050, 15.48036
619.4871, 16.47773
619.9692, 17.29520
620.4514, 17.68040
620.9335, 17.65277
621.4156, 17.02479
621.8977, 14.37292
622.3798, 12.84242
622.8619, 14.24803
623.3441, 16.68246
623.8262, 17.91471
624.3083, 17.42474
624.7904, 16.42725
625.2725, 15.86826
625.7546, 15.59913
626.2367, 15.10125
626.7188, 14.29686
627.2009, 13.89921
627.6830, 14.36469
628.1652, 15.39985
628.6473, 16.51383
629.1294, 18.07577
629.6115, 18.59030
630.0936, 16.57936
630.5757, 14.52760
631.0579, 14.61923
631.5400, 16.20972
632.0221, 17.25903
632.5042, 16.72038
632.9863, 15.35879
633.4684, 14.59061
633.9506, 14.53748
634.4327, 14.45461
634.9148, 14.18157
635.3969, 14.04131
635.8790, 14.00761
636.3611, 14.24300
636.8433, 15.27501
637.3254, 17.70055
637.8075, 19.40824
638.2896, 17.94417
638.7717, 14.94767
639.2538, 13.81591
639.7360, 14.96796
640.2181, 16.22299
640.7002, 15.94320
641.1823, 14.64579
641.6644, 14.44591
642.1465, 16.76066
642.6287, 18.23630
643.1108, 18.20956
643.5929, 17.87261
644.0750, 18.06384
644.5571, 18.65326
645.0392, 19.05164
645.5214, 18.92999
646.0035, 18.46048
646.4856, 17.57452
646.9677, 16.27882
647.4498, 16.47169
647.9319, 19.17400
648.4141, 21.99796
648.8962, 22.82209
649.3783, 22.11256
649.8604, 21.60511
650.3425, 21.83025
650.8246, 21.73331
651.3068, 20.56347
651.7889, 19.02008
652.2710, 17.78368
652.7531, 17.04957
653.2352, 17.04663
653.7173, 18.06203
654.1995, 19.76966
654.6816, 20.81830
655.1637, 21.07994
655.6458, 20.97846
656.1279, 19.70314
656.6100, 18.82668
657.0922, 19.85806
657.5743, 22.16166
658.0564, 23.48128
658.5385, 22.54444
659.0206, 20.86744
659.5027, 19.51474
659.9849, 18.59029
660.4670, 18.60936
660.9491, 19.72320
661.4312, 20.83281
661.9133, 20.90318
662.3954, 20.01605
662.8776, 19.34543
663.3597, 19.27981
663.8418, 18.91925
664.3239, 17.40063
664.8060, 16.13452
665.2881, 16.64008
665.7703, 18.60670
666.2524, 20.35501
666.7345, 20.87800
667.2166, 20.50000
667.6987, 19.50042
668.1808, 17.91295
668.6630, 17.10507
669.1451, 17.62876
669.6272, 18.47382
670.1093, 18.75301
670.5914, 18.47281
671.0735, 17.98148
671.5557, 16.77942
672.0378, 15.98514
672.5199, 16.34164
673.0020, 17.07178
673.4841, 17.36866
673.9662, 17.11392
674.4484, 16.50020
674.9305, 15.51280
675.4126, 14.53314
675.8947, 15.26250
676.3768, 18.47852
676.8589, 19.83912
677.3411, 17.03631
677.8232, 13.73132
678.3053, 12.78850
678.7874, 13.77756
679.2695, 15.23706
679.7516, 17.76228
680.2338, 19.50533
680.7159, 18.64011
681.1980, 16.57129
681.6801, 15.63587
682.1622, 16.14649
682.6443, 16.66097
683.1265, 15.88371
683.6086, 14.28189
684.0907, 14.27931
684.5728, 17.01245
685.0549, 18.85442
685.5370, 18.83662
686.0192, 18.21264
686.5013, 17.31219
686.9834, 16.37814
687.4655, 15.96367
687.9476, 16.45324
688.4297, 17.20691
688.9119, 17.89670
689.3940, 18.37977
689.8761, 18.15276
690.3582, 17.14839
690.8403, 16.16497
691.3224, 15.83240
691.8046, 16.01102
692.2867, 16.01467
692.7688, 15.38928
693.2509, 15.33911
693.7330, 16.48105
694.2151, 17.64480
694.6973, 18.23460
695.1794, 18.26926
695.6615, 17.85407
696.1436, 16.88906
696.6257, 16.00071
697.1078, 16.07653
697.5900, 16.81524
698.0721, 17.16837
698.5542, 16.98013
699.0363, 16.47536
699.5184, 15.64440
700.0005, 14.72412
700.4827, 14.57160
700.9648, 15.82868
701.4469, 16.82189
701.9290, 17.53897
702.4111, 17.97942
702.8932, 17.82902
703.3754, 17.46048
703.8575, 17.72831
704.3396, 19.03306
704.8217, 20.36352
705.3038, 20.31298
705.7859, 19.17971
706.2681, 18.38702
706.7502, 18.07173
707.2323, 17.95567
707.7144, 17.96604
708.1965, 18.00757
708.6786, 17.79258
709.1607, 17.04509
709.6428, 16.85842
710.1249, 18.06549
710.6071, 19.09232
711.0892, 18.59957
711.5713, 17.44250
712.0534, 17.16414
712.5355, 18.26987
713.0176, 19.92721
713.4998, 21.53102
713.9819, 22.94692
714.4640, 23.37487
714.9461, 22.69875
715.4282, 21.63253
715.9103, 20.08440
716.3925, 18.73840
716.8746, 18.94799
717.3567, 20.95703
717.8388, 22.17502
718.3209, 21.76647
718.8030, 21.19727
719.2852, 21.27405
719.7673, 21.55956
720.2494, 21.26104
720.7315, 20.29490
721.2136, 19.47913
721.6957, 19.69271
722.1779, 20.59085
722.6600, 20.86526
723.1421, 20.42779
723.6242, 20.14144
724.1063, 20.23135
724.5884, 20.59015
725.0706, 21.20448
725.5527, 22.04955
726.0348, 22.71779
726.5169, 23.48779
726.9990, 23.71283
727.4811, 22.43254
727.9633, 20.96734
728.4454, 21.19101
728.9275, 22.85006
729.4096, 23.72371
729.8917, 22.04031
730.3738, 19.31897
730.8560, 19.16883
731.3381, 21.69110
731.8202, 23.14935
732.3023, 22.75343
732.7844, 21.65012
733.2665, 20.19872
733.7487, 18.74682
734.2308, 18.55176
734.7129, 20.46680
735.1950, 22.01163
735.6771, 22.65410
736.1592, 22.77655
736.6414, 22.71912
737.1235, 22.39911
737.6056, 21.25474
738.0877, 18.98688
738.5698, 16.95803
739.0519, 17.51275
739.5341, 20.28369
740.0162, 21.85082
740.4983, 21.83747
740.9804, 21.59886
741.4625, 21.81331
741.9446, 22.16879
742.4268, 22.02205
742.9089, 21.23976
743.3910, 20.69525
743.8731, 20.68121
744.3552, 20.67892
744.8373, 20.16640
745.3195, 19.63139
745.8016, 20.15430
746.2837, 21.75835
746.7658, 22.70606
747.2479, 20.68441
747.7300, 17.25816
748.2122, 17.32037
748.6943, 20.93975
749.1764, 23.39767
749.6585, 23.19519
750.1406, 21.83344
750.6227, 20.46428
751.1049, 19.14047
751.5870, 19.09568
752.0691, 21.65544
752.5512, 23.59519
753.0333, 24.23981
753.5154, 24.13200
753.9976, 23.36722
754.4797, 22.26655
754.9618, 21.53889
755.4439, 21.59408
755.9260, 21.99184
756.4081, 22.17504
756.8903, 22.20384
757.3724, 22.31782
757.8545, 22.54679
758.3366, 22.86996
758.8187, 23.31589
759.3008, 23.78946
759.7830, 24.01721
760.2651, 23.64900
760.7472, 23.88219
761.2293, 25.64526
761.7114, 26.93263
762.1935, 26.49307
762.6757, 25.29426
763.1578, 24.53012
763.6399, 24.49677
764.1220, 25.08721
764.6041, 26.68416
765.0862, 28.59482
765.5684, 29.58091
766.0505, 29.86003
766.5326, 30.66564
767.0147, 32.42991
767.4968, 34.18713
767.9789, 34.75258
768.4611, 34.21299
768.9432, 34.55348
769.4253, 36.40820
769.9074, 38.06695
770.3895, 38.79742
770.8716, 39.67220
771.3538, 41.71106
771.8359, 44.51442
772.3180, 46.67659
772.8001, 47.38107
773.2822, 48.10392
773.7643, 49.88643
774.2465, 52.28438
774.7286, 54.93437
775.2107, 57.61488
775.6928, 59.53994
776.1749, 60.20934
776.6570, 60.54278
777.1392, 62.53099
777.6213, 66.53396
778.1034, 69.55170
778.5855, 71.09663
779.0676, 72.55755
779.5497, 74.47190
780.0319, 76.66716
780.5140, 79.07397
780.9961, 81.75865
781.4782, 83.79014
781.9603, 84.30529
782.4424, 84.78750
782.9246, 86.37576
783.4067, 88.35793
783.8888, 89.50090
784.3709, 89.69617
784.8530, 90.00252
785.3351, 91.40417
785.8173, 93.27529
786.2994, 93.94669
786.7815, 93.41357
787.2636, 92.86850
787.7457, 92.43803
788.2278, 92.36364
788.7100, 93.14194
789.1921, 94.35745
789.6742, 94.28065
790.1563, 91.72022
790.6384, 90.11974
791.1205, 91.45969
791.6026, 91.99254
792.0847, 89.12071
792.5668, 84.16822
793.0490, 79.31332
793.5311, 75.22252
794.0132, 71.60726
794.4953, 68.46288
794.9774, 65.52250
795.4595, 62.30178
795.9417, 58.83290
796.4238, 55.29178
796.9059, 51.67326
797.3880, 48.86732
797.8701, 48.18708
798.3522, 49.36912
798.8344, 48.00877
799.3165, 41.86058
799.7986, 37.48446
800.2807, 37.61841
800.7628, 38.30504
801.2449, 37.20776
801.7271, 34.81307
802.2092, 32.64962
802.6913, 31.15235
803.1734, 29.72755
803.6555, 27.78742
804.1376, 25.99009
804.6198, 25.31417
805.1019, 25.42738
805.5840, 25.14669
806.0661, 23.97378
806.5482, 22.64502
807.0303, 22.18395
807.5125, 22.49747
807.9946, 22.75450
808.4767, 22.97246
808.9588, 23.04023
809.4409, 22.91105
809.9230, 22.63372
810.4052, 22.25892
810.8873, 21.78320
811.3694, 21.19205
811.8515, 20.09989
812.3336, 19.41843
812.8157, 19.61877
813.2979, 20.05658
813.7800, 20.37170
814.2621, 20.46428
814.7442, 20.14400
815.2263, 19.21396
815.7084, 18.47108
816.1906, 19.01231
816.6727, 20.19732
817.1548, 20.70132
817.6369, 20.49203
818.1190, 19.96061
818.6011, 19.21781
819.0833, 18.91742
819.5654, 20.30253
820.0475, 23.50473
820.5296, 24.41436
821.0117, 21.54065
821.4938, 19.45225
821.9760, 20.10088
822.4581, 21.30733
822.9402, 21.18754
823.4223, 20.01688
823.9044, 19.16494
824.3865, 18.82688
824.8687, 18.93845
825.3508, 20.26896
825.8329, 21.43518
826.3150, 20.75188
826.7971, 18.70518
827.2792, 16.78356
827.7614, 15.62997
828.2435, 15.31266
828.7256, 16.41709
829.2077, 18.42968
829.6898, 19.25588
830.1719, 18.84130
830.6541, 18.37503
831.1362, 18.25995
831.6183, 18.42455
832.1004, 18.96462
832.5825, 19.85870
833.0646, 19.43165
833.5468, 15.92329
834.0289, 13.85920
834.5110, 14.85673
834.9931, 16.36127
835.4752, 16.78178
835.9573, 16.42472
836.4395, 16.30622
836.9216, 16.77731
837.4037, 17.18678
837.8858, 17.10210
838.3679, 16.85503
838.8500, 16.70940
839.3322, 16.71037
839.8143, 16.93317
840.2964, 17.38663
840.7785, 17.88816
841.2606, 18.25216
841.7427, 18.49053
842.2249, 18.68549
842.7070, 18.84597
843.1891, 18.76528
843.6712, 18.44312
844.1533, 17.61641
844.6354, 15.63852
845.1176, 13.04003
845.5997, 12.48632
846.0818, 16.27210
846.5639, 18.46589
847.0460, 18.06713
847.5281, 17.22131
848.0103, 16.95064
848.4924, 16.87066
848.9745, 16.15540
849.4566, 14.64526
849.9387, 13.57731
850.4208, 14.06961
850.9030, 14.84605
851.3851, 14.64832
851.8672, 13.89932
852.3493, 13.40772
852.8314, 13.34744
853.3135, 13.51528
853.7957, 13.77845
854.2778, 14.10867
854.7599, 14.48052
855.2420, 14.89090
855.7241, 15.12253
856.2062, 15.12531
856.6884, 15.07637
857.1705, 15.05915
857.6526, 15.06580
858.1347, 15.11720
858.6168, 14.81948
859.0989, 15.13340
859.5811, 14.19572
860.0632, 13.47744
860.5453, 13.13055
861.0274, 13.15045
861.5095, 13.68193
861.9916, 14.59960
862.4738, 15.44450
862.9559, 16.26388
863.4380, 16.58645
863.9201, 15.72388
864.4022, 14.45052
864.8843, 13.54912
865.3665, 13.12325
865.8486, 13.27434
866.3307, 14.02382
866.8128, 14.87287
867.2949, 15.26999
867.7770, 15.24210
868.2592, 14.79099
868.7413, 13.90916
869.2234, 13.16750
869.7055, 12.70309
870.1876, 12.51672
870.6697, 12.67291
871.1519, 13.09240
871.6340, 13.33788
872.1161, 13.46139
872.5981, 13.30959
873.0803, 12.39553
873.5624, 11.72589
874.0445, 12.07014
874.5266, 12.75529
875.0087, 12.56781
875.4908, 11.27191
875.9730, 10.82197
876.4551, 12.99325
876.9372, 15.00370
877.4193, 14.85704
877.9014, 13.66056
878.3835, 12.74743
878.8657, 12.38756
879.3478, 12.44104
879.8299, 12.86786
880.3120, 13.50633
880.7941, 14.31837
881.2762, 15.14460
881.7584, 15.39254
882.2405, 15.05530
882.7226, 14.54274
883.2047, 13.99178
883.6868, 13.72611
884.1689, 14.34665
884.6511, 15.79524
885.1332, 15.95417
885.6153, 14.07477
886.0974, 13.02595
886.5795, 13.99008
887.0616, 15.13064
887.5438, 14.99630
888.0259, 13.94311
888.5080, 12.99124
888.9901, 11.92279
889.4722, 11.53872
889.9543, 12.39383
890.4365, 13.47801
890.9186, 14.99393
891.4007, 16.02567
891.8828, 14.67036
892.3649, 11.12256
892.8470, 8.911798
893.3292, 11.06940
893.8113, 14.09000
894.2934, 14.79816
894.7755, 13.94648
895.2576, 12.31814
895.7397, 10.36063
896.2219, 9.106885
896.7040, 9.103908
897.1861, 10.02563
897.6682, 11.88468
898.1503, 14.41394
898.6324, 15.31945
899.1146, 14.49101
899.5967, 13.50911
900.0788, 12.76461
900.5609, 12.34613
901.0430, 12.42765
901.5251, 12.89390
902.0073, 13.04050
902.4894, 12.92634
902.9715, 12.34789
903.4536, 10.16354
903.9357, 8.848150
904.4178, 10.43388
904.9000, 13.04524
905.3821, 14.01158
905.8642, 13.04451
906.3463, 12.09260
906.8284, 11.52591
907.3105, 11.18919
907.7927, 10.88617
908.2748, 10.87519
908.7569, 11.66754
909.2390, 13.00920
909.7211, 14.10342
910.2032, 14.61139
910.6854, 14.67597
911.1675, 13.98592
911.6496, 13.18630
912.1317, 13.86188
912.6138, 15.41753
913.0959, 15.35016
913.5781, 13.02649
914.0602, 10.59584
914.5423, 10.05634
915.0244, 10.92837
915.5065, 11.99456
915.9886, 13.26259
916.4708, 13.66583
916.9529, 12.88266
917.4350, 12.37108
917.9171, 13.14014
918.3992, 14.24501
918.8813, 13.90937
919.3635, 11.83525
919.8456, 10.57883
920.3277, 10.22838
920.8098, 10.55296
921.2919, 12.45829
921.7740, 14.16791
922.2562, 14.20472
922.7383, 13.04553
923.2204, 12.14706
923.7025, 11.74726
924.1846, 11.43142
924.6667, 10.72185
925.1489, 10.46908
925.6310, 11.41127
926.1131, 13.00879
926.5952, 14.76207
927.0773, 16.43638
927.5594, 17.50480
928.0416, 17.57984
928.5237, 17.08756
929.0058, 16.23226
929.4879, 15.15794
929.9700, 13.91907
930.4521, 12.66553
930.9343, 11.81846
931.4164, 11.55434
931.8985, 11.72749
932.3806, 12.43105
932.8627, 13.33579
933.3448, 13.12178
933.8270, 11.92534
934.3091, 11.30248
934.7912, 11.60393
935.2733, 12.25946
935.7554, 12.92662
936.2375, 13.52150
936.7197, 13.79256
937.2018, 13.64208
937.6839, 13.77565
938.1660, 14.40763
938.6481, 14.73392
939.1302, 14.07982
939.6124, 13.54584
940.0945, 14.66235
940.5766, 17.12863
941.0587, 18.09701
941.5408, 16.09556
942.0229, 14.91265
942.5051, 15.09954
942.9872, 15.72660
943.4693, 16.64703
943.9514, 17.57311
944.4335, 18.04964
944.9156, 18.04966
945.3978, 18.25388
945.8799, 18.98518
946.3620, 19.86894
946.8441, 20.66251
947.3262, 21.54693
947.8083, 22.78916
948.2905, 24.27540
948.7726, 25.59031
949.2547, 26.57720
949.7368, 27.89639
950.2189, 30.57844
950.7010, 33.56466
951.1832, 35.20084
951.6653, 36.03949
952.1474, 37.41584
952.6295, 39.58288
953.1116, 42.26925
953.5938, 45.38118
954.0759, 48.44081
954.5580, 50.91458
955.0400, 52.67699
955.5222, 52.40675
956.0043, 50.15273
956.4864, 49.66471
956.9685, 52.31086
957.4506, 55.64928
957.9327, 57.27386
958.4149, 57.64571
958.8970, 58.57309
959.3791, 60.02245
959.8612, 62.42440
960.3433, 66.47500
960.8254, 69.68423
961.3076, 70.76102
961.7897, 70.53185
962.2718, 69.78947
962.7539, 68.50007
963.2360, 68.48154
963.7181, 70.49521
964.2003, 72.61565
964.6824, 75.74438
965.1645, 77.79972
965.6466, 77.55918
966.1287, 75.56457
966.6108, 72.53197
967.0930, 68.41018
967.5751, 64.47355
968.0572, 61.79511
968.5393, 58.32638
969.0214, 52.09844
969.5035, 45.68419
969.9857, 41.61177
970.4678, 39.40173
970.9499, 37.39175
971.4320, 35.15129
971.9141, 32.44929
972.3962, 28.26899
972.8784, 24.42089
973.3605, 22.96164
973.8426, 22.71546
974.3247, 21.60776
974.8068, 19.60363
975.2889, 18.26311
975.7711, 18.53730
976.2532, 19.27059
976.7353, 19.37153
977.2174, 18.94191
977.6995, 17.74889
978.1816, 16.18686
978.6638, 15.85358
979.1459, 17.02705
979.6280, 17.92611
980.1101, 17.00960
980.5922, 15.26123
981.0743, 14.91160
981.5565, 15.65200
982.0386, 15.40495
982.5207, 14.05961
983.0028, 13.06793
983.4849, 13.00204
983.9670, 13.44619
984.4492, 14.07157
984.9313, 14.69729
985.4134, 14.20854
985.8955, 12.31266
986.3776, 11.77290
986.8597, 13.39956
987.3419, 14.21906
987.8240, 12.33202
988.3061, 9.773257
988.7882, 9.550201
989.2703, 11.64781
989.7524, 13.05095
990.2346, 13.36705
990.7167, 13.87391
991.1988, 14.96370
991.6809, 15.95542
992.1630, 16.79992
992.6451, 17.13464
993.1273, 15.91139
993.6094, 12.70453
994.0915, 11.08811
994.5736, 12.29175
995.0557, 13.43464
995.5378, 14.13050
996.0200, 14.45273
996.5021, 14.37035
996.9842, 13.98071
997.4663, 13.37200
997.9484, 12.48440
998.4305, 11.93337
998.9127, 12.15375
999.3948, 12.39197
999.8769, 12.22006
1000.359, 12.00826
1000.841, 12.35093
1001.323, 12.92412
1001.805, 12.61345
1002.287, 10.89113
1002.770, 9.921918
1003.252, 12.18527
1003.734, 14.13789
1004.216, 12.08809
1004.698, 8.837347
1005.180, 8.524508
1005.662, 10.81182
1006.144, 12.44462
1006.627, 11.95860
1007.109, 11.07134
1007.591, 11.08348
1008.073, 11.55657
1008.555, 12.08072
1009.037, 12.63130
1009.519, 13.31802
1010.001, 14.06252
1010.483, 14.45462
1010.966, 14.22300
1011.448, 13.79916
1011.930, 13.77929
1012.412, 13.88662
1012.894, 13.56826
1013.376, 12.88581
1013.858, 11.92484
1014.340, 10.80978
1014.823, 10.22806
1015.305, 10.70096
1015.787, 11.73224
1016.269, 12.59104
1016.751, 13.30573
1017.233, 14.11822
1017.715, 14.94500
1018.197, 14.95988
1018.679, 13.95159
1019.162, 12.94170
1019.644, 12.76889
1020.126, 12.53413
1020.608, 13.28127
1021.090, 13.27241
1021.572, 13.86150
1022.054, 15.10758
1022.536, 15.72823
1023.018, 15.23933
1023.501, 14.72768
1023.983, 15.26720
1024.465, 16.33784
1024.947, 16.21158
1025.429, 14.77248
1025.911, 13.40908
1026.393, 12.04556
1026.875, 11.47757
1027.358, 12.13922
1027.840, 13.20531
1028.322, 13.97476
1028.804, 14.40392
1029.286, 14.16959
1029.768, 12.93486
1030.250, 12.51541
1030.732, 13.30562
1031.214, 13.93540
1031.697, 13.91039
1032.179, 13.52628
1032.661, 12.84481
1033.143, 12.10050
1033.625, 12.57103
1034.107, 14.96032
1034.589, 16.85752
1035.071, 18.64897
1035.553, 19.12295
1036.036, 16.69112
1036.518, 14.08319
1037.000, 14.29451
1037.482, 16.81172
1037.964, 18.66920
1038.446, 19.86853
1038.928, 20.37239
1039.410, 19.86491
1039.893, 19.08571
1040.375, 17.90885
1040.857, 16.86042
1041.339, 16.68120
1041.821, 15.93715
1042.303, 15.39868
1042.785, 15.56229
1043.267, 14.86016
1043.750, 15.30022
1044.232, 16.11249
1044.714, 17.49024
1045.196, 18.76025
1045.678, 19.01643
1046.160, 18.53482
1046.642, 18.76542
1047.124, 20.70741
1047.606, 21.39997
1048.089, 18.83734
1048.571, 16.94286
1049.053, 18.09451
1049.535, 20.01821
1050.017, 20.53764
1050.499, 19.78417
1050.981, 18.85961
1051.463, 17.80269
1051.945, 16.95092
1052.428, 15.92519
1052.910, 15.66457
1053.392, 17.43405
1053.874, 19.51338
1054.356, 20.09462
1054.838, 19.44971
1055.320, 18.94156
1055.802, 18.86204
1056.285, 18.86691
1056.767, 19.37255
1057.249, 19.32077
1057.731, 17.49591
1058.213, 15.41469
1058.695, 14.43615
1059.177, 14.55712
1059.659, 15.50747
1060.141, 17.54897
1060.624, 18.85587
1061.106, 17.88707
1061.588, 17.13330
1062.070, 18.61723
1062.552, 20.32975
1063.034, 19.70855
1063.516, 17.63487
1063.998, 17.01957
1064.480, 18.76720
1064.963, 20.28836
1065.445, 20.11007
1065.927, 19.99474
1066.409, 21.46278
1066.891, 22.93707
1067.373, 22.67640
1067.855, 21.16727
1068.337, 19.78866
1068.820, 18.86528
1069.302, 18.17490
1069.784, 17.49377
1070.266, 17.18334
1070.748, 17.60126
1071.230, 18.32580
1071.712, 19.16437
1072.194, 19.93645
1072.677, 20.49881
1073.159, 20.80470
1073.641, 20.39696
1074.123, 18.21787
1074.605, 16.37095
1075.087, 15.90969
1075.569, 16.25635
1076.051, 17.29352
1076.533, 18.59375
1077.016, 19.56767
1077.498, 20.09483
1077.980, 20.26757
1078.462, 20.14066
1078.944, 19.64602
1079.426, 18.28363
1079.908, 16.99405
1080.390, 16.47420
1080.872, 16.58153
1081.354, 17.13127
1081.837, 18.01807
1082.319, 18.91355
1082.801, 19.93833
1083.283, 20.47622
1083.765, 20.02871
1084.247, 19.20553
1084.729, 18.32955
1085.211, 17.43289
1085.694, 16.33180
1086.176, 15.16570
1086.658, 14.60737
1087.140, 15.07481
1087.622, 15.60908
1088.104, 15.96406
1088.586, 16.08385
1089.068, 15.78620
1089.551, 15.33797
1090.033, 14.86795
1090.515, 14.53497
1090.997, 14.82247
1091.479, 16.06120
1091.961, 16.99659
1092.443, 17.17777
1092.925, 16.91220
1093.407, 16.06070
1093.890, 15.08087
1094.372, 14.24509
1094.854, 13.67981
1095.336, 13.66013
1095.818, 14.31276
1096.300, 14.80403
1096.782, 14.88593
1097.264, 14.73802
1097.746, 14.25918
1098.229, 13.74209
1098.711, 13.17504
1099.193, 12.83466
1099.675, 13.39854
1100.157, 14.95531
1100.639, 15.92333
1101.121, 15.23278
1101.603, 14.87219
1102.086, 15.95331
1102.568, 16.90711
1103.050, 16.59988
1103.532, 15.65195
1104.014, 14.73594
1104.496, 13.98924
1104.978, 14.02367
1105.460, 15.76399
1105.943, 16.90649
1106.425, 16.75776
1106.907, 16.34972
1107.389, 16.07103
1107.871, 15.81496
1108.353, 15.45566
1108.835, 15.00233
1109.317, 14.50495
1109.799, 13.84203
1110.281, 13.44597
1110.764, 13.47856
1111.246, 13.60985
1111.728, 14.39215
1112.210, 14.64636
1112.692, 12.56688
1113.174, 9.418717
1113.656, 8.634413
1114.138, 10.89503
1114.621, 12.45031
1115.103, 13.26616
1115.585, 13.39565
1116.067, 12.28009
1116.549, 11.23336
1117.031, 11.12376
1117.513, 11.45570
1117.995, 11.37341
1118.478, 10.86690
1118.960, 10.94002
1119.442, 12.41300
1119.924, 12.33022
1120.406, 9.124743
1120.888, 7.182425
1121.370, 9.204818
1121.852, 12.01679
1122.334, 11.74034
1122.817, 9.112170
1123.299, 8.258491
1123.781, 9.697951
1124.263, 10.83041
1124.745, 11.70509
1125.227, 11.70957
1125.709, 10.29433
1126.191, 9.159489
1126.673, 9.845849
1127.156, 11.57313
1127.638, 12.47882
1128.120, 12.54106
1128.602, 12.25704
1129.084, 11.57075
1129.566, 11.11180
1130.048, 11.00037
1130.530, 11.28674
1131.013, 12.09728
1131.495, 12.75308
1131.977, 11.99456
1132.459, 10.34840
1132.941, 10.96607
1133.423, 13.56346
1133.905, 13.68833
1134.387, 10.98818
1134.870, 8.932669
1135.352, 8.889862
1135.834, 9.787595
1136.316, 10.77931
1136.798, 11.53040
1137.280, 11.06320
1137.762, 9.783248
1138.244, 9.062330
1138.726, 8.928054
1139.208, 9.110721
1139.691, 9.538173
1140.173, 10.41697
1140.655, 11.98439
1141.137, 13.11331
1141.619, 11.72614
1142.101, 9.372127
1142.583, 8.876559
1143.065, 9.597349
1143.548, 10.17346
1144.030, 10.37572
1144.512, 10.35689
1144.994, 10.17416
1145.476, 9.716430
1145.958, 8.510523
1146.440, 7.484955
1146.922, 7.730555
1147.405, 8.591134
1147.887, 9.481876
1148.369, 10.21975
1148.851, 10.46740
1149.333, 10.28883
1149.815, 10.44323
1150.297, 11.47228
1150.779, 12.39440
1151.261, 12.93881
1151.744, 12.83326
1152.226, 11.08830
1152.708, 9.149667
1153.190, 9.039204
1153.672, 10.25764
1154.154, 10.70145
1154.636, 9.759673
1155.118, 9.078978
1155.600, 9.338078
1156.083, 9.667905
1156.565, 9.904193
1157.047, 9.969486
1157.529, 9.641303
1158.011, 9.200156
1158.493, 9.138427
1158.975, 9.470662
1159.457, 9.664530
1159.940, 9.039335
1160.422, 9.361547
1160.904, 11.68275
1161.386, 13.51323
1161.868, 14.01015
1162.350, 13.64558
1162.832, 12.52777
1163.314, 11.02733
1163.796, 10.34315
1164.279, 10.63618
1164.761, 10.81552
1165.243, 10.70781
1165.725, 11.28526
1166.207, 13.20146
1166.689, 14.04356
1167.171, 12.06503
1167.653, 9.362683
1168.135, 9.002489
1168.618, 10.53549
1169.100, 11.53674
1169.582, 12.00577
1170.064, 11.96081
1170.546, 11.42135
1171.028, 11.60061
1171.510, 12.90082
1171.992, 13.38991
1172.474, 11.31245
1172.957, 8.547347
1173.439, 8.542817
1173.921, 10.43347
1174.403, 12.30990
1174.885, 13.71626
1175.367, 12.70191
1175.849, 9.628137
1176.331, 7.687469
1176.814, 8.241446
1177.296, 9.629603
1177.778, 10.75304
1178.260, 11.45542
1178.742, 11.41853
1179.224, 10.94884
1179.706, 10.44724
1180.188, 9.858943
1180.671, 8.603064
1181.153, 6.935205
1181.635, 6.677312
1182.117, 9.168056
1182.599, 11.18328
1183.081, 10.17914
1183.563, 9.119184
1184.045, 10.12239
1184.527, 11.74001
1185.010, 12.79449
1185.492, 13.16294
1185.974, 12.68378
1186.456, 11.26604
1186.938, 10.43832
1187.420, 10.87034
1187.902, 11.26475
1188.384, 11.67253
1188.866, 11.67678
1189.349, 10.58564
1189.831, 9.517686
1190.313, 9.867464
1190.795, 11.17085
1191.277, 11.53395
1191.759, 10.66762
1192.241, 10.15960
1192.723, 10.15294
1193.206, 9.925921
1193.688, 9.172926
1194.170, 8.875032
1194.652, 9.721329
1195.134, 10.89789
1195.616, 11.27203
1196.098, 10.97904
1196.580, 10.39600
1197.063, 9.606975
1197.545, 9.667264
1198.027, 10.51033
1198.509, 10.61042
1198.991, 9.608666
1199.473, 8.920630
1199.955, 9.598441
1200.437, 10.41075
1200.919, 9.307255
1201.401, 7.562285
1201.884, 7.415540
1202.366, 8.313014
1202.848, 9.327881
1203.330, 10.25379
1203.812, 11.00376
1204.294, 11.55218
1204.776, 11.94859
1205.258, 12.38687
1205.741, 12.35100
1206.223, 11.20221
1206.705, 9.779028
1207.187, 8.143035
1207.669, 7.034502
1208.151, 7.841825
1208.633, 9.880986
1209.115, 10.69499
1209.598, 9.576004
1210.080, 8.998742
1210.562, 10.05496
1211.044, 10.61354
1211.526, 10.20636
1212.008, 9.214634
1212.490, 6.821843
1212.972, 5.038384
1213.454, 6.905031
1213.937, 11.29279
1214.419, 12.39597
1214.901, 9.152429
1215.383, 8.290491
1215.865, 10.39311
1216.347, 11.28781
1216.829, 9.894135
1217.311, 8.509885
1217.793, 8.488797
1218.276, 7.924960
1218.758, 8.860493
1219.240, 8.448586
1219.722, 9.131575
1220.204, 10.36446
1220.686, 9.744070
1221.168, 7.749737
1221.650, 7.170797
1222.133, 8.383764
1222.615, 8.897276
1223.097, 7.156980
1223.579, 5.812745
1224.061, 8.223486
1224.543, 11.16106
1225.025, 11.30134
1225.507, 10.28855
1225.990, 9.912591
1226.472, 10.08898
1226.954, 10.44099
1227.436, 10.78580
1227.918, 10.31460
1228.400, 7.886866
1228.882, 6.565758
1229.364, 8.228128
1229.846, 9.594992
1230.328, 8.893419
1230.811, 7.934971
1231.293, 8.217632
1231.775, 9.107062
1232.257, 9.400476
1232.739, 9.103455
1233.221, 9.064380
1233.703, 9.373640
1234.185, 9.541748
1234.668, 9.525051
1235.150, 9.422418
1235.632, 9.278317
1236.114, 8.880581
1236.596, 7.987389
1237.078, 7.139570
1237.560, 7.433897
1238.042, 8.479125
1238.525, 9.252988
1239.007, 9.609404
1239.489, 8.765584
1239.971, 7.047644
1240.453, 5.665415
1240.935, 5.074593
1241.417, 5.610651
1241.899, 7.899314
1242.381, 9.898927
1242.864, 9.085011
1243.346, 8.311009
1243.828, 11.14091
1244.310, 14.36418
1244.792, 13.92317
1245.274, 10.98752
1245.756, 8.514822
1246.238, 6.962610
1246.720, 6.322209
1247.203, 7.562301
1247.685, 8.097078
1248.167, 6.712930
1248.649, 6.253888
1249.131, 8.241811
1249.613, 10.33223
1250.095, 10.67897
1250.577, 11.55173
1251.059, 10.19252
1251.542, 10.87574
1252.024, 10.04589
1252.506, 7.720620
1252.988, 7.129853
1253.470, 8.477870
1253.952, 9.902846
1254.434, 10.77028
1254.916, 10.88838
1255.399, 10.03322
1255.881, 9.097749
1256.363, 9.543808
1256.845, 8.674986
1257.327, 9.541329
1257.809, 8.231326
1258.291, 7.978997
1258.773, 8.427507
1259.255, 8.209712
1259.738, 7.272356
1260.220, 7.307549
1260.702, 9.449961
1261.184, 11.11234
1261.666, 11.37354
1262.148, 11.13262
1262.630, 10.50488
1263.112, 9.736176
1263.594, 8.494112
1264.077, 7.631747
1264.559, 8.837564
1265.041, 11.67907
1265.523, 12.28999
1266.005, 10.22096
1266.487, 8.402731
1266.969, 6.846735
1267.451, 6.473654
1267.934, 7.541028
1268.416, 8.279379
1268.898, 7.658740
1269.380, 7.067624
1269.862, 8.451801
1270.344, 10.40969
1270.826, 10.23193
1271.308, 8.856100
1271.791, 7.683339
1272.273, 6.932817
1272.755, 6.980042
1273.237, 7.621144
1273.719, 7.891333
1274.201, 7.421834
1274.683, 7.310602
1275.165, 8.541240
1275.647, 9.517116
1276.130, 9.469628
1276.612, 9.200641
1277.094, 8.817056
1277.576, 8.783171
1278.058, 10.15136
1278.540, 11.96765
1279.022, 11.25967
1279.504, 7.688120
1279.986, 6.673844
1280.469, 8.672902
1280.951, 10.18665
1281.433, 10.82551
1281.915, 10.33927
1282.397, 8.623446
1282.879, 7.295520
1283.361, 7.675714
1283.843, 8.795079
1284.326, 9.507194
1284.808, 9.811085
##END=



