##NAMES=Murmanite
##RRUFFID=R110202
##IDEAL CHEMISTRY=Na_2_Ti^4+^_2_Na_2_Ti^4+^_2_(Si_2_O_7_)_2_O_4_(H_2_O)_4_
##LOCALITY=Kvanefjeld Mt., Kuannersuit plateau, Ilimaussaq complex, Narsaq, Kitaa Province, Greenland
##OWNER=RRUFF
##SOURCE=Donald Doell
##DESCRIPTION=Pink plates frozen in matrix
##STATUS=The identification of this mineral has been confirmed only by single crystal X-ray diffraction.
##URL=rruff.info/R110202
175.8268, 148.9327
176.3090, 151.3994
176.7911, 154.1525
177.2732, 156.9526
177.7553, 159.0405
178.2374, 160.2889
178.7195, 161.1580
179.2017, 161.8353
179.6838, 162.3084
180.1659, 162.4948
180.6480, 162.3932
181.1301, 162.1860
181.6122, 162.0542
182.0944, 161.9697
182.5765, 161.8333
183.0586, 161.5265
183.5407, 161.1521
184.0228, 160.9655
184.5049, 161.0055
184.9871, 161.0305
185.4692, 160.6568
185.9513, 159.9600
186.4334, 159.3779
186.9155, 159.2109
187.3976, 159.3219
187.8798, 159.2063
188.3619, 158.7901
188.8440, 158.3512
189.3261, 158.4129
189.8082, 158.9267
190.2903, 159.2540
190.7725, 158.8484
191.2546, 157.8833
191.7367, 157.4494
192.2188, 157.6741
192.7009, 158.2156
193.1830, 158.5970
193.6652, 158.8207
194.1473, 158.8406
194.6294, 158.3943
195.1115, 157.5551
195.5936, 157.3686
196.0757, 158.0137
196.5579, 159.1147
197.0400, 159.9091
197.5221, 160.3524
198.0042, 160.9521
198.4863, 162.2572
198.9684, 164.2801
199.4506, 165.4638
199.9327, 165.4935
200.4148, 164.8969
200.8969, 164.8052
201.3790, 165.2811
201.8611, 165.9165
202.3433, 166.5664
202.8254, 167.2576
203.3075, 167.6315
203.7896, 167.5627
204.2717, 167.2457
204.7538, 167.1566
205.2360, 167.3083
205.7181, 167.6230
206.2002, 168.1652
206.6823, 169.0252
207.1644, 169.4721
207.6465, 169.3210
208.1287, 168.7870
208.6108, 168.5282
209.0929, 168.6249
209.5750, 168.7684
210.0571, 168.7370
210.5392, 168.4625
211.0214, 168.3562
211.5035, 168.5363
211.9856, 168.8846
212.4677, 168.9316
212.9498, 168.5147
213.4319, 168.1711
213.9140, 168.3338
214.3962, 169.2680
214.8783, 169.7432
215.3604, 169.5079
215.8425, 168.7591
216.3246, 168.3084
216.8067, 168.2634
217.2889, 168.2964
217.7710, 168.2036
218.2531, 167.9368
218.7352, 167.6713
219.2173, 167.3998
219.6994, 167.1325
220.1816, 166.9060
220.6637, 166.6140
221.1458, 166.5261
221.6279, 166.8566
222.1100, 167.7935
222.5921, 168.6662
223.0743, 169.4816
223.5564, 170.1979
224.0385, 170.6172
224.5206, 170.5960
225.0027, 170.4995
225.4848, 170.5428
225.9670, 170.7569
226.4491, 171.0481
226.9312, 171.4301
227.4133, 171.8878
227.8954, 172.3616
228.3775, 172.8195
228.8597, 173.3287
229.3418, 173.9653
229.8239, 174.9033
230.3060, 175.5600
230.7881, 175.8626
231.2702, 175.8429
231.7524, 175.5880
232.2345, 174.8445
232.7166, 174.2181
233.1987, 174.1288
233.6808, 174.9541
234.1629, 175.4689
234.6451, 175.5489
235.1272, 175.2563
235.6093, 174.8565
236.0914, 174.2909
236.5735, 173.6994
237.0556, 173.1690
237.5378, 172.7653
238.0199, 172.2831
238.5020, 171.6824
238.9841, 170.9973
239.4662, 170.3740
239.9483, 169.8010
240.4305, 169.3150
240.9126, 168.9708
241.3947, 168.9604
241.8768, 168.6584
242.3589, 167.8809
242.8410, 166.8067
243.3232, 166.0776
243.8053, 165.9173
244.2874, 165.7971
244.7695, 165.4014
245.2516, 164.4060
245.7337, 163.8603
246.2159, 163.9472
246.6980, 164.4798
247.1801, 164.8502
247.6622, 164.9325
248.1443, 165.0412
248.6264, 165.3331
249.1086, 165.8977
249.5907, 166.4258
250.0728, 166.8717
250.5549, 167.2912
251.0370, 167.8222
251.5191, 168.4456
252.0013, 169.2187
252.4834, 170.2395
252.9655, 171.7337
253.4476, 172.8269
253.9297, 173.2595
254.4118, 173.4081
254.8940, 174.1659
255.3761, 175.8080
255.8582, 177.5786
256.3403, 179.1859
256.8224, 180.6270
257.3046, 181.8674
257.7867, 182.7747
258.2688, 183.5480
258.7509, 184.5833
259.2330, 185.9568
259.7151, 187.4111
260.1973, 188.9731
260.6794, 190.7911
261.1615, 191.8893
261.6436, 192.0527
262.1257, 191.6763
262.6078, 191.3791
263.0900, 191.1527
263.5721, 191.0518
264.0542, 191.2142
264.5363, 191.7680
265.0184, 191.7053
265.5005, 190.8252
265.9827, 189.5765
266.4648, 188.5591
266.9469, 187.8084
267.4290, 187.2172
267.9111, 186.8078
268.3932, 186.6025
268.8754, 186.2207
269.3575, 185.6726
269.8396, 184.9269
270.3217, 183.8568
270.8038, 182.3223
271.2859, 181.0083
271.7681, 180.1707
272.2502, 179.7912
272.7323, 179.3291
273.2144, 178.8253
273.6965, 178.1676
274.1786, 177.1669
274.6608, 175.7306
275.1429, 174.4216
275.6250, 173.4519
276.1071, 172.7534
276.5892, 171.7127
277.0714, 170.2603
277.5535, 168.7127
278.0356, 167.4292
278.5177, 166.4546
278.9998, 165.2242
279.4819, 163.4481
279.9641, 161.3560
280.4462, 160.1449
280.9283, 159.9754
281.4104, 159.9815
281.8925, 159.3569
282.3746, 158.0895
282.8568, 157.1191
283.3389, 156.6256
283.8210, 156.5096
284.3031, 156.5712
284.7852, 156.8393
285.2673, 157.0771
285.7495, 157.0301
286.2316, 156.7368
286.7137, 156.7070
287.1958, 157.0724
287.6779, 157.6355
288.1600, 157.8854
288.6422, 157.8125
289.1243, 157.9780
289.6064, 158.9362
290.0885, 160.5072
290.5706, 161.6766
291.0527, 162.2655
291.5349, 162.6295
292.0170, 163.3161
292.4991, 164.2989
292.9812, 165.3821
293.4633, 166.3419
293.9454, 167.2991
294.4276, 168.7098
294.9097, 170.6498
295.3918, 172.7531
295.8739, 174.5678
296.3560, 176.1272
296.8381, 177.6733
297.3203, 179.4248
297.8024, 181.2039
298.2845, 182.6101
298.7666, 183.6156
299.2487, 184.5061
299.7308, 185.5785
300.2130, 186.7849
300.6951, 187.9755
301.1772, 189.2993
301.6593, 190.4687
302.1414, 190.9227
302.6235, 190.6723
303.1057, 190.3905
303.5878, 190.9052
304.0699, 191.7586
304.5520, 192.0758
305.0341, 191.2863
305.5162, 190.1083
305.9984, 189.3184
306.4805, 188.8584
306.9626, 188.2738
307.4447, 187.1022
307.9268, 185.6732
308.4089, 184.4690
308.8911, 183.8200
309.3732, 183.1070
309.8553, 181.8177
310.3374, 180.0517
310.8195, 178.1085
311.3016, 175.8236
311.7838, 173.6362
312.2659, 171.9910
312.7480, 171.1997
313.2301, 170.4358
313.7122, 169.0713
314.1943, 167.3599
314.6765, 165.8661
315.1586, 165.1990
315.6407, 164.5832
316.1228, 163.3918
316.6049, 161.3540
317.0870, 159.6018
317.5692, 158.8450
318.0513, 158.6418
318.5334, 158.3813
319.0155, 157.8337
319.4976, 157.2151
319.9797, 156.6186
320.4619, 156.0539
320.9440, 155.4641
321.4261, 154.6660
321.9082, 153.9094
322.3903, 153.4348
322.8724, 153.3590
323.3546, 153.4996
323.8367, 153.9019
324.3188, 154.5508
324.8009, 155.1207
325.2830, 155.6211
325.7651, 155.9857
326.2473, 156.1708
326.7294, 155.7068
327.2115, 155.6068
327.6936, 156.1001
328.1757, 157.0844
328.6578, 158.0576
329.1400, 159.0758
329.6221, 160.0360
330.1042, 160.8919
330.5863, 161.4855
331.0684, 162.2420
331.5505, 163.1754
332.0327, 164.2616
332.5148, 165.4399
332.9969, 166.7019
333.4790, 168.0627
333.9611, 169.5635
334.4432, 171.2445
334.9254, 172.8703
335.4075, 174.3315
335.8896, 175.8011
336.3717, 177.5756
336.8538, 179.8410
337.3359, 181.8989
337.8180, 183.4147
338.3001, 184.3977
338.7823, 185.9436
339.2644, 188.1874
339.7465, 190.7001
340.2286, 193.0275
340.7107, 195.0759
341.1928, 197.4459
341.6750, 200.3311
342.1571, 203.5759
342.6392, 206.3663
343.1213, 208.6682
343.6034, 210.8387
344.0855, 213.1850
344.5677, 215.6783
345.0498, 218.1011
345.5319, 220.4348
346.0140, 222.6444
346.4961, 224.7645
346.9782, 226.7761
347.4604, 228.3649
347.9425, 229.2753
348.4246, 229.5994
348.9067, 229.6377
349.3888, 229.4133
349.8709, 228.8702
350.3531, 227.8932
350.8352, 226.5252
351.3173, 224.9337
351.7994, 223.2752
352.2815, 221.3924
352.7636, 218.9397
353.2458, 215.9155
353.7279, 212.6622
354.2100, 209.4114
354.6921, 206.1350
355.1742, 202.7962
355.6563, 199.3164
356.1385, 195.7887
356.6206, 192.2032
357.1027, 188.5849
357.5848, 185.1591
358.0669, 182.0379
358.5490, 179.1454
359.0312, 176.4548
359.5133, 174.0218
359.9954, 171.5854
360.4775, 168.8527
360.9596, 165.9944
361.4417, 163.4159
361.9239, 161.5193
362.4060, 159.7374
362.8881, 157.7204
363.3702, 155.3673
363.8523, 153.1335
364.3344, 151.1089
364.8166, 149.3011
365.2987, 147.7057
365.7808, 146.6943
366.2629, 145.5662
366.7450, 143.9793
367.2271, 141.9361
367.7093, 140.2803
368.1914, 139.4758
368.6735, 138.8558
369.1556, 137.9767
369.6377, 136.2478
370.1198, 135.0049
370.6020, 134.4950
371.0841, 134.5330
371.5662, 134.4398
372.0483, 133.9960
372.5304, 133.6877
373.0125, 133.7952
373.4947, 134.6398
373.9768, 134.9197
374.4589, 134.3224
374.9410, 133.4138
375.4231, 133.1896
375.9052, 133.9614
376.3874, 134.5308
376.8695, 134.4198
377.3516, 133.6553
377.8337, 133.4326
378.3158, 133.8998
378.7979, 134.4957
379.2801, 134.5729
379.7622, 134.0982
380.2443, 133.9069
380.7264, 134.2601
381.2085, 134.9157
381.6906, 135.2110
382.1728, 135.1388
382.6549, 134.9884
383.1370, 134.8941
383.6191, 134.8685
384.1012, 134.9873
384.5833, 135.2763
385.0655, 135.6410
385.5476, 136.0323
386.0297, 136.4140
386.5118, 136.6353
386.9939, 136.4391
387.4760, 136.1172
387.9582, 136.1645
388.4403, 136.5955
388.9224, 137.0008
389.4045, 137.0114
389.8866, 136.7989
390.3687, 136.5984
390.8509, 136.4526
391.3330, 136.3874
391.8151, 136.5259
392.2972, 136.7965
392.7793, 136.9084
393.2614, 136.6274
393.7436, 136.1922
394.2257, 135.7501
394.7078, 135.3035
395.1899, 134.9135
395.6720, 134.5751
396.1541, 134.3091
396.6363, 134.1496
397.1184, 134.2168
397.6005, 134.2858
398.0826, 134.3429
398.5647, 134.4153
399.0468, 134.2152
399.5290, 133.3491
400.0111, 132.4047
400.4932, 131.8646
400.9753, 132.3484
401.4574, 132.3961
401.9395, 131.6760
402.4217, 130.3802
402.9038, 129.4197
403.3859, 128.8800
403.8680, 128.5518
404.3501, 128.3892
404.8322, 128.5035
405.3144, 128.3771
405.7965, 127.9271
406.2786, 127.3371
406.7607, 126.9058
407.2428, 126.6585
407.7249, 126.4257
408.2071, 126.1271
408.6892, 125.7901
409.1713, 125.6538
409.6534, 125.7572
410.1355, 125.8277
410.6176, 125.5083
411.0998, 124.8864
411.5819, 124.4938
412.0640, 124.4602
412.5461, 124.6542
413.0282, 124.9939
413.5103, 125.4284
413.9925, 125.6710
414.4746, 125.3302
414.9567, 124.7658
415.4388, 124.6029
415.9209, 124.9294
416.4030, 125.2838
416.8852, 125.2185
417.3673, 124.9347
417.8494, 124.7610
418.3315, 124.9728
418.8136, 125.2140
419.2957, 125.2442
419.7779, 125.0906
420.2600, 124.9324
420.7421, 124.8344
421.2242, 124.7761
421.7063, 124.7735
422.1884, 124.9824
422.6706, 124.9602
423.1527, 124.3596
423.6348, 123.4830
424.1169, 122.8969
424.5990, 122.6470
425.0811, 122.7245
425.5633, 123.3159
426.0454, 124.5687
426.5275, 125.2412
427.0096, 124.9253
427.4917, 124.3533
427.9738, 124.1082
428.4560, 124.2440
428.9381, 124.6057
429.4202, 125.2760
429.9023, 126.1332
430.3844, 126.7987
430.8665, 127.2425
431.3487, 127.5663
431.8308, 127.7372
432.3129, 127.7335
432.7950, 128.0856
433.2771, 128.9128
433.7592, 129.7912
434.2414, 130.0296
434.7235, 129.7007
435.2056, 129.6868
435.6877, 130.3814
436.1698, 131.4842
436.6519, 132.4240
437.1341, 133.2032
437.6162, 133.8649
438.0983, 134.3435
438.5804, 134.7577
439.0625, 135.3406
439.5446, 136.1768
440.0268, 137.0289
440.5089, 137.6788
440.9910, 138.1908
441.4731, 138.6865
441.9552, 139.3031
442.4373, 139.8607
442.9195, 140.1987
443.4016, 140.3188
443.8837, 140.4839
444.3658, 140.8880
444.8479, 141.3304
445.3300, 141.6505
445.8122, 141.7869
446.2943, 141.8389
446.7764, 141.8625
447.2585, 141.8152
447.7406, 141.5894
448.2227, 141.1225
448.7049, 140.5291
449.1870, 139.8194
449.6691, 138.9870
450.1512, 138.1136
450.6333, 137.1691
451.1154, 136.2319
451.5976, 135.4017
452.0797, 134.7522
452.5618, 134.0043
453.0439, 133.1229
453.5260, 132.1191
454.0081, 130.9120
454.4903, 129.4580
454.9724, 128.0623
455.4545, 126.8707
455.9366, 125.8790
456.4187, 125.0155
456.9008, 124.3025
457.3830, 123.6128
457.8651, 122.8258
458.3472, 121.9506
458.8293, 121.0474
459.3114, 120.0620
459.7935, 119.1199
460.2757, 118.3906
460.7578, 117.8470
461.2399, 117.3390
461.7220, 116.6914
462.2041, 116.0791
462.6862, 115.7212
463.1684, 115.7125
463.6505, 115.6766
464.1326, 115.4756
464.6147, 115.1228
465.0968, 114.6285
465.5789, 113.7806
466.0611, 113.0272
466.5432, 112.5297
467.0253, 112.2742
467.5074, 112.0277
467.9895, 111.9656
468.4716, 111.7433
468.9538, 111.1432
469.4359, 109.7803
469.9180, 108.9202
470.4001, 108.7998
470.8822, 109.0089
471.3643, 108.9139
471.8465, 108.3951
472.3286, 107.9173
472.8107, 107.6106
473.2928, 107.4458
473.7749, 107.2382
474.2570, 106.9862
474.7392, 106.6995
475.2213, 106.3636
475.7034, 105.9897
476.1855, 105.6577
476.6676, 105.3816
477.1497, 105.1318
477.6319, 104.8934
478.1140, 104.6557
478.5961, 104.3843
479.0782, 104.0303
479.5603, 103.6565
480.0424, 103.3300
480.5246, 103.0477
481.0067, 102.7958
481.4888, 102.6062
481.9709, 102.4194
482.4530, 102.1772
482.9352, 101.8460
483.4173, 101.5134
483.8994, 101.2232
484.3815, 100.9489
484.8636, 100.6541
485.3457, 100.3232
485.8279, 99.97855
486.3100, 99.63820
486.7921, 99.30041
487.2742, 98.90706
487.7563, 98.42240
488.2384, 97.91719
488.7206, 97.43700
489.2027, 97.00595
489.6848, 96.51135
490.1669, 95.82985
490.6490, 95.21875
491.1311, 95.21999
491.6133, 95.96458
492.0954, 96.39428
492.5775, 96.04037
493.0596, 95.15955
493.5417, 94.77515
494.0238, 94.89519
494.5060, 94.99857
494.9881, 94.57838
495.4702, 93.85050
495.9523, 93.34081
496.4344, 93.12887
496.9165, 93.09420
497.3987, 93.33696
497.8808, 93.65140
498.3629, 93.64446
498.8450, 92.75066
499.3271, 91.82392
499.8092, 91.40186
500.2914, 91.43652
500.7735, 91.66964
501.2556, 92.43929
501.7377, 93.05547
502.2198, 93.03146
502.7019, 91.96529
503.1841, 91.17545
503.6662, 90.99239
504.1483, 91.10159
504.6304, 91.14148
505.1125, 91.03658
505.5946, 90.97697
506.0768, 90.94575
506.5589, 90.97720
507.0410, 91.30587
507.5231, 92.06831
508.0052, 92.73975
508.4873, 92.96296
508.9695, 92.72892
509.4516, 92.80129
509.9337, 93.25831
510.4158, 93.70936
510.8979, 93.59987
511.3800, 93.05914
511.8622, 92.67980
512.3443, 92.65885
512.8264, 92.81250
513.3085, 92.88023
513.7906, 92.90567
514.2728, 93.04463
514.7549, 93.56972
515.2370, 94.12729
515.7191, 94.37941
516.2012, 94.28844
516.6833, 94.18001
517.1655, 94.14437
517.6476, 94.19186
518.1297, 94.33440
518.6118, 94.77260
519.0939, 95.06010
519.5760, 94.96127
520.0582, 94.67348
520.5403, 94.67036
521.0224, 95.15049
521.5045, 95.63393
521.9866, 95.95676
522.4688, 96.12058
522.9509, 96.51344
523.4330, 97.23985
523.9151, 97.95452
524.3972, 98.29002
524.8793, 98.23012
525.3615, 98.56151
525.8436, 99.43952
526.3257, 100.4928
526.8078, 101.1590
527.2899, 101.5007
527.7720, 101.7962
528.2542, 102.0742
528.7363, 102.4222
529.2184, 102.9767
529.7005, 103.7164
530.1826, 104.5522
530.6647, 105.4909
531.1469, 106.4630
531.6290, 107.4366
532.1111, 108.4136
532.5932, 109.3368
533.0753, 110.0524
533.5574, 110.7637
534.0396, 111.6697
534.5217, 113.0061
535.0038, 114.3155
535.4859, 115.5902
535.9680, 116.8031
536.4501, 117.8537
536.9323, 118.5614
537.4144, 119.4148
537.8965, 120.6385
538.3786, 122.2384
538.8607, 123.6893
539.3428, 124.9594
539.8250, 126.1376
540.3071, 127.2500
540.7892, 128.2958
541.2713, 129.4447
541.7534, 130.7457
542.2355, 132.0645
542.7177, 133.2376
543.1998, 134.2820
543.6819, 135.2193
544.1640, 135.9647
544.6461, 136.6629
545.1282, 137.4870
545.6104, 138.4078
546.0925, 139.2615
546.5746, 139.9781
547.0567, 140.5869
547.5388, 141.1031
548.0209, 141.5076
548.5031, 141.8838
548.9852, 142.1203
549.4673, 142.4002
549.9494, 142.9357
550.4315, 144.1109
550.9136, 144.9356
551.3958, 145.2208
551.8779, 145.1105
552.3600, 144.9971
552.8421, 144.8495
553.3242, 144.8078
553.8063, 145.0256
554.2885, 145.4362
554.7706, 145.4200
555.2527, 144.9357
555.7348, 144.4625
556.2169, 144.4944
556.6990, 144.8599
557.1812, 145.0904
557.6633, 145.0744
558.1454, 145.0681
558.6275, 145.5011
559.1096, 146.0905
559.5917, 146.3453
560.0739, 145.3749
560.5560, 144.6742
561.0381, 145.4115
561.5202, 147.1871
562.0023, 148.2562
562.4844, 147.3758
562.9666, 146.3808
563.4487, 146.1519
563.9308, 146.9036
564.4129, 147.3980
564.8950, 147.5461
565.3771, 147.5310
565.8593, 147.4052
566.3414, 147.0213
566.8235, 147.2419
567.3056, 148.3554
567.7877, 149.7983
568.2698, 150.4890
568.7520, 150.4758
569.2341, 150.4710
569.7162, 150.8287
570.1983, 151.3124
570.6804, 151.5078
571.1625, 151.4338
571.6447, 151.2214
572.1268, 150.7734
572.6089, 150.3367
573.0910, 150.2404
573.5731, 150.5814
574.0552, 150.7712
574.5374, 150.3804
575.0195, 149.7921
575.5016, 149.3627
575.9837, 149.3662
576.4658, 149.2735
576.9479, 149.1104
577.4301, 148.7987
577.9122, 148.1348
578.3943, 146.8366
578.8764, 145.7343
579.3585, 145.1240
579.8406, 144.9141
580.3228, 144.4970
580.8049, 143.8728
581.2870, 143.0437
581.7691, 141.8491
582.2512, 140.4233
582.7333, 139.3272
583.2155, 138.6147
583.6975, 138.0094
584.1796, 137.1699
584.6617, 136.2660
585.1439, 135.6004
585.6260, 135.4105
586.1081, 135.1996
586.5902, 134.6096
587.0723, 133.7873
587.5544, 133.0286
588.0366, 132.2375
588.5187, 131.6850
589.0008, 131.6131
589.4829, 131.9804
589.9650, 132.0049
590.4471, 131.4121
590.9293, 130.8246
591.4114, 130.5770
591.8935, 130.7394
592.3756, 130.7359
592.8577, 130.5772
593.3398, 130.2190
593.8220, 129.4146
594.3041, 128.2653
594.7862, 127.6476
595.2683, 127.8727
595.7504, 128.2760
596.2325, 127.9535
596.7147, 127.1122
597.1968, 126.2970
597.6789, 125.6944
598.1610, 125.2455
598.6431, 124.9771
599.1252, 124.8505
599.6074, 124.6817
600.0895, 124.5452
600.5716, 124.2310
601.0537, 123.5497
601.5358, 122.3627
602.0179, 121.4658
602.5001, 121.1010
602.9822, 120.7933
603.4643, 120.1693
603.9464, 119.1192
604.4285, 118.1588
604.9106, 117.3078
605.3928, 116.5604
605.8749, 115.9703
606.3570, 115.5122
606.8391, 114.8810
607.3212, 113.9062
607.8033, 112.8104
608.2855, 111.8356
608.7676, 111.0078
609.2497, 110.3886
609.7318, 110.2500
610.2139, 110.1662
610.6960, 109.8019
611.1782, 109.1462
611.6603, 108.4231
612.1424, 107.5547
612.6245, 106.7500
613.1066, 106.1634
613.5887, 105.9557
614.0709, 105.5928
614.5530, 104.8920
615.0351, 104.1998
615.5172, 103.9203
615.9993, 104.1696
616.4814, 104.3009
616.9636, 104.2191
617.4457, 103.9818
617.9278, 103.6288
618.4099, 103.1787
618.8920, 102.8217
619.3741, 102.5954
619.8563, 102.5294
620.3384, 102.8101
620.8205, 103.3510
621.3026, 103.7229
621.7847, 103.5544
622.2668, 103.2105
622.7490, 102.9119
623.2311, 102.6699
623.7132, 102.5900
624.1953, 102.8078
624.6774, 103.1282
625.1595, 103.4219
625.6417, 103.7150
626.1238, 103.9117
626.6059, 103.9130
627.0880, 103.9276
627.5701, 104.2867
628.0522, 105.0364
628.5344, 105.6784
629.0165, 106.0658
629.4986, 106.3535
629.9807, 106.8744
630.4628, 107.5867
630.9449, 108.2518
631.4271, 108.6944
631.9092, 109.0710
632.3913, 109.5806
632.8734, 110.1968
633.3555, 110.7393
633.8376, 111.0002
634.3198, 111.2550
634.8019, 111.6834
635.2840, 112.3361
635.7661, 112.9928
636.2482, 113.6059
636.7303, 114.2416
637.2125, 114.9577
637.6946, 115.8099
638.1767, 116.5985
638.6588, 117.3230
639.1409, 117.9719
639.6230, 118.4264
640.1052, 118.7140
640.5873, 119.2502
641.0694, 120.2181
641.5515, 121.3417
642.0336, 122.0907
642.5157, 122.6197
642.9979, 123.3981
643.4800, 125.0637
643.9621, 126.7129
644.4442, 127.5414
644.9263, 127.6982
645.4084, 128.0885
645.8906, 129.1964
646.3727, 130.4287
646.8548, 131.4681
647.3369, 132.2424
647.8190, 133.3138
648.3011, 134.7814
648.7833, 136.3857
649.2654, 137.9552
649.7475, 139.5177
650.2296, 140.8841
650.7117, 141.9976
651.1938, 143.1110
651.6760, 144.5466
652.1581, 146.2334
652.6402, 147.9158
653.1223, 149.5392
653.6044, 151.1139
654.0865, 152.5879
654.5687, 154.0565
655.0508, 155.7066
655.5329, 157.9240
656.0150, 160.0337
656.4971, 161.6878
656.9792, 162.9852
657.4614, 164.4720
657.9435, 166.2708
658.4256, 168.1081
658.9077, 169.8329
659.3898, 171.4639
659.8719, 173.5498
660.3541, 176.1802
660.8362, 178.8330
661.3183, 181.1961
661.8004, 183.2847
662.2825, 185.2193
662.7646, 186.9929
663.2468, 188.8486
663.7289, 190.9872
664.2110, 193.3434
664.6931, 195.8673
665.1752, 198.6476
665.6573, 201.3508
666.1395, 203.7932
666.6216, 206.1186
667.1037, 208.5033
667.5858, 211.2290
668.0679, 213.6792
668.5500, 215.6489
669.0322, 217.3752
669.5143, 219.3469
669.9964, 221.6346
670.4785, 223.8569
670.9606, 225.8616
671.4427, 227.7533
671.9249, 229.8499
672.4070, 232.1194
672.8891, 234.2468
673.3712, 235.9914
673.8533, 237.5089
674.3354, 238.9583
674.8176, 240.3413
675.2997, 241.5560
675.7818, 242.5168
676.2639, 243.3062
676.7460, 243.9223
677.2281, 244.2623
677.7103, 244.8272
678.1924, 246.0526
678.6745, 247.0827
679.1566, 247.1860
679.6387, 246.0973
680.1208, 245.3880
680.6030, 245.2268
681.0851, 245.1961
681.5672, 244.7669
682.0493, 244.0024
682.5314, 243.1488
683.0135, 242.2536
683.4957, 241.3309
683.9778, 240.4376
684.4599, 239.5252
684.9420, 238.5393
685.4241, 237.6353
685.9063, 236.4478
686.3884, 234.5803
686.8705, 232.2803
687.3526, 230.3964
687.8347, 229.2640
688.3168, 228.0939
688.7990, 226.6846
689.2811, 225.0604
689.7632, 223.5387
690.2453, 222.1669
690.7274, 220.6199
691.2095, 218.5138
691.6917, 216.1196
692.1738, 214.2491
692.6559, 212.9157
693.1380, 211.7116
693.6201, 210.4356
694.1022, 209.0925
694.5844, 207.5985
695.0665, 205.8953
695.5486, 204.4245
696.0307, 203.6332
696.5128, 202.9423
696.9949, 201.8659
697.4771, 200.1448
697.9592, 198.5744
698.4413, 197.1847
698.9234, 195.9286
699.4055, 194.8294
699.8876, 193.8969
700.3698, 192.6881
700.8519, 191.0576
701.3340, 189.3604
701.8161, 188.0880
702.2982, 187.1528
702.7803, 186.3462
703.2625, 185.7832
703.7446, 185.0859
704.2267, 183.7725
704.7088, 182.1542
705.1909, 180.9243
705.6730, 180.9747
706.1552, 180.6316
706.6373, 179.2049
707.1194, 177.0204
707.6015, 175.6816
708.0836, 175.5005
708.5657, 175.2312
709.0479, 174.3047
709.5300, 172.8807
710.0121, 171.6125
710.4942, 170.4917
710.9763, 169.4638
711.4584, 168.4777
711.9406, 167.5553
712.4227, 166.7805
712.9048, 166.1455
713.3869, 165.4038
713.8690, 164.3708
714.3511, 163.2434
714.8333, 162.1315
715.3154, 161.0583
715.7975, 160.0049
716.2796, 158.9731
716.7617, 157.9566
717.2438, 156.9425
717.7260, 155.9438
718.2081, 154.8883
718.6902, 153.7524
719.1723, 152.6825
719.6544, 152.0713
720.1365, 151.6627
720.6187, 150.7430
721.1008, 148.9844
721.5829, 147.1784
722.0650, 145.8256
722.5471, 144.8043
723.0292, 143.9228
723.5114, 143.3074
723.9935, 142.6354
724.4756, 141.8217
724.9577, 140.9299
725.4398, 140.0410
725.9219, 139.1544
726.4041, 138.2561
726.8862, 137.2657
727.3683, 136.3411
727.8504, 136.0681
728.3325, 136.3353
728.8146, 136.3765
729.2968, 135.6476
729.7789, 134.6892
730.2610, 134.1876
730.7431, 133.9897
731.2252, 133.5879
731.7073, 132.4814
732.1895, 131.3979
732.6716, 130.7256
733.1537, 130.4361
733.6358, 129.9186
734.1179, 128.9587
734.6000, 128.1334
735.0822, 127.7522
735.5643, 127.7546
736.0464, 127.5475
736.5285, 127.1258
737.0106, 126.6155
737.4927, 126.0325
737.9749, 125.4486
738.4570, 125.0215
738.9391, 124.7566
739.4212, 124.4572
739.9033, 124.0081
740.3854, 123.4807
740.8676, 122.9051
741.3497, 122.2520
741.8318, 121.6737
742.3139, 121.1346
742.7960, 120.7101
743.2781, 120.4972
743.7603, 120.5515
744.2424, 120.4113
744.7245, 120.0437
745.2066, 119.5702
745.6887, 119.0442
746.1708, 118.5124
746.6530, 118.1141
747.1351, 117.8897
747.6172, 117.7184
748.0993, 117.6249
748.5814, 117.4855
749.0635, 117.1516
749.5457, 116.3652
750.0278, 115.7333
750.5099, 115.3373
750.9920, 115.1328
751.4741, 115.1510
751.9562, 115.5129
752.4384, 115.5170
752.9205, 114.9544
753.4026, 114.2383
753.8847, 114.0941
754.3668, 114.3866
754.8489, 114.5840
755.3311, 114.5291
755.8132, 114.3143
756.2953, 114.0046
756.7774, 113.5942
757.2595, 113.0801
757.7416, 112.0586
758.2238, 111.4067
758.7059, 111.6746
759.1880, 112.3543
759.6701, 112.3255
760.1522, 111.3228
760.6343, 110.4764
761.1165, 110.0815
761.5986, 110.0008
762.0807, 109.9013
762.5628, 109.8019
763.0449, 109.8165
763.5270, 110.2345
764.0092, 110.5791
764.4913, 110.3436
764.9734, 109.6547
765.4555, 108.9059
765.9376, 107.9315
766.4197, 107.2518
766.9019, 107.2088
767.3840, 107.6478
767.8661, 107.8890
768.3482, 107.8969
768.8303, 107.8047
769.3124, 107.6449
769.7946, 107.4313
770.2767, 107.1949
770.7588, 106.9390
771.2409, 106.6945
771.7230, 106.4424
772.2051, 106.2380
772.6873, 106.1367
773.1694, 106.1360
773.6515, 106.2052
774.1336, 106.6393
774.6157, 106.8390
775.0978, 106.3799
775.5800, 105.3037
776.0621, 104.8091
776.5442, 105.1097
777.0263, 105.3835
777.5084, 105.0686
777.9905, 104.3395
778.4727, 104.1047
778.9548, 104.3350
779.4369, 104.5213
779.9190, 104.1936
780.4011, 103.7135
780.8832, 103.4712
781.3654, 103.4901
781.8475, 103.4007
782.3296, 102.9764
782.8117, 102.5108
783.2938, 102.1426
783.7759, 101.8786
784.2581, 101.6453
784.7402, 101.4522
785.2223, 101.2693
785.7044, 101.0630
786.1865, 100.8499
786.6686, 100.7295
787.1508, 100.7020
787.6329, 100.5786
788.1150, 100.1152
788.5971, 99.54886
789.0792, 99.10101
789.5613, 98.79237
790.0435, 98.57185
790.5256, 98.63210
791.0077, 98.58273
791.4898, 98.08177
791.9719, 96.95634
792.4540, 96.79283
792.9362, 97.83097
793.4183, 98.84460
793.9004, 98.59622
794.3825, 97.52628
794.8646, 96.87500
795.3467, 96.72881
795.8289, 96.73347
796.3110, 96.74475
796.7931, 96.72068
797.2752, 96.60789
797.7573, 96.36787
798.2394, 96.17582
798.7216, 95.79646
799.2037, 95.74068
799.6858, 96.57355
800.1679, 98.55888
800.6500, 99.27048
801.1321, 98.58813
801.6143, 97.46709
802.0964, 96.66955
802.5785, 96.08394
803.0606, 95.37234
803.5427, 94.46715
804.0248, 94.01131
804.5070, 95.00795
804.9891, 96.16512
805.4712, 96.40086
805.9533, 95.14455
806.4354, 94.42767
806.9175, 94.44962
807.3997, 94.73467
807.8818, 95.00276
808.3639, 95.24876
808.8460, 95.32563
809.3281, 95.22063
809.8102, 95.04192
810.2924, 94.78898
810.7745, 94.56719
811.2566, 94.56995
811.7387, 94.85162
812.2208, 95.05931
812.7029, 94.94090
813.1851, 94.77930
813.6672, 94.77879
814.1493, 94.98415
814.6314, 95.18281
815.1135, 95.40158
815.5956, 95.54238
816.0778, 95.42854
816.5599, 95.14836
817.0420, 95.16869
817.5241, 95.51952
818.0062, 95.87022
818.4883, 95.93678
818.9705, 95.89310
819.4526, 95.91922
819.9347, 96.05500
820.4168, 96.11441
820.8989, 95.96314
821.3810, 95.81312
821.8632, 95.78467
822.3453, 95.89748
822.8274, 95.91087
823.3095, 95.79701
823.7916, 95.76183
824.2737, 96.06969
824.7559, 96.54605
825.2380, 96.76661
825.7201, 96.71806
826.2022, 96.81455
826.6843, 97.61874
827.1664, 98.40881
827.6486, 98.63205
828.1307, 98.13652
828.6128, 97.81254
829.0949, 97.65629
829.5770, 97.68034
830.0591, 97.92815
830.5413, 98.38053
831.0234, 98.85103
831.5055, 99.33858
831.9876, 99.81587
832.4697, 100.2095
832.9518, 100.6203
833.4340, 101.2736
833.9161, 102.1425
834.3982, 102.7398
834.8803, 102.4108
835.3624, 102.2544
835.8445, 102.7094
836.3267, 103.7597
836.8088, 105.2409
837.2909, 107.2501
837.7730, 109.2231
838.2551, 111.1695
838.7372, 112.7563
839.2194, 112.6688
839.7015, 111.2197
840.1836, 110.2188
840.6657, 111.0487
841.1478, 112.3471
841.6299, 113.3054
842.1121, 113.9454
842.5942, 114.7719
843.0763, 115.9485
843.5584, 117.0692
844.0405, 117.9406
844.5226, 118.6790
845.0048, 119.8687
845.4869, 121.4674
845.9690, 122.8395
846.4511, 123.4595
846.9332, 123.8508
847.4153, 124.5587
847.8975, 125.5006
848.3796, 126.4417
848.8617, 127.3775
849.3438, 128.2177
849.8259, 128.9421
850.3080, 129.5548
850.7902, 130.0237
851.2723, 130.3170
851.7544, 130.6590
852.2365, 131.1685
852.7186, 131.6740
853.2007, 131.9261
853.6829, 131.9226
854.1650, 131.6538
854.6471, 130.8601
855.1292, 130.1262
855.6113, 129.8377
856.0934, 129.7708
856.5756, 129.5081
857.0577, 128.9819
857.5398, 128.3463
858.0219, 127.5738
858.5040, 126.7496
858.9861, 126.0427
859.4683, 125.4228
859.9504, 124.7211
860.4325, 123.8719
860.9146, 123.0397
861.3967, 122.4703
861.8788, 121.9776
862.3610, 121.3186
862.8431, 120.3352
863.3252, 119.3727
863.8073, 118.4511
864.2894, 117.5800
864.7715, 116.7556
865.2537, 115.9725
865.7358, 115.4347
866.2179, 115.1932
866.7000, 114.9351
867.1821, 114.2878
867.6642, 113.4445
868.1464, 112.6773
868.6285, 112.0168
869.1106, 111.4539
869.5927, 110.9516
870.0748, 110.5716
870.5569, 110.3947
871.0391, 110.4806
871.5212, 110.3105
872.0033, 109.8245
872.4854, 109.3059
872.9675, 108.9459
873.4496, 108.7158
873.9318, 108.6313
874.4139, 108.6692
874.8960, 108.5984
875.3781, 107.9331
875.8602, 107.4181
876.3423, 107.7012
876.8245, 108.7936
877.3066, 109.3435
877.7887, 109.1256
878.2708, 108.8816
878.7529, 108.8863
879.2350, 109.1055
879.7172, 109.5203
880.1993, 110.0844
880.6814, 110.5166
881.1635, 110.4805
881.6456, 110.4216
882.1277, 110.6963
882.6099, 111.2174
883.0920, 111.7175
883.5741, 112.0079
884.0562, 112.4655
884.5383, 113.1554
885.0204, 114.0431
885.5026, 115.2079
885.9847, 116.6051
886.4668, 117.5405
886.9489, 117.6269
887.4310, 117.6108
887.9131, 118.3455
888.3953, 119.5083
888.8774, 120.6273
889.3595, 121.6553
889.8416, 122.4894
890.3237, 122.8678
890.8058, 123.2657
891.2880, 124.2767
891.7701, 125.9632
892.2522, 127.3717
892.7343, 128.3876
893.2164, 129.3821
893.6985, 130.8599
894.1807, 132.5106
894.6628, 133.8526
895.1449, 134.7450
895.6270, 135.7687
896.1091, 137.2021
896.5912, 138.7869
897.0734, 140.3939
897.5555, 142.0124
898.0376, 143.6462
898.5197, 145.2878
899.0018, 146.9268
899.4839, 148.4568
899.9661, 150.0038
900.4482, 151.9727
900.9303, 154.2735
901.4124, 156.1989
901.8945, 157.0649
902.3766, 157.8301
902.8588, 158.8821
903.3409, 160.2129
903.8230, 161.9292
904.3051, 164.2396
904.7872, 166.1425
905.2693, 167.2492
905.7515, 167.8512
906.2336, 168.4277
906.7157, 169.0014
907.1978, 169.6445
907.6799, 170.5094
908.1620, 171.2917
908.6442, 171.7790
909.1263, 172.1272
909.6084, 172.6216
910.0905, 173.3982
910.5726, 173.9520
911.0547, 174.1861
911.5369, 174.3388
912.0190, 174.7084
912.5011, 175.2551
912.9832, 175.7855
913.4653, 176.2052
913.9474, 177.0316
914.4296, 179.0081
914.9117, 181.2545
915.3938, 182.9875
915.8759, 184.0096
916.3580, 185.1444
916.8401, 186.3933
917.3223, 187.7434
917.8044, 189.1273
918.2865, 190.5990
918.7686, 192.5095
919.2507, 194.8138
919.7328, 197.0780
920.2150, 198.9760
920.6971, 200.8017
921.1792, 202.6821
921.6613, 204.6653
922.1434, 206.8883
922.6255, 209.3653
923.1077, 212.0925
923.5898, 215.1529
924.0719, 218.3751
924.5540, 221.4420
925.0361, 224.3873
925.5182, 227.2928
926.0004, 230.2989
926.4825, 233.1358
926.9646, 235.5163
927.4467, 237.6937
927.9288, 240.0257
928.4109, 242.6785
928.8931, 245.2600
929.3752, 247.8022
929.8573, 250.1227
930.3394, 251.8937
930.8215, 253.2722
931.3036, 254.9264
931.7858, 256.9634
932.2679, 258.9491
932.7500, 261.2046
933.2321, 262.8515
933.7142, 263.0145
934.1964, 261.3814
934.6785, 260.3403
935.1606, 260.2216
935.6427, 259.9112
936.1248, 258.7692
936.6069, 257.0024
937.0891, 255.4684
937.5712, 254.0426
938.0533, 252.1964
938.5354, 249.3403
939.0175, 246.2712
939.4996, 243.4785
939.9818, 240.8243
940.4639, 237.9712
940.9460, 234.9653
941.4281, 231.6828
941.9102, 228.0602
942.3923, 224.2747
942.8745, 220.6353
943.3566, 217.0568
943.8387, 213.2954
944.3208, 209.1806
944.8029, 205.4432
945.2850, 202.9832
945.7672, 200.7630
946.2493, 197.7027
946.7314, 193.4697
947.2135, 189.7305
947.6956, 186.5977
948.1777, 183.6001
948.6599, 180.3536
949.1420, 177.0394
949.6241, 174.1472
950.1062, 171.6598
950.5883, 169.3338
951.0704, 167.1006
951.5526, 164.9243
952.0347, 162.8263
952.5168, 160.7822
952.9989, 158.7104
953.4810, 156.5483
953.9631, 154.6838
954.4453, 153.3144
954.9274, 152.1413
955.4095, 150.7516
955.8916, 149.1729
956.3737, 147.3810
956.8558, 144.9949
957.3380, 143.1075
957.8201, 142.5271
958.3022, 142.3144
958.7843, 141.5504
959.2664, 140.0688
959.7485, 138.9942
960.2307, 138.3977
960.7128, 137.9479
961.1949, 137.3589
961.6770, 136.7313
962.1591, 136.2499
962.6412, 135.9096
963.1234, 135.4965
963.6055, 134.8237
964.0876, 134.1837
964.5697, 133.7024
965.0518, 133.3292
965.5339, 132.8671
966.0161, 132.3116
966.4982, 131.4916
966.9803, 130.1162
967.4624, 128.8161
967.9445, 128.5074
968.4266, 128.7250
968.9088, 128.7078
969.3909, 128.1029
969.8730, 127.4492
970.3551, 126.7643
970.8372, 126.0710
971.3193, 125.3450
971.8015, 124.6067
972.2836, 123.9687
972.7657, 123.4435
973.2478, 123.0571
973.7299, 122.9701
974.2120, 122.9210
974.6942, 122.7427
975.1763, 122.4122
975.6584, 121.7664
976.1405, 120.5573
976.6226, 119.5671
977.1047, 119.1644
977.5869, 119.1013
978.0690, 118.6907
978.5511, 118.0247
979.0332, 117.4434
979.5153, 117.1287
979.9974, 116.8550
980.4796, 116.4868
980.9617, 116.0929
981.4438, 115.7697
981.9259, 115.5281
982.4080, 115.3361
982.8901, 115.2130
983.3723, 115.0607
983.8544, 114.7645
984.3365, 114.3765
984.8186, 113.9586
985.3007, 113.5205
985.7828, 113.1819
986.2650, 113.1625
986.7471, 113.0691
987.2292, 112.6670
987.7113, 112.0436
988.1934, 111.7218
988.6755, 111.7186
989.1577, 111.5529
989.6398, 110.9067
990.1219, 110.2384
990.6040, 110.1858
991.0861, 110.4767
991.5682, 110.6566
992.0504, 110.7360
992.5325, 110.4301
993.0146, 109.4314
993.4967, 108.4448
993.9788, 108.2049
994.4609, 108.6183
994.9431, 108.9110
995.4252, 109.0426
995.9073, 108.9944
996.3894, 108.5601
996.8715, 108.1053
997.3536, 107.9624
997.8358, 108.1100
998.3179, 108.0643
998.8000, 107.7960
999.2821, 107.3619
999.7642, 106.6903
1000.246, 105.9833
1000.728, 105.7820
1001.211, 105.8809
1001.693, 105.7396
1002.175, 105.0518
1002.657, 104.4094
1003.139, 104.1400
1003.621, 103.9868
1004.103, 103.7276
1004.585, 103.3516
1005.068, 102.8890
1005.550, 102.3160
1006.032, 101.8431
1006.514, 101.7560
1006.996, 101.7708
1007.478, 101.5160
1007.960, 101.0174
1008.442, 100.5142
1008.924, 100.0660
1009.407, 99.60337
1009.889, 99.04565
1010.371, 98.52210
1010.853, 98.37070
1011.335, 98.52771
1011.817, 98.57487
1012.299, 98.39821
1012.781, 98.18237
1013.263, 98.07980
1013.746, 97.99899
1014.228, 97.85265
1014.710, 97.63334
1015.192, 97.35337
1015.674, 96.97572
1016.156, 96.66748
1016.638, 96.57365
1017.120, 96.59470
1017.603, 96.56790
1018.085, 96.47194
1018.567, 96.23475
1019.049, 95.59997
1019.531, 95.08553
1020.013, 94.85458
1020.495, 94.80915
1020.977, 94.88931
1021.459, 95.10172
1021.942, 95.03847
1022.424, 94.62425
1022.906, 94.10966
1023.388, 93.61070
1023.870, 93.20338
1024.352, 93.00518
1024.834, 93.04668
1025.316, 93.02013
1025.799, 92.87058
1026.281, 92.73033
1026.763, 92.65738
1027.245, 92.62755
1027.727, 92.60520
1028.209, 92.57014
1028.691, 92.44344
1029.173, 92.09192
1029.656, 91.80531
1030.138, 91.70114
1030.620, 91.74665
1031.102, 91.91454
1031.584, 92.23106
1032.066, 92.55904
1032.548, 92.91343
1033.030, 93.11240
1033.512, 92.77611
1033.995, 92.34885
1034.477, 92.47974
1034.959, 93.07805
1035.441, 93.40646
1035.923, 92.92377
1036.405, 92.74168
1036.887, 93.16870
1037.369, 93.90608
1037.851, 94.46664
1038.334, 94.83939
1038.816, 94.94299
1039.298, 94.66306
1039.780, 94.56372
1040.262, 95.15820
1040.744, 95.95304
1041.226, 96.57014
1041.708, 97.00341
1042.191, 97.35075
1042.673, 97.60859
1043.155, 97.85078
1043.637, 98.09058
1044.119, 98.36588
1044.601, 98.77320
1045.083, 99.25690
1045.565, 99.67415
1046.047, 100.1102
1046.530, 100.2648
1047.012, 100.0047
1047.494, 99.62462
1047.976, 99.46350
1048.458, 99.47227
1048.940, 99.40977
1049.422, 99.25982
1049.904, 99.15441
1050.386, 99.31473
1050.869, 99.41440
1051.351, 99.27565
1051.833, 98.90711
1052.315, 98.23851
1052.797, 97.19204
1053.279, 96.45843
1053.761, 96.30101
1054.243, 96.28519
1054.726, 95.83676
1055.208, 95.18714
1055.690, 94.68222
1056.172, 94.48718
1056.654, 94.09990
1057.136, 93.35052
1057.618, 92.64758
1058.100, 92.32985
1058.583, 92.23923
1059.065, 91.69421
1059.547, 90.78203
1060.029, 89.89934
1060.511, 89.16074
1060.993, 88.62172
1061.475, 88.39454
1061.957, 88.34657
1062.439, 88.36320
1062.922, 88.48703
1063.404, 88.22224
1063.886, 87.49247
1064.368, 86.75578
1064.850, 86.51958
1065.332, 86.40255
1065.814, 85.91332
1066.296, 85.07914
1066.778, 84.65554
1067.261, 84.90311
1067.743, 85.09093
1068.225, 85.02808
1068.707, 84.81456
1069.189, 84.59538
1069.671, 84.37786
1070.153, 84.19060
1070.635, 84.06034
1071.118, 83.88870
1071.600, 83.63297
1072.082, 83.32767
1072.564, 82.95771
1073.046, 82.54323
1073.528, 82.27937
1074.010, 82.16894
1074.492, 82.21516
1074.974, 82.57331
1075.457, 82.91777
1075.939, 83.00000
1076.421, 82.90668
1076.903, 82.78658
1077.385, 82.67136
1077.867, 82.43296
1078.349, 82.01669
1078.831, 81.68999
1079.313, 81.93324
1079.796, 82.29575
1080.278, 81.91183
1080.760, 80.88797
1081.242, 80.24807
1081.724, 80.67545
1082.206, 81.04866
1082.688, 81.12920
1083.170, 81.06554
1083.652, 81.14880
1084.135, 81.32618
1084.617, 81.37541
1085.099, 81.23895
1085.581, 81.10293
1086.063, 81.11517
1086.545, 81.12578
1087.027, 80.99929
1087.509, 80.76566
1087.992, 80.76894
1088.474, 81.01228
1088.956, 81.24265
1089.438, 81.41167
1089.920, 81.43024
1090.402, 80.96899
1090.884, 80.40960
1091.366, 80.32859
1091.849, 81.12287
1092.331, 81.49186
1092.813, 81.36208
1093.295, 81.05547
1093.777, 80.64905
1094.259, 80.30334
1094.741, 80.46477
1095.223, 80.96904
1095.705, 81.23722
1096.188, 80.81902
1096.670, 80.44891
1097.152, 80.20759
1097.634, 80.11135
1098.116, 80.24892
1098.598, 80.55917
1099.080, 80.77779
1099.562, 80.88020
1100.044, 80.84216
1100.527, 80.52110
1101.009, 80.18198
1101.491, 79.93023
1101.973, 79.78123
1102.455, 79.82237
1102.937, 80.05624
1103.419, 80.33111
1103.901, 80.64735
1104.384, 80.83831
1104.866, 80.62472
1105.348, 80.27820
1105.830, 80.06988
1106.312, 80.04591
1106.794, 80.03041
1107.276, 80.04192
1107.758, 79.97677
1108.240, 79.73180
1108.723, 79.45014
1109.205, 79.36209
1109.687, 79.40142
1110.169, 79.44028
1110.651, 79.43663
1111.133, 79.44066
1111.615, 79.44786
1112.097, 79.47609
1112.579, 79.54314
1113.062, 79.64146
1113.544, 79.78159
1114.026, 79.94080
1114.508, 80.00640
1114.990, 79.85551
1115.472, 79.68431
1115.954, 79.53071
1116.436, 79.41276
1116.919, 79.36192
1117.401, 79.37545
1117.883, 79.43205
1118.365, 79.53078
1118.847, 79.57975
1119.329, 79.48106
1119.811, 79.34154
1120.293, 79.18212
1120.776, 79.04229
1121.258, 79.08252
1121.740, 79.33134
1122.222, 79.46880
1122.704, 79.41885
1123.186, 79.27537
1123.668, 79.03107
1124.150, 78.80845
1124.632, 78.78280
1125.115, 79.00025
1125.597, 79.01701
1126.079, 78.75883
1126.561, 78.53143
1127.043, 78.44926
1127.525, 78.46307
1128.007, 78.62627
1128.489, 78.78497
1128.971, 78.60837
1129.454, 77.71475
1129.936, 77.37539
1130.418, 77.98107
1130.900, 78.59878
1131.382, 78.61012
1131.864, 78.22872
1132.346, 78.04745
1132.828, 78.04045
1133.311, 78.12317
1133.793, 78.44058
1134.275, 78.58891
1134.757, 78.36763
1135.239, 78.06776
1135.721, 77.94146
1136.203, 77.97799
1136.685, 78.14268
1137.167, 78.41512
1137.650, 78.60208
1138.132, 78.54198
1138.614, 78.41768
1139.096, 78.28654
1139.578, 78.16237
1140.060, 78.05810
1140.542, 77.97314
1141.024, 77.97232
1141.506, 78.06831
1141.989, 78.16030
1142.471, 78.20586
1142.953, 78.18613
1143.435, 78.06281
1143.917, 77.85699
1144.399, 77.63803
1144.881, 77.38152
1145.363, 77.32625
1145.846, 77.57246
1146.328, 77.82549
1146.810, 77.65983
1147.292, 77.39111
1147.774, 77.38651
1148.256, 77.71468
1148.738, 77.90474
1149.220, 77.91294
1149.703, 77.92256
1150.185, 78.03264
1150.667, 78.10513
1151.149, 77.91378
1151.631, 77.55215
1152.113, 77.10410
1152.595, 76.43272
1153.077, 76.32619
1153.559, 77.05350
1154.042, 77.78865
1154.524, 78.11059
1155.006, 78.14112
1155.488, 78.11285
1155.970, 78.01755
1156.452, 77.82966
1156.934, 77.43110
1157.416, 77.15000
1157.898, 77.07581
1158.381, 77.03491
1158.863, 76.88420
1159.345, 76.65859
1159.827, 76.45435
1160.309, 76.29503
1160.791, 76.28188
1161.273, 76.74150
1161.755, 76.96439
1162.238, 76.59593
1162.720, 76.12434
1163.202, 76.12943
1163.684, 76.51807
1164.166, 76.65048
1164.648, 76.52804
1165.130, 76.44871
1165.612, 76.50962
1166.094, 76.74685
1166.577, 77.41732
1167.059, 78.10578
1167.541, 78.05012
1168.023, 77.31932
1168.505, 76.75261
1168.987, 76.43408
1169.469, 76.32926
1169.951, 76.63810
1170.433, 76.93362
1170.916, 76.91850
1171.398, 76.70511
1171.880, 76.53360
1172.362, 76.40349
1172.844, 76.40064
1173.326, 76.55315
1173.808, 76.73645
1174.290, 76.86382
1174.773, 76.96383
1175.255, 77.07070
1175.737, 77.17321
1176.219, 77.19158
1176.701, 77.12359
1177.183, 77.00797
1177.665, 76.83267
1178.147, 76.69340
1178.630, 76.76505
1179.112, 76.85981
1179.594, 76.71919
1180.076, 76.33706
1180.558, 76.33624
1181.040, 76.76537
1181.522, 77.10422
1182.004, 77.12959
1182.486, 77.03714
1182.969, 77.03767
1183.451, 77.04240
1183.933, 76.90197
1184.415, 76.54711
1184.897, 76.45810
1185.379, 76.67832
1185.861, 76.87224
1186.343, 76.79667
1186.825, 76.70236
1187.308, 76.96809
1187.790, 77.38622
1188.272, 77.62112
1188.754, 77.57383
1189.236, 77.50645
1189.718, 77.42265
1190.200, 77.30595
1190.682, 77.10384
1191.165, 76.89915
1191.647, 76.83076
1192.129, 76.83499
1192.611, 76.76857
1193.093, 76.45029
1193.575, 76.45503
1194.057, 76.85803
1194.539, 77.31155
1195.021, 77.60422
1195.504, 77.74505
1195.986, 77.70752
1196.468, 77.52800
1196.950, 77.30451
1197.432, 77.00164
1197.914, 76.76254
1198.396, 76.58846
1198.878, 76.50255
1199.360, 76.54258
1199.843, 76.67580
1200.325, 76.95300
1200.807, 77.29781
1201.289, 77.38110
1201.771, 76.95856
1202.253, 76.73973
1202.735, 76.86060
1203.217, 77.01600
1203.700, 76.73273
1204.182, 76.35083
1204.664, 76.44933
1205.146, 76.97181
1205.628, 77.29246
1206.110, 77.20435
1206.592, 77.15128
1207.074, 77.18501
1207.557, 77.32001
1208.039, 77.70057
1208.521, 78.12167
1209.003, 78.25541
1209.485, 78.09078
1209.967, 77.94666
1210.449, 77.86832
1210.931, 77.81273
1211.413, 77.78101
1211.896, 77.74130
1212.378, 77.52570
1212.860, 77.33958
1213.342, 77.61040
1213.824, 78.38351
1214.306, 78.74967
1214.788, 78.52918
1215.270, 78.16418
1215.752, 77.69298
1216.235, 77.32895
1216.717, 77.53887
1217.199, 77.97182
1217.681, 78.07853
1218.163, 77.75527
1218.645, 77.59882
1219.127, 77.75546
1219.609, 77.73620
1220.092, 77.28632
1220.574, 76.81410
1221.056, 77.03658
1221.538, 77.57465
1222.020, 77.89960
1222.502, 77.89931
1222.984, 77.79450
1223.466, 77.53853
1223.948, 77.37180
1224.431, 77.38233
1224.913, 77.52127
1225.395, 77.77800
1225.877, 78.08768
1226.359, 78.40434
1226.841, 78.76352
1227.323, 78.78435
1227.805, 78.38278
1228.287, 77.97839
1228.770, 77.73572
1229.252, 77.59527
1229.734, 77.51125
1230.216, 77.46291
1230.698, 77.41086
1231.180, 77.32919
1231.662, 77.38261
1232.144, 77.58983
1232.627, 77.84058
1233.109, 78.15739
1233.591, 78.37266
1234.073, 78.20639
1234.555, 77.85936
1235.037, 77.57222
1235.519, 77.34392
1236.001, 77.42142
1236.484, 77.86035
1236.966, 78.09354
1237.448, 77.65442
1237.930, 77.16532
1238.412, 77.27991
1238.894, 77.71728
1239.376, 78.15806
1239.858, 78.63528
1240.340, 78.65156
1240.823, 78.18523
1241.305, 77.69116
1241.787, 77.27050
1242.269, 77.12050
1242.751, 77.76839
1243.233, 78.57384
1243.715, 78.63090
1244.197, 77.79911
1244.679, 77.70617
1245.162, 78.33589
1245.644, 78.92561
1246.126, 79.13886
1246.608, 79.08657
1247.090, 78.61576
1247.572, 78.07431
1248.054, 77.85683
1248.536, 77.97122
1249.019, 78.20047
1249.501, 78.52660
1249.983, 78.74806
1250.465, 78.70507
1250.947, 78.58724
1251.429, 78.38223
1251.911, 78.23569
1252.393, 78.36281
1252.875, 78.73087
1253.358, 78.63872
1253.840, 78.15686
1254.322, 77.76590
1254.804, 77.63435
1255.286, 77.75212
1255.768, 78.37778
1256.250, 78.97425
1256.732, 79.01598
1257.214, 78.60964
1257.697, 78.35625
1258.179, 78.25420
1258.661, 78.27890
1259.143, 78.56104
1259.625, 78.77201
1260.107, 78.87672
1260.589, 78.86694
1261.071, 78.60615
1261.554, 78.25122
1262.036, 78.45853
1262.518, 79.03174
1263.000, 79.30093
1263.482, 78.70426
1263.964, 78.22916
1264.446, 77.89127
1264.928, 77.83900
1265.411, 78.46082
1265.893, 79.31115
1266.375, 79.45994
1266.857, 79.12025
1267.339, 78.88883
1267.821, 79.05173
1268.303, 79.05862
1268.785, 78.83723
1269.267, 78.69535
1269.750, 79.13970
1270.232, 79.60384
1270.714, 79.05482
1271.196, 77.99825
1271.678, 77.70396
1272.160, 78.65473
1272.642, 79.01650
1273.124, 78.67043
1273.606, 78.37035
1274.089, 78.82951
1274.571, 79.41054
1275.053, 79.59321
1275.535, 79.46671
1276.017, 79.18114
1276.499, 78.68265
1276.981, 78.51363
1277.463, 78.67997
1277.946, 78.80186
1278.428, 78.52076
1278.910, 78.24390
1279.392, 78.20893
1279.874, 78.33760
1280.356, 78.58335
1280.838, 78.93726
1281.320, 79.10666
1281.802, 79.09972
1282.285, 79.03251
1282.767, 78.84617
1283.249, 78.77469
1283.731, 79.05361
1284.213, 79.31340
1284.695, 79.10463
1285.177, 78.58788
1285.659, 78.63867
1286.141, 79.11848
1286.624, 79.43604
1287.106, 79.14162
1287.588, 78.96004
1288.070, 79.02090
1288.552, 79.13818
1289.034, 79.16890
1289.516, 79.14113
1289.998, 79.03714
1290.481, 78.93484
1290.963, 79.03622
1291.445, 79.66509
1291.927, 79.98026
1292.409, 79.88731
1292.891, 79.84138
1293.373, 80.44211
1293.855, 81.05302
1294.338, 80.66679
1294.820, 79.75523
1295.302, 79.23827
1295.784, 79.28019
1296.266, 79.22783
1296.748, 79.06672
1297.230, 79.07289
1297.712, 79.59841
1298.194, 80.14111
1298.677, 80.28440
1299.159, 80.21703
1299.641, 80.16075
1300.123, 80.11279
1300.605, 80.19268
1301.087, 80.37572
1301.569, 80.43655
1302.051, 80.11038
1302.533, 79.85835
1303.016, 79.83395
##END=



