##NAMES=Muscovite
##RRUFFID=R060182
##IDEAL CHEMISTRY=KAl_2_(Si_3_Al)O_10_(OH)_2_
##LOCALITY=Reliance mine, Mica Mountain, Tete Juane Cache, British Columbia, Canada
##OWNER=RRUFF
##SOURCE=Lloyd Twaites
##DESCRIPTION=Pale-yellow transparent mica, polytype 2M1
##STATUS=The identification of this mineral has been confirmed by X-ray diffraction and chemical analysis
##URL=rruff.info/R060182
##MEASURED CHEMISTRY=(K_0.91_Na_0.09_)(Al_0.93_Fe^3+^_0.05_Mg_0.02_)_2_(Si_3.04_Al_0.96_)O_10_(OH)_2_
92.02539, 527.0135
92.50751, 551.1013
92.98962, 566.3115
93.47174, 553.6683
93.95386, 531.2358
94.43597, 513.0610
94.91809, 507.5418
95.40021, 510.1803
95.88232, 503.8164
96.36444, 484.9840
96.84656, 462.1389
97.32867, 433.9621
97.81078, 404.4189
98.29290, 379.6934
98.77502, 364.8721
99.25713, 360.3929
99.73925, 354.7824
100.2214, 350.8438
100.7035, 343.9984
101.1856, 329.6706
101.6677, 308.7952
102.1498, 287.6511
102.6320, 273.6936
103.1141, 268.9041
103.5962, 268.1837
104.0783, 272.1952
104.5604, 279.8271
105.0425, 291.9517
105.5247, 310.2661
106.0068, 327.9393
106.4889, 332.5351
106.9710, 324.4141
107.4531, 310.7392
107.9352, 292.5009
108.4173, 270.4438
108.8995, 248.3142
109.3816, 225.9054
109.8637, 205.3117
110.3458, 188.5308
110.8279, 175.9353
111.3100, 166.2320
111.7922, 158.1883
112.2743, 152.1875
112.7564, 146.7869
113.2385, 141.4334
113.7206, 136.4520
114.2027, 132.1940
114.6849, 128.8644
115.1670, 126.2747
115.6491, 123.8225
116.1312, 121.1820
116.6133, 119.1017
117.0954, 117.8283
117.5776, 117.1525
118.0597, 116.7461
118.5418, 116.3720
119.0239, 116.0244
119.5060, 116.1333
119.9881, 117.3357
120.4703, 118.3110
120.9524, 118.2794
121.4345, 117.3919
121.9166, 116.5294
122.3987, 116.6139
122.8808, 117.8489
123.3630, 118.2946
123.8451, 117.1723
124.3272, 115.6563
124.8093, 115.2185
125.2914, 116.2873
125.7735, 117.2064
126.2557, 115.3272
126.7378, 111.2852
127.2199, 107.9836
127.7020, 106.9717
128.1841, 107.6350
128.6662, 108.0918
129.1483, 108.1819
129.6305, 107.7727
130.1126, 106.8053
130.5947, 105.3070
131.0768, 103.5355
131.5589, 101.5369
132.0410, 99.22814
132.5232, 97.38264
133.0053, 95.99503
133.4874, 95.18032
133.9695, 95.40108
134.4516, 96.62266
134.9337, 98.01220
135.4159, 98.25066
135.8980, 96.63303
136.3801, 95.10191
136.8622, 93.59997
137.3443, 92.28819
137.8264, 91.31802
138.3086, 90.74159
138.7907, 90.48985
139.2728, 90.39135
139.7549, 90.91989
140.2370, 91.05144
140.7191, 90.41809
141.2013, 89.38686
141.6834, 88.51778
142.1655, 88.12976
142.6476, 88.08463
143.1297, 87.76877
143.6118, 87.00031
144.0939, 86.21745
144.5761, 85.59236
145.0582, 85.10479
145.5403, 84.66801
146.0224, 84.28954
146.5045, 83.90018
146.9866, 83.32812
147.4688, 82.42696
147.9509, 81.45777
148.4330, 80.62481
148.9151, 79.91802
149.3972, 79.40704
149.8793, 79.44572
150.3615, 79.64495
150.8436, 79.45437
151.3257, 78.37593
151.8078, 76.93436
152.2899, 76.43745
152.7720, 77.47087
153.2542, 78.44168
153.7363, 78.61223
154.2184, 78.31772
154.7005, 78.06509
155.1826, 78.17876
155.6647, 78.62020
156.1469, 78.99732
156.6290, 79.43791
157.1111, 79.65942
157.5932, 79.49232
158.0753, 79.03906
158.5574, 78.48994
159.0396, 77.96562
159.5217, 77.42848
160.0038, 77.29544
160.4859, 77.81255
160.9680, 78.44792
161.4501, 79.04201
161.9323, 79.55888
162.4144, 80.00081
162.8965, 80.35713
163.3786, 80.59830
163.8607, 80.89242
164.3428, 81.37209
164.8250, 81.81080
165.3071, 82.00547
165.7892, 81.93389
166.2713, 81.77993
166.7534, 81.78091
167.2355, 81.97434
167.7177, 82.03060
168.1998, 81.81712
168.6819, 81.48176
169.1640, 81.20095
169.6461, 81.00599
170.1282, 80.88538
170.6104, 80.93050
171.0925, 81.12174
171.5746, 81.10082
172.0567, 80.60837
172.5388, 79.78242
173.0209, 79.01611
173.5031, 78.36187
173.9852, 77.82055
174.4673, 77.38804
174.9494, 77.05630
175.4315, 76.74203
175.9136, 76.35239
176.3958, 75.89278
176.8779, 75.55947
177.3600, 75.48204
177.8421, 75.46163
178.3242, 75.44089
178.8063, 75.39598
179.2885, 75.25038
179.7706, 74.83963
180.2527, 74.03672
180.7348, 73.53032
181.2169, 73.69600
181.6990, 73.91910
182.1812, 73.85207
182.6633, 73.45432
183.1454, 72.94420
183.6275, 72.60628
184.1096, 72.42855
184.5917, 72.48569
185.0738, 72.78771
185.5560, 73.26151
186.0381, 73.91341
186.5202, 74.72329
187.0023, 75.59092
187.4844, 76.34016
187.9665, 76.88850
188.4487, 77.43922
188.9308, 77.85442
189.4129, 78.33311
189.8950, 79.16198
190.3771, 80.42363
190.8592, 81.80914
191.3414, 82.69303
191.8235, 82.78471
192.3056, 82.91686
192.7877, 83.27878
193.2698, 83.69787
193.7519, 83.90860
194.2341, 83.79076
194.7162, 83.52773
195.1983, 83.53019
195.6804, 83.88200
196.1625, 84.13878
196.6446, 84.24227
197.1268, 84.15482
197.6089, 83.75166
198.0910, 82.90738
198.5731, 81.84903
199.0552, 80.96829
199.5373, 80.30190
200.0195, 79.57206
200.5016, 78.46013
200.9837, 77.08212
201.4658, 76.08092
201.9479, 75.85467
202.4300, 75.88624
202.9122, 75.59159
203.3943, 74.93497
203.8764, 74.17269
204.3585, 73.44164
204.8406, 72.74078
205.3227, 72.19362
205.8048, 71.85005
206.2870, 71.68042
206.7691, 71.71449
207.2512, 71.95119
207.7333, 72.23672
208.2154, 72.40373
208.6975, 72.43025
209.1797, 72.46824
209.6618, 72.43287
210.1439, 72.49320
210.6260, 72.81128
211.1081, 73.39320
211.5902, 74.03923
212.0724, 74.44854
212.5545, 74.46665
213.0366, 74.71765
213.5187, 75.48682
214.0008, 76.30800
214.4829, 76.98605
214.9651, 77.44392
215.4472, 77.63103
215.9293, 77.44550
216.4114, 76.73079
216.8935, 75.93042
217.3756, 75.06196
217.8578, 74.12022
218.3399, 73.08627
218.8220, 71.96510
219.3041, 70.77685
219.7862, 69.56675
220.2683, 68.39211
220.7505, 67.06512
221.2326, 65.44959
221.7147, 63.77917
222.1968, 62.18741
222.6789, 60.72030
223.1610, 59.40618
223.6432, 58.29155
224.1253, 57.45556
224.6074, 56.70149
225.0895, 56.05705
225.5716, 55.47602
226.0537, 54.95006
226.5358, 54.47082
227.0180, 53.96404
227.5001, 53.25666
227.9822, 52.13011
228.4643, 51.58441
228.9464, 52.21582
229.4285, 53.21178
229.9107, 53.68851
230.3928, 53.44251
230.8749, 52.89071
231.3570, 52.54227
231.8391, 52.41853
232.3212, 52.25288
232.8034, 51.81964
233.2855, 51.39478
233.7676, 51.38410
234.2497, 51.90044
234.7318, 52.58944
235.2139, 53.00668
235.6961, 53.19427
236.1782, 53.58937
236.6603, 54.33114
237.1424, 55.33672
237.6245, 56.57638
238.1066, 58.14834
238.5888, 59.63086
239.0709, 60.40686
239.5530, 60.71154
240.0351, 61.33479
240.5172, 62.70815
240.9993, 64.54269
241.4815, 66.24253
241.9636, 67.67833
242.4457, 69.25388
242.9278, 71.45700
243.4099, 74.02099
243.8920, 76.38591
244.3742, 78.14489
244.8563, 79.56474
245.3384, 81.30717
245.8205, 83.54799
246.3026, 85.70744
246.7847, 87.26938
247.2668, 88.55872
247.7490, 90.12281
248.2311, 92.35806
248.7132, 94.94889
249.1953, 97.07841
249.6774, 98.38173
250.1595, 99.97066
250.6417, 102.4209
251.1238, 105.3548
251.6059, 108.2969
252.0880, 111.0147
252.5701, 113.6335
253.0522, 116.4852
253.5344, 119.5322
254.0165, 122.8945
254.4986, 126.5533
254.9807, 130.4994
255.4628, 134.7771
255.9449, 139.4021
256.4271, 144.3110
256.9092, 149.4799
257.3913, 155.2613
257.8734, 160.5693
258.3555, 165.0919
258.8376, 169.1813
259.3198, 173.3308
259.8019, 177.7260
260.2840, 181.8809
260.7661, 184.7329
261.2482, 185.7955
261.7303, 186.3535
262.2125, 187.2557
262.6946, 187.4680
263.1767, 186.0776
263.6588, 182.8073
264.1409, 178.1443
264.6230, 172.8086
265.1052, 166.3593
265.5873, 160.0575
266.0694, 154.0892
266.5515, 148.1990
267.0336, 142.2439
267.5157, 136.1950
267.9979, 130.0821
268.4800, 123.9026
268.9621, 117.4026
269.4442, 111.4874
269.9263, 106.2763
270.4084, 101.4357
270.8906, 96.72004
271.3727, 92.12693
271.8548, 87.89854
272.3369, 84.37118
272.8190, 81.81965
273.3011, 79.15651
273.7833, 76.15035
274.2654, 73.24828
274.7475, 70.67619
275.2296, 68.45617
275.7117, 66.54172
276.1938, 64.91612
276.6760, 63.63603
277.1581, 62.29258
277.6402, 60.71535
278.1223, 59.24044
278.6044, 58.04512
279.0865, 57.09389
279.5686, 56.23723
280.0508, 55.35247
280.5329, 54.43836
281.0150, 53.62755
281.4971, 52.82024
281.9792, 52.18694
282.4613, 51.86799
282.9435, 51.77892
283.4256, 51.71558
283.9077, 51.53828
284.3898, 51.27430
284.8719, 51.18636
285.3540, 51.74999
285.8362, 51.93519
286.3183, 51.28212
286.8004, 50.08086
287.2825, 48.81170
287.7646, 47.69612
288.2467, 46.75202
288.7289, 46.04371
289.2110, 45.72396
289.6931, 45.43132
290.1752, 44.97242
290.6573, 44.54771
291.1394, 44.56318
291.6216, 45.20494
292.1037, 46.04745
292.5858, 46.17640
293.0679, 45.12011
293.5500, 44.26123
294.0321, 43.73259
294.5143, 43.46665
294.9964, 43.48906
295.4785, 43.80317
295.9606, 44.14047
296.4427, 44.09568
296.9248, 43.48186
297.4070, 43.03740
297.8891, 42.90784
298.3712, 42.88527
298.8533, 42.73532
299.3354, 42.43869
299.8175, 42.23839
300.2997, 42.43591
300.7818, 43.12764
301.2639, 43.49585
301.7460, 43.22787
302.2281, 42.88592
302.7102, 42.93503
303.1924, 43.33883
303.6745, 43.63182
304.1566, 43.40404
304.6387, 42.69352
305.1208, 42.32360
305.6029, 42.42143
306.0851, 42.69351
306.5672, 43.13688
307.0493, 43.66140
307.5314, 43.98801
308.0135, 43.91811
308.4956, 43.56149
308.9778, 43.40297
309.4599, 43.42768
309.9420, 43.61915
310.4241, 44.17970
310.9062, 44.88842
311.3883, 45.30105
311.8705, 45.22302
312.3526, 44.79366
312.8347, 44.26114
313.3168, 43.48223
313.7989, 42.93613
314.2810, 42.83702
314.7632, 42.98280
315.2453, 43.10097
315.7274, 43.11545
316.2095, 43.13936
316.6916, 43.37159
317.1737, 43.91150
317.6559, 44.20053
318.1380, 44.02694
318.6201, 43.68309
319.1022, 43.41358
319.5843, 43.25414
320.0664, 43.15566
320.5485, 43.07885
321.0306, 43.02653
321.5128, 42.98363
321.9949, 43.05281
322.4770, 43.04607
322.9591, 42.75111
323.4412, 42.23204
323.9233, 41.80312
324.4055, 41.68867
324.8876, 41.84585
325.3697, 41.94283
325.8518, 42.13517
326.3339, 42.11668
326.8160, 41.51038
327.2982, 40.61245
327.7803, 40.13761
328.2624, 40.49084
328.7445, 41.28051
329.2266, 41.41092
329.7087, 40.43029
330.1909, 39.70517
330.6730, 39.71344
331.1551, 40.03729
331.6372, 40.09862
332.1193, 39.72600
332.6014, 39.22717
333.0836, 39.06976
333.5657, 39.45639
334.0478, 39.57270
334.5299, 39.09163
335.0120, 38.52769
335.4941, 38.35377
335.9763, 38.60052
336.4584, 38.91827
336.9405, 38.98068
337.4226, 38.75970
337.9047, 38.57528
338.3868, 38.37196
338.8690, 38.24863
339.3511, 38.30529
339.8332, 38.49373
340.3153, 38.66565
340.7974, 38.72250
341.2795, 38.68828
341.7617, 38.71692
342.2438, 38.86255
342.7259, 38.99723
343.2080, 39.10446
343.6901, 39.18058
344.1722, 39.22729
344.6544, 39.24609
345.1365, 39.21777
345.6186, 39.08957
346.1007, 38.51210
346.5828, 38.40530
347.0649, 39.12122
347.5471, 40.10885
348.0292, 41.00832
348.5113, 41.69706
348.9934, 42.06655
349.4755, 41.91335
349.9576, 40.99840
350.4398, 40.57148
350.9219, 40.83712
351.4040, 41.31767
351.8861, 41.93325
352.3682, 42.56836
352.8503, 42.99209
353.3325, 43.00367
353.8146, 42.63440
354.2967, 42.37563
354.7788, 42.04036
355.2609, 42.02606
355.7430, 42.63166
356.2252, 43.55461
356.7073, 44.39817
357.1894, 44.97368
357.6715, 45.34142
358.1536, 45.63990
358.6357, 45.63663
359.1179, 45.94094
359.5999, 46.83281
360.0821, 47.85173
360.5642, 48.71935
361.0463, 49.33742
361.5284, 49.62171
362.0105, 49.35686
362.4926, 48.22721
362.9748, 47.79208
363.4569, 48.54384
363.9390, 49.47897
364.4211, 50.22152
364.9032, 50.78377
365.3853, 51.33275
365.8675, 52.01972
366.3496, 52.80852
366.8317, 53.33283
367.3138, 53.21161
367.7959, 53.31142
368.2780, 54.01373
368.7602, 54.96253
369.2423, 55.69461
369.7244, 56.00048
370.2065, 56.09868
370.6886, 56.41285
371.1707, 56.99010
371.6529, 57.67507
372.1350, 58.76289
372.6171, 59.72097
373.0992, 60.09427
373.5813, 59.86990
374.0634, 59.52589
374.5456, 59.53337
375.0277, 59.90425
375.5098, 60.36571
375.9919, 61.07309
376.4740, 61.68610
376.9561, 62.04279
377.4383, 62.19167
377.9204, 62.24430
378.4025, 62.24205
378.8846, 62.20089
379.3667, 62.12609
379.8488, 61.92937
380.3310, 61.93435
380.8131, 62.48920
381.2952, 63.21119
381.7773, 63.69009
382.2594, 63.78841
382.7415, 63.78769
383.2237, 63.96912
383.7058, 64.33212
384.1879, 64.80833
384.6700, 65.52359
385.1521, 66.19639
385.6342, 66.53079
386.1164, 66.54936
386.5985, 66.61406
387.0806, 66.89738
387.5627, 67.37109
388.0448, 68.01844
388.5269, 68.89405
389.0091, 69.74771
389.4912, 70.30095
389.9733, 70.69695
390.4554, 71.26176
390.9375, 72.12964
391.4196, 73.12727
391.9018, 74.16115
392.3839, 75.22035
392.8660, 76.12444
393.3481, 76.65910
393.8302, 77.12854
394.3123, 78.22446
394.7945, 80.24574
395.2766, 81.88450
395.7587, 82.32130
396.2408, 82.11617
396.7229, 82.17354
397.2050, 82.69359
397.6872, 83.49476
398.1693, 84.44139
398.6514, 85.54947
399.1335, 86.57845
399.6156, 87.63106
400.0977, 88.52016
400.5798, 88.91800
401.0620, 88.96671
401.5441, 89.30503
402.0262, 90.38969
402.5083, 92.02900
402.9904, 93.22640
403.4725, 93.96593
403.9547, 94.36440
404.4368, 94.12131
404.9189, 93.66962
405.4010, 93.61327
405.8831, 94.12547
406.3652, 94.83940
406.8474, 95.24177
407.3295, 95.32584
407.8116, 95.04795
408.2937, 93.99436
408.7758, 92.98958
409.2579, 92.66942
409.7401, 92.84892
410.2222, 92.82608
410.7043, 92.04405
411.1864, 90.61294
411.6685, 89.48532
412.1506, 88.98434
412.6328, 88.40797
413.1149, 87.72172
413.5970, 86.87945
414.0791, 85.80718
414.5612, 84.48625
415.0433, 83.02389
415.5255, 81.59203
416.0076, 80.21648
416.4897, 78.75704
416.9718, 77.03784
417.4539, 75.38233
417.9360, 74.00948
418.4182, 72.84993
418.9003, 71.66664
419.3824, 70.23746
419.8645, 68.64670
420.3466, 67.27116
420.8287, 66.24567
421.3109, 65.16821
421.7930, 63.78441
422.2751, 62.31014
422.7572, 60.99633
423.2393, 59.92206
423.7214, 58.97337
424.2036, 58.02117
424.6857, 57.07168
425.1678, 56.25858
425.6499, 55.73406
426.1320, 55.20066
426.6141, 54.34484
427.0963, 53.20792
427.5784, 52.08955
428.0605, 51.09613
428.5426, 50.20329
429.0247, 49.40014
429.5068, 48.68518
429.9890, 47.99235
430.4711, 47.29507
430.9532, 46.58712
431.4353, 45.86373
431.9174, 45.14501
432.3995, 44.37926
432.8817, 43.47199
433.3638, 42.50885
433.8459, 41.65651
434.3280, 40.96807
434.8101, 40.41839
435.2922, 39.98046
435.7744, 39.66565
436.2565, 39.45183
436.7386, 39.53675
437.2207, 39.56380
437.7028, 39.24591
438.1849, 38.62410
438.6671, 37.91267
439.1492, 37.23689
439.6313, 36.61113
440.1134, 36.13906
440.5955, 35.97234
441.0776, 35.77390
441.5598, 35.56207
442.0418, 35.27530
442.5240, 34.77869
443.0061, 34.07214
443.4882, 33.38567
443.9703, 33.06004
444.4524, 33.21363
444.9345, 33.16807
445.4167, 32.58995
445.8988, 32.14153
446.3809, 32.20607
446.8630, 32.56372
447.3451, 32.76756
447.8272, 32.54731
448.3094, 32.05734
448.7915, 31.69533
449.2736, 31.52910
449.7557, 31.29650
450.2378, 30.76986
450.7199, 30.26133
451.2021, 30.05852
451.6842, 30.17257
452.1663, 30.27249
452.6484, 29.99086
453.1305, 29.45071
453.6126, 29.25549
454.0948, 29.58101
454.5769, 29.91962
455.0590, 29.85626
455.5411, 29.57733
456.0232, 29.40409
456.5053, 29.45837
456.9875, 29.56749
457.4696, 29.60330
457.9517, 29.57301
458.4338, 29.49530
458.9159, 29.35110
459.3980, 29.21145
459.8802, 29.21015
460.3623, 29.36146
460.8444, 29.46421
461.3265, 29.47401
461.8086, 29.42579
462.2907, 29.33555
462.7729, 29.21174
463.2550, 29.05830
463.7371, 28.84340
464.2192, 28.62085
464.7013, 28.70687
465.1834, 29.57037
465.6656, 30.12445
466.1477, 29.95793
466.6298, 29.53892
467.1119, 29.38796
467.5940, 29.61723
468.0761, 29.97330
468.5583, 30.16784
469.0404, 30.19525
469.5225, 30.10190
470.0046, 29.66929
470.4867, 29.34261
470.9688, 29.37121
471.4510, 29.57383
471.9331, 29.63346
472.4152, 29.38831
472.8973, 29.00629
473.3794, 28.81249
473.8615, 28.85032
474.3437, 28.89111
474.8258, 28.87328
475.3079, 28.86471
475.7900, 28.91105
476.2721, 29.00819
476.7542, 29.12107
477.2364, 29.31334
477.7185, 29.48896
478.2006, 29.38231
478.6827, 28.94605
479.1648, 28.50618
479.6469, 28.19184
480.1291, 28.00183
480.6112, 27.92124
481.0933, 27.96179
481.5754, 28.07781
482.0575, 28.35136
482.5396, 28.66110
483.0217, 28.77927
483.5038, 28.65884
483.9860, 28.37632
484.4681, 27.92327
484.9502, 27.29768
485.4323, 27.06078
485.9144, 27.71422
486.3965, 28.19977
486.8787, 27.93233
487.3608, 27.20651
487.8429, 26.53702
488.3250, 26.12890
488.8071, 25.94871
489.2892, 25.96293
489.7714, 26.31285
490.2535, 26.50887
490.7356, 26.48390
491.2177, 26.39469
491.6998, 26.29611
492.1819, 26.19990
492.6641, 26.11578
493.1462, 26.05813
493.6283, 25.99960
494.1104, 25.82126
494.5925, 25.40726
495.0746, 25.19033
495.5568, 25.50156
496.0389, 25.88758
496.5210, 25.97999
497.0031, 25.77663
497.4852, 25.63184
497.9673, 25.93426
498.4495, 26.47482
498.9316, 26.65373
499.4137, 26.40527
499.8958, 26.00184
500.3779, 25.49765
500.8600, 24.97021
501.3422, 24.58152
501.8243, 24.38182
502.3064, 24.22606
502.7885, 24.04387
503.2706, 23.85482
503.7527, 23.65385
504.2349, 23.43833
504.7170, 23.35427
505.1991, 23.60291
505.6812, 24.21484
506.1633, 24.49397
506.6454, 24.25241
507.1276, 23.92817
507.6097, 23.57350
508.0918, 23.27099
508.5739, 23.17750
509.0560, 23.34237
509.5381, 23.58669
510.0203, 23.59790
510.5024, 23.24791
510.9845, 23.10496
511.4666, 23.47839
511.9487, 23.75251
512.4308, 23.58411
512.9130, 23.14966
513.3951, 22.80685
513.8772, 22.73163
514.3593, 22.85085
514.8414, 23.05049
515.3235, 23.33824
515.8057, 23.67042
516.2878, 24.20421
516.7699, 24.60265
517.2520, 24.50082
517.7341, 23.96936
518.2162, 23.52345
518.6984, 23.41588
519.1805, 23.48900
519.6626, 23.61747
520.1447, 23.78154
520.6268, 23.74661
521.1089, 23.30219
521.5911, 22.70708
522.0732, 22.59075
522.5553, 23.04865
523.0374, 23.58409
523.5195, 24.33616
524.0016, 24.97762
524.4838, 25.10666
524.9659, 24.79007
525.4480, 24.48074
525.9301, 24.51555
526.4122, 24.81259
526.8943, 24.94647
527.3765, 24.76141
527.8586, 24.62885
528.3407, 24.68851
528.8228, 24.73575
529.3049, 24.52431
529.7870, 24.08142
530.2692, 23.71356
530.7513, 23.67519
531.2334, 23.94108
531.7155, 24.44529
532.1976, 25.41034
532.6797, 26.08842
533.1619, 25.90159
533.6440, 25.39203
534.1261, 25.05201
534.6082, 24.94880
535.0903, 25.05211
535.5724, 25.46275
536.0546, 26.04111
536.5367, 26.47452
537.0188, 26.71560
537.5009, 26.96078
537.9830, 27.42620
538.4651, 28.01255
538.9473, 28.19024
539.4294, 27.49137
539.9115, 27.01133
540.3936, 27.20309
540.8757, 27.70974
541.3578, 28.14379
541.8400, 28.40655
542.3221, 28.53269
542.8042, 28.53654
543.2863, 28.41495
543.7684, 28.37082
544.2505, 28.53843
544.7326, 28.62142
545.2147, 28.47798
545.6968, 28.26561
546.1790, 28.11493
546.6611, 28.07037
547.1432, 28.19381
547.6253, 28.66646
548.1074, 29.44149
548.5895, 29.95419
549.0717, 30.15444
549.5538, 30.15240
550.0359, 29.85579
550.5180, 29.43646
551.0001, 29.15878
551.4822, 29.11426
551.9644, 29.09666
552.4465, 28.92522
552.9286, 28.69819
553.4107, 28.69619
553.8928, 28.98115
554.3749, 29.14737
554.8571, 28.76328
555.3392, 27.85144
555.8213, 27.32860
556.3034, 27.36695
556.7855, 27.52007
557.2676, 27.79172
557.7498, 28.05921
558.2319, 28.17259
558.7140, 28.10374
559.1961, 27.94940
559.6782, 27.83773
560.1603, 27.77300
560.6425, 27.44858
561.1246, 26.52681
561.6067, 25.85280
562.0888, 25.78682
562.5709, 26.02324
563.0530, 26.22290
563.5352, 26.30393
564.0173, 26.39367
564.4994, 26.69153
564.9815, 27.08951
565.4636, 27.16873
565.9457, 26.82446
566.4279, 26.51340
566.9100, 26.59146
567.3921, 26.93686
567.8742, 27.08927
568.3563, 26.91878
568.8384, 26.77366
569.3206, 26.78113
569.8027, 26.87346
570.2848, 27.01594
570.7669, 27.17826
571.2490, 27.24571
571.7311, 27.10008
572.2133, 26.76718
572.6954, 26.53662
573.1775, 26.44877
573.6596, 26.41523
574.1417, 26.43199
574.6238, 26.49015
575.1060, 26.61567
575.5881, 26.79218
576.0702, 26.92518
576.5523, 26.92856
577.0344, 26.82660
577.5165, 26.71145
577.9987, 26.59071
578.4808, 26.41804
578.9629, 26.10169
579.4450, 25.77457
579.9271, 25.62917
580.4092, 25.69032
580.8914, 25.77610
581.3735, 25.85800
581.8556, 25.90499
582.3377, 25.85198
582.8198, 25.71713
583.3019, 25.60137
583.7841, 25.55443
584.2662, 25.58747
584.7483, 25.73779
585.2304, 26.17393
585.7125, 26.44724
586.1946, 26.50881
586.6768, 26.46329
587.1589, 26.24520
587.6410, 25.97503
588.1231, 25.96259
588.6052, 26.44411
589.0873, 27.10849
589.5695, 27.21382
590.0516, 26.65004
590.5337, 26.34573
591.0158, 26.66379
591.4979, 27.07505
591.9800, 27.10510
592.4622, 26.84518
592.9443, 26.66718
593.4264, 26.80651
593.9085, 26.95870
594.3906, 26.80519
594.8727, 26.46283
595.3549, 26.24271
595.8370, 26.24182
596.3191, 26.41313
596.8012, 26.73961
597.2833, 27.27757
597.7654, 27.56408
598.2476, 27.41117
598.7297, 27.26414
599.2118, 27.17142
599.6939, 27.20211
600.1760, 27.49627
600.6581, 28.07031
601.1403, 28.67142
601.6224, 29.02627
602.1045, 29.14214
602.5866, 29.13223
603.0687, 28.91131
603.5508, 28.75370
604.0330, 28.84675
604.5151, 29.06037
604.9972, 29.23755
605.4793, 29.35439
605.9614, 29.47371
606.4435, 29.68256
606.9257, 29.88643
607.4078, 29.90236
607.8899, 29.74208
608.3720, 29.63272
608.8541, 29.72066
609.3362, 29.95708
609.8184, 30.18947
610.3005, 30.41435
610.7826, 30.63938
611.2647, 30.86894
611.7468, 31.09495
612.2289, 31.35594
612.7111, 31.60936
613.1932, 31.74392
613.6753, 31.68122
614.1574, 31.51496
614.6395, 31.36602
615.1216, 31.21812
615.6038, 31.32733
616.0859, 31.86447
616.5680, 32.49406
617.0501, 33.00363
617.5322, 33.38800
618.0143, 33.59161
618.4965, 33.41949
618.9786, 33.26905
619.4607, 33.38546
619.9428, 33.68812
620.4249, 34.08859
620.9070, 34.55108
621.3892, 34.90240
621.8713, 34.92554
622.3534, 34.62897
622.8355, 34.63049
623.3176, 35.11523
623.7997, 35.67899
624.2819, 36.70471
624.7640, 37.49309
625.2461, 37.02329
625.7282, 35.41535
626.2103, 34.23718
626.6924, 35.11515
627.1745, 37.12770
627.6566, 37.87768
628.1387, 37.27393
628.6208, 36.67437
629.1030, 36.54459
629.5851, 36.70712
630.0672, 36.98030
630.5493, 37.38008
631.0314, 37.63404
631.5135, 37.56087
631.9957, 37.46588
632.4778, 37.52271
632.9599, 37.70875
633.4420, 38.00354
633.9241, 38.38925
634.4063, 38.72060
634.8884, 38.75370
635.3705, 38.43368
635.8526, 38.27439
636.3347, 38.33113
636.8168, 38.48069
637.2990, 38.77692
637.7811, 39.08526
638.2632, 39.25871
638.7453, 39.26781
639.2274, 39.12634
639.7095, 38.83018
640.1917, 38.39623
640.6738, 37.70325
641.1559, 36.77889
641.6380, 36.24023
642.1201, 36.51467
642.6022, 37.21672
643.0844, 37.46222
643.5665, 36.93986
644.0486, 36.58831
644.5307, 36.65831
645.0128, 36.65706
645.4949, 36.20294
645.9771, 35.48901
646.4592, 34.94404
646.9413, 34.76365
647.4234, 34.69703
647.9055, 34.33305
648.3876, 33.68156
648.8698, 33.29610
649.3519, 33.38448
649.8340, 33.36107
650.3161, 32.65758
650.7982, 31.64961
651.2803, 31.12374
651.7625, 31.29827
652.2446, 31.52571
652.7267, 31.63217
653.2088, 31.61617
653.6909, 31.39305
654.1730, 31.02067
654.6552, 30.74492
655.1373, 30.72200
655.6194, 30.86234
656.1015, 30.96346
656.5836, 31.10966
657.0657, 30.99692
657.5479, 30.35012
658.0300, 29.68283
658.5121, 29.11721
658.9942, 28.70672
659.4763, 28.57090
659.9584, 28.81780
660.4406, 29.11362
660.9227, 29.15312
661.4048, 29.01033
661.8869, 28.84372
662.3690, 28.67470
662.8511, 28.59181
663.3333, 28.66846
663.8154, 28.87376
664.2975, 29.07758
664.7796, 29.39392
665.2617, 29.54368
665.7438, 29.43939
666.2260, 29.23811
666.7081, 28.90557
667.1902, 28.57240
667.6723, 28.56172
668.1544, 29.09306
668.6365, 29.78399
669.1187, 29.96729
669.6008, 29.67225
670.0829, 29.57855
670.5650, 29.80758
671.0471, 30.17562
671.5292, 30.58567
672.0114, 31.02874
672.4935, 31.46933
672.9756, 31.96846
673.4577, 32.35609
673.9398, 32.35650
674.4219, 32.37336
674.9041, 32.93967
675.3862, 33.94040
675.8683, 34.77134
676.3504, 35.04933
676.8325, 34.99445
677.3146, 35.11747
677.7968, 35.44447
678.2789, 35.82275
678.7610, 36.23979
679.2431, 36.70912
679.7252, 37.15866
680.2073, 37.67289
680.6895, 38.46350
681.1716, 39.70055
681.6537, 40.90306
682.1358, 41.79657
682.6179, 42.48562
683.1000, 43.00111
683.5822, 43.41613
684.0643, 44.08741
684.5464, 45.26303
685.0285, 46.80413
685.5106, 48.33478
685.9927, 49.87287
686.4749, 51.35020
686.9570, 52.64960
687.4391, 53.99310
687.9212, 55.52970
688.4033, 57.16546
688.8854, 58.73983
689.3676, 60.19917
689.8497, 61.58204
690.3318, 62.82240
690.8139, 64.02872
691.2960, 65.38183
691.7781, 66.91668
692.2603, 68.74413
692.7424, 70.98523
693.2245, 73.49478
693.7066, 75.93546
694.1887, 78.44738
694.6708, 80.58841
695.1530, 82.12731
695.6351, 83.55057
696.1172, 84.97761
696.5993, 86.49198
697.0814, 88.24152
697.5635, 90.29088
698.0457, 92.33616
698.5278, 94.21862
699.0099, 95.85058
699.4920, 96.91002
699.9741, 97.34726
700.4562, 97.57357
700.9384, 97.80275
701.4205, 97.95480
701.9026, 97.88081
702.3847, 97.64442
702.8668, 96.96700
703.3489, 95.83723
703.8311, 94.27502
704.3132, 92.05647
704.7953, 89.49609
705.2774, 87.06740
705.7595, 84.92587
706.2416, 82.75952
706.7238, 80.17870
707.2059, 77.30637
707.6880, 74.63637
708.1701, 72.18009
708.6522, 69.98209
709.1343, 68.20838
709.6164, 66.50854
710.0985, 64.18321
710.5806, 61.05573
711.0627, 58.60805
711.5449, 57.72203
712.0270, 56.66821
712.5091, 54.32719
712.9912, 51.44743
713.4733, 49.05879
713.9554, 47.41395
714.4376, 46.21663
714.9197, 45.27589
715.4018, 44.51274
715.8839, 43.54081
716.3660, 42.30731
716.8481, 41.30875
717.3303, 40.79442
717.8124, 40.45570
718.2945, 39.94715
718.7766, 39.28403
719.2587, 38.65071
719.7408, 38.00221
720.2230, 37.45975
720.7051, 37.18229
721.1872, 36.97413
721.6693, 36.61793
722.1514, 36.08068
722.6335, 35.39938
723.1157, 34.52594
723.5978, 33.66298
724.0799, 33.49321
724.5620, 34.11458
725.0441, 34.35994
725.5262, 33.79778
726.0084, 33.19307
726.4905, 33.31814
726.9726, 33.93767
727.4547, 34.11674
727.9368, 33.40604
728.4189, 32.88299
728.9011, 33.00871
729.3832, 33.35902
729.8653, 33.55814
730.3474, 33.60090
730.8295, 33.65566
731.3116, 33.81946
731.7938, 34.00823
732.2759, 34.02781
732.7580, 33.87322
733.2401, 33.92863
733.7222, 34.29050
734.2043, 34.69322
734.6865, 35.01952
735.1686, 35.26868
735.6507, 35.45974
736.1328, 35.61363
736.6149, 35.63674
737.0970, 35.17361
737.5792, 34.88688
738.0613, 35.41538
738.5434, 36.42570
739.0255, 37.25901
739.5076, 37.68563
739.9897, 37.87543
740.4719, 37.97636
740.9540, 38.00697
741.4361, 38.05849
741.9182, 38.08288
742.4003, 38.41601
742.8824, 39.41254
743.3646, 40.50995
743.8467, 40.82158
744.3288, 40.33596
744.8109, 40.24786
745.2930, 40.98597
745.7751, 41.75024
746.2573, 42.25508
746.7394, 42.58772
747.2215, 42.81968
747.7036, 42.99259
748.1857, 43.21284
748.6678, 43.62594
749.1500, 44.03167
749.6321, 43.83492
750.1142, 43.03638
750.5963, 42.63459
751.0784, 42.92249
751.5605, 43.36796
752.0427, 43.62640
752.5248, 43.68419
753.0069, 43.47962
753.4890, 42.74634
753.9711, 42.18856
754.4532, 42.03773
754.9354, 41.96206
755.4175, 41.66653
755.8996, 41.25843
756.3817, 41.10257
756.8638, 41.37795
757.3459, 41.56219
757.8281, 40.87634
758.3102, 39.57079
758.7923, 38.57148
759.2744, 37.93363
759.7565, 37.64190
760.2386, 37.78245
760.7208, 38.10525
761.2029, 38.24891
761.6850, 38.34150
762.1671, 37.68479
762.6492, 35.18810
763.1313, 33.30961
763.6135, 33.20445
764.0956, 33.88302
764.5777, 34.41205
765.0598, 34.57476
765.5419, 34.36623
766.0240, 33.57663
766.5062, 32.59835
766.9883, 32.01625
767.4704, 31.74084
767.9525, 31.40712
768.4346, 30.92393
768.9167, 30.44045
769.3989, 30.09595
769.8810, 29.86333
770.3631, 29.58628
770.8452, 29.15298
771.3273, 28.87917
771.8094, 28.92468
772.2916, 28.99236
772.7737, 28.91826
773.2558, 28.75053
773.7379, 28.62440
774.2200, 28.60849
774.7021, 28.50336
775.1843, 28.01506
775.6664, 27.45598
776.1485, 27.36987
776.6306, 27.65008
777.1127, 27.69028
777.5948, 27.21444
778.0770, 26.55350
778.5591, 26.20213
779.0412, 26.17274
779.5233, 26.16918
780.0054, 26.18103
780.4875, 26.24245
780.9697, 26.41629
781.4518, 26.60543
781.9339, 26.72408
782.4160, 26.77272
782.8981, 26.76696
783.3802, 26.73598
783.8624, 26.62279
784.3445, 26.21908
784.8266, 25.81388
785.3087, 25.91746
785.7908, 26.46065
786.2729, 26.81538
786.7551, 26.53950
787.2372, 25.93928
787.7193, 25.61033
788.2014, 25.55165
788.6835, 25.58990
789.1656, 25.72577
789.6478, 25.90117
790.1299, 26.14303
790.6120, 26.36141
791.0941, 26.28948
791.5762, 25.73465
792.0583, 25.48150
792.5404, 25.92875
793.0225, 26.29598
793.5046, 26.12689
793.9868, 25.70233
794.4689, 25.40592
794.9510, 25.32163
795.4331, 25.30384
795.9152, 25.28841
796.3973, 25.24015
796.8795, 25.01417
797.3616, 24.67885
797.8437, 24.62741
798.3258, 24.96713
798.8079, 25.36409
799.2900, 25.55020
799.7722, 25.52511
800.2543, 25.24166
800.7364, 24.33682
801.2185, 23.91444
801.7006, 24.54056
802.1827, 25.18786
802.6649, 25.34283
803.1470, 25.19629
803.6291, 25.12894
804.1112, 25.24197
804.5933, 25.29694
805.0754, 25.10532
805.5576, 24.85463
806.0397, 24.75706
806.5218, 24.75514
807.0039, 24.64050
807.4860, 24.35734
807.9681, 24.13737
808.4503, 24.29571
808.9324, 24.72480
809.4145, 24.79367
809.8966, 24.42834
810.3787, 24.17851
810.8608, 24.24865
811.3430, 24.34280
811.8251, 24.13412
812.3072, 23.69340
812.7893, 23.51401
813.2714, 23.89366
813.7535, 24.08704
814.2357, 23.90247
814.7178, 23.57956
815.1999, 23.14739
815.6820, 22.73784
816.1641, 22.59036
816.6462, 22.79112
817.1284, 23.11146
817.6105, 23.47692
818.0926, 23.76180
818.5747, 23.58451
819.0568, 23.03629
819.5389, 22.74885
820.0211, 22.95168
820.5032, 23.34976
820.9853, 23.62473
821.4674, 23.77973
821.9495, 23.86503
822.4316, 23.91327
822.9138, 23.81232
823.3959, 23.21677
823.8780, 22.79572
824.3601, 23.16060
824.8422, 24.02353
825.3243, 24.62559
825.8065, 24.79564
826.2886, 24.80384
826.7707, 24.64484
827.2528, 24.45996
827.7349, 24.44108
828.2170, 24.48676
828.6992, 24.29751
829.1813, 23.78802
829.6634, 23.30942
830.1455, 23.31847
830.6276, 23.64356
831.1097, 23.64841
831.5919, 23.34079
832.0740, 23.18557
832.5561, 23.32178
833.0382, 23.62979
833.5203, 24.05078
834.0024, 24.54315
834.4846, 24.79575
834.9667, 24.54311
835.4488, 24.48380
835.9309, 24.95567
836.4130, 25.30280
836.8951, 24.99559
837.3773, 24.38886
837.8594, 24.16330
838.3415, 24.50747
838.8236, 24.87094
839.3057, 24.97712
839.7878, 24.96721
840.2700, 24.93233
840.7521, 24.90075
841.2342, 24.93199
841.7163, 25.03192
842.1984, 25.11707
842.6805, 25.10497
843.1627, 25.02830
843.6448, 24.98055
844.1269, 24.96240
844.6090, 24.97011
845.0911, 25.02208
845.5732, 25.02097
846.0554, 24.84202
846.5375, 24.59817
847.0196, 24.63584
847.5017, 25.19095
847.9838, 25.48488
848.4659, 25.38677
848.9481, 25.19027
849.4302, 24.93555
849.9123, 24.68417
850.3944, 24.48535
850.8765, 24.35130
851.3586, 24.30399
851.8408, 24.43769
852.3229, 24.57976
852.8050, 24.56294
853.2871, 24.46199
853.7692, 24.35965
854.2513, 24.29727
854.7335, 24.40449
855.2156, 24.78564
855.6977, 25.21601
856.1798, 25.21148
856.6619, 24.79101
857.1440, 24.54870
857.6262, 24.52922
858.1083, 24.62567
858.5904, 24.86925
859.0725, 25.07756
859.5546, 24.94485
860.0367, 24.42064
860.5189, 24.15681
861.0010, 24.45963
861.4831, 24.59674
861.9652, 24.34701
862.4473, 23.98426
862.9294, 23.60098
863.4116, 23.28759
863.8937, 23.27774
864.3758, 23.75791
864.8579, 24.14861
865.3400, 23.96106
865.8221, 23.58651
866.3043, 23.48218
866.7864, 23.57645
867.2685, 23.57486
867.7506, 23.38783
868.2327, 23.21531
868.7148, 23.30406
869.1970, 23.54613
869.6791, 23.51329
870.1612, 23.20539
870.6433, 23.16479
871.1254, 23.56787
871.6075, 23.95029
872.0897, 23.93828
872.5718, 23.65338
873.0539, 23.47894
873.5360, 23.39127
874.0181, 23.46902
874.5002, 23.92771
874.9823, 24.30262
875.4644, 24.43562
875.9465, 24.41102
876.4286, 24.27217
876.9108, 24.04058
877.3929, 23.91504
877.8750, 23.99327
878.3571, 24.16006
878.8392, 24.47731
879.3214, 24.76777
879.8035, 24.67657
880.2856, 24.34220
880.7677, 24.31910
881.2498, 24.89978
881.7319, 25.71746
882.2141, 26.50070
882.6962, 27.12734
883.1783, 27.07294
883.6604, 26.39274
884.1425, 25.85959
884.6246, 25.75040
885.1068, 25.84349
885.5889, 25.87909
886.0710, 25.89915
886.5531, 26.29947
887.0352, 27.33682
887.5173, 27.99515
887.9995, 27.99901
888.4816, 27.80945
888.9637, 27.57900
889.4458, 27.39063
889.9279, 27.42599
890.4100, 27.73865
890.8922, 28.06629
891.3743, 28.33874
891.8564, 28.65858
892.3385, 29.16761
892.8206, 29.68757
893.3027, 29.97599
893.7849, 30.05445
894.2670, 30.16704
894.7491, 30.46801
895.2312, 30.77517
895.7133, 30.76686
896.1954, 30.73001
896.6776, 31.29939
897.1597, 32.33070
897.6418, 33.01124
898.1239, 32.99698
898.6060, 32.84189
899.0881, 33.31145
899.5703, 34.23137
900.0524, 34.61971
900.5345, 34.44204
901.0166, 34.39780
901.4987, 34.66843
901.9808, 35.04850
902.4630, 35.42757
902.9451, 35.74864
903.4272, 35.78691
903.9093, 35.30929
904.3914, 35.08957
904.8735, 35.17999
905.3557, 35.47056
905.8378, 36.04022
906.3199, 36.70823
906.8020, 37.41547
907.2841, 38.11283
907.7662, 38.29485
908.2484, 37.28135
908.7305, 36.44302
909.2126, 36.43153
909.6947, 36.76068
910.1768, 37.10111
910.6589, 37.36520
911.1411, 37.49144
911.6232, 37.45469
912.1053, 37.32645
912.5874, 37.09697
913.0695, 36.85857
913.5516, 36.84413
914.0338, 36.94160
914.5159, 36.77968
914.9980, 36.28520
915.4801, 35.66704
915.9622, 35.05802
916.4443, 34.52518
916.9265, 34.31310
917.4086, 34.41921
917.8907, 34.15441
918.3728, 33.40071
918.8549, 32.64956
919.3370, 32.08549
919.8192, 31.70782
920.3013, 31.58114
920.7834, 31.71961
921.2655, 31.44894
921.7476, 30.35908
922.2297, 29.57005
922.7119, 29.55744
923.1940, 29.56736
923.6761, 29.08843
924.1582, 28.34661
924.6403, 27.82290
925.1224, 27.60814
925.6046, 27.41562
926.0867, 27.18875
926.5688, 26.95286
927.0509, 26.64615
927.5330, 26.38658
928.0151, 26.40162
928.4973, 26.62308
928.9794, 26.66506
929.4615, 26.28102
929.9436, 25.82732
930.4257, 25.65891
930.9078, 25.58590
931.3900, 25.26961
931.8721, 24.78663
932.3542, 24.46963
932.8363, 24.42172
933.3184, 24.42301
933.8005, 24.22982
934.2827, 23.95546
934.7648, 23.97164
935.2469, 24.23219
935.7290, 24.22827
936.2111, 23.86332
936.6932, 23.61345
937.1754, 23.77698
937.6575, 24.15501
938.1396, 24.38725
938.6217, 24.46282
939.1038, 24.52920
939.5859, 24.58236
940.0681, 24.63593
940.5502, 24.68144
941.0323, 24.74769
941.5144, 24.89745
941.9965, 25.08968
942.4786, 25.12646
942.9608, 24.75315
943.4429, 24.75647
943.9250, 25.50233
944.4071, 26.23595
944.8892, 26.79264
945.3713, 27.08711
945.8535, 26.81296
946.3356, 26.09106
946.8177, 25.85839
947.2998, 26.85311
947.7819, 27.72601
948.2640, 27.58213
948.7462, 27.22747
949.2283, 27.46223
949.7104, 28.08232
950.1925, 28.56429
950.6746, 28.74234
951.1567, 28.70116
951.6389, 28.35463
952.1210, 27.96019
952.6031, 27.82046
953.0852, 27.89487
953.5673, 28.25620
954.0494, 28.79102
954.5316, 28.86563
955.0137, 28.11777
955.4958, 27.22859
955.9779, 27.42789
956.4600, 28.37306
956.9421, 28.16280
957.4242, 26.84582
957.9063, 25.93068
958.3884, 25.81498
958.8705, 26.04772
959.3527, 26.31071
959.8348, 26.56152
960.3169, 26.68097
960.7990, 26.67701
961.2811, 26.48414
961.7632, 26.05038
962.2454, 25.57030
962.7275, 25.10888
963.2096, 24.64052
963.6917, 24.09469
964.1738, 23.49644
964.6559, 23.12181
965.1381, 23.21627
965.6202, 23.13871
966.1023, 22.66233
966.5844, 22.25278
967.0665, 22.11093
967.5486, 22.15212
968.0308, 22.35141
968.5129, 22.69605
968.9950, 22.76573
969.4771, 22.31347
969.9592, 21.78465
970.4413, 21.17454
970.9235, 20.68537
971.4056, 20.60849
971.8877, 20.74243
972.3698, 20.64703
972.8519, 20.20436
973.3340, 19.78094
973.8162, 19.54770
974.2983, 19.45389
974.7804, 19.57192
975.2625, 19.73963
975.7446, 19.58665
976.2267, 19.24660
976.7089, 19.40326
977.1910, 20.41288
977.6731, 21.31003
978.1552, 20.82022
978.6373, 19.71531
979.1194, 19.38020
979.6016, 19.60385
980.0837, 19.62539
980.5658, 19.29921
981.0479, 18.94349
981.5300, 18.76801
982.0121, 18.72353
982.4943, 18.76276
982.9764, 18.86465
983.4585, 18.90250
983.9406, 18.87433
984.4227, 18.84186
984.9048, 18.81995
985.3870, 18.86800
985.8691, 19.06482
986.3512, 19.32763
986.8333, 19.37166
987.3154, 19.17039
987.7975, 18.95088
988.2797, 18.70462
988.7618, 18.50823
989.2439, 18.36903
989.7260, 18.35164
990.2081, 18.59286
990.6902, 19.03815
991.1724, 19.15670
991.6545, 18.77469
992.1366, 18.46436
992.6187, 18.22771
993.1008, 18.11658
993.5829, 18.19284
994.0651, 18.38108
994.5472, 18.61795
995.0293, 18.90598
995.5114, 19.06859
995.9935, 18.95391
996.4756, 18.93302
996.9578, 19.14645
997.4399, 19.36646
997.9220, 19.49091
998.4041, 19.52712
998.8862, 19.43823
999.3683, 19.21713
999.8505, 19.17645
1000.333, 19.60057
1000.815, 19.94538
1001.297, 20.08490
1001.779, 19.99729
1002.261, 19.48396
1002.743, 18.78788
1003.225, 18.35313
1003.707, 18.29020
1004.190, 18.44961
1004.672, 19.02425
1005.154, 19.49310
1005.636, 19.42373
1006.118, 19.11441
1006.600, 18.82765
1007.082, 18.64846
1007.564, 18.71398
1008.046, 19.07872
1008.529, 19.36761
1009.011, 19.12045
1009.493, 18.79514
1009.975, 19.07151
1010.457, 19.56000
1010.939, 19.41605
1011.421, 18.72257
1011.903, 18.32719
1012.385, 18.65094
1012.868, 19.15388
1013.350, 19.25765
1013.832, 19.13260
1014.314, 19.08205
1014.796, 19.08028
1015.278, 18.97080
1015.760, 18.77186
1016.242, 18.83819
1016.725, 19.40315
1017.207, 20.00543
1017.689, 19.87805
1018.171, 19.24343
1018.653, 18.86732
1019.135, 18.73998
1019.617, 18.76018
1020.099, 18.89779
1020.581, 19.03049
1021.064, 19.08146
1021.546, 19.03918
1022.028, 18.82572
1022.510, 18.46935
1022.992, 18.30398
1023.474, 18.33310
1023.956, 18.47830
1024.438, 18.73508
1024.921, 18.94393
1025.403, 18.97139
1025.885, 18.90979
1026.367, 19.00180
1026.849, 19.26637
1027.331, 19.37646
1027.813, 19.32817
1028.295, 19.11782
1028.777, 18.68786
1029.260, 18.27905
1029.742, 18.06130
1030.224, 18.04555
1030.706, 18.33858
1031.188, 19.09681
1031.670, 19.27408
1032.152, 18.63575
1032.634, 18.11175
1033.116, 18.01779
1033.599, 17.99606
1034.081, 17.69990
1034.563, 17.27651
1035.045, 17.21984
1035.527, 17.72019
1036.009, 17.91189
1036.491, 17.60995
1036.973, 17.35140
1037.456, 17.27721
1037.938, 17.30816
1038.420, 17.44021
1038.902, 17.61395
1039.384, 17.60227
1039.866, 17.23748
1040.348, 17.16467
1040.830, 17.67572
1041.313, 18.06077
1041.795, 18.08620
1042.277, 17.96551
1042.759, 17.83769
1043.241, 17.70334
1043.723, 17.55590
1044.205, 17.34887
1044.687, 17.25785
1045.169, 17.30832
1045.651, 17.45104
1046.134, 17.85906
1046.616, 18.19056
1047.098, 18.04256
1047.580, 17.60117
1048.062, 17.42778
1048.544, 17.62609
1049.026, 17.89227
1049.508, 18.33799
1049.991, 18.65102
1050.473, 18.67744
1050.955, 18.57519
1051.437, 18.38809
1051.919, 18.19621
1052.401, 18.22067
1052.883, 18.58370
1053.365, 18.74883
1053.848, 18.38667
1054.330, 18.08513
1054.812, 18.08113
1055.294, 18.22100
1055.776, 18.47228
1056.258, 18.73318
1056.740, 18.72728
1057.222, 18.32582
1057.704, 18.19882
1058.187, 18.91695
1058.669, 19.45880
1059.151, 19.18221
1059.633, 18.72620
1060.115, 18.68880
1060.597, 18.92078
1061.079, 18.97454
1061.561, 18.74323
1062.043, 18.54726
1062.526, 18.57254
1063.008, 18.55860
1063.490, 18.26096
1063.972, 17.98626
1064.454, 18.01393
1064.936, 18.27532
1065.418, 18.60705
1065.900, 18.97711
1066.383, 19.33749
1066.865, 19.83870
1067.347, 20.10871
1067.829, 19.72788
1068.311, 19.26639
1068.793, 19.22692
1069.275, 19.47813
1069.757, 19.75020
1070.240, 19.97862
1070.722, 20.06151
1071.204, 19.92929
1071.686, 19.67757
1072.168, 19.08657
1072.650, 18.64368
1073.132, 18.87406
1073.614, 19.48709
1074.096, 20.01076
1074.578, 20.34226
1075.061, 20.48993
1075.543, 20.38745
1076.025, 20.21064
1076.507, 19.96317
1076.989, 19.75443
1077.471, 19.69151
1077.953, 19.71435
1078.435, 19.72809
1078.918, 19.72036
1079.400, 19.73196
1079.882, 19.80300
1080.364, 19.84315
1080.846, 19.81450
1081.328, 19.73442
1081.810, 19.53919
1082.292, 19.34728
1082.774, 19.33751
1083.257, 19.49427
1083.739, 19.64929
1084.221, 19.77758
1084.703, 19.80300
1085.185, 19.56733
1085.667, 19.35389
1086.149, 19.38653
1086.631, 19.51972
1087.114, 19.55075
1087.596, 19.51230
1088.078, 19.64649
1088.560, 20.12036
1089.042, 20.28247
1089.524, 19.36167
1090.006, 18.65124
1090.488, 19.20677
1090.970, 20.08102
1091.453, 20.31339
1091.935, 20.02127
1092.417, 19.69172
1092.899, 19.41590
1093.381, 19.33436
1093.863, 19.64997
1094.345, 19.97656
1094.827, 20.22153
1095.309, 20.32343
1095.792, 20.12313
1096.274, 19.78539
1096.756, 19.62841
1097.238, 19.70685
1097.720, 19.78420
1098.202, 19.79077
1098.684, 19.77992
1099.166, 19.68231
1099.649, 19.66352
1100.131, 19.92764
1100.613, 20.29683
1101.095, 20.51551
1101.577, 20.55950
1102.059, 20.52855
1102.541, 20.35641
1103.023, 20.25801
1103.505, 20.17409
1103.988, 20.30158
1104.470, 20.93898
1104.952, 21.70975
1105.434, 22.24404
1105.916, 22.51395
1106.398, 22.52998
1106.880, 22.15361
1107.362, 21.85503
1107.844, 21.79445
1108.327, 21.71145
1108.809, 21.29873
1109.291, 21.00166
1109.773, 21.46792
1110.255, 22.34974
1110.737, 22.53568
1111.219, 21.68700
1111.701, 21.17712
1112.184, 21.35517
1112.666, 21.52898
1113.148, 21.44316
1113.630, 21.41453
1114.112, 21.81634
1114.594, 22.35098
1115.076, 22.42624
1115.558, 21.98474
1116.041, 21.65717
1116.523, 21.45667
1117.005, 21.34678
1117.487, 21.25714
1117.969, 21.36989
1118.451, 22.06322
1118.933, 22.72947
1119.415, 22.50503
1119.897, 21.48177
1120.380, 20.65088
1120.862, 20.00974
1121.344, 19.57721
1121.826, 19.38055
1122.308, 19.34110
1122.790, 19.47860
1123.272, 19.69310
1123.754, 19.94961
1124.236, 20.16652
1124.719, 20.03946
1125.201, 19.48744
1125.683, 18.99536
1126.165, 18.53390
1126.647, 18.27640
1127.129, 18.33313
1127.611, 18.35472
1128.093, 18.07143
1128.576, 17.67591
1129.058, 17.53067
1129.540, 17.62594
1130.022, 17.76429
1130.504, 17.95687
1130.986, 18.07256
1131.468, 18.10256
1131.950, 17.89935
1132.432, 17.35494
1132.915, 16.79963
1133.397, 16.66199
1133.879, 16.80132
1134.361, 16.66800
1134.843, 16.30066
1135.325, 16.22356
1135.807, 16.45351
1136.289, 16.60397
1136.771, 16.54832
1137.254, 16.28372
1137.736, 15.77394
1138.218, 15.21354
1138.700, 14.97007
1139.182, 14.96786
1139.664, 14.99629
1140.146, 15.03123
1140.628, 14.98042
1141.111, 14.84636
1141.593, 14.81175
1142.075, 14.97771
1142.557, 15.01247
1143.039, 14.34362
1143.521, 13.46015
1144.003, 13.26959
1144.485, 13.45557
1144.968, 13.30875
1145.450, 12.90991
1145.932, 12.81395
1146.414, 13.16941
1146.896, 13.57500
1147.378, 13.75791
1147.860, 13.85809
1148.342, 14.09868
1148.824, 14.25714
1149.307, 13.93764
1149.789, 13.40276
1150.271, 13.18404
1150.753, 13.27972
1151.235, 13.21074
1151.717, 12.69855
1152.199, 12.40905
1152.681, 12.96765
1153.163, 13.58657
1153.646, 13.80181
1154.128, 13.76262
1154.610, 13.55202
1155.092, 13.26267
1155.574, 13.03878
1156.056, 12.90716
1156.538, 12.83711
1157.020, 12.92325
1157.503, 12.92071
1157.985, 12.65141
1158.467, 12.39204
1158.949, 12.28078
1159.431, 12.29257
1159.913, 12.40463
1160.395, 12.60734
1160.877, 12.85189
1161.359, 13.35569
1161.842, 13.45011
1162.324, 12.82970
1162.806, 12.25031
1163.288, 11.78693
1163.770, 11.60581
1164.252, 11.97304
1164.734, 12.60535
1165.216, 12.85984
1165.698, 12.70227
1166.181, 12.59839
1166.663, 12.51654
1167.145, 12.65172
1167.627, 13.13625
1168.109, 13.42716
1168.591, 13.21356
1169.073, 12.88637
1169.555, 12.91923
1170.037, 13.18175
1170.520, 13.16094
1171.002, 12.86589
1171.484, 12.64724
1171.966, 12.52195
1172.448, 12.49209
1172.930, 12.55746
1173.412, 12.69203
1173.894, 12.88994
1174.377, 13.03993
1174.859, 12.92213
1175.341, 12.65030
1175.823, 12.52568
1176.305, 12.51892
1176.787, 12.52633
1177.269, 12.55740
1177.751, 12.74791
1178.234, 13.12679
1178.716, 13.48297
1179.198, 13.72000
1179.680, 13.71475
1180.162, 13.09834
1180.644, 12.35135
1181.126, 12.08031
1181.608, 12.13780
1182.090, 12.21986
1182.573, 12.28995
1183.055, 12.50771
1183.537, 12.98166
1184.019, 13.23877
1184.501, 12.82195
1184.983, 12.38209
1185.465, 12.05413
1185.947, 12.07410
1186.429, 13.12339
1186.912, 14.43965
1187.394, 14.50879
1187.876, 13.24483
1188.358, 12.37451
1188.840, 12.38586
1189.322, 12.46145
1189.804, 12.59933
1190.286, 12.68805
1190.769, 12.67462
1191.251, 12.61068
1191.733, 12.48852
1192.215, 12.37475
1192.697, 12.46476
1193.179, 12.79517
1193.661, 13.01831
1194.143, 13.13788
1194.625, 13.13626
1195.108, 13.01517
1195.590, 12.70783
1196.072, 12.11290
1196.554, 11.62435
1197.036, 11.72861
1197.518, 12.23180
1198.000, 12.56599
1198.482, 12.73952
1198.964, 12.82058
1199.447, 12.82320
1199.929, 12.84976
1200.411, 12.91384
1200.893, 12.89336
1201.375, 12.71542
1201.857, 12.49676
1202.339, 12.39835
1202.821, 12.31948
1203.304, 11.91246
1203.786, 11.50905
1204.268, 11.88500
1204.750, 12.75014
1205.232, 13.26515
1205.714, 13.24003
1206.196, 12.95319
1206.678, 12.39654
1207.161, 12.08575
1207.643, 12.72619
1208.125, 13.28498
1208.607, 12.79737
1209.089, 12.06070
1209.571, 12.01378
1210.053, 12.41052
1210.535, 12.44786
1211.017, 11.98196
1211.500, 11.79414
1211.982, 12.34273
1212.464, 12.64180
1212.946, 12.36619
1213.428, 12.06945
1213.910, 11.82714
1214.392, 11.82179
1214.874, 12.40379
1215.356, 13.24971
1215.839, 13.29789
1216.321, 12.41757
1216.803, 12.01576
1217.285, 12.15137
1217.767, 12.40763
1218.249, 12.73350
1218.731, 12.97096
1219.213, 13.03149
1219.696, 13.13582
1220.178, 13.59790
1220.660, 14.10231
1221.142, 13.77938
1221.624, 12.90721
1222.106, 12.41777
1222.588, 12.24770
1223.070, 11.93353
1223.552, 11.46464
1224.035, 11.31812
1224.517, 11.71806
1224.999, 12.19894
1225.481, 12.38694
1225.963, 12.45875
1226.445, 12.58296
1226.927, 12.66419
1227.409, 12.44404
1227.891, 12.19134
1228.374, 12.50513
1228.856, 13.28132
1229.338, 13.58615
1229.820, 12.98705
1230.302, 12.56469
1230.784, 12.71185
1231.266, 12.86859
1231.748, 12.87541
1232.231, 12.82025
1232.713, 12.67427
1233.195, 12.57729
1233.677, 12.79507
1234.159, 13.26356
1234.641, 13.37509
1235.123, 13.01737
1235.605, 12.84990
1236.088, 12.92612
1236.570, 12.99340
1237.052, 12.98881
1237.534, 12.92144
1238.016, 12.77981
1238.498, 12.72534
1238.980, 13.09645
1239.462, 13.61182
1239.944, 13.37515
1240.427, 12.68254
1240.909, 12.36522
1241.391, 12.43414
1241.873, 12.71713
1242.355, 13.11677
1242.837, 13.42963
1243.319, 13.54528
1243.801, 13.58133
1244.283, 13.69710
1244.766, 13.68690
1245.248, 13.14708
1245.730, 12.62840
1246.212, 12.86413
1246.694, 13.42832
1247.176, 13.50758
1247.658, 13.05714
1248.140, 12.65342
1248.622, 12.30195
1249.105, 12.16969
1249.587, 12.46020
1250.069, 12.63839
1250.551, 12.45740
1251.033, 12.37339
1251.515, 12.74809
1251.997, 13.24602
1252.479, 13.36383
1252.962, 13.15682
1253.444, 12.84986
1253.926, 12.45164
1254.408, 12.61375
1254.890, 13.31046
1255.372, 13.55384
1255.854, 13.14699
1256.336, 12.80457
1256.818, 12.93994
1257.301, 13.19268
1257.783, 13.20548
1258.265, 13.06647
1258.747, 12.79255
1259.229, 12.52050
1259.711, 12.42918
1260.193, 12.49381
1260.675, 12.70964
1261.157, 13.00803
1261.640, 13.15736
1262.122, 13.07585
1262.604, 12.89984
1263.086, 12.40687
1263.568, 12.20120
1264.050, 12.83393
1264.532, 13.39590
1265.014, 13.21171
1265.497, 12.81546
1265.979, 12.86085
1266.461, 13.20239
1266.943, 13.19626
1267.425, 12.76806
1267.907, 12.57102
1268.389, 12.62913
1268.871, 12.61539
1269.354, 12.46792
1269.836, 12.57071
1270.318, 13.10507
1270.800, 13.58425
1271.282, 13.50478
1271.764, 13.18787
1272.246, 13.11833
1272.728, 13.19254
1273.210, 13.22023
1273.693, 13.25428
1274.175, 13.44368
1274.657, 13.74633
1275.139, 14.04156
1275.621, 14.28354
1276.103, 14.26141
1276.585, 13.64815
1277.067, 13.15534
1277.549, 13.11774
1278.032, 13.12419
1278.514, 12.81328
1278.996, 12.63129
1279.478, 13.16534
1279.960, 13.94842
1280.442, 14.02156
1280.924, 13.41381
1281.406, 13.06856
1281.889, 13.01919
1282.371, 12.96396
1282.853, 12.87367
1283.335, 13.00753
1283.817, 13.43605
1284.299, 13.75323
1284.781, 13.69222
1285.263, 13.50125
1285.745, 13.43234
1286.228, 13.48564
##END=



