##NAMES=Muscovite
##RRUFFID=R050188
##IDEAL CHEMISTRY=KAl_2_(Si_3_Al)O_10_(OH)_2_
##LOCALITY=Sapinero, near Blue Mesa Reservoir, Gunnison County, Colorado, USA
##OWNER=RRUFF
##SOURCE=Dave Bunk Minerals
##DESCRIPTION=Black pseudohexagonal crystal, polytype 2M1, associated with quartz
##STATUS=The identification of this mineral has been confirmed by X-ray diffraction and chemical analysis
##URL=rruff.info/R050188
##MEASURED CHEMISTRY=(K_0.91_Na_0.09_)(Al_0.86_Fe^3+^_0.06_Fe^2+^_0.04_Mg_0.03_Ti_0.01_)_2_(Si_0.78_Al_0.22_)_4_O_10_(OH)_2_
92.96582, 135.3923
93.44794, 135.7365
93.93005, 136.1444
94.41217, 135.1973
94.89429, 133.6184
95.37640, 131.8701
95.85852, 130.1080
96.34064, 128.3360
96.82275, 126.5633
97.30487, 124.8230
97.78699, 123.3638
98.26910, 122.4250
98.75122, 121.5465
99.23334, 120.6240
99.71545, 119.6008
100.1976, 117.9394
100.6797, 115.3685
101.1618, 112.3512
101.6439, 109.5147
102.1260, 106.9025
102.6081, 104.5302
103.0903, 102.4826
103.5724, 100.7267
104.0545, 99.31699
104.5366, 98.37851
105.0187, 97.71300
105.5008, 96.93798
105.9830, 95.72264
106.4651, 94.02583
106.9472, 92.47146
107.4293, 91.13513
107.9114, 89.84000
108.3935, 88.47669
108.8757, 87.06602
109.3578, 85.74635
109.8399, 84.69090
110.3220, 83.98150
110.8041, 83.39371
111.2862, 83.17371
111.7684, 82.65690
112.2505, 82.49646
112.7326, 82.18919
113.2147, 81.74294
113.6968, 80.74155
114.1789, 80.45702
114.6611, 79.88510
115.1432, 79.30151
115.6253, 79.11789
116.1074, 78.19724
116.5895, 78.00727
117.0716, 77.93369
117.5538, 77.87739
118.0359, 77.80106
118.5180, 77.68190
119.0001, 77.42941
119.4822, 77.03520
119.9643, 76.78996
120.4465, 76.98212
120.9286, 77.36801
121.4107, 77.71880
121.8928, 78.01582
122.3749, 78.20090
122.8570, 78.13332
123.3392, 77.68201
123.8213, 77.20605
124.3034, 76.75559
124.7855, 76.37840
125.2676, 76.14172
125.7497, 76.10802
126.2319, 76.26308
126.7140, 76.40247
127.1961, 76.51357
127.6782, 76.61947
128.1603, 76.70691
128.6424, 76.79092
129.1246, 76.91085
129.6067, 77.12084
130.0888, 77.47185
130.5709, 77.62310
131.0530, 77.33735
131.5351, 77.08103
132.0173, 77.20316
132.4994, 77.71786
132.9815, 78.29192
133.4636, 78.47569
133.9457, 78.07402
134.4278, 77.93737
134.9100, 78.29328
135.3921, 78.86906
135.8742, 79.32700
136.3563, 79.55799
136.8384, 79.72596
137.3205, 80.10561
137.8027, 80.70474
138.2848, 81.27491
138.7669, 81.69929
139.2490, 82.00612
139.7311, 82.30871
140.2132, 82.64981
140.6954, 82.98586
141.1775, 83.26917
141.6596, 83.49499
142.1417, 83.70271
142.6238, 83.90831
143.1059, 84.10297
143.5881, 84.36453
144.0702, 84.79160
144.5523, 85.25166
145.0344, 85.64165
145.5165, 85.92719
145.9986, 86.19252
146.4807, 86.61134
146.9629, 87.33127
147.4450, 87.93286
147.9271, 88.32632
148.4092, 88.60656
148.8913, 88.85960
149.3734, 89.12771
149.8556, 89.40114
150.3377, 89.64101
150.8198, 89.69694
151.3019, 89.88406
151.7840, 90.34704
152.2661, 90.95528
152.7483, 91.49236
153.2304, 91.81579
153.7125, 91.94902
154.1946, 92.20780
154.6767, 92.77251
155.1588, 93.25497
155.6410, 93.41245
156.1231, 93.32304
156.6052, 93.29780
157.0873, 93.59840
157.5694, 94.20396
158.0515, 94.63542
158.5337, 94.67101
159.0158, 94.68694
159.4979, 95.04544
159.9800, 95.77956
160.4621, 96.50385
160.9442, 96.87363
161.4264, 96.97746
161.9085, 97.05198
162.3906, 97.19064
162.8727, 97.32105
163.3548, 97.31412
163.8369, 97.13364
164.3191, 96.88358
164.8012, 96.59615
165.2833, 96.29614
165.7654, 96.04604
166.2475, 95.93491
166.7296, 95.92469
167.2118, 95.78709
167.6939, 95.44517
168.1760, 95.05449
168.6581, 94.66605
169.1402, 94.29203
169.6223, 93.94730
170.1045, 93.66557
170.5866, 93.45732
171.0687, 93.19312
171.5508, 92.79140
172.0329, 92.40054
172.5150, 92.07841
172.9972, 91.82120
173.4793, 91.58681
173.9614, 91.33317
174.4435, 91.05962
174.9256, 90.76585
175.4077, 90.32571
175.8899, 89.96055
176.3720, 89.85535
176.8541, 90.00315
177.3362, 90.21620
177.8183, 90.24821
178.3004, 90.01347
178.7826, 89.77025
179.2647, 89.41456
179.7468, 89.10898
180.2289, 89.00083
180.7110, 89.12501
181.1931, 89.38874
181.6752, 89.67252
182.1574, 90.00552
182.6395, 90.26904
183.1216, 90.34279
183.6037, 90.37322
184.0858, 90.59653
184.5679, 91.11712
185.0501, 91.71443
185.5322, 91.96119
186.0143, 91.81931
186.4964, 91.79264
186.9785, 92.19756
187.4606, 92.85469
187.9428, 93.28802
188.4249, 93.27308
188.9070, 93.11913
189.3891, 93.22246
189.8712, 93.59117
190.3533, 94.01192
190.8355, 94.36771
191.3176, 94.66428
191.7997, 94.93972
192.2818, 95.21556
192.7639, 95.45972
193.2460, 95.68209
193.7282, 95.88403
194.2103, 95.97469
194.6924, 95.81265
195.1745, 95.36226
195.6566, 94.99363
196.1387, 94.82482
196.6209, 94.73868
197.1030, 94.73575
197.5851, 94.80186
198.0672, 94.81132
198.5493, 94.59029
199.0314, 94.07815
199.5136, 93.52328
199.9957, 92.85799
200.4778, 92.22456
200.9599, 91.69854
201.4420, 91.30264
201.9241, 91.03417
202.4063, 90.91137
202.8884, 91.07289
203.3705, 91.10566
203.8526, 90.93616
204.3347, 90.69146
204.8168, 90.45647
205.2990, 90.26023
205.7811, 90.08562
206.2632, 89.89348
206.7453, 89.54053
207.2274, 89.39609
207.7095, 89.65132
208.1917, 90.00430
208.6738, 90.15624
209.1559, 90.00809
209.6380, 89.70459
210.1201, 89.53472
210.6022, 89.56651
211.0844, 89.64509
211.5665, 89.81806
212.0486, 90.01662
212.5307, 90.16765
213.0128, 90.24711
213.4949, 90.26009
213.9771, 90.21360
214.4592, 90.13530
214.9413, 89.95366
215.4234, 89.66576
215.9055, 89.26551
216.3876, 88.69558
216.8698, 87.89711
217.3519, 87.03501
217.8340, 86.48730
218.3161, 86.36678
218.7982, 86.05297
219.2803, 85.21510
219.7625, 84.03801
220.2446, 82.93496
220.7267, 82.04232
221.2088, 81.25748
221.6909, 80.39906
222.1730, 79.44372
222.6552, 78.56975
223.1373, 77.86197
223.6194, 77.30632
224.1015, 76.86137
224.5836, 76.58151
225.0657, 76.32819
225.5479, 75.90932
226.0300, 75.31694
226.5121, 74.79454
226.9942, 74.47679
227.4763, 74.35709
227.9584, 74.39035
228.4406, 74.63937
228.9227, 74.98167
229.4048, 75.32108
229.8869, 75.65533
230.3690, 75.98818
230.8511, 76.29805
231.3333, 76.58711
231.8154, 76.95911
232.2975, 77.42515
232.7796, 77.99361
233.2617, 78.67118
233.7438, 79.45326
234.2260, 80.31663
234.7081, 81.18063
235.1902, 82.02462
235.6723, 83.17833
236.1544, 84.80583
236.6365, 86.67422
237.1187, 88.75552
237.6008, 91.00776
238.0829, 93.31139
238.5650, 95.50486
239.0471, 97.53658
239.5292, 99.83961
240.0114, 102.5706
240.4935, 105.4613
240.9756, 108.4847
241.4577, 111.6113
241.9398, 114.7707
242.4219, 117.9347
242.9041, 121.1011
243.3862, 124.1937
243.8683, 126.9798
244.3504, 129.8984
244.8325, 133.1841
245.3146, 136.7572
245.7968, 140.3813
246.2789, 143.8101
246.7610, 147.0268
247.2431, 150.3392
247.7252, 153.5738
248.2073, 157.0678
248.6895, 161.0391
249.1716, 165.4032
249.6537, 169.8444
250.1358, 174.0828
250.6179, 178.0924
251.1000, 182.4558
251.5822, 187.5036
252.0643, 192.5427
252.5464, 197.3109
253.0285, 201.8632
253.5106, 206.3326
253.9927, 210.8187
254.4748, 215.3039
254.9570, 220.1582
255.4391, 225.9352
255.9212, 231.4586
256.4033, 236.3760
256.8854, 240.6997
257.3676, 244.5649
257.8497, 248.0530
258.3318, 251.1580
258.8139, 253.8266
259.2960, 256.7232
259.7781, 258.6302
260.2603, 259.0687
260.7424, 258.2037
261.2245, 256.4619
261.7066, 254.1066
262.1887, 251.0670
262.6708, 246.8590
263.1530, 241.1752
263.6351, 234.9715
264.1172, 228.3751
264.5993, 221.4718
265.0814, 214.3366
265.5635, 206.9773
266.0457, 199.4512
266.5278, 191.9785
267.0099, 184.2910
267.4920, 176.9773
267.9741, 170.3418
268.4562, 164.1975
268.9384, 158.1512
269.4204, 152.0204
269.9026, 146.0182
270.3847, 140.6691
270.8668, 136.0570
271.3489, 131.6382
271.8310, 127.2346
272.3131, 122.9484
272.7953, 118.9527
273.2774, 115.3281
273.7595, 111.9564
274.2416, 108.5839
274.7237, 105.1385
275.2058, 102.0583
275.6880, 99.62207
276.1701, 97.59233
276.6522, 95.55676
277.1343, 93.37341
277.6164, 91.26743
278.0985, 89.58814
278.5807, 88.29241
279.0628, 86.98708
279.5449, 85.51698
280.0270, 83.98680
280.5091, 82.50745
280.9912, 81.07520
281.4734, 79.79851
281.9555, 78.88972
282.4376, 78.26010
282.9197, 77.59858
283.4018, 76.75903
283.8839, 75.87373
284.3661, 75.12138
284.8482, 74.52357
285.3303, 73.99672
285.8124, 73.48301
286.2945, 72.99583
286.7766, 72.57820
287.2588, 72.36320
287.7409, 72.15405
288.2230, 71.66891
288.7051, 70.88024
289.1872, 70.13673
289.6693, 69.68904
290.1515, 69.41703
290.6336, 69.11661
291.1157, 68.74137
291.5978, 68.34701
292.0799, 67.95507
292.5620, 67.56383
293.0442, 67.27183
293.5263, 67.13529
294.0084, 67.12947
294.4905, 67.24619
294.9726, 67.55190
295.4547, 67.79264
295.9369, 67.73696
296.4190, 67.40128
296.9011, 66.99155
297.3832, 66.49618
297.8653, 66.02837
298.3474, 65.68555
298.8296, 65.47092
299.3117, 65.38451
299.7938, 65.51945
300.2759, 65.81974
300.7580, 65.97449
301.2401, 65.87027
301.7223, 65.66276
302.2044, 65.47511
302.6865, 65.30953
303.1686, 65.20230
303.6507, 65.19851
304.1328, 65.27035
304.6150, 65.33900
305.0971, 65.41737
305.5792, 65.44868
306.0613, 65.37436
306.5434, 65.22169
307.0255, 65.05824
307.5077, 64.91572
307.9898, 64.78117
308.4719, 64.61356
308.9540, 64.38859
309.4361, 64.20528
309.9182, 64.16805
310.4004, 64.20604
310.8825, 64.21756
311.3646, 64.17340
311.8467, 64.08767
312.3288, 63.94527
312.8109, 63.72366
313.2931, 63.59589
313.7752, 63.76482
314.2573, 64.02052
314.7394, 64.10588
315.2215, 63.93011
315.7036, 63.70279
316.1858, 63.68007
316.6679, 63.85967
317.1500, 63.88507
317.6321, 63.47831
318.1142, 63.00280
318.5963, 62.85947
319.0785, 63.09223
319.5606, 63.35164
320.0427, 63.38512
320.5248, 63.22447
321.0069, 63.04821
321.4890, 62.85387
321.9712, 62.70335
322.4533, 62.71504
322.9354, 62.85107
323.4175, 62.85617
323.8996, 62.44014
324.3817, 61.79826
324.8639, 61.50515
325.3460, 61.73248
325.8281, 61.99479
326.3102, 61.89008
326.7923, 61.55121
327.2744, 61.25174
327.7566, 61.11869
328.2387, 61.06234
328.7208, 60.92202
329.2029, 60.66990
329.6850, 60.49887
330.1671, 60.59418
330.6493, 60.81652
331.1314, 60.97346
331.6135, 61.04279
332.0956, 61.01954
332.5777, 60.83918
333.0598, 60.51054
333.5420, 60.27343
334.0241, 60.27763
334.5062, 60.37608
334.9883, 60.33685
335.4704, 60.11576
335.9525, 59.96448
336.4347, 60.13530
336.9168, 60.53028
337.3989, 60.74630
337.8810, 60.62112
338.3631, 60.41799
338.8452, 60.43317
339.3274, 60.64445
339.8094, 60.85351
340.2916, 60.96341
340.7737, 61.02581
341.2558, 61.15389
341.7379, 61.38291
342.2200, 61.57009
342.7021, 61.50220
343.1843, 61.28377
343.6664, 61.24897
344.1485, 61.59042
344.6306, 62.05832
345.1127, 62.43672
345.5948, 62.72330
346.0770, 62.91866
346.5591, 62.98412
347.0412, 62.96823
347.5233, 63.00644
348.0054, 63.10387
348.4875, 63.24748
348.9697, 63.39452
349.4518, 63.57355
349.9339, 63.90939
350.4160, 64.50137
350.8981, 65.18171
351.3802, 65.65892
351.8624, 65.91336
352.3445, 66.14132
352.8266, 66.36822
353.3087, 66.61703
353.7908, 66.94852
354.2729, 67.38431
354.7551, 67.81120
355.2372, 68.06588
355.7193, 68.14397
356.2014, 68.38989
356.6835, 68.90936
357.1656, 69.55518
357.6478, 70.29372
358.1299, 71.09162
358.6120, 71.76284
359.0941, 72.15559
359.5762, 72.30264
360.0583, 72.48905
360.5405, 72.72319
361.0226, 72.98294
361.5047, 73.27702
361.9868, 73.58950
362.4689, 73.87196
362.9510, 74.08841
363.4332, 74.30522
363.9153, 74.69204
364.3974, 75.38148
364.8795, 75.97301
365.3616, 76.31504
365.8438, 76.58225
366.3259, 76.98459
366.8080, 77.56481
367.2901, 78.17274
367.7722, 78.62281
368.2543, 78.86065
368.7365, 79.16048
369.2186, 79.55241
369.7007, 79.97416
370.1828, 80.38632
370.6649, 80.79526
371.1470, 81.24131
371.6292, 81.76292
372.1113, 82.34864
372.5934, 82.85252
373.0755, 83.19670
373.5576, 83.55396
374.0397, 84.00682
374.5219, 84.48022
375.0040, 84.84055
375.4861, 85.03283
375.9682, 85.15157
376.4503, 85.40752
376.9324, 85.90540
377.4146, 86.38482
377.8967, 86.88367
378.3788, 87.33655
378.8609, 87.68206
379.3430, 87.92060
379.8251, 88.11185
380.3073, 88.31074
380.7894, 88.50990
381.2715, 88.76726
381.7536, 89.15369
382.2357, 89.52848
382.7178, 89.81805
383.2000, 90.06136
383.6821, 90.32986
384.1642, 90.65737
384.6463, 91.06035
385.1284, 91.62722
385.6105, 92.53916
386.0927, 93.31184
386.5748, 93.76196
387.0569, 94.10580
387.5390, 94.54951
388.0211, 95.15477
388.5032, 95.81731
388.9854, 96.37818
389.4675, 96.80111
389.9496, 97.31503
390.4317, 97.99000
390.9138, 98.72703
391.3959, 99.47289
391.8781, 100.2335
392.3602, 101.0568
392.8423, 102.0407
393.3244, 103.1248
393.8065, 103.9912
394.2886, 104.5310
394.7708, 105.0560
395.2529, 105.7375
395.7350, 106.4928
396.2171, 107.1982
396.6992, 107.7942
397.1813, 108.3773
397.6635, 109.0541
398.1456, 109.8240
398.6277, 110.7177
399.1098, 111.8644
399.5919, 113.0333
400.0740, 113.9815
400.5562, 114.7015
401.0383, 115.3029
401.5204, 115.8108
402.0025, 116.2505
402.4846, 116.6761
402.9667, 117.0813
403.4489, 117.5184
403.9310, 118.1316
404.4131, 118.8358
404.8952, 119.2945
405.3773, 119.3069
405.8594, 119.1554
406.3416, 119.0864
406.8237, 119.0843
407.3058, 119.0183
407.7879, 118.8284
408.2700, 118.5277
408.7521, 118.1507
409.2343, 117.7159
409.7164, 117.1929
410.1985, 116.4906
410.6806, 115.7226
411.1627, 115.1104
411.6448, 114.7066
412.1269, 114.2691
412.6090, 113.4870
413.0912, 112.2610
413.5733, 111.1953
414.0554, 110.4434
414.5375, 109.7030
415.0196, 108.7940
415.5017, 107.7375
415.9839, 106.6345
416.4660, 105.5450
416.9481, 104.4638
417.4302, 103.3668
417.9123, 102.3197
418.3944, 101.1705
418.8766, 99.78527
419.3587, 98.35265
419.8408, 97.06853
420.3229, 95.98644
420.8050, 95.00512
421.2871, 93.99499
421.7693, 92.94046
422.2514, 91.91209
422.7335, 90.96642
423.2156, 89.98731
423.6977, 88.88480
424.1798, 87.70396
424.6620, 86.56152
425.1441, 85.53789
425.6262, 84.59993
426.1083, 83.59869
426.5904, 82.39094
427.0725, 81.40006
427.5547, 80.90128
428.0368, 80.53113
428.5189, 79.96049
429.0010, 79.11644
429.4831, 78.18447
429.9652, 77.37280
430.4474, 76.68001
430.9295, 75.94596
431.4116, 75.12546
431.8937, 74.29453
432.3758, 73.47541
432.8579, 72.68035
433.3401, 71.95293
433.8222, 71.34301
434.3043, 70.78711
434.7864, 70.19090
435.2685, 69.54846
435.7506, 68.86909
436.2328, 68.10789
436.7149, 67.34205
437.1970, 66.70630
437.6791, 66.23436
438.1612, 65.77528
438.6433, 65.23920
439.1255, 64.66043
439.6076, 64.11410
440.0897, 63.61944
440.5718, 63.13706
441.0539, 62.62374
441.5360, 62.08194
442.0182, 61.57476
442.5003, 61.12423
442.9824, 60.69186
443.4645, 60.25508
443.9466, 59.81768
444.4287, 59.40874
444.9109, 59.04716
445.3930, 58.70515
445.8751, 58.29528
446.3572, 57.70600
446.8393, 57.22347
447.3214, 56.86144
447.8036, 56.60987
448.2857, 56.52822
448.7678, 56.58360
449.2499, 56.59080
449.7320, 56.34691
450.2141, 55.83344
450.6963, 55.45010
451.1784, 55.34000
451.6605, 55.20417
452.1426, 54.92071
452.6247, 54.58545
453.1068, 54.34560
453.5890, 54.26441
454.0711, 54.25907
454.5532, 54.18772
455.0353, 54.04392
455.5174, 53.85601
455.9995, 53.52458
456.4817, 53.23309
456.9638, 53.12096
457.4459, 53.15153
457.9280, 53.15871
458.4101, 52.99105
458.8922, 52.72355
459.3744, 52.61094
459.8565, 52.70181
460.3386, 52.78999
460.8207, 52.76280
461.3028, 52.68501
461.7849, 52.62670
462.2671, 52.59813
462.7492, 52.58921
463.2313, 52.65751
463.7134, 52.74509
464.1955, 52.62199
464.6776, 52.17806
465.1598, 51.73024
465.6419, 51.65119
466.1240, 51.90165
466.6061, 52.05622
467.0882, 52.05819
467.5703, 51.95631
468.0525, 51.71026
468.5346, 51.37746
469.0167, 51.14429
469.4988, 51.11301
469.9809, 51.19522
470.4630, 51.18098
470.9452, 50.97637
471.4273, 50.84184
471.9094, 50.87130
472.3915, 50.91463
472.8736, 50.83200
473.3557, 50.62989
473.8379, 50.42691
474.3200, 50.33004
474.8021, 50.32788
475.2842, 50.24621
475.7663, 49.98209
476.2484, 49.76442
476.7306, 49.62884
477.2127, 49.55691
477.6948, 49.55930
478.1769, 49.63048
478.6590, 49.68312
479.1411, 49.58540
479.6233, 49.32017
480.1054, 49.09729
480.5875, 48.95173
481.0696, 48.82175
481.5517, 48.67885
482.0338, 48.52681
482.5159, 48.37313
482.9980, 48.22169
483.4802, 48.07036
483.9623, 47.91440
484.4444, 47.75386
484.9265, 47.60014
485.4086, 47.44396
485.8907, 47.31133
486.3729, 47.22334
486.8550, 47.17715
487.3371, 47.19470
487.8192, 47.40723
488.3013, 47.61944
488.7834, 47.54268
489.2656, 47.17975
489.7477, 46.83192
490.2298, 46.69691
490.7119, 46.72878
491.1940, 46.70753
491.6761, 46.61153
492.1583, 46.50185
492.6404, 46.37579
493.1225, 46.24798
493.6046, 46.14345
494.0867, 46.06311
494.5688, 45.97158
495.0510, 45.82022
495.5331, 45.59747
496.0152, 45.47439
496.4973, 45.63024
496.9794, 45.68892
497.4615, 45.45284
497.9437, 45.10464
498.4258, 44.89629
498.9079, 44.92292
499.3900, 45.06413
499.8721, 45.15223
500.3542, 45.18173
500.8364, 45.19574
501.3185, 45.17488
501.8006, 45.16513
502.2827, 45.22665
502.7648, 45.32036
503.2469, 45.33835
503.7291, 45.17453
504.2112, 44.97221
504.6933, 44.98664
505.1754, 45.20715
505.6575, 45.28053
506.1396, 45.01540
506.6218, 44.62207
507.1039, 44.41585
507.5860, 44.40580
508.0681, 44.39579
508.5502, 44.32528
509.0323, 44.23705
509.5145, 44.14944
509.9966, 44.07597
510.4787, 44.08371
510.9608, 44.23330
511.4429, 44.47342
511.9250, 44.59301
512.4072, 44.46788
512.8893, 44.38614
513.3714, 44.38935
513.8535, 44.42657
514.3356, 44.47748
514.8177, 44.52413
515.2999, 44.51579
515.7820, 44.37864
516.2641, 44.13452
516.7462, 44.10029
517.2283, 44.51641
517.7104, 44.77910
518.1926, 44.57832
518.6747, 44.26117
519.1568, 44.20461
519.6389, 44.49453
520.1210, 44.85604
520.6031, 44.99965
521.0853, 44.96719
521.5674, 45.05550
522.0495, 45.35344
522.5316, 45.61552
523.0137, 45.59942
523.4958, 45.43811
523.9780, 45.39306
524.4601, 45.56923
524.9422, 45.76397
525.4243, 45.78651
525.9064, 45.73253
526.3885, 45.86187
526.8707, 46.25544
527.3528, 46.69302
527.8349, 46.92782
528.3170, 46.93541
528.7991, 46.92027
529.2813, 46.82568
529.7634, 46.77043
530.2455, 46.81554
530.7276, 46.93071
531.2097, 47.06447
531.6918, 47.19638
532.1740, 47.33718
532.6561, 47.51306
533.1382, 47.74496
533.6203, 47.93591
534.1024, 48.09841
534.5845, 48.20411
535.0667, 48.20078
535.5488, 48.13752
536.0309, 48.11076
536.5130, 48.17284
536.9951, 48.26464
537.4772, 48.27685
537.9594, 48.20623
538.4415, 48.21534
538.9236, 48.38508
539.4057, 48.58387
539.8878, 48.68675
540.3699, 48.70848
540.8521, 48.72778
541.3342, 48.73760
541.8163, 48.77721
542.2984, 48.94649
542.7805, 49.19012
543.2626, 49.25782
543.7448, 49.01199
544.2269, 48.68713
544.7090, 48.70379
545.1911, 49.26558
545.6732, 49.64161
546.1553, 49.76687
546.6375, 49.77127
547.1196, 49.62912
547.6017, 49.43211
548.0838, 49.38545
548.5659, 49.60948
549.0480, 49.95576
549.5302, 50.06485
550.0123, 49.82544
550.4944, 49.67898
550.9765, 49.69247
551.4586, 49.79641
551.9407, 50.02052
552.4229, 50.31504
552.9050, 50.54943
553.3871, 50.65632
553.8692, 50.66620
554.3513, 50.59490
554.8334, 50.44470
555.3156, 50.33834
555.7977, 50.34193
556.2798, 50.36797
556.7619, 50.25436
557.2440, 49.99916
557.7261, 49.88180
558.2083, 50.10237
558.6904, 50.35679
559.1725, 50.39305
559.6546, 50.25970
560.1367, 50.12542
560.6188, 50.06680
561.1010, 50.07869
561.5831, 50.15748
562.0652, 50.34985
562.5473, 50.50563
563.0294, 50.65797
563.5115, 50.74815
563.9937, 50.71941
564.4758, 50.60735
564.9579, 50.47883
565.4400, 50.36120
565.9221, 50.27651
566.4042, 50.28087
566.8864, 50.38752
567.3685, 50.47875
567.8506, 50.56993
568.3327, 50.59306
568.8148, 50.44007
569.2969, 50.16925
569.7791, 50.00159
570.2612, 50.10772
570.7433, 50.25826
571.2254, 50.22390
571.7075, 50.05490
572.1896, 49.93422
572.6718, 49.92589
573.1539, 49.96499
573.6360, 49.96266
574.1181, 49.90171
574.6002, 49.88872
575.0823, 49.96250
575.5645, 50.04014
576.0466, 50.12201
576.5287, 50.17391
577.0108, 50.12164
577.4929, 49.94124
577.9750, 49.73302
578.4572, 49.66738
578.9393, 49.77822
579.4214, 49.80020
579.9035, 49.66189
580.3856, 49.51942
580.8677, 49.40044
581.3499, 49.33411
581.8320, 49.38196
582.3141, 49.58503
582.7962, 49.82406
583.2783, 50.02026
583.7604, 50.16771
584.2426, 50.23363
584.7247, 50.20422
585.2068, 50.13967
585.6889, 50.05597
586.1710, 49.97359
586.6531, 50.04392
587.1352, 50.44159
587.6173, 50.76716
588.0994, 50.85785
588.5815, 50.84299
589.0637, 50.88118
589.5458, 50.99452
590.0279, 51.08360
590.5100, 51.03983
590.9921, 50.88131
591.4742, 50.82508
591.9564, 50.91758
592.4385, 51.03729
592.9206, 51.20259
593.4027, 51.35036
593.8848, 51.40020
594.3669, 51.35357
594.8491, 51.32688
595.3312, 51.43525
595.8133, 51.60876
596.2954, 51.68084
596.7775, 51.64496
597.2596, 51.65482
597.7418, 51.79635
598.2239, 52.01103
598.7060, 52.18166
599.1881, 52.29742
599.6702, 52.42278
600.1523, 52.59146
600.6345, 52.75183
601.1166, 52.86086
601.5987, 52.92791
602.0808, 52.98226
602.5629, 53.03854
603.0450, 53.10168
603.5272, 53.17751
604.0093, 53.25063
604.4914, 53.38261
604.9735, 53.66687
605.4556, 53.92410
605.9377, 54.04812
606.4199, 54.09054
606.9020, 54.15633
607.3841, 54.27855
607.8662, 54.45492
608.3483, 54.74892
608.8304, 55.11164
609.3126, 55.29829
609.7947, 55.23514
610.2768, 55.11546
610.7589, 55.08953
611.2410, 55.15765
611.7231, 55.27429
612.2053, 55.49165
612.6874, 55.69117
613.1695, 55.83636
613.6516, 55.94623
614.1337, 56.03801
614.6158, 56.11724
615.0980, 56.17852
615.5801, 56.19629
616.0622, 56.19777
616.5443, 56.41247
617.0264, 57.00744
617.5085, 57.46354
617.9907, 57.49672
618.4728, 57.45813
618.9549, 57.67214
619.4370, 58.12223
619.9191, 58.45087
620.4012, 58.32090
620.8834, 58.04839
621.3655, 58.10268
621.8476, 58.44514
622.3297, 58.75494
622.8118, 58.90154
623.2939, 58.98899
623.7761, 59.18953
624.2582, 59.56097
624.7403, 59.78394
625.2224, 59.75883
625.7045, 59.69860
626.1866, 59.65850
626.6688, 59.66023
627.1509, 59.75289
627.6330, 59.94539
628.1151, 60.13447
628.5972, 60.18354
629.0793, 60.09248
629.5615, 59.95385
630.0436, 59.70077
630.5257, 59.53637
631.0078, 59.66795
631.4899, 59.89998
631.9720, 59.98276
632.4542, 59.86030
632.9363, 59.75181
633.4184, 59.84309
633.9005, 59.96432
634.3826, 59.85052
634.8647, 59.52312
635.3469, 59.23994
635.8290, 59.15064
636.3111, 59.18092
636.7932, 59.14494
637.2753, 59.00458
637.7574, 58.87438
638.2396, 58.81974
638.7217, 58.70969
639.2038, 58.42957
639.6859, 58.05494
640.1680, 57.74768
640.6501, 57.58355
641.1323, 57.44646
641.6144, 57.18110
642.0965, 56.80379
642.5786, 56.42535
643.0607, 56.05043
643.5428, 55.70927
644.0250, 55.42155
644.5071, 55.18930
644.9892, 55.00554
645.4713, 54.89384
645.9534, 54.78846
646.4355, 54.66950
646.9177, 54.54964
647.3998, 54.45775
647.8819, 54.38157
648.3640, 54.26307
648.8461, 54.05902
649.3282, 53.80311
649.8104, 53.58995
650.2925, 53.41899
650.7746, 53.29494
651.2567, 53.33191
651.7388, 53.29873
652.2209, 52.95671
652.7031, 52.44878
653.1852, 52.16253
653.6673, 52.34347
654.1494, 52.54692
654.6315, 52.32726
655.1136, 51.85685
655.5958, 51.54307
656.0779, 51.46215
656.5600, 51.47753
657.0421, 51.49014
657.5242, 51.49755
658.0063, 51.48434
658.4885, 51.40885
658.9706, 51.36809
659.4527, 51.36015
659.9348, 51.39418
660.4169, 51.52561
660.8990, 51.71066
661.3812, 51.80780
661.8633, 51.70455
662.3454, 51.52962
662.8275, 51.50452
663.3096, 51.62504
663.7917, 51.79962
664.2739, 52.05029
664.7560, 52.25072
665.2381, 52.25396
665.7202, 52.09157
666.2023, 52.00876
666.6844, 52.01265
667.1666, 52.09600
667.6487, 52.29644
668.1308, 52.55170
668.6129, 52.78584
669.0950, 52.99768
669.5771, 53.25119
670.0593, 53.60652
670.5414, 54.01676
671.0235, 54.31034
671.5056, 54.43228
671.9877, 54.64332
672.4698, 54.96951
672.9520, 55.42667
673.4341, 56.12675
673.9162, 56.97042
674.3983, 57.60881
674.8804, 57.75331
675.3625, 57.94872
675.8447, 58.61590
676.3268, 59.56883
676.8089, 60.48672
677.2910, 61.31108
677.7731, 62.11413
678.2552, 62.95333
678.7374, 63.82644
679.2195, 64.71535
679.7016, 65.56654
680.1837, 66.53444
680.6658, 67.59029
681.1479, 68.79508
681.6301, 70.21228
682.1122, 71.81283
682.5943, 73.53040
683.0764, 75.38643
683.5585, 77.23138
684.0406, 78.85128
684.5228, 80.32064
685.0049, 81.79520
685.4870, 83.29160
685.9691, 84.98605
686.4512, 87.04825
686.9333, 89.41919
687.4155, 91.69575
687.8976, 93.74695
688.3797, 95.88828
688.8618, 98.28876
689.3439, 100.6540
689.8260, 102.6552
690.3082, 104.4322
690.7903, 106.4077
691.2724, 108.8224
691.7545, 111.4408
692.2366, 113.9895
692.7188, 116.4583
693.2009, 118.7404
693.6830, 120.7769
694.1651, 122.7635
694.6472, 124.8425
695.1293, 126.9828
695.6115, 129.0431
696.0936, 131.0843
696.5757, 132.9618
697.0578, 134.7775
697.5399, 136.3304
698.0220, 137.4812
698.5042, 138.2260
698.9863, 138.5812
699.4684, 138.5479
699.9505, 138.2181
700.4326, 137.7730
700.9147, 137.2110
701.3969, 136.2773
701.8790, 134.9618
702.3611, 133.2233
702.8432, 130.9349
703.3253, 128.2286
703.8074, 125.4436
704.2896, 122.5779
704.7717, 119.6481
705.2538, 116.5965
705.7359, 113.5291
706.2180, 110.5881
706.7001, 107.6878
707.1823, 104.6500
707.6644, 101.3775
708.1465, 98.03115
708.6286, 94.79147
709.1107, 91.65303
709.5928, 88.85989
710.0750, 86.56644
710.5571, 84.28427
711.0392, 81.69235
711.5213, 79.04681
712.0034, 76.63131
712.4855, 74.47292
712.9677, 72.56502
713.4498, 71.03563
713.9319, 69.64404
714.4140, 68.20335
714.8961, 66.74385
715.3782, 65.34311
715.8604, 64.03725
716.3425, 62.83390
716.8246, 61.75806
717.3067, 60.80152
717.7888, 59.92764
718.2709, 59.14204
718.7531, 58.41978
719.2352, 57.76276
719.7173, 57.16195
720.1994, 56.61684
720.6815, 56.12637
721.1636, 55.66726
721.6458, 55.28574
722.1279, 54.87959
722.6100, 54.26889
723.0921, 53.60994
723.5742, 53.24105
724.0563, 53.21908
724.5385, 53.26704
725.0206, 53.12740
725.5027, 52.83654
725.9848, 52.62490
726.4669, 52.53418
726.9490, 52.40694
727.4312, 52.06089
727.9132, 51.82005
728.3953, 52.01326
728.8774, 52.49732
729.3596, 52.79168
729.8417, 52.66787
730.3238, 52.49916
730.8059, 52.52015
731.2880, 52.63505
731.7701, 52.68729
732.2523, 52.67513
732.7344, 52.72117
733.2165, 52.90974
733.6986, 53.19482
734.1807, 53.46304
734.6628, 53.71278
735.1450, 53.95212
735.6271, 54.24137
736.1092, 54.43779
736.5913, 54.38816
737.0734, 54.23429
737.5555, 54.20433
738.0377, 54.35100
738.5198, 54.53925
739.0019, 54.68327
739.4840, 54.85261
739.9661, 55.16311
740.4482, 55.56673
740.9304, 55.90837
741.4125, 56.12056
741.8946, 56.25787
742.3767, 56.39584
742.8588, 56.53496
743.3409, 56.65358
743.8231, 56.74181
744.3052, 56.82957
744.7873, 56.96608
745.2694, 57.08013
745.7515, 57.05797
746.2336, 56.90727
746.7158, 56.86699
747.1979, 57.20790
747.6800, 57.48225
748.1621, 57.29253
748.6442, 56.85963
749.1263, 56.59387
749.6085, 56.55893
750.0906, 56.46741
750.5727, 56.04407
751.0548, 55.40211
751.5369, 55.00493
752.0190, 54.91911
752.5012, 54.78867
752.9833, 54.59233
753.4654, 54.28493
753.9475, 53.72897
754.4296, 53.04042
754.9117, 52.52191
755.3939, 52.26499
755.8760, 52.07496
756.3581, 51.98307
756.8402, 51.84991
757.3223, 51.52913
757.8044, 51.04175
758.2866, 50.44324
758.7687, 49.75476
759.2508, 49.13121
759.7329, 48.80565
760.2150, 48.77480
760.6971, 48.99694
761.1793, 49.66783
761.6614, 49.89656
762.1435, 49.05742
762.6256, 47.72169
763.1077, 46.80915
763.5898, 46.34198
764.0720, 45.93211
764.5541, 45.50936
765.0362, 45.15995
765.5183, 45.02269
766.0004, 44.93702
766.4825, 44.65897
766.9647, 44.17189
767.4468, 43.69118
767.9289, 43.40961
768.4110, 43.23692
768.8931, 42.94927
769.3752, 42.55312
769.8574, 42.21132
770.3395, 41.94659
770.8216, 41.79161
771.3037, 41.82322
771.7858, 41.99035
772.2679, 41.98393
772.7501, 41.65160
773.2322, 41.37519
773.7143, 41.23428
774.1964, 41.10314
774.6785, 40.85659
775.1606, 40.56828
775.6428, 40.40752
776.1249, 40.44180
776.6070, 40.53457
777.0891, 40.61206
777.5712, 40.63673
778.0533, 40.46741
778.5355, 40.12097
779.0176, 39.86293
779.4997, 39.81464
779.9818, 39.86605
780.4639, 39.86205
780.9460, 39.79694
781.4282, 39.73200
781.9103, 39.67871
782.3924, 39.60917
782.8745, 39.47729
783.3566, 39.35863
783.8387, 39.36223
784.3209, 39.45369
784.8030, 39.44064
785.2851, 39.15055
785.7672, 38.86085
786.2493, 38.84127
786.7314, 38.95780
787.2136, 38.95992
787.6957, 38.83022
788.1778, 38.73396
788.6599, 38.78454
789.1420, 38.90776
789.6241, 38.91843
790.1063, 38.78453
790.5884, 38.71648
791.0705, 38.74039
791.5526, 38.80008
792.0347, 38.90135
792.5168, 39.00645
792.9990, 39.07256
793.4811, 39.10231
793.9632, 39.05622
794.4453, 38.81299
794.9274, 38.60787
795.4095, 38.61158
795.8917, 38.73592
796.3738, 38.85448
796.8559, 38.93351
797.3380, 38.99569
797.8201, 39.07562
798.3022, 39.12849
798.7844, 38.99014
799.2665, 38.66961
799.7486, 38.53520
800.2307, 38.70734
800.7128, 38.86828
801.1949, 38.74747
801.6771, 38.43622
802.1592, 38.28941
802.6413, 38.40390
803.1234, 38.52062
803.6055, 38.70482
804.0876, 38.82131
804.5698, 38.74288
805.0519, 38.57658
805.5340, 38.47599
806.0161, 38.48041
806.4982, 38.56687
806.9803, 38.78183
807.4625, 39.02895
807.9446, 39.16892
808.4267, 39.21990
808.9088, 39.24358
809.3909, 39.25940
809.8730, 39.30969
810.3552, 39.46208
810.8373, 39.66881
811.3194, 39.60291
811.8015, 39.12113
812.2836, 38.78156
812.7657, 38.73439
813.2479, 38.76114
813.7300, 38.74564
814.2121, 38.69585
814.6942, 38.62415
815.1763, 38.52132
815.6584, 38.42672
816.1406, 38.33949
816.6227, 38.27777
817.1048, 38.26441
817.5869, 38.28574
818.0690, 38.30387
818.5511, 38.31156
819.0333, 38.36393
819.5154, 38.56517
819.9975, 38.83200
820.4796, 38.89141
820.9617, 38.74736
821.4438, 38.56343
821.9260, 38.35271
822.4081, 38.24759
822.8902, 38.42626
823.3723, 38.81091
823.8544, 38.90534
824.3365, 38.41357
824.8187, 38.10150
825.3008, 38.12960
825.7829, 38.18911
826.2650, 38.09557
826.7471, 37.93330
827.2292, 37.85695
827.7114, 37.90588
828.1935, 37.99839
828.6756, 38.18969
829.1577, 38.31995
829.6398, 38.11854
830.1219, 37.72575
830.6041, 37.51803
831.0862, 37.58930
831.5683, 37.72433
832.0504, 37.72101
832.5325, 37.62149
833.0146, 37.59034
833.4968, 37.63783
833.9789, 37.68054
834.4610, 37.72745
834.9431, 37.71230
835.4252, 37.54090
835.9073, 37.28522
836.3895, 37.17472
836.8716, 37.28179
837.3537, 37.32899
837.8358, 37.23116
838.3179, 37.13755
838.8000, 37.10058
839.2822, 37.12231
839.7643, 37.24451
840.2464, 37.45052
840.7285, 37.56811
841.2106, 37.42824
841.6927, 37.19704
842.1749, 37.06924
842.6570, 37.01554
843.1391, 36.95623
843.6212, 36.87815
844.1033, 36.82290
844.5854, 36.82612
845.0676, 36.84891
845.5497, 36.77272
846.0318, 36.56211
846.5139, 36.47003
846.9960, 36.54354
847.4781, 36.65586
847.9603, 36.77361
848.4424, 36.88214
848.9245, 36.95310
849.4066, 36.98364
849.8887, 37.02776
850.3708, 37.10242
850.8530, 37.17733
851.3351, 37.26476
851.8172, 37.33030
852.2993, 37.33274
852.7814, 37.28037
853.2635, 37.21166
853.7457, 37.13951
854.2278, 37.08013
854.7099, 37.04606
855.1920, 37.03817
855.6741, 37.06644
856.1563, 37.12635
856.6384, 37.18854
857.1205, 37.24097
857.6026, 37.28109
858.0847, 37.30140
858.5668, 37.30318
859.0490, 37.33316
859.5311, 37.41073
860.0132, 37.45499
860.4953, 37.41360
860.9774, 37.37499
861.4595, 37.45138
861.9417, 37.59565
862.4238, 37.61998
862.9059, 37.38154
863.3880, 37.28261
863.8701, 37.53637
864.3522, 37.80938
864.8344, 37.85059
865.3165, 37.77961
865.7986, 37.83374
866.2807, 38.06124
866.7628, 38.26743
867.2449, 38.27701
867.7271, 38.20813
868.2092, 38.20639
868.6913, 38.25885
869.1733, 38.35551
869.6555, 38.48331
870.1376, 38.54842
870.6197, 38.47741
871.1018, 38.31915
871.5839, 38.17236
872.0660, 38.02738
872.5482, 37.99394
873.0303, 38.11815
873.5124, 38.23952
873.9945, 38.29997
874.4766, 38.30778
874.9587, 38.24909
875.4409, 38.10990
875.9230, 38.07285
876.4051, 38.23933
876.8872, 38.37384
877.3693, 38.45585
877.8514, 38.45835
878.3336, 38.25925
878.8157, 37.97366
879.2978, 37.90502
879.7799, 38.19353
880.2620, 38.53115
880.7441, 38.72894
881.2263, 38.83767
881.7084, 38.91520
882.1905, 38.95782
882.6726, 38.90135
883.1547, 38.74586
883.6368, 38.67507
884.1190, 38.89240
884.6011, 39.28530
885.0832, 39.50782
885.5653, 39.56048
886.0474, 39.61457
886.5295, 39.69399
887.0117, 39.79149
887.4938, 39.90532
887.9759, 40.02906
888.4580, 40.13576
888.9401, 40.17430
889.4222, 40.39400
889.9044, 41.05090
890.3865, 41.54657
890.8686, 41.61806
891.3507, 41.56148
891.8328, 41.60524
892.3149, 41.75991
892.7971, 41.99261
893.2792, 42.34827
893.7613, 42.69032
894.2434, 42.95755
894.7255, 43.19062
895.2076, 43.39642
895.6898, 43.60676
896.1719, 43.89418
896.6540, 44.27819
897.1361, 44.65336
897.6182, 44.92357
898.1003, 45.11922
898.5825, 45.25319
899.0646, 45.35618
899.5467, 45.57511
900.0288, 45.93280
900.5109, 46.25788
900.9930, 46.41466
901.4752, 46.48983
901.9573, 46.72758
902.4394, 47.17183
902.9215, 47.40068
903.4036, 47.29721
903.8857, 47.29366
904.3679, 47.61971
904.8500, 48.05361
905.3321, 48.34317
905.8142, 48.48650
906.2963, 48.55508
906.7784, 48.48532
907.2606, 48.43554
907.7427, 48.47865
908.2248, 48.49586
908.7069, 48.38911
909.1890, 48.20958
909.6711, 48.06169
910.1533, 47.97062
910.6354, 47.87259
911.1175, 47.70925
911.5996, 47.55226
912.0817, 47.51768
912.5638, 47.50267
913.0460, 47.32713
913.5281, 46.98536
914.0102, 46.60872
914.4923, 46.27158
914.9744, 45.96656
915.4565, 45.67782
915.9387, 45.41334
916.4208, 45.23177
916.9029, 45.12262
917.3850, 44.90006
917.8671, 44.48151
918.3492, 44.06325
918.8314, 43.89700
919.3135, 43.92370
919.7956, 43.66599
920.2777, 43.01949
920.7598, 42.56110
921.2419, 42.46926
921.7241, 42.37427
922.2062, 42.00921
922.6883, 41.51542
923.1704, 41.20420
923.6525, 41.14629
924.1346, 40.99923
924.6168, 40.70744
925.0989, 40.39879
925.5810, 40.03305
926.0631, 39.72373
926.5452, 39.62688
927.0273, 39.67561
927.5095, 39.62141
927.9916, 39.35256
928.4737, 39.10328
928.9558, 39.02761
929.4379, 38.98291
929.9200, 38.81945
930.4022, 38.60441
930.8843, 38.47304
931.3664, 38.45169
931.8485, 38.46136
932.3306, 38.43626
932.8127, 38.42876
933.2949, 38.57367
933.7770, 38.78164
934.2591, 38.76809
934.7412, 38.54384
935.2233, 38.42722
935.7054, 38.57208
936.1876, 38.77496
936.6697, 38.75272
937.1518, 38.53877
937.6339, 38.34500
938.1160, 38.15763
938.5981, 38.15786
939.0803, 38.44195
939.5624, 38.69915
940.0445, 38.68071
940.5266, 38.50453
941.0087, 38.48653
941.4908, 38.67560
941.9730, 38.85223
942.4551, 39.04080
942.9372, 39.17970
943.4193, 39.23330
943.9014, 39.24263
944.3835, 39.21859
944.8657, 39.17523
945.3478, 39.17397
945.8299, 39.21660
946.3120, 39.31136
946.7941, 39.55160
947.2762, 39.74743
947.7584, 39.70683
948.2405, 39.59050
948.7226, 39.66810
949.2047, 39.95566
949.6868, 40.18071
950.1689, 40.16755
950.6511, 40.10069
951.1332, 40.11207
951.6153, 40.15670
952.0974, 40.19989
952.5795, 40.22102
953.0616, 40.17223
953.5438, 40.03889
954.0259, 39.89761
954.5080, 39.84101
954.9901, 39.81716
955.4722, 39.71060
955.9543, 39.54470
956.4365, 39.42017
956.9186, 39.34836
957.4007, 39.23601
957.8828, 39.02162
958.3649, 38.77279
958.8470, 38.60404
959.3292, 38.51350
959.8113, 38.48144
960.2934, 38.52412
960.7755, 38.47908
961.2576, 38.29501
961.7397, 38.02995
962.2219, 37.70827
962.7040, 37.36260
963.1861, 37.10926
963.6682, 36.95431
964.1503, 36.88640
964.6324, 37.03083
965.1146, 37.04326
965.5967, 36.67509
966.0788, 36.23033
966.5609, 36.07027
967.0430, 36.14520
967.5251, 36.11123
968.0073, 35.86227
968.4894, 35.65070
968.9715, 35.56155
969.4536, 35.45009
969.9357, 35.14122
970.4178, 34.82061
970.9000, 34.80229
971.3821, 35.08621
971.8642, 35.24812
972.3463, 35.02724
972.8284, 34.79949
973.3105, 34.77503
973.7927, 34.80005
974.2748, 34.75102
974.7569, 34.62860
975.2390, 34.42953
975.7211, 34.16525
976.2032, 33.99091
976.6854, 34.06203
977.1675, 34.23137
977.6496, 34.40508
978.1317, 34.53552
978.6138, 34.49134
979.0959, 34.31173
979.5781, 34.20708
980.0602, 34.27340
980.5423, 34.35138
981.0244, 34.24190
981.5065, 34.01487
981.9886, 33.81726
982.4708, 33.65384
982.9529, 33.54900
983.4350, 33.50475
983.9171, 33.49637
984.3992, 33.51464
984.8813, 33.51415
985.3635, 33.38678
985.8456, 33.14773
986.3277, 33.00327
986.8098, 32.95192
987.2919, 33.06100
987.7740, 33.38534
988.2562, 33.67125
988.7383, 33.70359
989.2204, 33.57737
989.7025, 33.56477
990.1846, 33.70424
990.6667, 33.74990
991.1489, 33.65373
991.6310, 33.59141
992.1131, 33.65054
992.5952, 33.70753
993.0773, 33.62374
993.5594, 33.44298
994.0416, 33.36708
994.5237, 33.47881
995.0058, 33.52291
995.4879, 33.46791
995.9700, 33.38526
996.4521, 33.27159
996.9343, 33.16006
997.4164, 33.08432
997.8985, 33.04063
998.3806, 32.99630
998.8627, 32.86483
999.3448, 32.88902
999.8270, 33.31899
1000.309, 33.67785
1000.791, 33.66543
1001.273, 33.47810
1001.755, 33.32895
1002.238, 33.24886
1002.720, 33.23545
1003.202, 33.34979
1003.684, 33.41405
1004.166, 33.29603
1004.648, 33.15005
1005.130, 33.08466
1005.612, 33.08277
1006.094, 33.13007
1006.577, 33.20588
1007.059, 33.22055
1007.541, 33.09151
1008.023, 32.95371
1008.505, 32.88056
1008.987, 32.87814
1009.469, 33.00099
1009.951, 33.18787
1010.433, 33.30164
1010.916, 33.31329
1011.398, 33.32406
1011.880, 33.44468
1012.362, 33.52870
1012.844, 33.31136
1013.326, 32.97142
1013.808, 32.84821
1014.290, 32.92382
1014.773, 33.04480
1015.255, 33.14830
1015.737, 33.19565
1016.219, 33.13937
1016.701, 33.02540
1017.183, 32.92611
1017.665, 32.84360
1018.147, 32.76390
1018.629, 32.69891
1019.112, 32.76026
1019.594, 32.98870
1020.076, 33.19679
1020.558, 33.17210
1021.040, 32.99754
1021.522, 32.91194
1022.004, 32.90557
1022.486, 32.88873
1022.969, 32.85164
1023.451, 32.81167
1023.933, 32.77645
1024.415, 32.74389
1024.897, 32.71684
1025.379, 32.68535
1025.861, 32.60343
1026.343, 32.47057
1026.825, 32.26606
1027.308, 31.96141
1027.790, 31.79297
1028.272, 31.90248
1028.754, 32.08744
1029.236, 32.08869
1029.718, 31.92977
1030.200, 31.78537
1030.682, 31.65166
1031.165, 31.55750
1031.647, 31.51913
1032.129, 31.46859
1032.611, 31.34020
1033.093, 31.25440
1033.575, 31.42012
1034.057, 31.79945
1034.539, 31.82205
1035.021, 31.27074
1035.504, 30.97322
1035.986, 31.14972
1036.468, 31.27662
1036.950, 31.03119
1037.432, 30.71139
1037.914, 30.73015
1038.396, 31.06683
1038.878, 31.28745
1039.360, 31.38058
1039.843, 31.37638
1040.325, 31.21936
1040.807, 31.04141
1041.289, 30.82359
1041.771, 30.67199
1042.253, 30.75491
1042.735, 31.05877
1043.217, 31.30350
1043.700, 31.47999
1044.182, 31.61444
1044.664, 31.70135
1045.146, 31.75519
1045.628, 31.74771
1046.110, 31.73319
1046.592, 31.78712
1047.074, 31.90022
1047.557, 31.97090
1048.039, 31.90247
1048.521, 31.93831
1049.003, 32.18299
1049.485, 32.44154
1049.967, 32.66133
1050.449, 32.82475
1050.931, 32.86208
1051.413, 32.81119
1051.896, 32.90031
1052.378, 33.28028
1052.860, 33.56522
1053.342, 33.60375
1053.824, 33.62523
1054.306, 33.77728
1054.788, 33.93849
1055.270, 33.92553
1055.752, 33.78733
1056.235, 33.79365
1056.717, 34.08013
1057.199, 34.29943
1057.681, 34.29655
1058.163, 34.28041
1058.645, 34.35215
1059.127, 34.46616
1059.609, 34.57232
1060.092, 34.67137
1060.574, 34.79107
1061.056, 34.95549
1061.538, 35.07727
1062.020, 35.03582
1062.502, 35.05578
1062.984, 35.37647
1063.466, 35.71859
1063.948, 35.73352
1064.431, 35.52436
1064.913, 35.46772
1065.395, 35.67993
1065.877, 35.87948
1066.359, 36.05376
1066.841, 36.07092
1067.323, 35.70051
1067.805, 35.27288
1068.287, 35.09527
1068.770, 35.13307
1069.252, 35.25677
1069.734, 35.44603
1070.216, 35.54311
1070.698, 35.41047
1071.180, 35.25995
1071.662, 35.18562
1072.144, 35.15685
1072.627, 35.17255
1073.109, 35.19918
1073.591, 35.16016
1074.073, 35.04220
1074.555, 34.98143
1075.037, 35.09178
1075.519, 35.20094
1076.001, 35.19978
1076.484, 35.18291
1076.966, 35.27951
1077.448, 35.39952
1077.930, 35.33886
1078.412, 35.08719
1078.894, 34.92806
1079.376, 35.04291
1079.858, 35.16956
1080.340, 35.15879
1080.823, 35.13396
1081.305, 35.18123
1081.787, 35.28530
1082.269, 35.46129
1082.751, 35.67452
1083.233, 35.74226
1083.715, 35.50011
1084.197, 35.33297
1084.679, 35.50362
1085.161, 35.72284
1085.644, 35.77811
1086.126, 35.76814
1086.608, 35.84343
1087.090, 35.99135
1087.572, 36.08409
1088.054, 36.06880
1088.536, 36.04816
1089.018, 36.08109
1089.501, 36.10463
1089.983, 36.03598
1090.465, 35.97295
1090.947, 36.04519
1091.429, 36.21239
1091.911, 36.36151
1092.393, 36.47734
1092.875, 36.46183
1093.358, 36.11700
1093.840, 35.83570
1094.322, 35.83755
1094.804, 35.95691
1095.286, 36.09699
1095.768, 36.21664
1096.250, 36.23976
1096.732, 36.15480
1097.214, 36.14950
1097.697, 36.36452
1098.179, 36.56200
1098.661, 36.63163
1099.143, 36.67952
1099.625, 36.79608
1100.107, 36.93203
1100.589, 37.02118
1101.071, 37.05177
1101.553, 37.00410
1102.036, 36.78373
1102.518, 36.64052
1103.000, 36.63247
1103.482, 36.72753
1103.964, 37.02612
1104.446, 37.33446
1104.928, 37.40741
1105.410, 37.28542
1105.893, 37.22328
1106.375, 37.28858
1106.857, 37.33744
1107.339, 37.36060
1107.821, 37.34101
1108.303, 37.19812
1108.785, 37.07592
1109.267, 37.16865
1109.750, 37.36412
1110.232, 37.33112
1110.714, 36.96183
1111.196, 36.81202
1111.678, 37.24973
1112.160, 37.46789
1112.642, 37.06247
1113.124, 36.63876
1113.606, 36.63343
1114.089, 36.81049
1114.571, 36.77061
1115.053, 36.49742
1115.535, 36.27284
1116.017, 36.16430
1116.499, 35.99603
1116.981, 35.76315
1117.463, 35.46274
1117.945, 35.07801
1118.428, 34.63489
1118.910, 34.07517
1119.392, 33.47168
1119.874, 33.27431
1120.356, 33.80515
1120.838, 33.90173
1121.320, 33.31194
1121.802, 32.79036
1122.285, 32.60160
1122.767, 32.44790
1123.249, 32.06447
1123.731, 31.57516
1124.213, 31.30004
1124.695, 31.27302
1125.177, 31.15253
1125.659, 30.92051
1126.141, 30.64734
1126.624, 30.32281
1127.106, 30.03296
1127.588, 29.84726
1128.070, 29.66720
1128.552, 29.33524
1129.034, 28.87626
1129.516, 28.51576
1129.998, 28.25999
1130.480, 28.04223
1130.963, 27.86574
1131.445, 27.67567
1131.927, 27.45880
1132.409, 27.16666
1132.891, 26.73444
1133.373, 26.24111
1133.855, 25.93595
1134.337, 25.80379
1134.820, 25.51211
1135.302, 25.06051
1135.784, 24.72673
1136.266, 24.57482
1136.748, 24.43463
1137.230, 24.19439
1137.712, 23.95485
1138.194, 23.89978
1138.677, 23.95269
1139.159, 23.81024
1139.641, 23.53006
1140.123, 23.42524
1140.605, 23.48990
1141.087, 23.38216
1141.569, 22.97830
1142.051, 22.55772
1142.533, 22.37112
1143.016, 22.32785
1143.498, 22.31063
1143.980, 22.31016
1144.462, 22.34227
1144.944, 22.36726
1145.426, 22.24442
1145.908, 21.97752
1146.390, 21.74856
1146.872, 21.65919
1147.355, 21.64858
1147.837, 21.66449
1148.319, 21.72056
1148.801, 21.89379
1149.283, 22.08144
1149.765, 22.13153
1150.247, 22.04645
1150.729, 21.87271
1151.212, 21.63028
1151.694, 21.41647
1152.176, 21.30749
1152.658, 21.21834
1153.140, 21.03770
1153.622, 20.90593
1154.104, 20.98048
1154.586, 21.17388
1155.068, 21.39893
1155.551, 21.60558
1156.033, 21.64547
1156.515, 21.38645
1156.997, 21.21535
1157.479, 21.35695
1157.961, 21.49113
1158.443, 21.40501
1158.925, 21.30476
1159.407, 21.42981
1159.890, 21.67003
1160.372, 21.73184
1160.854, 21.56263
1161.336, 21.48819
1161.818, 21.57454
1162.300, 21.69722
1162.782, 21.82275
1163.264, 22.01114
1163.747, 22.40628
1164.229, 22.76450
1164.711, 22.77420
1165.193, 22.49932
1165.675, 22.28323
1166.157, 22.10590
1166.639, 22.06564
1167.121, 22.21767
1167.604, 22.34673
1168.086, 22.41002
1168.568, 22.40456
1169.050, 22.32872
1169.532, 22.17608
1170.014, 21.89541
1170.496, 21.52238
1170.978, 21.50001
1171.460, 21.84205
1171.943, 21.81326
1172.425, 21.32388
1172.907, 20.93596
1173.389, 20.86953
1173.871, 20.91790
1174.353, 20.90505
1174.835, 20.84202
1175.317, 20.73528
1175.799, 20.60052
1176.282, 20.50506
1176.764, 20.43161
1177.246, 20.29265
1177.728, 20.08679
1178.210, 19.88721
1178.692, 19.72993
1179.174, 19.63844
1179.656, 19.74039
1180.139, 19.79949
1180.621, 19.37881
1181.103, 18.81635
1181.585, 18.58898
1182.067, 18.64115
1182.549, 18.82313
1183.031, 19.04564
1183.513, 19.09023
1183.995, 18.81196
1184.478, 18.50268
1184.960, 18.26495
1185.442, 18.13206
1185.924, 18.25556
1186.406, 18.38601
1186.888, 18.20363
1187.370, 17.84334
1187.852, 17.28805
1188.334, 17.55882
1188.817, 17.68259
1189.299, 17.66755
1189.781, 17.09734
1190.263, 17.24401
1190.745, 17.10338
1191.227, 16.95097
1191.709, 17.19854
1192.191, 16.70907
1192.674, 16.95017
1193.156, 16.89970
1193.638, 16.98275
1194.120, 16.77671
1194.602, 16.65996
1195.084, 16.83238
1195.566, 16.84468
1196.048, 16.60538
1196.531, 16.69677
1197.013, 16.19722
1197.495, 16.21633
1197.977, 16.45923
1198.459, 16.12545
1198.941, 16.17908
1199.423, 16.09687
1199.905, 15.87551
1200.387, 15.65469
1200.870, 15.47354
1201.352, 15.30831
1201.834, 15.14057
1202.316, 15.08505
1202.798, 15.42148
1203.280, 15.84920
1203.762, 15.71121
1204.244, 15.31665
1204.726, 15.29796
1205.209, 15.56588
1205.691, 15.64292
1206.173, 15.46561
1206.655, 15.48865
1207.137, 16.03446
1207.619, 16.53030
1208.101, 16.65694
1208.583, 16.50925
1209.066, 15.92085
1209.548, 15.29281
1210.030, 15.09739
1210.512, 15.19214
1210.994, 15.18132
1211.476, 15.00477
1211.958, 14.90484
1212.440, 14.78093
1212.922, 14.96978
1213.405, 15.91501
1213.887, 16.65887
1214.369, 16.69903
1214.851, 16.56685
1215.333, 16.69891
1215.815, 17.00613
1216.297, 17.25871
1216.779, 17.44904
1217.261, 17.73334
1217.744, 18.15173
1218.226, 18.42807
1218.708, 18.50129
1219.190, 18.60386
1219.672, 18.83279
1220.154, 19.13181
1220.636, 19.46746
1221.118, 19.76069
1221.600, 19.78659
1222.083, 19.63156
1222.565, 19.60022
1223.047, 19.68816
1223.529, 19.85985
1224.011, 20.10190
1224.493, 20.40510
1224.975, 20.76037
1225.457, 21.10680
1225.940, 21.45314
1226.422, 21.66606
1226.904, 21.52595
1227.386, 21.27286
1227.868, 21.08173
1228.350, 20.99343
1228.832, 21.04462
1229.314, 21.22783
1229.797, 21.55301
1230.279, 22.05145
1230.761, 22.38015
1231.243, 22.24580
1231.725, 22.21761
1232.207, 22.54593
1232.689, 22.89019
1233.171, 23.06763
1233.653, 23.17835
1234.135, 23.31442
1234.618, 23.46948
1235.100, 23.61759
1235.582, 23.74762
1236.064, 23.94840
1236.546, 24.22919
1237.028, 24.55446
1237.510, 24.94495
1237.992, 25.16743
1238.475, 25.10001
1238.957, 24.97837
1239.439, 25.03585
1239.921, 25.23223
1240.403, 25.54402
1240.885, 25.90507
1241.367, 26.11160
1241.849, 26.18707
1242.332, 26.18025
1242.814, 26.13650
1243.296, 26.20742
1243.778, 26.43483
1244.260, 26.55242
1244.742, 26.22820
1245.224, 26.00195
1245.706, 26.38114
1246.188, 26.92118
1246.671, 27.37076
1247.153, 27.67560
1247.635, 27.76462
1248.117, 27.68462
1248.599, 27.52493
1249.081, 27.26654
1249.563, 27.21268
1250.045, 27.64964
1250.527, 27.87411
1251.010, 27.68729
1251.492, 27.53297
1251.974, 27.61056
1252.456, 27.70776
1252.938, 27.60667
1253.420, 27.44703
1253.902, 27.56593
1254.384, 27.94146
1254.867, 28.26525
1255.349, 28.53226
1255.831, 28.62149
1256.313, 28.52873
1256.795, 28.30887
1257.277, 27.99982
1257.759, 27.79220
1258.241, 27.83342
1258.724, 27.96494
1259.206, 28.01367
1259.688, 28.02787
1260.170, 28.06773
1260.652, 28.11407
1261.134, 28.13018
1261.616, 28.13061
1262.098, 28.18889
1262.580, 28.29089
1263.063, 28.24655
1263.545, 27.94841
1264.027, 27.62453
1264.509, 27.23281
1264.991, 26.96587
1265.473, 27.02344
1265.955, 27.07890
1266.437, 27.01458
1266.919, 26.74143
1267.402, 26.03924
1267.884, 25.03122
1268.366, 24.54486
1268.848, 24.67428
1269.330, 24.45294
1269.812, 23.85493
1270.294, 22.76793
1270.776, 21.20056
1271.259, 20.60624
1271.741, 21.71472
1272.223, 23.09186
1272.705, 23.31061
1273.187, 22.86156
1273.669, 22.27980
1274.151, 21.67821
1274.633, 21.20892
1275.115, 20.86988
1275.598, 20.78316
1276.080, 20.78445
1276.562, 20.29046
1277.044, 19.15590
1277.526, 18.45271
1278.008, 18.70301
1278.490, 19.23423
1278.972, 20.40219
1279.454, 21.14835
1279.937, 20.49871
1280.419, 19.76320
1280.901, 19.92752
1281.383, 20.65272
1281.865, 21.34623
1282.347, 21.99505
1282.829, 22.40558
1283.311, 22.58303
1283.794, 22.36646
1284.276, 21.75159
1284.758, 21.34087
1285.240, 21.27817
1285.722, 21.19546
1286.204, 20.88171
##END=



