##NAMES=Muscovite
##RRUFFID=R040108
##IDEAL CHEMISTRY=KAl_2_(Si_3_Al)O_10_(OH)_2_
##LOCALITY=USSR
##OWNER=RRUFF
##SOURCE=University of Arizona Mineral Museum
##DESCRIPTION=Dark green hexagonal tablet
##STATUS=The identification of this mineral has been confirmed by X-ray diffraction and chemical analysis
##URL=rruff.info/R040108
##MEASURED CHEMISTRY=(K_0.96_Na_0.04_)_Σ=1_(Al_1.48_Fe^3+^_0.20_Mg_0.16_Fe^2+^_0.14_Ti_0.02_)_Σ=2_(Si_3.28_Al_0.72_)_Σ=4_O_10_(OH)_2_; OH estimated by charge balance
128.3790, 1566.972
128.8611, 1646.902
129.3432, 1736.914
129.8254, 1830.161
130.3075, 1931.182
130.7896, 2031.233
131.2717, 2127.368
131.7538, 2219.801
132.2359, 2310.505
132.7181, 2401.658
133.2002, 2494.347
133.6823, 2574.703
134.1644, 2663.239
134.6465, 2725.251
135.1286, 2728.288
135.6107, 2680.924
136.0929, 2627.409
136.5750, 2609.901
137.0571, 2636.885
137.5392, 2643.085
138.0213, 2618.676
138.5034, 2582.611
138.9856, 2545.966
139.4677, 2510.305
139.9498, 2473.223
140.4319, 2426.668
140.9140, 2364.426
141.3961, 2344.323
141.8783, 2384.648
142.3604, 2458.386
142.8425, 2542.417
143.3246, 2632.905
143.8067, 2734.647
144.2888, 2853.021
144.7710, 2987.989
145.2531, 3144.414
145.7352, 3330.991
146.2173, 3488.746
146.6994, 3587.835
147.1815, 3663.505
147.6637, 3721.413
148.1458, 3763.967
148.6279, 3793.888
149.1100, 3816.889
149.5921, 3832.209
150.0742, 3842.270
150.5564, 3856.490
151.0385, 3883.616
151.5206, 3894.928
152.0027, 3848.439
152.4848, 3748.746
152.9669, 3639.669
153.4491, 3534.919
153.9312, 3431.697
154.4133, 3322.630
154.8954, 3199.386
155.3775, 3081.177
155.8596, 2986.712
156.3418, 2914.350
156.8239, 2857.880
157.3060, 2816.961
157.7881, 2789.598
158.2702, 2769.872
158.7523, 2760.356
159.2345, 2753.138
159.7166, 2742.658
160.1987, 2729.292
160.6808, 2708.870
161.1629, 2675.717
161.6451, 2632.245
162.1272, 2591.758
162.6093, 2557.178
163.0914, 2526.661
163.5735, 2496.721
164.0556, 2467.332
164.5378, 2444.720
165.0199, 2437.677
165.5020, 2444.573
165.9841, 2445.996
166.4662, 2440.167
166.9483, 2425.705
167.4305, 2396.573
167.9126, 2353.150
168.3947, 2316.255
168.8768, 2305.998
169.3589, 2322.123
169.8410, 2338.123
170.3232, 2350.530
170.8053, 2360.116
171.2874, 2367.648
171.7695, 2373.053
172.2516, 2375.831
172.7337, 2375.212
173.2158, 2371.027
173.6980, 2364.709
174.1801, 2352.939
174.6622, 2341.434
175.1443, 2333.132
175.6264, 2328.344
176.1085, 2326.986
176.5907, 2330.497
177.0728, 2339.604
177.5549, 2346.031
178.0370, 2344.647
178.5191, 2342.762
179.0012, 2344.046
179.4834, 2349.004
179.9655, 2356.685
180.4476, 2367.200
180.9297, 2381.178
181.4118, 2393.281
181.8939, 2401.358
182.3761, 2408.271
182.8582, 2414.330
183.3403, 2419.945
183.8224, 2427.195
184.3045, 2439.214
184.7866, 2456.910
185.2688, 2473.135
185.7509, 2482.817
186.2330, 2493.961
186.7151, 2515.939
187.1972, 2547.659
187.6793, 2573.122
188.1615, 2571.485
188.6436, 2536.619
189.1257, 2509.423
189.6078, 2497.589
190.0899, 2491.467
190.5720, 2490.047
191.0542, 2491.806
191.5363, 2491.228
192.0184, 2480.045
192.5005, 2455.260
192.9826, 2437.693
193.4647, 2435.093
193.9469, 2435.260
194.4290, 2434.105
194.9111, 2430.723
195.3932, 2425.011
195.8753, 2416.803
196.3574, 2406.012
196.8396, 2393.189
197.3217, 2374.973
197.8038, 2357.309
198.2859, 2342.572
198.7680, 2330.880
199.2501, 2321.502
199.7323, 2314.269
200.2144, 2309.485
200.6965, 2304.402
201.1786, 2297.896
201.6607, 2291.936
202.1428, 2287.473
202.6250, 2284.370
203.1071, 2281.811
203.5892, 2280.393
204.0713, 2280.765
204.5534, 2274.837
205.0355, 2250.130
205.5177, 2229.955
205.9998, 2229.350
206.4819, 2242.860
206.9640, 2251.852
207.4461, 2236.093
207.9282, 2194.435
208.4103, 2169.198
208.8925, 2175.319
209.3746, 2184.567
209.8567, 2188.426
210.3388, 2186.967
210.8209, 2182.606
211.3030, 2175.852
211.7852, 2167.011
212.2673, 2162.460
212.7494, 2165.926
213.2315, 2169.958
213.7136, 2171.801
214.1957, 2172.183
214.6779, 2173.210
215.1600, 2177.647
215.6421, 2184.346
216.1242, 2183.424
216.6063, 2168.928
217.0884, 2154.154
217.5706, 2140.813
218.0527, 2130.565
218.5348, 2126.567
219.0169, 2132.458
219.4990, 2145.322
219.9811, 2152.828
220.4633, 2155.766
220.9454, 2151.235
221.4275, 2134.663
221.9096, 2112.136
222.3917, 2091.670
222.8738, 2076.839
223.3560, 2067.273
223.8381, 2063.850
224.3202, 2074.451
224.8023, 2075.681
225.2844, 2052.971
225.7665, 2020.970
226.2487, 1996.244
226.7308, 1985.793
227.2129, 1985.709
227.6950, 1990.608
228.1771, 2005.465
228.6592, 2012.168
229.1414, 2001.411
229.6235, 1982.563
230.1056, 1962.836
230.5877, 1944.076
231.0698, 1927.617
231.5519, 1915.485
232.0341, 1908.142
232.5162, 1903.639
232.9983, 1901.313
233.4804, 1901.788
233.9625, 1906.954
234.4446, 1917.554
234.9268, 1928.962
235.4089, 1936.323
235.8910, 1939.638
236.3731, 1939.156
236.8552, 1928.250
237.3373, 1918.215
237.8195, 1917.592
238.3016, 1927.413
238.7837, 1941.475
239.2658, 1954.323
239.7479, 1966.038
240.2300, 1980.161
240.7122, 1999.502
241.1943, 2019.275
241.6764, 2035.839
242.1585, 2049.303
242.6406, 2061.829
243.1227, 2072.236
243.6048, 2081.947
244.0870, 2099.740
244.5691, 2129.725
245.0512, 2163.959
245.5333, 2193.510
246.0154, 2220.313
246.4975, 2253.953
246.9797, 2301.836
247.4618, 2360.223
247.9439, 2417.458
248.4260, 2468.639
248.9081, 2528.607
249.3902, 2614.497
249.8724, 2718.029
250.3545, 2818.868
250.8366, 2902.795
251.3187, 2981.987
251.8008, 3073.726
252.2829, 3178.328
252.7651, 3294.477
253.2472, 3426.652
253.7293, 3569.831
254.2114, 3713.889
254.6935, 3857.195
255.1756, 4000.454
255.6578, 4144.811
256.1399, 4290.222
256.6220, 4431.876
257.1041, 4567.010
257.5862, 4695.676
258.0684, 4823.707
258.5505, 4964.936
259.0326, 5087.851
259.5147, 5170.500
259.9968, 5216.522
260.4789, 5240.104
260.9610, 5246.620
261.4431, 5234.080
261.9253, 5200.770
262.4074, 5148.441
262.8895, 5077.019
263.3716, 4982.688
263.8537, 4869.716
264.3358, 4743.785
264.8180, 4605.455
265.3001, 4460.060
265.7822, 4316.395
266.2643, 4173.706
266.7464, 4032.056
267.2285, 3891.943
267.7107, 3752.535
268.1928, 3608.555
268.6749, 3459.030
269.1570, 3317.486
269.6391, 3203.701
270.1212, 3128.637
270.6034, 3043.908
271.0855, 2935.704
271.5676, 2826.532
272.0497, 2734.808
272.5318, 2661.211
273.0139, 2596.788
273.4961, 2533.781
273.9782, 2472.673
274.4603, 2412.167
274.9424, 2346.119
275.4245, 2286.866
275.9066, 2244.269
276.3888, 2213.625
276.8709, 2181.518
277.3530, 2138.269
277.8351, 2085.764
278.3172, 2040.608
278.7993, 2004.732
279.2815, 1973.622
279.7636, 1949.811
280.2457, 1929.398
280.7278, 1905.401
281.2099, 1874.275
281.6920, 1840.915
282.1742, 1819.509
282.6563, 1822.727
283.1384, 1819.622
283.6205, 1805.711
284.1026, 1786.504
284.5847, 1764.918
285.0669, 1742.522
285.5490, 1722.011
286.0311, 1708.463
286.5132, 1704.735
286.9953, 1700.181
287.4774, 1695.961
287.9596, 1689.680
288.4417, 1678.577
288.9238, 1663.325
289.4059, 1648.030
289.8880, 1636.918
290.3701, 1630.314
290.8523, 1622.463
291.3344, 1609.700
291.8165, 1599.752
292.2986, 1597.479
292.7807, 1600.478
293.2628, 1603.078
293.7450, 1602.175
294.2271, 1598.103
294.7092, 1591.034
295.1913, 1577.649
295.6734, 1568.327
296.1555, 1571.084
296.6377, 1579.303
297.1198, 1584.512
297.6019, 1583.587
298.0840, 1579.092
298.5661, 1573.495
299.0482, 1566.529
299.5304, 1561.331
300.0125, 1559.709
300.4946, 1560.192
300.9767, 1560.604
301.4588, 1560.287
301.9409, 1562.019
302.4231, 1570.585
302.9052, 1583.650
303.3873, 1590.620
303.8694, 1586.818
304.3515, 1579.612
304.8336, 1579.158
305.3158, 1585.547
305.7979, 1589.029
306.2800, 1582.346
306.7621, 1572.507
307.2442, 1570.516
307.7263, 1578.252
308.2085, 1587.471
308.6906, 1589.751
309.1727, 1585.046
309.6548, 1586.374
310.1369, 1601.401
310.6190, 1616.533
311.1012, 1622.068
311.5833, 1619.214
312.0654, 1615.062
312.5475, 1614.089
313.0296, 1615.450
313.5117, 1613.788
313.9939, 1606.754
314.4760, 1599.994
314.9581, 1593.689
315.4402, 1588.781
315.9223, 1587.296
316.4044, 1590.068
316.8866, 1594.734
317.3687, 1596.599
317.8508, 1595.252
318.3329, 1591.237
318.8150, 1581.987
319.2971, 1572.038
319.7793, 1564.780
320.2614, 1560.653
320.7435, 1557.674
321.2256, 1553.795
321.7077, 1548.907
322.1898, 1543.729
322.6720, 1532.109
323.1541, 1526.139
323.6362, 1535.864
324.1183, 1554.791
324.6004, 1568.241
325.0826, 1565.077
325.5647, 1549.943
326.0468, 1543.177
326.5289, 1550.962
327.0110, 1555.819
327.4931, 1548.142
327.9753, 1536.867
328.4574, 1532.854
328.9395, 1540.732
329.4216, 1551.772
329.9037, 1554.835
330.3858, 1549.485
330.8679, 1541.946
331.3500, 1531.052
331.8322, 1520.843
332.3143, 1514.081
332.7964, 1510.851
333.2785, 1512.175
333.7606, 1522.167
334.2427, 1537.116
334.7249, 1547.322
335.2070, 1551.326
335.6891, 1551.143
336.1712, 1545.514
336.6533, 1536.035
337.1354, 1531.393
337.6176, 1538.559
338.0997, 1547.249
338.5818, 1547.037
339.0639, 1538.812
339.5460, 1531.658
340.0281, 1530.846
340.5103, 1535.207
340.9924, 1539.505
341.4745, 1544.156
341.9566, 1548.239
342.4387, 1551.105
342.9208, 1553.375
343.4030, 1555.284
343.8851, 1556.920
344.3672, 1560.062
344.8493, 1568.254
345.3314, 1587.369
345.8135, 1598.351
346.2957, 1594.687
346.7778, 1588.769
347.2599, 1588.812
347.7420, 1594.881
348.2241, 1602.222
348.7062, 1606.749
349.1884, 1608.502
349.6705, 1610.278
350.1526, 1608.478
350.6347, 1611.044
351.1168, 1624.546
351.5989, 1642.358
352.0811, 1654.399
352.5632, 1655.409
353.0453, 1650.961
353.5274, 1652.584
354.0095, 1662.379
354.4916, 1670.834
354.9738, 1673.766
355.4559, 1675.621
355.9380, 1678.591
356.4201, 1683.029
356.9022, 1690.354
357.3843, 1705.425
357.8665, 1725.302
358.3486, 1735.193
358.8307, 1729.415
359.3128, 1721.569
359.7949, 1724.952
360.2770, 1735.926
360.7592, 1742.529
361.2413, 1737.284
361.7234, 1729.189
362.2055, 1726.894
362.6876, 1730.210
363.1697, 1735.524
363.6519, 1740.750
364.1340, 1746.794
364.6161, 1756.834
365.0982, 1775.580
365.5803, 1790.594
366.0624, 1797.785
366.5446, 1799.503
367.0267, 1795.863
367.5088, 1787.348
367.9909, 1782.716
368.4730, 1795.949
368.9551, 1838.519
369.4373, 1860.081
369.9194, 1841.268
370.4015, 1822.143
370.8836, 1826.125
371.3657, 1848.363
371.8478, 1870.541
372.3300, 1880.004
372.8121, 1879.079
373.2942, 1880.791
373.7763, 1887.156
374.2584, 1893.173
374.7405, 1897.775
375.2227, 1901.621
375.7048, 1905.136
376.1869, 1908.435
376.6690, 1912.248
377.1511, 1917.208
377.6332, 1923.270
378.1154, 1931.527
378.5975, 1944.743
379.0796, 1957.246
379.5617, 1966.036
380.0438, 1971.029
380.5259, 1972.185
381.0081, 1963.164
381.4902, 1952.787
381.9723, 1958.476
382.4544, 1981.790
382.9365, 2001.392
383.4186, 2001.544
383.9008, 1989.804
384.3829, 1991.025
384.8650, 2015.700
385.3471, 2037.672
385.8292, 2043.496
386.3113, 2039.690
386.7935, 2036.748
387.2756, 2037.679
387.7577, 2042.979
388.2398, 2053.905
388.7219, 2073.369
389.2040, 2089.918
389.6862, 2105.006
390.1683, 2116.317
390.6504, 2119.470
391.1325, 2117.326
391.6146, 2117.798
392.0967, 2126.823
392.5789, 2142.349
393.0610, 2153.093
393.5431, 2153.029
394.0252, 2157.798
394.5073, 2171.209
394.9894, 2189.407
395.4716, 2210.027
395.9537, 2232.223
396.4358, 2253.764
396.9179, 2271.524
397.4000, 2285.493
397.8821, 2301.311
398.3643, 2321.028
398.8464, 2340.536
399.3285, 2358.047
399.8106, 2373.389
400.2927, 2385.995
400.7748, 2391.413
401.2569, 2396.501
401.7390, 2409.963
402.2212, 2431.453
402.7033, 2455.944
403.1854, 2482.192
403.6675, 2508.894
404.1496, 2532.100
404.6317, 2549.565
405.1139, 2569.477
405.5960, 2598.980
406.0781, 2629.597
406.5602, 2650.575
407.0423, 2660.303
407.5244, 2665.600
408.0066, 2672.352
408.4887, 2679.983
408.9708, 2695.556
409.4529, 2724.794
409.9350, 2754.981
410.4171, 2784.926
410.8993, 2812.548
411.3814, 2835.151
411.8635, 2851.607
412.3456, 2862.690
412.8277, 2869.342
413.3098, 2870.606
413.7920, 2870.749
414.2741, 2869.219
414.7562, 2867.622
415.2383, 2866.753
415.7204, 2866.671
416.2025, 2867.166
416.6847, 2869.086
417.1668, 2871.344
417.6489, 2872.673
418.1310, 2874.017
418.6131, 2868.733
419.0952, 2849.911
419.5774, 2822.396
420.0595, 2797.875
420.5416, 2772.737
421.0237, 2757.176
421.5058, 2707.392
421.9879, 2704.295
422.4701, 2694.956
422.9522, 2679.716
423.4343, 2640.890
423.9164, 2632.520
424.3985, 2611.946
424.8806, 2590.870
425.3628, 2586.785
425.8449, 2527.650
426.3270, 2498.520
426.8091, 2472.355
427.2912, 2445.221
427.7733, 2415.120
428.2555, 2382.876
428.7376, 2349.370
429.2197, 2312.698
429.7018, 2279.915
430.1839, 2255.286
430.6660, 2232.278
431.1482, 2208.005
431.6303, 2181.788
432.1124, 2152.427
432.5945, 2117.673
433.0766, 2079.357
433.5587, 2041.726
434.0409, 2004.275
434.5230, 1970.500
435.0051, 1941.819
435.4872, 1918.815
435.9693, 1901.907
436.4514, 1894.009
436.9336, 1887.311
437.4157, 1881.341
437.8978, 1873.166
438.3799, 1854.374
438.8620, 1822.707
439.3441, 1791.615
439.8263, 1777.776
440.3084, 1786.030
440.7905, 1782.282
441.2726, 1757.386
441.7547, 1731.954
442.2368, 1715.247
442.7190, 1703.833
443.2011, 1689.407
443.6832, 1667.759
444.1653, 1645.175
444.6474, 1636.805
445.1295, 1649.065
445.6117, 1653.925
446.0938, 1641.787
446.5759, 1626.048
447.0580, 1612.371
447.5401, 1601.395
448.0222, 1593.345
448.5044, 1591.237
448.9865, 1591.137
449.4686, 1584.487
449.9507, 1570.754
450.4328, 1558.965
450.9149, 1554.116
451.3971, 1553.494
451.8792, 1550.785
452.3613, 1544.741
452.8434, 1539.874
453.3255, 1538.683
453.8076, 1538.711
454.2898, 1535.979
454.7719, 1530.504
455.2540, 1527.532
455.7361, 1532.830
456.2182, 1545.906
456.7003, 1550.096
457.1825, 1534.553
457.6646, 1522.370
458.1467, 1521.277
458.6288, 1523.697
459.1109, 1519.907
459.5930, 1507.321
460.0752, 1493.548
460.5573, 1487.858
461.0394, 1490.282
461.5215, 1493.812
462.0036, 1500.053
462.4857, 1504.103
462.9679, 1501.539
463.4500, 1494.760
463.9321, 1488.896
464.4142, 1485.186
464.8963, 1482.977
465.3784, 1483.215
465.8606, 1484.747
466.3427, 1483.616
466.8248, 1478.450
467.3069, 1470.581
467.7890, 1460.711
468.2711, 1446.362
468.7533, 1440.457
469.2354, 1452.888
469.7175, 1464.246
470.1996, 1460.941
470.6817, 1448.348
471.1638, 1441.156
471.6459, 1447.728
472.1281, 1460.216
472.6102, 1458.595
473.0923, 1435.533
473.5744, 1419.115
474.0565, 1418.892
474.5386, 1421.737
475.0208, 1420.843
475.5029, 1416.330
475.9850, 1411.597
476.4671, 1409.527
476.9492, 1407.963
477.4313, 1401.632
477.9135, 1390.469
478.3956, 1383.458
478.8777, 1386.121
479.3598, 1393.847
479.8419, 1397.097
480.3240, 1395.322
480.8062, 1392.108
481.2883, 1387.261
481.7704, 1381.895
482.2525, 1376.138
482.7346, 1370.604
483.2167, 1367.429
483.6989, 1368.760
484.1810, 1373.115
484.6631, 1372.261
485.1452, 1361.204
485.6273, 1353.238
486.1094, 1353.173
486.5916, 1354.564
487.0737, 1351.302
487.5558, 1343.208
488.0379, 1336.158
488.5200, 1334.950
489.0021, 1338.412
489.4843, 1343.361
489.9664, 1350.015
490.4485, 1356.930
490.9306, 1365.814
491.4127, 1373.197
491.8948, 1371.771
492.3770, 1358.774
492.8591, 1343.296
493.3412, 1322.180
493.8233, 1303.384
494.3054, 1299.350
494.7875, 1310.084
495.2697, 1322.670
495.7518, 1326.062
496.2339, 1321.172
496.7160, 1319.469
497.1981, 1322.964
497.6802, 1327.157
498.1624, 1334.532
498.6445, 1340.379
499.1266, 1338.916
499.6087, 1329.600
500.0908, 1319.448
500.5729, 1314.891
501.0551, 1314.825
501.5372, 1314.654
502.0193, 1314.320
502.5014, 1313.264
502.9835, 1308.346
503.4656, 1303.503
503.9478, 1308.874
504.4299, 1334.115
504.9120, 1350.874
505.3941, 1339.168
505.8762, 1317.222
506.3583, 1308.667
506.8405, 1316.555
507.3226, 1329.061
507.8047, 1336.160
508.2868, 1338.271
508.7689, 1340.886
509.2510, 1343.234
509.7332, 1347.302
510.2153, 1356.322
510.6974, 1365.386
511.1795, 1369.057
511.6616, 1366.710
512.1437, 1363.557
512.6259, 1363.967
513.1080, 1367.248
513.5901, 1370.721
514.0722, 1374.096
514.5543, 1378.969
515.0364, 1388.394
515.5186, 1398.991
516.0007, 1402.275
516.4828, 1393.911
516.9649, 1387.588
517.4470, 1388.181
517.9291, 1392.539
518.4113, 1398.106
518.8934, 1404.111
519.3755, 1409.626
519.8576, 1413.759
520.3397, 1416.847
520.8218, 1421.425
521.3040, 1429.955
521.7861, 1435.715
522.2682, 1438.176
522.7503, 1437.408
523.2324, 1430.924
523.7145, 1419.681
524.1967, 1411.915
524.6788, 1413.639
525.1609, 1422.757
525.6430, 1436.750
526.1251, 1455.716
526.6072, 1472.619
527.0894, 1484.120
527.5715, 1491.488
528.0536, 1497.567
528.5357, 1502.823
529.0178, 1505.983
529.4999, 1503.873
529.9821, 1501.970
530.4642, 1504.505
530.9463, 1511.234
531.4284, 1520.985
531.9105, 1533.822
532.3926, 1546.327
532.8748, 1545.769
533.3569, 1523.776
533.8390, 1515.049
534.3211, 1539.200
534.8032, 1566.440
535.2853, 1576.711
535.7675, 1572.118
536.2496, 1567.048
536.7317, 1566.556
537.2138, 1569.367
537.6959, 1576.200
538.1780, 1585.709
538.6602, 1591.128
539.1423, 1589.284
539.6244, 1585.514
540.1065, 1588.193
540.5886, 1600.301
541.0707, 1608.168
541.5529, 1611.829
542.0350, 1611.669
542.5171, 1604.351
542.9992, 1594.208
543.4813, 1587.622
543.9634, 1587.106
544.4456, 1591.603
544.9277, 1602.219
545.4098, 1618.732
545.8919, 1628.887
546.3740, 1630.665
546.8561, 1627.509
547.3383, 1619.087
547.8204, 1607.574
548.3025, 1598.873
548.7846, 1594.520
549.2667, 1591.808
549.7488, 1590.366
550.2310, 1589.425
550.7131, 1587.469
551.1952, 1584.409
551.6773, 1582.039
552.1594, 1581.977
552.6415, 1584.167
553.1237, 1587.993
553.6058, 1596.163
554.0879, 1601.618
554.5700, 1600.326
555.0521, 1597.764
555.5342, 1599.787
556.0164, 1606.730
556.4985, 1612.128
556.9806, 1610.739
557.4627, 1605.481
557.9448, 1600.280
558.4269, 1595.407
558.9091, 1594.380
559.3912, 1600.145
559.8733, 1608.578
560.3554, 1610.883
560.8375, 1601.636
561.3196, 1598.323
561.8018, 1607.113
562.2839, 1616.343
562.7660, 1619.562
563.2481, 1617.695
563.7302, 1613.301
564.2123, 1607.135
564.6945, 1602.488
565.1766, 1607.245
565.6587, 1622.073
566.1408, 1629.540
566.6229, 1624.629
567.1050, 1616.430
567.5872, 1608.582
568.0693, 1602.715
568.5514, 1605.179
569.0335, 1624.168
569.5156, 1642.923
569.9977, 1653.911
570.4799, 1659.578
570.9620, 1661.789
571.4441, 1661.604
571.9262, 1662.683
572.4083, 1669.350
572.8904, 1680.636
573.3726, 1684.960
573.8547, 1676.852
574.3368, 1671.473
574.8189, 1673.030
575.3010, 1678.261
575.7831, 1686.348
576.2653, 1696.695
576.7473, 1703.911
577.2294, 1682.955
577.7115, 1696.779
578.1937, 1705.401
578.6758, 1709.101
579.1579, 1693.136
579.6400, 1702.564
580.1221, 1701.815
580.6042, 1700.649
581.0864, 1713.652
581.5685, 1700.547
582.0506, 1713.324
582.5327, 1715.770
583.0148, 1722.944
583.4969, 1719.879
583.9791, 1723.985
584.4612, 1726.488
584.9433, 1726.991
585.4254, 1727.749
585.9075, 1728.266
586.3896, 1724.898
586.8718, 1716.023
587.3539, 1710.318
587.8360, 1714.855
588.3181, 1726.794
588.8002, 1735.133
589.2823, 1741.295
589.7645, 1742.057
590.2466, 1733.514
590.7287, 1721.908
591.2108, 1710.390
591.6929, 1700.565
592.1750, 1695.289
592.6572, 1697.471
593.1393, 1702.789
593.6214, 1700.306
594.1035, 1688.944
594.5856, 1678.766
595.0677, 1670.091
595.5499, 1665.489
596.0320, 1672.479
596.5141, 1687.393
596.9962, 1691.622
597.4783, 1670.657
597.9604, 1651.319
598.4426, 1648.977
598.9247, 1655.707
599.4068, 1660.255
599.8889, 1660.019
600.3710, 1658.441
600.8531, 1659.037
601.3353, 1661.386
601.8174, 1661.119
602.2995, 1656.104
602.7816, 1653.427
603.2637, 1656.974
603.7458, 1662.515
604.2280, 1667.268
604.7101, 1670.964
605.1922, 1672.269
605.6743, 1668.733
606.1564, 1664.166
606.6385, 1662.576
607.1207, 1662.872
607.6028, 1661.815
608.0849, 1658.199
608.5670, 1652.708
609.0491, 1645.896
609.5313, 1637.432
610.0134, 1630.203
610.4955, 1622.031
610.9776, 1618.263
611.4597, 1624.572
611.9418, 1633.739
612.4240, 1638.012
612.9061, 1636.010
613.3882, 1628.702
613.8703, 1609.954
614.3524, 1589.733
614.8345, 1585.487
615.3167, 1595.387
615.7988, 1601.710
616.2809, 1595.112
616.7630, 1583.011
617.2451, 1581.217
617.7272, 1597.385
618.2094, 1602.120
618.6915, 1586.943
619.1736, 1569.328
619.6557, 1552.830
620.1378, 1539.053
620.6199, 1530.375
621.1021, 1528.054
621.5842, 1527.382
622.0663, 1524.876
622.5484, 1521.154
623.0305, 1516.842
623.5126, 1512.144
623.9948, 1509.862
624.4769, 1512.573
624.9590, 1517.341
625.4411, 1515.574
625.9232, 1500.545
626.4053, 1491.346
626.8875, 1492.568
627.3696, 1494.456
627.8517, 1492.495
628.3338, 1487.286
628.8159, 1480.200
629.2980, 1470.933
629.7802, 1463.276
630.2623, 1463.317
630.7444, 1467.951
631.2265, 1467.157
631.7086, 1459.512
632.1907, 1452.379
632.6729, 1450.961
633.1550, 1453.892
633.6371, 1455.893
634.1192, 1456.547
634.6013, 1456.813
635.0834, 1458.426
635.5656, 1458.081
636.0477, 1451.941
636.5298, 1442.318
637.0119, 1435.012
637.4940, 1433.190
637.9761, 1433.013
638.4583, 1429.541
638.9404, 1424.094
639.4225, 1421.332
639.9046, 1422.064
640.3867, 1424.244
640.8688, 1426.715
641.3510, 1429.205
641.8331, 1430.302
642.3152, 1426.475
642.7973, 1426.468
643.2794, 1434.580
643.7615, 1442.930
644.2437, 1446.854
644.7258, 1446.660
645.2079, 1444.223
645.6900, 1439.823
646.1721, 1435.014
646.6542, 1433.608
647.1364, 1433.366
647.6185, 1424.364
648.1006, 1404.481
648.5827, 1387.268
649.0648, 1384.004
649.5469, 1391.536
650.0291, 1393.795
650.5112, 1384.865
650.9933, 1379.645
651.4754, 1381.891
651.9575, 1385.012
652.4396, 1384.269
652.9218, 1380.911
653.4039, 1379.513
653.8860, 1383.175
654.3681, 1386.724
654.8502, 1383.735
655.3323, 1376.422
655.8145, 1370.310
656.2966, 1366.322
656.7787, 1364.793
657.2608, 1366.008
657.7429, 1369.847
658.2250, 1376.193
658.7072, 1389.806
659.1893, 1397.321
659.6714, 1394.849
660.1535, 1389.640
660.6356, 1384.759
661.1177, 1380.442
661.5999, 1376.305
662.0820, 1371.932
662.5641, 1368.405
663.0462, 1366.041
663.5283, 1365.364
664.0104, 1367.347
664.4926, 1372.122
664.9747, 1380.485
665.4568, 1394.018
665.9389, 1409.112
666.4210, 1413.729
666.9031, 1402.416
667.3853, 1393.988
667.8674, 1393.238
668.3495, 1391.832
668.8316, 1381.472
669.3137, 1368.409
669.7958, 1366.122
670.2780, 1380.756
670.7601, 1398.488
671.2422, 1413.680
671.7243, 1425.434
672.2064, 1431.870
672.6885, 1433.359
673.1707, 1431.621
673.6528, 1427.149
674.1349, 1423.114
674.6170, 1427.662
675.0991, 1443.758
675.5812, 1453.973
676.0634, 1453.215
676.5455, 1453.042
677.0276, 1459.612
677.5097, 1470.737
677.9918, 1483.254
678.4739, 1496.836
678.9561, 1511.865
679.4382, 1529.752
679.9203, 1548.144
680.4024, 1564.756
680.8845, 1579.893
681.3666, 1594.375
681.8488, 1608.566
682.3309, 1624.440
682.8130, 1645.439
683.2951, 1671.367
683.7772, 1698.734
684.2593, 1727.506
684.7415, 1757.155
685.2236, 1787.740
685.7057, 1818.833
686.1878, 1849.082
686.6699, 1877.472
687.1520, 1910.156
687.6342, 1951.054
688.1163, 1993.350
688.5984, 2030.139
689.0805, 2067.078
689.5626, 2114.504
690.0447, 2174.721
690.5269, 2238.875
691.0090, 2296.573
691.4911, 2351.499
691.9732, 2414.939
692.4553, 2486.927
692.9374, 2562.469
693.4196, 2642.069
693.9017, 2718.181
694.3838, 2779.204
694.8659, 2821.926
695.3480, 2877.914
695.8301, 2963.843
696.3123, 3041.841
696.7944, 3102.980
697.2765, 3152.974
697.7586, 3195.173
698.2407, 3230.849
698.7228, 3262.663
699.2050, 3295.404
699.6871, 3321.981
700.1692, 3335.442
700.6513, 3335.718
701.1334, 3322.484
701.6155, 3295.725
702.0977, 3254.845
702.5798, 3196.967
703.0619, 3125.442
703.5440, 3063.637
704.0261, 3021.609
704.5082, 2964.745
704.9904, 2871.385
705.4725, 2776.924
705.9546, 2706.031
706.4367, 2652.377
706.9188, 2595.014
707.4009, 2527.832
707.8831, 2458.104
708.3652, 2387.298
708.8473, 2317.005
709.3294, 2247.999
709.8115, 2181.003
710.2936, 2119.053
710.7758, 2064.103
711.2579, 2012.815
711.7400, 1957.927
712.2221, 1899.712
712.7042, 1848.051
713.1863, 1803.467
713.6685, 1768.493
714.1506, 1749.621
714.6327, 1738.382
715.1148, 1713.051
715.5969, 1664.735
716.0790, 1627.580
716.5612, 1611.078
717.0433, 1598.263
717.5253, 1581.706
718.0074, 1563.055
718.4896, 1544.978
718.9717, 1528.346
719.4538, 1513.896
719.9359, 1504.126
720.4180, 1495.964
720.9001, 1481.923
721.3823, 1463.513
721.8644, 1451.552
722.3465, 1450.311
722.8286, 1450.343
723.3107, 1439.234
723.7928, 1417.052
724.2750, 1402.077
724.7571, 1397.526
725.2392, 1394.375
725.7213, 1392.305
726.2034, 1389.560
726.6855, 1381.598
727.1677, 1370.578
727.6498, 1368.452
728.1319, 1390.734
728.6140, 1408.342
729.0961, 1401.545
729.5782, 1384.151
730.0604, 1371.109
730.5425, 1365.136
731.0246, 1365.010
731.5067, 1370.747
731.9888, 1378.724
732.4709, 1381.550
732.9531, 1379.525
733.4352, 1379.289
733.9173, 1381.844
734.3994, 1385.072
734.8815, 1387.468
735.3636, 1389.867
735.8458, 1394.893
736.3279, 1407.172
736.8100, 1411.939
737.2921, 1400.341
737.7742, 1391.199
738.2563, 1395.635
738.7385, 1406.432
739.2206, 1412.377
739.7027, 1410.996
740.1848, 1409.773
740.6669, 1415.475
741.1490, 1422.516
741.6312, 1424.724
742.1133, 1422.431
742.5954, 1415.432
743.0775, 1404.071
743.5596, 1395.035
744.0417, 1395.913
744.5239, 1405.376
745.0060, 1414.706
745.4881, 1424.088
745.9702, 1432.632
746.4523, 1441.744
746.9344, 1447.733
747.4166, 1446.083
747.8987, 1437.945
748.3808, 1430.538
748.8629, 1420.938
749.3450, 1416.460
749.8271, 1423.597
750.3093, 1432.100
750.7914, 1434.427
751.2735, 1431.144
751.7556, 1425.920
752.2377, 1420.306
752.7198, 1412.770
753.2020, 1398.948
753.6841, 1382.880
754.1662, 1374.214
754.6483, 1372.856
755.1304, 1373.017
755.6125, 1372.180
756.0947, 1370.440
756.5768, 1368.092
757.0589, 1365.242
757.5410, 1360.266
758.0231, 1352.435
758.5052, 1343.965
758.9874, 1335.010
759.4695, 1326.206
759.9516, 1318.722
760.4337, 1312.431
760.9158, 1304.180
761.3979, 1289.585
761.8801, 1277.662
762.3622, 1273.013
762.8443, 1271.975
763.3264, 1272.705
763.8085, 1273.418
764.2906, 1270.299
764.7728, 1260.938
765.2549, 1247.698
765.7370, 1230.862
766.2191, 1212.864
766.7012, 1201.156
767.1833, 1196.472
767.6655, 1195.857
768.1476, 1197.988
768.6297, 1201.978
769.1118, 1206.528
769.5939, 1212.375
770.0760, 1214.727
770.5582, 1210.998
771.0403, 1208.230
771.5224, 1213.534
772.0045, 1218.328
772.4866, 1208.453
772.9688, 1182.774
773.4509, 1170.985
773.9330, 1193.233
774.4151, 1213.342
774.8972, 1210.525
775.3793, 1199.647
775.8615, 1199.496
776.3436, 1210.123
776.8257, 1217.993
777.3078, 1214.528
777.7899, 1205.255
778.2720, 1194.594
778.7542, 1184.272
779.2363, 1179.927
779.7184, 1182.027
780.2005, 1186.272
780.6826, 1190.263
781.1647, 1194.010
781.6469, 1197.830
782.1290, 1202.279
782.6111, 1203.654
783.0932, 1200.367
783.5753, 1197.057
784.0574, 1194.142
784.5396, 1193.239
785.0217, 1198.277
785.5038, 1210.005
785.9859, 1215.946
786.4680, 1212.486
786.9501, 1205.714
787.4323, 1192.672
787.9144, 1180.913
788.3965, 1180.820
788.8786, 1190.295
789.3607, 1196.379
789.8428, 1190.779
790.3250, 1182.375
790.8071, 1180.030
791.2892, 1181.626
791.7713, 1183.960
792.2534, 1186.188
792.7355, 1186.200
793.2177, 1182.710
793.6998, 1177.886
794.1819, 1175.859
794.6640, 1176.755
795.1461, 1176.370
795.6282, 1175.485
796.1104, 1169.532
796.5925, 1153.753
797.0746, 1136.262
797.5567, 1128.119
798.0388, 1130.132
798.5209, 1130.878
799.0031, 1127.545
799.4852, 1126.821
799.9673, 1135.194
800.4494, 1142.202
800.9315, 1136.174
801.4136, 1121.508
801.8958, 1114.450
802.3779, 1125.194
802.8600, 1132.859
803.3421, 1118.914
803.8242, 1099.048
804.3063, 1091.650
804.7885, 1094.747
805.2706, 1098.187
805.7527, 1097.822
806.2348, 1095.571
806.7169, 1092.802
807.1990, 1090.031
807.6812, 1090.100
808.1633, 1092.843
808.6454, 1092.650
809.1275, 1087.176
809.6096, 1083.038
810.0917, 1087.911
810.5739, 1099.953
811.0560, 1104.565
811.5381, 1097.123
812.0202, 1093.592
812.5023, 1100.870
812.9844, 1106.338
813.4666, 1098.693
813.9487, 1084.914
814.4308, 1079.500
814.9129, 1086.550
815.3950, 1091.765
815.8771, 1090.156
816.3593, 1088.051
816.8414, 1089.078
817.3235, 1091.842
817.8056, 1094.542
818.2877, 1096.628
818.7698, 1097.528
819.2520, 1094.535
819.7341, 1092.534
820.2162, 1099.153
820.6983, 1110.346
821.1804, 1118.428
821.6625, 1121.908
822.1447, 1120.648
822.6268, 1113.967
823.1089, 1105.840
823.5910, 1105.015
824.0731, 1111.056
824.5552, 1112.730
825.0374, 1108.673
825.5195, 1105.692
826.0016, 1107.493
826.4837, 1110.140
826.9658, 1107.047
827.4479, 1097.270
827.9301, 1094.342
828.4122, 1106.478
828.8943, 1112.435
829.3764, 1099.845
829.8585, 1087.033
830.3406, 1088.711
830.8228, 1101.189
831.3049, 1111.229
831.7870, 1117.596
832.2691, 1119.415
832.7512, 1110.903
833.2333, 1102.879
833.7155, 1104.794
834.1976, 1112.729
834.6797, 1119.213
835.1618, 1122.002
835.6439, 1122.290
836.1260, 1117.912
836.6082, 1113.821
837.0903, 1119.077
837.5724, 1129.365
838.0545, 1132.942
838.5366, 1128.162
839.0187, 1122.786
839.5009, 1122.343
839.9830, 1125.959
840.4651, 1132.963
840.9472, 1143.052
841.4293, 1150.342
841.9114, 1154.094
842.3936, 1157.273
842.8757, 1161.985
843.3578, 1165.216
843.8399, 1160.901
844.3220, 1147.444
844.8041, 1143.173
845.2863, 1154.538
845.7684, 1163.263
846.2505, 1164.425
846.7326, 1162.079
847.2147, 1159.953
847.6968, 1157.327
848.1790, 1150.926
848.6611, 1135.488
849.1432, 1124.799
849.6253, 1124.580
850.1074, 1126.844
850.5895, 1125.433
851.0717, 1123.419
851.5538, 1127.567
852.0359, 1139.239
852.5180, 1149.650
853.0001, 1154.026
853.4822, 1154.588
853.9644, 1154.220
854.4465, 1151.001
854.9286, 1139.061
855.4107, 1119.795
855.8928, 1102.480
856.3749, 1092.422
856.8571, 1089.833
857.3392, 1099.306
857.8213, 1116.320
858.3034, 1124.767
858.7855, 1123.913
859.2676, 1120.550
859.7497, 1117.315
860.2318, 1115.100
860.7139, 1115.844
861.1960, 1118.841
861.6782, 1115.154
862.1603, 1102.850
862.6424, 1093.635
863.1245, 1089.963
863.6066, 1089.438
864.0887, 1090.139
864.5709, 1092.652
865.0530, 1099.574
865.5351, 1117.265
866.0172, 1125.146
866.4993, 1113.860
866.9814, 1103.747
867.4636, 1103.134
867.9457, 1105.897
868.4278, 1104.516
868.9099, 1098.852
869.3920, 1096.047
869.8741, 1101.661
870.3563, 1105.036
870.8384, 1097.664
871.3205, 1090.486
871.8026, 1095.285
872.2847, 1108.028
872.7668, 1118.160
873.2490, 1122.392
873.7311, 1120.580
874.2132, 1105.333
874.6953, 1090.083
875.1774, 1091.658
875.6595, 1103.540
876.1417, 1112.026
876.6238, 1113.983
877.1059, 1112.974
877.5880, 1110.834
878.0701, 1109.070
878.5522, 1110.925
879.0344, 1115.214
879.5165, 1118.597
879.9986, 1120.516
880.4807, 1119.073
880.9628, 1113.153
881.4449, 1106.289
881.9271, 1102.401
882.4092, 1101.939
882.8913, 1111.016
883.3734, 1131.048
883.8555, 1148.747
884.3376, 1161.898
884.8198, 1168.818
885.3019, 1166.599
885.7840, 1158.482
886.2661, 1155.536
886.7482, 1158.885
887.2303, 1164.413
887.7125, 1173.516
888.1946, 1182.587
888.6767, 1191.125
889.1588, 1198.279
889.6409, 1202.460
890.1230, 1203.756
890.6052, 1205.480
891.0873, 1208.105
891.5694, 1210.653
892.0515, 1211.864
892.5336, 1214.014
893.0157, 1217.673
893.4979, 1223.642
893.9800, 1235.288
894.4621, 1255.099
894.9442, 1266.911
895.4263, 1255.621
895.9084, 1244.574
896.3906, 1250.807
896.8727, 1263.848
897.3548, 1270.640
897.8369, 1270.268
898.3190, 1268.577
898.8011, 1267.406
899.2833, 1268.555
899.7654, 1277.469
900.2475, 1286.919
900.7296, 1285.994
901.2117, 1277.432
901.6938, 1269.835
902.1760, 1265.920
902.6581, 1262.867
903.1402, 1257.436
903.6223, 1252.262
904.1044, 1253.369
904.5865, 1258.706
905.0687, 1261.975
905.5508, 1262.219
906.0329, 1259.629
906.5150, 1254.088
906.9971, 1248.566
907.4792, 1249.283
907.9614, 1254.766
908.4435, 1252.303
908.9256, 1241.813
909.4077, 1233.253
909.8898, 1229.562
910.3719, 1226.609
910.8541, 1221.118
911.3362, 1213.500
911.8183, 1203.783
912.3004, 1190.031
912.7825, 1186.044
913.2646, 1196.456
913.7468, 1204.021
914.2289, 1200.768
914.7110, 1193.148
915.1931, 1189.708
915.6752, 1190.142
916.1573, 1184.386
916.6395, 1169.725
917.1216, 1153.886
917.6037, 1134.016
918.0858, 1117.548
918.5679, 1111.109
919.0500, 1109.822
919.5322, 1104.991
920.0143, 1095.686
920.4964, 1087.674
920.9785, 1081.074
921.4606, 1076.128
921.9427, 1072.935
922.4249, 1071.421
922.9070, 1072.792
923.3891, 1075.682
923.8712, 1076.523
924.3533, 1074.806
924.8354, 1070.410
925.3176, 1062.797
925.7997, 1053.028
926.2818, 1035.527
926.7639, 1019.889
927.2460, 1022.762
927.7281, 1041.395
928.2103, 1050.928
928.6924, 1037.379
929.1745, 1019.612
929.6566, 1004.717
930.1387, 994.9021
930.6208, 995.0402
931.1030, 1001.177
931.5851, 1006.235
932.0672, 1008.084
932.5493, 1007.258
933.0314, 1002.458
933.5135, 997.1213
933.9957, 994.9522
934.4778, 994.7045
934.9599, 994.5511
935.4420, 994.3348
935.9241, 995.4232
936.4063, 998.3553
936.8884, 998.6205
937.3705, 985.7570
937.8526, 970.3768
938.3347, 976.8053
938.8168, 996.9724
939.2990, 1005.683
939.7811, 999.6667
940.2632, 992.4720
940.7453, 992.3006
941.2274, 995.6374
941.7095, 995.9272
942.1917, 995.2050
942.6738, 1004.378
943.1559, 1021.557
943.6380, 1029.115
944.1201, 1022.239
944.6022, 1009.801
945.0844, 998.0322
945.5665, 989.2618
946.0486, 991.3190
946.5307, 1003.373
947.0128, 1012.149
947.4949, 1016.817
947.9771, 1018.557
948.4592, 1017.456
948.9413, 1015.877
949.4234, 1016.523
949.9055, 1018.784
950.3876, 1019.059
950.8698, 1016.720
951.3519, 1019.732
951.8340, 1031.021
952.3161, 1036.483
952.7982, 1026.845
953.2803, 1014.298
953.7625, 1018.203
954.2446, 1037.580
954.7267, 1042.204
955.2088, 1026.252
955.6909, 1016.901
956.1730, 1020.908
956.6552, 1025.740
957.1373, 1023.502
957.6194, 1017.860
958.1015, 1016.311
958.5836, 1019.972
959.0657, 1018.407
959.5479, 1007.313
960.0300, 1000.584
960.5121, 1003.432
960.9942, 1008.040
961.4763, 1009.516
961.9584, 1008.353
962.4406, 1005.936
962.9227, 1002.815
963.4048, 996.3615
963.8869, 978.7724
964.3690, 969.6967
964.8511, 979.8958
965.3333, 994.9307
965.8154, 1004.548
966.2975, 1009.068
966.7796, 1009.948
967.2617, 1007.718
967.7438, 1000.663
968.2260, 975.5034
968.7081, 962.0397
969.1902, 984.2479
969.6723, 1011.659
970.1544, 1010.903
970.6365, 987.0510
971.1187, 973.7256
971.6008, 980.0291
972.0829, 985.5535
972.5650, 987.6422
973.0471, 989.0234
973.5292, 992.3483
974.0114, 994.6980
974.4935, 989.8548
974.9756, 979.1544
975.4577, 976.9170
975.9398, 997.2969
976.4219, 1008.329
976.9041, 994.0380
977.3862, 979.5596
977.8683, 983.0643
978.3504, 993.0104
978.8325, 990.6132
979.3146, 975.1934
979.7968, 966.6271
980.2789, 978.5402
980.7610, 985.6999
981.2431, 975.0078
981.7252, 963.2123
982.2073, 960.1479
982.6895, 964.5208
983.1716, 976.1728
983.6537, 994.4940
984.1358, 1004.455
984.6179, 992.7393
985.1000, 983.2111
985.5822, 988.2943
986.0643, 995.7308
986.5464, 996.4666
987.0285, 992.1553
987.5106, 986.4274
987.9927, 980.0118
988.4749, 975.1248
988.9570, 974.6934
989.4391, 973.2618
989.9212, 965.1602
990.4033, 957.8508
990.8854, 960.5607
991.3676, 968.3104
991.8497, 969.2432
992.3318, 960.5044
992.8139, 953.1891
993.2960, 947.9702
993.7781, 949.9960
994.2603, 969.6612
994.7424, 991.2914
995.2245, 999.7172
995.7066, 997.9952
996.1887, 995.6186
996.6708, 994.9626
997.1530, 993.3210
997.6351, 987.7047
998.1172, 982.9534
998.5993, 983.3260
999.0814, 984.6443
999.5635, 979.8610
1000.046, 973.0116
1000.528, 976.1758
1001.010, 993.6137
1001.492, 1007.595
1001.974, 1008.833
1002.456, 1005.840
1002.938, 999.6597
1003.420, 994.7345
1003.903, 998.8898
1004.385, 1007.462
1004.867, 1006.602
1005.349, 991.4478
1005.831, 978.8138
1006.313, 973.7709
1006.795, 976.3555
1007.277, 994.1708
1007.759, 1013.665
1008.242, 1020.253
1008.724, 1016.369
1009.206, 1012.086
1009.688, 1010.186
1010.170, 1006.931
1010.652, 996.9753
1011.134, 989.6419
1011.616, 992.2401
1012.099, 998.4479
1012.581, 1003.290
1013.063, 1005.906
1013.545, 1005.759
1014.027, 1002.356
1014.509, 999.1187
1014.991, 996.3310
1015.473, 995.3659
1015.955, 999.2383
1016.438, 1003.399
1016.920, 1001.715
1017.402, 996.8872
1017.884, 998.3300
1018.366, 1009.995
1018.848, 1013.562
1019.330, 992.6193
1019.812, 974.5546
1020.294, 974.5637
1020.777, 981.3954
1021.259, 987.0061
1021.741, 990.1176
1022.223, 989.7613
1022.705, 985.3209
1023.187, 980.9413
1023.669, 978.5431
1024.151, 975.5719
1024.634, 968.1249
1025.116, 962.3011
1025.598, 964.7071
1026.080, 972.2861
1026.562, 977.4138
1027.044, 978.3086
1027.526, 981.5051
1028.008, 994.1406
1028.490, 1001.654
1028.973, 994.9106
1029.455, 985.6698
1029.937, 982.0590
1030.419, 982.7047
1030.901, 984.7302
1031.383, 988.3433
1031.865, 988.7139
1032.347, 983.3968
1032.830, 977.2095
1033.312, 965.0735
1033.794, 958.7534
1034.276, 973.1975
1034.758, 995.7336
1035.240, 1002.256
1035.722, 989.6148
1036.204, 981.3254
1036.687, 983.3073
1037.169, 983.1555
1037.651, 975.6631
1038.133, 969.3928
1038.615, 973.5490
1039.097, 979.4228
1039.579, 970.2893
1040.061, 944.7710
1040.543, 934.9106
1041.026, 951.9279
1041.508, 964.8763
1041.990, 971.9219
1042.472, 973.0150
1042.954, 964.3113
1043.436, 953.2592
1043.918, 951.5350
1044.400, 958.3817
1044.882, 954.5805
1045.365, 931.0862
1045.847, 920.5244
1046.329, 931.1747
1046.811, 942.1632
1047.293, 944.5695
1047.775, 943.3729
1048.257, 944.1561
1048.739, 946.5746
1049.222, 947.7823
1049.704, 946.3866
1050.186, 950.6785
1050.668, 963.4359
1051.150, 973.3573
1051.632, 976.2305
1052.114, 975.0737
1052.596, 972.6387
1053.078, 968.8814
1053.561, 962.0716
1054.043, 951.3078
1054.525, 952.0499
1055.007, 966.3141
1055.489, 977.3000
1055.971, 979.9070
1056.453, 977.3013
1056.935, 970.9509
1057.417, 964.6146
1057.900, 967.5677
1058.382, 979.0737
1058.864, 991.3996
1059.346, 1004.135
1059.828, 1012.571
1060.310, 1015.654
1060.792, 1015.887
1061.274, 1014.772
1061.757, 1012.866
1062.239, 1011.232
1062.721, 1009.506
1063.203, 1003.043
1063.685, 995.0229
1064.167, 1003.341
1064.649, 1027.849
1065.131, 1045.184
1065.614, 1043.334
1066.096, 1035.168
1066.578, 1036.825
1067.060, 1041.121
1067.542, 1030.183
1068.024, 1013.500
1068.506, 1014.259
1068.988, 1030.368
1069.470, 1043.671
1069.953, 1047.380
1070.435, 1048.172
1070.917, 1053.087
1071.399, 1055.617
1071.881, 1043.618
1072.363, 1028.591
1072.845, 1026.910
1073.327, 1035.072
1073.809, 1042.954
1074.292, 1047.810
1074.774, 1051.085
1075.256, 1052.818
1075.738, 1054.606
1076.220, 1058.130
1076.702, 1061.518
1077.184, 1061.754
1077.666, 1061.595
1078.148, 1067.207
1078.631, 1077.313
1079.113, 1080.918
1079.595, 1070.597
1080.077, 1063.712
1080.559, 1071.962
1081.041, 1077.896
1081.523, 1069.046
1082.005, 1056.310
1082.488, 1049.956
1082.970, 1049.640
1083.452, 1052.193
1083.934, 1059.189
1084.416, 1062.631
1084.898, 1059.724
1085.380, 1056.164
1085.862, 1050.059
1086.344, 1047.220
1086.827, 1054.160
1087.309, 1065.434
1087.791, 1070.903
1088.273, 1070.544
1088.755, 1063.925
1089.237, 1046.312
1089.719, 1035.535
1090.201, 1036.371
1090.683, 1037.863
1091.166, 1034.098
1091.648, 1029.371
1092.130, 1029.640
1092.612, 1033.855
1093.094, 1035.830
1093.576, 1035.514
1094.058, 1032.905
1094.540, 1027.795
1095.023, 1023.755
1095.505, 1022.086
1095.987, 1021.369
1096.469, 1020.556
1096.951, 1019.136
1097.433, 1013.810
1097.915, 1006.832
1098.397, 1012.792
1098.880, 1028.236
1099.362, 1029.999
1099.844, 1015.163
1100.326, 1004.655
1100.808, 1011.448
1101.290, 1020.250
1101.772, 1007.230
1102.254, 988.7625
1102.736, 997.4112
1103.219, 1017.843
1103.701, 1017.270
1104.183, 999.1356
1104.665, 989.2813
1105.147, 996.4704
1105.629, 1004.571
1106.111, 1000.641
1106.593, 996.1613
1107.075, 1001.547
1107.558, 1008.714
1108.040, 1007.766
1108.522, 1003.785
1109.004, 1008.011
1109.486, 1020.506
1109.968, 1027.768
1110.450, 1022.610
1110.932, 1018.055
1111.415, 1016.809
1111.897, 1018.127
1112.379, 1025.897
1112.861, 1032.648
1113.343, 1028.532
1113.825, 1016.960
1114.307, 1011.615
1114.789, 1014.580
1115.271, 1017.275
1115.754, 1022.049
1116.236, 1021.746
1116.718, 1012.869
1117.200, 1002.203
1117.682, 991.9844
1118.164, 985.3398
1118.646, 988.6908
1119.128, 1000.830
1119.610, 1004.841
1120.093, 999.7144
1120.575, 997.5208
1121.057, 999.6694
1121.539, 1002.263
1122.021, 1003.980
1122.503, 1002.414
1122.985, 994.3977
1123.467, 984.3351
1123.950, 982.9440
1124.432, 987.5686
1124.914, 990.5409
1125.396, 990.7319
1125.878, 982.9885
1126.360, 968.3255
1126.842, 959.2551
1127.324, 962.9266
1127.807, 966.5218
1128.289, 953.2126
1128.771, 936.9312
1129.253, 936.3662
1129.735, 941.3833
1130.217, 936.0763
1130.699, 924.1279
1131.181, 919.3112
1131.663, 924.5109
1132.146, 927.4301
1132.628, 918.2205
1133.110, 912.3242
1133.592, 924.3233
1134.074, 932.2132
1134.556, 914.4684
1135.038, 890.1366
1135.520, 883.8299
1136.002, 893.3563
1136.485, 899.7553
1136.967, 901.8670
1137.449, 900.7748
1137.931, 896.1493
1138.413, 888.4530
1138.895, 874.4481
1139.377, 863.9862
1139.859, 865.5066
1140.342, 870.8273
1140.824, 865.5667
1141.306, 850.6983
1141.788, 837.4994
1142.270, 825.7969
1142.752, 820.1677
1143.234, 821.1454
1143.716, 821.1702
1144.198, 817.4124
1144.681, 813.9307
1145.163, 814.3185
1145.645, 817.0585
1146.127, 821.5953
1146.609, 825.4750
1147.091, 820.2943
1147.573, 810.0319
1148.055, 806.7789
1148.537, 810.5814
1149.020, 811.3328
1149.502, 804.5265
1149.984, 799.1901
1150.466, 807.7652
1150.948, 813.3335
1151.430, 795.4446
1151.912, 775.4650
1152.394, 777.6965
1152.877, 791.4556
1153.359, 796.8767
1153.841, 791.7468
1154.323, 784.3781
1154.805, 771.6313
1155.287, 765.9712
1155.769, 775.9562
1156.251, 783.9390
1156.734, 783.1921
1157.216, 779.7992
1157.698, 777.0692
1158.180, 776.0902
1158.662, 780.8510
1159.144, 791.9704
1159.626, 788.3976
1160.108, 766.7477
1160.590, 758.0447
1161.073, 767.5333
1161.555, 776.6938
1162.037, 777.7295
1162.519, 775.8017
1163.001, 776.0601
1163.483, 776.5328
1163.965, 772.9340
1164.447, 766.4366
1164.929, 757.4437
1165.412, 748.7969
1165.894, 750.3027
1166.376, 760.9354
1166.858, 768.7555
1167.340, 768.5223
1167.822, 764.8148
1168.304, 755.1423
1168.786, 750.3012
1169.269, 766.0073
1169.751, 782.7015
1170.233, 778.7915
1170.715, 764.6153
1171.197, 759.0886
1171.679, 763.3958
1172.161, 766.3834
1172.643, 764.7166
1173.125, 765.0645
1173.608, 770.0873
1174.090, 773.4209
1174.572, 772.6143
1175.054, 771.1877
1175.536, 771.9504
1176.018, 773.0071
1176.500, 770.2079
1176.982, 764.2678
1177.464, 765.2870
1177.947, 773.2224
1178.429, 775.0530
1178.911, 769.7293
1179.393, 762.4437
1179.875, 755.1698
1180.357, 750.9195
1180.839, 752.3546
1181.321, 756.0956
1181.804, 759.0048
1182.286, 760.1509
1182.768, 757.8329
1183.250, 752.8969
1183.732, 744.6072
1184.214, 735.5377
1184.696, 732.5135
1185.178, 737.2905
1185.661, 742.5798
1186.143, 746.2776
1186.625, 748.3878
1187.107, 746.8907
1187.589, 746.1965
1188.071, 752.1390
1188.553, 757.2560
1189.035, 751.4639
1189.517, 738.9377
1190.000, 732.0269
1190.482, 731.0040
1190.964, 734.6071
1191.446, 744.7825
1191.928, 749.3741
1192.410, 745.4941
1192.892, 745.5147
1193.374, 755.9691
1193.856, 762.4052
1194.339, 747.1981
1194.821, 725.1678
1195.303, 730.7299
1195.785, 751.5490
1196.267, 757.3760
1196.749, 751.6308
1197.231, 745.5126
1197.713, 741.3929
1198.196, 737.8134
1198.678, 734.1800
1199.160, 733.8640
1199.642, 744.7630
1200.124, 751.6296
1200.606, 740.8271
1201.088, 729.0493
1201.570, 730.6442
1202.052, 736.8245
1202.535, 733.6908
1203.017, 723.5919
1203.499, 722.5833
1203.981, 734.4741
1204.463, 739.6578
1204.945, 736.5317
1205.427, 730.6728
1205.909, 721.4127
1206.391, 718.4789
1206.874, 727.7534
1207.356, 738.4455
1207.838, 737.5814
1208.320, 731.0693
1208.802, 735.0387
1209.284, 743.9518
1209.766, 739.1332
1210.248, 725.6536
1210.731, 720.1140
1211.213, 723.8482
1211.695, 729.3773
1212.177, 733.8280
1212.659, 734.2460
1213.141, 724.6580
1213.623, 716.2496
1214.105, 716.3710
1214.587, 718.1476
1215.070, 715.6596
1215.552, 712.8154
1216.034, 715.8550
1216.516, 723.1392
1216.998, 727.0253
1217.480, 726.6409
1217.962, 727.6701
1218.444, 730.7917
1218.927, 733.0281
1219.409, 734.3978
1219.891, 730.0488
1220.373, 716.9974
1220.855, 706.3975
1221.337, 709.7244
1221.819, 721.0908
1222.301, 733.8647
1222.783, 743.8700
1223.266, 738.4402
1223.748, 724.5049
1224.230, 715.8236
1224.712, 714.1099
1225.194, 718.0715
1225.676, 727.0428
1226.158, 732.9080
1226.640, 729.8525
1227.122, 726.2084
1227.605, 724.6148
1228.087, 723.2909
1228.569, 720.1307
1229.051, 718.0271
1229.533, 719.7185
1230.015, 724.1621
1230.497, 729.8290
1230.979, 736.7065
1231.462, 736.3929
1231.944, 728.5522
1232.426, 718.7438
1232.908, 707.7327
1233.390, 701.7496
1233.872, 702.4643
1234.354, 702.7918
1234.836, 697.5559
1235.318, 691.1400
1235.801, 687.7342
1236.283, 686.9602
1236.765, 689.2774
1237.247, 693.2889
1237.729, 698.1625
1238.211, 702.9483
1238.693, 705.3994
1239.175, 705.7625
1239.657, 709.3947
1240.140, 722.2780
1240.622, 727.0381
1241.104, 717.8202
1241.586, 709.7787
1242.068, 705.2269
1242.550, 704.9512
1243.032, 710.5561
1243.514, 716.9283
1243.997, 717.1358
1244.479, 713.4591
1244.961, 713.5012
1245.443, 715.4592
1245.925, 709.9270
1246.407, 700.4387
1246.889, 700.4494
1247.371, 710.0091
1247.854, 720.1708
1248.336, 727.3876
1248.818, 729.1818
1249.300, 720.1013
1249.782, 711.0061
1250.264, 704.6348
1250.746, 702.3312
1251.228, 707.9799
1251.710, 715.3718
1252.193, 718.5063
1252.675, 718.6600
1253.157, 718.4072
1253.639, 717.7493
1254.121, 718.9030
1254.603, 721.9258
1255.085, 727.6081
1255.567, 735.6511
1256.049, 732.1387
1256.532, 714.0805
1257.014, 698.2925
1257.496, 695.4308
1257.978, 699.2832
1258.460, 707.8654
1258.942, 714.7968
1259.424, 711.4064
1259.906, 704.5869
1260.389, 700.4292
1260.871, 699.0253
1261.353, 699.8577
1261.835, 702.5820
1262.317, 706.2365
1262.799, 711.8986
1263.281, 713.9695
1263.763, 711.2060
1264.245, 707.7061
##END=



