##NAMES=Muscovite
##RRUFFID=R040124
##IDEAL CHEMISTRY=KAl_2_(Si_3_Al)O_10_(OH)_2_
##LOCALITY=Garnet Hill, Pennsylvania, USA
##OWNER=RRUFF
##SOURCE=Bob Downs
##DESCRIPTION=Grayish green mica book
##STATUS=The identification of this mineral has been confirmed by X-ray diffraction and chemical analysis
##URL=rruff.info/R040124
##MEASURED CHEMISTRY=(K_0.90_Na_0.07_)(Al_0.86_Fe_0.10_Mg_0.04_)_2_(Si_0.76_Al_0.24_)_4_O_10_((OH)_0.99_F_0.01_)_2_
143.3943, 1365.896
143.8764, 1394.533
144.3585, 1424.599
144.8407, 1454.639
145.3228, 1481.735
145.8049, 1510.848
146.2870, 1547.154
146.7691, 1601.324
147.2512, 1648.040
147.7334, 1679.336
148.2155, 1690.272
148.6976, 1709.447
149.1797, 1747.022
149.6618, 1789.988
150.1439, 1820.874
150.6261, 1823.587
151.1082, 1828.311
151.5903, 1842.695
152.0724, 1869.879
152.5545, 1900.055
153.0366, 1935.863
153.5188, 1973.976
154.0009, 2007.713
154.4830, 2039.551
154.9651, 2064.620
155.4472, 2080.449
155.9293, 2079.552
156.4115, 2079.993
156.8936, 2083.166
157.3757, 2089.906
157.8578, 2103.016
158.3399, 2126.032
158.8221, 2154.093
159.3042, 2184.299
159.7863, 2224.641
160.2684, 2258.513
160.7505, 2274.536
161.2326, 2275.661
161.7148, 2283.574
162.1969, 2316.848
162.6790, 2357.822
163.1611, 2389.043
163.6432, 2399.115
164.1253, 2402.849
164.6075, 2406.157
165.0896, 2409.182
165.5717, 2414.277
166.0538, 2426.938
166.5359, 2441.768
167.0180, 2451.120
167.5002, 2445.344
167.9823, 2437.040
168.4644, 2437.629
168.9465, 2449.454
169.4286, 2459.675
169.9107, 2459.715
170.3929, 2451.253
170.8750, 2437.800
171.3571, 2413.842
171.8392, 2389.085
172.3213, 2376.441
172.8034, 2381.159
173.2856, 2386.416
173.7677, 2371.713
174.2498, 2342.839
174.7319, 2319.921
175.2140, 2324.015
175.6961, 2339.679
176.1783, 2341.553
176.6604, 2319.933
177.1425, 2292.420
177.6246, 2280.492
178.1067, 2282.654
178.5888, 2288.452
179.0710, 2288.675
179.5531, 2286.941
180.0352, 2291.510
180.5173, 2305.282
180.9994, 2325.301
181.4815, 2347.224
181.9637, 2371.225
182.4458, 2396.604
182.9279, 2423.726
183.4100, 2452.138
183.8921, 2480.320
184.3742, 2506.084
184.8564, 2532.174
185.3385, 2565.331
185.8206, 2606.270
186.3027, 2649.064
186.7848, 2686.966
187.2669, 2720.856
187.7491, 2758.743
188.2312, 2805.582
188.7133, 2858.476
189.1954, 2907.477
189.6775, 2951.771
190.1596, 2994.442
190.6418, 3041.240
191.1239, 3091.772
191.6060, 3138.791
192.0881, 3183.052
192.5702, 3223.170
193.0524, 3244.375
193.5345, 3243.341
194.0166, 3232.008
194.4987, 3230.332
194.9808, 3239.354
195.4629, 3242.301
195.9451, 3229.224
196.4272, 3200.292
196.9093, 3171.943
197.3914, 3144.242
197.8735, 3117.820
198.3556, 3094.819
198.8378, 3076.014
199.3199, 3056.240
199.8020, 3031.343
200.2841, 3000.900
200.7662, 2975.347
201.2483, 2956.521
201.7305, 2941.781
202.2126, 2923.187
202.6947, 2898.623
203.1768, 2878.107
203.6589, 2869.740
204.1410, 2875.767
204.6232, 2878.678
205.1053, 2877.127
205.5874, 2871.399
206.0695, 2859.487
206.5516, 2836.578
207.0337, 2820.130
207.5159, 2825.419
207.9980, 2857.903
208.4801, 2885.338
208.9622, 2902.335
209.4443, 2911.306
209.9264, 2923.831
210.4086, 2940.204
210.8907, 2959.634
211.3728, 2982.961
211.8549, 3013.415
212.3370, 3036.587
212.8191, 3046.673
213.3013, 3046.306
213.7834, 3061.589
214.2655, 3102.551
214.7476, 3143.128
215.2297, 3159.816
215.7118, 3146.692
216.1940, 3126.365
216.6761, 3102.903
217.1582, 3076.048
217.6403, 3040.788
218.1224, 2994.856
218.6045, 2944.128
219.0867, 2894.872
219.5688, 2850.770
220.0509, 2799.633
220.5330, 2736.384
221.0151, 2659.677
221.4972, 2597.404
221.9794, 2556.112
222.4615, 2521.333
222.9436, 2475.778
223.4257, 2411.314
223.9078, 2352.323
224.3899, 2306.383
224.8721, 2274.051
225.3542, 2239.129
225.8363, 2199.049
226.3184, 2158.529
226.8005, 2121.909
227.2827, 2088.091
227.7648, 2060.943
228.2469, 2042.695
228.7290, 2034.627
229.2111, 2025.923
229.6932, 2016.249
230.1754, 2006.312
230.6575, 1996.327
231.1396, 1983.818
231.6217, 1975.791
232.1038, 1974.123
232.5859, 1979.114
233.0681, 1989.810
233.5502, 2011.255
234.0323, 2034.736
234.5144, 2046.300
234.9965, 2035.664
235.4786, 2030.440
235.9608, 2040.447
236.4429, 2069.524
236.9250, 2094.787
237.4071, 2112.528
237.8892, 2128.590
238.3713, 2151.797
238.8535, 2181.809
239.3356, 2219.650
239.8177, 2267.187
240.2998, 2327.898
240.7819, 2384.968
241.2640, 2436.099
241.7462, 2485.838
242.2283, 2542.751
242.7104, 2610.231
243.1925, 2679.192
243.6746, 2744.700
244.1567, 2801.599
244.6389, 2874.290
245.1210, 2965.837
245.6031, 3071.024
246.0852, 3179.380
246.5673, 3286.169
247.0494, 3404.256
247.5316, 3539.345
248.0137, 3695.472
248.4958, 3854.332
248.9779, 4006.872
249.4600, 4166.574
249.9421, 4355.282
250.4243, 4580.998
250.9064, 4823.397
251.3885, 5074.965
251.8706, 5334.820
252.3527, 5609.025
252.8348, 5888.334
253.3170, 6186.684
253.7991, 6534.184
254.2812, 6946.157
254.7633, 7370.788
255.2454, 7792.017
255.7275, 8206.286
256.2097, 8618.082
256.6918, 9029.724
257.1739, 9432.646
257.6560, 9821.358
258.1381, 10212.83
258.6202, 10556.48
259.1024, 10839.12
259.5845, 11058.78
260.0666, 11216.84
260.5487, 11319.32
261.0308, 11354.91
261.5129, 11303.26
261.9951, 11156.61
262.4772, 10941.77
262.9593, 10664.28
263.4414, 10312.64
263.9235, 9939.401
264.4056, 9533.770
264.8878, 9112.051
265.3699, 8689.732
265.8520, 8257.201
266.3341, 7841.184
266.8162, 7446.542
267.2983, 7077.088
267.7805, 6726.308
268.2626, 6396.744
268.7447, 6086.372
269.2268, 5790.056
269.7089, 5505.091
270.1910, 5245.059
270.6732, 5017.239
271.1553, 4825.917
271.6374, 4634.560
272.1195, 4439.780
272.6016, 4249.538
273.0837, 4083.802
273.5659, 3944.031
274.0480, 3817.125
274.5301, 3697.642
275.0122, 3586.142
275.4943, 3482.354
275.9764, 3386.398
276.4586, 3297.936
276.9407, 3217.188
277.4228, 3145.644
277.9049, 3077.415
278.3870, 3009.954
278.8691, 2943.549
279.3513, 2886.638
279.8334, 2841.750
280.3155, 2799.858
280.7976, 2746.163
281.2798, 2680.424
281.7619, 2619.435
282.2440, 2570.899
282.7261, 2533.312
283.2082, 2495.482
283.6903, 2457.319
284.1725, 2419.249
284.6546, 2380.094
285.1367, 2340.390
285.6188, 2305.323
286.1009, 2275.339
286.5830, 2251.386
287.0652, 2242.040
287.5473, 2249.993
288.0294, 2256.987
288.5115, 2236.387
288.9936, 2192.157
289.4757, 2158.344
289.9579, 2152.818
290.4400, 2164.108
290.9221, 2159.068
291.4042, 2136.753
291.8863, 2109.894
292.3684, 2088.297
292.8506, 2072.237
293.3327, 2062.735
293.8148, 2062.804
294.2969, 2067.997
294.7790, 2070.412
295.2611, 2070.045
295.7433, 2067.095
296.2254, 2061.023
296.7075, 2052.355
297.1896, 2042.814
297.6717, 2032.398
298.1538, 2021.566
298.6360, 2007.678
299.1181, 1991.485
299.6002, 1983.354
300.0823, 1997.466
300.5644, 2024.514
301.0465, 2046.933
301.5287, 2058.930
302.0108, 2065.938
302.4929, 2075.406
302.9750, 2086.146
303.4571, 2090.828
303.9392, 2076.970
304.4214, 2056.396
304.9035, 2045.306
305.3856, 2050.798
305.8677, 2061.935
306.3498, 2070.231
306.8319, 2076.391
307.3141, 2083.090
307.7962, 2094.068
308.2783, 2105.232
308.7604, 2112.722
309.2425, 2115.345
309.7246, 2114.733
310.2068, 2105.530
310.6889, 2093.100
311.1710, 2091.171
311.6531, 2124.451
312.1352, 2159.744
312.6173, 2168.721
313.0995, 2137.159
313.5816, 2107.487
314.0637, 2100.300
314.5458, 2108.684
315.0279, 2119.447
315.5100, 2132.383
315.9922, 2142.718
316.4743, 2147.262
316.9564, 2144.520
317.4385, 2140.682
317.9206, 2136.680
318.4027, 2133.052
318.8849, 2130.552
319.3670, 2130.473
319.8491, 2130.594
320.3312, 2130.609
320.8133, 2130.815
321.2954, 2128.825
321.7776, 2120.976
322.2597, 2111.918
322.7418, 2106.615
323.2239, 2112.124
323.7060, 2115.115
324.1881, 2113.362
324.6703, 2106.881
325.1524, 2094.197
325.6345, 2063.945
326.1166, 2033.547
326.5987, 2016.813
327.0808, 2025.810
327.5630, 2034.432
328.0451, 2041.521
328.5272, 2046.860
329.0093, 2045.318
329.4914, 2030.829
329.9735, 2015.022
330.4557, 2005.656
330.9378, 2006.752
331.4199, 2007.290
331.9020, 2006.120
332.3841, 2003.681
332.8662, 2002.511
333.3484, 2004.617
333.8305, 2004.961
334.3126, 1999.235
334.7947, 1982.967
335.2768, 1976.056
335.7589, 1985.622
336.2411, 2001.702
336.7232, 1994.368
337.2053, 1952.689
337.6874, 1919.722
338.1695, 1922.545
338.6516, 1967.510
339.1338, 1990.392
339.6159, 1984.328
340.0980, 1964.835
340.5801, 1957.356
341.0622, 1962.703
341.5443, 1972.206
342.0265, 1984.903
342.5086, 1999.845
342.9907, 2008.147
343.4728, 2008.674
343.9549, 2006.724
344.4370, 2008.280
344.9192, 2013.118
345.4013, 2019.403
345.8834, 2026.900
346.3655, 2035.206
346.8476, 2042.639
347.3297, 2049.110
347.8119, 2056.274
348.2940, 2064.437
348.7761, 2074.360
349.2582, 2088.269
349.7403, 2108.500
350.2225, 2131.592
350.7046, 2153.595
351.1867, 2174.596
351.6688, 2193.747
352.1509, 2208.815
352.6331, 2222.114
353.1152, 2237.371
353.5973, 2256.360
354.0794, 2275.709
354.5615, 2292.108
355.0436, 2306.324
355.5258, 2320.701
356.0079, 2332.967
356.4900, 2347.928
356.9721, 2371.796
357.4542, 2408.990
357.9363, 2443.332
358.4185, 2464.339
358.9006, 2476.503
359.3827, 2487.602
359.8648, 2494.713
360.3469, 2506.258
360.8290, 2527.466
361.3112, 2559.773
361.7933, 2595.137
362.2754, 2637.111
362.7575, 2678.793
363.2396, 2712.823
363.7217, 2728.245
364.2039, 2744.677
364.6860, 2767.119
365.1681, 2795.864
365.6502, 2826.347
366.1323, 2863.910
366.6144, 2899.742
367.0966, 2927.796
367.5787, 2939.032
368.0608, 2952.955
368.5429, 2970.070
369.0250, 2990.693
369.5071, 3016.479
369.9893, 3053.602
370.4714, 3088.589
370.9535, 3113.704
371.4356, 3120.457
371.9177, 3136.999
372.3998, 3169.384
372.8820, 3208.945
373.3641, 3234.958
373.8462, 3242.573
374.3283, 3249.095
374.8104, 3261.237
375.2925, 3279.607
375.7747, 3297.361
376.2568, 3313.856
376.7389, 3331.296
377.2210, 3354.971
377.7031, 3385.772
378.1852, 3409.292
378.6674, 3416.811
379.1495, 3413.785
379.6316, 3425.761
380.1137, 3453.834
380.5958, 3486.082
381.0779, 3511.601
381.5601, 3531.761
382.0422, 3550.912
382.5243, 3568.954
383.0064, 3588.490
383.4885, 3617.256
383.9706, 3653.857
384.4528, 3686.007
384.9349, 3698.607
385.4170, 3703.242
385.8991, 3718.975
386.3812, 3749.123
386.8633, 3789.564
387.3455, 3842.819
387.8276, 3903.577
388.3097, 3960.626
388.7918, 4005.592
389.2739, 4045.667
389.7560, 4085.406
390.2382, 4124.932
390.7203, 4166.900
391.2024, 4216.630
391.6845, 4268.086
392.1666, 4314.949
392.6487, 4340.736
393.1309, 4374.713
393.6130, 4431.934
394.0951, 4510.772
394.5772, 4588.519
395.0593, 4664.565
395.5414, 4734.551
396.0236, 4794.928
396.5057, 4818.795
396.9878, 4864.701
397.4699, 4952.848
397.9520, 5068.809
398.4341, 5166.424
398.9163, 5237.717
399.3984, 5298.680
399.8805, 5352.319
400.3626, 5391.713
400.8447, 5445.455
401.3268, 5522.608
401.8090, 5607.354
402.2911, 5679.202
402.7732, 5735.570
403.2553, 5783.602
403.7374, 5822.658
404.2195, 5853.435
404.7017, 5890.938
405.1838, 5939.257
405.6659, 5983.573
406.1480, 6009.807
406.6301, 6017.953
407.1122, 6019.556
407.5944, 6016.452
408.0765, 6008.176
408.5586, 5995.250
409.0407, 5977.578
409.5228, 5950.289
410.0049, 5905.743
410.4871, 5849.331
410.9692, 5797.472
411.4513, 5753.825
411.9334, 5705.939
412.4155, 5634.645
412.8976, 5545.617
413.3798, 5458.351
413.8619, 5385.190
414.3440, 5314.680
414.8261, 5234.758
415.3082, 5144.733
415.7903, 5047.754
416.2725, 4932.748
416.7546, 4816.116
417.2367, 4714.542
417.7188, 4652.414
418.2009, 4588.118
418.6830, 4499.432
419.1652, 4392.065
419.6473, 4290.421
420.1294, 4204.531
420.6115, 4124.244
421.0937, 4041.562
421.5758, 3950.871
422.0579, 3871.360
422.5400, 3815.812
423.0221, 3770.642
423.5042, 3712.132
423.9864, 3622.072
424.4685, 3538.932
424.9506, 3471.305
425.4327, 3421.173
425.9148, 3372.737
426.3969, 3326.175
426.8791, 3281.129
427.3612, 3238.345
427.8433, 3199.263
428.3254, 3158.248
428.8075, 3114.434
429.2896, 3068.299
429.7718, 3021.110
430.2539, 2971.797
430.7360, 2926.490
431.2181, 2891.095
431.7002, 2864.856
432.1823, 2835.185
432.6645, 2799.732
433.1466, 2766.510
433.6287, 2751.476
434.1108, 2750.700
434.5929, 2744.351
435.0750, 2720.935
435.5572, 2688.353
436.0393, 2661.273
436.5214, 2639.334
437.0035, 2614.714
437.4856, 2573.881
437.9677, 2528.987
438.4499, 2498.546
438.9320, 2494.411
439.4141, 2493.610
439.8962, 2478.857
440.3783, 2454.659
440.8604, 2432.199
441.3426, 2416.561
441.8247, 2404.246
442.3068, 2395.463
442.7889, 2392.435
443.2710, 2382.178
443.7531, 2355.029
444.2353, 2321.341
444.7174, 2292.088
445.1995, 2271.940
445.6816, 2253.318
446.1637, 2234.484
446.6458, 2215.836
447.1280, 2200.236
447.6101, 2189.089
448.0922, 2179.397
448.5743, 2168.842
449.0564, 2154.017
449.5385, 2148.750
450.0207, 2159.277
450.5028, 2174.155
450.9849, 2168.928
451.4670, 2139.311
451.9491, 2111.580
452.4312, 2096.230
452.9134, 2091.863
453.3955, 2087.919
453.8776, 2084.715
454.3597, 2079.843
454.8418, 2068.849
455.3239, 2053.583
455.8061, 2041.548
456.2882, 2032.790
456.7703, 2030.381
457.2524, 2045.741
457.7345, 2073.660
458.2166, 2093.125
458.6988, 2085.013
459.1809, 2065.014
459.6630, 2047.601
460.1451, 2033.317
460.6272, 2027.606
461.1093, 2042.563
461.5915, 2065.441
462.0736, 2080.094
462.5557, 2074.106
463.0378, 2065.957
463.5199, 2062.260
464.0020, 2062.540
464.4842, 2062.180
464.9663, 2054.268
465.4484, 2049.926
465.9305, 2055.994
466.4126, 2085.570
466.8947, 2102.823
467.3769, 2102.200
467.8590, 2091.698
468.3411, 2084.408
468.8232, 2083.039
469.3053, 2079.340
469.7874, 2069.641
470.2696, 2054.538
470.7517, 2045.326
471.2338, 2042.840
471.7159, 2043.689
472.1980, 2045.498
472.6801, 2048.270
473.1623, 2051.939
473.6444, 2057.015
474.1265, 2062.017
474.6086, 2066.473
475.0907, 2069.594
475.5728, 2066.284
476.0550, 2047.475
476.5371, 2022.665
477.0192, 2007.038
477.5013, 2001.038
477.9834, 2000.894
478.4655, 2009.736
478.9477, 2020.828
479.4298, 2024.934
479.9119, 2013.967
480.3940, 2002.228
480.8761, 1995.747
481.3582, 1994.190
481.8404, 1996.762
482.3225, 2015.192
482.8046, 2027.804
483.2867, 2022.262
483.7688, 1990.661
484.2509, 1964.797
484.7331, 1948.886
485.2152, 1939.212
485.6973, 1932.135
486.1794, 1927.089
486.6615, 1926.175
487.1436, 1933.250
487.6258, 1944.860
488.1079, 1942.578
488.5900, 1921.328
489.0721, 1900.220
489.5542, 1891.329
490.0363, 1894.740
490.5185, 1893.257
491.0006, 1885.444
491.4827, 1876.118
491.9648, 1873.207
492.4470, 1875.149
492.9291, 1873.131
493.4112, 1861.948
493.8933, 1847.153
494.3754, 1838.058
494.8575, 1833.743
495.3397, 1828.981
495.8218, 1816.303
496.3039, 1803.217
496.7860, 1799.968
497.2681, 1811.267
497.7502, 1819.357
498.2324, 1808.798
498.7145, 1791.058
499.1966, 1781.534
499.6787, 1800.603
500.1608, 1812.685
500.6429, 1800.080
501.1251, 1764.934
501.6072, 1744.401
502.0893, 1751.873
502.5714, 1764.641
503.0535, 1773.033
503.5356, 1778.311
504.0178, 1775.170
504.4999, 1758.434
504.9820, 1738.023
505.4641, 1728.836
505.9462, 1732.124
506.4283, 1740.804
506.9105, 1756.280
507.3926, 1774.813
507.8747, 1780.571
508.3568, 1773.123
508.8389, 1760.555
509.3210, 1743.945
509.8032, 1726.751
510.2853, 1719.276
510.7674, 1724.013
511.2495, 1733.300
511.7316, 1742.987
512.2137, 1751.258
512.6959, 1754.326
513.1780, 1741.868
513.6601, 1731.031
514.1422, 1735.775
514.6243, 1753.880
515.1064, 1769.513
515.5886, 1782.142
516.0707, 1786.419
516.5528, 1776.498
517.0349, 1737.570
517.5170, 1713.805
517.9991, 1718.207
518.4813, 1736.732
518.9634, 1752.733
519.4455, 1767.573
519.9276, 1777.294
520.4097, 1779.366
520.8918, 1775.205
521.3740, 1774.260
521.8561, 1776.837
522.3382, 1781.623
522.8203, 1788.366
523.3024, 1796.897
523.7845, 1806.125
524.2667, 1816.802
524.7488, 1825.202
525.2309, 1824.723
525.7130, 1817.868
526.1951, 1813.248
526.6772, 1813.420
527.1594, 1817.654
527.6415, 1826.426
528.1236, 1838.938
528.6057, 1851.932
529.0878, 1867.020
529.5699, 1879.474
530.0521, 1883.725
530.5342, 1876.504
531.0163, 1873.078
531.4984, 1880.013
531.9805, 1892.470
532.4626, 1905.306
532.9448, 1922.990
533.4269, 1934.722
533.9090, 1937.431
534.3911, 1933.110
534.8732, 1928.387
535.3553, 1919.574
535.8375, 1917.485
536.3196, 1931.319
536.8017, 1962.848
537.2838, 1973.229
537.7659, 1957.612
538.2480, 1937.141
538.7302, 1935.988
539.2123, 1951.458
539.6944, 1965.884
540.1765, 1977.197
540.6586, 1982.592
541.1407, 1972.800
541.6229, 1952.435
542.1050, 1937.913
542.5871, 1940.297
543.0692, 1950.974
543.5513, 1964.878
544.0334, 1981.502
544.5156, 1994.527
544.9977, 1998.676
545.4798, 1999.332
545.9619, 2000.532
546.4440, 2002.003
546.9261, 2005.591
547.4083, 2011.628
547.8904, 2020.004
548.3725, 2031.006
548.8546, 2050.297
549.3367, 2062.861
549.8188, 2063.297
550.3010, 2052.771
550.7831, 2044.427
551.2652, 2038.117
551.7473, 2034.470
552.2294, 2034.297
552.7115, 2037.413
553.1937, 2042.646
553.6758, 2050.361
554.1579, 2058.297
554.6400, 2061.542
555.1221, 2062.538
555.6042, 2068.579
556.0864, 2088.153
556.5685, 2108.019
557.0506, 2113.183
557.5327, 2107.096
558.0148, 2102.454
558.4969, 2108.798
558.9791, 2115.974
559.4612, 2115.875
559.9433, 2104.952
560.4254, 2101.032
560.9075, 2113.821
561.3896, 2131.407
561.8718, 2143.428
562.3539, 2147.312
562.8360, 2149.890
563.3181, 2151.298
563.8002, 2151.844
564.2823, 2152.286
564.7645, 2152.677
565.2466, 2152.638
565.7287, 2151.376
566.2108, 2149.509
566.6929, 2151.866
567.1750, 2158.746
567.6572, 2162.689
568.1393, 2151.531
568.6214, 2133.868
569.1035, 2129.060
569.5856, 2142.760
570.0677, 2158.404
570.5499, 2161.963
571.0320, 2158.545
571.5141, 2156.285
571.9962, 2161.041
572.4783, 2164.658
572.9604, 2162.671
573.4426, 2156.252
573.9247, 2151.567
574.4068, 2150.323
574.8889, 2150.410
575.3710, 2151.043
575.8531, 2152.102
576.3353, 2154.582
576.8174, 2159.720
577.2995, 2164.410
577.7816, 2164.113
578.2637, 2157.855
578.7458, 2158.007
579.2280, 2168.039
579.7101, 2182.152
580.1922, 2191.318
580.6743, 2195.701
581.1564, 2196.221
581.6385, 2189.271
582.1207, 2180.856
582.6028, 2178.615
583.0849, 2182.259
583.5670, 2189.301
584.0491, 2202.059
584.5313, 2215.219
585.0134, 2223.713
585.4955, 2224.309
585.9776, 2228.307
586.4597, 2244.275
586.9418, 2262.688
587.4240, 2272.137
587.9061, 2261.843
588.3882, 2259.622
588.8703, 2273.535
589.3524, 2296.039
589.8345, 2302.026
590.3167, 2285.730
590.7988, 2275.228
591.2809, 2284.808
591.7630, 2310.574
592.2451, 2332.795
592.7272, 2351.352
593.2094, 2369.254
593.6915, 2392.729
594.1736, 2416.574
594.6557, 2428.479
595.1378, 2423.185
595.6199, 2419.042
596.1021, 2434.351
596.5842, 2458.250
597.0663, 2475.315
597.5485, 2473.413
598.0306, 2471.001
598.5127, 2469.592
598.9948, 2471.348
599.4769, 2485.380
599.9590, 2520.099
600.4412, 2557.602
600.9233, 2593.768
601.4054, 2629.267
601.8875, 2654.357
602.3696, 2665.621
602.8517, 2674.426
603.3339, 2692.399
603.8160, 2718.448
604.2981, 2733.119
604.7802, 2730.782
605.2623, 2728.580
605.7444, 2753.656
606.2266, 2797.123
606.7087, 2833.851
607.1908, 2851.574
607.6729, 2862.990
608.1550, 2877.243
608.6371, 2893.479
609.1193, 2909.409
609.6014, 2924.899
610.0835, 2939.084
610.5656, 2950.571
611.0477, 2958.735
611.5298, 2968.900
612.0120, 2983.425
612.4941, 2997.714
612.9762, 3008.649
613.4583, 3015.714
613.9404, 3020.783
614.4225, 3023.000
614.9047, 3024.807
615.3868, 3027.613
615.8689, 3031.945
616.3510, 3045.978
616.8331, 3078.462
617.3152, 3113.466
617.7974, 3123.154
618.2795, 3112.935
618.7616, 3104.462
619.2437, 3115.237
619.7258, 3128.126
620.2079, 3128.644
620.6901, 3116.144
621.1722, 3105.692
621.6543, 3102.554
622.1364, 3103.128
622.6185, 3105.094
623.1006, 3107.306
623.5828, 3113.549
624.0649, 3127.852
624.5470, 3142.490
625.0291, 3147.021
625.5112, 3139.204
625.9933, 3133.835
626.4755, 3135.200
626.9576, 3138.304
627.4397, 3128.801
627.9218, 3109.024
628.4039, 3096.777
628.8860, 3108.496
629.3682, 3128.803
629.8503, 3136.405
630.3324, 3132.597
630.8145, 3127.484
631.2966, 3125.094
631.7787, 3124.841
632.2609, 3127.874
632.7430, 3136.797
633.2251, 3139.141
633.7072, 3127.002
634.1893, 3110.608
634.6714, 3098.411
635.1536, 3092.823
635.6357, 3086.482
636.1178, 3080.131
636.5999, 3071.566
637.0820, 3053.431
637.5641, 3025.119
638.0463, 3005.282
638.5284, 3004.041
639.0105, 3011.245
639.4926, 3009.343
639.9747, 2998.245
640.4568, 2977.882
640.9390, 2931.469
641.4211, 2886.450
641.9032, 2876.314
642.3853, 2903.309
642.8674, 2917.846
643.3495, 2893.650
643.8317, 2854.387
644.3138, 2815.159
644.7959, 2773.721
645.2780, 2740.681
645.7601, 2719.789
646.2422, 2704.095
646.7244, 2684.236
647.2065, 2658.435
647.6886, 2639.306
648.1707, 2631.331
648.6528, 2628.199
649.1349, 2617.621
649.6171, 2600.188
650.0992, 2579.961
650.5813, 2561.078
651.0634, 2539.040
651.5455, 2502.936
652.0276, 2456.083
652.5098, 2418.081
652.9919, 2403.881
653.4740, 2398.198
653.9561, 2392.462
654.4382, 2385.790
654.9203, 2379.253
655.4025, 2376.011
655.8846, 2370.473
656.3667, 2358.185
656.8488, 2335.812
657.3309, 2316.667
657.8130, 2301.597
658.2952, 2288.907
658.7773, 2275.442
659.2594, 2261.478
659.7415, 2252.238
660.2236, 2250.869
660.7057, 2251.813
661.1879, 2245.494
661.6700, 2234.791
662.1521, 2227.828
662.6342, 2236.019
663.1163, 2242.747
663.5984, 2233.984
664.0806, 2212.003
664.5627, 2196.897
665.0448, 2197.936
665.5269, 2203.252
666.0090, 2207.834
666.4911, 2211.252
666.9733, 2217.055
667.4554, 2226.099
667.9375, 2235.834
668.4196, 2244.229
668.9017, 2251.347
669.3839, 2257.936
669.8660, 2263.781
670.3481, 2270.297
670.8302, 2279.629
671.3123, 2290.812
671.7944, 2301.288
672.2766, 2307.121
672.7587, 2317.012
673.2408, 2340.858
673.7229, 2372.366
674.2050, 2399.670
674.6871, 2413.690
675.1693, 2429.360
675.6514, 2450.455
676.1335, 2476.641
676.6156, 2506.381
677.0977, 2541.045
677.5798, 2575.977
678.0620, 2608.579
678.5441, 2639.408
679.0262, 2669.242
679.5083, 2697.928
679.9904, 2732.327
680.4725, 2783.346
680.9547, 2842.109
681.4368, 2890.598
681.9189, 2924.519
682.4010, 2965.534
682.8831, 3033.819
683.3652, 3113.468
683.8474, 3187.085
684.3295, 3239.275
684.8116, 3303.739
685.2937, 3392.965
685.7758, 3493.933
686.2579, 3588.149
686.7401, 3670.064
687.2222, 3759.481
687.7043, 3858.828
688.1864, 3967.842
688.6685, 4088.835
689.1506, 4221.119
689.6328, 4352.968
690.1149, 4477.078
690.5970, 4600.550
691.0791, 4735.418
691.5612, 4880.896
692.0433, 5028.347
692.5255, 5181.342
693.0076, 5331.874
693.4897, 5470.438
693.9718, 5594.251
694.4539, 5734.663
694.9360, 5922.189
695.4182, 6102.490
695.9003, 6246.432
696.3824, 6342.309
696.8645, 6444.626
697.3466, 6557.926
697.8287, 6665.737
698.3109, 6753.017
698.7930, 6819.930
699.2751, 6868.893
699.7572, 6901.607
700.2393, 6909.980
700.7214, 6878.254
701.2036, 6817.667
701.6857, 6747.195
702.1678, 6687.588
702.6499, 6602.890
703.1320, 6471.876
703.6141, 6305.906
704.0963, 6132.076
704.5784, 5947.047
705.0605, 5761.111
705.5426, 5576.087
706.0247, 5391.089
706.5068, 5206.356
706.9890, 5020.755
707.4711, 4836.975
707.9532, 4652.710
708.4353, 4472.815
708.9174, 4319.379
709.3995, 4189.705
709.8817, 4063.363
710.3638, 3924.229
710.8459, 3784.684
711.3280, 3657.160
711.8101, 3542.165
712.2922, 3436.248
712.7744, 3339.389
713.2565, 3249.941
713.7386, 3165.090
714.2207, 3083.391
714.7028, 3010.284
715.1849, 2946.647
715.6671, 2888.858
716.1492, 2829.104
716.6313, 2768.761
717.1134, 2719.076
717.5955, 2683.733
718.0776, 2655.405
718.5598, 2628.738
719.0419, 2602.593
719.5240, 2574.982
720.0061, 2547.049
720.4882, 2514.910
720.9703, 2467.773
721.4525, 2415.472
721.9346, 2380.223
722.4167, 2377.461
722.8988, 2375.392
723.3809, 2369.400
723.8630, 2359.612
724.3452, 2343.959
724.8273, 2320.694
725.3094, 2304.576
725.7915, 2307.174
726.2736, 2320.388
726.7557, 2322.788
727.2379, 2315.511
727.7200, 2307.524
728.2021, 2304.780
728.6842, 2303.696
729.1663, 2299.544
729.6484, 2291.742
730.1306, 2290.612
730.6127, 2306.723
731.0948, 2323.994
731.5769, 2332.182
732.0590, 2326.646
732.5411, 2332.461
733.0233, 2351.992
733.5054, 2377.569
733.9875, 2403.935
734.4696, 2430.769
734.9517, 2454.207
735.4338, 2473.516
735.9160, 2492.113
736.3981, 2512.468
736.8802, 2534.666
737.3623, 2559.091
737.8444, 2587.313
738.3266, 2615.006
738.8087, 2640.302
739.2908, 2664.472
739.7729, 2689.004
740.2551, 2713.771
740.7372, 2739.504
741.2193, 2766.384
741.7014, 2794.189
742.1835, 2825.307
742.6656, 2859.715
743.1478, 2883.554
743.6299, 2887.918
744.1120, 2885.224
744.5941, 2896.588
745.0762, 2917.645
745.5583, 2935.208
746.0405, 2940.439
746.5226, 2942.356
747.0047, 2941.891
747.4868, 2940.937
747.9689, 2950.248
748.4510, 2989.995
748.9332, 3015.052
749.4153, 3004.525
749.8974, 2962.951
750.3795, 2945.978
750.8616, 2956.307
751.3438, 2970.377
751.8259, 2977.912
752.3080, 2977.337
752.7901, 2960.252
753.2722, 2927.562
753.7543, 2898.051
754.2365, 2890.155
754.7186, 2886.510
755.2007, 2873.808
755.6828, 2849.575
756.1649, 2821.067
756.6470, 2782.027
757.1292, 2745.265
757.6113, 2719.944
758.0934, 2710.273
758.5755, 2692.547
759.0576, 2665.164
759.5397, 2634.472
760.0219, 2607.406
760.5040, 2582.304
760.9861, 2554.279
761.4682, 2522.427
761.9503, 2489.927
762.4324, 2459.782
762.9146, 2429.965
763.3967, 2397.653
763.8788, 2358.105
764.3609, 2322.764
764.8430, 2295.162
765.3251, 2272.057
765.8073, 2249.850
766.2894, 2228.720
766.7715, 2207.618
767.2536, 2185.636
767.7357, 2165.375
768.2178, 2154.536
768.7000, 2150.036
769.1821, 2139.193
769.6642, 2116.415
770.1463, 2088.124
770.6284, 2053.019
771.1105, 2017.282
771.5927, 1992.858
772.0748, 1996.255
772.5569, 1996.457
773.0390, 1983.866
773.5211, 1963.573
774.0032, 1948.140
774.4854, 1938.125
774.9675, 1931.155
775.4496, 1927.596
775.9317, 1925.687
776.4138, 1918.987
776.8959, 1909.047
777.3781, 1903.957
777.8602, 1913.541
778.3423, 1925.301
778.8244, 1929.010
779.3065, 1925.814
779.7886, 1921.156
780.2708, 1913.488
780.7529, 1907.999
781.2350, 1905.879
781.7171, 1907.128
782.1992, 1913.397
782.6813, 1926.952
783.1635, 1936.184
783.6456, 1931.187
784.1277, 1917.882
784.6098, 1918.197
785.0919, 1930.623
785.5740, 1940.183
786.0562, 1933.753
786.5383, 1922.908
787.0204, 1916.507
787.5025, 1915.136
787.9846, 1916.621
788.4667, 1923.432
788.9489, 1930.163
789.4310, 1935.016
789.9131, 1938.001
790.3952, 1937.118
790.8773, 1931.193
791.3594, 1926.898
791.8416, 1933.715
792.3237, 1945.447
792.8058, 1942.244
793.2879, 1923.427
793.7700, 1907.908
794.2521, 1914.510
794.7343, 1926.103
795.2164, 1927.332
795.6985, 1912.940
796.1806, 1904.246
796.6627, 1907.762
797.1448, 1912.672
797.6270, 1912.044
798.1091, 1905.201
798.5912, 1899.001
799.0733, 1894.077
799.5554, 1886.242
800.0375, 1866.301
800.5197, 1842.009
801.0018, 1830.156
801.4839, 1834.549
801.9660, 1838.775
802.4481, 1832.007
802.9302, 1821.264
803.4124, 1812.161
803.8945, 1804.934
804.3766, 1801.310
804.8587, 1804.404
805.3408, 1806.992
805.8229, 1801.976
806.3051, 1789.399
806.7872, 1775.292
807.2693, 1759.557
807.7514, 1745.806
808.2335, 1738.374
808.7156, 1734.954
809.1978, 1732.887
809.6799, 1733.052
810.1620, 1729.675
810.6441, 1715.516
811.1262, 1699.389
811.6083, 1690.168
812.0905, 1690.756
812.5726, 1691.830
813.0547, 1693.296
813.5368, 1695.045
814.0189, 1699.891
814.5010, 1705.953
814.9832, 1699.304
815.4653, 1674.821
815.9474, 1651.822
816.4295, 1651.053
816.9116, 1660.897
817.3937, 1666.916
817.8759, 1663.639
818.3580, 1660.197
818.8401, 1658.716
819.3222, 1657.692
819.8043, 1654.824
820.2864, 1648.428
820.7686, 1649.561
821.2507, 1661.564
821.7328, 1674.073
822.2149, 1671.378
822.6970, 1658.649
823.1791, 1649.065
823.6613, 1646.491
824.1434, 1644.666
824.6255, 1638.951
825.1076, 1631.989
825.5897, 1626.806
826.0718, 1622.604
826.5540, 1622.719
827.0361, 1630.112
827.5182, 1638.391
828.0003, 1639.800
828.4824, 1634.395
828.9645, 1625.945
829.4467, 1613.485
829.9288, 1604.624
830.4109, 1613.406
830.8930, 1629.791
831.3751, 1636.613
831.8572, 1621.036
832.3394, 1614.859
832.8215, 1643.416
833.3036, 1679.135
833.7857, 1690.282
834.2678, 1664.911
834.7499, 1649.749
835.2321, 1649.013
835.7142, 1655.801
836.1963, 1663.925
836.6784, 1672.560
837.1605, 1678.448
837.6426, 1680.869
838.1248, 1680.733
838.6069, 1676.031
839.0890, 1670.437
839.5711, 1668.168
840.0532, 1672.098
840.5353, 1675.631
841.0175, 1676.763
841.4996, 1678.950
841.9817, 1687.711
842.4638, 1703.651
842.9459, 1710.370
843.4280, 1704.855
843.9102, 1697.712
844.3923, 1701.947
844.8744, 1711.936
845.3565, 1718.322
845.8386, 1718.309
846.3207, 1718.340
846.8029, 1721.495
847.2850, 1725.523
847.7671, 1728.323
848.2492, 1728.879
848.7313, 1731.529
849.2134, 1737.627
849.6956, 1742.313
850.1777, 1738.972
850.6598, 1730.071
851.1419, 1723.166
851.6240, 1718.809
852.1061, 1720.067
852.5883, 1736.370
853.0704, 1754.984
853.5525, 1763.558
854.0346, 1755.988
854.5167, 1751.204
854.9988, 1751.402
855.4810, 1753.196
855.9631, 1753.511
856.4452, 1752.277
856.9273, 1757.206
857.4094, 1769.088
857.8915, 1778.612
858.3737, 1771.712
858.8558, 1760.495
859.3379, 1763.614
859.8200, 1784.588
860.3021, 1798.106
860.7842, 1785.837
861.2664, 1770.781
861.7485, 1766.586
862.2306, 1774.673
862.7127, 1777.541
863.1948, 1773.266
863.6769, 1772.349
864.1591, 1787.334
864.6412, 1810.070
865.1233, 1819.412
865.6054, 1815.845
866.0875, 1813.706
866.5696, 1824.058
867.0518, 1836.536
867.5339, 1843.961
868.0160, 1845.644
868.4981, 1850.707
868.9802, 1860.901
869.4623, 1870.863
869.9445, 1877.815
870.4266, 1882.430
870.9087, 1887.467
871.3908, 1893.017
871.8729, 1899.311
872.3550, 1908.849
872.8372, 1917.372
873.3193, 1919.232
873.8014, 1916.027
874.2835, 1916.941
874.7656, 1928.151
875.2477, 1938.869
875.7299, 1946.079
876.2120, 1950.828
876.6941, 1957.060
877.1762, 1964.740
877.6583, 1974.728
878.1404, 1990.336
878.6226, 2005.256
879.1047, 2007.690
879.5869, 2002.622
880.0690, 2002.940
880.5511, 2021.970
881.0332, 2037.254
881.5153, 2039.227
881.9974, 2034.199
882.4796, 2033.772
882.9617, 2037.558
883.4438, 2049.492
883.9259, 2073.315
884.4080, 2099.691
884.8901, 2112.660
885.3723, 2116.552
885.8544, 2121.608
886.3365, 2132.962
886.8186, 2143.404
887.3007, 2145.859
887.7828, 2147.132
888.2650, 2157.562
888.7471, 2183.147
889.2292, 2200.398
889.7113, 2204.314
890.1934, 2206.518
890.6755, 2223.875
891.1577, 2252.101
891.6398, 2279.397
892.1219, 2304.046
892.6040, 2323.743
893.0861, 2331.987
893.5682, 2337.081
894.0504, 2346.849
894.5325, 2363.748
895.0146, 2382.506
895.4967, 2405.234
895.9788, 2425.866
896.4609, 2436.489
896.9431, 2439.434
897.4252, 2450.107
897.9073, 2469.398
898.3894, 2488.725
898.8715, 2498.059
899.3536, 2507.480
899.8358, 2528.421
900.3179, 2563.160
900.8000, 2589.673
901.2821, 2604.244
901.7642, 2612.551
902.2463, 2615.645
902.7285, 2614.342
903.2106, 2614.891
903.6927, 2617.289
904.1748, 2621.226
904.6569, 2629.565
905.1390, 2637.114
905.6212, 2633.997
906.1033, 2624.221
906.5854, 2625.202
907.0675, 2655.299
907.5496, 2680.556
908.0317, 2691.776
908.5139, 2693.120
908.9960, 2701.087
909.4781, 2715.690
909.9602, 2712.269
910.4423, 2672.481
910.9244, 2626.456
911.4066, 2614.291
911.8887, 2621.801
912.3708, 2622.713
912.8529, 2602.928
913.3350, 2582.319
913.8171, 2563.054
914.2993, 2545.909
914.7814, 2534.565
915.2635, 2530.213
915.7456, 2513.454
916.2277, 2478.897
916.7098, 2442.919
917.1920, 2430.925
917.6741, 2427.647
918.1562, 2408.882
918.6383, 2364.831
919.1204, 2323.703
919.6025, 2292.825
920.0847, 2268.950
920.5668, 2251.795
921.0489, 2243.150
921.5310, 2226.762
922.0131, 2201.848
922.4952, 2176.346
922.9774, 2157.722
923.4595, 2142.155
923.9416, 2123.851
924.4237, 2102.687
924.9058, 2081.493
925.3879, 2057.595
925.8701, 2037.941
926.3522, 2027.744
926.8343, 2024.878
927.3164, 2011.418
927.7985, 1986.201
928.2806, 1960.353
928.7628, 1937.134
929.2449, 1918.303
929.7270, 1905.115
930.2091, 1898.439
930.6912, 1900.270
931.1733, 1926.238
931.6555, 1943.507
932.1376, 1935.989
932.6197, 1916.332
933.1018, 1905.380
933.5839, 1904.451
934.0660, 1901.235
934.5482, 1892.640
935.0303, 1883.669
935.5124, 1881.270
935.9945, 1882.809
936.4766, 1883.551
936.9587, 1881.697
937.4409, 1880.906
937.9230, 1882.093
938.4051, 1885.071
938.8872, 1889.379
939.3693, 1894.660
939.8514, 1905.328
940.3336, 1922.345
940.8157, 1936.893
941.2978, 1935.929
941.7799, 1930.809
942.2620, 1941.187
942.7441, 1967.024
943.2263, 1987.815
943.7084, 1987.567
944.1905, 1988.857
944.6726, 2002.605
945.1547, 2025.948
945.6368, 2037.272
946.1190, 2035.340
946.6011, 2045.292
947.0832, 2090.138
947.5653, 2139.993
948.0474, 2149.546
948.5295, 2133.360
949.0117, 2125.304
949.4938, 2148.400
949.9759, 2166.154
950.4580, 2168.590
950.9401, 2164.665
951.4222, 2168.517
951.9044, 2180.338
952.3865, 2188.715
952.8686, 2191.377
953.3507, 2192.471
953.8328, 2196.677
954.3149, 2201.824
954.7971, 2205.009
955.2792, 2205.008
955.7613, 2205.500
956.2434, 2208.874
956.7255, 2210.737
957.2076, 2209.034
957.6898, 2203.685
958.1719, 2191.945
958.6540, 2173.800
959.1361, 2154.778
959.6182, 2137.747
960.1003, 2122.102
960.5825, 2106.269
961.0646, 2090.804
961.5467, 2079.165
962.0288, 2074.269
962.5109, 2070.083
962.9930, 2066.421
963.4752, 2061.737
963.9573, 2052.316
964.4394, 2038.416
964.9215, 2019.662
965.4036, 1990.057
965.8857, 1967.494
966.3679, 1975.982
966.8500, 1996.061
967.3321, 2001.921
967.8142, 1980.854
968.2963, 1961.446
968.7784, 1943.346
969.2606, 1928.151
969.7427, 1918.181
970.2248, 1912.666
970.7069, 1909.329
971.1890, 1907.980
971.6711, 1907.209
972.1533, 1907.010
972.6354, 1906.333
973.1175, 1904.677
973.5996, 1901.975
974.0817, 1896.903
974.5638, 1888.056
975.0460, 1882.075
975.5281, 1883.338
976.0102, 1887.649
976.4923, 1885.194
976.9744, 1878.145
977.4565, 1872.886
977.9387, 1878.302
978.4208, 1878.839
978.9029, 1863.109
979.3850, 1842.251
979.8671, 1831.214
980.3492, 1831.403
980.8314, 1834.038
981.3135, 1838.499
981.7956, 1843.863
982.2777, 1852.029
982.7598, 1859.207
983.2419, 1857.856
983.7241, 1845.299
984.2062, 1837.950
984.6883, 1847.706
985.1704, 1856.555
985.6525, 1855.172
986.1346, 1845.006
986.6168, 1841.413
987.0989, 1844.284
987.5810, 1850.075
988.0631, 1860.935
988.5452, 1870.297
989.0273, 1870.767
989.5095, 1864.814
989.9916, 1858.639
990.4737, 1851.953
990.9558, 1847.502
991.4379, 1845.859
991.9200, 1846.286
992.4022, 1847.336
992.8843, 1849.406
993.3664, 1856.231
993.8485, 1870.057
994.3306, 1878.250
994.8127, 1862.715
995.2949, 1844.046
995.7770, 1843.509
996.2591, 1866.216
996.7412, 1873.324
997.2233, 1860.784
997.7054, 1847.186
998.1876, 1842.469
998.6697, 1845.155
999.1518, 1855.978
999.6339, 1872.119
1000.116, 1882.498
1000.598, 1880.174
1001.080, 1873.438
1001.562, 1859.835
1002.044, 1846.091
1002.527, 1846.342
1003.009, 1861.842
1003.491, 1873.070
1003.973, 1876.026
1004.455, 1875.235
1004.937, 1869.627
1005.419, 1866.103
1005.901, 1876.521
1006.384, 1909.242
1006.866, 1927.815
1007.348, 1921.488
1007.830, 1910.910
1008.312, 1906.841
1008.794, 1908.420
1009.276, 1911.916
1009.758, 1916.888
1010.240, 1919.828
1010.723, 1913.475
1011.205, 1909.589
1011.687, 1919.918
1012.169, 1938.052
1012.651, 1946.233
1013.133, 1940.691
1013.615, 1934.840
1014.097, 1929.671
1014.580, 1927.468
1015.062, 1936.069
1015.544, 1948.632
1016.026, 1949.935
1016.508, 1934.573
1016.990, 1923.539
1017.472, 1928.195
1017.954, 1937.179
1018.436, 1944.755
1018.919, 1950.848
1019.401, 1954.856
1019.883, 1956.777
1020.365, 1957.557
1020.847, 1958.653
1021.329, 1958.110
1021.811, 1950.060
1022.293, 1939.108
1022.776, 1936.900
1023.258, 1959.149
1023.740, 1966.323
1024.222, 1948.889
1024.704, 1924.647
1025.186, 1920.355
1025.668, 1929.995
1026.150, 1931.559
1026.632, 1921.157
1027.115, 1914.191
1027.597, 1926.368
1028.079, 1939.746
1028.561, 1941.725
1029.043, 1932.740
1029.525, 1922.796
1030.007, 1911.835
1030.489, 1901.645
1030.972, 1892.481
1031.454, 1885.247
1031.936, 1883.553
1032.418, 1884.325
1032.900, 1881.032
1033.382, 1863.310
1033.864, 1853.790
1034.346, 1858.821
1034.828, 1866.983
1035.311, 1865.005
1035.793, 1854.303
1036.275, 1843.044
1036.757, 1831.782
1037.239, 1824.300
1037.721, 1827.735
1038.203, 1832.033
1038.685, 1828.117
1039.167, 1817.209
1039.650, 1814.118
1040.132, 1820.503
1040.614, 1827.907
1041.096, 1834.295
1041.578, 1838.653
1042.060, 1835.379
1042.542, 1829.649
1043.024, 1832.009
1043.507, 1853.276
1043.989, 1867.008
1044.471, 1862.914
1044.953, 1856.539
1045.435, 1861.395
1045.917, 1876.239
1046.399, 1884.428
1046.881, 1885.854
1047.364, 1885.724
1047.846, 1881.992
1048.328, 1883.051
1048.810, 1900.224
1049.292, 1927.992
1049.774, 1941.228
1050.256, 1934.123
1050.738, 1933.109
1051.220, 1944.900
1051.703, 1960.808
1052.185, 1970.644
1052.667, 1974.845
1053.149, 1971.168
1053.631, 1955.123
1054.113, 1950.983
1054.595, 1973.065
1055.077, 1999.833
1055.559, 2022.114
1056.042, 2039.867
1056.524, 2053.218
1057.006, 2062.512
1057.488, 2070.597
1057.970, 2079.879
1058.452, 2087.546
1058.934, 2092.427
1059.416, 2094.268
1059.899, 2091.314
1060.381, 2078.581
1060.863, 2080.462
1061.345, 2101.311
1061.827, 2126.892
1062.309, 2142.221
1062.791, 2153.251
1063.273, 2172.350
1063.755, 2200.104
1064.238, 2214.041
1064.720, 2194.857
1065.202, 2177.569
1065.684, 2170.589
1066.166, 2173.705
1066.648, 2194.350
1067.130, 2226.560
1067.612, 2242.291
1068.094, 2224.464
1068.577, 2207.778
1069.059, 2214.510
1069.541, 2231.696
1070.023, 2247.635
1070.505, 2263.144
1070.987, 2270.188
1071.469, 2268.129
1071.951, 2264.766
1072.434, 2263.541
1072.916, 2265.407
1073.398, 2274.566
1073.880, 2288.147
1074.362, 2296.078
1074.844, 2292.038
1075.326, 2289.422
1075.808, 2289.918
1076.291, 2292.273
1076.773, 2295.693
1077.255, 2299.452
1077.737, 2301.076
1078.219, 2300.104
1078.701, 2299.097
1079.183, 2299.924
1079.665, 2300.453
1080.147, 2299.734
1080.630, 2297.836
1081.112, 2295.087
1081.594, 2291.498
1082.076, 2287.326
1082.558, 2282.212
1083.040, 2277.427
1083.522, 2272.457
1084.004, 2269.243
1084.486, 2271.621
1084.969, 2286.298
1085.451, 2287.232
1085.933, 2271.553
1086.415, 2252.949
1086.897, 2238.956
1087.379, 2230.503
1087.861, 2231.084
1088.343, 2239.135
1088.826, 2248.046
1089.308, 2261.925
1089.790, 2266.429
1090.272, 2254.222
1090.754, 2237.709
1091.236, 2240.194
1091.718, 2256.290
1092.200, 2259.018
1092.682, 2243.384
1093.165, 2228.990
1093.647, 2227.517
1094.129, 2231.999
1094.611, 2240.386
1095.093, 2251.229
1095.575, 2253.811
1096.057, 2247.735
1096.539, 2243.117
1097.022, 2243.600
1097.504, 2247.375
1097.986, 2252.794
1098.468, 2260.324
1098.950, 2271.185
1099.432, 2289.197
1099.914, 2300.433
1100.396, 2303.560
1100.879, 2303.661
1101.361, 2300.774
1101.843, 2298.975
1102.325, 2306.992
1102.807, 2323.379
1103.289, 2342.177
1103.771, 2366.954
1104.253, 2386.038
1104.735, 2396.593
1105.218, 2402.620
1105.700, 2409.122
1106.182, 2415.898
1106.664, 2422.634
1107.146, 2429.413
1107.628, 2432.070
1108.110, 2421.171
1108.592, 2412.410
1109.074, 2415.624
1109.557, 2428.154
1110.039, 2441.992
1110.521, 2457.356
1111.003, 2462.808
1111.485, 2451.040
1111.967, 2440.351
1112.449, 2453.166
1112.931, 2473.658
1113.414, 2485.324
1113.896, 2486.143
1114.378, 2476.188
1114.860, 2451.608
1115.342, 2433.397
1115.824, 2440.027
1116.306, 2454.539
1116.788, 2451.336
1117.271, 2434.678
1117.753, 2413.902
1118.235, 2378.899
1118.717, 2361.872
1119.199, 2373.180
1119.681, 2386.250
1120.163, 2368.755
1120.645, 2332.759
1121.127, 2317.507
1121.609, 2321.953
1122.092, 2319.783
1122.574, 2288.365
1123.056, 2260.045
1123.538, 2248.755
1124.020, 2244.378
1124.502, 2222.809
1124.984, 2187.257
1125.466, 2168.056
1125.949, 2173.125
1126.431, 2175.689
1126.913, 2152.627
1127.395, 2123.955
1127.877, 2105.639
1128.359, 2095.948
1128.841, 2076.416
1129.323, 2046.188
1129.806, 2020.550
1130.288, 2007.118
1130.770, 1996.129
1131.252, 1977.447
1131.734, 1955.361
1132.216, 1935.428
1132.698, 1917.824
1133.180, 1904.658
1133.662, 1897.574
1134.145, 1888.250
1134.627, 1867.487
1135.109, 1843.639
1135.591, 1832.521
1136.073, 1829.040
1136.555, 1820.601
1137.037, 1796.027
1137.519, 1778.296
1138.001, 1771.573
1138.484, 1765.996
1138.966, 1747.716
1139.448, 1723.699
1139.930, 1713.721
1140.412, 1716.992
1140.894, 1717.552
1141.376, 1708.828
1141.858, 1695.853
1142.341, 1678.466
1142.823, 1659.465
1143.305, 1643.437
1143.787, 1630.070
1144.269, 1616.349
1144.751, 1601.146
1145.233, 1592.739
1145.715, 1603.247
1146.198, 1614.514
1146.680, 1617.831
1147.162, 1613.576
1147.644, 1599.564
1148.126, 1577.020
1148.608, 1564.256
1149.090, 1570.717
1149.572, 1578.098
1150.054, 1569.827
1150.536, 1557.893
1151.019, 1555.722
1151.501, 1565.080
1151.983, 1558.154
1152.465, 1533.922
1152.947, 1518.200
1153.429, 1534.621
1153.911, 1554.842
1154.393, 1549.140
1154.876, 1529.269
1155.358, 1515.418
1155.840, 1509.911
1156.322, 1508.952
1156.804, 1513.513
1157.286, 1516.916
1157.768, 1511.747
1158.250, 1503.751
1158.733, 1500.158
1159.215, 1500.141
1159.697, 1499.630
1160.179, 1497.112
1160.661, 1495.801
1161.143, 1495.828
1161.625, 1497.855
1162.107, 1505.864
1162.589, 1514.937
1163.072, 1515.347
1163.554, 1506.987
1164.036, 1500.289
1164.518, 1497.595
1165.000, 1497.676
1165.482, 1501.903
1165.964, 1506.170
1166.446, 1499.354
1166.928, 1487.619
1167.411, 1487.303
1167.893, 1504.002
1168.375, 1512.570
1168.857, 1495.782
1169.339, 1480.923
1169.821, 1480.257
1170.303, 1487.385
1170.785, 1480.986
1171.268, 1466.085
1171.750, 1459.925
1172.232, 1472.090
1172.714, 1482.812
1173.196, 1481.904
1173.678, 1479.320
1174.160, 1481.349
1174.642, 1486.921
1175.125, 1488.987
1175.607, 1487.866
1176.089, 1485.206
1176.571, 1481.102
1177.053, 1476.514
1177.535, 1471.893
1178.017, 1466.923
1178.499, 1460.006
1178.981, 1451.197
1179.464, 1450.496
1179.946, 1457.606
1180.428, 1466.117
1180.910, 1475.114
1181.392, 1481.010
1181.874, 1478.859
1182.356, 1473.963
1182.838, 1473.640
1183.320, 1477.882
1183.803, 1490.950
1184.285, 1513.690
1184.767, 1527.525
1185.249, 1506.907
1185.731, 1483.829
1186.213, 1484.243
1186.695, 1499.351
1187.177, 1503.023
1187.660, 1494.539
1188.142, 1485.109
1188.624, 1476.382
1189.106, 1468.793
1189.588, 1460.370
1190.070, 1455.234
1190.552, 1459.120
1191.034, 1470.374
1191.516, 1477.154
1191.999, 1479.323
1192.481, 1477.583
1192.963, 1470.966
1193.445, 1464.954
1193.927, 1464.465
1194.409, 1467.727
1194.891, 1476.468
1195.373, 1490.845
1195.855, 1486.494
1196.338, 1460.701
1196.820, 1439.418
1197.302, 1432.970
1197.784, 1435.009
1198.266, 1442.801
1198.748, 1452.838
1199.230, 1462.650
1199.712, 1474.265
1200.195, 1465.031
1200.677, 1430.177
1201.159, 1408.740
1201.641, 1432.060
1202.123, 1466.278
1202.605, 1470.917
1203.087, 1460.343
1203.569, 1458.979
1204.052, 1474.230
1204.534, 1484.132
1205.016, 1488.393
1205.498, 1489.502
1205.980, 1488.691
1206.462, 1486.100
1206.944, 1480.138
1207.426, 1472.798
1207.908, 1468.964
1208.391, 1469.551
1208.873, 1471.981
1209.355, 1476.503
1209.837, 1481.086
1210.319, 1484.084
1210.801, 1486.118
1211.283, 1487.204
1211.765, 1487.859
1212.247, 1490.012
1212.730, 1494.997
1213.212, 1497.764
1213.694, 1497.851
1214.176, 1495.275
1214.658, 1489.110
1215.140, 1480.925
1215.622, 1470.106
1216.104, 1458.254
1216.587, 1454.548
1217.069, 1461.758
1217.551, 1468.342
1218.033, 1472.310
1218.515, 1475.783
1218.997, 1482.564
1219.479, 1489.175
1219.961, 1490.927
1220.443, 1487.822
1220.926, 1485.888
1221.408, 1485.124
1221.890, 1486.942
1222.372, 1492.418
1222.854, 1497.953
1223.336, 1499.072
1223.818, 1497.941
1224.300, 1496.527
1224.782, 1495.086
1225.265, 1494.754
1225.747, 1494.995
1226.229, 1500.377
1226.711, 1515.651
1227.193, 1527.361
1227.675, 1513.201
1228.157, 1489.655
1228.639, 1476.229
1229.122, 1475.831
1229.604, 1477.458
1230.086, 1480.862
1230.568, 1488.936
1231.050, 1506.561
1231.532, 1521.371
1232.014, 1511.287
1232.496, 1494.436
1232.979, 1496.533
1233.461, 1522.768
1233.943, 1533.054
1234.425, 1526.100
1234.907, 1514.788
1235.389, 1501.481
1235.871, 1492.364
1236.353, 1498.507
1236.835, 1509.590
1237.318, 1510.912
1237.800, 1500.264
1238.282, 1495.327
1238.764, 1496.536
1239.246, 1494.966
1239.728, 1479.599
1240.210, 1467.233
1240.692, 1475.816
1241.175, 1494.320
1241.657, 1508.080
1242.139, 1516.829
1242.621, 1519.211
1243.103, 1515.184
1243.585, 1512.350
1244.067, 1517.727
1244.549, 1523.333
1245.031, 1522.455
1245.514, 1519.256
1245.996, 1519.737
1246.478, 1524.270
1246.960, 1528.867
1247.442, 1533.337
1247.924, 1535.008
1248.406, 1531.247
1248.888, 1525.175
1249.370, 1514.887
1249.853, 1505.547
1250.335, 1503.864
1250.817, 1509.674
1251.299, 1521.536
1251.781, 1538.475
1252.263, 1548.305
1252.745, 1535.454
1253.227, 1523.229
1253.710, 1520.486
1254.192, 1525.214
1254.674, 1538.932
1255.156, 1559.407
1255.638, 1569.941
1256.120, 1570.076
1256.602, 1567.087
1257.084, 1561.453
1257.567, 1558.049
1258.049, 1560.028
1258.531, 1562.824
1259.013, 1557.178
1259.495, 1547.032
1259.977, 1549.254
1260.459, 1563.783
1260.941, 1575.253
1261.423, 1578.365
1261.906, 1573.605
1262.388, 1556.939
1262.870, 1539.839
1263.352, 1541.731
1263.834, 1555.171
1264.316, 1564.129
1264.798, 1567.131
1265.280, 1567.018
1265.762, 1564.179
1266.245, 1557.807
1266.727, 1545.177
##END=



