##NAMES=Muscovite
##RRUFFID=R040108
##IDEAL CHEMISTRY=KAl_2_(Si_3_Al)O_10_(OH)_2_
##LOCALITY=USSR
##OWNER=RRUFF
##SOURCE=University of Arizona Mineral Museum
##DESCRIPTION=Dark green hexagonal tablet
##STATUS=The identification of this mineral has been confirmed by X-ray diffraction and chemical analysis
##URL=rruff.info/R040108
##MEASURED CHEMISTRY=(K_0.96_Na_0.04_)_Σ=1_(Al_1.48_Fe^3+^_0.20_Mg_0.16_Fe^2+^_0.14_Ti_0.02_)_Σ=2_(Si_3.28_Al_0.72_)_Σ=4_O_10_(OH)_2_; OH estimated by charge balance
120.1184, 871.2241
120.6006, 922.4899
121.0827, 968.6251
121.5648, 1012.169
122.0469, 1060.246
122.5290, 1120.731
123.0111, 1187.127
123.4933, 1251.242
123.9754, 1309.860
124.4575, 1366.325
124.9396, 1421.016
125.4217, 1473.965
125.9038, 1534.283
126.3860, 1601.909
126.8681, 1660.060
127.3502, 1708.230
127.8323, 1765.275
128.3144, 1821.659
128.7965, 1853.648
129.2787, 1859.086
129.7608, 1856.260
130.2429, 1872.139
130.7250, 1903.243
131.2071, 1921.707
131.6892, 1903.349
132.1714, 1855.354
132.6535, 1823.086
133.1356, 1812.086
133.6177, 1814.016
134.0998, 1812.210
134.5819, 1806.192
135.0640, 1798.785
135.5462, 1790.275
136.0283, 1780.031
136.5104, 1775.436
136.9925, 1779.304
137.4746, 1790.020
137.9567, 1797.636
138.4389, 1803.895
138.9210, 1804.309
139.4031, 1791.143
139.8852, 1758.755
140.3673, 1732.862
140.8494, 1721.738
141.3316, 1727.798
141.8137, 1730.737
142.2958, 1728.832
142.7779, 1725.641
143.2600, 1710.569
143.7421, 1727.967
144.2243, 1737.392
144.7064, 1739.272
145.1885, 1711.011
145.6706, 1721.671
146.1527, 1716.734
146.6348, 1711.156
147.1170, 1727.295
147.5991, 1703.418
148.0812, 1719.212
148.5633, 1719.170
149.0454, 1726.375
149.5275, 1717.887
150.0097, 1716.861
150.4918, 1733.728
150.9739, 1740.497
151.4560, 1727.401
151.9381, 1708.804
152.4202, 1696.140
152.9024, 1695.286
153.3845, 1695.346
153.8666, 1694.010
154.3487, 1690.808
154.8308, 1687.736
155.3129, 1685.545
155.7950, 1683.501
156.2772, 1680.646
156.7593, 1679.656
157.2414, 1675.632
157.7235, 1664.524
158.2056, 1638.556
158.6877, 1621.922
159.1699, 1627.230
159.6520, 1647.157
160.1341, 1663.907
160.6162, 1671.186
161.0983, 1673.765
161.5804, 1674.611
162.0626, 1673.691
162.5447, 1672.124
163.0268, 1668.455
163.5089, 1663.605
163.9910, 1662.695
164.4731, 1672.631
164.9553, 1685.880
165.4374, 1695.155
165.9195, 1695.747
166.4016, 1693.334
166.8837, 1691.091
167.3658, 1689.040
167.8480, 1686.036
168.3301, 1674.503
168.8122, 1662.442
169.2943, 1661.947
169.7764, 1698.250
170.2585, 1737.403
170.7407, 1742.318
171.2228, 1704.488
171.7049, 1667.860
172.1870, 1673.297
172.6691, 1708.184
173.1512, 1740.788
173.6334, 1749.499
174.1155, 1748.092
174.5976, 1755.477
175.0797, 1777.169
175.5618, 1800.898
176.0439, 1813.528
176.5260, 1816.728
177.0082, 1817.938
177.4903, 1820.021
177.9724, 1823.835
178.4545, 1830.792
178.9366, 1841.048
179.4187, 1854.946
179.9009, 1874.256
180.3830, 1898.883
180.8651, 1924.040
181.3472, 1947.282
181.8293, 1968.514
182.3114, 1986.661
182.7936, 1999.667
183.2757, 2010.248
183.7578, 2027.283
184.2399, 2051.374
184.7220, 2072.162
185.2041, 2071.649
185.6863, 2054.329
186.1684, 2046.465
186.6505, 2065.285
187.1326, 2102.481
187.6147, 2128.358
188.0968, 2141.950
188.5790, 2148.522
189.0611, 2154.968
189.5432, 2161.104
190.0253, 2164.401
190.5074, 2164.357
190.9895, 2160.775
191.4717, 2151.435
191.9538, 2135.103
192.4359, 2115.383
192.9180, 2098.246
193.4001, 2083.711
193.8822, 2070.329
194.3644, 2058.048
194.8465, 2046.826
195.3286, 2033.306
195.8107, 2015.907
196.2928, 1997.280
196.7749, 1984.889
197.2570, 1979.559
197.7392, 1975.650
198.2213, 1968.594
198.7034, 1957.999
199.1855, 1949.589
199.6676, 1944.773
200.1497, 1942.494
200.6319, 1937.365
201.1140, 1927.767
201.5961, 1920.379
202.0782, 1924.990
202.5603, 1944.980
203.0424, 1954.508
203.5246, 1944.396
204.0067, 1917.219
204.4888, 1898.544
204.9709, 1889.216
205.4530, 1886.650
205.9352, 1891.249
206.4173, 1906.906
206.8994, 1913.490
207.3815, 1901.003
207.8636, 1868.822
208.3457, 1852.291
208.8279, 1856.331
209.3100, 1869.191
209.7921, 1874.446
210.2742, 1869.852
210.7563, 1864.230
211.2384, 1859.933
211.7206, 1856.568
212.2027, 1857.365
212.6848, 1864.495
213.1669, 1873.867
213.6490, 1877.740
214.1311, 1874.510
214.6133, 1869.593
215.0954, 1863.783
215.5775, 1854.772
216.0596, 1853.806
216.5417, 1863.933
217.0238, 1880.541
217.5059, 1893.715
217.9881, 1904.709
218.4702, 1910.003
218.9523, 1906.249
219.4344, 1888.070
219.9165, 1876.575
220.3986, 1875.719
220.8808, 1881.611
221.3629, 1879.806
221.8450, 1864.992
222.3271, 1850.725
222.8092, 1845.605
223.2913, 1855.406
223.7735, 1860.500
224.2556, 1857.910
224.7377, 1849.040
225.2198, 1841.757
225.7019, 1835.148
226.1840, 1831.091
226.6662, 1831.897
227.1483, 1842.584
227.6304, 1846.979
228.1125, 1840.426
228.5946, 1824.380
229.0767, 1812.689
229.5589, 1794.883
230.0410, 1784.958
230.5231, 1797.924
231.0052, 1805.151
231.4873, 1806.949
231.9694, 1787.055
232.4516, 1795.171
232.9337, 1792.063
233.4158, 1788.494
233.8979, 1800.552
234.3800, 1783.813
234.8621, 1795.097
235.3443, 1803.404
235.8264, 1811.674
236.3085, 1819.722
236.7906, 1831.212
237.2727, 1849.656
237.7548, 1868.359
238.2369, 1879.573
238.7191, 1877.453
239.2012, 1877.603
239.6833, 1882.292
240.1654, 1890.951
240.6475, 1909.203
241.1296, 1942.197
241.6118, 1980.758
242.0939, 2012.699
242.5760, 2032.543
243.0581, 2055.102
243.5402, 2084.336
244.0223, 2120.516
244.5045, 2160.305
244.9866, 2203.615
245.4687, 2250.639
245.9508, 2301.650
246.4329, 2356.704
246.9150, 2415.659
247.3972, 2477.716
247.8793, 2540.443
248.3614, 2614.388
248.8435, 2701.523
249.3256, 2799.192
249.8077, 2902.124
250.2899, 3013.472
250.7720, 3125.716
251.2541, 3235.231
251.7362, 3337.081
252.2183, 3451.006
252.7004, 3578.514
253.1826, 3716.072
253.6647, 3856.850
254.1468, 4003.107
254.6289, 4148.853
255.1110, 4293.282
255.5931, 4438.059
256.0753, 4579.044
256.5574, 4720.431
257.0395, 4857.995
257.5216, 4981.651
258.0037, 5093.816
258.4858, 5189.431
258.9680, 5265.308
259.4501, 5320.905
259.9322, 5361.633
260.4143, 5391.165
260.8964, 5404.059
261.3785, 5386.871
261.8607, 5335.673
262.3428, 5262.949
262.8249, 5171.907
263.3070, 5061.336
263.7891, 4938.096
264.2712, 4800.177
264.7534, 4652.855
265.2355, 4516.212
265.7176, 4396.947
266.1997, 4269.815
266.6818, 4116.032
267.1639, 3925.638
267.6461, 3751.938
268.1282, 3596.716
268.6103, 3459.136
269.0924, 3336.923
269.5745, 3233.951
270.0566, 3137.833
270.5387, 3040.680
271.0208, 2941.317
271.5030, 2849.627
271.9851, 2766.375
272.4672, 2690.692
272.9493, 2620.759
273.4314, 2556.982
273.9135, 2498.188
274.3957, 2445.498
274.8778, 2399.681
275.3599, 2353.894
275.8420, 2307.803
276.3241, 2261.633
276.8062, 2215.085
277.2884, 2167.541
277.7705, 2122.764
278.2526, 2082.934
278.7347, 2048.151
279.2168, 2016.524
279.6989, 1987.661
280.1811, 1961.696
280.6632, 1938.220
281.1453, 1917.300
281.6274, 1898.075
282.1095, 1879.558
282.5916, 1861.768
283.0738, 1848.201
283.5559, 1840.901
284.0380, 1835.091
284.5201, 1819.349
285.0022, 1793.017
285.4843, 1768.247
285.9665, 1752.240
286.4486, 1744.408
286.9307, 1739.988
287.4128, 1739.877
287.8949, 1740.719
288.3770, 1736.152
288.8592, 1726.331
289.3413, 1715.774
289.8234, 1709.439
290.3055, 1705.393
290.7876, 1691.795
291.2697, 1664.150
291.7519, 1635.250
292.2340, 1628.159
292.7161, 1641.128
293.1982, 1654.671
293.6803, 1658.497
294.1624, 1654.322
294.6446, 1645.875
295.1267, 1631.970
295.6088, 1618.428
296.0909, 1614.141
296.5730, 1617.835
297.0551, 1622.509
297.5373, 1624.596
298.0194, 1624.878
298.5015, 1624.662
298.9836, 1623.877
299.4657, 1623.318
299.9478, 1626.078
300.4300, 1630.427
300.9121, 1630.622
301.3942, 1616.458
301.8763, 1598.505
302.3584, 1594.800
302.8405, 1608.911
303.3227, 1626.013
303.8048, 1632.310
304.2869, 1630.585
304.7690, 1627.990
305.2511, 1627.039
305.7332, 1627.544
306.2154, 1629.635
306.6975, 1633.463
307.1796, 1637.652
307.6617, 1641.392
308.1438, 1644.628
308.6259, 1647.393
309.1081, 1648.757
309.5901, 1650.180
310.0723, 1652.611
310.5544, 1656.063
311.0365, 1660.971
311.5186, 1672.525
312.0007, 1684.885
312.4828, 1689.347
312.9650, 1672.584
313.4471, 1654.563
313.9292, 1649.331
314.4113, 1658.377
314.8934, 1665.791
315.3755, 1661.941
315.8577, 1652.974
316.3398, 1646.141
316.8219, 1642.516
317.3040, 1642.567
317.7861, 1650.302
318.2682, 1665.913
318.7504, 1673.458
319.2325, 1653.914
319.7146, 1629.806
320.1967, 1622.461
320.6788, 1660.675
321.1609, 1692.599
321.6431, 1699.745
322.1252, 1682.563
322.6073, 1669.122
323.0894, 1668.577
323.5715, 1671.790
324.0536, 1672.004
324.5358, 1665.621
325.0179, 1659.056
325.5000, 1652.149
325.9821, 1645.236
326.4642, 1641.365
326.9464, 1647.437
327.4285, 1652.109
327.9106, 1648.595
328.3927, 1622.508
328.8748, 1606.761
329.3569, 1607.547
329.8391, 1621.423
330.3212, 1631.355
330.8033, 1636.297
331.2854, 1638.483
331.7675, 1638.867
332.2496, 1636.453
332.7318, 1634.324
333.2139, 1633.250
333.6960, 1632.480
334.1781, 1629.382
334.6602, 1622.624
335.1423, 1615.780
335.6245, 1609.717
336.1066, 1602.911
336.5887, 1602.133
337.0708, 1609.138
337.5529, 1620.829
338.0350, 1631.054
338.5172, 1640.117
338.9993, 1646.868
339.4814, 1650.943
339.9635, 1652.282
340.4456, 1649.430
340.9277, 1639.779
341.4099, 1630.474
341.8920, 1633.956
342.3741, 1651.148
342.8562, 1669.949
343.3383, 1687.154
343.8204, 1702.249
344.3026, 1710.573
344.7847, 1710.928
345.2668, 1708.911
345.7489, 1712.417
346.2310, 1720.581
346.7131, 1724.972
347.1953, 1718.494
347.6774, 1707.180
348.1595, 1709.297
348.6416, 1725.273
349.1237, 1743.336
349.6058, 1751.034
350.0880, 1751.729
350.5700, 1754.974
351.0522, 1764.823
351.5343, 1777.865
352.0164, 1791.357
352.4985, 1804.883
352.9806, 1814.000
353.4627, 1809.689
353.9449, 1800.176
354.4270, 1798.804
354.9091, 1813.752
355.3912, 1830.665
355.8733, 1835.290
356.3554, 1830.247
356.8376, 1826.033
357.3197, 1824.513
357.8018, 1828.531
358.2839, 1842.954
358.7660, 1875.486
359.2481, 1903.202
359.7303, 1907.284
360.2124, 1897.336
360.6945, 1894.567
361.1766, 1918.365
361.6587, 1943.958
362.1408, 1956.207
362.6230, 1949.616
363.1051, 1942.904
363.5872, 1940.902
364.0693, 1942.272
364.5514, 1945.040
365.0335, 1951.489
365.5157, 1956.820
365.9978, 1957.075
366.4799, 1949.394
366.9620, 1951.252
367.4441, 1972.581
367.9262, 2000.558
368.4084, 2022.210
368.8905, 2035.874
369.3726, 2044.851
369.8547, 2046.937
370.3368, 2042.168
370.8189, 2043.259
371.3011, 2055.021
371.7832, 2067.939
372.2653, 2074.864
372.7474, 2072.723
373.2295, 2071.127
373.7116, 2070.371
374.1938, 2071.032
374.6759, 2076.638
375.1580, 2089.729
375.6401, 2102.153
376.1222, 2107.811
376.6043, 2105.151
377.0865, 2106.878
377.5686, 2115.231
378.0507, 2126.785
378.5328, 2132.884
379.0149, 2132.783
379.4970, 2135.176
379.9792, 2146.309
380.4613, 2165.051
380.9434, 2179.640
381.4255, 2189.451
381.9076, 2197.040
382.3897, 2204.779
382.8719, 2212.899
383.3540, 2222.578
383.8361, 2236.709
384.3182, 2252.143
384.8003, 2261.085
385.2824, 2263.357
385.7646, 2265.661
386.2467, 2274.318
386.7288, 2287.287
387.2109, 2300.398
387.6930, 2311.268
388.1751, 2322.961
388.6573, 2340.471
389.1394, 2362.745
389.6215, 2382.738
390.1036, 2391.666
390.5857, 2398.331
391.0678, 2412.459
391.5499, 2441.814
392.0320, 2468.883
392.5142, 2478.536
392.9963, 2478.476
393.4784, 2487.078
393.9605, 2523.128
394.4426, 2560.649
394.9247, 2586.054
395.4069, 2595.711
395.8890, 2599.544
396.3711, 2586.624
396.8532, 2572.509
397.3353, 2578.740
397.8174, 2630.655
398.2996, 2680.857
398.7817, 2718.316
399.2638, 2742.072
399.7459, 2758.381
400.2280, 2755.835
400.7101, 2753.896
401.1923, 2769.790
401.6744, 2814.004
402.1565, 2856.749
402.6386, 2895.406
403.1207, 2929.740
403.6028, 2956.620
404.0850, 2971.374
404.5671, 2988.056
405.0492, 3018.361
405.5313, 3066.003
406.0134, 3104.098
406.4955, 3128.486
406.9777, 3144.666
407.4598, 3162.457
407.9419, 3181.889
408.4240, 3203.625
408.9061, 3226.453
409.3882, 3251.336
409.8704, 3286.936
410.3525, 3336.142
410.8346, 3382.854
411.3167, 3406.491
411.7988, 3411.248
412.2809, 3413.749
412.7631, 3418.346
413.2452, 3425.461
413.7273, 3436.110
414.2094, 3450.183
414.6915, 3465.985
415.1736, 3491.634
415.6558, 3515.499
416.1379, 3518.591
416.6200, 3482.877
417.1021, 3446.602
417.5842, 3443.886
418.0663, 3463.194
418.5485, 3470.236
419.0306, 3437.633
419.5127, 3395.810
419.9948, 3364.683
420.4769, 3351.896
420.9590, 3336.589
421.4412, 3310.001
421.9233, 3277.991
422.4054, 3248.222
422.8875, 3223.471
423.3696, 3200.071
423.8517, 3179.916
424.3339, 3164.741
424.8160, 3138.651
425.2981, 3097.778
425.7802, 3049.208
426.2623, 2996.001
426.7444, 2927.270
427.2266, 2875.433
427.7087, 2850.451
428.1908, 2844.593
428.6729, 2824.342
429.1550, 2786.038
429.6371, 2742.318
430.1193, 2698.411
430.6014, 2653.606
431.0835, 2615.831
431.5656, 2587.052
432.0477, 2562.008
432.5298, 2530.714
433.0119, 2493.200
433.4940, 2460.186
433.9762, 2438.197
434.4583, 2423.803
434.9404, 2406.423
435.4225, 2385.934
435.9046, 2364.061
436.3867, 2342.857
436.8689, 2321.618
437.3510, 2298.859
437.8331, 2273.518
438.3152, 2247.412
438.7973, 2221.387
439.2794, 2195.927
439.7616, 2172.791
440.2437, 2155.125
440.7258, 2139.294
441.2079, 2122.621
441.6900, 2104.948
442.1721, 2085.608
442.6543, 2057.648
443.1364, 2029.272
443.6185, 2012.503
444.1006, 2026.121
444.5827, 2037.742
445.0648, 2034.983
445.5470, 2016.538
446.0291, 1999.421
446.5112, 1985.540
446.9933, 1973.680
447.4754, 1962.627
447.9576, 1949.908
448.4397, 1942.225
448.9218, 1943.186
449.4039, 1949.258
449.8860, 1948.270
450.3681, 1937.025
450.8503, 1925.085
451.3324, 1915.884
451.8145, 1909.127
452.2966, 1909.920
452.7787, 1922.446
453.2608, 1933.776
453.7430, 1920.326
454.2251, 1882.390
454.7072, 1856.376
455.1893, 1858.766
455.6714, 1879.186
456.1535, 1890.909
456.6357, 1894.042
457.1178, 1891.671
457.5999, 1881.076
458.0820, 1867.339
458.5641, 1861.389
459.0462, 1866.627
459.5284, 1876.800
460.0105, 1890.282
460.4926, 1904.224
460.9747, 1911.253
461.4568, 1900.361
461.9389, 1886.488
462.4211, 1879.841
462.9032, 1881.428
463.3853, 1886.415
463.8674, 1901.808
464.3495, 1915.467
464.8316, 1915.854
465.3138, 1880.983
465.7959, 1854.119
466.2780, 1848.128
466.7601, 1859.414
467.2422, 1865.666
467.7243, 1866.416
468.2065, 1862.152
468.6886, 1852.238
469.1707, 1833.654
469.6528, 1818.255
470.1349, 1806.745
470.6170, 1798.009
471.0992, 1789.867
471.5813, 1781.462
472.0634, 1777.701
472.5455, 1782.404
473.0276, 1792.887
473.5097, 1794.216
473.9918, 1785.516
474.4739, 1774.443
474.9561, 1766.090
475.4382, 1760.453
475.9203, 1758.454
476.4024, 1761.385
476.8845, 1764.917
477.3666, 1762.769
477.8488, 1756.332
478.3309, 1750.167
478.8130, 1746.659
479.2951, 1744.577
479.7772, 1743.281
480.2593, 1742.745
480.7415, 1741.140
481.2236, 1734.821
481.7057, 1728.042
482.1878, 1725.092
482.6699, 1736.111
483.1520, 1741.144
483.6342, 1730.128
484.1163, 1707.896
484.5984, 1690.604
485.0805, 1683.425
485.5626, 1679.127
486.0447, 1675.157
486.5269, 1671.616
487.0090, 1668.101
487.4911, 1664.687
487.9732, 1661.307
488.4553, 1658.378
488.9374, 1657.124
489.4196, 1652.021
489.9017, 1639.341
490.3838, 1622.613
490.8659, 1617.500
491.3480, 1625.409
491.8301, 1635.349
492.3123, 1641.409
492.7944, 1643.658
493.2765, 1641.818
493.7586, 1635.151
494.2407, 1627.504
494.7228, 1622.935
495.2050, 1621.116
495.6871, 1621.173
496.1692, 1626.834
496.6513, 1631.452
497.1334, 1626.302
497.6155, 1612.819
498.0977, 1601.513
498.5798, 1598.363
499.0619, 1599.970
499.5440, 1604.441
500.0261, 1614.242
500.5082, 1620.787
500.9904, 1619.878
501.4725, 1614.444
501.9546, 1609.290
502.4367, 1601.546
502.9188, 1597.903
503.4009, 1600.764
503.8831, 1610.250
504.3652, 1619.785
504.8473, 1631.877
505.3294, 1640.517
505.8115, 1639.311
506.2936, 1624.498
506.7758, 1617.429
507.2579, 1622.333
507.7400, 1632.198
508.2221, 1633.605
508.7042, 1626.531
509.1863, 1617.230
509.6685, 1607.699
510.1506, 1598.138
510.6327, 1588.675
511.1148, 1579.363
511.5969, 1571.362
512.0790, 1562.741
512.5612, 1556.824
513.0433, 1560.045
513.5254, 1577.599
514.0075, 1596.776
514.4896, 1607.101
514.9717, 1612.136
515.4539, 1619.706
515.9360, 1641.204
516.4181, 1658.647
516.9002, 1659.931
517.3823, 1642.550
517.8644, 1632.571
518.3466, 1637.814
518.8287, 1649.730
519.3108, 1662.425
519.7929, 1679.287
520.2750, 1691.314
520.7571, 1697.738
521.2393, 1699.269
521.7214, 1696.541
522.2035, 1687.623
522.6856, 1680.548
523.1677, 1677.516
523.6498, 1678.710
524.1320, 1688.290
524.6141, 1707.762
525.0962, 1726.179
525.5783, 1729.386
526.0604, 1722.587
526.5425, 1726.340
527.0247, 1748.646
527.5068, 1772.667
527.9889, 1778.335
528.4710, 1769.952
528.9531, 1759.073
529.4352, 1745.677
529.9174, 1736.312
530.3995, 1737.880
530.8816, 1750.462
531.3637, 1762.895
531.8458, 1741.482
532.3279, 1773.365
532.8101, 1794.328
533.2922, 1804.952
533.7743, 1774.281
534.2564, 1796.934
534.7385, 1798.218
535.2206, 1798.625
535.7027, 1828.783
536.1848, 1804.119
536.6669, 1833.805
537.1490, 1841.796
537.6312, 1814.020
538.1133, 1822.709
538.5954, 1838.202
539.0775, 1839.591
539.5596, 1828.382
540.0417, 1819.298
540.5239, 1814.253
541.0060, 1810.799
541.4881, 1804.021
541.9702, 1795.741
542.4523, 1791.686
542.9344, 1797.494
543.4166, 1806.669
543.8987, 1813.182
544.3808, 1817.379
544.8629, 1821.465
545.3450, 1831.462
545.8271, 1838.688
546.3093, 1835.125
546.7914, 1812.781
547.2735, 1796.473
547.7556, 1795.320
548.2377, 1801.860
548.7198, 1805.868
549.2020, 1805.120
549.6841, 1804.594
550.1662, 1805.258
550.6483, 1806.792
551.1304, 1807.536
551.6125, 1807.424
552.0947, 1806.542
552.5768, 1804.278
553.0589, 1800.675
553.5410, 1798.899
554.0231, 1799.083
554.5052, 1800.674
554.9874, 1805.978
555.4695, 1812.583
555.9516, 1811.501
556.4337, 1794.020
556.9158, 1776.161
557.3979, 1779.322
557.8801, 1797.413
558.3622, 1810.761
558.8443, 1803.148
559.3264, 1792.523
559.8085, 1792.126
560.2906, 1804.378
560.7728, 1812.930
561.2549, 1812.219
561.7370, 1806.854
562.2191, 1800.548
562.7012, 1794.267
563.1833, 1785.374
563.6655, 1768.996
564.1476, 1752.053
564.6297, 1752.367
565.1118, 1777.186
565.5939, 1795.677
566.0760, 1795.962
566.5582, 1780.887
567.0403, 1764.142
567.5224, 1745.233
568.0045, 1732.633
568.4866, 1738.945
568.9688, 1756.668
569.4509, 1765.421
569.9330, 1760.387
570.4151, 1754.326
570.8972, 1760.344
571.3793, 1773.374
571.8615, 1784.662
572.3436, 1791.724
572.8257, 1795.445
573.3078, 1793.787
573.7899, 1788.234
574.2720, 1786.070
574.7542, 1790.166
575.2363, 1796.904
575.7184, 1806.320
576.2005, 1821.286
576.6826, 1826.377
577.1647, 1816.053
577.6469, 1802.267
578.1290, 1797.046
578.6111, 1801.574
579.0932, 1807.340
579.5753, 1813.220
580.0574, 1819.677
580.5396, 1828.744
581.0217, 1840.111
581.5038, 1849.313
581.9859, 1851.677
582.4680, 1851.482
582.9501, 1856.962
583.4323, 1847.827
583.9144, 1878.107
584.3965, 1897.464
584.8786, 1906.485
585.3607, 1874.210
585.8428, 1895.259
586.3250, 1894.941
586.8071, 1893.744
587.2892, 1922.298
587.7713, 1896.031
588.2534, 1924.114
588.7355, 1930.500
589.2177, 1946.818
589.6998, 1941.634
590.1819, 1943.089
590.6640, 1966.054
591.1461, 1977.110
591.6282, 1969.449
592.1104, 1986.399
592.5925, 1959.380
593.0746, 1970.942
593.5567, 1999.151
594.0388, 1973.773
594.5209, 1965.174
595.0031, 1961.962
595.4852, 1966.114
595.9673, 1975.095
596.4494, 1993.015
596.9315, 2013.539
597.4136, 2024.333
597.8958, 2008.001
598.3779, 1992.959
598.8600, 1991.388
599.3421, 2002.605
599.8242, 2017.865
600.3063, 2043.113
600.7885, 2065.811
601.2706, 2079.741
601.7527, 2082.814
602.2348, 2087.856
602.7169, 2095.706
603.1990, 2104.052
603.6812, 2110.923
604.1633, 2116.250
604.6454, 2118.308
605.1275, 2114.964
605.6096, 2111.607
606.0917, 2120.722
606.5739, 2138.723
607.0560, 2151.123
607.5381, 2147.497
608.0202, 2136.917
608.5023, 2125.469
608.9844, 2114.150
609.4666, 2108.993
609.9487, 2119.702
610.4308, 2132.712
610.9129, 2138.922
611.3950, 2135.271
611.8771, 2131.886
612.3593, 2131.407
612.8414, 2130.973
613.3235, 2128.098
613.8056, 2122.168
614.2877, 2115.102
614.7698, 2106.436
615.2520, 2097.286
615.7341, 2091.206
616.2162, 2088.360
616.6983, 2083.494
617.1804, 2071.847
617.6625, 2057.744
618.1446, 2051.189
618.6267, 2051.777
619.1088, 2056.072
619.5909, 2067.774
620.0731, 2078.710
620.5552, 2078.979
621.0373, 2066.019
621.5194, 2051.344
622.0015, 2035.265
622.4836, 2022.139
622.9658, 2016.053
623.4479, 2027.263
623.9300, 2033.427
624.4121, 2031.409
624.8942, 2024.292
625.3763, 2019.229
625.8585, 2019.264
626.3406, 2011.292
626.8227, 1986.278
627.3048, 1950.907
627.7869, 1938.200
628.2690, 1948.661
628.7512, 1959.922
629.2333, 1952.586
629.7154, 1936.777
630.1975, 1933.427
630.6796, 1944.741
631.1617, 1956.992
631.6439, 1962.193
632.1260, 1962.258
632.6081, 1958.965
633.0902, 1950.808
633.5723, 1942.663
634.0544, 1937.319
634.5366, 1932.584
635.0187, 1924.523
635.5008, 1910.597
635.9829, 1896.711
636.4650, 1882.695
636.9471, 1869.700
637.4293, 1864.591
637.9114, 1868.687
638.3935, 1873.863
638.8756, 1875.710
639.3577, 1874.880
639.8398, 1874.476
640.3220, 1874.474
640.8041, 1874.060
641.2862, 1870.438
641.7683, 1866.717
642.2504, 1868.429
642.7325, 1878.959
643.2147, 1886.838
643.6968, 1883.379
644.1789, 1874.839
644.6610, 1868.922
645.1431, 1868.609
645.6252, 1869.649
646.1074, 1873.889
646.5895, 1878.798
647.0716, 1876.172
647.5537, 1861.571
648.0358, 1851.242
648.5179, 1852.131
649.0001, 1861.892
649.4822, 1868.158
649.9643, 1870.929
650.4464, 1871.958
650.9285, 1872.795
651.4106, 1872.709
651.8928, 1869.532
652.3749, 1862.841
652.8570, 1856.715
653.3391, 1854.609
653.8212, 1854.355
654.3033, 1853.898
654.7855, 1854.131
655.2676, 1851.882
655.7497, 1842.250
656.2318, 1831.050
656.7139, 1827.410
657.1960, 1835.344
657.6782, 1843.553
658.1603, 1851.306
658.6424, 1857.380
659.1245, 1856.188
659.6066, 1847.116
660.0887, 1838.294
660.5709, 1831.720
661.0530, 1828.711
661.5351, 1833.616
662.0172, 1846.163
662.4993, 1861.946
662.9814, 1883.850
663.4636, 1903.940
663.9457, 1914.497
664.4278, 1913.560
664.9099, 1907.183
665.3920, 1892.521
665.8741, 1875.819
666.3563, 1862.993
666.8384, 1849.334
667.3205, 1848.402
667.8026, 1867.106
668.2847, 1893.465
668.7668, 1905.275
669.2490, 1900.605
669.7311, 1898.424
670.2132, 1904.622
670.6953, 1915.912
671.1774, 1925.548
671.6595, 1933.905
672.1417, 1943.372
672.6238, 1960.562
673.1059, 1975.793
673.5880, 1977.190
674.0701, 1965.530
674.5522, 1955.837
675.0344, 1949.067
675.5165, 1950.206
675.9986, 1964.271
676.4807, 1997.630
676.9628, 2024.583
677.4449, 2042.839
677.9271, 2056.913
678.4092, 2069.776
678.8913, 2081.220
679.3734, 2092.147
679.8555, 2100.278
680.3376, 2114.158
680.8198, 2150.969
681.3019, 2205.039
681.7840, 2255.169
682.2661, 2295.423
682.7482, 2328.593
683.2303, 2354.342
683.7125, 2375.670
684.1946, 2400.623
684.6767, 2430.808
685.1588, 2466.362
685.6409, 2509.970
686.1230, 2561.032
686.6052, 2608.710
687.0873, 2647.722
687.5694, 2691.429
688.0515, 2748.981
688.5336, 2820.337
689.0157, 2879.296
689.4979, 2923.546
689.9800, 2968.629
690.4621, 3027.693
690.9442, 3097.121
691.4263, 3171.523
691.9084, 3250.315
692.3906, 3330.551
692.8727, 3407.282
693.3548, 3484.844
693.8369, 3570.735
694.3190, 3683.483
694.8011, 3778.394
695.2833, 3830.060
695.7654, 3861.490
696.2475, 3912.237
696.7296, 3996.382
697.2117, 4070.757
697.6938, 4128.732
698.1760, 4171.673
698.6581, 4200.693
699.1402, 4215.855
699.6223, 4229.253
700.1044, 4254.598
700.5865, 4277.816
701.0686, 4273.508
701.5507, 4243.055
702.0328, 4196.572
702.5150, 4126.100
702.9971, 4051.955
703.4792, 3992.375
703.9613, 3951.681
704.4434, 3893.877
704.9255, 3796.770
705.4077, 3692.486
705.8898, 3601.115
706.3719, 3528.875
706.8540, 3443.290
707.3361, 3339.717
707.8182, 3232.780
708.3004, 3141.000
708.7825, 3061.318
709.2646, 2971.638
709.7467, 2862.756
710.2288, 2762.792
710.7109, 2710.148
711.1931, 2687.156
711.6752, 2661.866
712.1573, 2618.669
712.6394, 2575.688
713.1215, 2541.824
713.6036, 2513.066
714.0858, 2478.806
714.5679, 2435.184
715.0500, 2390.072
715.5321, 2342.248
716.0142, 2294.025
716.4963, 2259.021
716.9785, 2238.625
717.4606, 2217.989
717.9427, 2183.633
718.4248, 2145.059
718.9069, 2129.259
719.3890, 2134.175
719.8712, 2138.045
720.3533, 2124.208
720.8354, 2104.279
721.3175, 2087.696
721.7996, 2075.470
722.2817, 2065.408
722.7639, 2062.860
723.2460, 2057.643
723.7281, 2041.925
724.2102, 2008.421
724.6923, 1986.841
725.1744, 1979.388
725.6566, 1980.003
726.1387, 1986.269
726.6208, 1996.604
727.1029, 1996.417
727.5850, 1980.496
728.0671, 1964.386
728.5493, 1970.550
729.0314, 1987.796
729.5135, 1996.691
729.9956, 1983.206
730.4777, 1970.415
730.9598, 1971.767
731.4420, 1979.583
731.9241, 1976.696
732.4062, 1948.223
732.8883, 1932.345
733.3704, 1940.334
733.8525, 1963.553
734.3347, 1973.317
734.8168, 1968.484
735.2989, 1965.631
735.7810, 1971.963
736.2631, 1985.098
736.7452, 2004.808
737.2274, 2028.763
737.7095, 2044.568
738.1916, 2040.166
738.6737, 2028.956
739.1558, 2017.016
739.6379, 2005.001
740.1201, 2001.074
740.6022, 2013.820
741.0843, 2028.206
741.5664, 2037.269
742.0485, 2039.909
742.5306, 2048.607
743.0128, 2065.531
743.4949, 2080.971
743.9770, 2085.252
744.4591, 2081.213
744.9412, 2077.974
745.4233, 2076.100
745.9055, 2077.509
746.3876, 2085.462
746.8697, 2096.726
747.3518, 2107.863
747.8339, 2119.387
748.3160, 2127.936
748.7982, 2137.223
749.2803, 2140.428
749.7624, 2128.741
750.2445, 2094.073
750.7266, 2067.178
751.2087, 2051.949
751.6909, 2044.176
752.1730, 2035.395
752.6551, 2026.992
753.1372, 2028.976
753.6193, 2049.910
754.1014, 2072.242
754.5836, 2080.651
755.0657, 2076.023
755.5478, 2060.176
756.0299, 2012.778
756.5120, 1977.465
756.9941, 1977.297
757.4763, 2001.432
757.9584, 2012.385
758.4405, 2006.820
758.9226, 1994.055
759.4047, 1972.984
759.8868, 1948.159
760.3690, 1938.403
760.8511, 1943.022
761.3332, 1944.057
761.8153, 1926.764
762.2974, 1902.794
762.7795, 1886.495
763.2617, 1877.341
763.7438, 1872.208
764.2259, 1873.738
764.7080, 1875.075
765.1901, 1873.335
765.6722, 1868.244
766.1544, 1858.003
766.6365, 1836.697
767.1186, 1820.381
767.6007, 1821.939
768.0828, 1840.174
768.5649, 1841.696
769.0471, 1825.470
769.5292, 1809.518
770.0113, 1811.382
770.4934, 1821.906
770.9755, 1827.526
771.4576, 1826.603
771.9398, 1823.874
772.4219, 1819.262
772.9040, 1815.427
773.3861, 1814.972
773.8682, 1820.999
774.3503, 1822.473
774.8325, 1816.907
775.3146, 1810.281
775.7967, 1808.510
776.2788, 1811.464
776.7609, 1812.675
777.2430, 1810.907
777.7252, 1810.379
778.2073, 1817.804
778.6894, 1829.022
779.1715, 1837.672
779.6536, 1842.745
780.1357, 1843.710
780.6179, 1836.871
781.1000, 1827.286
781.5821, 1821.490
782.0642, 1824.834
782.5463, 1822.056
783.0284, 1808.398
783.5105, 1793.314
783.9926, 1793.282
784.4747, 1807.536
784.9568, 1820.828
785.4390, 1830.972
785.9211, 1835.826
786.4032, 1827.003
786.8853, 1811.804
787.3674, 1804.479
787.8495, 1820.688
788.3317, 1833.652
788.8138, 1831.253
789.2959, 1819.464
789.7780, 1811.432
790.2601, 1807.973
790.7422, 1807.255
791.2244, 1810.261
791.7065, 1814.436
792.1886, 1814.162
792.6707, 1809.501
793.1528, 1801.192
793.6349, 1786.729
794.1171, 1772.141
794.5992, 1763.020
795.0813, 1759.114
795.5634, 1759.500
796.0455, 1772.354
796.5276, 1780.532
797.0098, 1774.718
797.4919, 1759.038
797.9740, 1748.701
798.4561, 1745.339
798.9382, 1742.556
799.4203, 1738.222
799.9025, 1733.129
800.3846, 1730.191
800.8667, 1728.998
801.3488, 1726.408
801.8309, 1717.656
802.3130, 1709.055
802.7952, 1708.942
803.2773, 1714.866
803.7594, 1716.010
804.2415, 1704.038
804.7236, 1691.768
805.2057, 1683.013
805.6879, 1677.578
806.1700, 1675.475
806.6521, 1678.565
807.1342, 1676.601
807.6163, 1658.451
808.0984, 1633.660
808.5806, 1633.692
809.0627, 1654.772
809.5448, 1672.698
810.0269, 1665.178
810.5090, 1655.470
810.9911, 1663.541
811.4733, 1688.531
811.9554, 1704.810
812.4375, 1702.238
812.9196, 1697.440
813.4017, 1697.104
813.8839, 1700.324
814.3660, 1693.831
814.8481, 1676.679
815.3302, 1661.662
815.8123, 1657.002
816.2944, 1659.760
816.7766, 1664.185
817.2587, 1670.655
817.7408, 1682.714
818.2229, 1709.873
818.7050, 1736.576
819.1871, 1752.425
819.6693, 1755.998
820.1514, 1766.133
820.6335, 1789.414
821.1156, 1807.094
821.5977, 1807.123
822.0798, 1792.522
822.5620, 1786.042
823.0441, 1787.514
823.5262, 1790.450
824.0083, 1791.825
824.4904, 1791.144
824.9725, 1785.599
825.4547, 1775.590
825.9368, 1770.496
826.4189, 1780.011
826.9010, 1789.292
827.3831, 1790.528
827.8652, 1783.443
828.3474, 1779.083
828.8295, 1777.251
829.3116, 1779.014
829.7937, 1786.640
830.2758, 1798.263
830.7579, 1809.282
831.2401, 1819.468
831.7222, 1826.121
832.2043, 1826.985
832.6864, 1824.011
833.1685, 1815.445
833.6506, 1800.909
834.1328, 1796.275
834.6149, 1806.856
835.0970, 1821.610
835.5791, 1838.611
836.0612, 1856.782
836.5433, 1861.068
837.0255, 1851.038
837.5076, 1842.356
837.9897, 1848.672
838.4718, 1861.065
838.9539, 1867.855
839.4360, 1868.845
839.9182, 1867.324
840.4003, 1859.286
840.8824, 1854.062
841.3645, 1858.747
841.8466, 1872.703
842.3287, 1879.576
842.8109, 1876.903
843.2930, 1874.520
843.7751, 1879.604
844.2572, 1888.662
844.7393, 1889.205
845.2214, 1882.017
845.7036, 1873.489
846.1857, 1867.116
846.6678, 1861.379
847.1499, 1853.302
847.6320, 1843.580
848.1141, 1841.333
848.5963, 1856.751
849.0784, 1867.415
849.5605, 1864.583
850.0426, 1850.470
850.5247, 1836.915
851.0068, 1823.845
851.4890, 1815.295
851.9711, 1816.527
852.4532, 1821.568
852.9353, 1821.611
853.4174, 1818.085
853.8995, 1817.351
854.3817, 1824.295
854.8638, 1832.195
855.3459, 1839.524
855.8280, 1845.770
856.3101, 1848.768
856.7922, 1848.642
857.2744, 1844.123
857.7565, 1831.691
858.2386, 1817.146
858.7207, 1818.963
859.2028, 1832.187
859.6849, 1837.524
860.1671, 1810.471
860.6492, 1786.705
861.1313, 1794.096
861.6134, 1822.753
862.0955, 1837.176
862.5776, 1828.180
863.0598, 1817.307
863.5419, 1808.249
864.0240, 1800.851
864.5061, 1794.350
864.9882, 1788.916
865.4703, 1786.012
865.9524, 1788.479
866.4345, 1790.464
866.9166, 1781.677
867.3987, 1768.724
867.8809, 1764.182
868.3630, 1783.239
868.8451, 1796.827
869.3272, 1797.728
869.8093, 1792.028
870.2914, 1790.063
870.7736, 1791.989
871.2557, 1796.495
871.7378, 1804.991
872.2199, 1811.467
872.7020, 1802.841
873.1841, 1786.926
873.6663, 1779.998
874.1484, 1792.054
874.6305, 1804.378
875.1126, 1809.414
875.5947, 1811.321
876.0768, 1815.598
876.5590, 1823.312
877.0411, 1830.048
877.5232, 1835.057
878.0053, 1840.225
878.4874, 1849.934
878.9695, 1861.696
879.4517, 1868.373
879.9338, 1868.401
880.4159, 1864.761
880.8980, 1855.089
881.3801, 1845.248
881.8622, 1839.771
882.3444, 1835.657
882.8265, 1847.757
883.3086, 1885.959
883.7907, 1922.901
884.2728, 1931.022
884.7549, 1914.951
885.2371, 1907.250
885.7192, 1909.766
886.2013, 1919.155
886.6834, 1936.886
887.1655, 1957.379
887.6476, 1977.974
888.1298, 1999.384
888.6119, 2008.478
889.0940, 1991.867
889.5761, 1977.872
890.0582, 1980.864
890.5403, 1999.889
891.0225, 2019.377
891.5046, 2039.491
891.9867, 2054.958
892.4688, 2060.135
892.9509, 2059.800
893.4330, 2056.319
893.9152, 2051.095
894.3973, 2051.393
894.8794, 2063.945
895.3615, 2078.081
895.8436, 2092.229
896.3257, 2105.028
896.8079, 2107.733
897.2900, 2098.958
897.7721, 2096.717
898.2542, 2113.760
898.7363, 2135.600
899.2184, 2136.868
899.7006, 2124.009
900.1827, 2114.124
900.6648, 2114.928
901.1469, 2118.719
901.6290, 2122.445
902.1111, 2127.787
902.5933, 2139.977
903.0754, 2163.005
903.5575, 2174.537
904.0396, 2168.665
904.5217, 2154.242
905.0038, 2141.772
905.4860, 2131.325
905.9681, 2122.900
906.4502, 2116.781
906.9323, 2112.285
907.4144, 2110.469
907.8965, 2109.381
908.3787, 2107.937
908.8608, 2110.417
909.3429, 2096.611
909.8250, 2059.837
910.3071, 2025.536
910.7892, 2028.886
911.2714, 2054.757
911.7535, 2062.584
912.2356, 2047.114
912.7177, 2029.285
913.1998, 2014.327
913.6819, 1981.109
914.1641, 1994.854
914.6462, 1997.680
915.1283, 1990.168
915.6104, 1941.361
916.0925, 1945.878
916.5746, 1929.026
917.0568, 1911.295
917.5389, 1923.318
918.0210, 1880.518
918.5031, 1892.068
918.9852, 1881.922
919.4673, 1881.708
919.9495, 1859.988
920.4316, 1860.501
920.9137, 1860.384
921.3958, 1865.102
921.8779, 1861.452
922.3600, 1842.437
922.8422, 1816.151
923.3243, 1800.935
923.8064, 1795.711
924.2885, 1797.438
924.7706, 1811.212
925.2527, 1822.033
925.7349, 1825.051
926.2170, 1817.282
926.6991, 1790.708
927.1812, 1716.767
927.6633, 1686.210
928.1454, 1720.030
928.6276, 1771.709
929.1097, 1779.726
929.5918, 1753.484
930.0739, 1727.704
930.5560, 1707.138
931.0381, 1696.150
931.5203, 1708.688
932.0024, 1725.532
932.4845, 1728.501
932.9666, 1709.618
933.4487, 1699.279
933.9308, 1700.685
934.4130, 1704.028
934.8951, 1702.781
935.3772, 1697.877
935.8593, 1690.551
936.3414, 1681.880
936.8235, 1682.378
937.3057, 1716.389
937.7878, 1746.310
938.2699, 1735.754
938.7520, 1692.502
939.2341, 1683.446
939.7162, 1731.491
940.1984, 1764.417
940.6805, 1755.367
941.1626, 1724.909
941.6447, 1724.631
942.1268, 1747.171
942.6089, 1763.329
943.0911, 1756.184
943.5732, 1748.271
944.0553, 1757.268
944.5374, 1772.667
945.0195, 1776.816
945.5016, 1760.368
945.9838, 1753.719
946.4659, 1761.011
946.9480, 1772.908
947.4301, 1779.488
947.9122, 1781.726
948.3943, 1781.844
948.8764, 1779.847
949.3585, 1779.460
949.8406, 1784.684
950.3228, 1791.167
950.8049, 1795.194
951.2870, 1796.193
951.7691, 1800.848
952.2512, 1811.666
952.7333, 1817.890
953.2155, 1808.509
953.6976, 1791.545
954.1797, 1788.019
954.6618, 1795.890
955.1439, 1805.817
955.6260, 1818.999
956.1082, 1826.707
956.5903, 1817.833
957.0724, 1801.078
957.5545, 1801.016
958.0366, 1823.195
958.5187, 1838.954
959.0009, 1842.175
959.4830, 1836.605
959.9651, 1824.157
960.4472, 1808.054
960.9293, 1793.803
961.4114, 1781.724
961.8936, 1774.671
962.3757, 1774.870
962.8578, 1780.097
963.3399, 1790.519
963.8220, 1809.388
964.3041, 1813.237
964.7863, 1800.143
965.2684, 1785.170
965.7505, 1778.276
966.2326, 1778.500
966.7147, 1789.010
967.1968, 1808.205
967.6790, 1818.604
968.1611, 1806.315
968.6432, 1791.895
969.1253, 1780.765
969.6074, 1773.356
970.0895, 1772.064
970.5717, 1776.891
971.0538, 1783.464
971.5359, 1792.293
972.0180, 1798.713
972.5001, 1794.222
972.9822, 1784.595
973.4644, 1779.831
973.9465, 1790.679
974.4286, 1794.638
974.9107, 1787.413
975.3928, 1776.502
975.8749, 1767.521
976.3571, 1761.311
976.8392, 1768.588
977.3213, 1791.145
977.8034, 1811.300
978.2855, 1813.359
978.7676, 1807.891
979.2498, 1801.667
979.7319, 1795.129
980.2140, 1796.570
980.6961, 1812.042
981.1782, 1822.033
981.6603, 1815.707
982.1425, 1799.326
982.6246, 1791.255
983.1067, 1790.307
983.5888, 1791.248
984.0709, 1796.228
984.5530, 1797.450
985.0352, 1783.318
985.5173, 1765.618
985.9994, 1767.651
986.4815, 1801.077
986.9636, 1812.062
987.4457, 1790.233
987.9279, 1762.508
988.4100, 1764.380
988.8921, 1782.210
989.3742, 1789.011
989.8563, 1779.217
990.3384, 1775.196
990.8206, 1797.476
991.3027, 1816.737
991.7848, 1814.629
992.2669, 1792.818
992.7490, 1783.572
993.2311, 1787.224
993.7133, 1794.577
994.1954, 1806.601
994.6775, 1814.412
995.1596, 1801.333
995.6417, 1776.106
996.1238, 1760.391
996.6060, 1766.244
997.0881, 1774.714
997.5702, 1786.636
998.0523, 1796.468
998.5344, 1793.149
999.0165, 1779.442
999.4987, 1773.587
999.9808, 1778.974
1000.463, 1786.648
1000.945, 1791.108
1001.427, 1793.779
1001.909, 1797.786
1002.391, 1804.668
1002.873, 1797.245
1003.356, 1768.824
1003.838, 1745.445
1004.320, 1740.874
1004.802, 1750.058
1005.284, 1764.802
1005.766, 1782.864
1006.248, 1796.472
1006.730, 1800.390
1007.213, 1801.377
1007.695, 1799.946
1008.177, 1797.849
1008.659, 1798.913
1009.141, 1804.260
1009.623, 1799.598
1010.105, 1781.116
1010.587, 1764.888
1011.069, 1771.519
1011.552, 1788.354
1012.034, 1800.229
1012.516, 1804.565
1012.998, 1809.379
1013.480, 1819.701
1013.962, 1825.412
1014.444, 1820.590
1014.926, 1808.195
1015.409, 1802.057
1015.891, 1801.085
1016.373, 1798.041
1016.855, 1784.633
1017.337, 1773.797
1017.819, 1774.970
1018.301, 1784.007
1018.783, 1794.418
1019.265, 1809.070
1019.748, 1814.103
1020.230, 1805.654
1020.712, 1797.183
1021.194, 1807.431
1021.676, 1826.508
1022.158, 1834.991
1022.640, 1830.949
1023.122, 1826.768
1023.604, 1832.337
1024.087, 1833.004
1024.569, 1818.105
1025.051, 1793.751
1025.533, 1792.751
1026.015, 1814.268
1026.497, 1832.392
1026.979, 1837.023
1027.461, 1834.431
1027.943, 1827.575
1028.426, 1818.725
1028.908, 1811.093
1029.390, 1804.937
1029.872, 1801.100
1030.354, 1800.679
1030.836, 1800.316
1031.318, 1795.309
1031.800, 1788.088
1032.283, 1787.302
1032.765, 1792.576
1033.247, 1796.104
1033.729, 1790.590
1034.211, 1785.412
1034.693, 1787.567
1035.175, 1793.172
1035.657, 1787.960
1036.140, 1770.696
1036.622, 1763.423
1037.104, 1776.839
1037.586, 1788.568
1038.068, 1761.719
1038.550, 1721.877
1039.032, 1704.924
1039.514, 1728.794
1039.996, 1742.710
1040.479, 1738.854
1040.961, 1733.401
1041.443, 1738.478
1041.925, 1750.898
1042.407, 1755.676
1042.889, 1753.954
1043.371, 1751.652
1043.853, 1750.824
1044.335, 1751.465
1044.818, 1754.848
1045.300, 1759.314
1045.782, 1761.459
1046.264, 1760.729
1046.746, 1760.719
1047.228, 1761.467
1047.710, 1765.249
1048.192, 1779.524
1048.675, 1795.435
1049.157, 1800.162
1049.639, 1790.690
1050.121, 1786.536
1050.603, 1790.876
1051.085, 1799.496
1051.567, 1812.414
1052.049, 1827.429
1052.531, 1839.336
1053.014, 1847.474
1053.496, 1848.713
1053.978, 1836.070
1054.460, 1824.970
1054.942, 1823.274
1055.424, 1827.080
1055.906, 1831.703
1056.388, 1837.095
1056.870, 1845.116
1057.353, 1856.400
1057.835, 1863.933
1058.317, 1855.938
1058.799, 1845.067
1059.281, 1845.389
1059.763, 1856.322
1060.245, 1869.479
1060.727, 1886.411
1061.210, 1899.701
1061.692, 1906.798
1062.174, 1911.173
1062.656, 1919.189
1063.138, 1929.854
1063.620, 1941.326
1064.102, 1954.627
1064.584, 1962.379
1065.067, 1952.322
1065.549, 1943.785
1066.031, 1952.301
1066.513, 1977.101
1066.995, 1986.026
1067.477, 1978.880
1067.959, 1969.408
1068.441, 1959.156
1068.923, 1956.035
1069.406, 1977.127
1069.888, 2008.732
1070.370, 2022.452
1070.852, 2002.599
1071.334, 1990.424
1071.816, 1989.179
1072.298, 1992.539
1072.780, 1993.833
1073.262, 1994.969
1073.745, 2001.199
1074.227, 2012.343
1074.709, 2022.002
1075.191, 2029.018
1075.673, 2031.392
1076.155, 2024.499
1076.637, 2015.281
1077.119, 2027.322
1077.601, 2057.149
1078.084, 2073.412
1078.566, 2064.515
1079.048, 2053.365
1079.530, 2063.449
1080.012, 2076.022
1080.494, 2069.330
1080.976, 2039.879
1081.458, 2024.306
1081.941, 2023.704
1082.423, 2031.877
1082.905, 2053.961
1083.387, 2075.375
1083.869, 2069.374
1084.351, 2046.551
1084.833, 2030.523
1085.315, 2033.588
1085.797, 2037.100
1086.280, 2042.390
1086.762, 2043.488
1087.244, 2031.036
1087.726, 2009.223
1088.208, 1990.441
1088.690, 1975.846
1089.172, 1969.265
1089.654, 1981.433
1090.136, 1992.725
1090.619, 1992.618
1091.101, 1985.756
1091.583, 1985.470
1092.065, 1991.595
1092.547, 1989.637
1093.029, 1973.838
1093.511, 1960.249
1093.993, 1970.898
1094.476, 1986.541
1094.958, 1985.330
1095.440, 1962.318
1095.922, 1955.163
1096.404, 1968.190
1096.886, 1979.703
1097.368, 1978.342
1097.850, 1970.433
1098.333, 1963.344
1098.815, 1958.065
1099.297, 1956.883
1099.779, 1968.074
1100.261, 1970.329
1100.743, 1957.274
1101.225, 1942.789
1101.707, 1940.301
1102.189, 1946.683
1102.672, 1947.696
1103.154, 1944.260
1103.636, 1946.174
1104.118, 1969.517
1104.600, 1986.922
1105.082, 1978.882
1105.564, 1961.987
1106.046, 1970.009
1106.528, 2002.402
1107.011, 2015.057
1107.493, 2000.152
1107.975, 1980.503
1108.457, 1973.887
1108.939, 1971.844
1109.421, 1964.649
1109.903, 1952.857
1110.385, 1957.599
1110.868, 1983.929
1111.350, 2000.738
1111.832, 1995.286
1112.314, 1980.772
1112.796, 1970.605
1113.278, 1965.737
1113.760, 1968.823
1114.242, 1984.321
1114.724, 1996.701
1115.207, 2006.056
1115.689, 2009.912
1116.171, 2004.415
1116.653, 1993.280
1117.135, 1986.253
1117.617, 1982.549
1118.099, 1979.646
1118.581, 1975.585
1119.063, 1973.552
1119.546, 1975.069
1120.028, 1977.986
1120.510, 1982.917
1120.992, 1988.426
1121.474, 1978.885
1121.956, 1954.635
1122.438, 1933.770
1122.920, 1928.473
1123.403, 1929.130
1123.885, 1934.288
1124.367, 1940.522
1124.849, 1941.445
1125.331, 1937.099
1125.813, 1923.763
1126.295, 1898.626
1126.777, 1878.984
1127.260, 1889.938
1127.742, 1907.563
1128.224, 1909.030
1128.706, 1892.311
1129.188, 1879.619
1129.670, 1871.211
1130.152, 1865.790
1130.634, 1863.348
1131.116, 1862.667
1131.599, 1861.938
1132.081, 1861.813
1132.563, 1864.843
1133.045, 1876.539
1133.527, 1872.154
1134.009, 1841.458
1134.491, 1815.578
1134.973, 1816.666
1135.455, 1832.665
1135.938, 1834.381
1136.420, 1826.049
1136.902, 1819.171
1137.384, 1824.301
1137.866, 1822.074
1138.348, 1805.320
1138.830, 1786.830
1139.312, 1779.958
1139.795, 1781.750
1140.277, 1777.512
1140.759, 1767.050
1141.241, 1752.309
1141.723, 1724.238
1142.205, 1704.381
1142.687, 1706.224
1143.169, 1718.012
1143.651, 1722.682
1144.134, 1720.536
1144.616, 1716.072
1145.098, 1709.782
1145.580, 1701.963
1146.062, 1688.548
1146.544, 1677.623
1147.026, 1679.010
1147.508, 1687.758
1147.990, 1683.112
1148.473, 1663.874
1148.955, 1647.744
1149.437, 1638.184
1149.919, 1636.688
1150.401, 1656.364
1150.883, 1677.309
1151.365, 1675.125
1151.847, 1646.134
1152.330, 1633.195
1152.812, 1639.266
1153.294, 1646.667
1153.776, 1647.729
1154.258, 1647.760
1154.740, 1654.800
1155.222, 1665.009
1155.704, 1673.552
1156.186, 1681.586
1156.669, 1680.314
1157.151, 1667.675
1157.633, 1652.168
1158.115, 1634.291
1158.597, 1620.323
1159.079, 1628.664
1159.561, 1649.872
1160.043, 1661.364
1160.526, 1639.147
1161.008, 1634.704
1161.490, 1660.530
1161.972, 1684.103
1162.454, 1670.369
1162.936, 1633.879
1163.418, 1606.859
1163.900, 1591.172
1164.382, 1588.750
1164.865, 1614.817
1165.347, 1634.579
1165.829, 1638.752
1166.311, 1638.079
1166.793, 1651.893
1167.275, 1672.778
1167.757, 1668.849
1168.239, 1639.196
1168.721, 1617.785
1169.204, 1629.933
1169.686, 1643.071
1170.168, 1644.290
1170.650, 1640.360
1171.132, 1648.125
1171.614, 1663.912
1172.096, 1667.697
1172.578, 1654.854
1173.061, 1643.443
1173.543, 1652.147
1174.025, 1655.924
1174.507, 1635.368
1174.989, 1601.627
1175.471, 1597.466
1175.953, 1619.436
1176.435, 1639.531
1176.917, 1650.993
1177.400, 1654.793
1177.882, 1645.764
1178.364, 1634.166
1178.846, 1629.192
1179.328, 1629.794
1179.810, 1618.278
1180.292, 1595.815
1180.774, 1585.733
1181.256, 1602.271
1181.739, 1624.168
1182.221, 1643.969
1182.703, 1654.534
1183.185, 1644.562
1183.667, 1611.208
1184.149, 1599.759
1184.631, 1610.304
1185.113, 1624.581
1185.596, 1635.717
1186.078, 1642.561
1186.560, 1642.806
1187.042, 1638.778
1187.524, 1634.199
1188.006, 1629.824
1188.488, 1619.064
1188.970, 1600.723
1189.453, 1592.216
1189.935, 1617.519
1190.417, 1646.922
1190.899, 1655.086
1191.381, 1647.475
1191.863, 1636.582
1192.345, 1620.219
1192.827, 1613.640
1193.309, 1618.389
1193.792, 1627.975
1194.274, 1644.922
1194.756, 1657.536
1195.238, 1649.418
1195.720, 1626.734
1196.202, 1613.395
1196.684, 1610.238
1197.166, 1619.484
1197.648, 1644.139
1198.131, 1664.277
1198.613, 1653.099
1199.095, 1632.223
1199.577, 1622.759
1200.059, 1625.606
1200.541, 1632.952
1201.023, 1646.982
1201.505, 1654.360
1201.988, 1651.448
1202.470, 1645.675
1202.952, 1644.123
1203.434, 1645.151
1203.916, 1648.536
1204.398, 1653.810
1204.880, 1652.083
1205.362, 1639.846
1205.844, 1635.293
1206.327, 1645.366
1206.809, 1658.352
1207.291, 1659.652
1207.773, 1655.124
1208.255, 1652.333
1208.737, 1652.549
1209.219, 1645.751
1209.701, 1628.647
1210.183, 1617.963
1210.666, 1620.437
1211.148, 1629.349
1211.630, 1638.654
1212.112, 1647.319
1212.594, 1654.802
1213.076, 1661.604
1213.558, 1661.402
1214.040, 1653.083
1214.523, 1641.990
1215.005, 1626.833
1215.487, 1616.335
1215.969, 1628.680
1216.451, 1650.091
1216.933, 1660.504
1217.415, 1653.806
1217.897, 1648.276
1218.380, 1643.307
1218.862, 1643.117
1219.344, 1654.708
1219.826, 1665.915
1220.308, 1655.940
1220.790, 1637.077
1221.272, 1629.080
1221.754, 1636.177
1222.236, 1649.743
1222.719, 1671.517
1223.201, 1688.190
1223.683, 1689.150
1224.165, 1682.994
1224.647, 1679.584
1225.129, 1676.187
1225.611, 1666.442
1226.093, 1643.355
1226.575, 1636.609
1227.058, 1648.198
1227.540, 1661.268
1228.022, 1661.001
1228.504, 1658.996
1228.986, 1671.110
1229.468, 1689.126
1229.950, 1695.254
1230.432, 1684.348
1230.915, 1680.750
1231.397, 1685.846
1231.879, 1690.962
1232.361, 1689.263
1232.843, 1684.916
1233.325, 1681.159
1233.807, 1677.719
1234.289, 1673.035
1234.771, 1665.652
1235.254, 1667.443
1235.736, 1679.818
1236.218, 1688.861
1236.700, 1679.887
1237.182, 1666.671
1237.664, 1655.977
1238.146, 1650.521
1238.628, 1656.912
1239.110, 1677.674
1239.593, 1682.248
1240.075, 1667.499
1240.557, 1653.413
1241.039, 1656.728
1241.521, 1664.243
1242.003, 1668.002
1242.485, 1668.980
1242.967, 1668.771
1243.449, 1667.281
1243.932, 1672.409
1244.414, 1684.965
1244.896, 1693.457
1245.378, 1683.898
1245.860, 1673.659
1246.342, 1673.860
1246.824, 1679.876
1247.306, 1684.961
1247.789, 1688.922
1248.271, 1687.329
1248.753, 1679.719
1249.235, 1675.269
1249.717, 1681.798
1250.199, 1690.979
1250.681, 1701.230
1251.163, 1709.841
1251.646, 1713.074
1252.128, 1710.296
1252.610, 1691.547
1253.092, 1655.781
1253.574, 1636.155
1254.056, 1663.791
1254.538, 1696.222
1255.020, 1722.850
1255.502, 1739.343
1255.984, 1727.551
1256.467, 1698.807
1256.949, 1693.167
1257.431, 1715.861
1257.913, 1732.807
1258.395, 1721.748
1258.877, 1714.250
1259.359, 1720.702
1259.841, 1730.903
1260.324, 1725.084
1260.806, 1710.323
1261.288, 1701.683
1261.770, 1701.158
1262.252, 1702.843
1262.734, 1707.684
1263.216, 1709.752
1263.698, 1706.829
1264.181, 1702.222
1264.663, 1700.748
1265.145, 1700.970
1265.627, 1700.552
1266.109, 1699.221
1266.591, 1698.672
1267.073, 1698.384
1267.555, 1701.638
1268.037, 1711.091
1268.520, 1718.707
1269.002, 1710.801
1269.484, 1697.485
1269.966, 1689.808
1270.448, 1689.294
1270.930, 1693.678
1271.412, 1703.216
1271.894, 1716.993
1272.376, 1736.671
1272.859, 1752.405
1273.341, 1753.814
1273.823, 1746.774
1274.305, 1729.899
1274.787, 1708.103
1275.269, 1711.774
1275.751, 1741.912
1276.233, 1759.492
1276.716, 1754.522
1277.198, 1740.570
1277.680, 1718.431
1278.162, 1700.884
1278.644, 1698.225
1279.126, 1706.531
1279.608, 1714.560
1280.090, 1722.144
1280.573, 1727.790
1281.055, 1731.041
1281.537, 1733.583
1282.019, 1735.792
1282.501, 1738.188
1282.983, 1741.311
1283.465, 1744.457
1283.947, 1745.685
1284.429, 1745.373
1284.911, 1745.048
1285.394, 1745.125
1285.876, 1742.930
1286.358, 1731.686
1286.840, 1727.359
1287.322, 1737.019
1287.804, 1751.942
1288.286, 1758.669
##END=



