##NAMES=Muscovite
##RRUFFID=R050198
##IDEAL CHEMISTRY=KAl_2_(Si_3_Al)O_10_(OH)_2_
##LOCALITY=California, USA
##OWNER=RRUFF
##SOURCE=University of Arizona Mineral Museum
##DESCRIPTION=Micaceous aggregate, polytype 2M1
##STATUS=The identification of this mineral has been confirmed by X-ray diffraction and chemical analysis
##URL=rruff.info/R050198
##MEASURED CHEMISTRY=(K_0.92_Na_0.08_)(Al_0.76_Mg_0.18_Fe^3+^_0.04_Fe^2+^_0.02_)_2_(Si_3.40_Al_0.60_)O_10_(OH)_2_
92.96582, 608.1640
93.44794, 602.4274
93.93005, 603.4499
94.41217, 610.8256
94.89429, 614.8636
95.37640, 617.3381
95.85852, 618.6287
96.34064, 618.5402
96.82275, 617.3972
97.30487, 614.5989
97.78699, 609.2907
98.26910, 600.9687
98.75122, 591.8060
99.23334, 583.0236
99.71545, 574.2985
100.1976, 564.3461
100.6797, 553.9484
101.1618, 543.4921
101.6439, 533.2142
102.1260, 522.8182
102.6081, 512.4774
103.0903, 502.6629
103.5724, 492.9206
104.0545, 484.2709
104.5366, 477.1151
105.0187, 471.0407
105.5008, 465.2738
105.9830, 459.2081
106.4651, 452.7690
106.9472, 446.6764
107.4293, 440.9160
107.9114, 435.3311
108.3935, 429.7038
108.8757, 424.1129
109.3578, 418.9674
109.8399, 414.7939
110.3220, 411.9528
110.8041, 409.3940
111.2862, 407.0054
111.7684, 404.8846
112.2505, 403.2266
112.7326, 402.0733
113.2147, 401.1752
113.6968, 399.9702
114.1789, 398.0300
114.6611, 396.5749
115.1432, 396.2902
115.6253, 396.6474
116.1074, 396.5069
116.5895, 395.2078
117.0716, 393.2547
117.5538, 391.8985
118.0359, 391.2914
118.5180, 390.9619
119.0001, 390.6177
119.4822, 390.2559
119.9643, 389.9487
120.4465, 389.7852
120.9286, 389.6801
121.4107, 389.5568
121.8928, 389.4213
122.3749, 389.2282
122.8570, 388.8470
123.3392, 388.1062
123.8213, 387.5027
124.3034, 387.3254
124.7855, 387.3430
125.2676, 387.2116
125.7497, 386.6478
126.2319, 385.7091
126.7140, 385.2404
127.1961, 386.0586
127.6782, 386.6209
128.1603, 386.3807
128.6424, 385.5316
129.1246, 384.6237
129.6067, 384.1703
130.0888, 384.2881
130.5709, 384.2942
131.0530, 383.9234
131.5351, 383.6681
132.0173, 383.9675
132.4994, 384.8194
132.9815, 385.7139
133.4636, 385.9948
133.9457, 385.4422
134.4278, 384.9204
134.9100, 384.2691
135.3921, 383.7386
135.8742, 383.7364
136.3563, 384.4584
136.8384, 385.4034
137.3205, 385.7418
137.8027, 385.4565
138.2848, 385.2196
138.7669, 385.4632
139.2490, 386.0324
139.7311, 386.3041
140.2132, 386.0032
140.6954, 385.3935
141.1775, 384.7055
141.6596, 383.9224
142.1417, 383.2855
142.6238, 383.0872
143.1059, 383.3944
143.5881, 383.7011
144.0702, 383.9029
144.5523, 384.0435
145.0344, 384.1572
145.5165, 384.2561
145.9986, 384.2988
146.4807, 384.1932
146.9629, 383.8394
147.4450, 383.5136
147.9271, 383.1636
148.4092, 382.8898
148.8913, 382.7587
149.3734, 382.7960
149.8556, 383.0345
150.3377, 383.6098
150.8198, 385.4715
151.3019, 386.6584
151.7840, 386.5587
152.2661, 385.6740
152.7483, 384.7342
153.2304, 384.1573
153.7125, 383.9455
154.1946, 384.2358
154.6767, 385.5540
155.1588, 386.7271
155.6410, 387.3128
156.1231, 387.3566
156.6052, 387.0574
157.0873, 386.4150
157.5694, 385.5121
158.0515, 385.2127
158.5337, 385.8086
159.0158, 386.7878
159.4979, 388.0015
159.9800, 389.4609
160.4621, 390.4920
160.9442, 390.0859
161.4264, 388.7356
161.9085, 387.9199
162.3906, 388.3042
162.8727, 389.3412
163.3548, 390.0301
163.8369, 390.0568
164.3191, 390.4163
164.8012, 392.2533
165.2833, 394.9465
165.7654, 397.1112
166.2475, 397.6862
166.7296, 396.9751
167.2118, 396.6996
167.6939, 396.9879
168.1760, 397.6429
168.6581, 398.6384
169.1402, 399.8956
169.6223, 401.2601
170.1045, 402.6285
170.5866, 404.0104
171.0687, 405.2917
171.5508, 406.3714
172.0329, 407.4290
172.5150, 408.5948
172.9972, 409.8249
173.4793, 410.9453
173.9614, 411.6989
174.4435, 411.8235
174.9256, 412.5195
175.4077, 414.1727
175.8899, 415.9762
176.3720, 417.4604
176.8541, 418.5742
177.3362, 419.5711
177.8183, 420.7723
178.3004, 422.2907
178.7826, 423.8014
179.2647, 425.1738
179.7468, 426.6146
180.2289, 428.3257
180.7110, 430.3461
181.1931, 432.5536
181.6752, 434.7699
182.1574, 436.9680
182.6395, 439.2557
183.1216, 441.7470
183.6037, 444.3134
184.0858, 446.7221
184.5679, 448.8853
185.0501, 450.9656
185.5322, 453.2915
186.0143, 455.9030
186.4964, 458.3542
186.9785, 460.4361
187.4606, 462.2278
187.9428, 463.9991
188.4249, 465.9460
188.9070, 467.6808
189.3891, 468.9212
189.8712, 469.7204
190.3533, 469.7612
190.8355, 468.5890
191.3176, 466.3192
191.7997, 463.9839
192.2818, 461.8642
192.7639, 459.6828
193.2460, 457.2013
193.7282, 454.3922
194.2103, 451.4532
194.6924, 448.5601
195.1745, 445.6969
195.6566, 442.8063
196.1387, 439.9017
196.6209, 436.9462
197.1030, 433.7686
197.5851, 430.3667
198.0672, 427.1706
198.5493, 424.8173
199.0314, 423.6160
199.5136, 422.2837
199.9957, 420.4125
200.4778, 418.5561
200.9599, 417.1745
201.4420, 416.3376
201.9241, 415.6403
202.4063, 414.3124
202.8884, 411.4953
203.3705, 409.7802
203.8526, 410.1280
204.3347, 410.8822
204.8168, 410.7177
205.2990, 409.2696
205.7811, 407.1866
206.2632, 405.6694
206.7453, 405.1382
207.2274, 404.6439
207.7095, 404.1416
208.1917, 403.6862
208.6738, 403.3465
209.1559, 403.1420
209.6380, 403.0161
210.1201, 402.8607
210.6022, 402.7300
211.0844, 402.4724
211.5665, 401.9195
212.0486, 401.2920
212.5307, 400.9017
213.0128, 400.8698
213.4949, 400.9776
213.9771, 400.7591
214.4592, 400.1271
214.9413, 399.4183
215.4234, 398.6420
215.9055, 397.8389
216.3876, 397.0521
216.8698, 396.2870
217.3519, 395.5780
217.8340, 394.9855
218.3161, 394.4920
218.7982, 394.1178
219.2803, 393.9367
219.7625, 393.8819
220.2446, 393.7986
220.7267, 393.6325
221.2088, 393.4329
221.6909, 393.2767
222.1730, 393.1680
222.6552, 393.0474
223.1373, 392.8347
223.6194, 392.5728
224.1015, 392.4329
224.5836, 392.5229
225.0657, 392.6660
225.5479, 392.5990
226.0300, 392.3099
226.5121, 392.1519
226.9942, 392.5877
227.4763, 393.4771
227.9584, 393.7855
228.4406, 392.7851
228.9227, 391.6706
229.4048, 391.4478
229.8869, 392.0954
230.3690, 392.9384
230.8511, 393.5181
231.3333, 393.8374
231.8154, 394.0316
232.2975, 393.9698
232.7796, 393.9256
233.2617, 394.1000
233.7438, 394.4716
234.2260, 394.8426
234.7081, 394.9349
235.1902, 394.7052
235.6723, 394.8422
236.1544, 395.7398
236.6365, 396.7432
237.1187, 397.6090
237.6008, 398.3158
238.0829, 398.9097
238.5650, 399.2642
239.0471, 399.2467
239.5292, 399.9703
240.0114, 402.2648
240.4935, 404.6360
240.9756, 406.5053
241.4577, 407.9230
241.9398, 409.2645
242.4219, 410.8705
242.9041, 412.7477
243.3862, 414.8119
243.8683, 416.9038
244.3504, 419.3271
244.8325, 422.3998
245.3146, 425.9515
245.7968, 429.5359
246.2789, 432.7196
246.7610, 435.4693
247.2431, 438.2565
247.7252, 440.9482
248.2073, 443.8106
248.6895, 446.9517
249.1716, 450.3572
249.6537, 453.9423
250.1358, 457.6794
250.6179, 461.6051
251.1000, 465.1572
251.5822, 468.0773
252.0643, 470.9449
252.5464, 473.6695
253.0285, 476.4804
253.5106, 479.8791
253.9927, 484.3317
254.4748, 489.8106
254.9570, 494.9690
255.4391, 499.7607
255.9212, 504.3606
256.4033, 508.6196
256.8854, 512.7111
257.3676, 517.0414
257.8497, 521.8983
258.3318, 527.2382
258.8139, 532.6431
259.2960, 537.9461
259.7781, 543.4716
260.2603, 549.7548
260.7424, 556.3903
261.2245, 562.4635
261.7066, 567.3837
262.1887, 571.3479
262.6708, 575.2977
263.1530, 580.3729
263.6351, 584.2448
264.1172, 585.9924
264.5993, 586.0155
265.0814, 585.2292
265.5635, 584.1078
266.0457, 582.3931
266.5278, 579.1885
267.0099, 574.6594
267.4920, 568.8580
267.9741, 561.3835
268.4562, 552.6674
268.9384, 543.4969
269.4204, 534.1234
269.9026, 524.6514
270.3847, 515.3042
270.8668, 506.1576
271.3489, 496.9612
271.8310, 487.2781
272.3131, 477.6071
272.7953, 468.8670
273.2774, 461.4266
273.7595, 454.8174
274.2416, 448.2441
274.7237, 441.5946
275.2058, 435.5306
275.6880, 430.4761
276.1701, 426.0626
276.6522, 421.6332
277.1343, 416.9257
277.6164, 412.4173
278.0985, 408.7613
278.5807, 405.8640
279.0628, 403.2744
279.5449, 400.9955
280.0270, 398.9142
280.5091, 396.8367
280.9912, 394.7354
281.4734, 392.6597
281.9555, 390.5228
282.4376, 388.3850
282.9197, 386.7047
283.4018, 386.0036
283.8839, 385.6493
284.3661, 384.7050
284.8482, 383.0213
285.3303, 381.3394
285.8124, 380.2325
286.2945, 379.5695
286.7766, 379.0792
287.2588, 378.9292
287.7409, 378.8026
288.2230, 378.2199
288.7051, 377.1273
289.1872, 376.2059
289.6693, 376.1163
290.1515, 376.4032
290.6336, 376.2228
291.1157, 375.1630
291.5978, 373.9561
292.0799, 373.3389
292.5620, 373.3141
293.0442, 373.3795
293.5263, 373.3717
294.0084, 373.3012
294.4905, 373.1690
294.9726, 372.9413
295.4547, 372.7462
295.9369, 372.6773
296.4190, 372.7325
296.9011, 372.9141
297.3832, 373.3853
297.8653, 373.8229
298.3474, 373.8079
298.8296, 373.2785
299.3117, 372.7989
299.7938, 372.8676
300.2759, 373.3642
300.7580, 373.6198
301.2401, 373.3701
301.7223, 373.0099
302.2044, 372.9636
302.6865, 373.1887
303.1686, 373.3209
303.6507, 373.0377
304.1328, 372.4947
304.6150, 372.2577
305.0971, 372.5782
305.5792, 372.8153
306.0613, 372.2782
306.5434, 371.2516
307.0255, 370.5150
307.5077, 370.6617
307.9898, 371.2692
308.4719, 371.3970
308.9540, 370.8552
309.4361, 370.3961
309.9182, 370.7808
310.4004, 371.5081
310.8825, 371.7882
311.3646, 371.1729
311.8467, 370.2086
312.3288, 369.6502
312.8109, 369.5421
313.2931, 369.5407
313.7752, 369.5939
314.2573, 369.6234
314.7394, 369.5194
315.2215, 369.2280
315.7036, 368.8937
316.1858, 368.7045
316.6679, 368.6586
317.1500, 368.4640
317.6321, 367.8944
318.1142, 367.2406
318.5963, 366.7888
319.0785, 366.5611
319.5606, 366.4399
320.0427, 366.4362
320.5248, 366.5060
321.0069, 366.3596
321.4890, 365.8116
321.9712, 365.2123
322.4533, 364.8555
322.9354, 364.7164
323.4175, 364.6701
323.8996, 364.6238
324.3817, 364.6225
324.8639, 364.8998
325.3460, 365.7042
325.8281, 366.2207
326.3102, 365.5042
326.7923, 364.0530
327.2744, 362.9283
327.7566, 362.6026
328.2387, 362.7582
328.7208, 363.0311
329.2029, 363.4712
329.6850, 363.7331
330.1671, 363.4181
330.6493, 362.8646
331.1314, 362.5551
331.6135, 362.5878
332.0956, 362.8626
332.5777, 363.4728
333.0598, 364.3931
333.5420, 364.9413
334.0241, 364.7350
334.5062, 364.0903
334.9883, 363.3993
335.4704, 362.6179
335.9525, 362.0631
336.4347, 362.0831
336.9168, 362.5336
337.3989, 362.8356
337.8810, 362.7817
338.3631, 362.6851
338.8452, 362.8943
339.3274, 363.3798
339.8094, 363.9193
340.2916, 364.5494
340.7737, 365.1450
341.2558, 365.4875
341.7379, 365.5450
342.2200, 365.3949
342.7021, 364.9492
343.1843, 364.3238
343.6664, 363.8865
344.1485, 363.6859
344.6306, 363.7145
345.1127, 364.0262
345.5948, 364.6143
346.0770, 365.2801
346.5591, 366.0430
347.0412, 366.7369
347.5233, 366.9537
348.0054, 366.2980
348.4875, 365.7874
348.9697, 366.3101
349.4518, 367.5245
349.9339, 368.2100
350.4160, 367.7695
350.8981, 366.8590
351.3802, 366.6407
351.8624, 367.2003
352.3445, 367.7445
352.8266, 367.9969
353.3087, 368.0931
353.7908, 368.2603
354.2729, 368.5541
354.7551, 368.8312
355.2372, 368.9272
355.7193, 368.8385
356.2014, 368.7427
356.6835, 368.5593
357.1656, 368.4474
357.6478, 368.6019
358.1299, 369.0014
358.6120, 369.4140
359.0941, 369.7563
359.5762, 369.9589
360.0583, 369.6801
360.5405, 368.2906
361.0226, 367.1357
361.5047, 366.8424
361.9868, 367.1867
362.4689, 367.7601
362.9510, 368.4426
363.4332, 369.0472
363.9153, 369.0758
364.3974, 368.2781
364.8795, 367.4351
365.3616, 366.4567
365.8438, 365.5688
366.3259, 365.0703
366.8080, 365.0141
367.2901, 365.1696
367.7722, 365.2873
368.2543, 365.3863
368.7365, 365.3286
369.2186, 364.8866
369.7007, 364.5000
370.1828, 364.4671
370.6649, 364.7384
371.1470, 365.0991
371.6292, 365.4275
372.1113, 365.7019
372.5934, 365.6212
373.0755, 365.0089
373.5576, 364.2755
374.0397, 363.2986
374.5219, 362.3128
375.0040, 361.6194
375.4861, 361.3439
375.9682, 361.4338
376.4503, 361.8218
376.9324, 363.1403
377.4146, 363.7081
377.8967, 362.8247
378.3788, 361.7434
378.8609, 361.3455
379.3430, 361.7583
379.8251, 362.5996
380.3073, 363.5377
380.7894, 364.6444
381.2715, 365.3106
381.7536, 365.2341
382.2357, 365.0132
382.7178, 364.7432
383.2000, 364.4802
383.6821, 364.2755
384.1642, 364.1551
384.6463, 364.1265
385.1284, 364.2409
385.6105, 364.6415
386.0927, 364.9478
386.5748, 365.0425
387.0569, 365.0527
387.5390, 365.1319
388.0211, 365.3206
388.5032, 365.4632
388.9854, 365.2368
389.4675, 364.5015
389.9496, 364.1848
390.4317, 364.8857
390.9138, 365.6290
391.3959, 365.8969
391.8781, 365.7489
392.3602, 365.5552
392.8423, 365.5606
393.3244, 365.7386
393.8065, 365.9925
394.2886, 366.4235
394.7708, 366.7196
395.2529, 366.6929
395.7350, 366.4655
396.2171, 366.1405
396.6992, 365.6429
397.1813, 365.2905
397.6635, 365.5898
398.1456, 366.5716
398.6277, 367.4984
399.1098, 368.2535
399.5919, 368.7312
400.0740, 368.7650
400.5562, 368.3299
401.0383, 367.9129
401.5204, 367.8549
402.0025, 368.0146
402.4846, 367.9248
402.9667, 367.3795
403.4489, 367.0844
403.9310, 368.0904
404.4131, 369.9597
404.8952, 371.0821
405.3773, 370.4207
405.8594, 369.4600
406.3416, 369.6397
406.8237, 370.8108
407.3058, 371.8209
407.7879, 372.0466
408.2700, 371.7839
408.7521, 371.7920
409.2343, 372.1266
409.7164, 372.5598
410.1985, 373.0338
410.6806, 373.5610
411.1627, 374.2313
411.6448, 375.0693
412.1269, 375.8043
412.6090, 376.0772
413.0912, 375.7591
413.5733, 375.6075
414.0554, 375.5578
414.5375, 375.7162
415.0196, 376.2492
415.5017, 377.0589
415.9839, 377.8973
416.4660, 378.6330
416.9481, 379.2306
417.4302, 379.5186
417.9123, 379.3134
418.3944, 379.0059
418.8766, 378.3895
419.3587, 377.8067
419.8408, 377.6761
420.3229, 378.0771
420.8050, 378.6681
421.2871, 379.0010
421.7693, 379.0283
422.2514, 378.9705
422.7335, 378.8632
423.2156, 378.6461
423.6977, 378.2407
424.1798, 377.7031
424.6620, 377.1534
425.1441, 376.6628
425.6262, 376.2276
426.1083, 375.8584
426.5904, 375.6887
427.0725, 375.3185
427.5547, 374.4274
428.0368, 373.4545
428.5189, 372.8481
429.0010, 372.6995
429.4831, 372.6388
429.9652, 372.2328
430.4474, 371.4803
430.9295, 370.8334
431.4116, 370.3251
431.8937, 369.9528
432.3758, 369.8026
432.8579, 369.7764
433.3401, 369.6101
433.8222, 369.2550
434.3043, 368.6449
434.7864, 367.5425
435.2685, 365.8800
435.7506, 364.3829
436.2328, 363.5055
436.7149, 362.9045
437.1970, 362.0006
437.6791, 360.6762
438.1612, 359.3996
438.6433, 358.6426
439.1255, 358.0782
439.6076, 356.9111
440.0897, 354.9135
440.5718, 352.7689
441.0539, 351.1745
441.5360, 350.1506
442.0182, 349.1545
442.5003, 348.2118
442.9824, 347.2471
443.4645, 346.2041
443.9466, 345.1010
444.4287, 344.0031
444.9109, 342.9305
445.3930, 341.9023
445.8751, 340.9460
446.3572, 339.9716
446.8393, 339.2229
447.3214, 338.8800
447.8036, 338.6575
448.2857, 338.3580
448.7678, 337.9277
449.2499, 337.3182
449.7320, 336.4144
450.2141, 335.1745
450.6963, 333.7458
451.1784, 334.2838
451.6605, 334.4473
452.1426, 334.2565
452.6247, 332.6501
453.1068, 332.8717
453.5890, 332.3606
454.0711, 331.8196
454.5532, 332.2985
455.0353, 330.8980
455.5174, 331.3607
455.9995, 331.0796
456.4817, 331.1389
456.9638, 330.4612
457.4459, 330.4928
457.9280, 330.6219
458.4101, 330.6688
458.8922, 330.6333
459.3744, 330.4760
459.8565, 330.1270
460.3386, 329.8793
460.8207, 329.9408
461.3028, 330.1546
461.7849, 330.4020
462.2671, 330.7276
462.7492, 330.8449
463.2313, 330.3968
463.7134, 329.5658
464.1955, 328.9341
464.6776, 328.6675
465.1598, 328.4684
465.6419, 328.0052
466.1240, 327.3121
466.6061, 326.7165
467.0882, 326.0787
467.5703, 325.7069
468.0525, 326.0273
468.5346, 326.8333
469.0167, 327.4514
469.4988, 327.5542
469.9809, 327.2926
470.4630, 327.0039
470.9452, 326.6088
471.4273, 326.3324
471.9094, 326.2276
472.3915, 326.2108
472.8736, 326.2921
473.3557, 326.4203
473.8379, 326.4138
474.3200, 326.0850
474.8021, 325.4685
475.2842, 325.1299
475.7663, 325.4512
476.2484, 325.5867
476.7306, 325.3224
477.2127, 324.8501
477.6948, 324.3182
478.1769, 323.7886
478.6590, 323.3539
479.1411, 323.2168
479.6233, 323.4258
480.1054, 323.3600
480.5875, 322.6703
481.0696, 322.0864
481.5517, 322.0435
482.0338, 322.3579
482.5159, 322.6418
482.9980, 322.7574
483.4802, 322.7311
483.9623, 322.5150
484.4444, 322.1085
484.9265, 321.8966
485.4086, 322.1491
485.8907, 322.4939
486.3729, 322.4369
486.8550, 321.9725
487.3371, 321.4722
487.8192, 320.9728
488.3013, 320.5530
488.7834, 320.2921
489.2656, 320.1976
489.7477, 320.3069
490.2298, 320.7442
490.7119, 321.3646
491.1940, 321.4149
491.6761, 320.3401
492.1583, 319.5402
492.6404, 319.4784
493.1225, 319.7126
493.6046, 319.8053
494.0867, 319.6481
494.5688, 319.2858
495.0510, 318.6996
495.5331, 317.8350
496.0152, 317.4918
496.4973, 318.3254
496.9794, 318.9703
497.4615, 319.0261
497.9437, 318.7296
498.4258, 318.3642
498.9079, 318.0386
499.3900, 317.8019
499.8721, 317.8240
500.3542, 318.1837
500.8364, 318.1677
501.3185, 317.3536
501.8006, 316.5330
502.2827, 316.2100
502.7648, 316.2354
503.2469, 316.1792
503.7291, 315.7434
504.2112, 315.2502
504.6933, 315.2407
505.1754, 315.6956
505.6575, 315.9976
506.1396, 315.9191
506.6218, 315.5945
507.1039, 315.1508
507.5860, 314.5631
508.0681, 314.1567
508.5502, 314.2746
509.0323, 314.4485
509.5145, 314.0127
509.9966, 313.0697
510.4787, 312.4629
510.9608, 312.7656
511.4429, 313.7513
511.9250, 314.5047
512.4072, 315.1830
512.8893, 315.4069
513.3714, 314.7775
513.8535, 313.9267
514.3356, 313.3409
514.8177, 313.1072
515.2999, 313.1157
515.7820, 313.3237
516.2641, 313.6975
516.7462, 313.7642
517.2283, 313.1831
517.7104, 312.8069
518.1926, 312.9643
518.6747, 313.3341
519.1568, 313.6517
519.6389, 313.8460
520.1210, 313.8641
520.6031, 313.5177
521.0853, 312.8942
521.5674, 312.5980
522.0495, 312.7884
522.5316, 313.0405
523.0137, 313.0171
523.4958, 312.8581
523.9780, 312.8451
524.4601, 313.1152
524.9422, 313.3875
525.4243, 313.5154
525.9064, 313.5040
526.3885, 313.3045
526.8707, 312.8846
527.3528, 312.4899
527.8349, 312.4428
528.3170, 312.8090
528.7991, 312.8860
529.2813, 312.3765
529.7634, 311.9190
530.2455, 311.7244
530.7276, 311.7754
531.2097, 312.1180
531.6918, 312.7552
532.1740, 313.3835
532.6561, 313.4307
533.1382, 312.6123
533.6203, 312.1904
534.1024, 312.6466
534.5845, 313.0426
535.0667, 313.0368
535.5488, 312.7157
536.0309, 312.2621
536.5130, 311.7216
536.9951, 311.1939
537.4772, 310.7963
537.9594, 310.5272
538.4415, 310.4881
538.9236, 310.8940
539.4057, 311.2735
539.8878, 311.0832
540.3699, 310.4352
540.8521, 309.9476
541.3342, 310.0534
541.8163, 310.1802
542.2984, 309.6819
542.7805, 308.7372
543.2626, 308.0800
543.7448, 308.0435
544.2269, 308.3004
544.7090, 308.2798
545.1911, 307.7986
545.6732, 307.5251
546.1553, 307.6256
546.6375, 307.7748
547.1196, 307.8335
547.6017, 307.7863
548.0838, 307.6660
548.5659, 307.4955
549.0480, 307.2075
549.5302, 306.5715
550.0123, 305.3611
550.4944, 304.4827
550.9765, 304.1856
551.4586, 304.1241
551.9407, 304.2900
552.4229, 304.5675
552.9050, 304.6611
553.3871, 304.3434
553.8692, 303.8429
554.3513, 303.5484
554.8334, 303.4533
555.3156, 303.2321
555.7977, 302.7710
556.2798, 302.1503
556.7619, 301.4091
557.2440, 300.5440
557.7261, 299.8256
558.2083, 299.3152
558.6904, 298.9593
559.1725, 298.7494
559.6546, 298.6592
560.1367, 298.6554
560.6188, 298.7344
561.1010, 298.7986
561.5831, 298.6334
562.0652, 298.0832
562.5473, 297.6518
563.0294, 297.4530
563.5115, 297.2461
563.9937, 296.9062
564.4758, 296.4633
564.9579, 295.9644
565.4400, 295.4035
565.9221, 294.9293
566.4042, 294.8625
566.8864, 295.2527
567.3685, 295.6660
567.8506, 296.2076
568.3327, 296.5224
568.8148, 296.2177
569.2969, 295.4546
569.7791, 294.8374
570.2612, 294.6412
570.7433, 294.6015
571.2254, 294.4146
571.7075, 294.1712
572.1896, 294.2926
572.6718, 294.9870
573.1539, 295.7245
573.6360, 295.7416
574.1181, 294.8018
574.6002, 294.3066
575.0823, 294.7462
575.5645, 295.0845
576.0466, 294.6182
576.5287, 293.8165
577.0108, 293.5775
577.4929, 294.2272
577.9750, 295.1255
578.4572, 295.2123
578.9393, 294.3009
579.4214, 293.8649
579.9035, 294.3015
580.3856, 294.7419
580.8677, 294.7951
581.3499, 294.6019
581.8320, 294.3953
582.3141, 294.2640
582.7962, 294.0616
583.2783, 293.4498
583.7604, 292.6515
584.2426, 292.4422
584.7247, 293.0067
585.2068, 293.8370
585.6889, 294.6055
586.1710, 295.2811
586.6531, 295.6886
587.1352, 295.9494
587.6173, 295.8095
588.0994, 294.6311
588.5815, 293.3069
589.0637, 293.0238
589.5458, 293.8899
590.0279, 294.9548
590.5100, 295.3223
590.9921, 295.0473
591.4742, 294.7490
591.9564, 294.3659
592.4385, 294.0629
592.9206, 293.9511
593.4027, 293.8776
593.8848, 293.6882
594.3669, 293.3745
594.8491, 293.0932
595.3312, 293.0769
595.8133, 293.1310
596.2954, 292.7166
596.7775, 291.8058
597.2596, 291.1765
597.7418, 291.2654
598.2239, 291.7769
598.7060, 292.1739
599.1881, 292.5024
599.6702, 292.5960
600.1523, 292.2430
600.6345, 291.8010
601.1166, 291.4595
601.5987, 291.2557
602.0808, 291.2068
602.5629, 291.3206
603.0450, 291.5981
603.5272, 292.0897
604.0093, 292.9329
604.4914, 293.5681
604.9735, 294.0748
605.4556, 294.2487
605.9377, 293.8278
606.4199, 293.0262
606.9020, 292.2459
607.3841, 291.6085
607.8662, 291.1227
608.3483, 290.9105
608.8304, 290.8844
609.3126, 290.5797
609.7947, 289.8434
610.2768, 289.1251
610.7589, 288.8006
611.2410, 288.8651
611.7231, 289.0758
612.2053, 289.6964
612.6874, 290.1346
613.1695, 290.0130
613.6516, 289.7270
614.1337, 289.8166
614.6158, 290.3100
615.0980, 290.7306
615.5801, 290.6169
616.0622, 290.0616
616.5443, 289.7490
617.0264, 289.8098
617.5085, 289.8433
617.9907, 289.7903
618.4728, 289.6445
618.9549, 289.2652
619.4370, 288.7069
619.9191, 288.4247
620.4012, 288.9805
620.8834, 288.7408
621.3655, 289.5952
621.8476, 290.0751
622.3297, 290.2007
622.8118, 288.9106
623.2939, 289.4486
623.7761, 289.2540
624.2582, 289.0293
624.7403, 289.8245
625.2224, 288.7404
625.7045, 289.5195
626.1866, 289.5548
626.6688, 289.9305
627.1509, 289.5692
627.6330, 289.4354
628.1151, 290.0390
628.5972, 290.2344
629.0793, 289.7882
629.5615, 290.1855
630.0436, 289.9843
630.5257, 290.3545
631.0078, 290.2096
631.4899, 289.8615
631.9720, 289.6836
632.4542, 289.7416
632.9363, 289.8234
633.4184, 289.8633
633.9005, 289.8462
634.3826, 289.6404
634.8647, 289.3066
635.3469, 289.2397
635.8290, 289.6884
636.3111, 290.4686
636.7932, 291.1398
637.2753, 291.8333
637.7574, 292.1307
638.2396, 291.8315
638.7217, 291.3885
639.2038, 290.8093
639.6859, 290.2952
640.1680, 290.2543
640.6501, 290.9110
641.1323, 291.7228
641.6144, 291.9401
642.0965, 291.6460
642.5786, 291.4991
643.0607, 291.6278
643.5428, 291.7523
644.0250, 291.7221
644.5071, 291.5187
644.9892, 291.0945
645.4713, 290.1025
645.9534, 289.5027
646.4355, 289.9089
646.9177, 290.6123
647.3998, 290.9056
647.8819, 290.7791
648.3640, 290.6046
648.8461, 290.6254
649.3282, 290.7884
649.8104, 291.0012
650.2925, 291.4157
650.7746, 291.3888
651.2567, 290.2785
651.7388, 289.2766
652.2209, 289.1806
652.7031, 289.7020
653.1852, 290.0721
653.6673, 290.0261
654.1494, 289.7956
654.6315, 289.3862
655.1136, 288.9637
655.5958, 289.0434
656.0779, 289.7143
656.5600, 290.3356
657.0421, 290.3419
657.5242, 289.8337
658.0063, 289.5408
658.4885, 289.5340
658.9706, 289.6609
659.4527, 290.1463
659.9348, 290.5770
660.4169, 290.5738
660.8990, 290.2246
661.3812, 289.9095
661.8633, 289.8529
662.3454, 289.9547
662.8275, 290.1279
663.3096, 290.3625
663.7917, 290.2706
664.2739, 289.5965
664.7560, 289.0122
665.2381, 289.2645
665.7202, 290.2025
666.2023, 290.6799
666.6844, 290.1433
667.1666, 289.7914
667.6487, 290.2562
668.1308, 290.9500
668.6129, 291.1017
669.0950, 290.7331
669.5771, 290.5873
670.0593, 291.3205
670.5414, 292.5077
671.0235, 292.5496
671.5056, 290.9012
671.9877, 290.1553
672.4698, 291.4749
672.9520, 293.0775
673.4341, 293.5022
673.9162, 293.1349
674.3983, 293.2992
674.8804, 294.7776
675.3625, 296.2775
675.8447, 296.7920
676.3268, 296.7770
676.8089, 296.9939
677.2910, 297.5934
677.7731, 298.4222
678.2552, 299.3788
678.7374, 300.4349
679.2195, 301.4276
679.7016, 302.2760
680.1837, 303.2074
680.6658, 304.1772
681.1479, 305.2865
681.6301, 306.6958
682.1122, 308.3022
682.5943, 309.7882
683.0764, 310.9068
683.5585, 312.0552
684.0406, 313.7035
684.5228, 315.7399
685.0049, 317.6814
685.4870, 319.4154
685.9691, 321.4069
686.4512, 324.0974
686.9333, 327.3465
687.4155, 330.2489
687.8976, 332.5567
688.3797, 334.8580
688.8618, 337.0943
689.3439, 339.4071
689.8260, 341.7198
690.3082, 344.1883
690.7903, 347.2600
691.2724, 351.2880
691.7545, 355.5535
692.2366, 358.8458
692.7188, 361.3222
693.2009, 364.3974
693.6830, 368.4006
694.1651, 372.4382
694.6472, 375.8099
695.1293, 378.7125
695.6115, 381.9604
696.0936, 386.0015
696.5757, 389.5829
697.0578, 392.0706
697.5399, 394.4074
698.0220, 397.5603
698.5042, 401.1935
698.9863, 404.1985
699.4684, 405.9786
699.9505, 407.2358
700.4326, 409.2736
700.9147, 412.0811
701.3969, 414.0220
701.8790, 414.9922
702.3611, 415.0170
702.8432, 413.8676
703.3253, 411.8260
703.8074, 409.6511
704.2896, 407.4938
704.7717, 404.7692
705.2538, 401.3311
705.7359, 397.2486
706.2180, 392.4413
706.7001, 387.0281
707.1823, 381.2625
707.6644, 375.2288
708.1465, 369.2328
708.6286, 363.8304
709.1107, 359.0785
709.5928, 353.9237
710.0750, 348.1096
710.5571, 342.3931
711.0392, 337.0170
711.5213, 331.9952
712.0034, 327.2708
712.4855, 322.8472
712.9677, 318.9497
713.4498, 316.0152
713.9319, 313.3199
714.4140, 310.2043
714.8961, 306.8712
715.3782, 303.8433
715.8604, 301.3128
716.3425, 299.0580
716.8246, 296.8803
717.3067, 294.7607
717.7888, 292.4012
718.2709, 289.4651
718.7531, 287.0089
719.2352, 285.6254
719.7173, 284.6904
720.1994, 283.7220
720.6815, 282.7008
721.1636, 281.6624
721.6458, 280.5440
722.1279, 279.4808
722.6100, 278.6857
723.0921, 277.9874
723.5742, 276.9635
724.0563, 275.5659
724.5385, 274.2900
725.0206, 273.6388
725.5027, 273.4701
725.9848, 272.8748
726.4669, 271.5813
726.9490, 270.5715
727.4312, 270.2676
727.9132, 270.0637
728.3953, 269.5175
728.8774, 268.7291
729.3596, 268.0325
729.8417, 267.4656
730.3238, 267.0934
730.8059, 267.0706
731.2880, 267.2137
731.7701, 267.2845
732.2523, 267.2456
732.7344, 267.1049
733.2165, 266.8524
733.6986, 266.5709
734.1807, 266.4179
734.6628, 265.3810
735.1450, 266.1575
735.6271, 266.5597
736.1092, 266.6075
736.5913, 265.2397
737.0734, 265.6999
737.5555, 265.4275
738.0377, 265.1251
738.5198, 265.8425
739.0019, 264.6807
739.4840, 265.3820
739.9661, 265.9175
740.4482, 266.0708
740.9304, 266.1336
741.4125, 266.1814
741.8946, 266.1682
742.3767, 265.9909
742.8588, 265.6327
743.3409, 265.4813
743.8231, 265.6175
744.3052, 265.7967
744.7873, 265.8669
745.2694, 265.9911
745.7515, 266.4820
746.2336, 267.3134
746.7158, 267.7080
747.1979, 267.2972
747.6800, 266.5145
748.1621, 265.1908
748.6442, 263.8658
749.1263, 263.6578
749.6085, 264.6578
750.0906, 265.7175
750.5727, 265.8493
751.0548, 265.2428
751.5369, 264.5613
752.0190, 263.7131
752.5012, 263.2108
752.9833, 263.3448
753.4654, 263.5846
753.9475, 263.6006
754.4296, 263.4101
754.9117, 263.0163
755.3939, 262.3087
755.8760, 261.6107
756.3581, 260.8407
756.8402, 260.2804
757.3223, 260.4649
757.8044, 261.1149
758.2866, 261.3130
758.7687, 260.5965
759.2508, 259.5415
759.7329, 259.0558
760.2150, 259.1231
760.6971, 259.0102
761.1793, 258.6077
761.6614, 258.3588
762.1435, 258.7266
762.6256, 259.1552
763.1077, 258.5240
763.5898, 256.6647
764.0720, 255.4935
764.5541, 255.8945
765.0362, 256.3109
765.5183, 255.8459
766.0004, 255.0282
766.4825, 254.5953
766.9647, 254.6668
767.4468, 254.8696
767.9289, 254.9086
768.4110, 254.8692
768.8931, 254.9770
769.3752, 255.2240
769.8574, 255.3858
770.3395, 255.4075
770.8216, 255.3538
771.3037, 255.2752
771.7858, 255.1677
772.2679, 255.0079
772.7501, 254.7741
773.2322, 254.5195
773.7143, 254.0949
774.1964, 253.7931
774.6785, 253.9373
775.1606, 254.3208
775.6428, 254.4932
776.1249, 254.2781
776.6070, 253.9877
777.0891, 253.9463
777.5712, 254.0390
778.0533, 254.0356
778.5355, 253.9190
779.0176, 253.6191
779.4997, 253.0638
779.9818, 252.4940
780.4639, 252.1819
780.9460, 251.9696
781.4282, 252.7758
781.9103, 253.2076
782.3924, 253.2850
782.8745, 251.9469
783.3566, 252.4368
783.8387, 252.1940
784.3209, 251.9213
784.8030, 252.6684
785.2851, 251.5362
785.7672, 251.2994
786.2493, 251.6395
786.7314, 252.2184
787.2136, 252.2744
787.6957, 251.7711
788.1778, 251.2636
788.6599, 251.1138
789.1420, 251.1872
789.6241, 251.1806
790.1063, 251.0796
790.5884, 250.9512
791.0705, 250.6797
791.5526, 250.5958
792.0347, 251.2187
792.5168, 251.9443
792.9990, 251.8397
793.4811, 250.7682
793.9632, 249.7433
794.4453, 248.7783
794.9274, 248.1821
795.4095, 248.3919
795.8917, 248.9909
796.3738, 249.3976
796.8559, 249.4738
797.3380, 249.3737
797.8201, 249.2375
798.3022, 248.9899
798.7844, 248.2404
799.2665, 247.0195
799.7486, 246.6016
800.2307, 247.4283
800.7128, 248.2946
801.1949, 248.2576
801.6771, 247.5514
802.1592, 247.0827
802.6413, 246.8945
803.1234, 246.8743
803.6055, 247.2932
804.0876, 247.5937
804.5698, 247.3782
805.0519, 246.9094
805.5340, 246.5554
806.0161, 246.4135
806.4982, 246.5255
806.9803, 247.1109
807.4625, 247.8469
807.9446, 248.4080
808.4267, 248.7281
808.9088, 248.4822
809.3909, 247.5925
809.8730, 246.6997
810.3552, 246.4786
810.8373, 246.7682
811.3194, 246.4849
811.8015, 245.2421
812.2836, 244.5538
812.7657, 244.9810
813.2479, 245.5957
813.7300, 245.8483
814.2121, 245.8443
814.6942, 245.7744
815.1763, 245.6041
815.6584, 245.5344
816.1406, 245.7021
816.6227, 245.9316
817.1048, 246.0798
817.5869, 246.1842
818.0690, 246.4265
818.5511, 246.8250
819.0333, 246.9929
819.5154, 246.3869
819.9975, 245.3230
820.4796, 244.7038
820.9617, 244.5278
821.4438, 244.8174
821.9260, 245.6736
822.4081, 246.6146
822.8902, 247.2741
823.3723, 247.6355
823.8544, 247.5844
824.3365, 246.6319
824.8187, 246.0454
825.3008, 246.0940
825.7829, 246.2565
826.2650, 246.2686
826.7471, 246.2095
827.2292, 246.2785
827.7114, 246.5391
828.1935, 246.6780
828.6756, 246.3133
829.1577, 245.8957
829.6398, 245.9159
830.1219, 246.2855
830.6041, 246.8545
831.0862, 247.5288
831.5683, 247.9257
832.0504, 247.5943
832.5325, 246.8103
833.0146, 246.7130
833.4968, 247.4177
833.9789, 247.8885
834.4610, 247.9038
834.9431, 247.7791
835.4252, 247.7224
835.9073, 247.6902
836.3895, 247.5202
836.8716, 247.0555
837.3537, 246.8674
837.8358, 247.3821
838.3179, 247.7686
838.8000, 247.4162
839.2822, 246.7944
839.7643, 246.6026
840.2464, 246.9308
840.7285, 247.2226
841.2106, 247.1204
841.6927, 246.7916
842.1749, 246.3415
842.6570, 245.8418
843.1391, 245.5668
843.6212, 245.5284
844.1033, 245.2841
844.5854, 244.4854
845.0676, 243.4254
845.5497, 242.9199
846.0318, 243.1105
846.5139, 242.9612
846.9960, 242.2245
847.4781, 241.6003
847.9603, 241.5027
848.4424, 241.6270
848.9245, 241.5625
849.4066, 241.3108
849.8887, 240.8921
850.3708, 239.8926
850.8530, 239.2391
851.3351, 239.7789
851.8172, 240.4522
852.2993, 239.9941
852.7814, 238.6288
853.2635, 237.5953
853.7457, 237.5307
854.2278, 237.8788
854.7099, 238.4170
855.1920, 238.8199
855.6741, 238.0208
856.1563, 236.1992
856.6384, 235.1151
857.1205, 235.5656
857.6026, 236.4737
858.0847, 236.3481
858.5668, 235.2251
859.0490, 234.2601
859.5311, 233.4641
860.0132, 232.7681
860.4953, 232.0236
860.9774, 231.5462
861.4595, 231.8785
861.9417, 232.7250
862.4238, 232.9584
862.9059, 232.1505
863.3880, 231.4617
863.8701, 231.1423
864.3522, 230.9576
864.8344, 230.8669
865.3165, 230.7677
865.7986, 230.4670
866.2807, 229.9399
866.7628, 229.4816
867.2449, 229.2973
867.7271, 229.3136
868.2092, 229.6527
868.6913, 230.0888
869.1733, 229.8541
869.6555, 228.8708
870.1376, 227.9557
870.6197, 227.7169
871.1018, 227.8880
871.5839, 227.8178
872.0660, 227.4686
872.5482, 227.2478
873.0303, 227.2374
873.5124, 227.1758
873.9945, 226.9568
874.4766, 226.6149
874.9587, 226.1240
875.4409, 225.4418
875.9230, 225.1300
876.4051, 225.4893
876.8872, 225.8228
877.3693, 226.1690
877.8514, 226.2664
878.3336, 225.6618
878.8157, 224.6607
879.2978, 224.0614
879.7799, 224.1777
880.2620, 224.5331
880.7441, 225.0424
881.2263, 225.4302
881.7084, 225.1232
882.1905, 224.4295
882.6726, 224.2453
883.1547, 224.8119
883.6368, 225.6230
884.1190, 226.2874
884.6011, 226.7219
885.0832, 226.4850
885.5653, 225.5859
886.0474, 225.2346
886.5295, 225.7211
887.0117, 226.2365
887.4938, 226.2554
887.9759, 225.9899
888.4580, 225.9499
888.9401, 226.3194
889.4222, 226.2012
889.9044, 224.9700
890.3865, 224.0842
890.8686, 224.0528
891.3507, 224.3911
891.8328, 224.6907
892.3149, 224.9599
892.7971, 225.4194
893.2792, 226.6032
893.7613, 227.1718
894.2434, 225.7895
894.7255, 224.1863
895.2076, 224.1416
895.6898, 225.1442
896.1719, 225.8128
896.6540, 225.6942
897.1361, 225.2792
897.6182, 224.9399
898.1003, 224.6513
898.5825, 224.2847
899.0646, 223.9185
899.5467, 223.9839
900.0288, 224.5427
900.5109, 225.0268
900.9930, 225.0104
901.4752, 224.6861
901.9573, 224.5557
902.4394, 224.6763
902.9215, 224.5114
903.4036, 223.9448
903.8857, 223.3888
904.3679, 223.0081
904.8500, 222.7097
905.3321, 222.3485
905.8142, 221.9281
906.2963, 221.7257
906.7784, 222.0390
907.2606, 222.1397
907.7427, 221.8204
908.2248, 221.3822
908.7069, 220.9434
909.1890, 220.5471
909.6711, 220.2423
910.1533, 220.0392
910.6354, 219.9231
911.1175, 219.9231
911.5996, 219.9704
912.0817, 220.0972
912.5638, 220.1915
913.0460, 220.1071
913.5281, 219.8089
914.0102, 219.2518
914.4923, 218.3497
914.9744, 217.4478
915.4565, 217.0218
915.9387, 217.0045
916.4208, 217.3078
916.9029, 217.8747
917.3850, 218.2215
917.8671, 218.1546
918.3492, 217.8453
918.8314, 217.4272
919.3135, 216.9658
919.7956, 217.0323
920.2777, 217.8792
920.7598, 218.1179
921.2419, 217.2870
921.7241, 216.3549
922.2062, 215.8379
922.6883, 215.6503
923.1704, 215.6598
923.6525, 215.9825
924.1346, 216.0525
924.6168, 215.4731
925.0989, 215.1545
925.5810, 215.7528
926.0631, 216.3724
926.5452, 216.1065
927.0273, 215.1666
927.5095, 214.4302
927.9916, 214.1461
928.4737, 214.0674
928.9558, 214.3256
929.4379, 214.5119
929.9200, 214.0492
930.4022, 213.3320
930.8843, 213.1700
931.3664, 213.6745
931.8485, 214.1631
932.3306, 214.0889
932.8127, 213.8365
933.2949, 214.0120
933.7770, 214.4239
934.2591, 214.6021
934.7412, 214.4964
935.2233, 214.1379
935.7054, 213.5305
936.1876, 212.9964
936.6697, 213.0148
937.1518, 213.5014
937.6339, 213.8683
938.1160, 214.1133
938.5981, 214.2746
939.0803, 214.3589
939.5624, 214.3680
940.0445, 214.2947
940.5266, 214.1568
941.0087, 213.9811
941.4908, 213.6975
941.9730, 213.6394
942.4551, 213.9437
942.9372, 214.2697
943.4193, 214.5242
943.9014, 214.7550
944.3835, 215.0244
944.8657, 215.3104
945.3478, 215.5098
945.8299, 215.6517
946.3120, 215.6268
946.7941, 215.2077
947.2762, 214.8304
947.7584, 214.7566
948.2405, 214.8864
948.7226, 215.1584
949.2047, 215.5057
949.6868, 215.5832
950.1689, 214.9045
950.6511, 214.3327
951.1332, 214.7002
951.6153, 215.4416
952.0974, 215.9361
952.5795, 216.1224
953.0616, 216.0199
953.5438, 215.6561
954.0259, 215.3338
954.5080, 215.4687
954.9901, 215.7726
955.4722, 215.5379
955.9543, 214.9601
956.4365, 214.9172
956.9186, 215.4970
957.4007, 215.7845
957.8828, 215.1850
958.3649, 214.2880
958.8470, 214.2135
959.3292, 214.9152
959.8113, 215.1800
960.2934, 214.9564
960.7755, 214.7492
961.2576, 214.6881
961.7397, 214.6972
962.2219, 214.7000
962.7040, 214.7322
963.1861, 214.9441
963.6682, 215.4644
964.1503, 215.7796
964.6324, 215.8902
965.1146, 215.7833
965.5967, 215.2635
966.0788, 214.6853
966.5609, 214.4247
967.0430, 214.4490
967.5251, 214.5531
968.0073, 214.9878
968.4894, 214.4983
968.9715, 215.2847
969.4536, 215.6967
969.9357, 215.7544
970.4178, 214.3964
970.9000, 214.8664
971.3821, 214.6039
971.8642, 214.3112
972.3463, 215.0385
972.8284, 213.8865
973.3105, 214.5976
973.7927, 214.5649
974.2748, 214.8727
974.7569, 214.4433
975.2390, 214.2417
975.7211, 214.7773
976.2032, 214.9047
976.6854, 214.3905
977.1675, 214.7199
977.6496, 213.5421
978.1317, 213.6869
978.6138, 214.4023
979.0959, 213.9252
979.5781, 214.2681
980.0602, 214.2986
980.5423, 212.9100
981.0244, 213.9895
981.5065, 214.0016
981.9886, 212.9177
982.4708, 213.9127
982.9529, 212.9799
983.4350, 212.7352
983.9171, 213.0083
984.3992, 212.7416
984.8813, 213.3260
985.3635, 213.0905
985.8456, 212.7817
986.3277, 212.8614
986.8098, 212.6333
987.2919, 212.2662
987.7740, 211.8060
988.2562, 211.4158
988.7383, 211.2201
989.2204, 211.1917
989.7025, 211.2816
990.1846, 211.5296
990.6667, 211.6946
991.1489, 211.8216
991.6310, 211.7136
992.1131, 211.1607
992.5952, 210.5706
993.0773, 210.3095
993.5594, 210.3313
994.0416, 210.4502
994.5237, 210.9110
995.0058, 210.9503
995.4879, 210.1102
995.9700, 209.4343
996.4521, 209.3641
996.9343, 209.5128
997.4164, 209.5633
997.8985, 209.5065
998.3806, 209.3388
998.8627, 208.8992
999.3448, 208.6515
999.8270, 208.8700
1000.309, 209.0758
1000.791, 208.9772
1001.273, 208.7554
1001.755, 208.6726
1002.238, 208.7168
1002.720, 208.6315
1003.202, 208.2503
1003.684, 207.8830
1004.166, 207.7360
1004.648, 207.5856
1005.130, 207.1573
1005.612, 206.6507
1006.094, 206.4194
1006.577, 206.4974
1007.059, 206.5986
1007.541, 206.5789
1008.023, 206.5289
1008.505, 206.5451
1008.987, 206.5503
1009.469, 206.4330
1009.951, 206.2334
1010.433, 206.0422
1010.916, 205.8898
1011.398, 205.7727
1011.880, 205.6641
1012.362, 205.6351
1012.844, 205.9560
1013.326, 206.3307
1013.808, 206.1004
1014.290, 205.3901
1014.773, 204.7635
1015.255, 204.4285
1015.737, 204.3279
1016.219, 204.4995
1016.701, 204.7227
1017.183, 204.4917
1017.665, 203.9727
1018.147, 203.7658
1018.629, 203.8696
1019.112, 203.8018
1019.594, 203.3739
1020.076, 202.8834
1020.558, 202.6209
1021.040, 202.5664
1021.522, 202.7511
1022.004, 203.1257
1022.486, 203.2262
1022.969, 203.0039
1023.451, 202.6041
1023.933, 202.0554
1024.415, 201.7518
1024.897, 202.2691
1025.379, 203.3333
1025.861, 203.5919
1026.343, 203.0104
1026.825, 202.2117
1027.308, 201.1978
1027.790, 200.4636
1028.272, 200.2885
1028.754, 200.3285
1029.236, 200.1273
1029.718, 199.7446
1030.200, 199.6833
1030.682, 200.0568
1031.165, 200.1854
1031.647, 199.9017
1032.129, 199.7139
1032.611, 199.9459
1033.093, 200.2222
1033.575, 200.0129
1034.057, 199.3628
1034.539, 198.9067
1035.021, 198.6490
1035.504, 198.5899
1035.986, 198.9043
1036.468, 199.0583
1036.950, 198.6483
1037.432, 198.1374
1037.914, 198.1883
1038.396, 198.7619
1038.878, 199.0397
1039.360, 198.8772
1039.843, 198.6930
1040.325, 198.4639
1040.807, 198.2781
1041.289, 198.2128
1041.771, 198.1821
1042.253, 198.0828
1042.735, 197.9181
1043.217, 197.7421
1043.700, 197.5287
1044.182, 197.3469
1044.664, 197.1862
1045.146, 197.0739
1045.628, 196.9871
1046.110, 196.9795
1046.592, 197.1276
1047.074, 197.4219
1047.557, 197.7609
1048.039, 198.4071
1048.521, 198.6533
1049.003, 198.0568
1049.485, 197.4883
1049.967, 197.3731
1050.449, 197.4604
1050.931, 197.4836
1051.413, 197.4375
1051.896, 197.4083
1052.378, 197.4198
1052.860, 197.4241
1053.342, 197.3585
1053.824, 197.3459
1054.306, 197.6070
1054.788, 197.8329
1055.270, 197.5823
1055.752, 196.9680
1056.235, 196.5888
1056.717, 196.6238
1057.199, 196.7458
1057.681, 196.9733
1058.163, 197.1438
1058.645, 197.1213
1059.127, 197.0429
1059.609, 197.0222
1060.092, 197.0819
1060.574, 197.2506
1061.056, 197.5609
1061.538, 197.8897
1062.020, 198.4295
1062.502, 198.7026
1062.984, 198.1441
1063.466, 197.4526
1063.948, 197.4257
1064.431, 197.8863
1064.913, 198.1191
1065.395, 197.9088
1065.877, 197.7439
1066.359, 197.7844
1066.841, 197.9492
1067.323, 198.4650
1067.805, 198.8608
1068.287, 198.4416
1068.770, 197.5728
1069.252, 197.2156
1069.734, 197.6168
1070.216, 198.1897
1070.698, 198.9603
1071.180, 199.5104
1071.662, 199.5999
1072.144, 199.3956
1072.627, 198.7996
1073.109, 198.1222
1073.591, 197.9680
1074.073, 198.4599
1074.555, 199.0210
1075.037, 199.6587
1075.519, 199.9824
1076.001, 199.3550
1076.484, 198.7405
1076.966, 199.2655
1077.448, 200.2791
1077.930, 200.5256
1078.412, 199.8366
1078.894, 199.1033
1079.376, 198.4381
1079.858, 198.2103
1080.340, 199.1048
1080.823, 200.0013
1081.305, 199.8323
1081.787, 199.1755
1082.269, 198.9613
1082.751, 199.2644
1083.233, 199.5635
1083.715, 199.6575
1084.197, 199.7422
1084.679, 199.8668
1085.161, 200.0597
1085.644, 200.5368
1086.126, 200.9647
1086.608, 200.8514
1087.090, 200.2775
1087.572, 199.7227
1088.054, 199.2654
1088.536, 199.1179
1089.018, 199.6867
1089.501, 200.2209
1089.983, 200.1437
1090.465, 199.8938
1090.947, 200.0238
1091.429, 200.4012
1091.911, 200.4733
1092.393, 200.0455
1092.875, 199.8376
1093.358, 200.3860
1093.840, 200.8888
1094.322, 200.7790
1094.804, 200.6195
1095.286, 201.1184
1095.768, 201.8944
1096.250, 201.9815
1096.732, 201.2170
1097.214, 200.8929
1097.697, 202.0872
1098.179, 202.9003
1098.661, 202.1630
1099.143, 201.3039
1099.625, 201.3949
1100.107, 202.0006
1100.589, 202.4373
1101.071, 202.6245
1101.553, 202.7211
1102.036, 202.7465
1102.518, 202.7158
1103.000, 202.5390
1103.482, 202.4140
1103.964, 202.5483
1104.446, 202.7179
1104.928, 202.4928
1105.410, 202.0395
1105.893, 202.2361
1106.375, 203.6668
1106.857, 204.4964
1107.339, 203.7567
1107.821, 203.1744
1108.303, 203.7789
1108.785, 204.4575
1109.267, 204.0206
1109.750, 202.9471
1110.232, 202.5481
1110.714, 203.0373
1111.196, 203.5980
1111.678, 204.3416
1112.160, 204.8748
1112.642, 205.0240
1113.124, 205.0322
1113.606, 204.9460
1114.089, 204.8598
1114.571, 205.0553
1115.053, 205.5668
1115.535, 205.4297
1116.017, 203.7496
1116.499, 202.8830
1116.981, 203.5617
1117.463, 204.2561
1117.945, 204.4390
1118.428, 204.2568
1118.910, 203.7107
1119.392, 202.9180
1119.874, 202.5638
1120.356, 202.8166
1120.838, 203.0970
1121.320, 203.5293
1121.802, 203.7372
1122.285, 203.5620
1122.767, 203.2074
1123.249, 202.7378
1123.731, 202.2835
1124.213, 202.2033
1124.695, 202.5616
1125.177, 202.7203
1125.659, 202.6994
1126.141, 202.3763
1126.624, 201.6323
1127.106, 200.8646
1127.588, 200.2727
1128.070, 199.8061
1128.552, 199.3744
1129.034, 198.9987
1129.516, 198.9973
1129.998, 199.5006
1130.480, 199.1163
1130.963, 197.5540
1131.445, 196.4049
1131.927, 196.3301
1132.409, 196.5060
1132.891, 196.1454
1133.373, 195.4560
1133.855, 194.9912
1134.337, 194.7417
1134.820, 194.5397
1135.302, 194.3799
1135.784, 194.2007
1136.266, 193.9860
1136.748, 193.5770
1137.230, 192.8486
1137.712, 192.0997
1138.194, 191.8249
1138.677, 191.8715
1139.159, 191.6836
1139.641, 191.3305
1140.123, 191.1439
1140.605, 191.1427
1141.087, 191.1655
1141.569, 191.1413
1142.051, 191.0125
1142.533, 190.7090
1143.016, 190.3109
1143.498, 189.9669
1143.980, 189.6135
1144.462, 188.9785
1144.944, 188.2367
1145.426, 187.9981
1145.908, 188.2896
1146.390, 188.4588
1146.872, 188.1245
1147.355, 187.6781
1147.837, 187.3731
1148.319, 187.2788
1148.801, 187.7575
1149.283, 188.3334
1149.765, 188.2356
1150.247, 187.5508
1150.729, 186.7036
1151.212, 185.8458
1151.694, 185.2757
1152.176, 185.3097
1152.658, 185.4899
1153.140, 185.6329
1153.622, 185.6857
1154.104, 185.4998
1154.586, 185.2484
1155.068, 185.2446
1155.551, 185.4609
1156.033, 185.5439
1156.515, 185.3965
1156.997, 185.0880
1157.479, 184.3702
1157.961, 183.8369
1158.443, 184.0346
1158.925, 184.2923
1159.407, 183.8406
1159.890, 183.0334
1160.372, 182.8140
1160.854, 183.3501
1161.336, 183.6029
1161.818, 183.1521
1162.300, 182.9245
1162.782, 183.2076
1163.264, 183.5116
1163.747, 183.7071
1164.229, 183.7384
1164.711, 183.5328
1165.193, 183.1045
1165.675, 182.4604
1166.157, 181.2120
1166.639, 181.1591
1167.121, 182.9632
1167.604, 183.9057
1168.086, 183.0350
1168.568, 181.9081
1169.050, 181.5635
1169.532, 181.6492
1170.014, 181.5552
1170.496, 181.3126
1170.978, 181.2746
1171.460, 181.4473
1171.943, 181.5349
1172.425, 181.5037
1172.907, 181.3757
1173.389, 181.1542
1173.871, 181.0562
1174.353, 181.3197
1174.835, 181.6807
1175.317, 181.4902
1175.799, 180.9687
1176.282, 181.0019
1176.764, 181.4050
1177.246, 181.3170
1177.728, 180.6585
1178.210, 179.9043
1178.692, 179.2885
1179.174, 179.0506
1179.656, 179.7472
1180.139, 180.5757
1180.621, 180.4689
1181.103, 179.8665
1181.585, 179.2373
1182.067, 178.7161
1182.549, 178.4800
1183.031, 178.5133
1183.513, 178.5570
1183.995, 178.5087
1184.478, 178.3902
1184.960, 178.2157
1185.442, 177.9733
1185.924, 177.3498
1186.406, 176.9119
1186.888, 177.5114
1187.370, 178.6785
1187.852, 179.3209
1188.334, 179.2650
1188.817, 178.9776
1189.299, 178.2077
1189.781, 177.7393
1190.263, 178.0393
1190.745, 178.2659
1191.227, 177.9816
1191.709, 177.4945
1192.191, 177.0363
1192.674, 176.6279
1193.156, 176.3680
1193.638, 176.3128
1194.120, 176.0992
1194.602, 175.6425
1195.084, 175.2625
1195.566, 174.9393
1196.048, 175.0255
1196.531, 175.8228
1197.013, 176.7449
1197.495, 177.0809
1197.977, 176.8894
1198.459, 176.1982
1198.941, 175.0840
1199.423, 174.7109
1199.905, 175.0662
1200.387, 175.2734
1200.870, 175.1179
1201.352, 174.8496
1201.834, 174.6097
1202.316, 174.5412
1202.798, 175.0230
1203.280, 175.6229
1203.762, 175.3928
1204.244, 174.7815
1204.726, 174.7728
1205.209, 175.1579
1205.691, 175.0284
1206.173, 174.2563
1206.655, 173.5924
1207.137, 173.4044
1207.619, 173.4914
1208.101, 173.8604
1208.583, 174.2905
1209.066, 174.8169
1209.548, 175.1572
1210.030, 174.8349
1210.512, 174.1479
1210.994, 173.7888
1211.476, 173.8641
1211.958, 173.9523
1212.440, 174.1875
1212.922, 174.0935
1213.405, 173.1382
1213.887, 172.4552
1214.369, 172.6582
1214.851, 173.0761
1215.333, 173.1772
1215.815, 173.0365
1216.297, 172.8083
1216.779, 172.4662
1217.261, 172.4371
1217.744, 172.8208
1218.226, 172.9545
1218.708, 172.7202
1219.190, 172.4357
1219.672, 172.2202
1220.154, 172.1590
1220.636, 172.3705
1221.118, 172.6728
1221.600, 172.6199
1222.083, 172.3307
1222.565, 172.2271
1223.047, 172.2973
1223.529, 172.5765
1224.011, 172.9602
1224.493, 172.9505
1224.975, 172.3761
1225.457, 171.7398
1225.940, 171.3083
1226.422, 171.2065
1226.904, 172.0176
1227.386, 172.7788
1227.868, 171.9794
1228.350, 170.7809
1228.832, 171.2282
1229.314, 172.9112
1229.797, 173.7506
1230.279, 173.1718
1230.761, 172.5921
1231.243, 172.4162
1231.725, 172.2686
1232.207, 171.8820
1232.689, 171.7039
1233.171, 172.2671
1233.653, 172.8888
1234.135, 172.7838
1234.618, 172.2042
1235.100, 172.0425
1235.582, 172.3768
1236.064, 172.5979
1236.546, 172.6673
1237.028, 172.8676
1237.510, 173.2929
1237.992, 173.4282
1238.475, 173.0009
1238.957, 172.5732
1239.439, 172.7516
1239.921, 173.2390
1240.403, 173.4580
1240.885, 173.4411
1241.367, 173.2419
1241.849, 172.9080
1242.332, 172.5450
1242.814, 172.1831
1243.296, 171.8030
1243.778, 171.4116
1244.260, 171.2006
1244.742, 171.4388
1245.224, 171.6578
1245.706, 171.2574
1246.188, 170.9533
1246.671, 171.6024
1247.153, 172.5056
1247.635, 172.7144
1248.117, 172.3963
1248.599, 172.2663
1249.081, 172.4439
1249.563, 172.6208
1250.045, 172.8139
1250.527, 172.9068
1251.010, 172.7386
1251.492, 172.7704
1251.974, 173.4321
1252.456, 173.8320
1252.938, 173.0143
1253.420, 171.6699
1253.902, 171.4216
1254.384, 172.1850
1254.867, 172.6512
1255.349, 172.8327
1255.831, 172.9145
1256.313, 172.9313
1256.795, 172.9734
1257.277, 173.0688
1257.759, 173.1709
1258.241, 173.2490
1258.724, 173.3006
1259.206, 173.3344
1259.688, 173.3279
1260.170, 173.1526
1260.652, 172.9883
1261.134, 173.1741
1261.616, 173.5531
1262.098, 173.7822
1262.580, 173.7856
1263.063, 173.5765
1263.545, 173.0204
1264.027, 172.6103
1264.509, 172.5228
1264.991, 172.5371
1265.473, 172.5181
1265.955, 172.6659
1266.437, 173.3156
1266.919, 173.9830
1267.402, 173.9413
1267.884, 173.3172
1268.366, 172.8448
1268.848, 172.5090
1269.330, 172.5218
1269.812, 172.8979
1270.294, 173.4147
1270.776, 174.0138
1271.259, 174.2421
1271.741, 173.8717
1272.223, 173.4900
1272.705, 173.7718
1273.187, 174.2176
1273.669, 173.9751
1274.151, 173.4688
1274.633, 173.4236
1275.115, 173.5790
1275.598, 173.2594
1276.080, 172.6509
1276.562, 172.6306
1277.044, 173.4236
1277.526, 173.9997
1278.008, 173.7442
1278.490, 173.5885
1278.972, 174.0192
1279.454, 174.2824
1279.937, 173.8236
1280.419, 173.2939
1280.901, 173.1909
1281.383, 173.3298
1281.865, 173.3773
1282.347, 173.3349
1282.829, 173.1486
1283.311, 172.7834
1283.794, 172.9779
1284.276, 173.7727
1284.758, 174.2708
1285.240, 174.2446
1285.722, 174.0943
1286.204, 174.0547
##END=



