##NAMES=Muscovite
##RRUFFID=R050080
##IDEAL CHEMISTRY=KAl_2_(Si_3_Al)O_10_(OH)_2_
##LOCALITY=Brazil
##OWNER=RRUFF
##SOURCE=Rock Currier
##DESCRIPTION=Tan colored micaceous crystals of 2M1 polytype
##STATUS=The identification of this mineral has been confirmed by X-ray diffraction and chemical analysis
##URL=rruff.info/R050080
##MEASURED CHEMISTRY=(K_0.93_Na_0.07_)(Al_0.99_Fe^3+^_0.01_)_2_(Si_3.00_Al_1.00_)O_10_((OH)_0.97_F_0.03_)_2_
176.1783, 35178.65
176.6604, 35288.66
177.1425, 35386.23
177.6246, 35479.32
178.1067, 35567.23
178.5888, 35651.96
179.0710, 35726.86
179.5531, 35798.30
180.0352, 35880.17
180.5173, 35978.45
180.9994, 36085.15
181.4815, 36193.65
181.9637, 36304.20
182.4458, 36395.16
182.9279, 36433.98
183.4100, 36434.42
183.8921, 36448.53
184.3742, 36488.84
184.8564, 36553.41
185.3385, 36645.07
185.8206, 36766.75
186.3027, 36889.20
186.7848, 36968.60
187.2669, 37013.59
187.7491, 37093.27
188.2312, 37253.46
188.7133, 37467.31
189.1954, 37633.83
189.6775, 37745.15
190.1596, 37839.43
190.6418, 37962.80
191.1239, 38114.32
191.6060, 38273.90
192.0881, 38435.50
192.5702, 38598.98
193.0524, 38764.41
193.5345, 38932.70
194.0166, 39099.54
194.4987, 39258.64
194.9808, 39410.52
195.4629, 39547.20
195.9451, 39660.65
196.4272, 39752.67
196.9093, 39838.62
197.3914, 39920.91
197.8735, 39994.11
198.3556, 40044.12
198.8378, 40067.68
199.3199, 40087.84
199.8020, 40129.02
200.2841, 40195.67
200.7662, 40203.07
201.2483, 40124.23
201.7305, 40003.71
202.2126, 39956.55
202.6947, 39997.41
203.1768, 40057.05
203.6589, 40093.64
204.1410, 40102.66
204.6232, 40119.50
205.1053, 40150.19
205.5874, 40189.40
206.0695, 40212.69
206.5516, 40207.56
207.0337, 40219.32
207.5159, 40289.78
207.9980, 40434.25
208.4801, 40555.10
208.9622, 40627.43
209.4443, 40667.21
209.9264, 40757.35
210.4086, 40913.62
210.8907, 41089.29
211.3728, 41253.94
211.8549, 41416.85
212.3370, 41540.57
212.8191, 41614.68
213.3013, 41643.11
213.7834, 41665.64
214.2655, 41688.50
214.7476, 41695.31
215.2297, 41670.93
215.7118, 41609.55
216.1940, 41531.47
216.6761, 41437.39
217.1582, 41327.61
217.6403, 41215.70
218.1224, 41099.51
218.6045, 40985.80
219.0867, 40879.87
219.5688, 40780.16
220.0509, 40694.20
220.5330, 40628.06
221.0151, 40581.29
221.4972, 40534.40
221.9794, 40488.99
222.4615, 40441.27
222.9436, 40382.30
223.4257, 40294.64
223.9078, 40232.38
224.3899, 40217.81
224.8721, 40256.51
225.3542, 40262.00
225.8363, 40206.65
226.3184, 40144.30
226.8005, 40142.82
227.2827, 40234.17
227.7648, 40325.97
228.2469, 40396.43
228.7290, 40443.43
229.2111, 40482.21
229.6932, 40503.27
230.1754, 40523.32
230.6575, 40568.53
231.1396, 40661.21
231.6217, 40738.47
232.1038, 40776.39
232.5859, 40762.87
233.0681, 40776.06
233.5502, 40825.39
234.0323, 40894.41
234.5144, 40960.64
234.9965, 41021.54
235.4786, 41083.55
235.9608, 41152.83
236.4429, 41235.31
236.9250, 41288.30
237.4071, 41276.39
237.8892, 41256.77
238.3713, 41328.14
238.8535, 41548.87
239.3356, 41762.97
239.8177, 41918.26
240.2998, 41998.13
240.7819, 42082.44
241.2640, 42168.54
241.7462, 42261.94
242.2283, 42373.60
242.7104, 42509.89
243.1925, 42653.95
243.6746, 42799.53
244.1567, 42944.17
244.6389, 43100.49
245.1210, 43265.21
245.6031, 43442.97
246.0852, 43639.40
246.5673, 43849.05
247.0494, 44087.26
247.5316, 44369.51
248.0137, 44721.94
248.4958, 45025.54
248.9779, 45243.33
249.4600, 45431.69
249.9421, 45692.00
250.4243, 46052.38
250.9064, 46437.08
251.3885, 46817.36
251.8706, 47185.38
252.3527, 47579.62
252.8348, 47994.04
253.3170, 48437.00
253.7991, 48928.34
254.2812, 49482.93
254.7633, 50046.89
255.2454, 50593.47
255.7275, 51096.15
256.2097, 51669.99
256.6918, 52347.95
257.1739, 53067.90
257.6560, 53723.77
258.1381, 54305.53
258.6202, 54846.12
259.1024, 55362.12
259.5845, 55847.82
260.0666, 56321.09
260.5487, 56818.39
261.0308, 57274.18
261.5129, 57593.58
261.9951, 57775.35
262.4772, 57816.25
262.9593, 57698.80
263.4414, 57397.95
263.9235, 57049.62
264.4056, 56642.92
264.8878, 56194.40
265.3699, 55725.65
265.8520, 55236.74
266.3341, 54715.54
266.8162, 54136.99
267.2983, 53490.88
267.7805, 52886.96
268.2626, 52338.59
268.7447, 51823.21
269.2268, 51291.73
269.7089, 50725.52
270.1910, 50212.07
270.6732, 49789.90
271.1553, 49469.83
271.6374, 49156.36
272.1195, 48847.25
272.6016, 48547.33
273.0837, 48274.46
273.5659, 48028.75
274.0480, 47802.53
274.5301, 47584.19
275.0122, 47373.51
275.4943, 47217.35
275.9764, 47128.04
276.4586, 47070.08
276.9407, 46986.73
277.4228, 46874.51
277.9049, 46776.26
278.3870, 46712.72
278.8691, 46682.52
279.3513, 46656.59
279.8334, 46637.74
280.3155, 46615.98
280.7976, 46575.49
281.2798, 46515.93
281.7619, 46453.08
282.2440, 46381.45
282.7261, 46306.94
283.2082, 46287.63
283.6903, 46336.49
284.1725, 46392.77
284.6546, 46361.50
285.1367, 46247.38
285.6188, 46168.56
286.1009, 46188.11
286.5830, 46278.88
287.0652, 46322.06
287.5473, 46312.83
288.0294, 46282.53
288.5115, 46250.49
288.9936, 46220.32
289.4757, 46223.93
289.9579, 46296.99
290.4400, 46405.24
290.9221, 46444.60
291.4042, 46410.26
291.8863, 46366.90
292.3684, 46377.53
292.8506, 46434.59
293.3327, 46507.69
293.8148, 46609.00
294.2969, 46708.41
294.7790, 46730.94
295.2611, 46676.44
295.7433, 46624.44
296.2254, 46654.27
296.7075, 46742.87
297.1896, 46825.07
297.6717, 46889.23
298.1538, 46933.13
298.6360, 46934.83
299.1181, 46899.13
299.6002, 46882.44
300.0823, 46954.90
300.5644, 47074.07
301.0465, 47156.44
301.5287, 47158.06
302.0108, 47141.82
302.4929, 47187.66
302.9750, 47285.25
303.4571, 47372.65
303.9392, 47389.44
304.4214, 47377.00
304.9035, 47395.96
305.3856, 47479.80
305.8677, 47567.09
306.3498, 47597.02
306.8319, 47582.23
307.3141, 47567.88
307.7962, 47580.05
308.2783, 47605.79
308.7604, 47632.04
309.2425, 47653.13
309.7246, 47680.15
310.2068, 47729.45
310.6889, 47791.50
311.1710, 47842.16
311.6531, 47866.98
312.1352, 47877.77
312.6173, 47874.26
313.0995, 47840.80
313.5816, 47839.32
314.0637, 47927.75
314.5458, 48066.82
315.0279, 48183.20
315.5100, 48242.88
315.9922, 48276.95
316.4743, 48300.18
316.9564, 48313.88
317.4385, 48318.54
317.9206, 48290.57
318.4027, 48259.01
318.8849, 48264.37
319.3670, 48355.87
319.8491, 48452.43
320.3312, 48525.79
320.8133, 48572.20
321.2954, 48606.20
321.7776, 48629.11
322.2597, 48641.96
322.7418, 48645.89
323.2239, 48606.22
323.7060, 48592.40
324.1881, 48637.93
324.6703, 48751.17
325.1524, 48826.16
325.6345, 48815.59
326.1166, 48784.41
326.5987, 48784.92
327.0808, 48851.45
327.5630, 48909.67
328.0451, 48949.70
328.5272, 48972.28
329.0093, 48992.46
329.4914, 49003.63
329.9735, 49017.93
330.4557, 49044.80
330.9378, 49100.13
331.4199, 49139.60
331.9020, 49152.43
332.3841, 49145.66
332.8662, 49151.85
333.3484, 49165.48
333.8305, 49200.32
334.3126, 49274.88
334.7947, 49417.26
335.2768, 49507.22
335.7589, 49522.81
336.2411, 49491.39
336.7232, 49481.12
337.2053, 49496.23
337.6874, 49520.44
338.1695, 49544.20
338.6516, 49565.25
339.1338, 49608.59
339.6159, 49683.81
340.0980, 49766.25
340.5801, 49806.72
341.0622, 49800.73
341.5443, 49798.23
342.0265, 49819.14
342.5086, 49861.78
342.9907, 49917.00
343.4728, 49987.72
343.9549, 50057.70
344.4370, 50107.46
344.9192, 50137.59
345.4013, 50153.17
345.8834, 50138.24
346.3655, 50114.60
346.8476, 50148.93
347.3297, 50242.52
347.8119, 50350.13
348.2940, 50438.22
348.7761, 50507.11
349.2582, 50554.16
349.7403, 50568.36
350.2225, 50572.38
350.7046, 50591.61
351.1867, 50627.01
351.6688, 50684.91
352.1509, 50806.12
352.6331, 50943.56
353.1152, 51018.68
353.5973, 50986.69
354.0794, 50940.01
354.5615, 50961.55
355.0436, 51036.37
355.5258, 51119.02
356.0079, 51176.33
356.4900, 51235.08
356.9721, 51327.98
357.4542, 51476.49
357.9363, 51603.50
358.4185, 51639.65
358.9006, 51627.80
359.3827, 51642.11
359.8648, 51708.75
360.3469, 51811.14
360.8290, 51964.68
361.3112, 52185.63
361.7933, 52347.06
362.2754, 52354.88
362.7575, 52304.05
363.2396, 52297.78
363.7217, 52392.87
364.2039, 52501.25
364.6860, 52607.69
365.1681, 52711.87
365.6502, 52800.57
366.1323, 52853.23
366.6144, 52902.20
367.0966, 52969.99
367.5787, 53061.20
368.0608, 53166.06
368.5429, 53296.25
369.0250, 53444.03
369.5071, 53567.86
369.9893, 53670.19
370.4714, 53745.52
370.9535, 53780.84
371.4356, 53724.96
371.9177, 53750.95
372.3998, 53899.98
372.8820, 54112.70
373.3641, 54248.58
373.8462, 54276.02
374.3283, 54307.98
374.8104, 54391.72
375.2925, 54533.04
375.7747, 54661.37
376.2568, 54766.72
376.7389, 54880.99
377.2210, 55083.62
377.7031, 55387.98
378.1852, 55580.90
378.6674, 55548.84
379.1495, 55356.22
379.6316, 55278.18
380.1137, 55321.42
380.5958, 55424.63
381.0779, 55566.58
381.5601, 55732.70
382.0422, 55833.33
382.5243, 55823.52
383.0064, 55774.29
383.4885, 55815.30
383.9706, 55935.29
384.4528, 56048.32
384.9349, 56072.92
385.4170, 56058.86
385.8991, 56092.21
386.3812, 56193.79
386.8633, 56318.71
387.3455, 56424.14
387.8276, 56520.45
388.3097, 56633.41
388.7918, 56787.62
389.2739, 56955.12
389.7560, 57120.86
390.2382, 57285.44
390.7203, 57426.50
391.2024, 57515.20
391.6845, 57579.05
392.1666, 57650.84
392.6487, 57740.30
393.1309, 57840.17
393.6130, 57946.89
394.0951, 58060.88
394.5772, 58183.68
395.0593, 58334.10
395.5414, 58482.01
396.0236, 58607.14
396.5057, 58697.51
396.9878, 58776.31
397.4699, 58831.69
397.9520, 58874.70
398.4341, 58939.61
398.9163, 59043.02
399.3984, 59151.07
399.8805, 59250.59
400.3626, 59334.88
400.8447, 59433.48
401.3268, 59567.29
401.8090, 59699.81
402.2911, 59780.72
402.7732, 59799.87
403.2553, 59790.52
403.7374, 59751.73
404.2195, 59686.14
404.7017, 59646.38
405.1838, 59640.34
405.6659, 59638.39
406.1480, 59608.82
406.6301, 59550.95
407.1122, 59507.45
407.5944, 59494.43
408.0765, 59491.26
408.5586, 59445.77
409.0407, 59358.47
409.5228, 59261.00
410.0049, 59164.61
410.4871, 59074.88
410.9692, 59014.63
411.4513, 58994.04
411.9334, 58970.43
412.4155, 58876.73
412.8976, 58736.25
413.3798, 58619.97
413.8619, 58588.14
414.3440, 58578.41
414.8261, 58520.94
415.3082, 58414.02
415.7903, 58302.55
416.2725, 58195.63
416.7546, 58107.23
417.2367, 58053.18
417.7188, 58092.85
418.2009, 58109.56
418.6830, 58029.83
419.1652, 57877.36
419.6473, 57742.11
420.1294, 57643.19
420.6115, 57576.35
421.0937, 57546.73
421.5758, 57592.91
422.0579, 57595.66
422.5400, 57496.11
423.0221, 57352.97
423.5042, 57260.98
423.9864, 57273.86
424.4685, 57281.85
424.9506, 57255.75
425.4327, 57191.84
425.9148, 57146.21
426.3969, 57122.80
426.8791, 57113.14
427.3612, 57112.64
427.8433, 57125.88
428.3254, 57136.70
428.8075, 57152.81
429.2896, 57160.91
429.7718, 57094.59
430.2539, 56933.16
430.7360, 56805.24
431.2181, 56810.51
431.7002, 56938.18
432.1823, 57031.16
432.6645, 57079.59
433.1466, 57100.30
433.6287, 57123.11
434.1108, 57141.67
434.5929, 57121.23
435.0750, 57006.40
435.5572, 56861.43
436.0393, 56802.03
436.5214, 56825.81
437.0035, 56882.19
437.4856, 56963.79
437.9677, 57043.63
438.4499, 57080.52
438.9320, 57048.09
439.4141, 56997.51
439.8962, 56947.59
440.3783, 56906.38
440.8604, 56893.23
441.3426, 56958.56
441.8247, 57022.93
442.3068, 57030.52
442.7889, 56958.22
443.2710, 56911.77
443.7531, 56950.41
444.2353, 57017.18
444.7174, 57049.79
445.1995, 56987.85
445.6816, 56947.37
446.1637, 56956.81
446.6458, 57010.89
447.1280, 57056.64
447.6101, 57107.54
448.0922, 57135.20
448.5743, 57112.46
449.0564, 56992.39
449.5385, 56952.57
450.0207, 57024.20
450.5028, 57153.43
450.9849, 57241.35
451.4670, 57282.27
451.9491, 57306.13
452.4312, 57316.79
452.9134, 57317.53
453.3955, 57341.77
453.8776, 57393.75
454.3597, 57438.44
454.8418, 57428.00
455.3239, 57376.95
455.8061, 57348.03
456.2882, 57362.57
456.7703, 57393.73
457.2524, 57391.18
457.7345, 57367.23
458.2166, 57372.71
458.6988, 57471.60
459.1809, 57598.90
459.6630, 57680.96
460.1451, 57706.89
460.6272, 57718.82
461.1093, 57741.56
461.5915, 57766.42
462.0736, 57782.11
462.5557, 57763.24
463.0378, 57755.83
463.5199, 57785.36
464.0020, 57846.36
464.4842, 57897.60
464.9663, 57906.61
465.4484, 57921.07
465.9305, 57968.81
466.4126, 58088.04
466.8947, 58175.38
467.3769, 58214.82
467.8590, 58229.22
468.3411, 58257.43
468.8232, 58310.41
469.3053, 58355.43
469.7874, 58385.61
470.2696, 58400.91
470.7517, 58391.39
471.2338, 58343.18
471.7159, 58312.59
472.1980, 58368.19
472.6801, 58507.37
473.1623, 58599.22
473.6444, 58612.15
474.1265, 58497.75
474.6086, 58654.09
475.0907, 58756.34
475.5728, 58807.39
476.0550, 58653.93
476.5371, 58764.55
477.0192, 58769.34
477.5013, 58769.80
477.9834, 58917.59
478.4655, 58793.88
478.9477, 58939.34
479.4298, 58977.35
479.9119, 59064.53
480.3940, 59045.23
480.8761, 59058.82
481.3582, 59178.93
481.8404, 59240.06
482.3225, 59208.50
482.8046, 59298.81
483.2867, 59171.38
483.7688, 59235.02
484.2509, 59381.10
484.7331, 59369.17
485.2152, 59520.35
485.6973, 59605.69
486.1794, 59596.36
486.6615, 59568.70
487.1436, 59524.79
487.6258, 59470.21
488.1079, 59424.95
488.5900, 59379.00
489.0721, 59371.42
489.5542, 59451.66
490.0363, 59621.44
490.5185, 59701.54
491.0006, 59671.50
491.4827, 59602.53
491.9648, 59583.26
492.4470, 59606.41
492.9291, 59632.39
493.4112, 59639.31
493.8933, 59648.66
494.3754, 59625.11
494.8575, 59772.20
495.3397, 59865.20
495.8218, 59907.01
496.3039, 59744.30
496.7860, 59845.68
497.2681, 59841.22
497.7502, 59832.42
498.2324, 59970.97
498.7145, 59838.01
499.1966, 59974.22
499.6787, 60002.98
500.1608, 60080.91
500.6429, 60052.36
501.1251, 60056.71
501.6072, 60167.57
502.0893, 60219.45
502.5714, 60178.64
503.0535, 60259.70
503.5356, 60151.19
504.0178, 60204.52
504.4999, 60296.54
504.9820, 60392.71
505.4641, 60440.84
505.9462, 60435.73
506.4283, 60407.05
506.9105, 60350.93
507.3926, 60280.52
507.8747, 60248.08
508.3568, 60254.37
508.8389, 60285.02
509.3210, 60344.48
509.8032, 60420.23
510.2853, 60477.81
510.7674, 60511.63
511.2495, 60532.83
511.7316, 60550.41
512.2137, 60563.96
512.6959, 60572.46
513.1780, 60545.67
513.6601, 60538.53
514.1422, 60610.93
514.6243, 60748.43
515.1064, 60851.72
515.5886, 60855.70
516.0707, 60831.95
516.5528, 60821.22
517.0349, 60824.43
517.5170, 60849.44
517.9991, 60909.46
518.4813, 60986.79
518.9634, 61061.14
519.4455, 61141.98
519.9276, 61201.91
520.4097, 61223.93
520.8918, 61217.39
521.3740, 61255.32
521.8561, 61353.70
522.3382, 61443.69
522.8203, 61469.89
523.3024, 61436.91
523.7845, 61428.74
524.2667, 61452.24
524.7488, 61492.25
525.2309, 61540.55
525.7130, 61592.28
526.1951, 61628.04
526.6772, 61624.04
527.1594, 61617.74
527.6415, 61664.88
528.1236, 61752.76
528.6057, 61826.65
529.0878, 61836.13
529.5699, 61831.60
530.0521, 61853.66
530.5342, 61915.08
531.0163, 61969.50
531.4984, 62003.76
531.9805, 62023.31
532.4626, 62034.25
532.9448, 62007.86
533.4269, 62008.77
533.9090, 62053.48
534.3911, 62131.73
534.8732, 62203.31
535.3553, 62271.68
535.8375, 62328.24
536.3196, 62366.31
536.8017, 62385.45
537.2838, 62406.54
537.7659, 62431.27
538.2480, 62453.04
538.7302, 62442.61
539.2123, 62412.06
539.6944, 62460.80
540.1765, 62649.77
540.6586, 62854.84
541.1407, 62885.63
541.6229, 62780.19
542.1050, 62676.59
542.5871, 62643.99
543.0692, 62649.58
543.5513, 62670.61
544.0334, 62705.48
544.5156, 62745.39
544.9977, 62790.24
545.4798, 62836.16
545.9619, 62879.04
546.4440, 62908.25
546.9261, 62949.16
547.4083, 63016.07
547.8904, 63095.00
548.3725, 63158.88
548.8546, 63195.62
549.3367, 63239.24
549.8188, 63308.59
550.3010, 63397.82
550.7831, 63431.33
551.2652, 63395.61
551.7473, 63349.08
552.2294, 63326.52
552.7115, 63327.83
553.1937, 63363.65
553.6758, 63443.03
554.1579, 63522.70
554.6400, 63544.85
555.1221, 63523.31
555.6042, 63495.66
556.0864, 63452.00
556.5685, 63431.33
557.0506, 63490.50
557.5327, 63610.04
558.0148, 63716.88
558.4969, 63771.89
558.9791, 63806.09
559.4612, 63829.98
559.9433, 63837.78
560.4254, 63871.58
560.9075, 63972.32
561.3896, 64083.45
561.8718, 64154.38
562.3539, 64142.06
562.8360, 64165.60
563.3181, 64253.75
563.8002, 64373.12
564.2823, 64436.37
564.7645, 64427.96
565.2466, 64432.91
565.7287, 64503.80
566.2108, 64616.88
566.6929, 64637.83
567.1750, 64562.76
567.6572, 64479.62
568.1393, 64462.37
568.6214, 64490.75
569.1035, 64527.92
569.5856, 64570.25
570.0677, 64613.21
570.5499, 64657.09
571.0320, 64698.72
571.5141, 64733.53
571.9962, 64743.84
572.4783, 64762.88
572.9604, 64814.27
573.4426, 64889.58
573.9247, 64946.23
574.4068, 64960.49
574.8889, 64969.46
575.3710, 64984.29
575.8531, 65002.89
576.3353, 65042.95
576.8174, 65127.31
577.2995, 65198.57
577.7816, 65185.27
578.2637, 65075.73
578.7458, 65011.05
579.2280, 65020.34
579.7101, 65067.09
580.1922, 65074.60
580.6743, 65054.81
581.1564, 65075.11
581.6385, 65221.82
582.1207, 65396.88
582.6028, 65451.14
583.0849, 65399.17
583.5670, 65358.73
584.0491, 65418.79
584.5313, 65505.59
585.0134, 65559.62
585.4955, 65560.09
585.9776, 65566.08
586.4597, 65592.47
586.9418, 65631.99
587.4240, 65678.28
587.9061, 65767.25
588.3882, 65804.27
588.8703, 65752.59
589.3524, 65649.70
589.8345, 65609.59
590.3167, 65645.13
590.7988, 65694.41
591.2809, 65730.64
591.7630, 65758.09
592.2451, 65802.50
592.7272, 65864.88
593.2094, 65920.21
593.6915, 65923.73
594.1736, 65910.27
594.6557, 65958.11
595.1378, 66093.84
595.6199, 66226.95
596.1021, 66273.30
596.5842, 66278.14
597.0663, 66306.17
597.5485, 66420.66
598.0306, 66517.25
598.5127, 66558.52
598.9948, 66553.05
599.4769, 66539.66
599.9590, 66503.29
600.4412, 66480.20
600.9233, 66477.79
601.4054, 66494.74
601.8875, 66560.03
602.3696, 66691.36
602.8517, 66826.51
603.3339, 66903.45
603.8160, 66927.81
604.2981, 66966.35
604.7802, 67029.80
605.2623, 67095.74
605.7444, 67116.00
606.2266, 67113.91
606.7087, 67152.57
607.1908, 67297.39
607.6729, 67448.51
608.1550, 67521.79
608.6371, 67535.08
609.1193, 67549.03
609.6014, 67593.74
610.0835, 67639.46
610.5656, 67661.66
611.0477, 67650.72
611.5298, 67685.41
612.0120, 67805.28
612.4941, 67933.56
612.9762, 68012.22
613.4583, 68016.35
613.9404, 68066.02
614.4225, 68182.09
614.9047, 68315.82
615.3868, 68389.09
615.8689, 68408.04
616.3510, 68446.95
616.8331, 68534.55
617.3152, 68643.73
617.7974, 68743.60
618.2795, 68831.43
618.7616, 68902.05
619.2437, 68939.79
619.7258, 68968.33
620.2079, 68995.82
620.6901, 69023.42
621.1722, 69082.59
621.6543, 69224.43
622.1364, 69373.63
622.6185, 69477.95
623.1006, 69512.50
623.5828, 69551.78
624.0649, 69587.66
624.5470, 69635.71
625.0291, 69723.72
625.5112, 69864.13
625.9933, 69975.70
626.4755, 70036.00
626.9576, 70068.69
627.4397, 70124.52
627.9218, 70199.64
628.4039, 70264.75
628.8860, 70309.18
629.3682, 70333.35
629.8503, 70315.58
630.3324, 70265.34
630.8145, 70253.82
631.2966, 70341.41
631.7787, 70469.36
632.2609, 70612.46
632.7430, 70788.98
633.2251, 70894.27
633.7072, 70866.55
634.1893, 70782.68
634.6714, 70699.93
635.1536, 70596.60
635.6357, 70547.23
636.1178, 70576.90
636.5999, 70642.69
637.0820, 70661.96
637.5641, 70632.34
638.0463, 70610.80
638.5284, 70615.69
639.0105, 70639.81
639.4926, 70686.51
639.9747, 70747.57
640.4568, 70774.93
640.9390, 70702.12
641.4211, 70606.83
641.9032, 70568.48
642.3853, 70592.64
642.8674, 70607.89
643.3495, 70584.63
643.8317, 70543.23
644.3138, 70492.40
644.7959, 70393.77
645.2780, 70368.57
645.7601, 70462.92
646.2422, 70590.13
646.7244, 70645.68
647.2065, 70615.49
647.6886, 70584.88
648.1707, 70571.01
648.6528, 70560.99
649.1349, 70511.05
649.6171, 70431.34
650.0992, 70391.70
650.5813, 70472.27
651.0634, 70581.12
651.5455, 70601.66
652.0276, 70545.91
652.5098, 70477.16
652.9919, 70400.07
653.4740, 70343.05
653.9561, 70330.53
654.4382, 70372.99
654.9203, 70410.07
655.4025, 70448.08
655.8846, 70467.35
656.3667, 70442.73
656.8488, 70333.34
657.3309, 70317.22
657.8130, 70435.82
658.2952, 70584.30
658.7773, 70588.06
659.2594, 70462.95
659.7415, 70408.59
660.2236, 70512.19
660.7057, 70651.64
661.1879, 70622.23
661.6700, 70481.38
662.1521, 70389.68
662.6342, 70467.61
663.1163, 70582.73
663.5984, 70659.91
664.0806, 70700.59
664.5627, 70736.79
665.0448, 70786.27
665.5269, 70822.71
666.0090, 70832.42
666.4911, 70811.23
666.9733, 70795.87
667.4554, 70793.21
667.9375, 70782.67
668.4196, 70725.47
668.9017, 70625.34
669.3839, 70617.28
669.8660, 70727.90
670.3481, 70861.23
670.8302, 70884.41
671.3123, 70847.66
671.7944, 70865.77
672.2766, 71017.03
672.7587, 71162.05
673.2408, 71192.71
673.7229, 71154.12
674.2050, 71135.43
674.6871, 71148.15
675.1693, 71198.57
675.6514, 71321.67
676.1335, 71493.71
676.6156, 71579.93
677.0977, 71537.74
677.5798, 71506.56
678.0620, 71552.91
678.5441, 71668.52
679.0262, 71767.33
679.5083, 71848.93
679.9904, 71934.05
680.4725, 72039.90
680.9547, 72160.23
681.4368, 72293.43
681.9189, 72441.42
682.4010, 72570.62
682.8831, 72608.18
683.3652, 72638.77
683.8474, 72750.90
684.3295, 73033.73
684.8116, 73288.80
685.2937, 73485.00
685.7758, 73639.65
686.2579, 73766.66
686.7401, 73855.21
687.2222, 73939.57
687.7043, 74008.19
688.1864, 74091.86
688.6685, 74280.64
689.1506, 74568.83
689.6328, 74864.13
690.1149, 75130.34
690.5970, 75379.42
691.0791, 75636.20
691.5612, 75896.88
692.0433, 76134.44
692.5255, 76315.19
693.0076, 76489.62
693.4897, 76693.88
693.9718, 76933.88
694.4539, 77163.64
694.9360, 77382.16
695.4182, 77583.39
695.9003, 77760.54
696.3824, 77898.70
696.8645, 78080.20
697.3466, 78331.28
697.8287, 78556.84
698.3109, 78625.41
698.7930, 78567.80
699.2751, 78550.38
699.7572, 78608.48
700.2393, 78688.20
700.7214, 78750.48
701.2036, 78792.25
701.6857, 78809.37
702.1678, 78845.45
702.6499, 78803.96
703.1320, 78590.92
703.6141, 78274.67
704.0963, 78029.59
704.5784, 77937.07
705.0605, 77802.65
705.5426, 77574.93
706.0247, 77273.41
706.5068, 76996.20
706.9890, 76747.53
707.4711, 76476.13
707.9532, 76129.29
708.4353, 75747.09
708.9174, 75437.92
709.3995, 75198.30
709.8817, 75008.84
710.3638, 74902.35
710.8459, 74812.03
711.3280, 74679.94
711.8101, 74495.17
712.2922, 74301.34
712.7744, 74080.40
713.2565, 73876.04
713.7386, 73714.77
714.2207, 73608.46
714.7028, 73516.95
715.1849, 73445.32
715.6671, 73378.10
716.1492, 73291.55
716.6313, 73188.69
717.1134, 73100.80
717.5955, 73040.00
718.0776, 72976.23
718.5598, 72841.34
719.0419, 72681.74
719.5240, 72590.31
720.0061, 72678.27
720.4882, 72745.16
720.9703, 72649.24
721.4525, 72468.51
721.9346, 72381.13
722.4167, 72524.94
722.8988, 72609.81
723.3809, 72546.52
723.8630, 72387.80
724.3452, 72367.71
724.8273, 72509.50
725.3094, 72622.54
725.7915, 72596.45
726.2736, 72484.45
726.7557, 72415.61
727.2379, 72387.38
727.7200, 72379.91
728.2021, 72380.76
728.6842, 72396.50
729.1663, 72448.66
729.6484, 72540.53
730.1306, 72591.24
730.6127, 72534.74
731.0948, 72465.84
731.5769, 72433.20
732.0590, 72438.23
732.5411, 72476.11
733.0233, 72553.69
733.5054, 72648.78
733.9875, 72754.13
734.4696, 72864.49
734.9517, 72929.64
735.4338, 72938.03
735.9160, 72940.02
736.3981, 72986.69
736.8802, 73060.01
737.3623, 73133.64
737.8444, 73199.98
738.3266, 73267.19
738.8087, 73344.46
739.2908, 73423.22
739.7729, 73487.25
740.2551, 73503.06
740.7372, 73569.14
741.2193, 73721.86
741.7014, 73909.66
742.1835, 74010.25
742.6656, 74022.05
743.1478, 74063.09
743.6299, 74194.63
744.1120, 74347.16
744.5941, 74402.59
745.0762, 74384.67
745.5583, 74369.02
746.0405, 74389.82
746.5226, 74426.00
747.0047, 74479.99
747.4868, 74544.48
747.9689, 74577.14
748.4510, 74525.34
748.9332, 74504.05
749.4153, 74568.34
749.8974, 74705.55
750.3795, 74761.53
750.8616, 74727.94
751.3438, 74677.61
751.8259, 74646.80
752.3080, 74634.97
752.7901, 74660.99
753.2722, 74720.75
753.7543, 74737.95
754.2365, 74614.06
754.7186, 74459.37
755.2007, 74360.64
755.6828, 74332.07
756.1649, 74330.25
756.6470, 74389.76
757.1292, 74436.89
757.6113, 74421.39
758.0934, 74324.50
758.5755, 74238.88
759.0576, 74152.34
759.5397, 74115.81
760.0219, 74252.98
760.5040, 74486.94
760.9861, 74549.08
761.4682, 74373.58
761.9503, 74156.98
762.4324, 74047.83
762.9146, 73987.37
763.3967, 73903.43
763.8788, 73738.77
764.3609, 73615.70
764.8430, 73597.21
765.3251, 73606.64
765.8073, 73548.74
766.2894, 73396.49
766.7715, 73284.67
767.2536, 73236.02
767.7357, 73228.81
768.2178, 73242.81
768.7000, 73270.33
769.1821, 73281.30
769.6642, 73275.34
770.1463, 73234.57
770.6284, 73095.74
771.1105, 72917.30
771.5927, 72812.13
772.0748, 72877.04
772.5569, 72948.68
773.0390, 73008.34
773.5211, 73044.45
774.0032, 73007.66
774.4854, 72862.28
774.9675, 72785.70
775.4496, 72865.12
775.9317, 73017.30
776.4138, 73013.40
776.8959, 72880.84
777.3781, 72768.18
777.8602, 72777.21
778.3423, 72819.96
778.8244, 72827.44
779.3065, 72805.08
779.7886, 72780.40
780.2708, 72729.98
780.7529, 72714.22
781.2350, 72769.85
781.7171, 72884.78
782.1992, 72944.82
782.6813, 72943.77
783.1635, 72909.89
783.6456, 72836.45
784.1277, 72744.39
784.6098, 72695.15
785.0919, 72688.87
785.5740, 72721.96
786.0562, 72835.20
786.5383, 72955.84
787.0204, 73027.09
787.5025, 73045.55
787.9846, 73027.23
788.4667, 72930.27
788.9489, 72841.31
789.4310, 72796.45
789.9131, 72797.94
790.3952, 72817.62
790.8773, 72864.70
791.3594, 72886.34
791.8416, 72795.10
792.3237, 72653.98
792.8058, 72662.59
793.2879, 72827.71
793.7700, 72966.19
794.2521, 72896.11
794.7343, 72782.63
795.2164, 72778.39
795.6985, 72941.14
796.1806, 73025.77
796.6627, 72943.59
797.1448, 72848.60
797.6270, 72846.66
798.1091, 72953.40
798.5912, 73027.45
799.0733, 73066.70
799.5554, 73082.50
800.0375, 73075.97
800.5197, 73056.53
801.0018, 73039.19
801.4839, 73024.91
801.9660, 73023.25
802.4481, 73061.14
802.9302, 73101.08
803.4124, 73105.12
803.8945, 73022.41
804.3766, 73017.79
804.8587, 73153.66
805.3408, 73285.25
805.8229, 73242.09
806.3051, 73026.01
806.7872, 72949.05
807.2693, 73054.26
807.7514, 73197.43
808.2335, 73246.33
808.7156, 73230.72
809.1978, 73186.98
809.6799, 73108.26
810.1620, 73050.74
810.6441, 73042.89
811.1262, 73064.91
811.6083, 73099.23
812.0905, 73157.08
812.5726, 73196.51
813.0547, 73208.07
813.5368, 73217.00
814.0189, 73263.62
814.5010, 73338.09
814.9832, 73379.98
815.4653, 73375.76
815.9474, 73355.84
816.4295, 73331.66
816.9116, 73315.36
817.3937, 73328.66
817.8759, 73421.64
818.3580, 73454.89
818.8401, 73313.57
819.3222, 73157.17
819.8043, 73151.47
820.2864, 73342.18
820.7686, 73472.67
821.2507, 73514.86
821.7328, 73506.55
822.2149, 73473.61
822.6970, 73429.66
823.1791, 73414.66
823.6613, 73449.79
824.1434, 73474.53
824.6255, 73444.66
825.1076, 73384.20
825.5897, 73320.20
826.0718, 73200.69
826.5540, 73165.60
827.0361, 73247.97
827.5182, 73376.02
828.0003, 73475.45
828.4824, 73545.49
828.9645, 73575.48
829.4467, 73555.80
829.9288, 73528.20
830.4109, 73550.37
830.8930, 73592.94
831.3751, 73606.82
831.8572, 73559.09
832.3394, 73528.18
832.8215, 73551.35
833.3036, 73600.13
833.7857, 73642.54
834.2678, 73676.87
834.7499, 73708.06
835.2321, 73735.61
835.7142, 73761.39
836.1963, 73799.73
836.6784, 73839.96
837.1605, 73835.41
837.6426, 73769.30
838.1248, 73694.39
838.6069, 73649.49
839.0890, 73619.20
839.5711, 73584.78
840.0532, 73513.38
840.5353, 73495.60
841.0175, 73566.67
841.4996, 73660.02
841.9817, 73702.38
842.4638, 73691.24
842.9459, 73700.72
843.4280, 73739.84
843.9102, 73789.41
844.3923, 73830.78
844.8744, 73867.84
845.3565, 73907.46
845.8386, 73953.64
846.3207, 73993.48
846.8029, 74045.41
847.2850, 74072.47
847.7671, 74035.99
848.2492, 73888.52
848.7313, 73815.50
849.2134, 73841.05
849.6956, 73880.83
850.1777, 73821.34
850.6598, 73703.80
851.1419, 73689.23
851.6240, 73806.02
852.1061, 73929.20
852.5883, 73971.58
853.0704, 73971.98
853.5525, 73960.56
854.0346, 73929.49
854.5167, 73929.73
854.9988, 73990.65
855.4810, 74048.07
855.9631, 74052.50
856.4452, 74002.98
856.9273, 73953.84
857.4094, 73905.38
857.8915, 73873.24
858.3737, 73867.67
858.8558, 73888.84
859.3379, 73954.20
859.8200, 74070.38
860.3021, 74147.74
860.7842, 74130.23
861.2664, 74080.09
861.7485, 74024.00
862.2306, 73956.48
862.7127, 73940.21
863.1948, 73982.96
863.6769, 74042.16
864.1591, 74094.25
864.6412, 74139.03
865.1233, 74177.20
865.6054, 74209.18
866.0875, 74235.87
866.5696, 74248.68
867.0518, 74264.49
867.5339, 74301.79
868.0160, 74363.26
868.4981, 74393.94
868.9802, 74387.55
869.4623, 74363.10
869.9445, 74321.78
870.4266, 74270.13
870.9087, 74230.46
871.3908, 74204.36
871.8729, 74212.21
872.3550, 74299.98
872.8372, 74399.34
873.3193, 74450.27
873.8014, 74459.41
874.2835, 74470.38
874.7656, 74486.80
875.2477, 74514.78
875.7299, 74561.96
876.2120, 74620.55
876.6941, 74656.69
877.1762, 74670.28
877.6583, 74694.28
878.1404, 74759.32
878.6226, 74824.84
879.1047, 74832.77
879.5869, 74797.70
880.0690, 74757.46
880.5511, 74707.72
881.0332, 74676.38
881.5153, 74673.18
881.9974, 74692.91
882.4796, 74729.79
882.9617, 74786.96
883.4438, 74844.38
883.9259, 74897.84
884.4080, 74947.28
884.8901, 74992.92
885.3723, 75034.15
885.8544, 75070.23
886.3365, 75105.76
886.8186, 75127.48
887.3007, 75111.75
887.7828, 75085.90
888.2650, 75089.46
888.7471, 75136.18
889.2292, 75175.84
889.7113, 75202.87
890.1934, 75225.42
890.6755, 75256.34
891.1577, 75291.89
891.6398, 75317.86
892.1219, 75327.79
892.6040, 75346.94
893.0861, 75389.31
893.5682, 75450.94
894.0504, 75533.75
894.5325, 75663.43
895.0146, 75742.00
895.4967, 75746.34
895.9788, 75742.12
896.4609, 75788.21
896.9431, 75876.11
897.4252, 75955.49
897.9073, 76023.73
898.3894, 76080.66
898.8715, 76108.79
899.3536, 76139.38
899.8358, 76202.30
900.3179, 76302.13
900.8000, 76407.14
901.2821, 76537.09
901.7642, 76635.39
902.2463, 76660.66
902.7285, 76627.66
903.2106, 76658.62
903.6927, 76751.45
904.1748, 76850.95
904.6569, 76938.32
905.1390, 77005.72
905.6212, 77033.25
906.1033, 77030.62
906.5854, 77041.30
907.0675, 77078.98
907.5496, 77132.58
908.0317, 77218.39
908.5139, 77310.56
908.9960, 77301.09
909.4781, 77189.41
909.9602, 77158.42
910.4423, 77320.16
910.9244, 77515.10
911.4066, 77543.10
911.8887, 77465.32
912.3708, 77394.34
912.8529, 77337.16
913.3350, 77333.63
913.8171, 77439.78
914.2993, 77565.83
914.7814, 77576.98
915.2635, 77461.73
915.7456, 77389.52
916.2277, 77390.73
916.7098, 77411.05
917.1920, 77381.08
917.6741, 77332.10
918.1562, 77318.12
918.6383, 77368.77
919.1204, 77386.55
919.6025, 77315.49
920.0847, 77222.37
920.5668, 77144.70
921.0489, 77079.21
921.5310, 77066.98
922.0131, 77116.54
922.4952, 77148.77
922.9774, 77070.53
923.4595, 76948.36
923.9416, 76882.58
924.4237, 76876.63
924.9058, 76878.65
925.3879, 76891.64
925.8701, 76881.95
926.3522, 76821.14
926.8343, 76720.80
927.3164, 76683.94
927.7985, 76717.31
928.2806, 76749.84
928.7628, 76745.17
929.2449, 76724.23
929.7270, 76723.12
930.2091, 76732.98
930.6912, 76729.79
931.1733, 76676.08
931.6555, 76640.52
932.1376, 76662.14
932.6197, 76706.77
933.1018, 76718.16
933.5839, 76693.31
934.0660, 76649.67
934.5482, 76577.24
935.0303, 76527.06
935.5124, 76590.49
935.9945, 76715.20
936.4766, 76805.49
936.9587, 76823.55
937.4409, 76853.02
937.9230, 76950.39
938.4051, 77047.14
938.8872, 77089.70
939.3693, 77070.09
939.8514, 77035.54
940.3336, 76981.82
940.8157, 76948.52
941.2978, 76983.89
941.7799, 77052.86
942.2620, 77110.48
942.7441, 77152.98
943.2263, 77180.00
943.7084, 77167.99
944.1905, 77164.33
944.6726, 77190.01
945.1547, 77240.33
945.6368, 77284.46
946.1190, 77322.00
946.6011, 77366.98
947.0832, 77430.91
947.5653, 77500.02
948.0474, 77566.13
948.5295, 77623.03
949.0117, 77656.30
949.4938, 77626.00
949.9759, 77616.95
950.4580, 77654.04
950.9401, 77712.88
951.4222, 77760.05
951.9044, 77795.84
952.3865, 77811.55
952.8686, 77799.35
953.3507, 77798.01
953.8328, 77879.90
954.3149, 77982.47
954.7971, 78014.85
955.2792, 77928.09
955.7613, 77895.32
956.2434, 78006.32
956.7255, 78100.61
957.2076, 78070.22
957.6898, 77918.95
958.1719, 77782.16
958.6540, 77659.34
959.1361, 77587.73
959.6182, 77663.73
960.1003, 77745.92
960.5825, 77661.59
961.0646, 77446.30
961.5467, 77337.52
962.0288, 77468.73
962.5109, 77572.13
962.9930, 77580.81
963.4752, 77526.29
963.9573, 77473.39
964.4394, 77424.24
964.9215, 77393.00
965.4036, 77399.22
965.8857, 77394.30
966.3679, 77297.27
966.8500, 77183.23
967.3321, 77154.59
967.8142, 77315.29
968.2963, 77391.49
968.7784, 77354.91
969.2606, 77287.41
969.7427, 77266.09
970.2248, 77283.02
970.7069, 77327.70
971.1890, 77398.22
971.6711, 77424.01
972.1533, 77309.42
972.6354, 77175.07
973.1175, 77095.30
973.5996, 77073.94
974.0817, 77099.30
974.5638, 77188.66
975.0460, 77262.78
975.5281, 77283.05
976.0102, 77273.36
976.4923, 77286.10
976.9744, 77312.42
977.4565, 77326.37
977.9387, 77290.17
978.4208, 77130.14
978.9029, 77268.55
979.3850, 77352.74
979.8671, 77385.63
980.3492, 77213.55
980.8314, 77306.15
981.3135, 77292.68
981.7956, 77274.85
982.2777, 77404.70
982.7598, 77262.44
983.2419, 77389.94
983.7241, 77409.76
984.2062, 77478.86
984.6883, 77441.23
985.1704, 77436.58
985.6525, 77538.68
986.1346, 77581.66
986.6168, 77531.77
987.0989, 77604.00
987.5810, 77458.01
988.0631, 77503.52
988.5452, 77631.64
989.0273, 77587.10
989.5095, 77661.30
989.9916, 77690.27
990.4737, 77513.74
990.9558, 77694.59
991.4379, 77720.89
991.9200, 77588.49
992.4022, 77757.10
992.8843, 77646.59
993.3664, 77635.70
993.8485, 77699.79
994.3306, 77685.72
994.8127, 77794.88
995.2949, 77785.33
995.7770, 77765.16
996.2591, 77809.23
996.7412, 77796.12
997.2233, 77741.05
997.7054, 77709.27
998.1876, 77769.55
998.6697, 77869.20
999.1518, 77878.29
999.6339, 77818.80
1000.116, 77779.16
1000.598, 77808.52
1001.080, 77853.49
1001.562, 77902.25
1002.044, 77951.88
1002.527, 78001.16
1003.009, 78050.56
1003.491, 78091.33
1003.973, 78125.96
1004.455, 78131.38
1004.937, 78028.54
1005.419, 77906.86
1005.901, 77889.67
1006.384, 78025.52
1006.866, 78153.25
1007.348, 78271.55
1007.830, 78349.63
1008.312, 78356.63
1008.794, 78306.58
1009.276, 78277.82
1009.758, 78269.66
1010.240, 78274.81
1010.723, 78286.80
1011.205, 78312.89
1011.687, 78370.50
1012.169, 78444.66
1012.651, 78497.11
1013.133, 78528.89
1013.615, 78530.63
1014.097, 78492.37
1014.580, 78446.48
1015.062, 78441.89
1015.544, 78461.41
1016.026, 78472.55
1016.508, 78468.26
1016.990, 78461.76
1017.472, 78468.41
1017.954, 78463.59
1018.436, 78422.51
1018.919, 78349.29
1019.401, 78329.23
1019.883, 78362.38
1020.365, 78429.73
1020.847, 78568.64
1021.329, 78696.39
1021.811, 78715.93
1022.293, 78660.27
1022.776, 78610.57
1023.258, 78575.66
1023.740, 78559.89
1024.222, 78567.59
1024.704, 78588.27
1025.186, 78628.77
1025.668, 78670.66
1026.150, 78627.23
1026.632, 78477.63
1027.115, 78365.99
1027.597, 78409.95
1028.079, 78496.62
1028.561, 78549.52
1029.043, 78569.08
1029.525, 78617.28
1030.007, 78700.63
1030.489, 78753.25
1030.972, 78741.47
1031.454, 78685.65
1031.936, 78584.88
1032.418, 78465.40
1032.900, 78384.83
1033.382, 78356.93
1033.864, 78381.20
1034.346, 78479.05
1034.828, 78595.13
1035.311, 78668.13
1035.793, 78702.79
1036.275, 78723.19
1036.757, 78731.41
1037.239, 78735.65
1037.721, 78751.91
1038.203, 78757.55
1038.685, 78711.39
1039.167, 78626.71
1039.650, 78639.95
1040.132, 78777.31
1040.614, 78901.08
1041.096, 78970.54
1041.578, 78989.40
1042.060, 78921.98
1042.542, 78816.07
1043.024, 78762.04
1043.507, 78808.66
1043.989, 78866.96
1044.471, 78920.33
1044.953, 78980.37
1045.435, 79084.42
1045.917, 79220.89
1046.399, 79186.66
1046.881, 78989.59
1047.364, 78862.57
1047.846, 79062.50
1048.328, 79294.52
1048.810, 79342.48
1049.292, 79242.95
1049.774, 79202.39
1050.256, 79247.48
1050.738, 79258.71
1051.220, 79203.20
1051.703, 79129.70
1052.185, 79110.87
1052.667, 79123.19
1053.149, 79123.53
1053.631, 79095.84
1054.113, 79092.81
1054.595, 79128.84
1055.077, 79193.56
1055.559, 79289.73
1056.042, 79411.63
1056.524, 79564.64
1057.006, 79732.14
1057.488, 79778.11
1057.970, 79456.16
1058.452, 79167.34
1058.934, 79213.73
1059.416, 79451.49
1059.899, 79606.47
1060.381, 79667.80
1060.863, 79647.17
1061.345, 79525.25
1061.827, 79407.38
1062.309, 79425.95
1062.791, 79505.74
1063.273, 79522.70
1063.755, 79468.75
1064.238, 79458.41
1064.720, 79590.09
1065.202, 79679.45
1065.684, 79652.55
1066.166, 79560.86
1066.648, 79560.63
1067.130, 79630.21
1067.612, 79664.88
1068.094, 79612.88
1068.577, 79563.09
1069.059, 79553.80
1069.541, 79584.12
1070.023, 79664.70
1070.505, 79818.68
1070.987, 79872.80
1071.469, 79819.02
1071.951, 79751.37
1072.434, 79714.16
1072.916, 79713.60
1073.398, 79787.27
1073.880, 79907.13
1074.362, 79975.09
1074.844, 79924.80
1075.326, 79900.27
1075.808, 79923.25
1076.291, 79970.51
1076.773, 80001.53
1077.255, 80030.99
1077.737, 80121.88
1078.219, 80287.64
1078.701, 80397.44
1079.183, 80335.10
1079.665, 80245.64
1080.147, 80199.30
1080.630, 80190.49
1081.112, 80185.01
1081.594, 80183.05
1082.076, 80193.41
1082.558, 80226.73
1083.040, 80259.29
1083.522, 80245.68
1084.004, 80229.19
1084.486, 80278.84
1084.969, 80461.53
1085.451, 80530.58
1085.933, 80463.10
1086.415, 80366.34
1086.897, 80304.48
1087.379, 80276.89
1087.861, 80289.65
1088.343, 80337.39
1088.826, 80398.19
1089.308, 80475.59
1089.790, 80551.02
1090.272, 80627.20
1090.754, 80692.56
1091.236, 80729.20
1091.718, 80739.05
1092.200, 80712.85
1092.682, 80643.32
1093.165, 80626.32
1093.647, 80785.73
1094.129, 80959.28
1094.611, 81047.70
1095.093, 81059.25
1095.575, 81041.16
1096.057, 80991.42
1096.539, 80962.23
1097.022, 80974.71
1097.504, 81012.82
1097.986, 81086.49
1098.468, 81164.55
1098.950, 81200.09
1099.432, 81165.56
1099.914, 81137.72
1100.396, 81106.16
1100.879, 81116.05
1101.361, 81248.33
1101.843, 81422.49
1102.325, 81470.13
1102.807, 81418.55
1103.289, 81374.71
1103.771, 81319.54
1104.253, 81374.07
1104.735, 81639.77
1105.218, 81914.04
1105.700, 81841.32
1106.182, 81512.82
1106.664, 81389.30
1107.146, 81522.88
1107.628, 81670.51
1108.110, 81680.77
1108.592, 81665.92
1109.074, 81697.55
1109.557, 81756.65
1110.039, 81745.48
1110.521, 81662.58
1111.003, 81627.42
1111.485, 81687.77
1111.967, 81767.65
1112.449, 81815.94
1112.931, 81831.63
1113.414, 81794.90
1113.896, 81676.19
1114.378, 81680.01
1114.860, 81836.95
1115.342, 81984.06
1115.824, 82043.46
1116.306, 82025.74
1116.788, 81893.04
1117.271, 81703.38
1117.753, 81584.53
1118.235, 81624.59
1118.717, 81676.98
1119.199, 81749.44
1119.681, 81798.67
1120.163, 81757.69
1120.645, 81662.56
1121.127, 81622.91
1121.609, 81638.83
1122.092, 81661.09
1122.574, 81661.41
1123.056, 81669.41
1123.538, 81698.91
1124.020, 81738.09
1124.502, 81773.37
1124.984, 81800.91
1125.466, 81778.77
1125.949, 81693.95
1126.431, 81610.98
1126.913, 81567.74
1127.395, 81549.96
1127.877, 81561.32
1128.359, 81593.60
1128.841, 81575.28
1129.323, 81502.20
1129.806, 81451.72
1130.288, 81452.88
1130.770, 81485.67
1131.252, 81573.15
1131.734, 81659.71
1132.216, 81661.80
1132.698, 81537.63
1133.180, 81454.67
1133.662, 81419.56
1134.145, 81400.13
1134.627, 81373.66
1135.109, 81351.36
1135.591, 81354.21
1136.073, 81375.59
1136.555, 81398.56
1137.037, 81440.70
1137.519, 81443.39
1138.001, 81384.13
1138.484, 81325.58
1138.966, 81347.86
1139.448, 81417.65
1139.930, 81452.66
1140.412, 81451.95
1140.894, 81449.69
1141.376, 81456.30
1141.858, 81469.11
1142.341, 81491.63
1142.823, 81515.09
1143.305, 81518.70
1143.787, 81508.39
1144.269, 81511.63
1144.751, 81533.62
1145.233, 81561.95
1145.715, 81616.02
1146.198, 81645.68
1146.680, 81611.69
1147.162, 81533.94
1147.644, 81497.82
1148.126, 81504.14
1148.608, 81575.95
1149.090, 81762.48
1149.572, 81905.30
1150.054, 81858.03
1150.536, 81727.81
1151.019, 81602.74
1151.501, 81482.06
1151.983, 81444.13
1152.465, 81492.37
1152.947, 81531.06
1153.429, 81480.15
1153.911, 81428.54
1154.393, 81479.16
1154.876, 81582.44
1155.358, 81649.86
1155.840, 81657.12
1156.322, 81688.80
1156.804, 81753.09
1157.286, 81805.23
1157.768, 81800.22
1158.250, 81768.65
1158.733, 81726.66
1159.215, 81689.47
1159.697, 81714.17
1160.179, 81863.91
1160.661, 81943.03
1161.143, 81906.72
1161.625, 81859.09
1162.107, 81957.45
1162.589, 82109.91
1163.072, 82150.34
1163.554, 82072.84
1164.036, 82003.84
1164.518, 81973.91
1165.000, 81953.81
1165.482, 81928.96
1165.964, 81923.53
1166.446, 82021.38
1166.928, 82163.38
1167.411, 82195.30
1167.893, 82065.89
1168.375, 81999.27
1168.857, 82154.75
1169.339, 82275.29
1169.821, 82245.06
1170.303, 82124.52
1170.785, 82083.86
1171.268, 82104.70
1171.750, 82120.27
1172.232, 82088.22
1172.714, 82104.97
1173.196, 82270.64
1173.678, 82438.00
1174.160, 82512.63
1174.642, 82509.77
1175.125, 82538.09
1175.607, 82582.95
1176.089, 82560.88
1176.571, 82347.62
1177.053, 82171.16
1177.535, 82141.12
1178.017, 82190.38
1178.499, 82277.47
1178.981, 82402.08
1179.464, 82475.06
1179.946, 82498.15
1180.428, 82508.70
1180.910, 82534.65
1181.392, 82549.70
1181.874, 82523.93
1182.356, 82486.37
1182.838, 82484.38
1183.320, 82519.44
1183.803, 82543.72
1184.285, 82553.21
1184.767, 82562.86
1185.249, 82577.48
1185.731, 82602.38
1186.213, 82654.68
1186.695, 82718.09
1187.177, 82744.13
1187.660, 82729.90
1188.142, 82719.88
1188.624, 82719.59
1189.106, 82738.51
1189.588, 82810.96
1190.070, 82884.68
1190.552, 82909.45
1191.034, 82891.89
1191.516, 82892.97
1191.999, 82914.40
1192.481, 82939.48
1192.963, 82964.78
1193.445, 82990.29
1193.927, 83020.31
1194.409, 83047.61
1194.891, 83055.42
1195.373, 83042.42
1195.855, 83090.37
1196.338, 83212.89
1196.820, 83276.58
1197.302, 83211.25
1197.784, 83103.20
1198.266, 83006.79
1198.748, 82944.73
1199.230, 82966.88
1199.712, 83102.92
1200.195, 83138.52
1200.677, 83061.00
1201.159, 82969.28
1201.641, 82893.24
1202.123, 82858.92
1202.605, 82918.77
1203.087, 83033.34
1203.569, 83146.84
1204.052, 83286.20
1204.534, 83310.13
1205.016, 83200.68
1205.498, 83084.42
1205.980, 83052.07
1206.462, 83056.39
1206.944, 83029.44
1207.426, 82998.51
1207.908, 83033.85
1208.391, 83163.76
1208.873, 83293.48
1209.355, 83424.89
1209.837, 83531.35
1210.319, 83594.33
1210.801, 83616.59
1211.283, 83562.85
1211.765, 83467.78
1212.247, 83464.10
1212.730, 83616.23
1213.212, 83664.19
1213.694, 83561.25
1214.176, 83447.61
1214.658, 83467.83
1215.140, 83544.79
1215.622, 83595.66
1216.104, 83620.66
1216.587, 83656.71
1217.069, 83726.44
1217.551, 83726.02
1218.033, 83620.84
1218.515, 83519.43
1218.997, 83577.48
1219.479, 83682.46
1219.961, 83684.46
1220.443, 83585.63
1220.926, 83591.08
1221.408, 83743.67
1221.890, 83855.83
1222.372, 83883.05
1222.854, 83859.17
1223.336, 83788.68
1223.818, 83712.66
1224.300, 83680.05
1224.782, 83699.23
1225.265, 83725.38
1225.747, 83758.92
1226.229, 83797.59
1226.711, 83845.18
1227.193, 83885.14
1227.675, 83884.33
1228.157, 83872.13
1228.639, 83889.57
1229.122, 83945.52
1229.604, 83961.05
1230.086, 83925.03
1230.568, 83927.23
1231.050, 84021.16
1231.532, 84127.98
1232.014, 84155.79
1232.496, 84143.85
1232.979, 84140.15
1233.461, 84150.24
1233.943, 84158.52
1234.425, 84165.52
1234.907, 84163.02
1235.389, 84135.94
1235.871, 84115.89
1236.353, 84139.12
1236.835, 84185.41
1237.318, 84234.25
1237.800, 84290.33
1238.282, 84295.40
1238.764, 84246.59
1239.246, 84204.09
1239.728, 84192.20
1240.210, 84212.30
1240.692, 84300.30
1241.175, 84402.76
1241.657, 84444.78
1242.139, 84416.72
1242.621, 84384.95
1243.103, 84349.03
1243.585, 84317.91
1244.067, 84267.41
1244.549, 84254.52
1245.031, 84349.12
1245.514, 84489.17
1245.996, 84594.24
1246.478, 84666.70
1246.960, 84662.98
1247.442, 84587.34
1247.924, 84538.63
1248.406, 84612.61
1248.888, 84696.27
1249.370, 84723.32
1249.853, 84724.98
1250.335, 84746.63
1250.817, 84786.63
1251.299, 84782.31
1251.781, 84736.40
1252.263, 84727.41
1252.745, 84864.13
1253.227, 84976.84
1253.710, 84971.16
1254.192, 84915.91
1254.674, 84892.51
1255.156, 84896.06
1255.638, 84632.44
1256.120, 84802.26
1256.602, 84917.87
1257.084, 84982.16
1257.567, 84841.59
1258.049, 84965.58
1258.531, 84983.52
1259.013, 84997.09
1259.495, 85242.18
1259.977, 85266.49
1260.459, 85251.23
1260.941, 85230.17
1261.423, 85223.27
1261.906, 85198.86
1262.388, 85123.21
1262.870, 85071.25
1263.352, 85207.01
1263.834, 85433.02
1264.316, 85499.57
1264.798, 85398.81
1265.280, 85338.23
1265.762, 85420.71
1266.245, 85481.40
1266.727, 85487.45
1267.209, 85470.80
1267.691, 85465.63
1268.173, 85472.40
1268.655, 85493.59
1269.137, 85528.93
1269.619, 85570.33
1270.102, 85618.95
1270.584, 85666.66
1271.066, 85711.34
1271.548, 85754.95
1272.030, 85818.97
1272.512, 85869.30
1272.994, 85844.81
1273.476, 85749.80
1273.958, 85713.07
1274.441, 85745.59
1274.923, 85804.52
1275.405, 85888.26
1275.887, 85959.17
1276.369, 85976.67
1276.851, 85963.54
1277.333, 85919.10
1277.815, 85858.76
1278.297, 85873.51
1278.780, 85967.67
1279.262, 86040.15
1279.744, 86064.94
1280.226, 86078.98
1280.708, 86114.98
1281.190, 86148.89
1281.672, 86161.98
1282.154, 86159.22
1282.637, 86149.39
1283.119, 86135.65
1283.601, 86155.50
1284.083, 86223.44
1284.565, 86277.08
1285.047, 86275.00
1285.529, 86250.63
1286.011, 86217.43
1286.494, 86179.04
1286.976, 86134.10
1287.458, 86094.00
1287.940, 86110.10
1288.422, 86202.40
1288.904, 86269.07
1289.386, 86245.86
1289.868, 86225.67
1290.350, 86238.96
1290.833, 86271.38
1291.315, 86294.93
1291.797, 86316.00
1292.279, 86352.97
1292.761, 86413.92
1293.243, 86442.63
1293.725, 86418.57
1294.207, 86406.26
1294.689, 86432.66
1295.172, 86466.66
1295.654, 86463.99
1296.136, 86440.34
1296.618, 86412.59
1297.100, 86382.27
1297.582, 86366.58
1298.064, 86368.60
1298.546, 86357.81
1299.029, 86311.53
1299.511, 86292.02
1299.993, 86416.59
##END=



