##NAMES=Muscovite
##RRUFFID=R060266
##IDEAL CHEMISTRY=KAl_2_(Si_3_Al)O_10_(OH)_2_
##LOCALITY=Bolet, Vasterbotten, Sweden
##OWNER=RRUFF
##SOURCE=Michael Scott
##DESCRIPTION=Pink earthy massive
##STATUS=The identification of this mineral has been made only by X-ray diffraction.
##URL=rruff.info/R060266
##MEASURED CHEMISTRY=(K_0.26_Ca_0.16_Mn_0.05_Na_0.01_)_Σ=0.48_(Al_3.14_Mg_1.75_Fe^3+^_0.11_)_Σ=5_(Si_6.06_Al_1.94_)_Σ=8_O_20_(OH)_4_·3.5H_2_O; H_2_O estimated by difference; (OH) by charge balance 
95.87225, 1463.943
96.35437, 1461.362
96.83649, 1452.216
97.31860, 1440.027
97.80072, 1427.900
98.28284, 1415.648
98.76495, 1402.103
99.24707, 1388.690
99.72919, 1376.345
100.2113, 1363.605
100.6934, 1348.457
101.1755, 1332.202
101.6577, 1317.623
102.1398, 1306.915
102.6219, 1300.212
103.1040, 1296.485
103.5861, 1298.122
104.0682, 1299.722
104.5504, 1298.015
105.0325, 1292.614
105.5146, 1285.611
105.9967, 1279.832
106.4788, 1276.209
106.9609, 1270.907
107.4431, 1262.110
107.9252, 1251.829
108.4073, 1242.439
108.8894, 1234.328
109.3715, 1228.249
109.8536, 1226.189
110.3358, 1229.006
110.8179, 1231.117
111.3000, 1228.839
111.7821, 1222.621
112.2642, 1216.813
112.7463, 1212.732
113.2285, 1210.150
113.7106, 1209.265
114.1927, 1210.661
114.6748, 1212.258
115.1569, 1210.716
115.6390, 1204.356
116.1212, 1199.101
116.6033, 1197.263
117.0854, 1196.977
117.5675, 1196.355
118.0496, 1194.347
118.5317, 1191.451
119.0139, 1190.097
119.4960, 1191.455
119.9781, 1193.307
120.4602, 1196.014
120.9423, 1198.907
121.4244, 1200.989
121.9066, 1201.495
122.3887, 1200.363
122.8708, 1198.260
123.3529, 1193.228
123.8350, 1189.123
124.3171, 1188.638
124.7993, 1191.446
125.2814, 1194.458
125.7635, 1194.423
126.2456, 1190.447
126.7277, 1187.555
127.2098, 1185.617
127.6920, 1184.875
128.1741, 1186.205
128.6562, 1190.161
129.1383, 1194.298
129.6204, 1195.337
130.1025, 1193.686
130.5847, 1191.254
131.0668, 1188.349
131.5489, 1185.167
132.0310, 1182.346
132.5131, 1179.803
132.9952, 1177.985
133.4774, 1177.505
133.9595, 1178.346
134.4416, 1179.068
134.9237, 1178.122
135.4058, 1175.192
135.8879, 1172.829
136.3701, 1172.320
136.8522, 1172.047
137.3343, 1170.776
137.8164, 1168.254
138.2985, 1165.679
138.7806, 1165.445
139.2628, 1170.234
139.7449, 1172.358
140.2270, 1169.118
140.7091, 1164.274
141.1912, 1161.339
141.6733, 1161.905
142.1555, 1164.813
142.6376, 1166.099
143.1197, 1163.995
143.6018, 1162.096
144.0839, 1160.267
144.5660, 1158.923
145.0482, 1158.875
145.5303, 1160.789
146.0124, 1164.243
146.4945, 1166.097
146.9766, 1165.673
147.4587, 1164.716
147.9409, 1163.551
148.4230, 1162.329
148.9051, 1161.652
149.3872, 1162.230
149.8693, 1163.764
150.3514, 1164.390
150.8336, 1163.662
151.3157, 1162.277
151.7978, 1160.624
152.2799, 1158.623
152.7620, 1156.946
153.2441, 1156.450
153.7263, 1156.624
154.2084, 1156.637
154.6905, 1155.998
155.1726, 1155.049
155.6547, 1154.413
156.1368, 1153.805
156.6190, 1154.156
157.1011, 1157.311
157.5832, 1161.678
158.0653, 1164.044
158.5474, 1161.087
159.0295, 1153.403
159.5117, 1149.088
159.9938, 1151.599
160.4759, 1154.322
160.9580, 1154.572
161.4401, 1152.938
161.9222, 1151.401
162.4044, 1151.932
162.8865, 1155.074
163.3686, 1157.093
163.8507, 1158.628
164.3328, 1158.646
164.8149, 1155.533
165.2971, 1149.865
165.7792, 1144.192
166.2613, 1141.523
166.7434, 1143.084
167.2255, 1144.486
167.7076, 1146.638
168.1898, 1148.090
168.6719, 1147.488
169.1540, 1144.667
169.6361, 1140.910
170.1182, 1137.969
170.6003, 1136.199
171.0825, 1134.475
171.5646, 1131.800
172.0467, 1129.526
172.5288, 1129.555
173.0109, 1132.603
173.4930, 1136.968
173.9752, 1140.218
174.4573, 1142.618
174.9394, 1143.591
175.4215, 1141.930
175.9036, 1138.725
176.3857, 1136.446
176.8679, 1135.924
177.3500, 1136.381
177.8321, 1136.943
178.3142, 1137.694
178.7963, 1137.898
179.2784, 1136.728
179.7606, 1134.378
180.2427, 1132.491
180.7248, 1131.573
181.2069, 1131.284
181.6890, 1131.394
182.1711, 1131.904
182.6533, 1132.490
183.1354, 1132.746
183.6175, 1132.589
184.0996, 1132.782
184.5817, 1133.707
185.0638, 1134.938
185.5460, 1136.869
186.0281, 1139.494
186.5102, 1141.243
186.9923, 1139.047
187.4744, 1130.107
187.9565, 1124.810
188.4387, 1126.835
188.9208, 1130.980
189.4029, 1133.686
189.8850, 1133.853
190.3671, 1132.669
190.8492, 1132.320
191.3314, 1132.892
191.8135, 1134.349
192.2956, 1137.558
192.7777, 1141.093
193.2598, 1143.903
193.7419, 1145.540
194.2241, 1145.986
194.7062, 1145.188
195.1883, 1140.990
195.6704, 1138.001
196.1525, 1137.351
196.6346, 1137.637
197.1168, 1137.060
197.5989, 1134.801
198.0810, 1131.649
198.5631, 1129.944
199.0452, 1131.369
199.5273, 1131.925
200.0095, 1129.738
200.4916, 1126.439
200.9737, 1124.642
201.4558, 1125.521
201.9379, 1128.607
202.4200, 1132.996
202.9022, 1140.507
203.3843, 1146.058
203.8664, 1146.671
204.3485, 1143.771
204.8306, 1141.214
205.3127, 1140.587
205.7949, 1141.383
206.2770, 1142.494
206.7591, 1144.491
207.2412, 1145.633
207.7233, 1144.402
208.2054, 1141.156
208.6876, 1138.199
209.1697, 1136.801
209.6518, 1135.890
210.1339, 1133.638
210.6160, 1129.386
211.0981, 1125.528
211.5803, 1124.269
212.0624, 1125.614
212.5445, 1127.265
213.0266, 1128.936
213.5087, 1130.205
213.9908, 1130.729
214.4730, 1130.455
214.9551, 1129.419
215.4372, 1127.354
215.9193, 1124.026
216.4014, 1121.110
216.8836, 1119.274
217.3657, 1117.932
217.8478, 1116.732
218.3299, 1115.594
218.8120, 1114.647
219.2941, 1114.089
219.7763, 1113.970
220.2584, 1114.074
220.7405, 1114.738
221.2226, 1115.355
221.7047, 1115.584
222.1868, 1115.313
222.6690, 1114.505
223.1511, 1112.954
223.6332, 1110.101
224.1153, 1107.771
224.5974, 1106.032
225.0795, 1104.848
225.5617, 1104.331
226.0438, 1104.475
226.5259, 1105.008
227.0080, 1105.500
227.4901, 1106.087
227.9722, 1106.363
228.4544, 1106.464
228.9365, 1106.229
229.4186, 1105.255
229.9007, 1103.532
230.3828, 1101.729
230.8649, 1101.109
231.3471, 1103.224
231.8292, 1103.993
232.3113, 1102.358
232.7934, 1100.111
233.2755, 1098.662
233.7576, 1098.415
234.2398, 1098.869
234.7219, 1099.161
235.2040, 1098.508
235.6861, 1099.261
236.1682, 1103.553
236.6503, 1108.075
237.1325, 1109.523
237.6146, 1107.086
238.0967, 1102.754
238.5788, 1099.398
239.0609, 1097.485
239.5430, 1095.630
240.0252, 1093.605
240.5073, 1091.731
240.9894, 1090.336
241.4715, 1089.490
241.9536, 1089.090
242.4357, 1089.059
242.9179, 1089.480
243.4000, 1089.955
243.8821, 1089.804
244.3642, 1089.992
244.8463, 1092.154
245.3284, 1096.735
245.8106, 1101.337
246.2927, 1102.867
246.7748, 1101.226
247.2569, 1099.658
247.7390, 1099.065
248.2211, 1098.596
248.7033, 1096.641
249.1854, 1092.684
249.6675, 1089.427
250.1496, 1090.702
250.6317, 1095.722
251.1138, 1099.010
251.5960, 1097.785
252.0781, 1094.927
252.5602, 1094.479
253.0423, 1097.165
253.5244, 1100.156
254.0065, 1100.586
254.4887, 1099.308
254.9708, 1098.627
255.4529, 1099.485
255.9350, 1101.111
256.4171, 1102.341
256.8992, 1102.997
257.3813, 1103.920
257.8635, 1106.222
258.3456, 1109.173
258.8277, 1111.555
259.3098, 1112.859
259.7919, 1113.481
260.2740, 1113.692
260.7562, 1113.245
261.2383, 1113.414
261.7204, 1116.390
262.2025, 1120.058
262.6846, 1121.639
263.1667, 1119.785
263.6489, 1116.176
264.1310, 1112.875
264.6131, 1109.780
265.0952, 1107.440
265.5773, 1106.330
266.0594, 1106.046
266.5416, 1106.690
267.0237, 1108.788
267.5058, 1110.503
267.9879, 1108.744
268.4700, 1102.588
268.9521, 1097.290
269.4343, 1094.581
269.9164, 1093.522
270.3985, 1094.024
270.8806, 1096.198
271.3627, 1098.651
271.8448, 1099.818
272.3270, 1099.663
272.8091, 1098.392
273.2912, 1094.750
273.7733, 1090.767
274.2554, 1087.302
274.7375, 1084.545
275.2197, 1083.021
275.7018, 1083.742
276.1839, 1087.124
276.6660, 1089.991
277.1481, 1093.153
277.6302, 1094.658
278.1124, 1092.190
278.5945, 1086.190
279.0766, 1080.267
279.5587, 1078.232
280.0408, 1080.519
280.5229, 1082.751
281.0051, 1085.928
281.4872, 1087.953
281.9693, 1086.816
282.4514, 1083.398
282.9335, 1080.692
283.4156, 1082.094
283.8978, 1087.759
284.3799, 1090.039
284.8620, 1085.436
285.3441, 1080.723
285.8262, 1077.938
286.3083, 1076.857
286.7905, 1076.694
287.2726, 1077.156
287.7547, 1078.090
288.2368, 1077.996
288.7189, 1075.750
289.2010, 1073.754
289.6832, 1072.886
290.1653, 1072.644
290.6474, 1072.290
291.1295, 1071.445
291.6116, 1070.117
292.0938, 1068.132
292.5759, 1063.572
293.0580, 1061.323
293.5401, 1064.452
294.0222, 1069.365
294.5043, 1071.820
294.9865, 1069.870
295.4686, 1065.331
295.9507, 1062.529
296.4328, 1062.006
296.9149, 1062.464
297.3970, 1064.261
297.8792, 1066.505
298.3613, 1068.685
298.8434, 1070.584
299.3255, 1071.837
299.8076, 1071.616
300.2897, 1068.833
300.7719, 1067.041
301.2540, 1067.416
301.7361, 1067.937
302.2182, 1066.941
302.7003, 1064.371
303.1824, 1061.754
303.6646, 1061.122
304.1467, 1063.269
304.6288, 1064.528
305.1109, 1064.123
305.5930, 1063.569
306.0751, 1063.757
306.5573, 1064.517
307.0394, 1064.940
307.5215, 1063.977
308.0036, 1061.432
308.4857, 1060.360
308.9678, 1063.002
309.4500, 1064.958
309.9321, 1064.512
310.4142, 1062.400
310.8963, 1060.124
311.3784, 1058.530
311.8605, 1057.736
312.3427, 1058.735
312.8248, 1064.559
313.3069, 1068.652
313.7890, 1069.095
314.2711, 1067.383
314.7532, 1065.183
315.2354, 1063.257
315.7175, 1061.938
316.1996, 1062.497
316.6817, 1067.913
317.1638, 1070.344
317.6459, 1066.930
318.1281, 1061.608
318.6102, 1057.909
319.0923, 1056.936
319.5744, 1057.311
320.0565, 1056.515
320.5386, 1053.048
321.0208, 1051.997
321.5029, 1055.749
321.9850, 1059.934
322.4671, 1061.734
322.9492, 1060.915
323.4313, 1059.181
323.9135, 1058.403
324.3956, 1058.853
324.8777, 1058.862
325.3598, 1058.784
325.8419, 1057.924
326.3240, 1054.310
326.8062, 1049.435
327.2883, 1047.186
327.7704, 1051.280
328.2525, 1061.195
328.7346, 1067.648
329.2167, 1068.560
329.6989, 1068.029
330.1810, 1066.328
330.6631, 1064.033
331.1452, 1061.860
331.6273, 1060.202
332.1094, 1058.887
332.5916, 1057.296
333.0737, 1054.849
333.5558, 1053.183
334.0379, 1052.725
334.5200, 1052.959
335.0021, 1053.782
335.4843, 1055.106
335.9664, 1056.072
336.4485, 1054.721
336.9306, 1049.367
337.4127, 1046.785
337.8948, 1050.829
338.3770, 1055.252
338.8591, 1056.014
339.3412, 1053.010
339.8233, 1049.188
340.3055, 1047.547
340.7876, 1048.330
341.2697, 1048.891
341.7518, 1049.213
342.2339, 1049.294
342.7160, 1048.773
343.1982, 1047.992
343.6803, 1047.757
344.1624, 1048.813
344.6445, 1050.821
345.1266, 1052.052
345.6087, 1052.176
346.0909, 1052.009
346.5730, 1051.678
347.0551, 1051.321
347.5372, 1051.177
348.0193, 1051.396
348.5014, 1051.677
348.9836, 1051.244
349.4657, 1049.618
349.9478, 1048.902
350.4299, 1050.891
350.9120, 1053.236
351.3941, 1054.128
351.8763, 1053.243
352.3584, 1051.770
352.8405, 1050.446
353.3226, 1049.226
353.8047, 1049.813
354.2868, 1054.602
354.7690, 1058.991
355.2511, 1059.584
355.7332, 1057.063
356.2153, 1054.607
356.6974, 1055.048
357.1795, 1057.341
357.6617, 1056.838
358.1438, 1051.656
358.6259, 1047.550
359.1080, 1049.239
359.5901, 1053.816
360.0722, 1056.513
360.5544, 1054.660
361.0365, 1051.324
361.5186, 1051.324
362.0007, 1055.190
362.4828, 1058.163
362.9649, 1057.536
363.4471, 1055.414
363.9292, 1054.260
364.4113, 1054.513
364.8934, 1054.854
365.3755, 1053.710
365.8576, 1051.538
366.3398, 1051.167
366.8219, 1054.294
367.3040, 1057.841
367.7861, 1058.224
368.2682, 1055.769
368.7503, 1053.575
369.2325, 1052.493
369.7146, 1052.565
370.1967, 1054.579
370.6788, 1059.059
371.1609, 1062.611
371.6430, 1062.018
372.1252, 1058.282
372.6073, 1054.816
373.0894, 1051.111
373.5715, 1048.576
374.0536, 1048.865
374.5357, 1051.601
375.0179, 1054.717
375.5000, 1057.582
375.9821, 1059.819
376.4642, 1060.620
376.9463, 1059.771
377.4284, 1058.258
377.9106, 1055.822
378.3927, 1053.091
378.8748, 1050.984
379.3569, 1049.696
379.8390, 1049.507
380.3211, 1051.295
380.8033, 1055.692
381.2854, 1058.170
381.7675, 1057.219
382.2496, 1055.081
382.7317, 1053.322
383.2138, 1052.078
383.6960, 1050.792
384.1781, 1048.741
384.6602, 1046.152
385.1423, 1046.285
385.6244, 1051.541
386.1065, 1056.276
386.5887, 1058.624
387.0708, 1059.192
387.5529, 1058.812
388.0350, 1057.780
388.5171, 1056.709
388.9992, 1057.007
389.4814, 1060.768
389.9635, 1062.636
390.4456, 1061.460
390.9277, 1059.199
391.4098, 1057.237
391.8919, 1055.870
392.3741, 1054.688
392.8562, 1053.031
393.3383, 1050.479
393.8204, 1050.796
394.3025, 1058.565
394.7846, 1064.274
395.2668, 1062.823
395.7489, 1057.132
396.2310, 1053.091
396.7131, 1054.305
397.1952, 1058.937
397.6773, 1060.341
398.1595, 1055.053
398.6416, 1052.301
399.1237, 1055.097
399.6058, 1059.478
400.0879, 1062.108
400.5700, 1062.209
401.0522, 1061.213
401.5343, 1060.432
402.0164, 1059.620
402.4985, 1060.617
402.9806, 1066.766
403.4627, 1071.592
403.9449, 1071.122
404.4270, 1066.955
404.9091, 1063.486
405.3912, 1063.723
405.8733, 1066.475
406.3554, 1068.091
406.8376, 1068.385
407.3197, 1068.001
407.8018, 1066.650
408.2839, 1065.017
408.7660, 1063.664
409.2481, 1062.630
409.7303, 1062.320
410.2124, 1063.690
410.6945, 1066.579
411.1766, 1068.452
411.6587, 1068.625
412.1408, 1067.766
412.6230, 1066.040
413.1051, 1063.653
413.5872, 1062.231
414.0693, 1063.044
414.5514, 1065.022
415.0335, 1066.723
415.5157, 1068.117
415.9978, 1068.580
416.4799, 1066.823
416.9620, 1063.973
417.4441, 1063.594
417.9262, 1068.735
418.4084, 1072.473
418.8905, 1068.495
419.3726, 1059.981
419.8547, 1055.925
420.3368, 1060.169
420.8189, 1067.415
421.3011, 1068.617
421.7832, 1061.831
422.2653, 1057.678
422.7474, 1059.738
423.2295, 1063.237
423.7116, 1063.848
424.1938, 1061.477
424.6759, 1058.848
425.1580, 1058.059
425.6401, 1059.010
426.1222, 1059.850
426.6043, 1061.674
427.0865, 1062.141
427.5686, 1059.286
428.0507, 1055.144
428.5328, 1052.567
429.0149, 1052.631
429.4970, 1054.274
429.9792, 1055.647
430.4613, 1056.478
430.9434, 1057.654
431.4255, 1060.024
431.9076, 1061.953
432.3897, 1062.414
432.8719, 1061.562
433.3540, 1060.143
433.8361, 1058.600
434.3182, 1057.037
434.8003, 1056.331
435.2824, 1057.933
435.7646, 1058.101
436.2467, 1054.752
436.7288, 1050.247
437.2109, 1047.041
437.6930, 1045.900
438.1751, 1045.963
438.6573, 1046.566
439.1394, 1047.812
439.6215, 1048.047
440.1036, 1046.591
440.5857, 1044.514
441.0678, 1041.963
441.5500, 1039.284
442.0321, 1037.685
442.5142, 1038.522
442.9963, 1040.521
443.4784, 1041.250
443.9605, 1040.550
444.4427, 1039.843
444.9248, 1040.003
445.4069, 1040.496
445.8890, 1040.413
446.3711, 1039.631
446.8532, 1038.519
447.3354, 1037.045
447.8175, 1035.418
448.2996, 1033.980
448.7817, 1032.749
449.2638, 1032.128
449.7459, 1033.089
450.2281, 1035.758
450.7102, 1036.216
451.1923, 1032.204
451.6744, 1027.820
452.1565, 1025.223
452.6386, 1024.387
453.1208, 1025.031
453.6029, 1027.166
454.0850, 1030.148
454.5671, 1032.199
455.0492, 1033.718
455.5313, 1033.589
456.0135, 1030.481
456.4956, 1026.616
456.9777, 1023.325
457.4598, 1021.042
457.9419, 1020.032
458.4240, 1020.705
458.9062, 1023.093
459.3883, 1025.225
459.8704, 1027.732
460.3525, 1029.206
460.8346, 1029.560
461.3167, 1028.637
461.7989, 1025.540
462.2810, 1019.853
462.7631, 1014.171
463.2452, 1013.193
463.7273, 1017.985
464.2094, 1021.108
464.6916, 1020.775
465.1737, 1019.244
465.6558, 1017.289
466.1379, 1015.184
466.6200, 1013.593
467.1021, 1012.948
467.5843, 1013.018
468.0664, 1013.913
468.5485, 1015.986
469.0306, 1016.164
469.5127, 1011.224
469.9948, 1004.659
470.4770, 1002.194
470.9591, 1004.995
471.4412, 1008.224
471.9233, 1009.664
472.4054, 1009.862
472.8875, 1009.631
473.3697, 1009.090
473.8518, 1008.599
474.3339, 1008.678
474.8160, 1009.271
475.2981, 1008.751
475.7802, 1006.399
476.2624, 1003.722
476.7445, 1000.514
477.2266, 997.5794
477.7087, 996.8947
478.1908, 999.2775
478.6729, 1002.590
479.1551, 1002.843
479.6372, 998.0118
480.1193, 994.7961
480.6014, 993.9000
481.0835, 993.7344
481.5656, 993.5869
482.0478, 993.4113
482.5299, 993.4918
483.0120, 994.1144
483.4941, 994.9490
483.9762, 994.6390
484.4583, 992.5839
484.9405, 990.6072
485.4226, 988.6273
485.9047, 987.1486
486.3868, 986.7887
486.8689, 987.5430
487.3510, 988.5848
487.8332, 989.3885
488.3153, 989.9286
488.7974, 990.0506
489.2795, 989.6424
489.7616, 989.0717
490.2437, 988.7925
490.7259, 988.4318
491.2080, 987.1630
491.6901, 984.1232
492.1722, 981.5897
492.6543, 982.2809
493.1364, 984.8485
493.6186, 984.6827
494.1007, 979.9521
494.5828, 975.1606
495.0649, 976.2303
495.5470, 983.9442
496.0291, 988.3138
496.5113, 987.0463
496.9934, 984.2142
497.4755, 981.7307
497.9576, 979.6124
498.4397, 977.5381
498.9218, 975.3750
499.4040, 973.1043
499.8861, 970.5854
500.3682, 966.4333
500.8503, 964.7692
501.3324, 968.0252
501.8145, 971.3883
502.2967, 971.6073
502.7788, 969.1730
503.2609, 966.5713
503.7430, 965.4484
504.2251, 965.5702
504.7072, 966.0973
505.1894, 967.1603
505.6715, 968.3397
506.1536, 971.3197
506.6357, 973.2079
507.1178, 970.4730
507.5999, 963.0238
508.0821, 956.3172
508.5642, 954.5970
509.0463, 956.7197
509.5284, 959.8992
510.0105, 964.4786
510.4926, 967.8873
510.9748, 968.1284
511.4569, 966.0934
511.9390, 963.9069
512.4211, 961.1058
512.9032, 959.2277
513.3853, 960.1157
513.8674, 962.1400
514.3495, 962.1154
514.8317, 959.3342
515.3138, 956.2119
515.7959, 955.3166
516.2780, 956.8591
516.7601, 957.3781
517.2422, 955.0269
517.7244, 953.8851
518.2065, 956.6495
518.6886, 961.0415
519.1707, 963.8151
519.6528, 963.8156
520.1349, 962.1259
520.6171, 960.4782
521.0992, 959.2915
521.5813, 956.4374
522.0634, 948.1629
522.5455, 942.0163
523.0276, 942.1957
523.5098, 946.2778
523.9919, 949.5817
524.4740, 949.9399
524.9561, 948.9894
525.4382, 948.8187
525.9203, 949.4261
526.4025, 951.3005
526.8846, 956.1989
527.3667, 960.1463
527.8488, 957.7915
528.3309, 950.3282
528.8130, 945.6229
529.2952, 948.7296
529.7773, 953.4525
530.2594, 953.7383
530.7415, 950.3663
531.2236, 947.3666
531.7057, 946.4530
532.1879, 947.0585
532.6700, 948.2468
533.1521, 950.7736
533.6342, 952.0981
534.1163, 951.6689
534.5984, 950.4553
535.0806, 948.5734
535.5627, 946.4316
536.0448, 944.6751
536.5269, 943.6254
537.0090, 943.5767
537.4911, 945.9523
537.9733, 953.4551
538.4554, 957.3792
538.9375, 954.4254
539.4196, 949.6670
539.9017, 944.8973
540.3839, 940.8956
540.8660, 939.2738
541.3481, 942.2086
541.8302, 947.5822
542.3123, 950.7941
542.7944, 951.7365
543.2766, 951.3221
543.7587, 948.6173
544.2408, 945.8199
544.7229, 946.5829
545.2050, 951.4401
545.6871, 954.9661
546.1693, 954.5207
546.6514, 952.3036
547.1335, 950.0782
547.6156, 948.2160
548.0977, 947.7480
548.5798, 949.6171
549.0620, 952.8257
549.5441, 954.0034
550.0262, 949.5741
550.5083, 947.8905
550.9904, 951.3610
551.4725, 955.7778
551.9547, 958.6514
552.4368, 959.4920
552.9189, 958.1938
553.4010, 954.1940
553.8831, 948.5433
554.3652, 945.6763
554.8474, 946.5259
555.3295, 947.8514
555.8116, 949.8960
556.2937, 951.3952
556.7758, 950.9608
557.2579, 948.6974
557.7401, 946.6520
558.2222, 945.9014
558.7043, 946.1866
559.1864, 947.5984
559.6685, 950.1339
560.1506, 951.5068
560.6328, 950.1614
561.1149, 947.3861
561.5970, 946.1456
562.0791, 947.0902
562.5612, 947.1760
563.0433, 945.3055
563.5255, 942.7598
564.0076, 940.4987
564.4897, 938.5717
564.9718, 936.3851
565.4539, 933.3991
565.9360, 930.4083
566.4182, 930.3796
566.9003, 936.1281
567.3824, 939.5211
567.8645, 938.8376
568.3466, 936.9357
568.8287, 935.4453
569.3109, 934.3745
569.7930, 932.9747
570.2751, 930.4758
570.7572, 927.6589
571.2393, 926.3680
571.7214, 926.7370
572.2036, 927.0389
572.6857, 926.7593
573.1678, 926.1507
573.6499, 925.2357
574.1320, 924.0228
574.6141, 923.6600
575.0963, 925.5539
575.5784, 927.5524
576.0605, 927.9207
576.5426, 926.7767
577.0247, 924.4129
577.5068, 920.7881
577.9890, 917.1961
578.4711, 916.2991
578.9532, 920.1468
579.4353, 921.4364
579.9174, 918.1743
580.3995, 914.6909
580.8817, 912.7628
581.3638, 912.2231
581.8459, 912.7894
582.3280, 914.4909
582.8101, 915.9009
583.2922, 913.9381
583.7744, 908.2297
584.2565, 904.7996
584.7386, 905.3826
585.2207, 907.0297
585.7029, 907.7720
586.1850, 907.9056
586.6671, 908.2139
587.1492, 909.3315
587.6313, 910.0702
588.1135, 909.2599
588.5956, 907.4406
589.0777, 905.6006
589.5598, 903.9616
590.0419, 903.2772
590.5240, 904.6383
591.0062, 908.1888
591.4883, 910.3193
591.9704, 910.6200
592.4525, 910.2000
592.9346, 909.0067
593.4167, 907.4066
593.8989, 905.6883
594.3810, 903.9713
594.8631, 902.3410
595.3452, 900.7616
595.8273, 899.2961
596.3094, 898.7158
596.7916, 899.4686
597.2737, 900.0892
597.7558, 899.6525
598.2379, 898.9111
598.7200, 898.7971
599.2021, 899.5080
599.6843, 899.8434
600.1664, 898.8969
600.6485, 897.3470
601.1306, 895.9435
601.6127, 894.8043
602.0948, 894.4095
602.5770, 895.2868
603.0591, 896.6511
603.5412, 896.2923
604.0233, 892.1479
604.5054, 889.6533
604.9875, 889.3685
605.4697, 890.2008
605.9518, 892.6444
606.4339, 895.5970
606.9160, 896.5106
607.3981, 893.7757
607.8802, 889.1688
608.3624, 885.9315
608.8445, 884.0878
609.3266, 883.6964
609.8087, 885.8564
610.2908, 888.0811
610.7729, 888.3368
611.2551, 887.1862
611.7372, 886.2739
612.2193, 886.0462
612.7014, 886.1393
613.1835, 886.5435
613.6656, 887.0378
614.1478, 887.0407
614.6299, 886.4108
615.1120, 885.7104
615.5941, 885.5729
616.0762, 885.9974
616.5583, 885.7974
617.0405, 884.1287
617.5226, 882.8792
618.0047, 882.8788
618.4868, 883.1105
618.9689, 882.4572
619.4510, 880.8447
619.9332, 879.1711
620.4153, 878.2240
620.8974, 877.8153
621.3795, 877.3042
621.8616, 876.6966
622.3438, 875.8965
622.8259, 874.1047
623.3080, 872.8268
623.7901, 874.6974
624.2722, 879.9734
624.7543, 883.4544
625.2365, 883.6185
625.7186, 881.5889
626.2007, 876.5980
626.6828, 870.1501
627.1649, 866.2376
627.6470, 866.5441
628.1292, 869.2848
628.6113, 871.8640
629.0934, 874.6705
629.5755, 875.6454
630.0576, 872.9997
630.5397, 870.3387
631.0219, 868.1947
631.5040, 866.8491
631.9861, 866.7865
632.4682, 868.1772
632.9503, 869.9681
633.4324, 871.4819
633.9146, 872.6276
634.3967, 872.9064
634.8788, 872.1854
635.3609, 871.5604
635.8430, 871.8362
636.3251, 872.5714
636.8073, 872.3504
637.2894, 870.4359
637.7715, 869.4609
638.2536, 871.2928
638.7357, 873.0003
639.2178, 871.5948
639.7000, 868.0182
640.1821, 865.6060
640.6642, 866.2532
641.1463, 868.2547
641.6284, 868.0651
642.1105, 865.2738
642.5927, 862.3587
643.0748, 858.5099
643.5569, 855.9312
644.0390, 857.0641
644.5211, 860.0050
645.0032, 860.6475
645.4854, 857.0341
645.9675, 853.4185
646.4496, 852.7325
646.9317, 853.9774
647.4138, 856.0012
647.8959, 858.4482
648.3781, 859.1826
648.8602, 856.1711
649.3423, 850.5695
649.8244, 847.9645
650.3065, 851.0596
650.7886, 853.1796
651.2708, 853.9374
651.7529, 853.8333
652.2350, 852.6164
652.7171, 850.8116
653.1992, 849.6422
653.6813, 849.7914
654.1635, 850.7698
654.6456, 852.0873
655.1277, 853.6825
655.6098, 854.9744
656.0919, 856.1022
656.5740, 856.1017
657.0562, 853.1787
657.5383, 848.0680
658.0204, 845.9450
658.5025, 849.5272
658.9846, 852.7116
659.4667, 853.4180
659.9489, 853.0552
660.4310, 853.3478
660.9131, 854.2535
661.3952, 854.2349
661.8773, 851.9979
662.3594, 848.2899
662.8416, 845.5319
663.3237, 843.8521
663.8058, 842.6341
664.2879, 841.8953
664.7700, 841.4824
665.2521, 841.3300
665.7343, 841.3976
666.2164, 841.5210
666.6985, 841.2609
667.1806, 841.5708
667.6627, 844.3547
668.1448, 847.8724
668.6270, 848.2244
669.1091, 844.8395
669.5912, 840.9581
670.0733, 839.3599
670.5554, 839.8055
671.0375, 840.5823
671.5197, 842.1600
672.0018, 843.2738
672.4839, 843.7173
672.9660, 843.7545
673.4481, 843.6925
673.9302, 843.3991
674.4124, 842.2173
674.8945, 839.0289
675.3766, 836.1002
675.8587, 836.8116
676.3408, 840.4291
676.8229, 843.7577
677.3051, 846.2070
677.7872, 847.6580
678.2693, 847.7836
678.7514, 846.7318
679.2335, 846.1945
679.7156, 847.2761
680.1978, 847.3417
680.6799, 844.6674
681.1620, 841.8494
681.6441, 841.3036
682.1262, 842.7848
682.6083, 844.5104
683.0905, 845.5065
683.5726, 845.7908
684.0547, 845.2261
684.5368, 843.8138
685.0189, 842.3524
685.5010, 840.7794
685.9832, 839.6844
686.4653, 839.8040
686.9474, 840.8947
687.4295, 841.6262
687.9116, 841.7220
688.3937, 841.7935
688.8759, 842.3657
689.3580, 842.7743
689.8401, 841.8454
690.3222, 839.9492
690.8043, 839.0031
691.2864, 840.4175
691.7686, 842.9777
692.2507, 843.5591
692.7328, 841.7775
693.2149, 840.4291
693.6970, 839.6122
694.1791, 839.6960
694.6613, 841.6922
695.1434, 844.6764
695.6255, 846.5926
696.1076, 846.9331
696.5897, 846.5682
697.0718, 844.8651
697.5540, 843.2681
698.0361, 843.9980
698.5182, 846.7806
699.0003, 849.2684
699.4824, 849.9601
699.9645, 849.7697
700.4467, 851.2428
700.9288, 855.3744
701.4109, 857.3578
701.8930, 855.1598
702.3751, 852.9251
702.8572, 852.6603
703.3394, 853.7251
703.8215, 855.3074
704.3036, 857.5963
704.7857, 858.9165
705.2678, 857.6359
705.7499, 855.1642
706.2321, 853.1893
706.7142, 851.8777
707.1963, 851.1024
707.6784, 850.8173
708.1605, 850.8597
708.6426, 851.0176
709.1248, 851.6115
709.6069, 851.1484
710.0890, 848.1999
710.5711, 845.8732
711.0532, 846.3527
711.5353, 847.5319
712.0175, 846.4061
712.4996, 842.2967
712.9817, 837.9542
713.4638, 834.4326
713.9459, 832.0302
714.4280, 832.0284
714.9102, 833.8187
715.3923, 834.2611
715.8744, 831.9471
716.3565, 828.4207
716.8386, 825.7006
717.3207, 823.6060
717.8029, 823.7330
718.2850, 829.8433
718.7671, 833.4567
719.2492, 830.7593
719.7313, 825.9276
720.2134, 823.1805
720.6956, 822.9199
721.1777, 822.5818
721.6598, 820.5604
722.1419, 817.7054
722.6240, 814.4727
723.1061, 811.2626
723.5883, 810.1935
724.0704, 812.0373
724.5525, 813.7059
725.0346, 811.4882
725.5167, 805.5754
725.9988, 803.1321
726.4810, 807.9063
726.9631, 810.7690
727.4452, 808.7542
727.9273, 806.0474
728.4094, 805.9588
728.8915, 808.1520
729.3737, 810.2723
729.8558, 811.2266
730.3379, 811.6885
730.8200, 812.8158
731.3021, 814.0004
731.7842, 813.1503
732.2664, 809.9464
732.7485, 806.6085
733.2306, 804.7672
733.7127, 804.1748
734.1948, 803.8314
734.6769, 803.3539
735.1591, 803.8642
735.6412, 806.9594
736.1233, 809.4016
736.6054, 808.8149
737.0875, 806.5662
737.5696, 805.6130
738.0518, 807.2057
738.5339, 808.1906
739.0160, 804.6290
739.4981, 799.2956
739.9802, 797.5886
740.4623, 799.5494
740.9445, 802.2330
741.4266, 804.3677
741.9087, 805.4603
742.3908, 804.3301
742.8729, 799.9950
743.3550, 797.6745
743.8372, 799.7101
744.3193, 800.9715
744.8014, 798.7980
745.2835, 795.9098
745.7656, 795.9473
746.2477, 799.1778
746.7299, 801.3395
747.2120, 798.4893
747.6941, 794.5701
748.1762, 794.4562
748.6583, 797.1664
749.1404, 800.0400
749.6226, 802.2700
750.1047, 802.4102
750.5868, 798.2787
751.0689, 790.6393
751.5510, 788.0384
752.0331, 793.8500
752.5153, 798.2300
752.9974, 798.9670
753.4795, 798.3673
753.9616, 797.1374
754.4437, 795.7234
754.9258, 795.3543
755.4080, 797.2094
755.8901, 798.5989
756.3722, 797.1252
756.8543, 794.2999
757.3364, 791.7977
757.8185, 790.1235
758.3007, 790.6326
758.7828, 794.4395
759.2649, 799.1401
759.7470, 798.8281
760.2291, 791.7338
760.7112, 788.4117
761.1934, 791.6506
761.6755, 794.6935
762.1576, 793.7333
762.6397, 791.0853
763.1218, 789.6616
763.6039, 789.8407
764.0861, 789.8872
764.5682, 787.9227
765.0503, 786.7836
765.5324, 790.5475
766.0145, 796.3464
766.4966, 797.9152
766.9788, 793.8060
767.4609, 788.6024
767.9430, 787.0306
768.4251, 788.3002
768.9072, 788.3113
769.3893, 786.7507
769.8715, 785.6130
770.3536, 785.7533
770.8357, 785.9236
771.3178, 784.5170
771.7999, 781.9946
772.2820, 780.7794
772.7642, 782.0953
773.2463, 783.2585
773.7284, 783.4716
774.2105, 783.2880
774.6926, 782.8053
775.1747, 782.3787
775.6569, 782.9344
776.1390, 785.0262
776.6211, 787.3874
777.1032, 788.4730
777.5853, 788.3329
778.0674, 786.8384
778.5496, 783.7452
779.0317, 781.4276
779.5138, 781.2714
779.9959, 782.2043
780.4780, 782.3934
780.9601, 781.6996
781.4423, 780.7695
781.9244, 778.9365
782.4065, 777.6838
782.8886, 777.4650
783.3707, 778.0776
783.8528, 779.9183
784.3350, 782.6111
784.8171, 784.1000
785.2992, 782.4446
785.7813, 779.7158
786.2634, 779.2766
786.7455, 780.0558
787.2277, 777.3193
787.7098, 770.2497
788.1919, 765.6646
788.6740, 769.5568
789.1561, 779.1168
789.6382, 783.9353
790.1204, 782.1083
790.6025, 780.0612
791.0846, 776.6816
791.5667, 774.7188
792.0488, 776.8475
792.5309, 780.5776
793.0131, 781.7922
793.4952, 779.4894
793.9773, 777.1523
794.4594, 776.2783
794.9415, 776.1972
795.4236, 777.0330
795.9058, 778.0380
796.3879, 777.2015
796.8700, 774.0934
797.3521, 771.0852
797.8342, 770.9931
798.3163, 768.3812
798.7985, 771.8610
799.2806, 766.8143
799.7627, 764.1041
800.2448, 766.0653
800.7269, 769.2084
801.2090, 770.6349
801.6912, 770.6425
802.1733, 771.1078
802.6554, 773.5963
803.1375, 774.0448
803.6196, 768.9641
804.1017, 764.0656
804.5839, 764.3507
805.0660, 767.9403
805.5481, 770.1638
806.0302, 769.2937
806.5123, 767.9489
806.9944, 769.3794
807.4766, 772.1353
807.9587, 772.5350
808.4408, 770.6329
808.9229, 768.2499
809.4050, 765.9349
809.8871, 764.2125
810.3693, 763.9531
810.8514, 765.1300
811.3335, 764.6378
811.8156, 760.3166
812.2977, 757.9526
812.7798, 758.9905
813.2620, 761.6179
813.7441, 766.4018
814.2262, 771.7489
814.7083, 773.1642
815.1904, 767.6615
815.6725, 762.5831
816.1547, 762.7360
816.6368, 764.9847
817.1189, 766.0240
817.6010, 765.8054
818.0831, 765.0861
818.5652, 764.2216
819.0474, 763.9614
819.5295, 766.1042
820.0116, 770.0743
820.4937, 769.9620
820.9758, 764.9501
821.4579, 760.6348
821.9401, 758.4918
822.4222, 758.2702
822.9043, 760.7528
823.3864, 765.6779
823.8685, 766.9026
824.3506, 760.4871
824.8328, 756.0756
825.3149, 756.5404
825.7970, 758.2187
826.2791, 758.5858
826.7612, 757.9608
827.2433, 757.9372
827.7255, 759.2695
828.2076, 759.8803
828.6897, 757.1920
829.1718, 753.0597
829.6539, 749.9064
830.1360, 748.1207
830.6182, 749.2502
831.1003, 753.9149
831.5824, 758.6391
832.0645, 759.2023
832.5466, 755.8823
833.0287, 751.4149
833.5109, 744.0164
833.9930, 741.1367
834.4751, 747.2047
834.9572, 754.7330
835.4393, 757.8517
835.9214, 757.5771
836.4036, 756.5294
836.8857, 753.8654
837.3678, 752.5235
837.8499, 755.4147
838.3320, 757.8340
838.8141, 754.4638
839.2963, 748.6649
839.7784, 747.6627
840.2605, 753.4250
840.7426, 759.5614
841.2247, 760.0212
841.7068, 757.1224
842.1890, 754.7611
842.6711, 753.0607
843.1532, 752.8830
843.6353, 754.4740
844.1174, 756.9446
844.5995, 759.7469
845.0817, 762.4987
845.5638, 763.2883
846.0459, 761.4709
846.5280, 759.3983
847.0101, 756.2344
847.4922, 754.1504
847.9744, 755.9315
848.4565, 758.7708
848.9386, 757.6046
849.4207, 751.1759
849.9028, 747.2115
850.3849, 749.8700
850.8671, 753.3502
851.3492, 754.7795
851.8313, 754.6412
852.3134, 753.3881
852.7955, 751.4086
853.2776, 749.6347
853.7598, 748.6974
854.2419, 748.2808
854.7240, 747.7955
855.2061, 747.3922
855.6882, 748.2167
856.1703, 750.3436
856.6525, 750.7981
857.1346, 747.5501
857.6167, 743.0390
858.0988, 742.2284
858.5809, 746.0018
859.0630, 747.5101
859.5452, 745.6750
860.0273, 743.4890
860.5094, 741.5502
860.9915, 739.8751
861.4736, 738.5272
861.9557, 737.4827
862.4379, 736.5576
862.9200, 735.5787
863.4021, 734.9379
863.8842, 734.5687
864.3663, 734.7721
864.8484, 736.3974
865.3306, 738.7279
865.8127, 740.2202
866.2948, 740.2792
866.7769, 739.3383
867.2590, 736.9213
867.7411, 734.1642
868.2233, 733.8699
868.7054, 735.6327
869.1875, 737.1678
869.6696, 737.8284
870.1517, 737.4294
870.6339, 735.6172
871.1160, 732.8065
871.5981, 730.7140
872.0802, 729.0503
872.5623, 729.3023
873.0444, 732.7839
873.5266, 736.2820
874.0087, 738.4785
874.4908, 739.3251
874.9729, 738.5327
875.4550, 735.7517
875.9371, 733.3823
876.4193, 730.7083
876.9014, 729.7401
877.3835, 732.8421
877.8656, 737.0677
878.3477, 739.4769
878.8298, 739.8497
879.3120, 739.4154
879.7941, 738.7603
880.2762, 737.5375
880.7583, 734.2317
881.2404, 730.6613
881.7225, 730.5496
882.2047, 733.5260
882.6868, 736.7911
883.1689, 739.1276
883.6510, 740.1107
884.1331, 738.8862
884.6152, 735.8103
885.0974, 733.6469
885.5795, 732.5188
886.0616, 731.4548
886.5437, 730.1452
887.0258, 729.0971
887.5079, 728.8945
887.9901, 729.2477
888.4722, 728.9420
888.9543, 726.9105
889.4364, 726.2825
889.9185, 728.3797
890.4006, 730.3232
890.8828, 731.0573
891.3649, 730.9747
891.8470, 730.2629
892.3291, 729.0760
892.8112, 728.6169
893.2933, 730.4061
893.7755, 731.8907
894.2576, 731.3418
894.7397, 729.6592
895.2218, 727.3238
895.7039, 724.9291
896.1860, 724.0045
896.6682, 725.3293
897.1503, 727.1234
897.6324, 727.2314
898.1145, 726.0715
898.5966, 724.0982
899.0787, 721.6525
899.5609, 722.3970
900.0430, 727.7256
900.5251, 732.9187
901.0072, 733.1859
901.4893, 729.6971
901.9714, 728.0891
902.4536, 728.6992
902.9357, 730.2622
903.4178, 734.5213
903.8999, 736.2881
904.3820, 730.1873
904.8641, 721.3932
905.3463, 719.6429
905.8284, 726.0782
906.3105, 729.7843
906.7926, 728.3580
907.2747, 726.2292
907.7568, 723.9149
908.2390, 722.1442
908.7211, 721.7223
909.2032, 722.3541
909.6853, 723.0236
910.1674, 723.3560
910.6495, 723.7502
911.1317, 724.2721
911.6138, 725.1478
912.0959, 727.5742
912.5780, 730.3717
913.0601, 730.1542
913.5422, 726.4323
914.0244, 723.1723
914.5065, 724.0236
914.9886, 727.1509
915.4707, 729.1461
915.9528, 729.9720
916.4349, 728.7909
916.9171, 725.4485
917.3992, 723.3071
917.8813, 724.3124
918.3634, 727.0773
918.8455, 729.4280
919.3276, 731.3817
919.8098, 732.6005
920.2919, 732.8191
920.7740, 733.0215
921.2561, 733.6361
921.7382, 734.0629
922.2203, 733.6630
922.7025, 732.6654
923.1846, 731.9971
923.6667, 731.9738
924.1488, 731.5961
924.6309, 730.7266
925.1130, 729.5431
925.5952, 727.4374
926.0773, 725.4774
926.5594, 725.1862
927.0415, 726.5190
927.5236, 727.7557
928.0057, 728.1345
928.4879, 728.2684
928.9700, 728.4796
929.4521, 728.7145
929.9342, 729.0057
930.4163, 729.2531
930.8984, 729.3484
931.3806, 729.2218
931.8627, 728.4376
932.3448, 724.8715
932.8269, 721.3082
933.3090, 725.7906
933.7911, 735.7916
934.2733, 739.6337
934.7554, 735.3179
935.2375, 730.3952
935.7196, 729.9673
936.2017, 731.9901
936.6838, 732.5109
937.1660, 731.5426
937.6481, 728.2441
938.1302, 721.4985
938.6123, 717.7130
939.0944, 719.9169
939.5765, 723.9630
940.0587, 725.7720
940.5408, 725.6709
941.0229, 725.9845
941.5050, 727.8966
941.9871, 728.0529
942.4692, 723.3105
942.9514, 720.2785
943.4335, 723.5331
943.9156, 728.8575
944.3977, 730.7147
944.8798, 728.8231
945.3619, 727.1487
945.8441, 726.2378
946.3262, 726.0296
946.8083, 726.8304
947.2904, 728.0346
947.7725, 729.8746
948.2546, 731.5350
948.7368, 731.1266
949.2189, 728.0355
949.7010, 724.9710
950.1831, 723.7449
950.6652, 723.3420
951.1473, 722.7435
951.6295, 722.2103
952.1116, 722.5909
952.5937, 723.6957
953.0758, 723.9681
953.5579, 722.4042
954.0400, 720.6691
954.5222, 721.8184
955.0043, 720.1994
955.4864, 723.6617
955.9685, 719.9293
956.4506, 718.1952
956.9327, 719.9291
957.4149, 723.1712
957.8970, 726.5424
958.3791, 729.3445
958.8612, 729.0739
959.3433, 725.4631
959.8254, 722.3712
960.3076, 719.7897
960.7897, 719.1590
961.2718, 721.9337
961.7539, 725.1672
962.2360, 724.8441
962.7181, 721.1758
963.2003, 719.1077
963.6824, 719.3334
964.1645, 719.7242
964.6466, 719.5366
965.1287, 720.1630
965.6108, 723.9745
966.0930, 728.3142
966.5751, 728.8566
967.0572, 725.1578
967.5393, 721.7061
968.0214, 717.4635
968.5035, 715.5327
968.9857, 718.7727
969.4678, 722.7828
969.9499, 724.5182
970.4320, 724.2748
970.9141, 722.8702
971.3962, 720.1904
971.8784, 719.1622
972.3605, 723.1008
972.8426, 727.0221
973.3247, 727.5048
973.8068, 725.9196
974.2889, 723.2308
974.7711, 720.3193
975.2532, 719.2277
975.7353, 721.1658
976.2174, 723.2418
976.6995, 722.5383
977.1816, 720.6031
977.6638, 719.0507
978.1459, 718.2109
978.6280, 719.3014
979.1101, 722.1051
979.5922, 723.5790
980.0743, 721.2916
980.5565, 717.9130
981.0386, 718.0592
981.5207, 720.7689
982.0028, 722.7320
982.4849, 723.7982
982.9670, 724.5773
983.4492, 725.2698
983.9313, 725.7986
984.4134, 726.1625
984.8955, 726.1647
985.3776, 725.0775
985.8597, 722.8691
986.3419, 720.2399
986.8240, 716.9711
987.3061, 715.0573
987.7882, 715.5551
988.2703, 717.1971
988.7524, 718.5543
989.2346, 719.6356
989.7167, 720.3505
990.1988, 720.1664
990.6809, 721.5128
991.1630, 726.3688
991.6451, 729.3068
992.1273, 725.8663
992.6094, 720.5416
993.0915, 720.6234
993.5736, 726.5454
994.0557, 729.6813
994.5378, 727.9846
995.0200, 726.4593
995.5021, 726.4078
995.9842, 725.7599
996.4663, 722.5629
996.9484, 718.3900
997.4305, 715.5184
997.9127, 714.0689
998.3948, 714.7464
998.8769, 720.3387
999.3590, 724.4988
999.8411, 724.9699
1000.323, 723.5851
1000.805, 720.5489
1001.287, 717.1475
1001.770, 715.7925
1002.252, 717.0816
1002.734, 718.7982
1003.216, 720.4460
1003.698, 721.7648
1004.180, 723.0483
1004.662, 723.5875
1005.144, 721.5490
1005.627, 718.2048
1006.109, 717.5070
1006.591, 720.9872
1007.073, 723.7550
1007.555, 721.3107
1008.037, 717.6466
1008.519, 715.5598
1009.001, 715.4376
1009.483, 719.1697
1009.966, 725.4272
1010.448, 729.3405
1010.930, 728.5410
1011.412, 726.0353
1011.894, 724.4123
1012.376, 723.2796
1012.858, 721.5061
1013.340, 719.8123
1013.823, 721.1747
1014.305, 725.1238
1014.787, 725.9808
1015.269, 720.2618
1015.751, 713.5349
1016.233, 714.2476
1016.715, 719.6819
1017.197, 722.1033
1017.679, 722.0317
1018.162, 723.0475
1018.644, 725.7363
1019.126, 726.7909
1019.608, 723.8168
1020.090, 719.4976
1020.572, 718.6088
1021.054, 720.6831
1021.536, 722.5505
1022.018, 724.1719
1022.501, 725.3940
1022.983, 726.2205
1023.465, 725.6539
1023.947, 722.6316
1024.429, 718.9847
1024.911, 719.0802
1025.393, 723.0331
1025.875, 725.1077
1026.358, 725.1182
1026.840, 724.7050
1027.322, 724.2084
1027.804, 723.7645
1028.286, 723.4994
1028.768, 723.3237
1029.250, 722.8527
1029.732, 721.8722
1030.214, 722.5369
1030.697, 725.6330
1031.179, 727.6231
1031.661, 727.4095
1032.143, 726.2101
1032.625, 724.7141
1033.107, 723.1647
1033.589, 722.2339
1034.071, 721.8978
1034.553, 722.3729
1035.036, 724.3099
1035.518, 725.6260
1036.000, 725.5649
1036.482, 725.0253
1036.964, 724.3611
1037.446, 723.9045
1037.928, 724.8582
1038.410, 728.2393
1038.893, 729.4218
1039.375, 726.5448
1039.857, 724.4609
1040.339, 725.1161
1040.821, 726.0961
1041.303, 725.0944
1041.785, 723.0757
1042.267, 722.9053
1042.750, 725.2352
1043.232, 727.2150
1043.714, 729.5585
1044.196, 730.5264
1044.678, 728.2452
1045.160, 725.8120
1045.642, 726.0279
1046.124, 727.7119
1046.606, 727.5285
1047.089, 724.2474
1047.571, 723.5612
1048.053, 728.9291
1048.535, 733.0770
1049.017, 732.9633
1049.499, 731.9288
1049.981, 732.7422
1050.463, 734.5490
1050.945, 735.2654
1051.428, 734.6172
1051.910, 733.1918
1052.392, 729.4900
1052.874, 727.1957
1053.356, 728.3818
1053.838, 730.5673
1054.320, 732.7501
1054.802, 734.1808
1055.285, 733.1334
1055.767, 729.0543
1056.249, 726.5567
1056.731, 728.6862
1057.213, 730.1542
1057.695, 727.7670
1058.177, 725.1925
1058.659, 725.7299
1059.141, 728.0237
1059.624, 729.1825
1060.106, 728.7067
1060.588, 728.3325
1061.070, 728.7706
1061.552, 729.2007
1062.034, 728.6276
1062.516, 728.5690
1062.998, 730.7894
1063.480, 734.1156
1063.963, 736.6851
1064.445, 738.1371
1064.927, 738.5770
1065.409, 737.4404
1065.891, 736.1119
1066.373, 734.3815
1066.855, 733.4288
1067.337, 735.3504
1067.820, 738.0710
1068.302, 737.8109
1068.784, 734.4477
1069.266, 732.2419
1069.748, 733.4419
1070.230, 734.9527
1070.712, 735.3014
1071.194, 735.5643
1071.677, 736.6393
1072.159, 738.1088
1072.641, 739.1321
1073.123, 739.7878
1073.605, 741.2209
1074.087, 744.5541
1074.569, 747.0118
1075.051, 746.7380
1075.533, 745.7244
1076.016, 745.6802
1076.498, 745.5840
1076.980, 743.3270
1077.462, 739.5114
1077.944, 737.4748
1078.426, 738.8599
1078.908, 740.2133
1079.390, 739.6682
1079.873, 738.8547
1080.355, 738.4196
1080.837, 738.6222
1081.319, 739.9825
1081.801, 742.1724
1082.283, 744.3193
1082.765, 746.2907
1083.247, 747.4211
1083.729, 746.5884
1084.212, 745.8063
1084.694, 747.0488
1085.176, 748.2720
1085.658, 746.5861
1086.140, 743.2706
1086.622, 741.7213
1087.104, 742.7775
1087.586, 744.7021
1088.068, 747.9691
1088.551, 750.3924
1089.033, 750.9200
1089.515, 750.1074
1089.997, 747.5640
1090.479, 744.4118
1090.961, 742.4877
1091.443, 742.1124
1091.925, 742.5319
1092.408, 743.3625
1092.890, 745.0846
1093.372, 750.1154
1093.854, 753.8331
1094.336, 751.3022
1094.818, 746.1504
1095.300, 743.8656
1095.782, 744.8820
1096.265, 746.2353
1096.747, 747.1926
1097.229, 748.1462
1097.711, 750.1161
1098.193, 751.1151
1098.675, 748.7031
1099.157, 745.5773
1099.639, 745.1710
1100.121, 747.0822
1100.604, 748.1906
1101.086, 747.1675
1101.568, 747.4271
1102.050, 752.8426
1102.532, 755.9774
1103.014, 750.2108
1103.496, 743.6373
1103.978, 745.0612
1104.460, 751.4756
1104.943, 753.4203
1105.425, 748.3771
1105.907, 746.1629
1106.389, 752.0519
1106.871, 756.1550
1107.353, 754.2828
1107.835, 751.0286
1108.317, 748.7242
1108.800, 747.5969
1109.282, 748.6312
1109.764, 752.0557
1110.246, 752.4537
1110.728, 745.4727
1111.210, 741.2511
1111.692, 743.3751
1112.174, 745.9567
1112.656, 746.3478
1113.139, 745.5440
1113.621, 744.4725
1114.103, 743.2393
1114.585, 742.7167
1115.067, 743.0614
1115.549, 743.8492
1116.031, 745.3383
1116.513, 746.9368
1116.995, 747.4915
1117.478, 750.8683
1117.960, 748.6072
1118.442, 749.9492
1118.924, 749.9039
1119.406, 748.0866
1119.888, 749.6866
1120.370, 746.5896
1120.852, 744.3245
1121.335, 744.1251
1121.817, 744.9063
1122.299, 746.1505
1122.781, 747.7633
1123.263, 749.8032
1123.745, 752.3065
1124.227, 752.7542
1124.709, 750.2308
1125.192, 749.1026
1125.674, 750.6029
1126.156, 751.2972
1126.638, 749.4042
1127.120, 746.3793
1127.602, 743.5949
1128.084, 741.4139
1128.566, 742.3029
1129.048, 746.9486
1129.531, 747.8986
1130.013, 744.1625
1130.495, 741.7501
1130.977, 742.6539
1131.459, 744.7761
1131.941, 746.6274
1132.423, 747.8661
1132.905, 747.3787
1133.387, 745.3378
1133.870, 744.5350
1134.352, 744.9225
1134.834, 745.0159
1135.316, 744.5425
1135.798, 744.7552
1136.280, 746.3895
1136.762, 748.1410
1137.244, 748.1687
1137.727, 747.1501
1138.209, 747.1061
1138.691, 747.8582
1139.173, 748.7594
1139.655, 749.6974
1140.137, 750.6987
1140.619, 751.7089
1141.101, 751.9611
1141.583, 750.7064
1142.066, 748.7735
1142.548, 747.0217
1143.030, 745.7437
1143.512, 746.0057
1143.994, 747.1774
1144.476, 747.2052
1144.958, 746.0710
1145.440, 745.8174
1145.922, 747.5152
1146.405, 749.7220
1146.887, 751.3551
1147.369, 752.5313
1147.851, 753.7114
1148.333, 754.3137
1148.815, 752.5922
1149.297, 749.6957
1149.779, 748.4791
1150.262, 749.7621
1150.744, 752.8862
1151.226, 759.9261
1151.708, 764.6085
1152.190, 760.2946
1152.672, 754.4969
1153.154, 753.3796
1153.636, 755.0863
1154.119, 756.9117
1154.601, 758.2650
1155.083, 758.6022
1155.565, 756.9539
1156.047, 757.2414
1156.529, 763.3325
1157.011, 768.3007
1157.493, 768.1848
1157.975, 766.5501
1158.458, 766.4977
1158.940, 765.4551
1159.422, 766.3560
1159.904, 763.6259
1160.386, 761.7210
1160.868, 760.6052
1161.350, 760.7496
1161.832, 763.1042
1162.314, 765.6014
1162.797, 768.7382
1163.279, 770.2120
1163.761, 766.1639
1164.243, 758.4425
1164.725, 756.0663
1165.207, 760.9559
1165.689, 764.6113
1166.171, 767.2372
1166.654, 767.7138
1167.136, 764.8883
1167.618, 762.5395
1168.100, 763.2200
1168.582, 765.7155
1169.064, 767.9985
1169.546, 770.1531
1170.028, 773.3927
1170.510, 777.7977
1170.993, 779.4756
1171.475, 777.9803
1171.957, 775.8679
1172.439, 774.0391
1172.921, 773.4607
1173.403, 775.2453
1173.885, 777.9140
1174.367, 777.8492
1174.849, 776.3379
1175.332, 778.8644
1175.814, 784.0136
1176.296, 785.3185
1176.778, 782.2803
1177.260, 778.9490
1177.742, 777.3065
1178.224, 778.2504
1178.706, 784.6057
1179.189, 791.7856
1179.671, 794.3243
1180.153, 793.5204
1180.635, 789.0335
1181.117, 783.5677
1181.599, 783.2484
1182.081, 788.3597
1182.563, 792.6426
1183.046, 792.9980
1183.528, 792.5856
1184.010, 793.1550
1184.492, 793.7025
1184.974, 792.7647
1185.456, 792.0975
1185.938, 794.7572
1186.420, 798.8884
1186.902, 799.6373
1187.385, 796.0626
1187.867, 792.7200
1188.349, 788.7469
1188.831, 787.6975
1189.313, 793.0112
1189.795, 798.0426
1190.277, 799.4695
1190.759, 799.1572
1191.241, 798.3226
1191.724, 797.3767
1192.206, 797.9891
1192.688, 800.4440
1193.170, 803.3905
1193.652, 807.3599
1194.134, 810.2703
1194.616, 811.9424
1195.098, 811.3239
1195.581, 806.9922
1196.063, 802.8356
1196.545, 804.7632
1197.027, 803.9083
1197.509, 804.8799
1197.991, 808.6342
1198.473, 809.0523
1198.955, 813.3895
1199.438, 816.6996
1199.920, 817.5549
1200.402, 815.9318
1200.884, 811.5138
1201.366, 807.8512
1201.848, 811.4331
1202.330, 817.8341
1202.812, 818.2239
1203.294, 815.1264
1203.776, 813.1747
1204.259, 812.8133
1204.741, 813.5009
1205.223, 814.9295
1205.705, 816.2848
1206.187, 816.9814
1206.669, 817.8140
1207.151, 818.9946
1207.633, 820.9050
1208.116, 824.9534
1208.598, 829.0508
1209.080, 830.7029
1209.562, 830.3670
1210.044, 829.6417
1210.526, 828.7433
1211.008, 828.2697
1211.490, 827.6646
1211.973, 828.4862
1212.455, 832.3011
1212.937, 835.9891
1213.419, 838.1539
1213.901, 839.6121
1214.383, 841.1183
1214.865, 842.5806
1215.347, 843.7568
1215.829, 844.7342
1216.312, 844.6312
1216.794, 843.0698
1217.276, 842.5302
1217.758, 843.6478
1218.240, 844.3322
1218.722, 843.4055
1219.204, 842.9188
1219.686, 845.4318
1220.168, 849.5042
1220.651, 851.3976
1221.133, 851.6369
1221.615, 852.3723
1222.097, 853.4526
1222.579, 853.8392
1223.061, 853.3589
1223.543, 851.9899
1224.025, 849.7358
1224.508, 848.7134
1224.990, 851.5662
1225.472, 855.5427
1225.954, 858.4016
1226.436, 860.3972
1226.918, 861.6906
1227.400, 862.3864
1227.882, 862.2414
1228.365, 861.5669
1228.847, 861.5134
1229.329, 862.2162
1229.811, 864.3229
1230.293, 870.3323
1230.775, 874.5630
1231.257, 874.1310
1231.739, 872.4769
1232.221, 871.4224
1232.703, 870.6540
1233.186, 869.2301
1233.668, 867.6216
1234.150, 869.3535
1234.632, 875.9913
1235.114, 879.4893
1235.596, 879.0104
1236.078, 879.2958
1236.560, 881.6473
1237.043, 883.1896
1237.525, 882.1163
1238.007, 880.4418
1238.489, 880.8050
1238.971, 882.5385
1239.453, 884.1019
1239.935, 885.4080
1240.417, 885.3752
1240.900, 884.8201
1241.382, 887.6759
1241.864, 893.6769
1242.346, 896.9362
1242.828, 894.5169
1243.310, 891.0641
1243.792, 889.4866
1244.274, 889.3140
1244.756, 890.8724
1245.239, 892.9603
1245.721, 894.7941
1246.203, 896.1425
1246.685, 896.7370
1247.167, 896.6459
1247.649, 896.1403
1248.131, 894.6793
1248.613, 894.7607
1249.095, 898.9960
1249.578, 901.1548
1250.060, 898.1935
1250.542, 896.2335
1251.024, 899.2207
1251.506, 903.2900
1251.988, 903.6078
1252.470, 901.3326
1252.952, 901.0983
1253.435, 902.9709
1253.917, 903.7661
1254.399, 903.5324
1254.881, 905.7557
1255.363, 910.7875
1255.845, 914.1360
1256.327, 913.7371
1256.809, 911.6091
1257.292, 908.8500
1257.774, 907.3353
1258.256, 910.9636
1258.738, 916.4244
1259.220, 919.5519
1259.702, 920.7111
1260.184, 920.3652
1260.666, 919.2477
1261.148, 919.1682
1261.630, 920.6307
1262.113, 921.0380
1262.595, 916.9230
1263.077, 915.4082
1263.559, 921.2906
1264.041, 926.7902
1264.523, 926.9293
1265.005, 926.2145
1265.487, 929.4126
1265.970, 934.1748
1266.452, 934.8133
1266.934, 931.2484
1267.416, 929.1248
1267.898, 928.4460
1268.380, 929.5449
1268.862, 932.5757
1269.344, 935.2619
1269.827, 936.8844
1270.309, 937.1250
1270.791, 935.5757
1271.273, 934.1686
1271.755, 936.1836
1272.237, 939.8097
1272.719, 942.6238
1273.201, 944.0438
1273.683, 941.2008
1274.166, 936.6922
1274.648, 937.4832
1275.130, 943.6078
1275.612, 947.2284
1276.094, 944.4668
1276.576, 943.2958
1277.058, 949.5474
1277.540, 954.2586
1278.022, 952.9971
1278.505, 950.1276
1278.987, 947.1833
1279.469, 945.3317
1279.951, 946.3375
1280.433, 949.4216
1280.915, 951.4487
1281.397, 952.4929
1281.879, 952.7766
1282.362, 952.1332
1282.844, 952.5159
1283.326, 954.2459
1283.808, 957.1711
1284.290, 961.1413
1284.772, 964.1012
1285.254, 963.9010
1285.736, 960.5311
##END=



