##NAMES=Muscovite
##RRUFFID=R040104
##IDEAL CHEMISTRY=KAl_2_(Si_3_Al)O_10_(OH)_2_
##LOCALITY=unknown
##OWNER=RRUFF
##SOURCE=University of Arizona Mineral Museum
##DESCRIPTION=Dark green hexagonal tablet
##STATUS=The identification of this mineral has been confirmed by X-ray diffraction and chemical analysis
##URL=rruff.info/R040104
##MEASURED CHEMISTRY=(K_0.91_Na_0.09_)_Σ=1_(Al_1.70_Fe^3+^_0.14_Mg_0.08_Fe^2+^_0.06_Ti_0.02_)_Σ=2_(Si_3.12_Al_0.88_)_Σ=4_O_10_(OH)_2_; OH estimated by charge balance
123.5578, 1614.368
124.0400, 1711.979
124.5221, 1814.075
125.0042, 1919.378
125.4863, 2026.277
125.9684, 2121.651
126.4505, 2177.347
126.9327, 2249.654
127.4148, 2336.474
127.8969, 2448.148
128.3790, 2602.051
128.8611, 2812.700
129.3432, 3080.326
129.8254, 3349.151
130.3075, 3613.478
130.7896, 3886.045
131.2717, 4208.262
131.7538, 4548.971
132.2359, 4829.836
132.7181, 4984.377
133.2002, 5002.616
133.6823, 4995.809
134.1644, 4951.005
134.6465, 4898.043
135.1286, 4859.674
135.6108, 4831.592
136.0929, 4787.240
136.5750, 4702.513
137.0571, 4570.730
137.5392, 4421.691
138.0213, 4221.527
138.5035, 4028.777
138.9856, 3874.652
139.4677, 3764.740
139.9498, 3707.527
140.4319, 3714.850
140.9140, 3799.801
141.3961, 3913.497
141.8783, 4075.480
142.3604, 4255.158
142.8425, 4418.959
143.3246, 4561.057
143.8067, 4709.019
144.2888, 4883.464
144.7710, 5080.536
145.2531, 5358.591
145.7352, 5746.617
146.2173, 6127.498
146.6994, 6452.328
147.1815, 6793.629
147.6637, 7082.958
148.1458, 7226.612
148.6279, 7245.467
149.1100, 7217.515
149.5921, 7142.829
150.0742, 7038.964
150.5564, 6940.878
151.0385, 6862.141
151.5206, 6765.540
152.0027, 6596.804
152.4848, 6360.623
152.9669, 6114.906
153.4491, 5851.120
153.9312, 5591.376
154.4133, 5400.632
154.8954, 5307.832
155.3775, 5257.382
155.8596, 5182.635
156.3418, 5083.215
156.8239, 5001.716
157.3060, 4957.354
157.7881, 4946.735
158.2702, 4961.936
158.7523, 5013.504
159.2345, 5074.049
159.7166, 5114.748
160.1987, 5136.059
160.6808, 5157.676
161.1629, 5206.527
161.6451, 5273.541
162.1272, 5299.507
162.6093, 5259.824
163.0914, 5191.022
163.5735, 5124.850
164.0556, 5062.028
164.5378, 5004.458
165.0199, 4954.498
165.5020, 4911.867
165.9841, 4872.675
166.4662, 4839.582
166.9483, 4807.178
167.4305, 4772.804
167.9126, 4736.428
168.3947, 4695.591
168.8768, 4645.485
169.3589, 4586.235
169.8410, 4531.378
170.3232, 4488.017
170.8053, 4445.510
171.2874, 4393.138
171.7695, 4330.595
172.2516, 4271.395
172.7337, 4227.729
173.2159, 4199.776
173.6980, 4178.624
174.1801, 4166.394
174.6622, 4157.790
175.1443, 4156.158
175.6264, 4160.346
176.1085, 4152.283
176.5907, 4103.168
177.0728, 4005.582
177.5549, 3933.401
178.0370, 3915.871
178.5191, 3915.939
179.0012, 3916.027
179.4834, 3913.534
179.9655, 3911.845
180.4476, 3914.717
180.9297, 3922.652
181.4118, 3931.451
181.8939, 3935.943
182.3761, 3944.762
182.8582, 3961.688
183.3403, 3987.490
183.8224, 4022.309
184.3045, 4068.212
184.7866, 4126.422
185.2688, 4185.941
185.7509, 4249.747
186.2330, 4311.537
186.7151, 4368.249
187.1972, 4419.647
187.6793, 4465.970
188.1615, 4507.755
188.6436, 4544.800
189.1257, 4578.501
189.6078, 4604.353
190.0899, 4630.313
190.5720, 4663.259
191.0542, 4702.271
191.5363, 4737.994
192.0184, 4758.317
192.5005, 4760.208
192.9826, 4764.954
193.4647, 4787.108
193.9469, 4802.111
194.4290, 4798.845
194.9111, 4776.395
195.3932, 4740.308
195.8753, 4691.495
196.3574, 4626.099
196.8396, 4570.687
197.3217, 4540.002
197.8038, 4508.860
198.2859, 4466.471
198.7680, 4412.557
199.2501, 4353.636
199.7323, 4293.835
200.2144, 4231.577
200.6965, 4177.755
201.1786, 4145.832
201.6607, 4111.499
202.1428, 4059.710
202.6250, 3994.180
203.1071, 3932.462
203.5892, 3890.934
204.0713, 3871.070
204.5534, 3854.894
205.0355, 3847.057
205.5177, 3838.899
205.9998, 3828.460
206.4819, 3814.989
206.9640, 3797.215
207.4461, 3768.943
207.9282, 3729.261
208.4104, 3711.184
208.8925, 3734.286
209.3746, 3761.557
209.8567, 3785.412
210.3388, 3802.778
210.8209, 3808.722
211.3030, 3792.060
211.7852, 3754.972
212.2673, 3747.087
212.7494, 3801.951
213.2315, 3850.400
213.7136, 3868.136
214.1957, 3861.147
214.6779, 3844.143
215.1600, 3827.160
215.6421, 3809.068
216.1242, 3780.979
216.6063, 3739.991
217.0884, 3691.746
217.5706, 3639.330
218.0527, 3581.599
218.5348, 3515.870
219.0169, 3438.225
219.4990, 3352.321
219.9811, 3274.278
220.4633, 3208.776
220.9454, 3144.543
221.4275, 3080.665
221.9096, 3015.054
222.3917, 2943.478
222.8738, 2861.246
223.3560, 2774.651
223.8381, 2702.955
224.3202, 2654.026
224.8023, 2606.128
225.2844, 2548.716
225.7665, 2489.638
226.2487, 2438.838
226.7308, 2400.903
227.2129, 2371.913
227.6950, 2345.725
228.1771, 2324.873
228.6592, 2300.288
229.1414, 2263.691
229.6235, 2225.141
230.1056, 2193.853
230.5877, 2172.928
231.0698, 2159.572
231.5519, 2149.950
232.0341, 2144.209
232.5162, 2141.890
232.9983, 2143.795
233.4804, 2148.643
233.9625, 2156.659
234.4446, 2168.096
234.9268, 2180.022
235.4089, 2187.742
235.8910, 2190.344
236.3731, 2196.816
236.8552, 2211.847
237.3373, 2229.928
237.8195, 2246.204
238.3016, 2260.089
238.7837, 2277.087
239.2658, 2302.042
239.7479, 2334.902
240.2300, 2372.040
240.7122, 2412.575
241.1943, 2458.014
241.6764, 2510.707
242.1585, 2570.314
242.6406, 2629.810
243.1227, 2681.541
243.6049, 2727.839
244.0870, 2781.239
244.5691, 2840.800
245.0512, 2912.273
245.5333, 2995.807
246.0154, 3091.904
246.4975, 3203.634
246.9797, 3336.147
247.4618, 3485.694
247.9439, 3642.588
248.4260, 3806.066
248.9081, 3977.785
249.3902, 4152.256
249.8724, 4333.725
250.3545, 4537.688
250.8366, 4758.847
251.3187, 5009.162
251.8008, 5315.412
252.2829, 5685.833
252.7651, 6067.648
253.2472, 6420.636
253.7293, 6759.064
254.2114, 7115.799
254.6935, 7491.029
255.1756, 7891.479
255.6578, 8337.950
256.1399, 8829.971
256.6220, 9305.072
257.1041, 9731.109
257.5862, 10111.20
258.0684, 10475.78
258.5505, 10845.38
259.0326, 11173.42
259.5147, 11436.66
259.9968, 11634.93
260.4789, 11763.57
260.9611, 11827.64
261.4432, 11810.81
261.9253, 11683.15
262.4074, 11423.49
262.8895, 11120.35
263.3716, 10804.33
263.8537, 10470.70
264.3358, 10100.46
264.8180, 9683.596
265.3001, 9243.012
265.7822, 8815.566
266.2643, 8395.335
266.7464, 7994.735
267.2285, 7616.773
267.7107, 7259.102
268.1928, 6919.116
268.6749, 6596.743
269.1570, 6291.221
269.6391, 6004.739
270.1212, 5740.850
270.6034, 5487.359
271.0855, 5237.850
271.5676, 5001.484
272.0497, 4788.650
272.5318, 4598.649
273.0139, 4426.159
273.4961, 4266.224
273.9782, 4120.695
274.4603, 3981.080
274.9424, 3848.921
275.4245, 3721.469
275.9066, 3591.389
276.3888, 3464.010
276.8709, 3353.449
277.3530, 3270.017
277.8351, 3210.823
278.3172, 3148.015
278.7993, 3078.409
279.2815, 3008.628
279.7636, 2936.814
280.2457, 2866.260
280.7278, 2800.876
281.2099, 2742.645
281.6920, 2690.045
282.1742, 2638.448
282.6563, 2581.388
283.1384, 2536.016
283.6205, 2516.102
284.1026, 2500.434
284.5847, 2467.915
285.0669, 2413.705
285.5490, 2351.011
286.0311, 2300.345
286.5132, 2264.800
286.9953, 2232.772
287.4774, 2204.365
287.9596, 2178.446
288.4417, 2151.734
288.9238, 2125.723
289.4059, 2107.677
289.8880, 2109.860
290.3701, 2134.298
290.8523, 2141.903
291.3344, 2119.517
291.8165, 2092.822
292.2986, 2067.074
292.7807, 2045.312
293.2628, 2033.012
293.7450, 2037.774
294.2271, 2053.658
294.7092, 2058.990
295.1913, 2049.614
295.6734, 2038.140
296.1555, 2030.091
296.6377, 2023.446
297.1198, 2015.320
297.6019, 2003.734
298.0840, 1991.988
298.5661, 1984.017
299.0482, 1979.829
299.5304, 1979.764
300.0125, 1985.580
300.4946, 1994.942
300.9767, 2006.585
301.4588, 2022.028
301.9409, 2033.060
302.4231, 2028.314
302.9052, 2012.774
303.3873, 2008.302
303.8694, 2023.472
304.3515, 2046.246
304.8336, 2062.751
305.3158, 2073.340
305.7979, 2081.158
306.2800, 2085.939
306.7621, 2089.046
307.2442, 2091.976
307.7263, 2094.868
308.2085, 2098.684
308.6906, 2105.079
309.1727, 2114.023
309.6548, 2119.824
310.1369, 2120.295
310.6190, 2119.194
311.1012, 2118.072
311.5833, 2117.343
312.0654, 2118.427
312.5475, 2122.864
313.0296, 2129.558
313.5117, 2131.310
313.9939, 2128.605
314.4760, 2121.398
314.9581, 2100.475
315.4402, 2077.395
315.9223, 2073.829
316.4044, 2098.640
316.8866, 2133.149
317.3687, 2138.735
317.8508, 2088.935
318.3329, 2050.451
318.8150, 2025.648
319.2971, 2009.606
319.7793, 2001.642
320.2614, 1999.963
320.7435, 1998.335
321.2256, 1988.548
321.7077, 1967.765
322.1898, 1956.478
322.6720, 1967.208
323.1541, 1975.551
323.6362, 1971.345
324.1183, 1957.910
324.6004, 1944.107
325.0826, 1936.368
325.5647, 1932.437
326.0468, 1921.905
326.5289, 1898.933
327.0110, 1880.320
327.4931, 1873.840
327.9753, 1872.749
328.4574, 1870.909
328.9395, 1866.979
329.4216, 1858.727
329.9037, 1841.343
330.3858, 1814.053
330.8680, 1787.711
331.3501, 1759.353
331.8322, 1738.469
332.3143, 1737.787
332.7964, 1757.973
333.2785, 1773.784
333.7606, 1766.847
334.2427, 1744.276
334.7249, 1723.883
335.2070, 1707.125
335.6891, 1695.129
336.1712, 1691.322
336.6533, 1694.053
337.1354, 1695.495
337.6176, 1691.656
338.0997, 1687.847
338.5818, 1690.264
339.0639, 1698.096
339.5460, 1704.061
340.0281, 1703.728
340.5103, 1698.313
340.9924, 1693.287
341.4745, 1689.120
341.9566, 1684.720
342.4387, 1676.993
342.9208, 1669.590
343.4030, 1669.160
343.8851, 1677.966
344.3672, 1690.713
344.8493, 1698.593
345.3314, 1699.074
345.8135, 1699.784
346.2957, 1699.270
346.7778, 1700.105
347.2599, 1705.440
347.7420, 1714.340
348.2241, 1721.730
348.7062, 1721.510
349.1884, 1713.747
349.6705, 1719.959
350.1526, 1758.665
350.6347, 1791.367
351.1168, 1804.463
351.5989, 1807.028
352.0811, 1812.453
352.5632, 1827.024
353.0453, 1847.098
353.5274, 1866.132
354.0095, 1884.355
354.4916, 1900.400
354.9738, 1908.831
355.4559, 1918.109
355.9380, 1935.583
356.4201, 1961.899
356.9022, 1989.236
357.3843, 2012.373
357.8665, 2031.354
358.3486, 2045.491
358.8307, 2051.935
359.3128, 2059.067
359.7949, 2074.100
360.2770, 2095.441
360.7592, 2119.325
361.2413, 2145.881
361.7234, 2173.766
362.2055, 2202.596
362.6876, 2232.163
363.1697, 2259.641
363.6519, 2283.200
364.1340, 2303.843
364.6161, 2324.758
365.0982, 2347.068
365.5803, 2368.177
366.0624, 2384.128
366.5446, 2399.609
367.0267, 2422.419
367.5088, 2454.366
367.9909, 2489.585
368.4730, 2519.625
368.9551, 2542.460
369.4373, 2567.134
369.9194, 2595.822
370.4015, 2624.132
370.8836, 2648.009
371.3657, 2669.169
371.8478, 2692.658
372.3300, 2722.410
372.8121, 2757.074
373.2942, 2789.938
373.7763, 2819.969
374.2584, 2849.493
374.7405, 2879.674
375.2227, 2909.206
375.7048, 2937.478
376.1869, 2964.204
376.6690, 2988.665
377.1511, 3010.517
377.6332, 3029.762
378.1154, 3043.397
378.5975, 3042.707
379.0796, 3046.173
379.5617, 3071.729
380.0438, 3114.420
380.5259, 3150.498
381.0081, 3160.720
381.4902, 3161.051
381.9723, 3179.329
382.4544, 3217.344
382.9365, 3254.170
383.4186, 3276.177
383.9008, 3288.383
384.3829, 3307.547
384.8650, 3336.728
385.3471, 3367.971
385.8292, 3398.031
386.3113, 3427.991
386.7935, 3459.154
387.2756, 3491.922
387.7577, 3527.378
388.2398, 3566.711
388.7219, 3609.812
389.2040, 3659.285
389.6862, 3721.276
390.1683, 3784.028
390.6504, 3840.902
391.1325, 3892.694
391.6146, 3941.762
392.0967, 3989.703
392.5789, 4037.144
393.0610, 4086.431
393.5431, 4127.130
394.0252, 4187.900
394.5073, 4289.310
394.9894, 4401.500
395.4716, 4496.778
395.9537, 4567.922
396.4358, 4629.574
396.9179, 4695.099
397.4000, 4764.408
397.8821, 4843.036
398.3643, 4938.577
398.8464, 5033.698
399.3285, 5113.546
399.8106, 5183.401
400.2927, 5260.489
400.7748, 5359.556
401.2570, 5464.016
401.7391, 5556.793
402.2212, 5637.921
402.7033, 5707.431
403.1854, 5761.548
403.6675, 5806.677
404.1497, 5857.176
404.6317, 5912.192
405.1139, 5973.816
405.5960, 6055.913
406.0781, 6138.358
406.5602, 6196.607
407.0423, 6226.640
407.5244, 6242.963
408.0066, 6260.195
408.4887, 6279.457
408.9708, 6287.092
409.4529, 6278.145
409.9350, 6264.181
410.4171, 6251.994
410.8993, 6236.339
411.3814, 6209.193
411.8635, 6166.857
412.3456, 6111.434
412.8277, 6045.298
413.3098, 5965.502
413.7920, 5885.015
414.2741, 5809.898
414.7562, 5731.617
415.2383, 5643.121
415.7204, 5545.490
416.2025, 5448.299
416.6847, 5361.467
417.1668, 5278.930
417.6489, 5183.717
418.1310, 5073.052
418.6131, 4962.399
419.0952, 4860.126
419.5774, 4764.090
420.0595, 4669.138
420.5416, 4577.371
421.0237, 4482.036
421.5058, 4371.755
421.9879, 4257.423
422.4701, 4162.122
422.9522, 4092.219
423.4343, 4028.053
423.9164, 3944.511
424.3985, 3834.146
424.8806, 3740.037
425.3628, 3676.695
425.8449, 3612.746
426.3270, 3526.702
426.8091, 3429.925
427.2912, 3346.955
427.7733, 3292.056
428.2555, 3254.498
428.7376, 3206.461
429.2197, 3142.302
429.7018, 3081.906
430.1839, 3024.969
430.6660, 2974.918
431.1482, 2939.233
431.6303, 2915.780
432.1124, 2888.215
432.5945, 2843.450
433.0766, 2785.970
433.5587, 2725.497
434.0409, 2659.835
434.5230, 2602.642
435.0051, 2565.443
435.4872, 2541.604
435.9693, 2515.532
436.4514, 2487.642
436.9336, 2455.490
437.4157, 2414.677
437.8978, 2369.492
438.3799, 2326.271
438.8620, 2286.532
439.3441, 2251.230
439.8263, 2221.829
440.3084, 2199.746
440.7905, 2175.678
441.2726, 2151.261
441.7547, 2123.438
442.2368, 2086.228
442.7190, 2045.700
443.2011, 2013.240
443.6832, 1994.583
444.1653, 1982.779
444.6474, 1963.006
445.1295, 1931.751
445.6117, 1904.763
446.0938, 1886.517
446.5759, 1871.183
447.0580, 1858.451
447.5401, 1846.749
448.0222, 1830.607
448.5044, 1804.758
448.9865, 1773.274
449.4686, 1741.051
449.9507, 1707.500
450.4328, 1682.797
450.9149, 1674.878
451.3971, 1677.007
451.8792, 1674.375
452.3613, 1666.876
452.8434, 1655.521
453.3255, 1634.566
453.8076, 1613.026
454.2898, 1603.378
454.7719, 1606.210
455.2540, 1610.018
455.7361, 1604.371
456.2182, 1589.633
456.7003, 1577.955
457.1825, 1570.362
457.6646, 1564.805
458.1467, 1561.317
458.6288, 1559.558
459.1109, 1560.794
459.5930, 1565.041
460.0752, 1567.041
460.5573, 1557.281
461.0394, 1535.768
461.5215, 1524.503
462.0036, 1530.221
462.4857, 1537.880
462.9679, 1535.925
463.4500, 1528.981
463.9321, 1527.850
464.4142, 1540.610
464.8963, 1553.649
465.3784, 1553.084
465.8606, 1543.011
466.3427, 1539.154
466.8248, 1548.210
467.3069, 1557.115
467.7890, 1545.357
468.2711, 1502.067
468.7533, 1478.640
469.2354, 1489.107
469.7175, 1505.729
470.1996, 1516.925
470.6817, 1522.089
471.1638, 1523.018
471.6460, 1520.575
472.1281, 1515.187
472.6102, 1507.311
473.0923, 1495.564
473.5744, 1485.188
474.0565, 1476.551
474.5387, 1469.749
475.0208, 1466.806
475.5029, 1466.446
475.9850, 1463.096
476.4671, 1447.589
476.9492, 1429.883
477.4313, 1431.362
477.9135, 1452.144
478.3956, 1464.791
478.8777, 1453.601
479.3598, 1430.391
479.8419, 1420.707
480.3240, 1428.702
480.8062, 1434.118
481.2883, 1433.910
481.7704, 1428.872
482.2525, 1416.318
482.7346, 1398.622
483.2167, 1384.944
483.6989, 1382.950
484.1810, 1389.529
484.6631, 1387.679
485.1452, 1368.272
485.6273, 1355.664
486.1094, 1359.543
486.5916, 1366.427
487.0737, 1365.348
487.5558, 1355.254
488.0379, 1342.877
488.5200, 1334.202
489.0021, 1327.389
489.4843, 1314.421
489.9664, 1292.939
490.4485, 1278.028
490.9306, 1282.533
491.4127, 1297.154
491.8948, 1298.952
492.3770, 1281.507
492.8591, 1265.770
493.3412, 1260.603
493.8233, 1260.010
494.3054, 1258.027
494.7875, 1253.347
495.2697, 1245.513
495.7518, 1233.686
496.2339, 1218.246
496.7160, 1204.284
497.1981, 1190.434
497.6802, 1180.087
498.1624, 1176.408
498.6445, 1174.699
499.1266, 1170.206
499.6087, 1162.208
500.0908, 1154.316
500.5729, 1149.056
501.0551, 1146.502
501.5372, 1148.278
502.0193, 1156.174
502.5014, 1161.525
502.9835, 1157.666
503.4656, 1148.180
503.9478, 1142.303
504.4299, 1142.671
504.9120, 1141.793
505.3941, 1136.117
505.8762, 1127.935
506.3583, 1119.623
506.8405, 1111.747
507.3226, 1105.023
507.8047, 1100.741
508.2868, 1098.348
508.7689, 1089.622
509.2510, 1064.558
509.7332, 1046.722
510.2153, 1041.367
510.6974, 1043.712
511.1795, 1051.715
511.6616, 1064.094
512.1437, 1074.611
512.6259, 1075.247
513.1080, 1069.420
513.5901, 1070.758
514.0722, 1081.147
514.5543, 1091.323
515.0364, 1097.610
515.5186, 1099.306
516.0007, 1094.825
516.4828, 1078.944
516.9649, 1068.058
517.4470, 1070.252
517.9291, 1078.228
518.4113, 1085.596
518.8934, 1090.831
519.3755, 1092.910
519.8576, 1090.429
520.3397, 1084.438
520.8218, 1081.786
521.3040, 1082.079
521.7861, 1086.684
522.2682, 1103.160
522.7503, 1118.395
523.2324, 1117.155
523.7145, 1100.251
524.1967, 1088.934
524.6788, 1106.245
525.1609, 1137.118
525.6430, 1148.245
526.1251, 1138.446
526.6072, 1124.058
527.0894, 1110.223
527.5715, 1098.943
528.0536, 1095.386
528.5357, 1101.293
529.0178, 1108.714
529.4999, 1120.069
529.9821, 1129.839
530.4642, 1132.328
530.9463, 1129.010
531.4284, 1125.904
531.9105, 1127.006
532.3926, 1130.207
532.8748, 1128.053
533.3569, 1116.197
533.8390, 1112.505
534.3211, 1121.575
534.8032, 1138.735
535.2853, 1168.884
535.7675, 1207.012
536.2496, 1230.583
536.7317, 1218.022
537.2138, 1194.784
537.6959, 1189.805
538.1780, 1199.194
538.6602, 1205.282
539.1423, 1201.047
539.6244, 1193.584
540.1065, 1193.644
540.5886, 1203.887
541.0707, 1212.430
541.5529, 1217.350
542.0350, 1222.725
542.5171, 1230.675
542.9992, 1240.173
543.4813, 1250.675
543.9634, 1262.178
544.4456, 1270.142
544.9277, 1266.296
545.4098, 1250.920
545.8919, 1237.130
546.3740, 1222.988
546.8561, 1217.170
547.3383, 1232.004
547.8204, 1259.891
548.3025, 1281.109
548.7846, 1295.663
549.2667, 1300.226
549.7488, 1287.525
550.2310, 1266.248
550.7131, 1245.162
551.1952, 1227.512
551.6773, 1221.507
552.1594, 1237.069
552.6415, 1272.064
553.1237, 1294.841
553.6058, 1298.713
554.0879, 1300.354
554.5700, 1304.398
555.0521, 1307.167
555.5342, 1302.843
556.0164, 1291.646
556.4985, 1284.820
556.9806, 1292.492
557.4627, 1308.196
557.9448, 1322.084
558.4269, 1333.769
558.9091, 1341.229
559.3912, 1343.139
559.8733, 1340.842
560.3554, 1336.614
560.8375, 1327.615
561.3196, 1323.121
561.8018, 1324.773
562.2839, 1329.497
562.7660, 1339.923
563.2481, 1351.553
563.7302, 1354.531
564.2123, 1343.300
564.6945, 1325.966
565.1766, 1315.294
565.6587, 1311.341
566.1408, 1310.891
566.6229, 1313.872
567.1050, 1319.663
567.5872, 1328.653
568.0693, 1340.178
568.5514, 1352.478
569.0335, 1370.121
569.5156, 1382.795
569.9977, 1381.196
570.4799, 1373.338
570.9620, 1369.184
571.4441, 1371.380
571.9262, 1381.062
572.4083, 1401.942
572.8904, 1431.679
573.3726, 1442.681
573.8547, 1423.334
574.3368, 1405.594
574.8189, 1395.606
575.3010, 1391.316
575.7831, 1392.320
576.2653, 1398.272
576.7474, 1405.707
577.2295, 1415.223
577.7116, 1423.776
578.1937, 1425.057
578.6758, 1420.586
579.1580, 1421.197
579.6401, 1432.708
580.1222, 1446.956
580.6042, 1448.451
581.0864, 1428.221
581.5685, 1422.420
582.0506, 1444.727
582.5327, 1465.005
583.0148, 1469.656
583.4969, 1464.174
583.9791, 1456.742
584.4612, 1449.846
584.9433, 1447.523
585.4254, 1457.751
585.9075, 1477.107
586.3896, 1489.507
586.8718, 1492.236
587.3539, 1493.156
587.8360, 1497.491
588.3181, 1504.057
588.8002, 1508.231
589.2823, 1508.814
589.7645, 1509.126
590.2466, 1504.962
590.7287, 1504.241
591.2108, 1518.251
591.6929, 1542.920
592.1750, 1562.122
592.6572, 1564.616
593.1393, 1556.986
593.6214, 1553.785
594.1035, 1555.191
594.5856, 1559.105
595.0677, 1564.695
595.5499, 1573.255
596.0320, 1587.148
596.5141, 1605.408
596.9962, 1623.548
597.4783, 1642.193
597.9604, 1659.162
598.4426, 1674.808
598.9247, 1687.498
599.4068, 1692.250
599.8889, 1689.284
600.3710, 1687.872
600.8531, 1698.324
601.3353, 1718.697
601.8174, 1730.460
602.2995, 1728.132
602.7816, 1729.767
603.2637, 1749.996
603.7458, 1769.720
604.2280, 1766.474
604.7101, 1740.553
605.1922, 1727.173
605.6743, 1749.186
606.1564, 1781.689
606.6385, 1806.552
607.1207, 1822.897
607.6028, 1827.724
608.0849, 1819.739
608.5670, 1812.002
609.0491, 1825.300
609.5313, 1864.499
610.0134, 1886.667
610.4955, 1879.075
610.9776, 1871.182
611.4597, 1870.926
611.9418, 1875.890
612.4240, 1883.370
612.9061, 1892.879
613.3882, 1904.739
613.8703, 1921.228
614.3524, 1939.148
614.8345, 1956.123
615.3167, 1970.910
615.7988, 1976.613
616.2809, 1968.479
616.7630, 1955.243
617.2451, 1954.819
617.7272, 1972.812
618.2094, 1987.796
618.6915, 1995.446
619.1736, 2004.668
619.6557, 2024.909
620.1378, 2046.825
620.6199, 2053.918
621.1021, 2039.480
621.5842, 2022.250
622.0663, 2013.319
622.5484, 2013.860
623.0305, 2032.323
623.5126, 2068.112
623.9948, 2095.661
624.4769, 2097.947
624.9590, 2084.479
625.4411, 2082.631
625.9232, 2106.870
626.4053, 2116.093
626.8875, 2092.764
627.3696, 2073.256
627.8517, 2080.924
628.3338, 2105.848
628.8159, 2126.227
629.2980, 2133.920
629.7802, 2134.242
630.2623, 2130.551
630.7444, 2123.850
631.2265, 2116.625
631.7086, 2109.187
632.1907, 2102.940
632.6729, 2099.497
633.1550, 2097.514
633.6371, 2091.621
634.1192, 2072.325
634.6013, 2063.744
635.0834, 2075.646
635.5656, 2089.439
636.0477, 2093.642
636.5298, 2090.447
637.0119, 2088.467
637.4940, 2093.353
637.9761, 2095.260
638.4583, 2080.260
638.9404, 2052.884
639.4225, 2027.034
639.9046, 2004.673
640.3867, 1988.139
640.8688, 1980.047
641.3510, 1978.894
641.8331, 1977.610
642.3152, 1979.810
642.7973, 1976.391
643.2794, 1969.255
643.7615, 1954.656
644.2437, 1923.395
644.7258, 1882.637
645.2079, 1851.552
645.6900, 1840.905
646.1721, 1838.147
646.6542, 1829.159
647.1364, 1816.202
647.6185, 1808.361
648.1006, 1807.457
648.5827, 1804.572
649.0648, 1793.243
649.5469, 1774.163
650.0291, 1751.365
650.5112, 1722.493
650.9933, 1693.225
651.4754, 1653.578
651.9575, 1622.661
652.4396, 1620.912
652.9218, 1637.951
653.4039, 1643.530
653.8860, 1620.195
654.3681, 1591.872
654.8502, 1584.664
655.3323, 1592.270
655.8145, 1599.139
656.2966, 1602.662
656.7787, 1600.592
657.2608, 1590.222
657.7429, 1573.836
658.2250, 1561.403
658.7072, 1559.131
659.1893, 1549.636
659.6714, 1523.653
660.1535, 1498.678
660.6356, 1483.631
661.1177, 1477.533
661.5999, 1477.102
662.0820, 1483.718
662.5641, 1489.236
663.0462, 1483.165
663.5283, 1472.106
664.0104, 1470.855
664.4926, 1480.439
664.9747, 1489.200
665.4568, 1489.103
665.9389, 1482.699
666.4210, 1477.852
666.9031, 1475.294
667.3853, 1472.484
667.8674, 1465.998
668.3495, 1462.689
668.8316, 1466.896
669.3137, 1476.408
669.7958, 1486.723
670.2780, 1496.732
670.7601, 1507.404
671.2422, 1522.304
671.7243, 1536.542
672.2064, 1540.473
672.6885, 1535.888
673.1707, 1535.199
673.6528, 1545.463
674.1349, 1564.189
674.6170, 1587.022
675.0991, 1615.432
675.5812, 1641.948
676.0634, 1666.613
676.5455, 1688.854
677.0276, 1705.838
677.5097, 1721.092
677.9918, 1739.180
678.4739, 1759.047
678.9561, 1787.172
679.4382, 1835.494
679.9203, 1885.525
680.4024, 1915.473
680.8845, 1932.455
681.3666, 1959.707
681.8488, 2007.612
682.3309, 2063.317
682.8130, 2107.560
683.2951, 2140.454
683.7772, 2181.765
684.2593, 2233.359
684.7415, 2287.173
685.2236, 2333.194
685.7057, 2383.514
686.1878, 2465.480
686.6699, 2588.228
687.1520, 2695.132
687.6342, 2766.370
688.1163, 2834.196
688.5984, 2912.359
689.0805, 3000.031
689.5626, 3093.684
690.0447, 3192.412
690.5269, 3300.846
691.0090, 3429.348
691.4911, 3569.892
691.9732, 3692.539
692.4553, 3797.270
692.9374, 3918.881
693.4196, 4072.974
693.9017, 4241.698
694.3838, 4405.005
694.8659, 4563.726
695.3480, 4711.632
695.8301, 4842.416
696.3123, 4971.988
696.7944, 5111.549
697.2765, 5246.571
697.7586, 5361.610
698.2407, 5455.753
698.7228, 5538.271
699.2050, 5620.552
699.6871, 5688.102
700.1692, 5722.443
700.6513, 5727.687
701.1334, 5719.524
701.6155, 5701.063
702.0977, 5650.471
702.5798, 5541.862
703.0619, 5386.781
703.5440, 5262.475
704.0261, 5190.621
704.5082, 5097.593
704.9904, 4968.710
705.4725, 4817.150
705.9546, 4641.036
706.4367, 4448.742
706.9188, 4265.292
707.4009, 4097.416
707.8831, 3933.565
708.3652, 3761.135
708.8473, 3593.864
709.3294, 3453.666
709.8115, 3334.966
710.2936, 3210.199
710.7758, 3062.063
711.2579, 2911.142
711.7400, 2797.186
712.2221, 2719.742
712.7042, 2640.402
713.1863, 2556.005
713.6685, 2471.537
714.1506, 2386.038
714.6327, 2304.927
715.1148, 2241.688
715.5969, 2206.780
716.0790, 2161.400
716.5612, 2090.225
717.0433, 2022.409
717.5254, 1975.412
718.0075, 1940.055
718.4896, 1898.766
718.9717, 1847.412
719.4539, 1803.007
719.9360, 1783.352
720.4181, 1777.616
720.9002, 1769.782
721.3823, 1758.615
721.8644, 1737.693
722.3465, 1704.040
722.8286, 1669.552
723.3107, 1649.565
723.7928, 1644.115
724.2750, 1634.519
724.7571, 1614.771
725.2392, 1601.742
725.7213, 1608.216
726.2034, 1615.857
726.6855, 1607.446
727.1677, 1586.226
727.6498, 1573.043
728.1319, 1579.290
728.6140, 1588.388
729.0961, 1590.501
729.5782, 1591.265
730.0604, 1598.897
730.5425, 1612.988
731.0246, 1626.580
731.5067, 1635.159
731.9888, 1640.977
732.4709, 1645.571
732.9531, 1649.496
733.4352, 1667.544
733.9173, 1705.419
734.3994, 1739.173
734.8815, 1753.273
735.3636, 1753.969
735.8458, 1757.050
736.3279, 1757.495
736.8100, 1771.888
737.2921, 1812.356
737.7742, 1853.203
738.2563, 1883.182
738.7385, 1906.669
739.2206, 1930.554
739.7027, 1956.605
740.1848, 1982.253
740.6669, 2006.334
741.1490, 2028.842
741.6312, 2058.442
742.1133, 2086.306
742.5954, 2075.642
743.0775, 2017.696
743.5596, 1968.657
744.0417, 1993.078
744.5239, 2078.896
745.0060, 2143.863
745.4881, 2184.746
745.9702, 2216.109
746.4523, 2243.090
746.9344, 2258.680
747.4166, 2247.237
747.8987, 2215.703
748.3808, 2206.271
748.8629, 2241.438
749.3450, 2269.922
749.8271, 2279.172
750.3093, 2280.344
750.7914, 2280.489
751.2735, 2280.385
751.7556, 2280.343
752.2377, 2281.393
752.7198, 2276.795
753.2020, 2254.978
753.6841, 2223.911
754.1662, 2202.048
754.6483, 2189.506
755.1304, 2176.575
755.6125, 2158.938
756.0947, 2137.817
756.5768, 2115.476
757.0589, 2092.160
757.5410, 2063.546
758.0231, 2025.361
758.5052, 1990.997
758.9874, 1966.525
759.4695, 1946.664
759.9516, 1925.496
760.4337, 1903.225
760.9158, 1882.855
761.3979, 1871.088
761.8801, 1853.604
762.3622, 1822.615
762.8443, 1784.562
763.3264, 1745.263
763.8085, 1705.632
764.2906, 1663.697
764.7728, 1616.283
765.2549, 1571.834
765.7370, 1545.685
766.2191, 1531.167
766.7012, 1503.765
767.1833, 1461.847
767.6655, 1429.259
768.1476, 1420.756
768.6297, 1424.575
769.1118, 1416.403
769.5939, 1392.875
770.0760, 1374.917
770.5582, 1367.190
771.0403, 1357.206
771.5224, 1336.412
772.0045, 1313.233
772.4866, 1298.071
772.9688, 1291.474
773.4509, 1283.312
773.9330, 1275.170
774.4151, 1261.038
774.8972, 1231.045
775.3793, 1198.086
775.8615, 1176.368
776.3436, 1167.094
776.8257, 1163.942
777.3078, 1164.260
777.7899, 1166.562
778.2720, 1170.540
778.7542, 1174.783
779.2363, 1174.367
779.7184, 1168.948
780.2005, 1162.905
780.6826, 1158.645
781.1647, 1156.367
781.6469, 1156.781
782.1290, 1160.338
782.6111, 1164.753
783.0932, 1172.659
783.5753, 1176.160
784.0574, 1171.795
784.5396, 1161.358
785.0217, 1141.525
785.5038, 1110.009
785.9859, 1103.078
786.4680, 1159.082
786.9501, 1198.489
787.4323, 1176.088
787.9144, 1133.757
788.3965, 1115.780
788.8786, 1122.572
789.3607, 1127.168
789.8428, 1112.408
790.3250, 1096.668
790.8071, 1103.890
791.2892, 1122.231
791.7713, 1126.107
792.2534, 1115.020
792.7355, 1106.194
793.2177, 1109.194
793.6998, 1116.454
794.1819, 1114.016
794.6640, 1101.487
795.1461, 1093.163
795.6282, 1091.244
796.1104, 1084.596
796.5925, 1065.732
797.0746, 1044.754
797.5567, 1036.110
798.0388, 1041.171
798.5209, 1040.177
799.0031, 1027.399
799.4852, 1016.728
799.9673, 1011.987
800.4494, 1009.136
800.9315, 1002.623
801.4136, 995.0940
801.8958, 996.1428
802.3779, 1013.110
802.8600, 1029.061
803.3421, 1037.421
803.8242, 1036.573
804.3063, 1016.193
804.7885, 985.2814
805.2706, 970.2520
805.7527, 981.3389
806.2348, 999.5070
806.7169, 1000.927
807.1990, 990.9590
807.6812, 992.4817
808.1633, 1004.831
808.6454, 1007.201
809.1275, 992.1733
809.6096, 973.9764
810.0917, 967.3889
810.5739, 970.4904
811.0560, 968.6160
811.5381, 958.2026
812.0202, 951.5303
812.5023, 954.1664
812.9844, 955.8430
813.4666, 949.5747
813.9487, 938.2887
814.4308, 926.9739
814.9129, 914.6547
815.3950, 906.7618
815.8771, 909.9360
816.3593, 911.9988
816.8414, 903.2314
817.3235, 890.3817
817.8056, 883.4679
818.2877, 884.0811
818.7698, 886.3326
819.2520, 887.9459
819.7341, 887.7522
820.2162, 881.9713
820.6983, 874.0633
821.1804, 872.8459
821.6625, 878.4811
822.1447, 882.1741
822.6268, 877.9632
823.1089, 870.0658
823.5910, 866.4596
824.0731, 866.9791
824.5552, 868.1545
825.0374, 870.2045
825.5195, 869.4397
826.0016, 862.6947
826.4837, 855.9035
826.9658, 859.5044
827.4479, 875.2557
827.9301, 877.7775
828.4122, 856.5754
828.8943, 838.6484
829.3764, 828.5242
829.8585, 823.8134
830.3406, 824.8173
830.8228, 830.0176
831.3049, 834.4660
831.7870, 835.6465
832.2691, 839.3936
832.7512, 852.3516
833.2333, 863.9780
833.7155, 863.8859
834.1976, 857.4645
834.6797, 856.2878
835.1618, 863.3621
835.6439, 869.1954
836.1260, 863.4863
836.6082, 854.9609
837.0903, 858.0529
837.5724, 866.9647
838.0545, 865.7967
838.5366, 852.3405
839.0187, 836.3656
839.5009, 823.9545
839.9830, 817.9605
840.4651, 829.0561
840.9472, 855.8232
841.4293, 870.0402
841.9114, 868.0875
842.3936, 861.9756
842.8757, 855.3376
843.3578, 853.4451
843.8399, 867.9616
844.3220, 902.7252
844.8041, 913.1417
845.2863, 880.6466
845.7684, 858.0266
846.2505, 865.2164
846.7326, 879.4977
847.2147, 882.6440
847.6968, 876.9609
848.1790, 871.8585
848.6611, 865.7199
849.1432, 864.3035
849.6253, 873.7871
850.1074, 883.2661
850.5895, 886.8893
851.0717, 885.3536
851.5538, 878.5637
852.0359, 866.8004
852.5180, 859.1707
853.0001, 864.1185
853.4822, 872.5283
853.9644, 877.8246
854.4465, 880.0873
854.9286, 876.2944
855.4107, 868.8140
855.8928, 870.5067
856.3749, 891.5544
856.8571, 916.4410
857.3392, 919.4473
857.8213, 907.0583
858.3034, 900.6966
858.7855, 902.0151
859.2676, 910.0593
859.7498, 924.9846
860.2319, 940.1578
860.7140, 946.7889
861.1961, 945.6446
861.6782, 945.1420
862.1603, 945.0820
862.6425, 946.6853
863.1245, 950.2518
863.6066, 955.6122
864.0887, 963.6240
864.5709, 972.9246
865.0530, 978.9129
865.5351, 979.1976
866.0172, 981.4819
866.4993, 985.4100
866.9814, 991.8082
867.4636, 1004.998
867.9457, 1018.260
868.4278, 1023.335
868.9099, 1020.064
869.3920, 1015.964
869.8741, 1007.651
870.3563, 1005.181
870.8384, 1019.071
871.3205, 1034.494
871.8026, 1035.845
872.2847, 1028.172
872.7668, 1025.933
873.2490, 1034.188
873.7311, 1047.045
874.2132, 1063.405
874.6953, 1079.812
875.1774, 1093.817
875.6595, 1104.764
876.1417, 1111.703
876.6238, 1114.584
877.1059, 1113.748
877.5880, 1108.056
878.0701, 1102.086
878.5522, 1104.307
879.0344, 1112.569
879.5165, 1119.067
879.9986, 1123.437
880.4807, 1131.638
880.9628, 1146.747
881.4449, 1162.854
881.9271, 1171.027
882.4092, 1172.290
882.8913, 1176.533
883.3734, 1183.976
883.8555, 1193.479
884.3376, 1206.272
884.8198, 1215.605
885.3019, 1215.128
885.7840, 1207.962
886.2661, 1204.674
886.7482, 1205.712
887.2303, 1209.617
887.7125, 1218.908
888.1946, 1226.806
888.6767, 1226.526
889.1588, 1226.601
889.6409, 1239.593
890.1230, 1265.199
890.6052, 1286.962
891.0873, 1297.762
891.5694, 1313.745
892.0515, 1346.318
892.5336, 1376.484
893.0157, 1389.227
893.4979, 1390.735
893.9800, 1393.011
894.4621, 1397.553
894.9442, 1408.483
895.4263, 1434.833
895.9084, 1459.795
896.3906, 1470.053
896.8727, 1474.832
897.3548, 1486.415
897.8369, 1504.813
898.3190, 1521.630
898.8011, 1532.573
899.2833, 1541.530
899.7654, 1552.513
900.2475, 1562.825
900.7296, 1565.998
901.2117, 1565.784
901.6938, 1572.810
902.1760, 1589.979
902.6581, 1610.819
903.1402, 1632.013
903.6223, 1650.293
904.1044, 1657.536
904.5865, 1656.938
905.0687, 1657.255
905.5508, 1660.377
906.0329, 1671.195
906.5150, 1693.112
906.9971, 1714.511
907.4792, 1712.773
907.9614, 1692.480
908.4435, 1693.407
908.9256, 1715.853
909.4077, 1726.862
909.8898, 1716.737
910.3719, 1699.001
910.8541, 1683.312
911.3362, 1671.075
911.8183, 1670.068
912.3004, 1685.901
912.7825, 1678.431
913.2646, 1633.971
913.7468, 1604.419
914.2289, 1619.021
914.7110, 1645.045
915.1931, 1640.925
915.6752, 1607.728
916.1573, 1583.301
916.6395, 1574.791
917.1216, 1561.109
917.6037, 1534.482
918.0858, 1509.229
918.5679, 1497.781
919.0500, 1491.157
919.5322, 1473.122
920.0143, 1441.647
920.4964, 1409.415
920.9785, 1367.884
921.4606, 1338.001
921.9427, 1334.172
922.4249, 1336.666
922.9070, 1331.899
923.3891, 1319.755
923.8712, 1301.704
924.3533, 1273.521
924.8354, 1253.783
925.3176, 1257.677
925.7997, 1261.022
926.2818, 1248.040
926.7639, 1227.338
927.2460, 1211.405
927.7281, 1200.337
928.2103, 1183.948
928.6924, 1152.578
929.1745, 1125.523
929.6566, 1119.575
930.1387, 1119.414
930.6208, 1107.322
931.1030, 1089.686
931.5851, 1083.230
932.0672, 1091.399
932.5493, 1100.090
933.0314, 1101.494
933.5135, 1096.661
933.9957, 1082.380
934.4778, 1064.818
934.9599, 1054.720
935.4420, 1051.405
935.9241, 1047.269
936.4063, 1039.077
936.8884, 1032.704
937.3705, 1034.611
937.8526, 1042.244
938.3347, 1053.941
938.8168, 1067.049
939.2990, 1072.948
939.7811, 1070.813
940.2632, 1066.213
940.7453, 1062.160
941.2274, 1060.501
941.7095, 1063.965
942.1917, 1072.238
942.6738, 1086.035
943.1559, 1104.323
943.6380, 1120.312
944.1201, 1131.916
944.6022, 1133.782
945.0844, 1119.294
945.5665, 1098.522
946.0486, 1099.227
946.5307, 1119.658
947.0128, 1129.794
947.4949, 1127.381
947.9771, 1131.496
948.4592, 1151.006
948.9413, 1167.574
949.4234, 1158.524
949.9055, 1131.819
950.3876, 1127.096
950.8698, 1147.064
951.3519, 1165.237
951.8340, 1180.133
952.3161, 1185.674
952.7982, 1175.443
953.2803, 1163.185
953.7625, 1170.208
954.2446, 1195.573
954.7267, 1212.257
955.2088, 1219.071
955.6909, 1221.379
956.1730, 1220.111
956.6552, 1213.588
957.1373, 1198.406
957.6194, 1180.220
958.1015, 1171.131
958.5836, 1173.572
959.0657, 1165.073
959.5479, 1137.829
960.0300, 1116.628
960.5121, 1107.051
960.9942, 1104.272
961.4763, 1106.871
961.9584, 1112.968
962.4406, 1118.346
962.9227, 1125.583
963.4048, 1122.971
963.8869, 1100.727
964.3690, 1083.474
964.8511, 1084.479
965.3333, 1085.899
965.8154, 1066.505
966.2975, 1034.564
966.7796, 1024.377
967.2617, 1056.236
967.7438, 1065.487
968.2260, 1025.624
968.7081, 994.5766
969.1902, 1001.915
969.6723, 1018.418
970.1544, 1014.715
970.6365, 993.7692
971.1187, 977.1252
971.6008, 966.2817
972.0829, 960.3149
972.5650, 964.7032
973.0471, 967.5328
973.5292, 958.5303
974.0114, 948.3595
974.4935, 952.7853
974.9756, 970.2896
975.4577, 978.9401
975.9398, 969.5734
976.4219, 959.5251
976.9041, 949.4741
977.3862, 942.3845
977.8683, 942.5428
978.3504, 945.2219
978.8325, 943.5254
979.3146, 937.0819
979.7968, 931.7958
980.2789, 929.5465
980.7610, 928.0601
981.2431, 928.6270
981.7252, 927.7897
982.2073, 921.1733
982.6895, 912.4899
983.1716, 907.2872
983.6537, 906.3873
984.1358, 908.4811
984.6179, 916.6804
985.1000, 923.0848
985.5822, 926.5610
986.0643, 925.3482
986.5464, 914.4543
987.0285, 899.1755
987.5106, 889.3201
987.9927, 886.7487
988.4749, 884.5525
988.9570, 878.1059
989.4391, 874.1891
989.9212, 878.2434
990.4033, 884.0319
990.8854, 887.4110
991.3676, 887.8677
991.8497, 885.8597
992.3318, 881.5362
992.8139, 873.1037
993.2960, 847.6390
993.7781, 832.8947
994.2603, 853.5209
994.7424, 882.8240
995.2245, 897.1028
995.7066, 898.7352
996.1887, 897.5603
996.6708, 895.8356
997.1530, 894.9695
997.6351, 896.0745
998.1172, 897.6022
998.5993, 900.5208
999.0814, 901.9637
999.5635, 896.2852
1000.046, 887.3186
1000.528, 885.0530
1001.010, 892.6158
1001.492, 900.9420
1001.974, 906.6254
1002.456, 911.0739
1002.938, 914.5342
1003.420, 917.6304
1003.903, 922.7744
1004.385, 927.8029
1004.867, 925.1805
1005.349, 911.4494
1005.831, 904.9633
1006.313, 921.7512
1006.795, 938.9395
1007.277, 943.9562
1007.759, 942.2571
1008.242, 937.8958
1008.724, 932.4688
1009.206, 926.5106
1009.688, 919.1929
1010.170, 919.8667
1010.652, 942.6890
1011.134, 962.7068
1011.616, 964.4266
1012.099, 957.4384
1012.581, 946.7240
1013.063, 936.8007
1013.545, 937.6002
1014.027, 953.5707
1014.509, 964.4774
1014.991, 956.0977
1015.473, 948.0163
1015.955, 952.2931
1016.438, 960.3187
1016.920, 966.1188
1017.402, 967.8418
1017.884, 961.2509
1018.366, 943.5472
1018.848, 932.2650
1019.330, 944.8393
1019.812, 951.1872
1020.294, 929.2826
1020.777, 901.4438
1021.259, 889.3019
1021.741, 888.1063
1022.223, 881.2598
1022.705, 863.7344
1023.187, 855.1268
1023.669, 868.1164
1024.151, 882.2667
1024.634, 888.9751
1025.116, 893.8632
1025.598, 907.3003
1026.080, 921.3024
1026.562, 913.7114
1027.044, 876.4487
1027.526, 855.7375
1028.008, 875.1691
1028.490, 894.6570
1028.973, 901.7812
1029.455, 904.0063
1029.937, 912.3126
1030.419, 918.3244
1030.901, 898.3042
1031.383, 843.9684
1031.865, 817.0958
1032.347, 853.7655
1032.830, 880.8545
1033.312, 872.9156
1033.794, 858.5978
1034.276, 855.3669
1034.758, 858.9515
1035.240, 862.3517
1035.722, 865.9606
1036.204, 861.2449
1036.687, 832.6506
1037.169, 817.7181
1037.651, 832.9844
1038.133, 850.8099
1038.615, 857.8738
1039.097, 857.2989
1039.579, 852.3200
1040.061, 842.5641
1040.543, 836.5739
1041.026, 836.0189
1041.508, 836.1171
1041.990, 834.0541
1042.472, 836.1181
1042.954, 846.4255
1043.436, 861.6555
1043.918, 880.1143
1044.400, 901.1085
1044.882, 906.7335
1045.365, 888.7093
1045.847, 875.7321
1046.329, 868.1436
1046.811, 870.7989
1047.293, 892.9799
1047.775, 913.8735
1048.257, 904.7177
1048.739, 872.9402
1049.222, 871.8066
1049.704, 912.7929
1050.186, 933.8975
1050.668, 927.3708
1051.150, 916.3849
1051.632, 906.2481
1052.114, 905.2521
1052.596, 924.9917
1053.078, 956.2695
1053.561, 960.1286
1054.043, 932.2580
1054.525, 943.0431
1055.007, 1000.700
1055.489, 1035.575
1055.971, 1024.111
1056.453, 1004.462
1056.935, 1007.881
1057.417, 1024.858
1057.900, 1036.287
1058.382, 1041.937
1058.864, 1035.866
1059.346, 1019.218
1059.828, 1016.671
1060.310, 1033.609
1060.792, 1046.393
1061.274, 1038.486
1061.757, 1024.675
1062.239, 1028.084
1062.721, 1045.353
1063.203, 1071.588
1063.685, 1101.409
1064.167, 1106.545
1064.649, 1086.544
1065.131, 1073.797
1065.614, 1085.088
1066.096, 1100.582
1066.578, 1094.412
1067.060, 1079.457
1067.542, 1079.531
1068.024, 1088.999
1068.506, 1098.191
1068.988, 1104.458
1069.470, 1103.177
1069.953, 1093.222
1070.435, 1085.100
1070.917, 1088.391
1071.399, 1096.270
1071.881, 1104.185
1072.363, 1110.171
1072.845, 1109.866
1073.327, 1105.864
1073.809, 1102.919
1074.292, 1102.825
1074.774, 1108.566
1075.256, 1125.649
1075.738, 1141.714
1076.220, 1150.540
1076.702, 1153.653
1077.184, 1150.425
1077.666, 1143.555
1078.148, 1134.456
1078.631, 1124.891
1079.113, 1122.023
1079.595, 1133.288
1080.077, 1138.203
1080.559, 1120.729
1081.041, 1106.329
1081.523, 1114.119
1082.005, 1126.573
1082.488, 1121.973
1082.970, 1106.261
1083.452, 1104.877
1083.934, 1128.796
1084.416, 1138.819
1084.898, 1121.482
1085.380, 1104.135
1085.862, 1093.068
1086.344, 1083.533
1086.827, 1069.061
1087.309, 1056.048
1087.791, 1059.845
1088.273, 1083.201
1088.755, 1089.411
1089.237, 1067.827
1089.719, 1058.812
1090.201, 1074.124
1090.683, 1085.351
1091.166, 1076.432
1091.648, 1060.294
1092.130, 1053.432
1092.612, 1054.721
1093.094, 1059.398
1093.576, 1068.370
1094.058, 1065.234
1094.540, 1047.613
1095.023, 1036.494
1095.505, 1039.647
1095.987, 1046.188
1096.469, 1046.568
1096.951, 1043.000
1097.433, 1036.963
1097.915, 1031.199
1098.397, 1042.588
1098.880, 1067.607
1099.362, 1086.052
1099.844, 1093.319
1100.326, 1092.000
1100.808, 1083.006
1101.290, 1073.770
1101.772, 1075.109
1102.254, 1080.383
1102.736, 1076.321
1103.219, 1069.226
1103.701, 1074.654
1104.183, 1089.022
1104.665, 1094.626
1105.147, 1085.517
1105.629, 1074.052
1106.111, 1063.780
1106.593, 1060.184
1107.075, 1072.182
1107.558, 1088.442
1108.040, 1099.919
1108.522, 1106.536
1109.004, 1106.887
1109.486, 1102.721
1109.968, 1106.752
1110.450, 1128.868
1110.932, 1147.396
1111.415, 1158.061
1111.897, 1161.725
1112.379, 1155.568
1112.861, 1145.218
1113.343, 1133.247
1113.825, 1121.783
1114.307, 1119.301
1114.789, 1130.684
1115.271, 1133.603
1115.754, 1124.163
1116.236, 1113.653
1116.718, 1103.491
1117.200, 1093.757
1117.682, 1083.407
1118.164, 1075.517
1118.646, 1077.092
1119.128, 1086.441
1119.610, 1078.826
1120.093, 1052.052
1120.575, 1031.222
1121.057, 1018.657
1121.539, 1015.375
1122.021, 1022.494
1122.503, 1028.699
1122.985, 1023.171
1123.467, 1009.934
1123.950, 997.8489
1124.432, 985.5350
1124.914, 966.8724
1125.396, 943.5161
1125.878, 920.7211
1126.360, 900.9211
1126.842, 889.0413
1127.324, 887.7750
1127.807, 894.0637
1128.289, 917.5369
1128.771, 934.8682
1129.253, 904.2261
1129.735, 860.5123
1130.217, 861.0930
1130.699, 889.1909
1131.181, 887.3591
1131.663, 843.6783
1132.146, 809.8864
1132.628, 823.1694
1133.110, 829.0266
1133.592, 795.1882
1134.074, 758.4779
1134.556, 742.1690
1135.038, 736.0825
1135.520, 726.8330
1136.002, 715.2209
1136.485, 710.6180
1136.967, 718.7912
1137.449, 720.2858
1137.931, 711.3975
1138.413, 702.9271
1138.895, 700.2632
1139.377, 692.2068
1139.859, 668.2039
1140.342, 639.5295
1140.824, 625.2006
1141.306, 624.4403
1141.788, 631.0313
1142.270, 646.1121
1142.752, 640.4491
1143.234, 610.6321
1143.716, 593.6906
1144.198, 603.4161
1144.681, 612.8241
1145.163, 596.7001
1145.645, 571.0539
1146.127, 562.5808
1146.609, 566.9272
1147.091, 577.7400
1147.573, 591.3429
1148.055, 600.7332
1148.537, 604.2086
1149.020, 599.4844
1149.502, 585.2213
1149.984, 574.4095
1150.466, 586.6940
1150.948, 593.8594
1151.430, 564.3682
1151.912, 528.9554
1152.394, 516.0880
1152.877, 520.1648
1153.359, 532.1355
1153.841, 548.7239
1154.323, 555.6246
1154.805, 543.3383
1155.287, 533.6795
1155.769, 529.7212
1156.251, 528.5544
1156.734, 530.4144
1157.216, 533.2335
1157.698, 535.8976
1158.180, 538.1169
1158.662, 539.6990
1159.144, 540.8035
1159.626, 535.4149
1160.108, 522.2556
1160.590, 511.4601
1161.073, 503.9977
1161.555, 506.4571
1162.037, 522.5150
1162.519, 535.9743
1163.001, 529.3725
1163.483, 514.2175
1163.965, 517.8018
1164.447, 530.2170
1164.929, 519.9331
1165.412, 496.3227
1165.894, 492.0222
1166.376, 508.5386
1166.858, 523.1965
1167.340, 526.0875
1167.822, 524.9420
1168.304, 524.2570
1168.786, 523.0128
1169.269, 522.3658
1169.751, 519.0486
1170.233, 505.9109
1170.715, 490.1338
1171.197, 483.7639
1171.679, 487.3316
1172.161, 492.0055
1172.643, 494.5637
1173.125, 502.3647
1173.608, 529.4041
1174.090, 538.7290
1174.572, 508.5261
1175.054, 478.5127
1175.536, 476.4546
1176.018, 492.1039
1176.500, 509.0466
1176.982, 526.4009
1177.464, 531.6136
1177.947, 524.7247
1178.429, 516.2401
1178.911, 507.7837
1179.393, 512.5446
1179.875, 534.0494
1180.357, 548.9620
1180.839, 538.0163
1181.321, 518.6130
1181.804, 513.2418
1182.286, 515.3965
1182.768, 517.5456
1183.250, 518.5721
1183.732, 515.6669
1184.214, 510.7222
1184.696, 509.9281
1185.178, 514.8618
1185.661, 518.7988
1186.143, 515.9674
1186.625, 515.8068
1187.107, 523.7119
1187.589, 532.5330
1188.071, 544.8308
1188.553, 550.6870
1189.035, 534.1842
1189.517, 504.4555
1190.000, 488.7549
1190.482, 488.4965
1190.964, 493.3296
1191.446, 504.9016
1191.928, 514.3931
1192.410, 520.8488
1192.892, 521.0206
1193.374, 512.7567
1193.856, 504.2325
1194.339, 504.2499
1194.821, 508.7477
1195.303, 508.6049
1195.785, 506.7542
1196.267, 513.7098
1196.749, 524.3320
1197.231, 521.6420
1197.713, 507.5721
1198.196, 502.1079
1198.678, 513.1618
1199.160, 522.2858
1199.642, 519.4609
1200.124, 510.3309
1200.606, 488.6927
1201.088, 471.7604
1201.570, 477.6061
1202.052, 491.6269
1202.535, 492.6667
1203.017, 483.4149
1203.499, 484.3105
1203.981, 500.5400
1204.463, 504.5945
1204.945, 491.0774
1205.427, 483.6524
1205.909, 488.0080
1206.391, 490.4959
1206.874, 483.6545
1207.356, 476.3012
1207.838, 478.0687
1208.320, 487.2972
1208.802, 504.5922
1209.284, 524.6895
1209.766, 532.5413
1210.248, 529.3859
1210.731, 516.7538
1211.213, 498.9172
1211.695, 489.6958
1212.177, 494.7378
1212.659, 499.8528
1213.141, 496.3076
1213.623, 490.6347
1214.105, 484.5169
1214.588, 479.3980
1215.070, 475.8941
1215.552, 474.2361
1216.034, 476.2477
1216.516, 480.2852
1216.998, 478.8293
1217.480, 469.0985
1217.962, 470.2273
1218.444, 486.4295
1218.927, 496.2719
1219.409, 496.2294
1219.891, 489.8082
1220.373, 477.6879
1220.855, 469.5450
1221.337, 475.7105
1221.819, 489.4716
1222.301, 500.5526
1222.783, 508.4227
1223.266, 512.1273
1223.748, 511.4996
1224.230, 503.0910
1224.712, 490.3788
1225.194, 485.4645
1225.676, 491.7505
1226.158, 496.0094
1226.640, 488.1846
1227.122, 483.2400
1227.605, 485.5493
1228.087, 492.7701
1228.569, 510.7484
1229.051, 526.2208
1229.533, 526.4359
1230.015, 517.1549
1230.497, 511.8080
1230.979, 510.3393
1231.462, 500.6894
1231.944, 481.8914
1232.426, 474.2310
1232.908, 479.4235
1233.390, 485.4454
1233.872, 488.3949
1234.354, 492.4756
1234.836, 501.4050
1235.318, 507.3775
1235.801, 496.3501
1236.283, 482.1218
1236.765, 480.6536
1237.247, 486.3532
1237.729, 496.4017
1238.211, 505.4907
1238.693, 500.8682
1239.175, 483.7919
1239.657, 481.6932
1240.140, 512.0417
1240.622, 529.9645
1241.104, 527.9664
1241.586, 523.1609
1242.068, 518.3508
1242.550, 512.5115
1243.032, 503.6479
1243.514, 498.7185
1243.997, 509.3097
1244.479, 526.4335
1244.961, 517.8906
1245.443, 493.5577
1245.925, 493.6613
1246.407, 511.8612
1246.889, 520.3735
1247.371, 517.6967
1247.854, 523.8284
1248.336, 545.9434
1248.818, 557.0517
1249.300, 529.8262
1249.782, 504.1133
1250.264, 497.6332
1250.746, 498.6548
1251.228, 504.3386
1251.710, 510.2977
1252.193, 511.7388
1252.675, 510.9734
1253.157, 514.0290
1253.639, 520.8805
1254.121, 517.9509
1254.603, 503.7420
1255.085, 508.9548
1255.567, 535.3723
1256.049, 545.7040
1256.532, 529.9412
1257.014, 507.7896
1257.496, 490.7906
1257.978, 482.7207
1258.460, 494.1683
1258.942, 509.2275
1259.424, 510.2435
1259.906, 506.8679
1260.389, 511.9052
1260.871, 518.8008
1261.353, 513.3588
1261.835, 497.5268
1262.317, 489.6284
1262.799, 492.1306
1263.281, 501.1012
1263.763, 523.3753
1264.245, 530.8013
1264.728, 515.0572
1265.210, 505.7928
1265.692, 516.6236
1266.174, 526.5986
1266.656, 515.8917
1267.138, 496.4413
1267.620, 484.5050
1268.102, 481.0532
1268.584, 496.6007
1269.067, 516.9840
1269.549, 512.7213
1270.031, 493.2668
##END=



