##NAMES=Muscovite
##RRUFFID=R050080
##IDEAL CHEMISTRY=KAl_2_(Si_3_Al)O_10_(OH)_2_
##LOCALITY=Brazil
##OWNER=RRUFF
##SOURCE=Rock Currier
##DESCRIPTION=Tan colored micaceous crystals of 2M1 polytype
##STATUS=The identification of this mineral has been confirmed by X-ray diffraction and chemical analysis
##URL=rruff.info/R050080
##MEASURED CHEMISTRY=(K_0.93_Na_0.07_)(Al_0.99_Fe^3+^_0.01_)_2_(Si_3.00_Al_1.00_)O_10_((OH)_0.97_F_0.03_)_2_
129.2154, 2002.342
129.6975, 2114.864
130.1796, 2221.371
130.6617, 2328.391
131.1439, 2444.943
131.6260, 2577.648
132.1081, 2723.662
132.5902, 2860.595
133.0723, 3012.102
133.5544, 3128.227
134.0366, 3207.094
134.5187, 3242.462
135.0008, 3219.631
135.4829, 3123.704
135.9650, 2959.131
136.4471, 2819.330
136.9293, 2709.298
137.4114, 2616.186
137.8935, 2539.746
138.3756, 2477.581
138.8577, 2424.661
139.3398, 2377.450
139.8220, 2335.937
140.3041, 2305.239
140.7862, 2280.853
141.2683, 2268.382
141.7504, 2268.717
142.2325, 2282.847
142.7147, 2313.074
143.1968, 2361.551
143.6789, 2429.440
144.1610, 2513.365
144.6431, 2627.155
145.1252, 2742.970
145.6074, 2846.167
146.0895, 2936.473
146.5716, 3020.077
147.0537, 3101.956
147.5358, 3181.304
148.0179, 3252.886
148.5001, 3317.036
148.9822, 3373.402
149.4643, 3423.115
149.9464, 3466.247
150.4285, 3499.238
150.9106, 3519.524
151.3928, 3525.831
151.8749, 3520.181
152.3570, 3506.056
152.8391, 3477.856
153.3212, 3425.623
153.8033, 3348.155
154.2855, 3264.379
154.7676, 3187.700
155.2497, 3116.523
155.7318, 3044.988
156.2139, 2965.994
156.6960, 2889.252
157.1782, 2825.938
157.6603, 2777.214
158.1424, 2737.948
158.6245, 2704.693
159.1066, 2678.208
159.5887, 2662.864
160.0709, 2667.590
160.5530, 2681.266
161.0351, 2687.111
161.5172, 2682.661
161.9993, 2678.156
162.4814, 2685.390
162.9636, 2697.824
163.4457, 2702.788
163.9278, 2688.242
164.4099, 2665.629
164.8920, 2654.829
165.3741, 2656.310
165.8563, 2668.811
166.3384, 2703.877
166.8205, 2748.113
167.3026, 2777.469
167.7847, 2772.622
168.2668, 2749.867
168.7490, 2746.353
169.2311, 2769.940
169.7132, 2795.289
170.1953, 2809.358
170.6774, 2816.235
171.1595, 2822.066
171.6417, 2831.171
172.1238, 2840.398
172.6059, 2840.682
173.0880, 2827.427
173.5701, 2814.245
174.0522, 2806.903
174.5344, 2803.441
175.0165, 2801.287
175.4986, 2798.910
175.9807, 2797.165
176.4628, 2799.659
176.9449, 2811.689
177.4271, 2817.745
177.9092, 2806.791
178.3913, 2788.421
178.8734, 2776.196
179.3555, 2778.326
179.8376, 2789.257
180.3197, 2792.206
180.8019, 2782.921
181.2840, 2772.740
181.7661, 2762.602
182.2482, 2754.548
182.7303, 2751.170
183.2124, 2753.751
183.6946, 2761.733
184.1767, 2775.393
184.6588, 2803.766
185.1409, 2821.051
185.6230, 2815.549
186.1051, 2798.945
186.5873, 2784.030
187.0694, 2776.557
187.5515, 2774.667
188.0336, 2773.726
188.5157, 2775.126
188.9978, 2774.978
189.4800, 2767.884
189.9621, 2760.881
190.4442, 2762.093
190.9263, 2775.544
191.4084, 2796.512
191.8905, 2814.063
192.3727, 2828.764
192.8548, 2838.443
193.3369, 2835.226
193.8190, 2831.191
194.3011, 2838.385
194.7832, 2861.655
195.2654, 2895.873
195.7475, 2931.831
196.2296, 2978.797
196.7117, 3009.152
197.1938, 3011.557
197.6759, 3003.295
198.1581, 2999.035
198.6402, 3003.747
199.1223, 3012.415
199.6044, 3016.178
200.0865, 3015.093
200.5686, 3008.141
201.0508, 2994.942
201.5329, 2977.343
202.0150, 2954.412
202.4971, 2926.534
202.9792, 2899.207
203.4613, 2881.731
203.9435, 2878.553
204.4256, 2875.772
204.9077, 2875.905
205.3898, 2874.005
205.8719, 2862.013
206.3540, 2840.427
206.8362, 2821.854
207.3183, 2826.903
207.8004, 2871.116
208.2825, 2899.013
208.7646, 2906.540
209.2467, 2903.016
209.7289, 2887.472
210.2110, 2863.192
210.6931, 2840.861
211.1752, 2833.166
211.6573, 2842.885
212.1395, 2857.800
212.6216, 2891.219
213.1037, 2918.223
213.5858, 2923.075
214.0679, 2908.005
214.5500, 2887.688
215.0322, 2877.948
215.5143, 2882.363
215.9964, 2873.272
216.4785, 2833.924
216.9606, 2796.733
217.4427, 2778.109
217.9249, 2773.205
218.4070, 2765.569
218.8891, 2740.998
219.3712, 2699.013
219.8533, 2657.374
220.3354, 2613.883
220.8176, 2572.944
221.2997, 2532.483
221.7818, 2495.594
222.2639, 2468.574
222.7460, 2457.314
223.2281, 2459.933
223.7103, 2457.206
224.1924, 2447.732
224.6745, 2433.587
225.1566, 2408.597
225.6387, 2380.470
226.1208, 2361.617
226.6030, 2360.406
227.0851, 2371.192
227.5672, 2369.537
228.0493, 2340.087
228.5314, 2318.698
229.0135, 2316.398
229.4957, 2323.071
229.9778, 2326.398
230.4599, 2320.673
230.9420, 2310.923
231.4241, 2310.406
231.9062, 2327.827
232.3884, 2339.547
232.8705, 2342.102
233.3526, 2338.873
233.8347, 2329.964
234.3168, 2315.921
234.7989, 2303.183
235.2811, 2304.410
235.7632, 2327.745
236.2453, 2345.868
236.7274, 2352.418
237.2095, 2356.616
237.6916, 2364.787
238.1738, 2378.021
238.6559, 2392.948
239.1380, 2404.073
239.6201, 2408.236
240.1022, 2420.671
240.5843, 2449.777
241.0665, 2480.801
241.5486, 2507.582
242.0307, 2529.614
242.5128, 2549.040
242.9949, 2565.511
243.4770, 2577.967
243.9592, 2600.871
244.4413, 2641.634
244.9234, 2687.081
245.4055, 2735.572
245.8876, 2785.166
246.3697, 2831.948
246.8519, 2872.692
247.3340, 2908.276
247.8161, 2943.324
248.2982, 2969.838
248.7803, 3007.830
249.2624, 3070.237
249.7446, 3146.640
250.2267, 3219.300
250.7088, 3277.589
251.1909, 3327.886
251.6730, 3389.413
252.1551, 3467.153
252.6373, 3546.890
253.1194, 3617.327
253.6015, 3689.493
254.0836, 3776.792
254.5657, 3885.372
255.0478, 4005.457
255.5300, 4121.494
256.0121, 4230.328
256.4942, 4346.117
256.9763, 4485.107
257.4584, 4625.413
257.9406, 4750.881
258.4227, 4857.645
258.9048, 4957.938
259.3869, 5067.795
259.8690, 5188.308
260.3511, 5297.644
260.8333, 5398.475
261.3154, 5479.731
261.7975, 5533.312
262.2796, 5559.576
262.7617, 5570.656
263.2438, 5584.307
263.7260, 5593.952
264.2081, 5557.712
264.6902, 5454.064
265.1723, 5328.454
265.6544, 5219.176
266.1365, 5118.481
266.6187, 5000.775
267.1008, 4844.264
267.5829, 4664.254
268.0650, 4489.433
268.5471, 4317.979
269.0292, 4160.625
269.5114, 4037.177
269.9935, 3932.928
270.4756, 3822.072
270.9577, 3685.975
271.4398, 3550.486
271.9219, 3447.511
272.4041, 3377.653
272.8862, 3314.886
273.3683, 3249.144
273.8504, 3181.374
274.3325, 3112.773
274.8146, 3038.879
275.2968, 2972.212
275.7789, 2926.059
276.2610, 2895.720
276.7431, 2860.371
277.2252, 2809.883
277.7073, 2754.997
278.1895, 2712.661
278.6716, 2682.831
279.1537, 2660.929
279.6358, 2651.498
280.1179, 2647.663
280.6000, 2637.173
281.0822, 2616.822
281.5643, 2592.633
282.0464, 2570.611
282.5285, 2550.811
283.0106, 2533.934
283.4927, 2525.002
283.9749, 2515.931
284.4570, 2495.682
284.9391, 2464.686
285.4212, 2438.131
285.9033, 2430.410
286.3854, 2441.154
286.8676, 2441.291
287.3497, 2423.039
287.8318, 2402.793
288.3139, 2384.744
288.7960, 2370.742
289.2781, 2366.670
289.7603, 2377.710
290.2424, 2397.937
290.7245, 2401.807
291.2066, 2373.575
291.6887, 2349.667
292.1708, 2337.828
292.6530, 2332.420
293.1351, 2326.249
293.6172, 2316.806
294.0993, 2306.642
294.5814, 2300.148
295.0635, 2297.208
295.5457, 2298.944
296.0278, 2309.554
296.5099, 2321.428
296.9920, 2329.644
297.4741, 2333.470
297.9562, 2334.403
298.4384, 2333.733
298.9205, 2331.173
299.4026, 2328.979
299.8847, 2327.822
300.3668, 2326.355
300.8489, 2320.920
301.3310, 2314.849
301.8131, 2316.195
302.2953, 2332.050
302.7774, 2357.654
303.2595, 2367.977
303.7416, 2352.303
304.2237, 2336.223
304.7058, 2322.334
305.1880, 2311.969
305.6701, 2306.942
306.1522, 2308.010
306.6343, 2312.884
307.1164, 2319.365
307.5985, 2329.516
308.0807, 2333.426
308.5628, 2320.321
309.0449, 2306.653
309.5270, 2303.939
310.0091, 2312.501
310.4912, 2321.887
310.9734, 2321.693
311.4555, 2313.054
311.9376, 2309.194
312.4197, 2315.323
312.9018, 2320.001
313.3839, 2313.646
313.8661, 2300.225
314.3482, 2290.191
314.8303, 2289.670
315.3124, 2294.779
315.7945, 2299.995
316.2766, 2305.922
316.7588, 2308.324
317.2409, 2302.972
317.7230, 2293.089
318.2051, 2283.650
318.6872, 2274.138
319.1693, 2267.152
319.6515, 2266.057
320.1336, 2269.669
320.6157, 2272.674
321.0978, 2273.270
321.5799, 2272.501
322.0620, 2272.621
322.5442, 2274.419
323.0263, 2272.981
323.5084, 2262.216
323.9905, 2249.421
324.4726, 2244.329
324.9547, 2248.544
325.4369, 2257.776
325.9190, 2270.207
326.4011, 2286.414
326.8832, 2290.648
327.3653, 2272.847
327.8474, 2252.830
328.3296, 2238.696
328.8117, 2231.340
329.2938, 2232.270
329.7759, 2243.449
330.2580, 2261.675
330.7401, 2272.055
331.2223, 2269.812
331.7044, 2265.598
332.1865, 2256.256
332.6686, 2247.389
333.1507, 2247.616
333.6328, 2258.713
334.1150, 2271.053
334.5971, 2268.629
335.0792, 2241.398
335.5613, 2226.916
336.0434, 2232.468
336.5255, 2242.674
337.0077, 2249.381
337.4898, 2253.479
337.9719, 2261.864
338.4540, 2283.340
338.9361, 2314.469
339.4182, 2322.244
339.9004, 2285.866
340.3825, 2256.448
340.8646, 2253.626
341.3467, 2263.782
341.8288, 2269.481
342.3109, 2263.731
342.7931, 2253.601
343.2752, 2249.569
343.7573, 2252.381
344.2394, 2256.262
344.7215, 2263.586
345.2036, 2268.304
345.6858, 2262.373
346.1679, 2245.969
346.6500, 2234.452
347.1321, 2241.586
347.6142, 2260.926
348.0963, 2275.488
348.5785, 2284.026
349.0606, 2286.445
349.5427, 2277.130
350.0248, 2260.880
350.5069, 2252.483
350.9890, 2261.066
351.4712, 2273.231
351.9533, 2278.098
352.4354, 2276.736
352.9175, 2274.167
353.3996, 2271.170
353.8817, 2270.238
354.3639, 2280.227
354.8460, 2310.062
355.3281, 2329.957
355.8102, 2325.359
356.2923, 2310.911
356.7744, 2302.983
357.2566, 2305.211
357.7387, 2313.689
358.2208, 2325.198
358.7029, 2341.655
359.1850, 2349.784
359.6671, 2341.765
360.1493, 2334.452
360.6314, 2335.866
361.1135, 2343.900
361.5956, 2352.577
362.0777, 2358.273
362.5598, 2362.523
363.0420, 2371.444
363.5241, 2390.905
364.0062, 2405.466
364.4883, 2409.510
364.9704, 2410.853
365.4525, 2416.413
365.9347, 2427.452
366.4168, 2439.801
366.8989, 2447.910
367.3810, 2451.383
367.8631, 2458.064
368.3452, 2466.958
368.8274, 2481.226
369.3095, 2505.563
369.7916, 2536.106
370.2737, 2563.590
370.7558, 2583.066
371.2379, 2597.556
371.7201, 2610.633
372.2022, 2621.841
372.6843, 2636.229
373.1664, 2659.973
373.6485, 2685.459
374.1306, 2701.198
374.6128, 2705.034
375.0949, 2705.629
375.5770, 2705.816
376.0591, 2706.154
376.5412, 2707.184
377.0233, 2708.769
377.5055, 2713.081
377.9876, 2723.378
378.4697, 2740.438
378.9518, 2754.485
379.4339, 2764.705
379.9160, 2772.471
380.3982, 2776.162
380.8803, 2777.793
381.3624, 2783.290
381.8445, 2796.453
382.3266, 2813.567
382.8087, 2823.463
383.2909, 2818.226
383.7730, 2815.665
384.2551, 2819.650
384.7372, 2824.168
385.2193, 2820.788
385.7014, 2810.297
386.1836, 2804.673
386.6657, 2819.406
387.1478, 2856.156
387.6299, 2879.756
388.1120, 2876.289
388.5941, 2875.502
389.0763, 2890.430
389.5584, 2913.490
390.0405, 2932.191
390.5226, 2940.950
391.0047, 2944.384
391.4868, 2947.781
391.9690, 2950.373
392.4511, 2961.352
392.9332, 2994.986
393.4153, 3026.870
393.8974, 3027.253
394.3795, 2996.516
394.8617, 2977.680
395.3438, 3003.926
395.8259, 3051.313
396.3080, 3080.728
396.7901, 3088.354
397.2722, 3085.046
397.7544, 3073.028
398.2365, 3056.178
398.7186, 3053.069
399.2007, 3078.221
399.6828, 3100.550
400.1649, 3103.419
400.6471, 3096.620
401.1292, 3098.647
401.6113, 3115.668
402.0934, 3135.346
402.5755, 3139.017
403.0576, 3119.988
403.5398, 3104.602
404.0219, 3095.952
404.5040, 3087.401
404.9861, 3073.559
405.4682, 3056.833
405.9503, 3044.434
406.4325, 3041.723
406.9146, 3044.860
407.3967, 3040.151
407.8788, 3024.909
408.3609, 3007.078
408.8430, 2986.061
409.3252, 2964.598
409.8073, 2946.200
410.2894, 2930.949
410.7715, 2913.057
411.2536, 2885.066
411.7357, 2849.359
412.2179, 2819.091
412.7000, 2795.976
413.1821, 2776.492
413.6642, 2762.432
414.1463, 2750.038
414.6284, 2731.393
415.1106, 2700.592
415.5927, 2668.441
416.0748, 2639.516
416.5569, 2615.231
417.0390, 2602.316
417.5211, 2604.964
418.0033, 2613.072
418.4854, 2612.167
418.9675, 2600.773
419.4496, 2583.870
419.9317, 2552.962
420.4138, 2523.755
420.8960, 2509.112
421.3781, 2506.043
421.8602, 2502.883
422.3423, 2492.125
422.8244, 2475.198
423.3065, 2457.959
423.7887, 2436.243
424.2708, 2421.078
424.7529, 2418.501
425.2350, 2418.958
425.7171, 2415.153
426.1992, 2405.865
426.6814, 2394.028
427.1635, 2381.615
427.6456, 2368.681
428.1277, 2357.139
428.6098, 2347.434
429.0919, 2338.310
429.5741, 2327.604
430.0562, 2317.365
430.5383, 2312.283
431.0204, 2317.698
431.5025, 2319.282
431.9846, 2299.719
432.4668, 2265.528
432.9489, 2240.381
433.4310, 2231.047
433.9131, 2229.958
434.3952, 2230.360
434.8773, 2232.791
435.3595, 2229.510
435.8416, 2216.216
436.3237, 2200.584
436.8058, 2186.304
437.2879, 2173.549
437.7701, 2161.157
438.2522, 2148.354
438.7343, 2136.842
439.2164, 2131.402
439.6985, 2137.254
440.1806, 2139.972
440.6628, 2137.412
441.1449, 2133.565
441.6270, 2131.665
442.1091, 2131.136
442.5912, 2128.644
443.0733, 2121.084
443.5555, 2109.857
444.0376, 2100.543
444.5197, 2093.901
445.0018, 2087.028
445.4839, 2077.977
445.9660, 2068.526
446.4482, 2059.921
446.9303, 2052.142
447.4124, 2046.879
447.8945, 2049.038
448.3766, 2053.697
448.8587, 2048.290
449.3409, 2030.345
449.8230, 2013.437
450.3051, 2008.136
450.7872, 2013.762
451.2693, 2020.105
451.7514, 2030.690
452.2336, 2037.873
452.7157, 2037.273
453.1978, 2032.415
453.6799, 2028.540
454.1620, 2027.052
454.6441, 2025.025
455.1263, 2018.401
455.6084, 2006.254
456.0905, 1994.824
456.5726, 1976.157
457.0547, 1966.885
457.5368, 1981.986
458.0190, 2007.590
458.5011, 2020.351
458.9832, 2008.963
459.4653, 1988.587
459.9474, 1981.018
460.4295, 1986.477
460.9117, 1991.779
461.3938, 1996.012
461.8759, 1997.151
462.3580, 1990.293
462.8401, 1977.589
463.3222, 1970.992
463.8044, 1978.465
464.2865, 1989.663
464.7686, 1995.879
465.2507, 1997.827
465.7328, 1999.589
466.2149, 2003.318
466.6971, 2006.349
467.1792, 2002.972
467.6613, 1986.883
468.1434, 1977.846
468.6255, 1980.038
469.1076, 1985.479
469.5898, 1992.107
470.0719, 1997.777
470.5540, 1997.564
471.0361, 1987.136
471.5182, 1972.074
472.0003, 1970.127
472.4825, 1987.625
472.9646, 2000.999
473.4467, 2003.945
473.9288, 2001.905
474.4109, 1997.039
474.8930, 1989.847
475.3752, 1981.801
475.8573, 1971.443
476.3394, 1961.684
476.8215, 1958.990
477.3036, 1963.567
477.7857, 1966.906
478.2679, 1964.364
478.7500, 1958.231
479.2321, 1954.348
479.7142, 1954.788
480.1963, 1952.160
480.6784, 1938.484
481.1606, 1925.551
481.6427, 1926.801
482.1248, 1940.929
482.6069, 1955.156
483.0890, 1959.899
483.5711, 1956.841
484.0533, 1955.631
484.5354, 1959.364
485.0175, 1959.705
485.4996, 1954.471
485.9817, 1946.562
486.4638, 1935.997
486.9460, 1923.923
487.4281, 1916.138
487.9102, 1919.624
488.3923, 1930.759
488.8744, 1939.532
489.3565, 1946.294
489.8387, 1947.746
490.3208, 1938.828
490.8029, 1925.155
491.2850, 1918.246
491.7671, 1919.116
492.2492, 1923.520
492.7314, 1935.500
493.2135, 1947.214
493.6956, 1948.551
494.1777, 1939.358
494.6598, 1926.926
495.1419, 1916.239
495.6241, 1907.460
496.1062, 1901.364
496.5883, 1897.721
497.0704, 1897.482
497.5525, 1904.570
498.0346, 1912.288
498.5168, 1914.946
498.9989, 1912.093
499.4810, 1907.208
499.9631, 1902.301
500.4452, 1897.677
500.9273, 1895.110
501.4095, 1895.344
501.8916, 1894.348
502.3737, 1888.939
502.8558, 1882.123
503.3379, 1878.681
503.8200, 1879.281
504.3022, 1880.838
504.7843, 1883.579
505.2664, 1885.889
505.7485, 1886.533
506.2306, 1885.097
506.7127, 1879.342
507.1949, 1866.452
507.6770, 1849.856
508.1591, 1844.975
508.6412, 1865.826
509.1233, 1877.952
509.6054, 1875.158
510.0876, 1866.830
510.5697, 1857.063
511.0518, 1847.874
511.5339, 1842.826
512.0161, 1846.398
512.4982, 1854.719
512.9803, 1855.440
513.4624, 1846.458
513.9445, 1843.244
514.4266, 1856.313
514.9088, 1873.315
515.3909, 1877.195
515.8730, 1866.918
516.3551, 1857.836
516.8372, 1855.192
517.3193, 1855.305
517.8015, 1856.246
518.2836, 1857.070
518.7657, 1854.971
519.2478, 1848.195
519.7299, 1838.834
520.2120, 1831.576
520.6942, 1824.684
521.1763, 1823.501
521.6584, 1832.262
522.1405, 1842.041
522.6226, 1850.650
523.1047, 1856.277
523.5869, 1854.844
524.0690, 1842.052
524.5511, 1826.012
525.0332, 1821.605
525.5153, 1828.737
525.9974, 1832.486
526.4796, 1828.850
526.9617, 1821.517
527.4438, 1811.807
527.9259, 1800.363
528.4080, 1795.383
528.8901, 1801.807
529.3723, 1811.268
529.8544, 1820.637
530.3365, 1829.133
530.8186, 1836.078
531.3007, 1841.201
531.7828, 1843.045
532.2650, 1838.549
532.7471, 1825.731
533.2292, 1818.873
533.7113, 1821.973
534.1934, 1826.745
534.6755, 1831.639
535.1577, 1836.306
535.6398, 1841.052
536.1219, 1846.240
536.6040, 1849.011
537.0861, 1845.421
537.5682, 1837.234
538.0504, 1829.369
538.5325, 1822.081
539.0146, 1818.012
539.4967, 1820.523
539.9788, 1827.784
540.4609, 1830.602
540.9431, 1825.970
541.4252, 1821.589
541.9073, 1816.151
542.3894, 1813.488
542.8715, 1821.117
543.3536, 1836.907
543.8358, 1847.869
544.3179, 1842.486
544.8000, 1825.105
545.2821, 1815.390
545.7642, 1816.776
546.2463, 1816.407
546.7285, 1808.343
547.2106, 1799.388
547.6926, 1793.714
548.1747, 1791.683
548.6569, 1793.931
549.1390, 1805.237
549.6211, 1817.812
550.1032, 1823.106
550.5853, 1821.944
551.0674, 1817.880
551.5496, 1811.849
552.0317, 1805.905
552.5138, 1803.554
552.9959, 1806.271
553.4780, 1807.595
553.9601, 1808.306
554.4423, 1807.025
554.9244, 1800.352
555.4065, 1792.203
555.8886, 1788.125
556.3707, 1790.121
556.8528, 1797.142
557.3350, 1810.586
557.8171, 1829.183
558.2992, 1843.484
558.7813, 1853.935
559.2634, 1855.519
559.7455, 1839.622
560.2277, 1812.724
560.7098, 1795.982
561.1919, 1792.206
561.6740, 1793.828
562.1561, 1803.957
562.6382, 1815.003
563.1204, 1817.212
563.6025, 1811.141
564.0846, 1806.274
564.5667, 1810.273
565.0488, 1819.473
565.5309, 1817.657
566.0131, 1796.579
566.4952, 1785.365
566.9773, 1797.922
567.4594, 1814.896
567.9415, 1826.786
568.4236, 1832.842
568.9058, 1833.044
569.3879, 1824.127
569.8700, 1812.270
570.3521, 1801.403
570.8342, 1792.568
571.3163, 1790.514
571.7985, 1797.154
572.2806, 1806.477
572.7627, 1811.746
573.2448, 1812.983
573.7269, 1809.906
574.2090, 1795.694
574.6912, 1785.481
575.1733, 1784.774
575.6554, 1789.121
576.1375, 1793.805
576.6196, 1797.666
577.1017, 1801.792
577.5839, 1809.616
578.0660, 1818.480
578.5481, 1816.948
579.0302, 1803.251
579.5123, 1794.231
579.9944, 1800.888
580.4766, 1813.767
580.9587, 1812.423
581.4408, 1791.925
581.9229, 1780.333
582.4050, 1789.198
582.8871, 1801.185
583.3693, 1805.850
583.8514, 1804.311
584.3335, 1800.898
584.8156, 1797.571
585.2977, 1793.932
585.7798, 1787.755
586.2620, 1778.206
586.7441, 1777.452
587.2262, 1793.346
587.7083, 1806.053
588.1904, 1797.884
588.6725, 1780.812
589.1547, 1775.439
589.6368, 1789.124
590.1189, 1802.194
590.6010, 1804.360
591.0831, 1801.047
591.5652, 1798.588
592.0474, 1797.659
592.5295, 1796.696
593.0116, 1794.655
593.4937, 1791.894
593.9758, 1788.964
594.4579, 1783.561
594.9401, 1783.510
595.4222, 1795.950
595.9043, 1808.015
596.3864, 1812.551
596.8685, 1811.570
597.3506, 1811.355
597.8328, 1816.342
598.3149, 1818.627
598.7970, 1805.191
599.2791, 1783.959
599.7612, 1777.823
600.2433, 1791.220
600.7255, 1806.833
601.2076, 1809.354
601.6897, 1801.045
602.1718, 1800.489
602.6539, 1818.338
603.1360, 1829.406
603.6182, 1827.590
604.1003, 1821.780
604.5824, 1816.527
605.0645, 1813.293
605.5466, 1813.986
606.0287, 1820.802
606.5109, 1830.616
606.9930, 1839.852
607.4751, 1848.275
607.9572, 1853.774
608.4393, 1855.659
608.9214, 1854.998
609.4036, 1851.495
609.8857, 1845.157
610.3678, 1845.738
610.8499, 1862.458
611.3320, 1873.747
611.8141, 1870.060
612.2963, 1861.440
612.7784, 1855.467
613.2605, 1854.614
613.7426, 1861.653
614.2247, 1882.633
614.7068, 1909.722
615.1890, 1921.464
615.6711, 1917.061
616.1532, 1915.449
616.6353, 1922.593
617.1174, 1933.461
617.5995, 1942.894
618.0817, 1950.881
618.5638, 1958.756
619.0459, 1968.061
619.5280, 1975.531
620.0101, 1975.480
620.4922, 1975.085
620.9744, 1987.295
621.4565, 2011.989
621.9386, 2031.519
622.4207, 2025.834
622.9028, 2004.075
623.3849, 2005.626
623.8671, 2035.713
624.3492, 2058.063
624.8313, 2057.889
625.3134, 2049.803
625.7955, 2050.213
626.2776, 2058.580
626.7598, 2069.594
627.2419, 2085.353
627.7240, 2100.528
628.2061, 2115.292
628.6882, 2126.510
629.1703, 2128.924
629.6525, 2121.838
630.1346, 2109.292
630.6167, 2092.474
631.0988, 2074.041
631.5809, 2070.868
632.0630, 2087.623
632.5452, 2101.526
633.0273, 2106.285
633.5094, 2104.678
633.9915, 2096.827
634.4736, 2083.307
634.9557, 2077.157
635.4379, 2087.007
635.9200, 2098.560
636.4021, 2106.507
636.8842, 2109.901
637.3663, 2107.054
637.8484, 2097.938
638.3306, 2085.094
638.8127, 2070.489
639.2948, 2054.476
639.7769, 2039.969
640.2590, 2027.862
640.7411, 2013.455
641.2233, 1990.410
641.7054, 1969.540
642.1875, 1965.737
642.6696, 1977.120
643.1517, 1979.769
643.6339, 1959.612
644.1160, 1939.287
644.5981, 1931.841
645.0802, 1932.010
645.5623, 1932.601
646.0444, 1931.535
646.5266, 1929.117
647.0087, 1925.908
647.4908, 1921.455
647.9729, 1912.706
648.4550, 1898.199
648.9371, 1885.576
649.4193, 1877.778
649.9014, 1871.480
650.3835, 1863.274
650.8656, 1853.502
651.3477, 1844.365
651.8298, 1835.788
652.3120, 1828.385
652.7941, 1821.075
653.2762, 1815.728
653.7583, 1816.359
654.2404, 1822.536
654.7225, 1828.653
655.2047, 1830.599
655.6868, 1828.479
656.1689, 1821.218
656.6510, 1807.385
657.1331, 1797.002
657.6152, 1791.374
658.0974, 1790.951
658.5795, 1802.664
659.0616, 1821.798
659.5437, 1825.827
660.0258, 1796.091
660.5079, 1771.711
660.9901, 1767.943
661.4722, 1774.818
661.9543, 1784.585
662.4364, 1794.634
662.9185, 1802.497
663.4006, 1806.348
663.8828, 1807.531
664.3649, 1810.025
664.8470, 1814.049
665.3291, 1810.439
665.8112, 1793.273
666.2933, 1779.206
666.7755, 1783.645
667.2576, 1801.588
667.7397, 1810.343
668.2218, 1801.803
668.7039, 1797.303
669.1860, 1803.881
669.6682, 1813.573
670.1503, 1821.972
670.6324, 1827.880
671.1145, 1829.336
671.5966, 1824.739
672.0787, 1820.175
672.5609, 1825.064
673.0430, 1838.213
673.5251, 1852.736
674.0072, 1869.442
674.4893, 1877.971
674.9714, 1867.681
675.4536, 1848.542
675.9357, 1847.450
676.4178, 1876.756
676.8999, 1897.152
677.3820, 1902.898
677.8641, 1904.393
678.3463, 1903.635
678.8284, 1903.447
679.3105, 1906.884
679.7926, 1914.917
680.2747, 1928.383
680.7568, 1950.096
681.2390, 1977.228
681.7211, 2003.276
682.2032, 2027.914
682.6853, 2053.153
683.1674, 2080.714
683.6495, 2106.280
684.1317, 2122.009
684.6138, 2124.247
685.0959, 2135.825
685.5780, 2169.498
686.0601, 2197.406
686.5422, 2204.167
687.0244, 2207.223
687.5065, 2226.181
687.9886, 2262.653
688.4707, 2301.114
688.9528, 2329.346
689.4349, 2357.723
689.9171, 2402.285
690.3992, 2456.839
690.8813, 2502.060
691.3634, 2532.825
691.8455, 2559.570
692.3276, 2592.472
692.8098, 2630.822
693.2919, 2667.716
693.7740, 2701.968
694.2561, 2737.479
694.7382, 2775.690
695.2203, 2814.914
695.7025, 2855.287
696.1846, 2896.046
696.6667, 2934.187
697.1488, 2968.428
697.6309, 3000.718
698.1130, 3033.067
698.5952, 3063.315
699.0773, 3089.976
699.5594, 3112.035
700.0415, 3126.626
700.5236, 3131.635
701.0057, 3130.400
701.4879, 3131.195
701.9700, 3134.588
702.4521, 3127.699
702.9342, 3107.375
703.4163, 3082.003
703.8984, 3057.451
704.3806, 3030.763
704.8627, 2993.893
705.3448, 2943.070
705.8269, 2893.639
706.3090, 2850.209
706.7911, 2805.936
707.2733, 2755.728
707.7554, 2702.067
708.2375, 2649.630
708.7196, 2599.658
709.2017, 2551.189
709.6838, 2503.556
710.1660, 2456.587
710.6481, 2407.857
711.1302, 2357.870
711.6123, 2317.175
712.0944, 2291.340
712.5765, 2268.273
713.0587, 2232.073
713.5408, 2181.816
714.0229, 2137.972
714.5050, 2099.586
714.9871, 2069.676
715.4692, 2058.381
715.9514, 2047.968
716.4335, 2020.659
716.9156, 1979.895
717.3977, 1945.863
717.8798, 1929.285
718.3619, 1918.364
718.8441, 1904.329
719.3262, 1889.288
719.8083, 1876.379
720.2904, 1866.236
720.7725, 1859.639
721.2546, 1857.815
721.7368, 1857.098
722.2189, 1847.970
722.7010, 1829.172
723.1831, 1809.679
723.6652, 1786.328
724.1473, 1769.941
724.6295, 1770.535
725.1116, 1780.847
725.5937, 1786.287
726.0758, 1786.651
726.5579, 1782.504
727.0400, 1769.857
727.5222, 1756.868
728.0043, 1748.569
728.4864, 1743.112
728.9685, 1736.051
729.4506, 1726.670
729.9327, 1720.485
730.4149, 1725.735
730.8970, 1736.445
731.3791, 1736.717
731.8612, 1728.098
732.3433, 1726.264
732.8254, 1736.503
733.3076, 1750.058
733.7897, 1758.401
734.2718, 1761.748
734.7539, 1763.067
735.2360, 1758.844
735.7181, 1758.556
736.2003, 1766.734
736.6824, 1775.788
737.1645, 1779.689
737.6466, 1780.755
738.1287, 1786.186
738.6108, 1800.153
739.0930, 1813.259
739.5751, 1820.030
740.0572, 1823.263
740.5393, 1823.792
741.0214, 1823.672
741.5035, 1828.858
741.9857, 1842.148
742.4678, 1857.623
742.9499, 1864.965
743.4320, 1865.255
743.9141, 1875.788
744.3962, 1899.356
744.8784, 1919.430
745.3605, 1931.183
745.8426, 1934.073
746.3247, 1923.724
746.8068, 1897.030
747.2889, 1887.146
747.7711, 1910.901
748.2532, 1928.582
748.7353, 1922.568
749.2174, 1912.789
749.6995, 1919.907
750.1816, 1941.327
750.6638, 1958.824
751.1459, 1965.243
751.6280, 1961.921
752.1101, 1940.269
752.5922, 1913.197
753.0743, 1910.953
753.5565, 1932.553
754.0386, 1947.646
754.5207, 1938.186
755.0028, 1914.038
755.4849, 1892.278
755.9670, 1872.453
756.4492, 1861.282
756.9313, 1864.297
757.4134, 1862.042
757.8955, 1843.895
758.3776, 1817.417
758.8597, 1790.734
759.3419, 1762.425
759.8240, 1747.670
760.3061, 1758.073
760.7882, 1769.810
761.2703, 1779.388
761.7524, 1782.257
762.2346, 1769.768
762.7167, 1744.797
763.1988, 1723.712
763.6809, 1718.149
764.1630, 1716.279
764.6451, 1700.849
765.1273, 1679.052
765.6094, 1670.544
766.0915, 1676.914
766.5736, 1684.953
767.0557, 1686.908
767.5378, 1683.759
768.0200, 1677.973
768.5021, 1670.200
768.9842, 1654.921
769.4663, 1627.211
769.9484, 1602.509
770.4305, 1588.615
770.9127, 1580.660
771.3948, 1571.893
771.8769, 1562.284
772.3590, 1552.759
772.8411, 1542.865
773.3232, 1533.820
773.8054, 1521.937
774.2875, 1513.884
774.7696, 1520.972
775.2517, 1540.103
775.7338, 1554.203
776.2159, 1553.775
776.6981, 1544.802
777.1802, 1530.752
777.6623, 1514.056
778.1444, 1498.775
778.6265, 1486.113
779.1086, 1480.368
779.5908, 1484.477
780.0729, 1493.374
780.5550, 1498.674
781.0371, 1500.602
781.5192, 1495.084
782.0013, 1477.735
782.4835, 1464.726
782.9656, 1464.254
783.4477, 1469.152
783.9298, 1470.897
784.4119, 1469.469
784.8940, 1466.793
785.3762, 1461.951
785.8583, 1457.164
786.3404, 1452.644
786.8225, 1448.732
787.3046, 1445.394
787.7867, 1442.876
788.2689, 1442.523
788.7510, 1446.406
789.2331, 1447.590
789.7152, 1432.579
790.1973, 1414.988
790.6794, 1421.973
791.1616, 1448.684
791.6437, 1466.985
792.1258, 1464.844
792.6079, 1452.407
793.0900, 1442.404
793.5721, 1434.573
794.0543, 1425.513
794.5364, 1414.309
795.0185, 1407.364
795.5006, 1406.354
795.9827, 1410.921
796.4648, 1423.885
796.9470, 1443.485
797.4291, 1450.346
797.9112, 1427.137
798.3933, 1416.043
798.8754, 1432.870
799.3575, 1448.408
799.8397, 1443.132
800.3218, 1425.281
800.8039, 1409.845
801.2860, 1399.162
801.7681, 1398.919
802.2502, 1424.969
802.7324, 1451.264
803.2145, 1450.632
803.6966, 1433.510
804.1787, 1420.098
804.6608, 1416.044
805.1429, 1417.836
805.6251, 1424.986
806.1072, 1432.665
806.5893, 1429.187
807.0714, 1415.899
807.5535, 1401.646
808.0356, 1387.548
808.5178, 1379.011
808.9999, 1380.567
809.4820, 1388.012
809.9641, 1390.690
810.4462, 1387.292
810.9283, 1383.602
811.4105, 1376.852
811.8926, 1374.381
812.3747, 1384.228
812.8568, 1396.358
813.3389, 1396.889
813.8210, 1385.834
814.3032, 1382.241
814.7853, 1399.768
815.2674, 1411.302
815.7495, 1403.575
816.2316, 1389.015
816.7137, 1375.598
817.1959, 1365.957
817.6780, 1363.671
818.1601, 1371.615
818.6422, 1380.588
819.1243, 1382.989
819.6064, 1381.320
820.0886, 1379.591
820.5707, 1377.441
821.0528, 1371.471
821.5349, 1360.687
822.0170, 1350.956
822.4991, 1349.736
822.9813, 1354.354
823.4634, 1350.741
823.9455, 1337.963
824.4276, 1338.391
824.9097, 1360.330
825.3918, 1381.469
825.8740, 1384.835
826.3561, 1374.668
826.8382, 1364.808
827.3203, 1354.038
827.8024, 1346.383
828.2845, 1341.876
828.7667, 1340.548
829.2488, 1343.946
829.7309, 1349.541
830.2130, 1356.135
830.6951, 1363.501
831.1772, 1364.150
831.6594, 1345.518
832.1415, 1333.002
832.6236, 1345.181
833.1057, 1363.215
833.5878, 1367.349
834.0699, 1359.130
834.5521, 1350.638
835.0342, 1346.790
835.5163, 1346.541
835.9984, 1351.093
836.4805, 1357.440
836.9626, 1360.423
837.4448, 1360.568
837.9269, 1361.500
838.4090, 1364.287
838.8911, 1365.306
839.3732, 1359.804
839.8553, 1350.280
840.3375, 1346.695
840.8196, 1349.203
841.3017, 1349.674
841.7838, 1346.505
842.2659, 1341.284
842.7480, 1333.099
843.2302, 1326.220
843.7123, 1333.170
844.1944, 1362.747
844.6765, 1376.239
845.1586, 1363.109
845.6407, 1349.611
846.1229, 1346.392
846.6050, 1345.477
847.0871, 1337.414
847.5692, 1323.064
848.0513, 1314.494
848.5334, 1316.561
849.0156, 1320.184
849.4977, 1324.145
849.9798, 1327.646
850.4619, 1332.042
850.9440, 1335.074
851.4261, 1330.258
851.9083, 1314.843
852.3904, 1303.360
852.8725, 1309.085
853.3546, 1320.266
853.8367, 1323.604
854.3188, 1322.978
854.8010, 1329.421
855.2831, 1343.390
855.7652, 1352.761
856.2473, 1348.179
856.7294, 1335.317
857.2115, 1320.379
857.6937, 1305.534
858.1758, 1302.831
858.6579, 1312.916
859.1400, 1320.963
859.6221, 1319.784
860.1042, 1315.751
860.5864, 1318.460
861.0685, 1327.519
861.5506, 1332.059
862.0327, 1330.884
862.5148, 1329.990
862.9969, 1331.305
863.4791, 1332.072
863.9612, 1330.819
864.4433, 1327.100
864.9254, 1318.643
865.4075, 1296.545
865.8896, 1288.392
866.3718, 1306.512
866.8539, 1323.218
867.3360, 1328.022
867.8181, 1326.972
868.3002, 1327.335
868.7823, 1329.283
869.2645, 1327.444
869.7466, 1316.988
870.2287, 1307.022
870.7108, 1300.062
871.1929, 1295.896
871.6750, 1293.572
872.1572, 1294.028
872.6393, 1301.790
873.1214, 1318.890
873.6035, 1330.531
874.0856, 1319.216
874.5677, 1302.552
875.0499, 1302.530
875.5320, 1311.948
876.0141, 1314.229
876.4962, 1307.093
876.9783, 1299.281
877.4604, 1296.148
877.9426, 1297.686
878.4247, 1305.687
878.9068, 1318.359
879.3889, 1330.324
879.8710, 1340.772
880.3531, 1344.993
880.8353, 1340.710
881.3174, 1334.684
881.7995, 1334.877
882.2816, 1340.483
882.7637, 1347.148
883.2458, 1355.374
883.7280, 1360.056
884.2101, 1358.902
884.6922, 1359.278
885.1743, 1367.539
885.6564, 1378.507
886.1385, 1380.388
886.6207, 1370.694
887.1028, 1362.999
887.5849, 1356.734
888.0670, 1353.462
888.5491, 1354.761
889.0313, 1358.222
889.5134, 1362.502
889.9955, 1367.262
890.4776, 1370.850
890.9597, 1370.614
891.4418, 1373.778
891.9240, 1386.165
892.4061, 1396.931
892.8882, 1398.418
893.3703, 1395.888
893.8524, 1396.703
894.3345, 1401.717
894.8167, 1406.914
895.2988, 1410.560
895.7809, 1414.124
896.2630, 1419.586
896.7451, 1424.472
897.2272, 1424.034
897.7094, 1421.046
898.1915, 1423.755
898.6736, 1435.149
899.1557, 1446.424
899.6378, 1447.817
900.1199, 1447.339
900.6021, 1457.331
901.0842, 1472.437
901.5663, 1478.432
902.0484, 1475.269
902.5305, 1477.855
903.0126, 1496.038
903.4948, 1520.682
903.9769, 1541.173
904.4590, 1556.769
904.9411, 1562.757
905.4232, 1560.206
905.9053, 1555.992
906.3875, 1552.452
906.8696, 1555.462
907.3517, 1572.374
907.8338, 1597.376
908.3159, 1611.978
908.7980, 1616.132
909.2802, 1613.325
909.7623, 1601.967
910.2444, 1600.140
910.7265, 1619.771
911.2086, 1642.924
911.6907, 1640.573
912.1729, 1613.351
912.6550, 1614.541
913.1371, 1660.649
913.6192, 1681.628
914.1013, 1657.141
914.5834, 1620.286
915.0656, 1585.179
915.5477, 1557.452
916.0298, 1551.954
916.5119, 1577.253
916.9940, 1592.671
917.4761, 1593.887
917.9583, 1591.294
918.4404, 1587.265
918.9225, 1580.374
919.4046, 1568.697
919.8867, 1553.140
920.3688, 1536.587
920.8510, 1515.900
921.3331, 1501.569
921.8152, 1500.862
922.2973, 1500.152
922.7794, 1492.661
923.2615, 1482.033
923.7437, 1470.700
924.2258, 1460.059
924.7079, 1456.203
925.1900, 1468.311
925.6721, 1475.278
926.1542, 1464.868
926.6364, 1449.374
927.1185, 1434.275
927.6006, 1423.008
928.0827, 1422.589
928.5648, 1433.189
929.0469, 1439.408
929.5291, 1428.703
930.0112, 1415.097
930.4933, 1409.185
930.9754, 1406.296
931.4575, 1399.784
931.9396, 1390.950
932.4218, 1384.619
932.9039, 1382.567
933.3860, 1385.323
933.8681, 1398.326
934.3502, 1412.373
934.8323, 1413.589
935.3145, 1407.362
935.7966, 1404.733
936.2787, 1406.729
936.7608, 1409.112
937.2429, 1409.810
937.7250, 1407.250
938.2072, 1394.174
938.6893, 1378.545
939.1714, 1382.923
939.6535, 1401.835
940.1356, 1411.800
940.6177, 1408.191
941.0999, 1402.539
941.5820, 1402.849
942.0641, 1406.458
942.5462, 1408.409
943.0283, 1409.339
943.5104, 1414.067
943.9926, 1422.164
944.4747, 1423.492
944.9568, 1414.656
945.4389, 1409.792
945.9210, 1422.965
946.4031, 1446.279
946.8853, 1457.246
947.3674, 1455.934
947.8495, 1453.739
948.3316, 1450.887
948.8137, 1454.385
949.2958, 1468.332
949.7780, 1482.329
950.2601, 1483.786
950.7422, 1475.818
951.2243, 1475.744
951.7064, 1485.152
952.1885, 1492.272
952.6707, 1495.999
953.1528, 1497.274
953.6349, 1496.337
954.1170, 1493.416
954.5991, 1488.128
955.0812, 1480.767
955.5634, 1477.495
956.0455, 1479.905
956.5276, 1481.737
957.0097, 1483.033
957.4918, 1481.942
957.9739, 1476.739
958.4561, 1469.419
958.9382, 1463.888
959.4203, 1460.665
959.9024, 1450.855
960.3845, 1427.814
960.8666, 1411.600
961.3488, 1407.608
961.8309, 1407.876
962.3130, 1411.371
962.7951, 1413.957
963.2772, 1405.589
963.7593, 1382.278
964.2415, 1369.462
964.7236, 1378.321
965.2057, 1381.410
965.6878, 1365.808
966.1699, 1351.169
966.6520, 1354.076
967.1342, 1366.237
967.6163, 1368.490
968.0984, 1358.217
968.5805, 1346.792
969.0626, 1333.031
969.5447, 1320.434
970.0269, 1309.371
970.5090, 1300.235
970.9911, 1293.821
971.4732, 1289.481
971.9553, 1285.587
972.4374, 1281.817
972.9196, 1279.112
973.4017, 1277.365
973.8838, 1276.967
974.3659, 1279.588
974.8480, 1282.337
975.3301, 1282.682
975.8123, 1280.992
976.2944, 1278.151
976.7765, 1272.344
977.2586, 1271.957
977.7407, 1286.679
978.2228, 1297.682
978.7050, 1290.415
979.1871, 1280.367
979.6692, 1286.862
980.1513, 1304.671
980.6334, 1310.600
981.1155, 1294.411
981.5977, 1282.807
982.0798, 1291.672
982.5619, 1297.726
983.0440, 1283.882
983.5261, 1264.727
984.0082, 1256.020
984.4904, 1257.461
984.9725, 1261.467
985.4546, 1267.129
985.9367, 1272.010
986.4188, 1277.051
986.9009, 1279.041
987.3831, 1272.444
987.8652, 1264.267
988.3473, 1265.507
988.8294, 1273.527
989.3115, 1272.591
989.7936, 1252.783
990.2758, 1239.135
990.7579, 1247.306
991.2400, 1259.085
991.7221, 1265.726
992.2042, 1267.244
992.6863, 1261.577
993.1685, 1251.306
993.6506, 1246.644
994.1327, 1253.242
994.6148, 1259.089
995.0969, 1261.853
995.5790, 1258.829
996.0612, 1239.412
996.5433, 1218.778
997.0254, 1219.216
997.5075, 1237.905
997.9896, 1251.000
998.4717, 1247.963
998.9539, 1245.816
999.4360, 1253.947
999.9181, 1264.089
1000.400, 1274.063
1000.882, 1280.244
1001.364, 1277.052
1001.847, 1265.791
1002.329, 1253.469
1002.811, 1241.179
1003.293, 1232.182
1003.775, 1228.310
1004.257, 1227.850
1004.739, 1231.188
1005.221, 1236.271
1005.703, 1240.288
1006.186, 1243.578
1006.668, 1250.113
1007.150, 1264.580
1007.632, 1270.720
1008.114, 1248.938
1008.596, 1229.866
1009.078, 1238.835
1009.560, 1258.306
1010.043, 1268.672
1010.525, 1268.183
1011.007, 1260.441
1011.489, 1242.849
1011.971, 1231.848
1012.453, 1240.891
1012.935, 1251.286
1013.417, 1250.206
1013.899, 1245.333
1014.382, 1245.894
1014.864, 1251.187
1015.346, 1255.633
1015.828, 1258.161
1016.310, 1257.774
1016.792, 1252.214
1017.274, 1245.843
1017.756, 1242.192
1018.239, 1238.025
1018.721, 1226.139
1019.203, 1211.074
1019.685, 1207.498
1020.167, 1221.236
1020.649, 1233.882
1021.131, 1241.684
1021.613, 1244.344
1022.095, 1238.466
1022.578, 1230.215
1023.060, 1221.105
1023.542, 1215.087
1024.024, 1223.385
1024.506, 1251.864
1024.988, 1269.266
1025.470, 1261.565
1025.952, 1249.136
1026.435, 1233.525
1026.917, 1221.618
1027.399, 1223.376
1027.881, 1231.614
1028.363, 1229.274
1028.845, 1212.310
1029.327, 1201.228
1029.809, 1200.356
1030.292, 1204.931
1030.774, 1221.838
1031.256, 1235.618
1031.738, 1232.672
1032.220, 1220.673
1032.702, 1212.780
1033.184, 1209.935
1033.666, 1211.510
1034.148, 1226.044
1034.630, 1232.403
1035.113, 1220.980
1035.595, 1207.274
1036.077, 1197.428
1036.559, 1191.831
1037.041, 1192.273
1037.523, 1198.975
1038.005, 1203.005
1038.487, 1200.138
1038.970, 1201.427
1039.452, 1214.818
1039.934, 1222.801
1040.416, 1212.688
1040.898, 1197.545
1041.380, 1193.928
1041.862, 1200.532
1042.344, 1202.443
1042.826, 1195.026
1043.309, 1193.334
1043.791, 1200.865
1044.273, 1208.541
1044.755, 1212.830
1045.237, 1216.294
1045.719, 1221.633
1046.201, 1228.386
1046.683, 1235.315
1047.166, 1245.798
1047.648, 1243.428
1048.130, 1221.804
1048.612, 1206.081
1049.094, 1204.432
1049.576, 1209.443
1050.058, 1215.707
1050.540, 1223.013
1051.022, 1232.384
1051.505, 1245.333
1051.987, 1242.310
1052.469, 1219.301
1052.951, 1206.199
1053.433, 1210.917
1053.915, 1222.929
1054.397, 1237.379
1054.879, 1247.601
1055.361, 1237.843
1055.844, 1211.024
1056.326, 1204.272
1056.808, 1217.445
1057.290, 1224.587
1057.772, 1221.200
1058.254, 1219.152
1058.736, 1224.901
1059.218, 1231.904
1059.701, 1230.725
1060.183, 1224.495
1060.665, 1225.861
1061.147, 1232.366
1061.629, 1227.679
1062.111, 1212.054
1062.593, 1202.875
1063.075, 1206.804
1063.557, 1217.588
1064.040, 1232.399
1064.522, 1243.675
1065.004, 1231.916
1065.486, 1207.660
1065.968, 1196.223
1066.450, 1196.949
1066.932, 1200.828
1067.414, 1204.879
1067.896, 1209.562
1068.379, 1216.698
1068.861, 1218.785
1069.343, 1197.864
1069.825, 1173.830
1070.307, 1180.620
1070.789, 1203.596
1071.271, 1210.341
1071.753, 1199.206
1072.236, 1190.305
1072.718, 1192.506
1073.200, 1199.459
1073.682, 1211.390
1074.164, 1220.945
1074.646, 1221.199
1075.128, 1216.100
1075.610, 1209.200
1076.093, 1201.715
1076.575, 1193.354
1077.057, 1183.775
1077.539, 1181.593
1078.021, 1196.517
1078.503, 1211.792
1078.985, 1223.092
1079.467, 1228.617
1079.949, 1223.919
1080.432, 1214.123
1080.914, 1206.728
1081.396, 1202.683
1081.878, 1201.055
1082.360, 1199.811
1082.842, 1203.837
1083.324, 1222.989
1083.806, 1236.625
1084.288, 1229.588
1084.771, 1216.730
1085.253, 1214.432
1085.735, 1220.659
1086.217, 1225.567
1086.699, 1231.405
1087.181, 1229.254
1087.663, 1212.547
1088.145, 1201.400
1088.628, 1202.824
1089.110, 1207.624
1089.592, 1208.688
1090.074, 1209.246
1090.556, 1218.157
1091.038, 1236.232
1091.520, 1236.866
1092.002, 1216.257
1092.484, 1201.739
1092.967, 1197.190
1093.449, 1203.849
1093.931, 1223.991
1094.413, 1247.106
1094.895, 1260.367
1095.377, 1265.098
1095.859, 1264.007
1096.341, 1258.140
1096.823, 1255.762
1097.306, 1257.308
1097.788, 1259.796
1098.270, 1262.216
1098.752, 1265.069
1099.234, 1268.995
1099.716, 1272.488
1100.198, 1271.326
1100.680, 1269.073
1101.163, 1274.411
1101.645, 1284.536
1102.127, 1292.690
1102.609, 1297.246
1103.091, 1297.846
1103.573, 1294.103
1104.055, 1289.967
1104.537, 1287.230
1105.020, 1287.156
1105.502, 1290.845
1105.984, 1297.954
1106.466, 1314.094
1106.948, 1331.370
1107.430, 1329.236
1107.912, 1305.054
1108.394, 1289.883
1108.876, 1305.419
1109.359, 1318.467
1109.841, 1310.535
1110.323, 1303.284
1110.805, 1313.440
1111.287, 1329.360
1111.769, 1336.691
1112.251, 1335.881
1112.733, 1334.607
1113.215, 1335.484
1113.698, 1330.652
1114.180, 1307.384
1114.662, 1299.102
1115.144, 1327.441
1115.626, 1352.137
1116.108, 1342.108
1116.590, 1314.995
1117.072, 1303.782
1117.555, 1308.548
1118.037, 1311.694
1118.519, 1314.058
1119.001, 1307.736
1119.483, 1289.246
1119.965, 1281.272
1120.447, 1295.419
1120.929, 1308.587
1121.411, 1295.229
1121.894, 1267.637
1122.376, 1259.043
1122.858, 1265.413
1123.340, 1266.271
1123.822, 1261.384
1124.304, 1252.957
1124.786, 1242.756
1125.268, 1239.811
1125.750, 1249.859
1126.233, 1258.838
1126.715, 1245.903
1127.197, 1226.772
1127.679, 1224.950
1128.161, 1230.991
1128.643, 1230.689
1129.125, 1223.961
1129.607, 1213.740
1130.090, 1201.763
1130.572, 1195.839
1131.054, 1205.980
1131.536, 1212.145
1132.018, 1197.403
1132.500, 1182.347
1132.982, 1184.176
1133.464, 1191.477
1133.947, 1190.315
1134.429, 1181.318
1134.911, 1171.097
1135.393, 1157.753
1135.875, 1152.474
1136.357, 1164.627
1136.839, 1172.327
1137.321, 1169.370
1137.803, 1164.923
1138.286, 1164.730
1138.768, 1165.295
1139.250, 1161.109
1139.732, 1152.805
1140.214, 1145.981
1140.696, 1140.467
1141.178, 1137.890
1141.660, 1138.565
1142.142, 1139.906
1142.625, 1141.152
1143.107, 1141.865
1143.589, 1141.758
1144.071, 1140.609
1144.553, 1137.916
1145.035, 1133.910
1145.517, 1129.698
1145.999, 1124.710
1146.482, 1114.021
1146.964, 1100.319
1147.446, 1097.605
1147.928, 1110.365
1148.410, 1123.456
1148.892, 1124.862
1149.374, 1123.483
1149.856, 1129.882
1150.339, 1134.741
1150.821, 1125.257
1151.303, 1110.030
1151.785, 1101.481
1152.267, 1100.547
1152.749, 1103.937
1153.231, 1114.535
1153.713, 1114.625
1154.195, 1083.304
1154.677, 1064.403
1155.160, 1081.490
1155.642, 1103.546
1156.124, 1113.538
1156.606, 1115.208
1157.088, 1112.668
1157.570, 1106.408
1158.052, 1102.413
1158.534, 1101.443
1159.017, 1098.869
1159.499, 1093.860
1159.981, 1091.631
1160.463, 1094.246
1160.945, 1095.359
1161.427, 1089.989
1161.909, 1082.311
1162.391, 1078.185
1162.874, 1077.952
1163.356, 1085.309
1163.838, 1097.082
1164.320, 1102.381
1164.802, 1101.432
1165.284, 1100.140
1165.766, 1100.684
1166.248, 1103.630
1166.730, 1111.300
1167.213, 1116.465
1167.695, 1113.859
1168.177, 1105.384
1168.659, 1085.340
1169.141, 1065.874
1169.623, 1063.160
1170.105, 1073.883
1170.587, 1085.226
1171.069, 1095.354
1171.552, 1102.618
1172.034, 1105.629
1172.516, 1107.546
1172.998, 1111.493
1173.480, 1110.274
1173.962, 1096.150
1174.444, 1082.271
1174.926, 1084.039
1175.409, 1095.812
1175.891, 1096.288
1176.373, 1083.831
1176.855, 1086.461
1177.337, 1104.742
1177.819, 1111.101
1178.301, 1100.727
1178.783, 1090.718
1179.266, 1089.384
1179.748, 1094.347
1180.230, 1106.620
1180.712, 1117.049
1181.194, 1104.323
1181.676, 1083.565
1182.158, 1082.326
1182.640, 1093.591
1183.122, 1099.916
1183.604, 1099.362
1184.087, 1099.542
1184.569, 1103.701
1185.051, 1104.926
1185.533, 1095.542
1186.015, 1088.734
1186.497, 1093.184
1186.979, 1098.780
1187.461, 1098.577
1187.944, 1095.119
1188.426, 1092.191
1188.908, 1089.654
1189.390, 1085.833
1189.872, 1077.677
1190.354, 1081.282
1190.836, 1102.063
1191.318, 1108.656
1191.801, 1091.940
1192.283, 1076.567
1192.765, 1076.888
1193.247, 1082.413
1193.729, 1080.288
1194.211, 1073.202
1194.693, 1064.843
1195.175, 1057.910
1195.657, 1062.331
1196.140, 1074.080
1196.622, 1080.109
1197.104, 1079.048
1197.586, 1079.664
1198.068, 1086.411
1198.550, 1088.908
1199.032, 1073.619
1199.514, 1061.355
1199.996, 1068.239
1200.479, 1078.393
1200.961, 1079.710
1201.443, 1075.912
1201.925, 1073.052
1202.407, 1071.281
1202.889, 1068.251
1203.371, 1060.575
1203.853, 1063.698
1204.336, 1082.630
1204.818, 1095.770
1205.300, 1097.960
1205.782, 1098.417
1206.264, 1102.423
1206.746, 1104.079
1207.228, 1094.678
1207.710, 1081.088
1208.193, 1084.151
1208.675, 1095.952
1209.157, 1090.648
1209.639, 1074.069
1210.121, 1066.428
1210.603, 1069.830
1211.085, 1075.878
1211.567, 1081.344
1212.049, 1084.206
1212.531, 1084.100
1213.014, 1079.880
1213.496, 1061.746
1213.978, 1049.455
1214.460, 1062.702
1214.942, 1085.396
1215.424, 1100.210
1215.906, 1106.310
1216.388, 1102.643
1216.871, 1085.854
1217.353, 1081.540
1217.835, 1094.452
1218.317, 1098.724
1218.799, 1089.484
1219.281, 1080.196
1219.763, 1076.202
1220.245, 1077.258
1220.728, 1084.186
1221.210, 1091.696
1221.692, 1088.195
1222.174, 1079.851
1222.656, 1078.484
1223.138, 1082.776
1223.620, 1093.931
1224.102, 1106.637
1224.584, 1105.127
1225.067, 1086.986
1225.549, 1074.512
1226.031, 1081.411
1226.513, 1087.146
1226.995, 1083.342
##END=



