##NAMES=Nabokoite
##RRUFFID=R070062
##IDEAL CHEMISTRY=Cu^2+^_7_Te^4+^O_4_(S^6+^O_4_)_5_&#183;KCl
##LOCALITY=Tolbachik Volcano, Kamchatka, Russia
##OWNER=RRUFF
##SOURCE=Michael Scott
##DESCRIPTION=Brown thin tabular plates, co-type material
##STATUS=The identification of this mineral is confirmed by single-crystal X-ray diffraction and chemical analysis.
##URL=rruff.info/R070062
##MEASURED CHEMISTRY=K_1.00_(Cu^2+^_6.78_Zn_0.22_)_Σ=7_(Te^4+^_0.72_V^5+^_0.14_Bi^3+^_0.05_Fe^3+^_0.05_V^3+^_0.04_)_Σ=1_O_4_(S_1.00_O_4_)_5_Cl_1.00_; V^5+^ and V^3+^ splitted by charge balance
137.2199, 966.1206
137.7020, 972.9551
138.1841, 992.2815
138.6662, 1018.761
139.1483, 1048.335
139.6305, 1082.372
140.1126, 1112.536
140.5947, 1130.440
141.0768, 1144.498
141.5589, 1162.210
142.0410, 1185.611
142.5232, 1214.006
143.0053, 1248.380
143.4874, 1292.709
143.9695, 1331.641
144.4516, 1355.557
144.9337, 1373.522
145.4159, 1394.651
145.8980, 1423.386
146.3801, 1454.989
146.8622, 1478.360
147.3443, 1487.316
147.8264, 1500.734
148.3086, 1527.068
148.7907, 1558.516
149.2728, 1588.261
149.7549, 1613.974
150.2370, 1634.086
150.7191, 1643.559
151.2013, 1634.393
151.6834, 1626.877
152.1655, 1627.647
152.6476, 1631.376
153.1297, 1632.500
153.6118, 1628.401
154.0940, 1619.458
154.5761, 1606.589
155.0582, 1585.726
155.5403, 1566.246
156.0224, 1546.359
156.5045, 1529.518
156.9867, 1520.548
157.4688, 1522.424
157.9509, 1532.239
158.4330, 1538.213
158.9151, 1535.504
159.3972, 1534.284
159.8794, 1534.253
160.3615, 1536.747
160.8436, 1543.910
161.3257, 1557.020
161.8078, 1574.659
162.2899, 1590.617
162.7721, 1598.922
163.2542, 1612.299
163.7363, 1638.522
164.2184, 1669.385
164.7005, 1692.406
165.1826, 1700.722
165.6648, 1698.313
166.1469, 1702.968
166.6290, 1718.034
167.1111, 1736.357
167.5932, 1761.629
168.0753, 1788.754
168.5575, 1810.118
169.0396, 1821.617
169.5217, 1825.310
170.0038, 1829.282
170.4859, 1832.858
170.9680, 1837.463
171.4502, 1842.252
171.9323, 1848.401
172.4144, 1859.474
172.8965, 1878.182
173.3786, 1900.260
173.8607, 1909.500
174.3429, 1889.608
174.8250, 1877.892
175.3071, 1886.541
175.7892, 1907.642
176.2713, 1928.277
176.7534, 1942.622
177.2356, 1952.422
177.7177, 1962.694
178.1998, 1975.642
178.6819, 1986.046
179.1640, 1985.762
179.6461, 1982.725
180.1283, 1993.514
180.6104, 2027.341
181.0925, 2073.604
181.5746, 2104.253
182.0567, 2113.310
182.5388, 2122.602
183.0210, 2138.469
183.5031, 2158.689
183.9852, 2178.896
184.4673, 2197.544
184.9494, 2215.708
185.4315, 2236.769
185.9137, 2263.168
186.3958, 2285.361
186.8779, 2294.970
187.3600, 2287.865
187.8421, 2311.132
188.3242, 2328.298
188.8064, 2339.694
189.2885, 2328.023
189.7706, 2346.135
190.2527, 2352.311
190.7348, 2357.998
191.2169, 2380.301
191.6991, 2371.987
192.1812, 2394.027
192.6633, 2403.950
193.1454, 2419.418
193.6275, 2422.877
194.1096, 2430.046
194.5918, 2449.229
195.0739, 2461.759
195.5560, 2463.836
196.0381, 2463.467
196.5202, 2478.197
197.0023, 2484.724
197.4845, 2483.502
197.9666, 2485.094
198.4487, 2498.213
198.9308, 2514.915
199.4129, 2520.507
199.8950, 2510.781
200.3772, 2495.815
200.8593, 2486.925
201.3414, 2483.047
201.8235, 2476.657
202.3056, 2460.623
202.7877, 2442.425
203.2699, 2422.792
203.7520, 2434.021
204.2341, 2439.150
204.7162, 2438.506
205.1983, 2414.798
205.6804, 2420.872
206.1626, 2415.010
206.6447, 2408.659
207.1268, 2418.925
207.6089, 2398.571
208.0910, 2408.574
208.5731, 2412.884
209.0553, 2426.649
209.5374, 2436.010
210.0195, 2433.016
210.5016, 2427.140
210.9837, 2430.298
211.4658, 2443.537
211.9480, 2458.019
212.4301, 2469.541
212.9122, 2477.714
213.3943, 2481.257
213.8764, 2474.740
214.3585, 2467.551
214.8407, 2470.880
215.3228, 2485.025
215.8049, 2498.074
216.2870, 2504.218
216.7691, 2504.399
217.2512, 2500.662
217.7334, 2490.148
218.2155, 2479.708
218.6976, 2475.203
219.1797, 2476.403
219.6618, 2480.324
220.1439, 2490.263
220.6261, 2498.893
221.1082, 2493.371
221.5903, 2466.954
222.0724, 2440.601
222.5545, 2431.692
223.0366, 2437.263
223.5188, 2439.430
224.0009, 2434.366
224.4830, 2419.710
224.9651, 2390.904
225.4472, 2343.802
225.9293, 2301.608
226.4115, 2284.327
226.8936, 2283.965
227.3757, 2271.326
227.8578, 2233.620
228.3399, 2188.998
228.8220, 2162.477
229.3041, 2154.802
229.7863, 2141.790
230.2684, 2107.089
230.7505, 2059.871
231.2326, 2020.511
231.7147, 1992.944
232.1968, 1973.370
232.6790, 1960.356
233.1611, 1952.891
233.6432, 1945.342
234.1253, 1935.734
234.6074, 1925.009
235.0895, 1916.144
235.5717, 1910.510
236.0538, 1901.044
236.5359, 1877.103
237.0180, 1842.708
237.5001, 1814.163
237.9822, 1799.459
238.4644, 1789.531
238.9465, 1774.000
239.4286, 1752.221
239.9107, 1731.079
240.3928, 1715.378
240.8749, 1704.413
241.3571, 1694.635
241.8392, 1686.232
242.3213, 1678.647
242.8034, 1671.982
243.2855, 1666.074
243.7676, 1659.894
244.2498, 1654.338
244.7319, 1647.062
245.2140, 1631.661
245.6961, 1596.842
246.1782, 1570.208
246.6603, 1574.207
247.1425, 1600.106
247.6246, 1617.872
248.1067, 1614.658
248.5888, 1598.004
249.0709, 1582.356
249.5530, 1566.304
250.0352, 1554.365
250.5173, 1549.388
250.9994, 1549.452
251.4815, 1551.875
251.9636, 1556.441
252.4457, 1561.010
252.9279, 1562.268
253.4100, 1560.199
253.8921, 1556.232
254.3742, 1547.925
254.8563, 1539.037
255.3384, 1533.927
255.8206, 1533.394
256.3027, 1536.152
256.7848, 1542.999
257.2669, 1555.218
257.7490, 1556.312
258.2311, 1538.397
258.7133, 1514.540
259.1954, 1489.423
259.6775, 1465.371
260.1596, 1452.396
260.6417, 1461.363
261.1238, 1491.201
261.6060, 1508.062
262.0881, 1507.905
262.5702, 1500.423
263.0523, 1483.820
263.5344, 1462.773
264.0165, 1450.261
264.4987, 1455.345
264.9808, 1472.295
265.4629, 1474.549
265.9450, 1446.046
266.4271, 1424.259
266.9092, 1420.344
267.3914, 1426.741
267.8735, 1433.508
268.3556, 1436.863
268.8377, 1437.226
269.3198, 1435.462
269.8019, 1430.840
270.2841, 1424.806
270.7662, 1415.174
271.2483, 1405.347
271.7304, 1398.917
272.2125, 1396.387
272.6946, 1394.920
273.1768, 1391.029
273.6589, 1384.337
274.1410, 1376.036
274.6231, 1362.580
275.1052, 1350.801
275.5873, 1344.948
276.0695, 1344.546
276.5516, 1346.524
277.0337, 1348.619
277.5158, 1350.890
277.9979, 1350.867
278.4800, 1347.188
278.9622, 1342.681
279.4443, 1335.678
279.9264, 1328.688
280.4085, 1326.569
280.8906, 1332.669
281.3727, 1343.972
281.8549, 1348.291
282.3370, 1339.011
282.8191, 1331.689
283.3012, 1330.687
283.7833, 1331.397
284.2654, 1328.795
284.7476, 1321.205
285.2297, 1311.458
285.7118, 1304.328
286.1939, 1300.434
286.6760, 1297.549
287.1581, 1297.074
287.6403, 1296.275
288.1224, 1291.277
288.6045, 1282.938
289.0866, 1277.747
289.5687, 1287.282
290.0508, 1313.862
290.5330, 1321.593
291.0151, 1290.408
291.4972, 1260.956
291.9793, 1253.191
292.4614, 1261.137
292.9435, 1268.958
293.4257, 1265.474
293.9078, 1254.979
294.3899, 1253.161
294.8720, 1264.172
295.3541, 1274.963
295.8362, 1282.063
296.3184, 1285.092
296.8005, 1282.384
297.2826, 1272.020
297.7647, 1259.043
298.2468, 1249.599
298.7289, 1243.843
299.2111, 1240.246
299.6932, 1239.040
300.1753, 1239.445
300.6574, 1241.015
301.1395, 1243.880
301.6216, 1246.382
302.1038, 1247.035
302.5859, 1246.312
303.0680, 1246.434
303.5501, 1248.759
304.0322, 1250.150
304.5143, 1245.960
304.9964, 1237.291
305.4785, 1230.834
305.9607, 1231.753
306.4428, 1234.747
306.9249, 1230.302
307.4070, 1217.288
307.8891, 1209.063
308.3712, 1218.652
308.8534, 1241.739
309.3355, 1254.659
309.8176, 1250.935
310.2997, 1242.491
310.7818, 1234.225
311.2639, 1226.563
311.7461, 1220.294
312.2282, 1215.345
312.7103, 1212.727
313.1924, 1216.130
313.6745, 1230.022
314.1566, 1240.124
314.6388, 1243.137
315.1209, 1241.023
315.6030, 1234.169
316.0851, 1222.973
316.5672, 1212.523
317.0493, 1209.641
317.5315, 1217.245
318.0136, 1222.278
318.4957, 1223.136
318.9778, 1223.011
319.4599, 1224.246
319.9420, 1226.329
320.4242, 1226.845
320.9063, 1223.767
321.3884, 1217.449
321.8705, 1212.481
322.3526, 1207.917
322.8347, 1205.917
323.3169, 1209.299
323.7990, 1214.691
324.2811, 1217.959
324.7632, 1217.347
325.2453, 1214.020
325.7274, 1210.063
326.2096, 1204.516
326.6917, 1200.533
327.1738, 1194.644
327.6559, 1192.842
328.1380, 1203.355
328.6201, 1224.441
329.1023, 1243.066
329.5844, 1244.154
330.0665, 1227.157
330.5486, 1216.886
331.0307, 1218.841
331.5128, 1220.942
331.9950, 1217.142
332.4771, 1209.793
332.9592, 1203.591
333.4413, 1200.945
333.9234, 1200.640
334.4055, 1199.307
334.8877, 1195.615
335.3698, 1197.062
335.8519, 1214.978
336.3340, 1235.234
336.8161, 1241.803
337.2982, 1230.423
337.7804, 1216.183
338.2625, 1211.213
338.7446, 1213.369
339.2267, 1212.706
339.7088, 1205.675
340.1909, 1198.133
340.6731, 1197.616
341.1552, 1203.217
341.6373, 1207.536
342.1194, 1207.277
342.6015, 1205.519
343.0836, 1205.749
343.5658, 1208.128
344.0479, 1211.019
344.5300, 1213.869
345.0121, 1216.227
345.4942, 1216.036
345.9763, 1211.402
346.4585, 1206.573
346.9406, 1202.585
347.4227, 1199.528
347.9048, 1198.334
348.3869, 1199.521
348.8690, 1200.381
349.3512, 1195.394
349.8333, 1176.015
350.3154, 1168.615
350.7975, 1183.239
351.2796, 1201.810
351.7617, 1212.619
352.2439, 1214.560
352.7260, 1211.819
353.2081, 1207.709
353.6902, 1202.213
354.1723, 1196.780
354.6544, 1189.123
355.1366, 1184.158
355.6187, 1185.588
356.1008, 1189.492
356.5829, 1189.981
357.0650, 1184.299
357.5471, 1176.344
358.0293, 1173.497
358.5114, 1176.958
358.9935, 1181.749
359.4756, 1189.653
359.9577, 1196.768
360.4398, 1201.458
360.9220, 1203.288
361.4041, 1201.509
361.8862, 1191.727
362.3683, 1176.782
362.8504, 1171.730
363.3326, 1180.739
363.8147, 1191.527
364.2968, 1197.246
364.7789, 1199.622
365.2610, 1201.353
365.7431, 1203.600
366.2253, 1204.800
366.7074, 1202.589
367.1895, 1197.472
367.6716, 1193.333
368.1537, 1191.833
368.6358, 1191.690
369.1180, 1190.757
369.6001, 1188.884
370.0822, 1187.223
370.5643, 1185.201
371.0464, 1184.012
371.5285, 1186.077
372.0107, 1191.393
372.4928, 1196.062
372.9749, 1196.510
373.4570, 1192.665
373.9391, 1189.684
374.4212, 1186.928
374.9034, 1185.584
375.3855, 1187.265
375.8676, 1190.399
376.3497, 1192.753
376.8318, 1193.364
377.3139, 1192.120
377.7961, 1188.305
378.2782, 1178.375
378.7603, 1172.864
379.2424, 1173.458
379.7245, 1176.460
380.2066, 1181.166
380.6888, 1186.476
381.1709, 1189.648
381.6530, 1187.176
382.1351, 1180.249
382.6172, 1179.770
383.0993, 1191.258
383.5815, 1199.980
384.0636, 1198.668
384.5457, 1192.924
385.0278, 1189.824
385.5099, 1192.144
385.9920, 1194.786
386.4742, 1189.931
386.9563, 1178.272
387.4384, 1173.136
387.9205, 1181.238
388.4026, 1191.561
388.8847, 1191.872
389.3669, 1183.443
389.8490, 1177.019
390.3311, 1177.354
390.8132, 1180.800
391.2953, 1182.391
391.7774, 1182.170
392.2596, 1185.112
392.7417, 1196.174
393.2238, 1211.797
393.7059, 1216.859
394.1880, 1204.905
394.6701, 1193.239
395.1523, 1184.994
395.6344, 1179.846
396.1165, 1178.624
396.5986, 1181.208
397.0807, 1184.476
397.5628, 1184.656
398.0450, 1181.318
398.5271, 1177.016
399.0092, 1167.564
399.4913, 1161.526
399.9734, 1164.528
400.4555, 1173.041
400.9377, 1180.731
401.4197, 1184.271
401.9019, 1184.577
402.3840, 1183.289
402.8661, 1179.016
403.3482, 1176.986
403.8303, 1179.625
404.3124, 1183.704
404.7946, 1187.841
405.2767, 1191.674
405.7588, 1194.496
406.2409, 1195.264
406.7230, 1194.592
407.2051, 1194.987
407.6873, 1197.167
408.1694, 1198.210
408.6515, 1195.778
409.1336, 1191.073
409.6157, 1186.103
410.0978, 1179.705
410.5800, 1175.406
411.0621, 1177.921
411.5442, 1184.096
412.0263, 1184.673
412.5084, 1176.047
412.9905, 1167.230
413.4727, 1170.931
413.9548, 1191.727
414.4369, 1204.161
414.9190, 1202.471
415.4011, 1197.493
415.8832, 1193.245
416.3654, 1190.902
416.8475, 1192.842
417.3296, 1200.976
417.8117, 1211.767
418.2938, 1213.605
418.7759, 1197.012
419.2581, 1187.733
419.7402, 1193.279
420.2223, 1201.444
420.7044, 1203.879
421.1865, 1199.803
421.6686, 1192.968
422.1508, 1184.758
422.6329, 1176.110
423.1150, 1174.281
423.5971, 1182.261
424.0792, 1190.917
424.5613, 1194.913
425.0435, 1197.634
425.5256, 1204.102
426.0077, 1217.052
426.4898, 1228.201
426.9719, 1229.670
427.4540, 1223.749
427.9362, 1218.495
428.4183, 1215.609
428.9004, 1213.513
429.3825, 1209.318
429.8646, 1203.158
430.3467, 1203.519
430.8289, 1216.476
431.3110, 1230.952
431.7931, 1241.226
432.2752, 1247.801
432.7573, 1252.212
433.2394, 1255.074
433.7216, 1257.000
434.2037, 1259.074
434.6858, 1259.244
435.1679, 1263.675
435.6500, 1278.770
436.1321, 1292.201
436.6143, 1296.107
437.0964, 1291.427
437.5785, 1283.250
438.0606, 1274.173
438.5427, 1265.337
439.0248, 1261.897
439.5070, 1266.449
439.9891, 1269.862
440.4712, 1266.726
440.9533, 1262.833
441.4354, 1263.727
441.9175, 1270.199
442.3997, 1276.700
442.8818, 1278.926
443.3639, 1278.459
443.8460, 1279.088
444.3281, 1281.190
444.8102, 1284.289
445.2924, 1288.642
445.7745, 1293.746
446.2566, 1297.236
446.7387, 1297.367
447.2208, 1297.981
447.7029, 1303.432
448.1851, 1309.309
448.6672, 1306.858
449.1493, 1294.258
449.6314, 1280.935
450.1135, 1279.147
450.5956, 1291.633
451.0778, 1298.014
451.5599, 1289.095
452.0420, 1284.289
452.5241, 1295.624
453.0062, 1313.478
453.4883, 1323.072
453.9705, 1318.013
454.4526, 1304.108
454.9347, 1286.273
455.4168, 1262.356
455.8989, 1255.471
456.3810, 1282.546
456.8632, 1311.791
457.3453, 1321.338
457.8274, 1314.839
458.3095, 1305.633
458.7916, 1293.423
459.2737, 1284.886
459.7559, 1291.435
460.2380, 1310.432
460.7201, 1324.061
461.2022, 1324.387
461.6843, 1317.712
462.1664, 1315.402
462.6486, 1320.003
463.1307, 1319.978
463.6128, 1309.558
464.0949, 1298.045
464.5770, 1290.755
465.0591, 1288.364
465.5413, 1291.835
466.0234, 1302.688
466.5055, 1316.783
466.9876, 1319.005
467.4697, 1298.743
467.9518, 1286.840
468.4340, 1292.178
468.9161, 1301.553
469.3982, 1306.070
469.8803, 1305.582
470.3624, 1305.482
470.8445, 1311.891
471.3267, 1320.908
471.8088, 1319.444
472.2909, 1304.836
472.7730, 1294.788
473.2551, 1299.117
473.7372, 1311.477
474.2194, 1321.844
474.7015, 1331.280
475.1836, 1334.270
475.6657, 1319.228
476.1478, 1301.620
476.6299, 1304.456
477.1121, 1327.770
477.5942, 1349.960
478.0763, 1355.009
478.5584, 1345.433
479.0405, 1337.436
479.5226, 1327.728
480.0048, 1323.963
480.4869, 1331.503
480.9690, 1342.259
481.4511, 1349.600
481.9332, 1352.414
482.4153, 1352.798
482.8975, 1352.508
483.3796, 1351.487
483.8617, 1348.856
484.3438, 1343.241
484.8259, 1339.192
485.3080, 1342.764
485.7902, 1347.030
486.2723, 1342.864
486.7544, 1327.410
487.2365, 1313.740
487.7186, 1309.989
488.2007, 1313.318
488.6829, 1320.123
489.1650, 1329.905
489.6471, 1338.220
490.1292, 1341.400
490.6113, 1340.260
491.0934, 1340.882
491.5756, 1342.994
492.0577, 1346.923
492.5398, 1356.606
493.0219, 1365.894
493.5040, 1366.377
493.9861, 1358.140
494.4683, 1350.770
494.9504, 1354.911
495.4325, 1369.153
495.9146, 1373.534
496.3967, 1362.066
496.8788, 1351.522
497.3610, 1344.340
497.8431, 1342.229
498.3252, 1349.347
498.8073, 1366.859
499.2894, 1383.668
499.7715, 1393.447
500.2536, 1396.813
500.7357, 1393.780
501.2179, 1384.092
501.7000, 1372.743
502.1821, 1360.385
502.6642, 1349.643
503.1463, 1352.584
503.6284, 1381.308
504.1106, 1404.416
504.5927, 1413.093
505.0748, 1415.424
505.5569, 1418.561
506.0390, 1423.703
506.5211, 1429.303
507.0033, 1434.506
507.4854, 1438.809
507.9675, 1438.014
508.4496, 1427.510
508.9317, 1420.704
509.4138, 1423.645
509.8960, 1429.551
510.3781, 1434.066
510.8602, 1436.373
511.3423, 1435.162
511.8244, 1427.075
512.3066, 1415.713
512.7887, 1406.926
513.2708, 1400.919
513.7529, 1400.736
514.2350, 1410.815
514.7172, 1425.277
515.1993, 1428.301
515.6814, 1416.422
516.1635, 1402.744
516.6456, 1384.248
517.1277, 1368.179
517.6099, 1363.075
518.0920, 1366.394
518.5741, 1367.836
519.0562, 1360.265
519.5383, 1347.045
520.0204, 1338.467
520.5026, 1336.060
520.9847, 1334.208
521.4668, 1334.297
521.9489, 1332.766
522.4310, 1325.723
522.9131, 1314.469
523.3953, 1305.301
523.8774, 1304.799
524.3595, 1305.495
524.8416, 1295.225
525.3237, 1276.159
525.8058, 1262.915
526.2880, 1261.187
526.7701, 1266.247
527.2522, 1272.905
527.7343, 1284.598
528.2164, 1282.944
528.6985, 1251.578
529.1807, 1223.542
529.6628, 1218.176
530.1449, 1227.400
530.6270, 1235.440
531.1091, 1235.686
531.5912, 1231.777
532.0734, 1229.720
532.5555, 1230.045
533.0376, 1226.827
533.5197, 1217.073
534.0018, 1207.537
534.4839, 1200.015
534.9661, 1195.671
535.4482, 1197.519
535.9303, 1208.615
536.4124, 1221.262
536.8945, 1232.449
537.3766, 1240.778
537.8588, 1242.863
538.3409, 1238.074
538.8230, 1228.770
539.3051, 1215.880
539.7872, 1199.870
540.2693, 1189.273
540.7515, 1186.631
541.2336, 1186.185
541.7157, 1189.351
542.1978, 1192.996
542.6799, 1193.551
543.1620, 1174.349
543.6442, 1195.772
544.1263, 1208.043
544.6084, 1211.655
545.0905, 1180.671
545.5726, 1194.360
546.0547, 1190.146
546.5369, 1185.198
547.0190, 1205.175
547.5011, 1179.223
547.9832, 1198.805
548.4653, 1200.210
548.9474, 1209.934
549.4296, 1201.645
549.9116, 1198.919
550.3937, 1214.213
550.8759, 1219.529
551.3580, 1209.166
551.8401, 1219.419
552.3222, 1192.838
552.8043, 1198.579
553.2864, 1218.266
553.7686, 1208.809
554.2507, 1202.370
554.7328, 1205.527
555.2149, 1209.307
555.6970, 1208.379
556.1791, 1199.821
556.6613, 1189.377
557.1434, 1180.634
557.6255, 1174.598
558.1076, 1175.952
558.5897, 1186.211
559.0718, 1198.610
559.5540, 1207.900
560.0361, 1214.423
560.5182, 1221.890
561.0003, 1239.165
561.4824, 1245.865
561.9645, 1229.053
562.4467, 1205.772
562.9288, 1192.011
563.4109, 1189.469
563.8930, 1190.679
564.3751, 1189.583
564.8572, 1187.713
565.3394, 1191.947
565.8215, 1204.695
566.3036, 1212.978
566.7857, 1211.363
567.2678, 1205.158
567.7499, 1198.979
568.2321, 1192.931
568.7142, 1189.708
569.1963, 1192.579
569.6784, 1196.316
570.1605, 1196.017
570.6426, 1193.404
571.1248, 1193.773
571.6069, 1199.013
572.0890, 1204.527
572.5711, 1203.346
573.0532, 1193.998
573.5353, 1187.851
574.0175, 1185.701
574.4996, 1185.984
574.9817, 1189.539
575.4638, 1194.562
575.9459, 1198.933
576.4280, 1202.149
576.9102, 1205.089
577.3923, 1208.624
577.8744, 1212.310
578.3565, 1215.408
578.8386, 1217.852
579.3207, 1218.592
579.8029, 1215.690
580.2850, 1212.618
580.7671, 1218.667
581.2492, 1245.002
581.7313, 1259.687
582.2134, 1254.097
582.6956, 1244.792
583.1777, 1240.930
583.6598, 1241.121
584.1419, 1239.731
584.6240, 1233.765
585.1061, 1227.764
585.5883, 1229.752
586.0704, 1239.186
586.5525, 1245.374
587.0346, 1245.862
587.5167, 1246.012
587.9988, 1251.554
588.4810, 1259.734
588.9631, 1260.366
589.4452, 1243.993
589.9273, 1234.415
590.4094, 1245.092
590.8915, 1262.124
591.3737, 1272.220
591.8558, 1273.887
592.3379, 1270.826
592.8200, 1265.093
593.3021, 1257.785
593.7842, 1251.630
594.2664, 1245.827
594.7485, 1244.539
595.2306, 1253.663
595.7127, 1262.026
596.1948, 1259.221
596.6769, 1248.612
597.1591, 1242.990
597.6412, 1248.862
598.1233, 1257.024
598.6054, 1261.784
599.0875, 1264.318
599.5696, 1265.797
600.0518, 1266.793
600.5339, 1270.421
601.0160, 1280.664
601.4981, 1296.143
601.9802, 1302.550
602.4623, 1294.605
602.9445, 1286.535
603.4266, 1279.007
603.9087, 1273.547
604.3908, 1271.437
604.8729, 1272.585
605.3550, 1276.030
605.8372, 1282.436
606.3193, 1289.938
606.8014, 1298.082
607.2835, 1305.697
607.7656, 1308.179
608.2477, 1304.024
608.7299, 1295.500
609.2120, 1283.836
609.6941, 1268.567
610.1762, 1261.130
610.6583, 1265.549
611.1404, 1273.032
611.6226, 1286.794
612.1047, 1299.984
612.5868, 1304.652
613.0689, 1300.920
613.5510, 1297.457
614.0331, 1301.656
614.5153, 1309.356
614.9974, 1313.245
615.4795, 1313.469
615.9616, 1311.038
616.4437, 1305.585
616.9258, 1299.706
617.4080, 1296.294
617.8901, 1295.229
618.3722, 1298.188
618.8543, 1311.836
619.3364, 1321.242
619.8185, 1316.689
620.3007, 1308.273
620.7828, 1309.307
621.2649, 1321.261
621.7470, 1332.071
622.2291, 1328.372
622.7112, 1316.776
623.1934, 1316.511
623.6755, 1328.024
624.1576, 1340.908
624.6397, 1353.813
625.1218, 1362.407
625.6039, 1359.454
626.0861, 1342.554
626.5682, 1329.765
627.0503, 1318.733
627.5324, 1314.830
628.0145, 1327.701
628.4966, 1345.483
628.9788, 1350.496
629.4609, 1340.199
629.9430, 1330.061
630.4251, 1338.091
630.9072, 1357.306
631.3893, 1359.561
631.8715, 1342.525
632.3536, 1328.439
632.8357, 1325.464
633.3178, 1328.325
633.7999, 1331.459
634.2820, 1335.180
634.7642, 1335.038
635.2463, 1326.657
635.7284, 1318.877
636.2105, 1315.381
636.6926, 1314.987
637.1747, 1317.336
637.6569, 1321.544
638.1390, 1323.603
638.6211, 1319.210
639.1032, 1309.657
639.5853, 1298.313
640.0674, 1283.762
640.5496, 1277.879
641.0317, 1287.716
641.5138, 1303.734
641.9959, 1315.613
642.4780, 1323.528
642.9601, 1325.441
643.4423, 1317.013
643.9244, 1307.282
644.4065, 1295.369
644.8886, 1286.801
645.3707, 1291.760
645.8528, 1310.156
646.3350, 1327.865
646.8171, 1331.636
647.2992, 1325.551
647.7813, 1323.141
648.2634, 1324.639
648.7455, 1327.823
649.2277, 1332.303
649.7098, 1337.880
650.1919, 1344.426
650.6740, 1351.916
651.1561, 1360.370
651.6382, 1377.537
652.1204, 1386.358
652.6025, 1371.355
653.0846, 1350.226
653.5667, 1344.891
654.0488, 1356.519
654.5309, 1368.694
655.0131, 1367.365
655.4952, 1359.465
655.9773, 1364.027
656.4594, 1381.755
656.9415, 1396.062
657.4236, 1403.315
657.9058, 1405.655
658.3879, 1402.824
658.8700, 1395.602
659.3521, 1394.611
659.8342, 1403.684
660.3163, 1413.868
660.7985, 1427.909
661.2806, 1438.678
661.7627, 1436.472
662.2448, 1423.831
662.7269, 1412.443
663.2090, 1409.250
663.6912, 1412.005
664.1733, 1417.081
664.6554, 1424.567
665.1375, 1436.570
665.6196, 1454.621
666.1017, 1472.298
666.5839, 1484.214
667.0660, 1491.706
667.5481, 1501.923
668.0302, 1524.987
668.5123, 1535.989
668.9944, 1518.666
669.4766, 1501.371
669.9587, 1506.886
670.4408, 1528.513
670.9229, 1545.013
671.4050, 1545.892
671.8871, 1545.223
672.3693, 1568.152
672.8514, 1603.904
673.3335, 1607.483
673.8156, 1572.696
674.2977, 1542.456
674.7798, 1544.076
675.2620, 1564.570
675.7441, 1570.819
676.2262, 1552.394
676.7083, 1542.549
677.1904, 1552.627
677.6725, 1558.432
678.1547, 1548.114
678.6368, 1527.216
679.1189, 1503.234
679.6010, 1478.058
680.0831, 1455.747
680.5652, 1440.513
681.0474, 1429.803
681.5295, 1419.851
682.0116, 1410.494
682.4937, 1402.253
682.9758, 1395.566
683.4579, 1388.948
683.9401, 1380.435
684.4222, 1370.255
684.9043, 1356.533
685.3864, 1336.579
685.8685, 1316.885
686.3506, 1297.692
686.8328, 1280.260
687.3149, 1266.349
687.7970, 1255.866
688.2791, 1245.681
688.7612, 1232.038
689.2433, 1220.145
689.7255, 1217.605
690.2076, 1219.790
690.6897, 1214.821
691.1718, 1200.584
691.6539, 1187.585
692.1360, 1186.498
692.6182, 1194.841
693.1003, 1199.173
693.5824, 1199.252
694.0645, 1195.954
694.5466, 1188.191
695.0287, 1178.455
695.5109, 1167.083
695.9930, 1155.181
696.4751, 1146.537
696.9572, 1139.720
697.4393, 1139.269
697.9214, 1154.320
698.4036, 1171.589
698.8857, 1175.777
699.3678, 1168.486
699.8499, 1161.420
700.3320, 1161.155
700.8141, 1164.482
701.2963, 1168.057
701.7784, 1171.492
702.2605, 1165.596
702.7426, 1146.940
703.2247, 1129.635
703.7068, 1121.740
704.1890, 1120.357
704.6711, 1119.020
705.1532, 1117.937
705.6353, 1116.343
706.1174, 1110.186
706.5995, 1107.805
707.0817, 1117.677
707.5638, 1132.018
708.0459, 1139.681
708.5280, 1137.833
709.0101, 1131.244
709.4922, 1120.227
709.9744, 1108.682
710.4565, 1104.317
710.9386, 1106.415
711.4207, 1110.913
711.9028, 1116.919
712.3849, 1120.755
712.8671, 1117.715
713.3492, 1107.957
713.8313, 1099.367
714.3134, 1089.108
714.7955, 1084.900
715.2776, 1096.570
715.7598, 1107.434
716.2419, 1102.307
716.7240, 1085.164
717.2061, 1074.197
717.6882, 1078.440
718.1703, 1084.990
718.6525, 1085.804
719.1346, 1084.244
719.6167, 1066.457
720.0988, 1087.222
720.5809, 1098.836
721.0630, 1101.791
721.5452, 1070.149
722.0273, 1083.181
722.5094, 1078.310
722.9915, 1072.705
723.4736, 1092.024
723.9557, 1065.415
724.4379, 1084.339
724.9200, 1085.087
725.4021, 1094.153
725.8842, 1085.206
726.3663, 1081.823
726.8484, 1096.460
727.3306, 1101.119
727.8127, 1090.098
728.2948, 1080.088
728.7769, 1078.929
729.2590, 1062.778
729.7411, 1083.230
730.2233, 1094.530
730.7054, 1097.171
731.1875, 1065.216
731.6696, 1077.935
732.1517, 1072.750
732.6339, 1066.832
733.1160, 1085.838
733.5981, 1058.915
734.0802, 1077.525
734.5623, 1077.960
735.0444, 1086.713
735.5266, 1077.453
736.0087, 1073.757
736.4908, 1088.080
736.9729, 1092.425
737.4550, 1081.091
737.9371, 1090.374
738.4193, 1062.821
738.9014, 1067.592
739.3835, 1086.308
739.8656, 1075.880
740.3477, 1085.491
740.8298, 1078.198
741.3120, 1085.499
741.7941, 1089.499
742.2762, 1088.997
742.7583, 1079.577
743.2404, 1063.687
743.7225, 1055.353
744.2047, 1054.971
744.6868, 1057.681
745.1689, 1062.724
745.6510, 1068.081
746.1331, 1071.504
746.6152, 1073.003
747.0973, 1072.763
747.5794, 1071.393
748.0615, 1067.455
748.5436, 1055.828
749.0258, 1045.629
749.5079, 1045.840
749.9900, 1053.834
750.4721, 1059.414
750.9542, 1058.254
751.4363, 1054.948
751.9185, 1052.824
752.4006, 1050.770
752.8827, 1045.256
753.3648, 1037.696
753.8469, 1036.068
754.3290, 1044.695
754.8112, 1055.808
755.2933, 1054.766
755.7754, 1041.423
756.2575, 1037.448
756.7396, 1045.912
757.2217, 1052.798
757.7039, 1051.605
758.1860, 1047.597
758.6681, 1048.396
759.1502, 1054.840
759.6323, 1056.960
760.1144, 1048.325
760.5966, 1043.523
761.0787, 1049.499
761.5608, 1058.574
762.0429, 1065.949
762.5250, 1069.876
763.0071, 1067.334
763.4893, 1054.480
763.9714, 1040.350
764.4535, 1034.692
764.9356, 1033.379
765.4177, 1025.476
765.8998, 1012.421
766.3820, 1010.328
766.8641, 1028.679
767.3462, 1054.512
767.8283, 1065.547
768.3104, 1060.963
768.7925, 1052.621
769.2747, 1036.420
769.7568, 1029.535
770.2389, 1045.881
770.7210, 1067.142
771.2031, 1067.844
771.6852, 1047.102
772.1674, 1031.622
772.6495, 1022.053
773.1316, 1018.280
773.6137, 1023.071
774.0958, 1031.479
774.5779, 1041.146
775.0601, 1050.422
775.5422, 1056.336
776.0243, 1057.569
776.5064, 1055.071
776.9885, 1048.007
777.4706, 1038.574
777.9528, 1030.216
778.4349, 1023.371
778.9170, 1017.287
779.3991, 1011.577
779.8812, 1008.394
780.3633, 1011.887
780.8455, 1021.889
781.3276, 1030.976
781.8097, 1040.464
782.2918, 1042.904
782.7739, 1031.054
783.2560, 1018.144
783.7382, 1020.704
784.2203, 1038.356
784.7024, 1048.351
785.1845, 1048.366
785.6666, 1044.178
786.1487, 1030.221
786.6309, 1018.115
787.1130, 1016.582
787.5951, 1023.767
788.0772, 1035.211
788.5593, 1051.415
789.0414, 1061.913
789.5236, 1053.766
790.0057, 1039.214
790.4878, 1035.397
790.9699, 1039.386
791.4520, 1038.047
791.9341, 1027.108
792.4163, 1016.161
792.8984, 1016.289
793.3805, 1025.093
793.8626, 1032.887
794.3447, 1039.961
794.8268, 1040.586
795.3090, 1031.363
795.7911, 1021.841
796.2732, 1019.880
796.7553, 1024.391
797.2374, 1030.369
797.7195, 1044.748
798.2017, 1048.694
798.6838, 1033.964
799.1659, 1018.167
799.6480, 1007.554
800.1301, 1001.606
800.6122, 999.4735
801.0944, 1001.201
801.5765, 1003.996
802.0586, 1006.124
802.5407, 1009.483
803.0228, 1018.582
803.5049, 1028.465
803.9871, 1030.646
804.4692, 1024.527
804.9513, 1016.217
805.4334, 1009.137
805.9155, 1004.165
806.3976, 1002.842
806.8798, 1004.925
807.3619, 1008.768
807.8440, 1014.208
808.3261, 1026.400
808.8082, 1050.577
809.2903, 1074.260
809.7725, 1071.116
810.2546, 1035.568
810.7367, 1016.536
811.2188, 1020.840
811.7009, 1027.924
812.1830, 1035.600
812.6652, 1039.650
813.1473, 1032.150
813.6294, 1015.118
814.1115, 1006.527
814.5936, 1017.483
815.0757, 1023.912
815.5579, 1015.536
816.0400, 1004.941
816.5221, 1000.462
817.0042, 1001.862
817.4863, 1007.480
817.9684, 1017.293
818.4506, 1025.821
818.9327, 1028.208
819.4148, 1027.742
819.8969, 1029.281
820.3790, 1031.406
820.8611, 1028.267
821.3433, 1019.060
821.8254, 1011.943
822.3075, 1014.949
822.7896, 1024.476
823.2717, 1031.830
823.7538, 1036.927
824.2360, 1037.035
824.7181, 1030.956
825.2002, 1025.113
825.6823, 1023.955
826.1644, 1024.876
826.6465, 1021.728
827.1287, 1013.239
827.6108, 1005.422
828.0929, 996.3626
828.5750, 990.7257
829.0571, 988.7854
829.5392, 991.7376
830.0214, 1005.176
830.5035, 1027.033
830.9856, 1038.351
831.4677, 1024.537
831.9498, 1014.477
832.4319, 1024.127
832.9141, 1035.413
833.3962, 1029.807
833.8783, 1013.708
834.3604, 1006.163
834.8425, 1014.293
835.3246, 1022.145
835.8068, 1011.513
836.2889, 996.9446
836.7710, 1001.920
837.2531, 1019.371
837.7352, 1026.528
838.2173, 1018.633
838.6995, 1011.640
839.1816, 1020.441
839.6637, 1036.759
840.1458, 1037.692
840.6279, 1024.167
841.1100, 1018.759
841.5922, 1025.026
842.0743, 1032.880
842.5564, 1038.189
843.0385, 1038.784
843.5206, 1029.124
844.0027, 1006.341
844.4849, 994.3560
844.9670, 998.2165
845.4491, 1003.713
845.9312, 1009.873
846.4133, 1013.860
846.8954, 1010.034
847.3776, 1001.206
847.8597, 1000.988
848.3418, 1019.496
848.8239, 1031.792
849.3060, 1028.936
849.7881, 1022.645
850.2703, 1018.826
850.7524, 1017.233
851.2345, 1017.151
851.7166, 1018.283
852.1987, 1018.127
852.6808, 1014.147
853.1630, 1009.346
853.6451, 1005.274
854.1272, 1002.670
854.6093, 1003.035
855.0914, 1006.161
855.5735, 1010.807
856.0557, 1016.715
856.5378, 1020.754
857.0199, 1014.537
857.5020, 1003.159
857.9841, 1007.769
858.4662, 1027.119
858.9484, 1035.306
859.4305, 1022.207
859.9126, 1005.217
860.3947, 1004.871
860.8768, 1017.625
861.3589, 1020.792
861.8411, 1012.315
862.3232, 1005.379
862.8053, 1001.500
863.2874, 1000.645
863.7695, 1003.554
864.2516, 1008.916
864.7338, 1014.361
865.2159, 1021.595
865.6980, 1023.011
866.1801, 1016.000
866.6622, 1006.422
867.1443, 988.3734
867.6265, 973.9525
868.1086, 977.6981
868.5907, 995.9005
869.0728, 1007.960
869.5549, 1007.836
870.0370, 1005.071
870.5192, 999.4482
871.0013, 995.2224
871.4834, 995.5436
871.9655, 999.5140
872.4476, 1006.971
872.9297, 1017.344
873.4119, 1023.650
873.8940, 1019.388
874.3761, 1011.181
874.8582, 1002.230
875.3403, 995.1505
875.8224, 998.1047
876.3046, 1008.294
876.7867, 1009.112
877.2688, 990.6201
877.7509, 969.5675
878.2330, 968.7767
878.7151, 982.8602
879.1973, 998.6592
879.6794, 1014.932
880.1615, 1026.851
880.6436, 1032.890
881.1257, 1036.795
881.6078, 1042.585
882.0900, 1048.112
882.5721, 1044.659
883.0542, 1031.276
883.5363, 1020.973
884.0184, 1015.335
884.5005, 1010.820
884.9827, 1005.003
885.4648, 1000.719
885.9469, 1003.819
886.4290, 1015.464
886.9111, 1016.916
887.3932, 999.5062
887.8754, 988.5820
888.3575, 991.9714
888.8396, 999.5522
889.3217, 1007.738
889.8038, 1014.198
890.2859, 1011.399
890.7681, 992.8919
891.2502, 983.1416
891.7323, 993.3981
892.2144, 1002.374
892.6965, 1001.882
893.1786, 995.6176
893.6608, 983.6946
894.1429, 969.0557
894.6250, 964.7969
895.1071, 983.2593
895.5892, 997.9103
896.0714, 989.5345
896.5535, 978.1830
897.0356, 983.7208
897.5177, 999.0457
897.9998, 1007.744
898.4819, 1005.947
898.9641, 1003.326
899.4462, 1005.685
899.9283, 1011.394
900.4104, 1022.669
900.8925, 1034.295
901.3746, 1036.225
901.8568, 1028.952
902.3389, 1018.640
902.8210, 1008.187
903.3031, 1001.676
903.7852, 1008.717
904.2673, 1022.000
904.7495, 1019.946
905.2316, 1005.832
905.7137, 998.0061
906.1958, 1000.526
906.6779, 1003.910
907.1600, 1000.534
907.6422, 994.9126
908.1243, 998.0768
908.6064, 1009.624
909.0885, 1020.492
909.5706, 1030.943
910.0527, 1030.429
910.5349, 1012.717
911.0170, 992.8322
911.4991, 987.8243
911.9812, 995.4139
912.4633, 1000.515
912.9454, 1002.941
913.4276, 1003.398
913.9097, 1000.683
914.3918, 999.0535
914.8739, 1001.637
915.3560, 1005.471
915.8381, 1004.986
916.3203, 999.2214
916.8024, 999.8879
917.2845, 1017.976
917.7666, 1024.719
918.2487, 1000.178
918.7308, 978.7308
919.2130, 989.8292
919.6951, 1017.221
920.1772, 1023.709
920.6593, 999.8072
921.1414, 986.0571
921.6235, 993.8781
922.1057, 1003.867
922.5878, 1014.635
923.0699, 1020.545
923.5520, 1009.574
924.0341, 989.0930
924.5162, 987.0142
924.9984, 1020.618
925.4805, 1042.450
925.9626, 1023.224
926.4447, 999.2971
926.9268, 993.7911
927.4089, 999.0140
927.8911, 1004.217
928.3732, 1007.355
928.8553, 1010.173
929.3374, 1014.549
929.8195, 1016.636
930.3016, 1010.530
930.7838, 1003.380
931.2659, 1004.746
931.7480, 1010.807
932.2301, 1011.272
932.7122, 1004.194
933.1943, 999.1783
933.6765, 1005.704
934.1586, 1014.107
934.6407, 1012.428
935.1228, 1005.461
935.6049, 1000.879
936.0870, 999.2531
936.5692, 998.8044
937.0513, 998.7892
937.5334, 999.5142
938.0155, 1002.456
938.4976, 1005.519
938.9797, 1002.855
939.4619, 996.9415
939.9440, 996.0640
940.4261, 1000.953
940.9082, 1006.822
941.3903, 1011.157
941.8724, 1013.450
942.3546, 1010.943
942.8367, 1005.850
943.3188, 1010.105
943.8009, 1022.017
944.2830, 1025.338
944.7651, 1016.590
945.2472, 1007.993
945.7293, 1008.262
946.2114, 1013.191
946.6935, 1013.874
947.1757, 1010.626
947.6578, 1011.037
948.1399, 1015.382
948.6220, 1020.398
949.1041, 1025.462
949.5862, 1028.832
950.0684, 1028.873
950.5505, 1026.285
951.0326, 1022.623
951.5147, 1017.404
951.9968, 1015.283
952.4789, 1017.078
952.9611, 1018.699
953.4432, 1018.351
953.9253, 1018.495
954.4074, 1022.445
954.8895, 1028.728
955.3716, 1029.188
955.8538, 1021.549
956.3359, 1015.682
956.8180, 1010.147
957.3001, 1011.888
957.7822, 1028.381
958.2643, 1046.557
958.7465, 1049.326
959.2286, 1038.236
959.7107, 1034.494
960.1928, 1042.411
960.6749, 1048.194
961.1570, 1051.753
961.6392, 1051.637
962.1213, 1043.995
962.6034, 1034.923
963.0855, 1034.021
963.5676, 1041.627
964.0497, 1043.297
964.5319, 1030.698
965.0140, 1025.655
965.4961, 1034.237
965.9782, 1045.901
966.4603, 1059.093
966.9424, 1070.336
967.4246, 1073.136
967.9067, 1066.638
968.3888, 1062.531
968.8709, 1063.738
969.3530, 1063.822
969.8351, 1060.127
970.3173, 1056.797
970.7994, 1056.688
971.2815, 1058.426
971.7636, 1058.292
972.2457, 1055.173
972.7278, 1059.208
973.2100, 1080.713
973.6921, 1097.046
974.1742, 1099.097
974.6563, 1097.424
975.1384, 1099.222
975.6205, 1102.746
976.1027, 1103.564
976.5848, 1100.787
977.0669, 1098.507
977.5490, 1097.263
978.0311, 1097.051
978.5132, 1097.350
978.9954, 1099.159
979.4775, 1103.781
979.9596, 1110.383
980.4417, 1118.150
980.9238, 1127.709
981.4059, 1132.191
981.8881, 1122.529
982.3702, 1116.488
982.8523, 1122.467
983.3344, 1134.273
983.8165, 1148.077
984.2986, 1162.597
984.7808, 1176.101
985.2629, 1188.036
985.7450, 1200.387
986.2271, 1217.825
986.7092, 1230.857
987.1913, 1231.760
987.6735, 1228.759
988.1556, 1227.696
988.6377, 1229.917
989.1198, 1236.534
989.6019, 1248.020
990.0840, 1262.585
990.5662, 1283.697
991.0483, 1302.750
991.5304, 1312.317
992.0125, 1319.617
992.4946, 1329.652
992.9767, 1344.192
993.4589, 1367.088
993.9410, 1401.083
994.4231, 1430.630
994.9052, 1439.823
995.3873, 1453.163
995.8694, 1491.464
996.3516, 1535.770
996.8337, 1566.263
997.3158, 1584.682
997.7979, 1601.032
998.2800, 1617.085
998.7621, 1638.424
999.2443, 1665.175
999.7264, 1700.867
1000.208, 1762.210
1000.691, 1822.310
1001.173, 1845.478
1001.655, 1843.430
1002.137, 1855.816
1002.619, 1895.902
1003.101, 1932.749
1003.583, 1946.699
1004.065, 1960.203
1004.548, 1990.838
1005.030, 2024.212
1005.512, 2046.315
1005.994, 2057.267
1006.476, 2062.742
1006.958, 2064.757
1007.440, 2056.079
1007.922, 2024.637
1008.404, 1992.287
1008.887, 1975.859
1009.369, 1960.642
1009.851, 1930.693
1010.333, 1889.269
1010.815, 1849.346
1011.297, 1814.832
1011.779, 1771.236
1012.261, 1698.933
1012.744, 1632.642
1013.226, 1595.674
1013.708, 1568.962
1014.190, 1538.315
1014.672, 1502.339
1015.154, 1460.093
1015.636, 1410.998
1016.118, 1367.296
1016.600, 1333.516
1017.083, 1306.856
1017.565, 1288.786
1018.047, 1274.680
1018.529, 1259.124
1019.011, 1244.880
1019.493, 1241.278
1019.975, 1250.623
1020.457, 1249.101
1020.940, 1215.541
1021.422, 1187.884
1021.904, 1188.090
1022.386, 1192.438
1022.868, 1181.242
1023.350, 1161.516
1023.832, 1148.088
1024.314, 1143.115
1024.797, 1136.977
1025.279, 1124.850
1025.761, 1114.472
1026.243, 1107.217
1026.725, 1103.406
1027.207, 1105.594
1027.689, 1110.186
1028.171, 1112.028
1028.653, 1110.609
1029.135, 1108.182
1029.618, 1104.002
1030.100, 1100.561
1030.582, 1095.975
1031.064, 1094.904
1031.546, 1101.724
1032.028, 1112.453
1032.510, 1123.592
1032.992, 1134.408
1033.475, 1139.394
1033.957, 1134.585
1034.439, 1129.164
1034.921, 1122.123
1035.403, 1116.750
1035.885, 1116.447
1036.367, 1117.112
1036.849, 1113.781
1037.332, 1106.991
1037.814, 1101.341
1038.296, 1094.071
1038.778, 1093.236
1039.260, 1104.964
1039.742, 1114.665
1040.224, 1118.422
1040.706, 1117.405
1041.188, 1109.845
1041.671, 1098.520
1042.153, 1095.202
1042.635, 1103.852
1043.117, 1109.248
1043.599, 1110.020
1044.081, 1110.366
1044.563, 1112.961
1045.045, 1112.531
1045.527, 1101.178
1046.010, 1086.518
1046.492, 1091.198
1046.974, 1122.198
1047.456, 1128.473
1047.938, 1099.045
1048.420, 1078.805
1048.902, 1078.559
1049.384, 1086.597
1049.866, 1097.490
1050.349, 1108.031
1050.831, 1112.169
1051.313, 1109.900
1051.795, 1103.076
1052.277, 1089.800
1052.759, 1085.516
1053.241, 1094.331
1053.723, 1102.973
1054.206, 1104.433
1054.688, 1102.492
1055.170, 1102.660
1055.652, 1104.051
1056.134, 1100.614
1056.616, 1092.390
1057.098, 1087.857
1057.580, 1087.978
1058.063, 1087.860
1058.545, 1085.436
1059.027, 1082.854
1059.509, 1082.258
1059.991, 1083.413
1060.473, 1085.320
1060.955, 1088.353
1061.437, 1097.805
1061.919, 1111.888
1062.401, 1113.198
1062.884, 1097.463
1063.366, 1081.189
1063.848, 1077.122
1064.330, 1079.871
1064.812, 1080.752
1065.294, 1081.790
1065.776, 1091.117
1066.258, 1104.636
1066.741, 1107.072
1067.223, 1097.346
1067.705, 1088.037
1068.187, 1086.090
1068.669, 1088.003
1069.151, 1094.010
1069.633, 1098.448
1070.115, 1089.042
1070.598, 1074.677
1071.080, 1074.203
1071.562, 1084.778
1072.044, 1088.123
1072.526, 1077.492
1073.008, 1055.040
1073.490, 1076.526
1073.972, 1088.860
1074.454, 1092.536
1074.937, 1061.616
1075.419, 1075.369
1075.901, 1071.219
1076.383, 1066.335
1076.865, 1086.375
1077.347, 1060.486
1077.829, 1080.131
1078.311, 1081.600
1078.793, 1091.388
1079.276, 1083.163
1079.758, 1080.501
1080.240, 1081.728
1080.722, 1089.728
1081.204, 1097.901
1081.686, 1102.246
1082.168, 1099.675
1082.650, 1098.671
1083.133, 1101.799
1083.615, 1105.158
1084.097, 1109.469
1084.579, 1111.541
1085.061, 1104.550
1085.543, 1074.455
1086.025, 1095.496
1086.507, 1107.386
1086.990, 1110.616
1087.472, 1079.250
1087.954, 1092.557
1088.436, 1087.962
1088.918, 1082.632
1089.400, 1102.227
1089.882, 1075.893
1090.364, 1095.093
1090.846, 1096.116
1091.328, 1105.459
1091.811, 1096.788
1092.293, 1093.680
1092.775, 1108.592
1093.257, 1113.527
1093.739, 1102.782
1094.221, 1112.653
1094.703, 1085.690
1095.185, 1091.049
1095.668, 1100.302
1096.150, 1109.749
1096.632, 1121.290
1097.114, 1133.594
1097.596, 1134.442
1098.078, 1121.640
1098.560, 1107.427
1099.042, 1099.355
1099.525, 1097.920
1100.007, 1110.254
1100.489, 1125.903
1100.971, 1117.508
1101.453, 1096.465
1101.935, 1092.519
1102.417, 1105.389
1102.899, 1116.931
1103.381, 1120.038
1103.864, 1118.980
1104.346, 1116.585
1104.828, 1112.128
1105.310, 1101.818
1105.792, 1091.666
1106.274, 1089.028
1106.756, 1091.615
1107.238, 1094.753
1107.720, 1097.411
1108.203, 1099.948
1108.685, 1102.397
1109.167, 1105.004
1109.649, 1108.793
1110.131, 1111.672
1110.613, 1113.330
1111.095, 1112.784
1111.577, 1107.930
1112.060, 1100.197
1112.542, 1093.454
1113.024, 1087.496
1113.506, 1085.139
1113.988, 1090.744
1114.470, 1093.598
1114.952, 1090.316
1115.434, 1086.279
1115.917, 1082.775
1116.399, 1082.024
1116.881, 1088.223
1117.363, 1100.542
1117.845, 1109.345
1118.327, 1115.248
1118.809, 1113.427
1119.291, 1102.066
1119.773, 1090.815
1120.255, 1082.285
1120.738, 1080.641
1121.220, 1091.467
1121.702, 1104.767
1122.184, 1095.556
1122.666, 1068.771
1123.148, 1052.476
1123.630, 1046.367
1124.112, 1048.114
1124.595, 1056.045
1125.077, 1063.255
1125.559, 1066.417
1126.041, 1066.141
1126.523, 1060.189
1127.005, 1054.665
1127.487, 1063.446
1127.969, 1075.070
1128.452, 1068.741
1128.934, 1050.525
1129.416, 1035.294
1129.898, 1027.611
1130.380, 1030.067
1130.862, 1048.365
1131.344, 1064.193
1131.826, 1064.750
1132.308, 1062.417
1132.791, 1067.181
1133.273, 1071.783
1133.755, 1066.470
1134.237, 1054.536
1134.719, 1046.025
1135.201, 1042.357
1135.683, 1041.450
1136.165, 1045.452
1136.647, 1048.606
1137.130, 1050.940
1137.612, 1050.900
1138.094, 1044.555
1138.576, 1039.498
1139.058, 1046.231
1139.540, 1061.904
1140.022, 1072.187
1140.504, 1077.714
1140.987, 1070.785
1141.469, 1048.429
1141.951, 1038.151
1142.433, 1048.105
1142.915, 1059.073
1143.397, 1058.305
1143.879, 1050.837
1144.361, 1041.704
1144.844, 1033.539
1145.326, 1037.598
1145.808, 1049.095
1146.290, 1051.932
1146.772, 1046.335
1147.254, 1040.899
1147.736, 1038.582
1148.218, 1038.126
1148.700, 1039.599
1149.182, 1040.077
1149.665, 1033.814
1150.147, 1028.229
1150.629, 1032.051
1151.111, 1040.559
1151.593, 1048.878
1152.075, 1055.063
1152.557, 1055.696
1153.039, 1049.136
1153.522, 1043.828
1154.004, 1042.807
1154.486, 1042.348
1154.968, 1041.793
1155.450, 1041.117
1155.932, 1038.853
1156.414, 1037.716
1156.896, 1043.073
1157.379, 1052.706
1157.861, 1051.881
1158.343, 1035.820
1158.825, 1028.319
1159.307, 1031.282
1159.789, 1033.944
1160.271, 1033.091
1160.753, 1037.343
1161.235, 1054.083
1161.718, 1066.862
1162.200, 1045.247
1162.682, 1004.967
1163.164, 999.9745
1163.646, 1020.445
1164.128, 1034.133
1164.610, 1038.402
1165.092, 1037.229
1165.574, 1032.443
1166.057, 1025.983
1166.539, 1017.737
1167.021, 1013.864
1167.503, 1027.631
1167.985, 1039.908
1168.467, 1024.471
1168.949, 1004.188
1169.431, 1013.954
1169.914, 1040.890
1170.396, 1044.874
1170.878, 1018.254
1171.360, 1003.104
1171.842, 1022.223
1172.324, 1031.951
1172.806, 1014.457
1173.288, 1001.309
1173.771, 1006.816
1174.253, 1017.955
1174.735, 1024.354
1175.217, 1026.424
1175.699, 1024.653
1176.181, 1018.707
1176.663, 1015.671
1177.145, 1006.967
1177.627, 1020.775
1178.109, 1028.518
1178.592, 1030.524
1179.074, 1009.501
1179.556, 1018.296
1180.038, 1015.192
1180.520, 1011.634
1181.002, 1024.729
1181.484, 1007.239
1181.966, 1020.141
1182.449, 1020.963
1182.931, 1027.365
1183.413, 1021.793
1183.895, 1019.967
1184.377, 1030.190
1184.859, 1033.796
1185.341, 1026.985
1185.823, 1033.954
1186.306, 1016.404
1186.788, 1020.437
1187.270, 1033.803
1187.752, 1027.774
1188.234, 1035.142
1188.716, 1037.457
1189.198, 1016.684
1189.680, 1036.161
1190.162, 1038.282
1190.645, 1022.584
1191.127, 1040.790
1191.609, 1028.399
1192.091, 1030.934
1192.573, 1039.301
1193.055, 1049.009
1193.537, 1055.983
1194.019, 1057.933
1194.501, 1041.625
1194.984, 1017.638
1195.466, 1025.108
1195.948, 1053.475
1196.430, 1063.345
1196.912, 1051.912
1197.394, 1045.019
1197.876, 1053.838
1198.358, 1060.647
1198.841, 1046.517
1199.323, 1035.447
1199.805, 1047.700
1200.287, 1063.194
1200.769, 1065.481
1201.251, 1061.607
1201.733, 1063.963
1202.215, 1070.891
1202.698, 1068.048
1203.180, 1050.183
1203.662, 1041.598
1204.144, 1047.473
1204.626, 1048.036
1205.108, 1038.051
1205.590, 1028.517
1206.072, 1023.603
1206.554, 1028.468
1207.036, 1051.634
1207.519, 1082.213
1208.001, 1093.701
1208.483, 1089.099
1208.965, 1072.942
1209.447, 1051.389
1209.929, 1044.590
1210.411, 1051.968
1210.893, 1056.273
1211.376, 1050.828
1211.858, 1042.139
1212.340, 1031.228
1212.822, 1023.110
1213.304, 1021.805
1213.786, 1023.246
1214.268, 1024.414
1214.750, 1026.775
1215.233, 1036.006
1215.715, 1047.763
1216.197, 1045.251
1216.679, 1024.844
1217.161, 1014.927
1217.643, 1017.817
1218.125, 1024.649
1218.607, 1036.194
1219.089, 1042.907
1219.572, 1041.057
1220.054, 1031.464
1220.536, 1013.017
1221.018, 995.1197
1221.500, 998.9014
1221.982, 1014.054
1222.464, 1015.294
1222.946, 1006.956
1223.428, 995.9831
1223.911, 986.2837
1224.393, 986.6791
1224.875, 997.7863
1225.357, 1004.376
1225.839, 997.3178
1226.321, 989.7423
1226.803, 983.4687
1227.285, 982.6564
1227.768, 997.8062
1228.250, 1010.455
1228.732, 1000.379
1229.214, 982.5601
1229.696, 982.0812
1230.178, 996.7817
1230.660, 1003.275
1231.142, 1000.715
1231.625, 996.3201
1232.107, 990.3188
1232.589, 994.3673
1233.071, 1010.499
1233.553, 1020.063
1234.035, 1012.502
1234.517, 994.8582
1234.999, 965.0917
1235.481, 942.1201
1235.964, 958.6177
1236.446, 988.6179
1236.928, 1003.686
1237.410, 1006.442
1237.892, 1002.221
1238.374, 993.8539
1238.856, 985.9245
1239.338, 978.1352
1239.820, 977.2439
1240.303, 995.4621
1240.785, 1001.519
1241.267, 985.5786
1241.749, 970.9850
1242.231, 967.2818
1242.713, 967.1792
1243.195, 964.0128
1243.677, 960.0233
1244.159, 959.4269
1244.642, 962.2239
##END=



