##NAMES=Nabokoite
##RRUFFID=R070062
##IDEAL CHEMISTRY=Cu^2+^_7_Te^4+^O_4_(S^6+^O_4_)_5_&#183;KCl
##LOCALITY=Tolbachik Volcano, Kamchatka, Russia
##OWNER=RRUFF
##SOURCE=Michael Scott
##DESCRIPTION=Brown thin tabular plates, co-type material
##STATUS=The identification of this mineral is confirmed by single-crystal X-ray diffraction and chemical analysis.
##URL=rruff.info/R070062
##MEASURED CHEMISTRY=K_1.00_(Cu^2+^_6.78_Zn_0.22_)_Σ=7_(Te^4+^_0.72_V^5+^_0.14_Bi^3+^_0.05_Fe^3+^_0.05_V^3+^_0.04_)_Σ=1_O_4_(S_1.00_O_4_)_5_Cl_1.00_; V^5+^ and V^3+^ splitted by charge balance
135.2363, 9685.392
135.7184, 9903.522
136.2005, 10120.90
136.6826, 10330.68
137.1647, 10514.45
137.6469, 10668.64
138.1290, 10802.96
138.6111, 10927.49
139.0932, 11047.32
139.5753, 11129.66
140.0574, 11165.41
140.5396, 11158.82
141.0217, 11131.18
141.5038, 11072.41
141.9859, 11007.12
142.4680, 10958.29
142.9501, 10932.89
143.4323, 10908.85
143.9144, 10880.21
144.3965, 10845.98
144.8786, 10820.78
145.3607, 10810.67
145.8428, 10806.31
146.3250, 10795.81
146.8071, 10780.08
147.2892, 10756.86
147.7713, 10723.46
148.2534, 10670.81
148.7355, 10628.78
149.2177, 10602.90
149.6998, 10587.46
150.1819, 10569.12
150.6640, 10539.49
151.1461, 10513.32
151.6282, 10496.62
152.1104, 10512.65
152.5925, 10509.44
153.0746, 10469.07
153.5567, 10401.64
154.0388, 10351.95
154.5209, 10334.45
155.0031, 10331.73
155.4852, 10333.02
155.9673, 10342.91
156.4494, 10350.38
156.9315, 10353.69
157.4136, 10352.77
157.8958, 10347.06
158.3779, 10317.36
158.8600, 10290.08
159.3421, 10290.74
159.8242, 10348.81
160.3063, 10417.64
160.7885, 10482.30
161.2706, 10542.37
161.7527, 10593.06
162.2348, 10626.30
162.7169, 10649.92
163.1990, 10675.49
163.6811, 10715.88
164.1633, 10754.38
164.6454, 10776.92
165.1275, 10775.37
165.6096, 10777.52
166.0917, 10800.73
166.5738, 10839.52
167.0560, 10881.02
167.5381, 10922.11
168.0202, 10961.50
168.5023, 10996.93
168.9844, 11025.88
169.4665, 11054.82
169.9487, 11085.64
170.4308, 11119.39
170.9129, 11160.22
171.3950, 11223.95
171.8771, 11293.10
172.3592, 11343.16
172.8414, 11348.44
173.3235, 11346.71
173.8056, 11382.36
174.2877, 11453.12
174.7698, 11521.18
175.2519, 11552.91
175.7341, 11561.18
176.2162, 11571.75
176.6983, 11583.84
177.1804, 11607.70
177.6625, 11663.47
178.1446, 11752.36
178.6267, 11851.01
179.1089, 11938.59
179.5910, 12016.82
180.0731, 12094.67
180.5552, 12172.56
181.0373, 12252.55
181.5194, 12337.43
182.0016, 12428.70
182.4837, 12521.30
182.9658, 12610.06
183.4479, 12695.20
183.9300, 12772.62
184.4121, 12838.38
184.8943, 12894.79
185.3764, 12948.92
185.8585, 12998.92
186.3406, 13051.98
186.8227, 13120.96
187.3048, 13205.06
187.7870, 13293.57
188.2691, 13384.46
188.7512, 13476.36
189.2333, 13551.01
189.7154, 13602.76
190.1975, 13640.33
190.6796, 13684.62
191.1618, 13736.50
191.6439, 13780.93
192.1260, 13799.63
192.6081, 13794.25
193.0902, 13796.00
193.5723, 13814.90
194.0545, 13844.12
194.5366, 13858.32
195.0187, 13855.48
195.5008, 13847.84
195.9829, 13849.50
196.4650, 13861.19
196.9472, 13864.88
197.4293, 13853.82
197.9114, 13830.05
198.3935, 13807.05
198.8756, 13783.23
199.3577, 13764.58
199.8399, 13763.48
200.3220, 13783.64
200.8041, 13792.93
201.2862, 13774.30
201.7683, 13728.82
202.2504, 13705.35
202.7325, 13709.48
203.2147, 13726.59
203.6968, 13737.44
204.1789, 13742.18
204.6610, 13739.72
205.1431, 13721.28
205.6252, 13681.51
206.1074, 13680.84
206.5895, 13733.42
207.0716, 13808.89
207.5537, 13845.52
208.0358, 13828.56
208.5179, 13817.63
209.0001, 13843.67
209.4822, 13916.65
209.9643, 13975.37
210.4464, 13937.50
210.9285, 14059.96
211.4106, 14145.74
211.8928, 14196.81
212.3749, 14109.17
212.8570, 14200.63
213.3391, 14220.32
213.8212, 14237.06
214.3033, 14280.37
214.7855, 14418.80
215.2676, 14510.60
215.7497, 14557.77
216.2318, 14456.33
216.7139, 14524.05
217.1960, 14510.09
217.6781, 14483.26
218.1603, 14546.43
218.6424, 14415.55
219.1245, 14457.29
219.6066, 14416.24
220.0887, 14398.62
220.5708, 14314.38
221.0530, 14197.95
221.5351, 14105.02
222.0172, 14058.67
222.4993, 14051.42
222.9814, 14019.83
223.4635, 13956.51
223.9457, 13878.05
224.4278, 13793.14
224.9099, 13692.06
225.3920, 13607.79
225.8741, 13554.42
226.3562, 13530.26
226.8384, 13487.39
227.3205, 13431.14
227.8026, 13350.60
228.2847, 13231.27
228.7668, 13043.62
229.2489, 12871.61
229.7310, 12736.65
230.2132, 12638.64
230.6953, 12532.55
231.1774, 12407.47
231.6595, 12284.72
232.1416, 12192.40
232.6237, 12156.38
233.1059, 12103.10
233.5880, 12008.73
234.0701, 11868.07
234.5522, 11749.06
235.0343, 11663.97
235.5164, 11590.21
235.9986, 11499.07
236.4807, 11370.35
236.9628, 11259.94
237.4449, 11187.59
237.9270, 11162.78
238.4091, 11117.73
238.8913, 11038.77
239.3734, 10949.74
239.8555, 10884.53
240.3376, 10859.29
240.8197, 10830.53
241.3018, 10784.71
241.7840, 10716.56
242.2661, 10654.18
242.7482, 10594.40
243.2303, 10542.03
243.7124, 10452.21
244.1945, 10494.49
244.6767, 10507.09
245.1588, 10491.60
245.6409, 10363.91
246.1230, 10381.11
246.6051, 10340.24
247.0872, 10296.99
247.5694, 10334.58
248.0515, 10223.21
248.5336, 10259.52
249.0157, 10236.88
249.4978, 10241.22
249.9799, 10187.13
250.4621, 10153.96
250.9442, 10128.89
251.4263, 10115.17
251.9084, 10123.02
252.3905, 10124.15
252.8726, 10104.95
253.3548, 10054.07
253.8369, 10021.18
254.3190, 10013.80
254.8011, 10019.98
255.2832, 10016.34
255.7653, 9999.501
256.2474, 9979.343
256.7296, 9958.280
257.2117, 9934.325
257.6938, 9917.377
258.1759, 9910.371
258.6580, 9908.763
259.1401, 9903.531
259.6223, 9894.357
260.1044, 9882.334
260.5865, 9866.207
261.0686, 9842.628
261.5507, 9828.568
262.0328, 9829.921
262.5150, 9836.983
262.9971, 9830.022
263.4792, 9807.067
263.9613, 9774.511
264.4434, 9729.860
264.9255, 9665.248
265.4077, 9622.485
265.8898, 9608.218
266.3719, 9611.257
266.8540, 9609.856
267.3361, 9605.101
267.8182, 9593.000
268.3004, 9568.625
268.7825, 9527.078
269.2646, 9496.562
269.7467, 9479.547
270.2288, 9471.569
270.7109, 9464.642
271.1931, 9459.210
271.6752, 9453.177
272.1573, 9444.994
272.6394, 9434.170
273.1215, 9427.140
273.6036, 9429.015
274.0857, 9428.886
274.5678, 9398.365
275.0500, 9329.133
275.5321, 9268.412
276.0142, 9242.780
276.4963, 9255.721
276.9784, 9259.015
277.4605, 9248.668
277.9427, 9232.692
278.4248, 9227.792
278.9069, 9235.948
279.3890, 9241.030
279.8711, 9234.634
280.3532, 9216.710
280.8354, 9196.580
281.3175, 9173.592
281.7996, 9150.115
282.2817, 9129.104
282.7638, 9110.591
283.2459, 9096.838
283.7281, 9089.738
284.2102, 9088.968
284.6923, 9086.985
285.1744, 9020.886
285.6565, 9085.735
286.1386, 9120.903
286.6208, 9127.983
287.1029, 9022.854
287.5850, 9062.621
288.0671, 9044.319
288.5492, 9023.637
289.0313, 9083.797
289.5135, 8994.987
289.9956, 9053.864
290.4777, 9053.788
290.9598, 9080.693
291.4419, 9049.172
291.9240, 9048.592
292.4062, 9044.176
292.8883, 9025.364
293.3704, 9003.333
293.8525, 8992.078
294.3346, 8990.046
294.8167, 8988.890
295.2989, 8985.709
295.7810, 8980.649
296.2631, 8971.678
296.7452, 8957.718
297.2273, 8947.600
297.7094, 8956.702
298.1916, 8978.872
298.6737, 8993.371
299.1558, 8982.393
299.6379, 8961.546
300.1200, 8956.723
300.6021, 8969.124
301.0842, 8985.992
301.5663, 9000.257
302.0485, 9010.324
302.5306, 9012.837
303.0127, 9004.187
303.4948, 8988.386
303.9769, 8965.180
304.4590, 8934.393
304.9412, 8912.104
305.4233, 8916.758
305.9054, 8937.438
306.3875, 8956.487
306.8696, 8968.340
307.3517, 8974.935
307.8339, 8978.967
308.3160, 8980.220
308.7981, 8974.421
309.2802, 8946.769
309.7623, 8913.979
310.2444, 8896.870
310.7266, 8915.563
311.2087, 8941.490
311.6908, 8957.500
312.1729, 8964.597
312.6550, 8970.991
313.1371, 8984.793
313.6193, 8998.302
314.1014, 9004.277
314.5835, 8996.543
315.0656, 8985.111
315.5477, 8973.380
316.0298, 8961.302
316.5120, 8948.386
316.9941, 8926.668
317.4762, 8908.504
317.9583, 8902.740
318.4404, 8914.873
318.9225, 8935.130
319.4047, 8972.464
319.8868, 9018.915
320.3689, 9045.613
320.8510, 9024.260
321.3331, 8995.391
321.8152, 8981.533
322.2974, 8997.745
322.7795, 9011.169
323.2616, 9013.518
323.7437, 9009.085
324.2258, 9009.359
324.7079, 9021.837
325.1901, 9034.417
325.6721, 9041.751
326.1543, 9037.183
326.6364, 9038.710
327.1185, 9050.141
327.6006, 9067.733
328.0827, 9084.556
328.5648, 9107.852
329.0470, 9122.849
329.5291, 9121.974
330.0112, 9093.975
330.4933, 9083.343
330.9754, 9102.258
331.4576, 9132.534
331.9397, 9147.415
332.4218, 9138.992
332.9039, 9127.456
333.3860, 9116.794
333.8681, 9106.063
334.3503, 9102.718
334.8324, 9109.366
335.3145, 9120.671
335.7966, 9132.810
336.2787, 9150.388
336.7608, 9154.119
337.2430, 9131.206
337.7251, 9084.073
338.2072, 9068.700
338.6893, 9094.368
339.1714, 9132.266
339.6535, 9152.380
340.1357, 9151.705
340.6178, 9159.446
341.0999, 9186.951
341.5820, 9226.542
342.0641, 9243.928
342.5462, 9235.743
343.0284, 9222.817
343.5105, 9222.537
343.9926, 9234.061
344.4747, 9246.270
344.9568, 9259.409
345.4389, 9269.888
345.9211, 9268.485
346.4032, 9255.311
346.8853, 9238.711
347.3674, 9219.416
347.8495, 9200.729
348.3316, 9194.544
348.8138, 9204.393
349.2959, 9222.543
349.7780, 9241.265
350.2601, 9259.904
350.7422, 9275.374
351.2243, 9281.857
351.7064, 9285.165
352.1885, 9296.224
352.6707, 9317.903
353.1528, 9338.917
353.6349, 9343.281
354.1170, 9338.589
354.5991, 9341.944
355.0812, 9379.029
355.5634, 9417.563
356.0455, 9420.858
356.5276, 9384.375
357.0097, 9351.537
357.4918, 9350.915
357.9739, 9370.749
358.4561, 9395.471
358.9382, 9433.922
359.4203, 9463.025
359.9024, 9462.118
360.3845, 9433.017
360.8666, 9414.352
361.3488, 9424.961
361.8309, 9451.186
362.3130, 9481.674
362.7951, 9529.608
363.2772, 9564.765
363.7593, 9573.363
364.2415, 9560.181
364.7236, 9550.340
365.2057, 9553.062
365.6878, 9557.461
366.1699, 9557.449
366.6520, 9542.473
367.1342, 9536.604
367.6163, 9543.893
368.0984, 9561.412
368.5805, 9581.712
369.0626, 9621.714
369.5447, 9647.258
370.0269, 9641.886
370.5090, 9583.190
370.9911, 9553.152
371.4732, 9566.961
371.9553, 9600.219
372.4374, 9612.885
372.9196, 9589.621
373.4017, 9576.838
373.8838, 9593.946
374.3659, 9644.594
374.8480, 9668.389
375.3301, 9656.779
375.8123, 9633.394
376.2944, 9624.415
376.7765, 9632.678
377.2586, 9636.678
377.7407, 9625.916
378.2228, 9607.699
378.7049, 9621.706
379.1870, 9672.881
379.6692, 9723.319
380.1513, 9734.104
380.6334, 9710.690
381.1155, 9699.707
381.5976, 9711.903
382.0797, 9736.057
382.5619, 9751.108
383.0440, 9757.950
383.5261, 9767.324
384.0082, 9793.491
384.4903, 9826.048
384.9724, 9839.926
385.4546, 9828.009
385.9367, 9813.886
386.4188, 9825.816
386.9009, 9855.943
387.3830, 9884.679
387.8651, 9909.119
388.3473, 9923.305
388.8294, 9915.017
389.3115, 9882.270
389.7936, 9854.113
390.2757, 9846.204
390.7578, 9855.161
391.2400, 9876.690
391.7221, 9924.710
392.2042, 9971.177
392.6863, 10001.40
393.1684, 10016.55
393.6505, 10029.44
394.1327, 10046.65
394.6148, 10062.05
395.0969, 10071.12
395.5790, 10071.75
396.0611, 10067.77
396.5432, 10054.37
397.0254, 10035.95
397.5075, 10026.46
397.9896, 10032.85
398.4717, 10043.77
398.9538, 10057.14
399.4359, 10081.81
399.9181, 10087.02
400.4002, 10057.06
400.8823, 10015.10
401.3644, 9996.339
401.8465, 10009.29
402.3286, 10030.43
402.8108, 10053.95
403.2928, 10079.50
403.7750, 10115.30
404.2571, 10169.61
404.7392, 10219.66
405.2213, 10241.62
405.7034, 10232.34
406.1855, 10213.29
406.6677, 10182.53
407.1498, 10147.81
407.6319, 10134.55
408.1140, 10143.80
408.5961, 10164.50
409.0782, 10196.04
409.5604, 10235.06
410.0425, 10261.01
410.5246, 10269.96
411.0067, 10270.33
411.4888, 10270.04
411.9709, 10270.38
412.4531, 10277.10
412.9352, 10291.83
413.4173, 10315.29
413.8994, 10357.38
414.3815, 10420.54
414.8636, 10470.14
415.3458, 10464.98
415.8279, 10430.90
416.3100, 10407.38
416.7921, 10415.24
417.2742, 10434.04
417.7563, 10456.47
418.2385, 10481.09
418.7206, 10497.29
419.2027, 10493.92
419.6848, 10484.08
420.1669, 10476.11
420.6490, 10464.39
421.1312, 10466.37
421.6133, 10495.26
422.0954, 10541.21
422.5775, 10581.03
423.0596, 10609.15
423.5417, 10631.75
424.0239, 10649.60
424.5060, 10661.30
424.9881, 10673.25
425.4702, 10677.72
425.9523, 10687.20
426.4344, 10718.31
426.9166, 10788.47
427.3987, 10845.27
427.8808, 10874.99
428.3629, 10880.70
428.8450, 10894.71
429.3271, 10915.80
429.8092, 10947.85
430.2914, 10994.98
430.7735, 11058.33
431.2556, 11128.49
431.7377, 11207.74
432.2198, 11289.15
432.7019, 11353.07
433.1841, 11399.79
433.6662, 11450.95
434.1483, 11522.28
434.6304, 11607.41
435.1125, 11684.17
435.5946, 11751.58
436.0768, 11817.08
436.5589, 11887.75
437.0410, 11962.26
437.5231, 12037.67
438.0052, 12115.89
438.4873, 12192.33
438.9695, 12266.26
439.4516, 12336.11
439.9337, 12390.02
440.4158, 12417.50
440.8979, 12427.69
441.3800, 12425.24
441.8622, 12398.64
442.3443, 12385.09
442.8264, 12407.84
443.3085, 12453.94
443.7906, 12497.92
444.2727, 12532.78
444.7549, 12565.07
445.2370, 12597.15
445.7191, 12629.64
446.2012, 12660.16
446.6833, 12689.60
447.1654, 12716.39
447.6476, 12738.76
448.1297, 12752.91
448.6118, 12769.38
449.0939, 12794.49
449.5760, 12824.02
450.0581, 12836.29
450.5403, 12833.80
451.0224, 12808.74
451.5045, 12747.76
451.9866, 12644.20
452.4687, 12565.43
452.9508, 12520.15
453.4330, 12488.96
453.9151, 12442.83
454.3972, 12381.51
454.8793, 12319.85
455.3614, 12259.98
455.8435, 12203.57
456.3256, 12156.94
456.8077, 12119.70
457.2899, 12087.91
457.7720, 12054.95
458.2541, 12025.14
458.7362, 11938.85
459.2183, 11970.13
459.7004, 11982.86
460.1826, 11978.03
460.6647, 11903.08
461.1468, 11918.68
461.6289, 11897.99
462.1110, 11875.82
462.5931, 11904.17
463.0753, 11839.41
463.5574, 11866.96
464.0395, 11857.66
464.5216, 11865.22
465.0037, 11836.27
465.4858, 11860.01
465.9680, 11863.73
466.4501, 11872.01
466.9322, 11883.50
467.4143, 11888.53
467.8964, 11890.51
468.3785, 11882.19
468.8607, 11855.01
469.3428, 11788.46
469.8249, 11761.17
470.3070, 11789.52
470.7891, 11841.44
471.2712, 11862.37
471.7534, 11845.44
472.2355, 11836.43
472.7176, 11856.48
473.1997, 11897.01
473.6818, 11907.26
474.1639, 11883.66
474.6461, 11864.11
475.1282, 11892.65
475.6103, 11953.77
476.0924, 11993.40
476.5745, 11996.57
477.0566, 11986.20
477.5388, 11989.84
478.0209, 12003.38
478.5030, 12014.01
478.9851, 12013.69
479.4672, 12008.52
479.9493, 12001.39
480.4315, 11992.26
480.9136, 11988.93
481.3957, 11995.13
481.8778, 12009.35
482.3599, 12029.77
482.8420, 12071.78
483.3241, 12102.77
483.8062, 12110.01
484.2884, 12099.02
484.7705, 12091.08
485.2526, 12083.99
485.7347, 12084.25
486.2168, 12096.13
486.6989, 12124.01
487.1811, 12147.49
487.6632, 12172.03
488.1453, 12186.61
488.6274, 12154.35
489.1095, 12195.96
489.5916, 12219.03
490.0738, 12224.54
490.5559, 12159.91
491.0380, 12185.85
491.5201, 12175.50
492.0022, 12163.65
492.4843, 12202.34
492.9665, 12147.92
493.4486, 12185.80
493.9307, 12186.83
494.4128, 12204.73
494.8949, 12163.14
495.3770, 12183.83
495.8592, 12208.69
496.3413, 12242.06
496.8234, 12271.62
497.3055, 12279.70
497.7876, 12270.48
498.2697, 12270.73
498.7519, 12308.39
499.2340, 12351.27
499.7161, 12374.50
500.1982, 12364.46
500.6803, 12356.50
501.1624, 12356.37
501.6446, 12363.80
502.1267, 12378.73
502.6088, 12421.15
503.0909, 12447.18
503.5730, 12440.41
504.0551, 12402.18
504.5373, 12386.97
505.0194, 12402.54
505.5015, 12428.51
505.9836, 12455.48
506.4657, 12485.67
506.9478, 12498.90
507.4299, 12491.50
507.9120, 12471.03
508.3942, 12443.38
508.8763, 12409.61
509.3584, 12390.57
509.8405, 12403.93
510.3226, 12434.36
510.8047, 12450.54
511.2869, 12452.83
511.7690, 12447.92
512.2511, 12444.14
512.7332, 12435.14
513.2153, 12408.33
513.6974, 12350.74
514.1796, 12301.00
514.6617, 12297.95
515.1438, 12317.25
515.6259, 12315.46
516.1080, 12251.50
516.5901, 12188.00
517.0723, 12148.84
517.5544, 12135.46
518.0365, 12126.53
518.5186, 12123.08
519.0007, 12120.80
519.4828, 12117.90
519.9650, 12117.74
520.4471, 12109.95
520.9292, 12092.20
521.4113, 12068.26
521.8934, 12044.94
522.3755, 12022.92
522.8577, 11998.71
523.3398, 11967.38
523.8219, 11932.67
524.3040, 11916.69
524.7861, 11920.69
525.2682, 11926.10
525.7504, 11918.17
526.2325, 11899.98
526.7146, 11877.48
527.1967, 11849.55
527.6788, 11824.00
528.1609, 11807.17
528.6431, 11798.26
529.1252, 11795.69
529.6073, 11809.53
530.0894, 11820.38
530.5715, 11816.13
531.0536, 11797.30
531.5358, 11774.00
532.0179, 11738.29
532.5000, 11706.97
532.9821, 11690.59
533.4642, 11701.38
533.9464, 11707.91
534.4285, 11707.08
534.9106, 11702.68
535.3927, 11699.93
535.8748, 11699.52
536.3569, 11699.23
536.8391, 11698.18
537.3212, 11696.80
537.8033, 11698.71
538.2854, 11704.61
538.7675, 11709.53
539.2496, 11707.52
539.7318, 11700.76
540.2139, 11700.56
540.6960, 11708.16
541.1781, 11720.81
541.6602, 11741.55
542.1423, 11764.87
542.6245, 11777.24
543.1066, 11763.09
543.5887, 11746.69
544.0708, 11750.19
544.5529, 11769.00
545.0350, 11785.02
545.5172, 11787.49
545.9993, 11786.62
546.4813, 11785.10
546.9634, 11779.19
547.4456, 11788.90
547.9277, 11843.25
548.4098, 11900.70
548.8919, 11920.25
549.3740, 11868.83
549.8561, 11837.47
550.3383, 11837.19
550.8204, 11862.55
551.3025, 11904.64
551.7846, 11971.73
552.2667, 12019.83
552.7488, 12014.09
553.2310, 11965.41
553.7131, 11961.11
554.1952, 12003.99
554.6773, 12057.42
555.1594, 12092.40
555.6415, 12111.74
556.1237, 12118.30
556.6058, 12104.98
557.0879, 12097.20
557.5700, 12129.31
558.0521, 12183.25
558.5342, 12221.28
559.0164, 12218.65
559.4985, 12203.65
559.9806, 12177.20
560.4627, 12141.07
560.9448, 12139.90
561.4269, 12217.87
561.9091, 12307.31
562.3912, 12371.23
562.8733, 12400.80
563.3554, 12421.80
563.8375, 12429.95
564.3196, 12433.59
564.8018, 12433.95
565.2839, 12401.29
565.7660, 12466.26
566.2481, 12512.67
566.7302, 12541.53
567.2123, 12500.26
567.6945, 12549.55
568.1766, 12562.55
568.6587, 12574.06
569.1408, 12636.09
569.6229, 12605.02
570.1050, 12666.25
570.5872, 12690.65
571.0693, 12731.90
571.5514, 12736.63
572.0335, 12752.65
572.5156, 12786.36
572.9977, 12826.28
573.4799, 12833.35
573.9620, 12822.83
574.4441, 12831.58
574.9262, 12900.94
575.4083, 12953.28
575.8904, 12960.18
576.3726, 12920.04
576.8547, 12903.35
577.3368, 12916.24
577.8189, 12941.85
578.3010, 12973.14
578.7831, 13011.29
579.2653, 13033.07
579.7474, 13032.36
580.2295, 13026.99
580.7116, 13046.00
581.1937, 13083.92
581.6758, 13115.11
582.1580, 13128.68
582.6401, 13133.01
583.1222, 13134.31
583.6043, 13134.13
584.0864, 13138.64
584.5685, 13157.45
585.0507, 13177.61
585.5328, 13188.26
586.0149, 13186.50
586.4970, 13189.78
586.9791, 13221.09
587.4612, 13248.69
587.9434, 13244.18
588.4255, 13164.98
588.9076, 13122.67
589.3897, 13135.86
589.8718, 13179.33
590.3539, 13201.46
590.8361, 13196.19
591.3182, 13195.66
591.8003, 13210.90
592.2824, 13238.99
592.7645, 13270.63
593.2466, 13305.94
593.7288, 13337.00
594.2109, 13347.50
594.6930, 13352.65
595.1751, 13386.95
595.6572, 13458.37
596.1393, 13522.79
596.6215, 13537.40
597.1036, 13528.68
597.5857, 13528.40
598.0678, 13541.81
598.5499, 13569.81
599.0320, 13622.25
599.5141, 13689.81
599.9962, 13748.23
600.4783, 13787.42
600.9604, 13826.97
601.4426, 13872.74
601.9247, 13924.77
602.4068, 13975.31
602.8889, 14027.51
603.3710, 14070.70
603.8531, 14090.15
604.3353, 14088.39
604.8174, 14105.56
605.2995, 14148.48
605.7816, 14191.79
606.2637, 14201.64
606.7458, 14189.17
607.2280, 14182.04
607.7101, 14192.54
608.1922, 14206.84
608.6743, 14218.03
609.1564, 14224.63
609.6385, 14222.99
610.1207, 14205.04
610.6028, 14184.66
611.0849, 14168.01
611.5670, 14155.85
612.0491, 14140.93
612.5313, 14116.75
613.0134, 14095.96
613.4955, 14086.82
613.9776, 14094.02
614.4597, 14096.69
614.9418, 14094.33
615.4240, 14087.90
615.9061, 14071.62
616.3882, 14047.93
616.8703, 14046.37
617.3524, 14083.71
617.8345, 14133.01
618.3167, 14152.48
618.7988, 14148.71
619.2809, 14143.94
619.7630, 14152.30
620.2451, 14162.62
620.7272, 14164.61
621.2094, 14158.58
621.6915, 14156.90
622.1736, 14171.55
622.6557, 14186.23
623.1378, 14189.28
623.6199, 14168.35
624.1021, 14164.20
624.5842, 14189.77
625.0663, 14219.69
625.5484, 14218.71
626.0305, 14175.32
626.5126, 14166.76
626.9948, 14220.87
627.4769, 14296.05
627.9590, 14286.59
628.4411, 14205.76
628.9232, 14152.97
629.4053, 14210.40
629.8875, 14305.23
630.3696, 14335.83
630.8517, 14308.67
631.3338, 14274.73
631.8159, 14259.77
632.2980, 14250.55
632.7802, 14237.97
633.2623, 14220.02
633.7444, 14201.87
634.2265, 14181.64
634.7086, 14163.23
635.1907, 14151.57
635.6729, 14158.22
636.1550, 14146.24
636.6371, 14110.76
637.1192, 14057.73
637.6013, 13990.48
638.0834, 13907.13
638.5656, 13846.59
639.0477, 13832.35
639.5298, 13841.58
640.0119, 13826.77
640.4940, 13791.43
640.9761, 13755.37
641.4583, 13733.04
641.9404, 13714.74
642.4225, 13688.40
642.9046, 13652.79
643.3867, 13626.84
643.8688, 13633.87
644.3510, 13643.36
644.8331, 13632.20
645.3152, 13573.39
645.7973, 13535.86
646.2794, 13521.04
646.7615, 13526.16
647.2437, 13555.04
647.7258, 13617.28
648.2079, 13653.92
648.6900, 13646.60
649.1721, 13617.32
649.6542, 13615.69
650.1363, 13638.38
650.6184, 13657.85
651.1005, 13649.37
651.5826, 13636.26
652.0648, 13655.23
652.5469, 13700.82
653.0290, 13737.24
653.5111, 13728.06
653.9932, 13715.13
654.4753, 13728.66
654.9575, 13779.55
655.4396, 13823.59
655.9217, 13852.42
656.4038, 13874.38
656.8859, 13896.01
657.3680, 13920.21
657.8502, 13933.53
658.3323, 13929.94
658.8144, 13923.32
659.2965, 13933.63
659.7786, 13960.51
660.2607, 13999.77
660.7429, 14053.63
661.2250, 14114.30
661.7071, 14178.66
662.1892, 14242.35
662.6713, 14290.26
663.1534, 14293.21
663.6356, 14296.07
664.1177, 14336.59
664.5998, 14413.35
665.0819, 14472.45
665.5640, 14474.74
666.0461, 14478.98
666.5283, 14515.10
667.0104, 14591.24
667.4925, 14666.57
667.9746, 14746.42
668.4567, 14816.06
668.9388, 14855.09
669.4210, 14864.10
669.9031, 14885.99
670.3852, 14929.66
670.8673, 14976.66
671.3494, 15003.48
671.8315, 15015.13
672.3137, 15024.99
672.7958, 15047.65
673.2779, 15058.35
673.7600, 15026.81
674.2421, 14969.76
674.7242, 14928.23
675.2064, 14949.78
675.6885, 14952.74
676.1706, 14888.30
676.6527, 14767.12
677.1348, 14720.42
677.6169, 14799.81
678.0991, 14851.92
678.5812, 14783.70
679.0633, 14600.42
679.5454, 14426.61
680.0275, 14259.12
680.5096, 14123.56
680.9918, 14067.46
681.4739, 14053.86
681.9560, 14007.23
682.4381, 13912.58
682.9202, 13798.45
683.4023, 13667.12
683.8845, 13536.11
684.3666, 13424.53
684.8487, 13352.02
685.3308, 13283.26
685.8129, 13216.78
686.2950, 13150.45
686.7772, 13077.54
687.2593, 12989.42
687.7414, 12917.92
688.2235, 12873.41
688.7056, 12849.16
689.1877, 12825.90
689.6699, 12803.16
690.1520, 12771.18
690.6341, 12712.26
691.1162, 12646.00
691.5983, 12605.96
692.0804, 12590.65
692.5626, 12576.16
693.0447, 12554.86
693.5268, 12524.42
694.0089, 12476.66
694.4910, 12401.53
694.9731, 12349.96
695.4553, 12353.76
695.9374, 12364.51
696.4195, 12344.36
696.9016, 12276.17
697.3837, 12237.24
697.8658, 12238.82
698.3480, 12254.66
698.8301, 12249.59
699.3122, 12226.15
699.7943, 12200.93
700.2764, 12177.77
700.7585, 12154.98
701.2407, 12130.40
701.7228, 12104.79
702.2048, 12080.37
702.6870, 12053.59
703.1691, 12032.40
703.6512, 12022.05
704.1333, 12020.79
704.6154, 12020.74
705.0975, 12026.65
705.5797, 12026.24
706.0618, 12013.37
706.5439, 11989.44
707.0260, 11974.84
707.5081, 11972.38
707.9902, 11963.34
708.4724, 11923.31
708.9545, 11867.29
709.4366, 11845.23
709.9187, 11859.19
710.4008, 11876.94
710.8829, 11868.66
711.3651, 11854.22
711.8472, 11857.00
712.3293, 11889.56
712.8114, 11912.37
713.2935, 11908.23
713.7756, 11892.15
714.2578, 11878.20
714.7399, 11862.91
715.2220, 11860.03
715.7041, 11878.24
716.1862, 11899.17
716.6683, 11885.87
717.1505, 11840.49
717.6326, 11809.69
718.1147, 11812.45
718.5968, 11826.04
719.0789, 11815.42
719.5610, 11788.76
720.0432, 11768.34
720.5253, 11769.70
721.0074, 11775.52
721.4895, 11775.21
721.9716, 11770.87
722.4537, 11774.30
722.9359, 11800.88
723.4180, 11819.32
723.9001, 11817.89
724.3822, 11797.56
724.8643, 11779.63
725.3464, 11763.01
725.8286, 11753.48
726.3107, 11761.98
726.7928, 11780.53
727.2749, 11778.56
727.7570, 11755.06
728.2391, 11734.56
728.7213, 11739.96
729.2034, 11755.27
729.6855, 11763.24
730.1676, 11757.93
730.6497, 11758.93
731.1318, 11780.79
731.6140, 11805.83
732.0961, 11818.73
732.5782, 11815.25
733.0603, 11809.29
733.5424, 11800.69
734.0245, 11790.75
734.5067, 11780.88
734.9888, 11771.11
735.4709, 11760.13
735.9530, 11745.42
736.4351, 11735.18
736.9172, 11743.00
737.3994, 11762.36
737.8815, 11780.25
738.3636, 11802.08
738.8457, 11810.22
739.3278, 11784.26
739.8099, 11738.79
740.2921, 11716.25
740.7742, 11733.17
741.2563, 11749.41
741.7384, 11755.33
742.2205, 11753.34
742.7026, 11757.29
743.1848, 11768.30
743.6669, 11766.51
744.1490, 11726.62
744.6311, 11672.99
745.1132, 11657.31
745.5953, 11674.86
746.0775, 11696.72
746.5596, 11709.11
747.0417, 11717.12
747.5238, 11720.85
748.0059, 11719.41
748.4880, 11730.24
748.9702, 11770.87
749.4523, 11808.07
749.9344, 11824.29
750.4165, 11817.41
750.8986, 11804.60
751.3807, 11783.70
751.8629, 11766.04
752.3450, 11765.00
752.8271, 11775.29
753.3092, 11784.90
753.7913, 11793.67
754.2734, 11791.24
754.7555, 11750.69
755.2376, 11704.29
755.7197, 11687.23
756.2018, 11726.93
756.6840, 11757.95
757.1661, 11762.36
757.6482, 11757.52
758.1303, 11762.27
758.6124, 11781.80
759.0945, 11790.74
759.5767, 11784.59
760.0588, 11769.99
760.5409, 11751.96
761.0230, 11733.40
761.5051, 11726.54
761.9872, 11738.21
762.4694, 11757.81
762.9515, 11782.73
763.4336, 11807.54
763.9157, 11821.45
764.3978, 11811.54
764.8799, 11801.10
765.3621, 11795.96
765.8442, 11794.35
766.3263, 11791.14
766.8084, 11784.26
767.2905, 11782.90
767.7726, 11791.40
768.2548, 11805.98
768.7369, 11815.87
769.2190, 11821.70
769.7011, 11827.90
770.1832, 11843.09
770.6653, 11855.12
771.1475, 11846.65
771.6296, 11822.72
772.1117, 11807.80
772.5938, 11815.13
773.0759, 11828.88
773.5580, 11847.07
774.0402, 11868.69
774.5223, 11875.40
775.0044, 11863.51
775.4865, 11847.30
775.9686, 11825.67
776.4507, 11804.80
776.9329, 11828.77
777.4150, 11895.06
777.8971, 11948.34
778.3792, 11939.40
778.8613, 11902.51
779.3434, 11862.85
779.8256, 11821.93
780.3077, 11804.29
780.7898, 11841.06
781.2719, 11883.90
781.7540, 11904.49
782.2361, 11898.30
782.7183, 11893.53
783.2004, 11890.52
783.6825, 11887.82
784.1646, 11886.46
784.6467, 11884.81
785.1288, 11871.51
785.6110, 11844.36
786.0931, 11824.07
786.5752, 11838.66
787.0573, 11863.54
787.5394, 11869.78
788.0215, 11842.70
788.5037, 11826.66
788.9858, 11838.50
789.4679, 11861.66
789.9500, 11887.12
790.4321, 11923.42
790.9142, 11924.36
791.3964, 11876.44
791.8785, 11824.49
792.3606, 11831.80
792.8427, 11881.56
793.3248, 11915.89
793.8069, 11922.18
794.2891, 11918.24
794.7712, 11909.03
795.2533, 11901.74
795.7354, 11905.75
796.2175, 11937.51
796.6996, 11958.82
797.1818, 11959.61
797.6639, 11951.93
798.1460, 11950.07
798.6281, 11955.37
799.1102, 11960.62
799.5923, 11967.20
800.0745, 11967.24
800.5566, 11935.02
801.0387, 11886.82
801.5208, 11867.68
802.0029, 11904.37
802.4850, 11948.20
802.9672, 11975.10
803.4493, 11986.66
803.9314, 11985.35
804.4135, 11955.36
804.8956, 11932.86
805.3777, 11916.68
805.8599, 11912.71
806.3419, 11940.26
806.8240, 12001.54
807.3062, 12045.91
807.7883, 12056.58
808.2704, 12052.47
808.7525, 12061.86
809.2346, 12078.28
809.7167, 12087.28
810.1989, 12088.47
810.6810, 12075.01
811.1631, 12018.75
811.6452, 11949.03
812.1273, 11933.73
812.6094, 12009.67
813.0916, 12071.47
813.5737, 12100.87
814.0558, 12106.75
814.5379, 12103.89
815.0200, 12093.46
815.5021, 12089.84
815.9843, 12103.23
816.4664, 12118.76
816.9485, 12116.92
817.4306, 12104.60
817.9127, 12097.38
818.3948, 12118.15
818.8770, 12125.38
819.3591, 12092.35
819.8412, 12038.96
820.3233, 12011.60
820.8054, 12015.44
821.2875, 12026.90
821.7697, 12041.71
822.2518, 12058.07
822.7339, 12077.03
823.2160, 12095.65
823.6981, 12101.03
824.1802, 12067.29
824.6624, 12038.29
825.1445, 12057.96
825.6266, 12105.86
826.1087, 12129.05
826.5908, 12075.92
827.0729, 12047.91
827.5551, 12072.97
828.0372, 12131.36
828.5193, 12168.57
829.0014, 12184.26
829.4835, 12190.61
829.9656, 12190.66
830.4478, 12185.53
830.9299, 12168.87
831.4120, 12147.78
831.8941, 12142.37
832.3762, 12186.17
832.8583, 12220.96
833.3405, 12210.42
833.8226, 12171.54
834.3047, 12160.14
834.7868, 12188.84
835.2689, 12217.97
835.7510, 12243.59
836.2332, 12258.59
836.7153, 12230.31
837.1974, 12168.87
837.6795, 12133.67
838.1616, 12169.88
838.6437, 12220.67
839.1259, 12239.68
839.6080, 12233.52
840.0901, 12216.84
840.5722, 12173.64
841.0543, 12145.42
841.5364, 12145.91
842.0186, 12163.90
842.5007, 12169.27
842.9828, 12159.34
843.4649, 12162.98
843.9470, 12195.51
844.4291, 12234.76
844.9113, 12235.02
845.3934, 12212.72
845.8755, 12209.28
846.3576, 12269.93
846.8397, 12323.39
847.3218, 12339.27
847.8040, 12326.58
848.2861, 12305.44
848.7682, 12269.33
849.2503, 12241.00
849.7324, 12222.18
850.2145, 12215.88
850.6967, 12241.41
851.1788, 12289.76
851.6609, 12308.36
852.1430, 12259.75
852.6251, 12212.16
853.1072, 12239.38
853.5894, 12306.09
854.0715, 12352.26
854.5536, 12350.31
855.0357, 12339.89
855.5178, 12314.30
855.9999, 12291.41
856.4821, 12307.04
856.9642, 12365.40
857.4463, 12402.92
857.9283, 12404.36
858.4105, 12389.73
858.8926, 12376.95
859.3747, 12368.82
859.8568, 12372.73
860.3389, 12405.47
860.8210, 12423.58
861.3032, 12390.48
861.7853, 12343.85
862.2674, 12331.58
862.7495, 12363.75
863.2316, 12405.17
863.7137, 12461.22
864.1959, 12505.53
864.6780, 12482.05
865.1601, 12416.19
865.6422, 12399.03
866.1243, 12459.05
866.6064, 12518.86
867.0886, 12516.66
867.5707, 12489.05
868.0528, 12473.87
868.5349, 12494.32
869.0170, 12491.98
869.4991, 12450.44
869.9813, 12408.65
870.4634, 12405.65
870.9455, 12438.82
871.4276, 12472.60
871.9097, 12505.24
872.3918, 12524.96
872.8740, 12504.07
873.3561, 12472.86
873.8382, 12469.17
874.3203, 12505.72
874.8024, 12532.61
875.2845, 12532.62
875.7667, 12524.32
876.2488, 12516.00
876.7309, 12507.13
877.2130, 12503.38
877.6951, 12504.82
878.1772, 12511.28
878.6594, 12527.03
879.1415, 12545.82
879.6236, 12556.58
880.1057, 12559.03
880.5878, 12561.95
881.0699, 12579.77
881.5521, 12589.64
882.0342, 12569.68
882.5163, 12520.96
882.9984, 12511.53
883.4805, 12552.17
883.9626, 12592.47
884.4448, 12602.25
884.9269, 12592.24
885.4090, 12592.13
885.8911, 12600.18
886.3732, 12606.86
886.8553, 12609.07
887.3375, 12606.25
887.8196, 12592.79
888.3017, 12571.92
888.7838, 12563.77
889.2659, 12569.87
889.7480, 12587.45
890.2302, 12622.18
890.7123, 12662.58
891.1944, 12674.19
891.6765, 12660.48
892.1586, 12642.09
892.6407, 12620.58
893.1229, 12606.04
893.6050, 12613.18
894.0871, 12632.40
894.5692, 12642.53
895.0513, 12618.72
895.5334, 12617.66
896.0156, 12657.80
896.4977, 12712.44
896.9798, 12731.68
897.4619, 12717.96
897.9440, 12697.22
898.4261, 12672.35
898.9083, 12651.63
899.3904, 12639.93
899.8725, 12638.83
900.3546, 12651.19
900.8367, 12692.90
901.3188, 12721.71
901.8010, 12729.34
902.2831, 12727.04
902.7652, 12721.87
903.2473, 12607.55
903.7294, 12668.72
904.2115, 12711.79
904.6937, 12737.54
905.1758, 12704.39
905.6579, 12739.45
906.1400, 12742.37
906.6221, 12740.68
907.1042, 12775.54
907.5864, 12733.32
908.0685, 12760.68
908.5506, 12755.48
909.0327, 12760.18
909.5148, 12732.57
909.9969, 12710.46
910.4790, 12782.17
910.9611, 12794.21
911.4432, 12813.14
911.9254, 12814.87
912.4075, 12802.51
912.8896, 12803.82
913.3717, 12846.02
913.8538, 12888.49
914.3359, 12915.35
914.8181, 12928.43
915.3002, 12937.65
915.7823, 12943.74
916.2644, 12939.99
916.7465, 12916.46
917.2286, 12889.61
917.7108, 12894.96
918.1929, 12920.74
918.6750, 12934.77
919.1571, 12907.97
919.6392, 12885.10
920.1213, 12880.21
920.6035, 12889.60
921.0856, 12908.13
921.5677, 12937.04
922.0498, 12971.24
922.5319, 13014.17
923.0140, 13050.86
923.4962, 13052.12
923.9783, 13033.55
924.4604, 13028.63
924.9425, 13050.60
925.4246, 13071.01
925.9067, 13082.90
926.3889, 13082.95
926.8710, 13067.03
927.3531, 13028.00
927.8352, 12995.07
928.3173, 12963.35
928.7994, 12957.19
929.2816, 13026.52
929.7637, 13129.31
930.2458, 13166.23
930.7279, 13133.76
931.2100, 13102.59
931.6921, 13107.47
932.1743, 13125.30
932.6564, 13147.00
933.1385, 13171.61
933.6206, 13187.42
934.1027, 13191.67
934.5848, 13200.77
935.0670, 13233.28
935.5491, 13267.68
936.0312, 13240.45
936.5133, 13173.00
936.9954, 13138.06
937.4775, 13211.60
937.9597, 13277.89
938.4418, 13283.17
938.9239, 13250.53
939.4060, 13225.22
939.8881, 13205.82
940.3702, 13200.85
940.8524, 13213.55
941.3345, 13237.56
941.8166, 13266.35
942.2987, 13298.82
942.7808, 13333.81
943.2629, 13375.88
943.7451, 13406.85
944.2272, 13404.72
944.7093, 13398.64
945.1914, 13418.32
945.6735, 13477.50
946.1556, 13498.41
946.6378, 13474.34
947.1199, 13447.62
947.6020, 13456.98
948.0841, 13487.12
948.5662, 13515.88
949.0483, 13540.92
949.5305, 13556.44
950.0126, 13546.31
950.4947, 13539.86
950.9768, 13552.76
951.4589, 13581.75
951.9410, 13601.09
952.4232, 13608.95
952.9053, 13624.98
953.3874, 13660.49
953.8695, 13705.66
954.3516, 13753.17
954.8337, 13798.16
955.3159, 13830.06
955.7980, 13826.12
956.2801, 13832.13
956.7622, 13859.59
957.2443, 13901.13
957.7264, 13946.61
958.2086, 13995.27
958.6907, 14059.03
959.1728, 14143.59
959.6549, 14224.09
960.1370, 14272.03
960.6191, 14298.55
961.1013, 14309.88
961.5834, 14297.27
962.0654, 14315.23
962.5475, 14389.82
963.0297, 14479.89
963.5118, 14560.48
963.9939, 14633.80
964.4760, 14731.40
964.9581, 14853.30
965.4402, 14977.53
965.9224, 15075.55
966.4045, 15178.87
966.8866, 15320.94
967.3687, 15496.54
967.8508, 15667.31
968.3329, 15822.19
968.8151, 15983.18
969.2972, 16159.16
969.7793, 16340.94
970.2614, 16518.24
970.7435, 16688.06
971.2256, 16831.99
971.7078, 16929.94
972.1899, 17039.24
972.6720, 17220.30
973.1541, 17428.28
973.6362, 17615.16
974.1183, 17785.12
974.6005, 17903.66
975.0826, 17960.00
975.5647, 17991.19
976.0468, 18041.97
976.5289, 18094.49
977.0110, 18084.79
977.4932, 18011.29
977.9753, 17906.57
978.4574, 17762.04
978.9395, 17618.06
979.4216, 17504.22
979.9037, 17415.44
980.3859, 17310.94
980.8680, 17185.85
981.3501, 17067.46
981.8322, 16968.54
982.3143, 16879.02
982.7964, 16777.91
983.2786, 16672.70
983.7607, 16581.03
984.2428, 16495.41
984.7249, 16444.02
985.2070, 16449.50
985.6891, 16485.68
986.1713, 16529.55
986.6534, 16580.98
987.1355, 16638.60
987.6176, 16702.69
988.0997, 16769.96
988.5818, 16841.65
989.0640, 16912.20
989.5461, 16963.44
990.0282, 16993.14
990.5103, 17065.15
990.9924, 17210.87
991.4745, 17380.93
991.9567, 17567.24
992.4388, 17762.59
992.9209, 17923.89
993.4030, 18057.68
993.8851, 18214.13
994.3672, 18430.18
994.8494, 18663.09
995.3315, 18898.18
995.8136, 19121.68
996.2957, 19307.97
996.7778, 19408.15
997.2599, 19574.25
997.7421, 19838.30
998.2242, 20119.09
998.7063, 20311.68
999.1884, 20440.93
999.6705, 20571.73
1000.153, 20710.54
1000.635, 20853.18
1001.117, 21005.23
1001.599, 21151.54
1002.081, 21291.08
1002.563, 21422.87
1003.045, 21493.87
1003.527, 21496.12
1004.010, 21494.47
1004.492, 21521.13
1004.974, 21558.58
1005.456, 21607.05
1005.938, 21643.42
1006.420, 21615.83
1006.902, 21472.16
1007.384, 21305.04
1007.867, 21134.68
1008.349, 20947.86
1008.831, 20721.39
1009.313, 20459.07
1009.795, 20184.69
1010.277, 19897.51
1010.759, 19609.90
1011.241, 19336.15
1011.723, 19064.10
1012.206, 18770.52
1012.688, 18455.11
1013.170, 18179.05
1013.652, 17962.09
1014.134, 17741.83
1014.616, 17485.63
1015.098, 17217.05
1015.580, 16991.34
1016.062, 16805.34
1016.545, 16653.07
1017.027, 16560.00
1017.509, 16460.73
1017.991, 16297.67
1018.473, 16131.69
1018.955, 16048.43
1019.437, 16069.02
1019.919, 16046.45
1020.401, 15966.17
1020.884, 15877.14
1021.366, 15822.62
1021.848, 15788.76
1022.330, 15757.73
1022.812, 15728.15
1023.294, 15711.19
1023.776, 15719.70
1024.258, 15727.81
1024.741, 15727.09
1025.223, 15720.41
1025.705, 15712.21
1026.187, 15704.70
1026.669, 15712.15
1027.151, 15749.13
1027.633, 15786.17
1028.115, 15810.38
1028.598, 15820.44
1029.080, 15811.07
1029.562, 15764.20
1030.044, 15751.27
1030.526, 15776.27
1031.008, 15822.20
1031.490, 15876.77
1031.972, 15939.62
1032.454, 16021.38
1032.937, 16116.52
1033.419, 16182.42
1033.901, 16170.28
1034.383, 16162.32
1034.865, 16179.92
1035.347, 16221.92
1035.829, 16297.50
1036.311, 16403.14
1036.793, 16477.09
1037.276, 16490.65
1037.758, 16505.89
1038.240, 16589.18
1038.722, 16698.13
1039.204, 16785.43
1039.686, 16833.13
1040.168, 16900.04
1040.650, 16993.91
1041.132, 17083.41
1041.615, 17146.74
1042.097, 17190.47
1042.579, 17227.71
1043.061, 17259.74
1043.543, 17291.28
1044.025, 17325.47
1044.507, 17358.56
1044.989, 17386.75
1045.472, 17414.88
1045.954, 17456.10
1046.436, 17509.70
1046.918, 17542.16
1047.400, 17545.09
1047.882, 17545.72
1048.364, 17563.09
1048.846, 17595.01
1049.328, 17650.79
1049.811, 17740.51
1050.293, 17767.65
1050.775, 17703.88
1051.257, 17651.79
1051.739, 17671.17
1052.221, 17725.08
1052.703, 17725.07
1053.185, 17686.59
1053.667, 17653.91
1054.150, 17655.34
1054.632, 17652.57
1055.114, 17627.26
1055.596, 17598.80
1056.078, 17590.22
1056.560, 17602.06
1057.042, 17601.84
1057.524, 17587.50
1058.007, 17562.50
1058.489, 17513.59
1058.971, 17467.99
1059.453, 17450.70
1059.935, 17461.33
1060.417, 17476.60
1060.899, 17504.14
1061.381, 17511.21
1061.864, 17485.25
1062.346, 17442.03
1062.828, 17400.82
1063.310, 17364.12
1063.792, 17338.05
1064.274, 17325.32
1064.756, 17319.11
1065.238, 17327.76
1065.720, 17331.76
1066.203, 17317.14
1066.685, 17285.29
1067.167, 17258.78
1067.649, 17237.37
1068.131, 17221.03
1068.613, 17207.75
1069.095, 17201.40
1069.577, 17208.86
1070.059, 17224.69
1070.542, 17237.75
1071.024, 17252.10
1071.506, 17241.56
1071.988, 17194.02
1072.470, 17157.50
1072.952, 17206.14
1073.434, 17290.58
1073.916, 17337.88
1074.399, 17340.15
1074.881, 17331.22
1075.363, 17316.97
1075.845, 17294.30
1076.327, 17252.15
1076.809, 17207.76
1077.291, 17226.17
1077.773, 17291.78
1078.255, 17337.81
1078.738, 17343.61
1079.220, 17321.48
1079.702, 17235.30
1080.184, 17155.34
1080.666, 17153.16
1081.148, 17244.11
1081.630, 17306.63
1082.112, 17340.60
1082.594, 17347.88
1083.077, 17301.31
1083.559, 17251.44
1084.041, 17272.14
1084.523, 17334.29
1085.005, 17338.27
1085.487, 17207.51
1085.969, 17158.08
1086.451, 17238.36
1086.934, 17354.19
1087.416, 17383.58
1087.898, 17354.55
1088.380, 17319.91
1088.862, 17285.94
1089.344, 17262.93
1089.826, 17267.50
1090.308, 17270.32
1090.791, 17259.13
1091.273, 17237.53
1091.755, 17220.25
1092.237, 17205.96
1092.719, 17180.64
1093.201, 17126.45
1093.683, 17091.06
1094.165, 17136.75
1094.647, 17200.68
1095.130, 17215.43
1095.612, 17171.65
1096.094, 17120.13
1096.576, 17057.59
1097.058, 17011.35
1097.540, 17014.72
1098.022, 17032.52
1098.504, 17014.43
1098.986, 16975.31
1099.469, 16957.65
1099.951, 16986.73
1100.433, 17011.13
1100.915, 17028.39
1101.397, 17035.76
1101.879, 17029.11
1102.361, 17010.12
1102.843, 16974.87
1103.325, 16924.39
1103.808, 16891.53
1104.290, 16910.82
1104.772, 16928.25
1105.254, 16926.51
1105.736, 16907.51
1106.218, 16864.19
1106.700, 16803.29
1107.182, 16775.02
1107.665, 16802.29
1108.147, 16833.96
1108.629, 16828.09
1109.111, 16814.17
1109.593, 16821.81
1110.075, 16853.20
1110.557, 16865.56
1111.039, 16857.40
1111.521, 16848.38
1112.004, 16859.74
1112.486, 16864.51
1112.968, 16807.94
1113.450, 16728.60
1113.932, 16703.51
1114.414, 16791.14
1114.896, 16837.64
1115.378, 16829.72
1115.860, 16806.65
1116.343, 16803.68
1116.825, 16811.50
1117.307, 16814.61
1117.789, 16811.96
1118.271, 16802.50
1118.753, 16773.83
1119.235, 16755.00
1119.717, 16757.17
1120.200, 16766.02
1120.682, 16752.80
1121.164, 16724.62
1121.646, 16711.58
1122.128, 16720.33
1122.610, 16723.03
1123.092, 16693.83
1123.574, 16664.13
1124.057, 16649.44
1124.539, 16648.81
1125.021, 16663.84
1125.503, 16693.05
1125.985, 16711.88
1126.467, 16711.38
1126.949, 16698.79
1127.431, 16668.00
1127.913, 16635.55
1128.396, 16623.42
1128.878, 16637.84
1129.360, 16624.49
1129.842, 16577.01
1130.324, 16555.12
1130.806, 16636.50
1131.288, 16730.50
1131.770, 16706.35
1132.252, 16617.43
1132.735, 16585.36
1133.217, 16688.19
1133.699, 16723.58
1134.181, 16662.85
1134.663, 16589.90
1135.145, 16594.79
1135.627, 16640.91
1136.109, 16668.53
1136.592, 16675.63
1137.074, 16673.34
1137.556, 16655.09
1138.038, 16640.39
1138.520, 16628.95
1139.002, 16628.13
1139.484, 16661.38
1139.966, 16714.56
1140.448, 16739.08
1140.931, 16725.28
1141.413, 16719.26
1141.895, 16756.17
1142.377, 16791.77
1142.859, 16808.20
1143.341, 16807.88
1143.823, 16788.98
1144.305, 16757.51
1144.787, 16755.07
1145.270, 16802.03
1145.752, 16859.02
1146.234, 16916.01
1146.716, 16921.43
1147.198, 16968.97
1147.680, 16997.96
1148.162, 17009.39
1148.644, 16950.70
1149.126, 16982.56
1149.609, 16978.15
1150.091, 16972.23
1150.573, 17016.84
1151.055, 17007.89
1151.537, 17020.10
1152.019, 17033.74
1152.501, 17055.47
1152.983, 17087.54
1153.466, 17111.77
1153.948, 17106.91
1154.430, 17093.19
1154.912, 17093.77
1155.394, 17104.08
1155.876, 17106.50
1156.358, 17098.12
1156.840, 17084.06
1157.323, 17062.25
1157.805, 17044.78
1158.287, 17047.89
1158.769, 17062.37
1159.251, 17084.56
1159.733, 17111.03
1160.215, 17099.74
1160.697, 17004.93
1161.179, 16956.71
1161.661, 17002.37
1162.144, 17073.08
1162.626, 17049.64
1163.108, 16969.52
1163.590, 16907.85
1164.072, 16879.92
1164.554, 16848.55
1165.036, 16790.58
1165.518, 16747.30
1166.001, 16740.98
1166.483, 16754.01
1166.965, 16741.61
1167.447, 16708.68
1167.929, 16669.21
1168.411, 16625.38
1168.893, 16581.19
1169.375, 16531.54
1169.858, 16489.32
1170.340, 16465.75
1170.822, 16455.63
1171.304, 16425.35
1171.786, 16380.34
1172.268, 16346.44
1172.750, 16330.26
1173.232, 16333.97
1173.714, 16386.42
1174.197, 16437.44
1174.679, 16438.22
1175.161, 16390.23
1175.643, 16356.30
1176.125, 16335.08
1176.607, 16307.73
1177.089, 16248.07
1177.571, 16195.08
1178.053, 16171.21
1178.536, 16165.72
1179.018, 16168.38
1179.500, 16179.52
1179.982, 16173.72
1180.464, 16149.16
1180.946, 16128.21
1181.428, 16131.56
1181.910, 16140.51
1182.393, 16147.00
1182.875, 16148.45
1183.357, 16137.74
1183.839, 16114.16
1184.321, 16090.87
1184.803, 16069.08
1185.285, 16055.84
1185.767, 16057.65
1186.250, 16070.40
1186.732, 16097.45
1187.214, 16134.36
1187.696, 16153.81
1188.178, 16154.29
1188.660, 16153.13
1189.142, 16155.18
1189.624, 16155.00
1190.106, 16137.77
1190.589, 16122.02
1191.071, 16129.88
1191.553, 16162.71
1192.035, 16188.55
1192.517, 16207.18
1192.999, 16219.11
1193.481, 16219.39
1193.963, 16224.06
1194.445, 16253.91
1194.928, 16297.09
1195.410, 16342.81
1195.892, 16393.99
1196.374, 16416.41
1196.856, 16404.54
1197.338, 16397.73
1197.820, 16418.77
1198.302, 16450.60
1198.784, 16466.50
1199.267, 16481.65
1199.749, 16523.66
1200.231, 16612.82
1200.713, 16673.75
1201.195, 16700.98
1201.677, 16726.78
1202.159, 16775.17
1202.641, 16832.67
1203.124, 16884.97
1203.606, 16932.40
1204.088, 16975.03
1204.570, 17010.22
1205.052, 17046.52
1205.534, 17084.82
1206.016, 17121.66
1206.498, 17162.51
1206.980, 17194.75
1207.463, 17191.39
1207.945, 17165.55
1208.427, 17165.83
1208.909, 17214.06
1209.391, 17239.92
1209.873, 17234.40
1210.355, 17216.87
1210.837, 17204.38
1211.319, 17192.55
1211.802, 17174.18
1212.284, 17150.92
1212.766, 17137.04
1213.248, 17152.13
1213.730, 17116.17
1214.212, 17004.57
1214.694, 16887.68
1215.176, 16855.57
1215.659, 16857.86
1216.141, 16833.78
1216.623, 16780.50
1217.105, 16727.98
1217.587, 16680.31
1218.069, 16629.14
1218.551, 16572.77
1219.033, 16512.36
1219.516, 16443.36
1219.998, 16376.70
1220.480, 16329.10
1220.962, 16302.74
1221.444, 16271.30
1221.926, 16232.71
1222.408, 16191.89
1222.890, 16148.82
1223.372, 16110.01
1223.854, 16089.75
1224.337, 16075.80
1224.819, 16052.39
1225.301, 16016.02
1225.783, 15980.86
1226.265, 15946.46
1226.747, 15914.93
1227.229, 15884.67
1227.711, 15862.20
1228.194, 15865.91
1228.676, 15877.19
1229.158, 15868.84
1229.640, 15831.98
1230.122, 15812.26
1230.604, 15878.45
1231.086, 15919.43
1231.568, 15941.87
1232.051, 15946.74
1232.533, 15881.49
1233.015, 15906.80
1233.497, 15895.82
1233.979, 15883.35
1234.461, 15877.21
1234.943, 15957.64
1235.425, 16001.37
1235.907, 16010.39
1236.390, 15880.71
1236.872, 15930.14
1237.354, 15907.78
1237.836, 15882.49
1238.318, 15957.12
1238.800, 15847.62
1239.282, 15920.66
1239.764, 15920.83
1240.246, 15954.36
1240.729, 15915.66
1241.211, 15899.28
1241.693, 15955.13
1242.175, 15970.98
1242.657, 15923.98
1243.139, 15959.63
1243.621, 15847.60
1244.103, 15865.16
1244.586, 15938.62
1245.068, 15895.25
1245.550, 15932.21
1246.032, 15938.58
1246.514, 15805.90
1246.996, 15915.04
1247.478, 15919.60
1247.960, 15816.78
1248.442, 15917.63
1248.925, 15829.61
1249.407, 15791.10
1249.889, 15777.28
1250.371, 15775.57
1250.853, 15783.86
1251.335, 15802.03
1251.817, 15823.28
1252.299, 15847.14
1252.781, 15870.84
1253.264, 15920.04
1253.746, 15935.28
1254.228, 15850.37
1254.710, 15747.64
1255.192, 15744.54
1255.674, 15822.74
1256.156, 15833.82
1256.638, 15776.65
1257.120, 15734.82
1257.603, 15770.03
1258.085, 15809.53
1258.567, 15840.41
1259.049, 15851.94
1259.531, 15813.91
1260.013, 15744.79
1260.495, 15717.17
1260.977, 15731.77
1261.460, 15745.60
1261.942, 15734.76
1262.424, 15727.64
1262.906, 15731.77
1263.388, 15739.86
1263.870, 15749.29
1264.352, 15753.10
1264.834, 15730.20
1265.317, 15681.75
1265.799, 15635.03
1266.281, 15574.71
1266.763, 15563.33
1267.245, 15626.14
1267.727, 15704.73
1268.209, 15720.20
1268.691, 15702.57
1269.173, 15696.68
1269.656, 15705.31
1270.138, 15715.56
1270.620, 15729.59
1271.102, 15733.49
1271.584, 15722.98
1272.066, 15709.01
1272.548, 15696.26
1273.030, 15693.03
1273.512, 15719.98
1273.995, 15770.85
1274.477, 15789.10
1274.959, 15765.36
1275.441, 15751.94
1275.923, 15759.84
1276.405, 15768.94
1276.887, 15763.31
1277.369, 15746.74
1277.852, 15712.38
1278.334, 15669.52
1278.816, 15656.45
1279.298, 15674.57
1279.780, 15696.89
1280.262, 15721.07
1280.744, 15727.60
1281.226, 15665.15
1281.708, 15616.98
1282.191, 15654.85
1282.673, 15740.63
1283.155, 15776.10
1283.637, 15768.36
1284.119, 15786.30
1284.601, 15843.69
1285.083, 15880.02
1285.565, 15836.12
1286.047, 15789.35
1286.530, 15766.99
1287.012, 15767.30
1287.494, 15803.48
1287.976, 15858.02
1288.458, 15867.76
1288.940, 15821.47
1289.422, 15788.83
1289.904, 15817.88
1290.387, 15830.48
1290.869, 15799.86
1291.351, 15757.18
1291.833, 15756.97
1292.315, 15781.00
##END=



