##NAMES=Nacrite
##RRUFFID=R100066
##IDEAL CHEMISTRY=Al_2_Si_2_O_5_(OH)_4_
##LOCALITY=Geisberg, Schweighausen, Black Forest, Germany
##OWNER=RRUFF
##SOURCE=Bob Jenkins
##DESCRIPTION=Stacks of parallel pseudohexagonal white plates
##STATUS=The identification of this mineral has been confirmed only by single crystal X-ray diffraction.
##URL=rruff.info/R100066
90.49219, 44.40525
90.97430, 44.66036
91.45642, 44.75257
91.93854, 44.33419
92.42065, 43.85619
92.90277, 44.14613
93.38489, 45.40419
93.86700, 46.76268
94.34912, 46.97699
94.83124, 46.23198
95.31335, 45.58230
95.79547, 45.88558
96.27759, 46.88007
96.75970, 47.45063
97.24182, 47.32402
97.72394, 46.84704
98.20605, 46.82107
98.68817, 47.29842
99.17029, 47.80449
99.65240, 47.91205
100.1345, 47.58706
100.6166, 47.36982
101.0988, 47.36457
101.5809, 47.55828
102.0630, 47.87646
102.5451, 48.40393
103.0272, 48.91019
103.5093, 49.07312
103.9915, 48.67801
104.4736, 48.50292
104.9557, 48.86778
105.4378, 49.94935
105.9199, 50.54799
106.4020, 50.40345
106.8842, 49.90680
107.3663, 49.74713
107.8484, 50.19432
108.3305, 50.66819
108.8126, 50.96547
109.2947, 50.94405
109.7769, 50.98085
110.2590, 50.94061
110.7411, 50.93594
111.2232, 51.31718
111.7053, 52.70399
112.1874, 54.04726
112.6696, 54.86477
113.1517, 54.58950
113.6338, 54.34827
114.1159, 54.26998
114.5980, 54.34676
115.0801, 54.51636
115.5623, 54.98762
116.0444, 55.43878
116.5265, 55.62047
117.0086, 54.83374
117.4907, 54.32406
117.9728, 54.77104
118.4550, 56.22142
118.9371, 57.51685
119.4192, 58.03661
119.9013, 58.13025
120.3834, 58.23443
120.8655, 58.38448
121.3477, 58.70147
121.8298, 59.26469
122.3119, 60.08534
122.7940, 61.13365
123.2761, 62.41985
123.7582, 63.92073
124.2404, 65.58458
124.7225, 67.13612
125.2046, 68.93053
125.6867, 71.34021
126.1688, 74.39357
126.6509, 78.16463
127.1331, 82.79967
127.6152, 88.25652
128.0973, 94.32545
128.5794, 100.7919
129.0615, 107.7619
129.5436, 115.4810
130.0258, 124.0304
130.5079, 133.3297
130.9900, 143.1496
131.4721, 153.4063
131.9542, 165.0815
132.4363, 178.9272
132.9185, 194.8972
133.4006, 212.6263
133.8827, 231.9380
134.3648, 252.8159
134.8469, 276.3209
135.3290, 302.3244
135.8112, 331.6593
136.2933, 364.9901
136.7754, 402.5057
137.2575, 443.2016
137.7396, 487.8678
138.2217, 535.6423
138.7039, 583.5258
139.1860, 631.9260
139.6681, 679.9085
140.1502, 727.5467
140.6323, 775.0242
141.1144, 820.0018
141.5966, 861.6293
142.0787, 899.4689
142.5608, 934.5278
143.0429, 965.5350
143.5250, 994.4047
144.0071, 1024.950
144.4893, 1056.040
144.9714, 1090.227
145.4535, 1128.052
145.9356, 1169.491
146.4177, 1215.591
146.8998, 1267.969
147.3820, 1325.305
147.8641, 1384.543
148.3462, 1445.170
148.8283, 1507.427
149.3104, 1572.260
149.7925, 1642.147
150.2747, 1710.942
150.7568, 1777.217
151.2389, 1841.109
151.7210, 1904.129
152.2031, 1968.226
152.6852, 2029.651
153.1674, 2086.776
153.6495, 2137.671
154.1316, 2185.630
154.6137, 2230.462
155.0958, 2272.142
155.5779, 2313.016
156.0601, 2354.439
156.5422, 2394.788
157.0243, 2432.178
157.5064, 2462.398
157.9885, 2493.260
158.4706, 2526.906
158.9528, 2563.613
159.4349, 2601.763
159.9170, 2641.156
160.3991, 2681.712
160.8812, 2723.340
161.3633, 2764.265
161.8455, 2807.656
162.3276, 2855.695
162.8097, 2908.646
163.2918, 2962.711
163.7739, 3015.544
164.2560, 3064.896
164.7382, 3093.189
165.2203, 3118.774
165.7024, 3144.961
166.1845, 3169.796
166.6666, 3193.279
167.1487, 3215.147
167.6309, 3234.473
168.1130, 3252.370
168.5951, 3270.826
169.0772, 3293.210
169.5593, 3315.473
170.0414, 3333.962
170.5236, 3347.357
171.0057, 3358.769
171.4878, 3370.868
171.9699, 3383.098
172.4520, 3393.513
172.9341, 3399.987
173.4163, 3404.542
173.8984, 3409.464
174.3805, 3415.188
174.8626, 3421.433
175.3447, 3427.484
175.8268, 3433.629
176.3090, 3441.447
176.7911, 3453.855
177.2732, 3468.203
177.7553, 3479.875
178.2374, 3486.284
178.7195, 3491.127
179.2017, 3499.636
179.6838, 3511.496
180.1659, 3523.131
180.6480, 3531.597
181.1301, 3537.804
181.6122, 3544.034
182.0944, 3550.790
182.5765, 3558.000
183.0586, 3565.899
183.5407, 3574.349
184.0228, 3582.972
184.5049, 3591.373
184.9871, 3599.618
185.4692, 3607.650
185.9513, 3615.970
186.4334, 3623.927
186.9155, 3629.860
187.3976, 3633.619
187.8798, 3636.823
188.3619, 3641.122
188.8440, 3646.400
189.3261, 3651.651
189.8082, 3657.264
190.2903, 3662.618
190.7725, 3664.695
191.2546, 3662.926
191.7367, 3661.018
192.2188, 3663.780
192.7009, 3670.981
193.1830, 3678.121
193.6652, 3683.593
194.1473, 3687.614
194.6294, 3690.848
195.1115, 3692.944
195.5936, 3695.389
196.0757, 3700.836
196.5579, 3709.416
197.0400, 3717.208
197.5221, 3723.032
198.0042, 3726.880
198.4863, 3727.681
198.9684, 3724.294
199.4506, 3720.444
199.9327, 3722.054
200.4148, 3729.575
200.8969, 3738.251
201.3790, 3747.153
201.8611, 3756.334
202.3433, 3761.922
202.8254, 3762.901
203.3075, 3761.801
203.7896, 3763.224
204.2717, 3767.741
204.7538, 3771.564
205.2360, 3772.436
205.7181, 3769.791
206.2002, 3769.178
206.6823, 3771.030
207.1644, 3774.343
207.6465, 3777.575
208.1287, 3780.945
208.6108, 3783.486
209.0929, 3784.621
209.5750, 3784.136
210.0571, 3783.662
210.5392, 3783.015
211.0214, 3782.712
211.5035, 3784.125
211.9856, 3788.050
212.4677, 3791.681
212.9498, 3793.468
213.4319, 3792.688
213.9141, 3793.251
214.3962, 3795.602
214.8783, 3799.025
215.3604, 3801.688
215.8425, 3803.004
216.3246, 3804.754
216.8067, 3808.127
217.2889, 3814.037
217.7710, 3817.948
218.2531, 3819.197
218.7352, 3818.594
219.2173, 3817.985
219.6994, 3816.938
220.1816, 3816.589
220.6637, 3817.507
221.1458, 3820.034
221.6279, 3822.940
222.1100, 3826.452
222.5921, 3830.327
223.0743, 3834.115
223.5564, 3838.238
224.0385, 3841.705
224.5206, 3843.949
225.0027, 3844.665
225.4848, 3845.190
225.9670, 3844.986
226.4491, 3844.846
226.9312, 3847.023
227.4133, 3852.579
227.8954, 3858.705
228.3775, 3864.041
228.8597, 3868.563
229.3418, 3872.231
229.8239, 3874.342
230.3060, 3875.619
230.7881, 3878.240
231.2702, 3882.985
231.7524, 3887.677
232.2345, 3891.062
232.7166, 3891.977
233.1987, 3894.387
233.6808, 3899.400
234.1629, 3905.619
234.6451, 3909.281
235.1272, 3909.281
235.6093, 3908.518
236.0914, 3908.473
236.5735, 3910.390
237.0556, 3910.374
237.5378, 3907.312
238.0199, 3902.815
238.5020, 3900.927
238.9841, 3902.733
239.4662, 3905.662
239.9483, 3908.886
240.4305, 3913.154
240.9126, 3915.794
241.3947, 3916.227
241.8768, 3915.133
242.3589, 3914.033
242.8410, 3912.123
243.3232, 3911.246
243.8053, 3912.281
244.2874, 3915.964
244.7695, 3919.753
245.2516, 3924.202
245.7337, 3928.555
246.2159, 3931.006
246.6980, 3930.643
247.1801, 3929.876
247.6622, 3929.645
248.1443, 3930.196
248.6264, 3930.719
249.1086, 3931.176
249.5907, 3931.687
250.0728, 3932.395
250.5549, 3933.016
251.0370, 3934.302
251.5191, 3936.741
252.0013, 3940.890
252.4834, 3943.977
252.9655, 3945.255
253.4476, 3945.787
253.9297, 3947.793
254.4118, 3952.402
254.8940, 3956.212
255.3761, 3957.976
255.8582, 3957.373
256.3403, 3955.709
256.8224, 3951.910
257.3046, 3947.911
257.7867, 3947.331
258.2688, 3951.825
258.7509, 3956.392
259.2330, 3959.374
259.7151, 3960.568
260.1973, 3961.955
260.6794, 3963.785
261.1615, 3965.658
261.6436, 3966.680
262.1257, 3966.107
262.6078, 3966.567
263.0900, 3969.288
263.5721, 3974.666
264.0542, 3978.155
264.5363, 3978.858
265.0184, 3978.672
265.5005, 3980.144
265.9827, 3983.713
266.4648, 3987.421
266.9469, 3990.393
267.4290, 3992.531
267.9111, 3996.868
268.3932, 4005.001
268.8754, 4012.748
269.3575, 4014.627
269.8396, 4008.877
270.3217, 4003.829
270.8038, 4001.501
271.2859, 4001.802
271.7681, 4003.219
272.2502, 4006.357
272.7323, 4009.426
273.2144, 4010.041
273.6965, 4007.533
274.1786, 4006.499
274.6608, 4008.980
275.1429, 4014.035
275.6250, 4013.766
276.1071, 4006.328
276.5892, 3998.903
277.0714, 3999.344
277.5535, 4008.750
278.0356, 4015.741
278.5177, 4017.286
278.9998, 4015.097
279.4819, 4016.796
279.9641, 4023.352
280.4462, 4030.002
280.9283, 4032.365
281.4104, 4030.275
281.8925, 4029.482
282.3746, 4031.122
282.8568, 4034.425
283.3389, 4037.018
283.8210, 4038.706
284.3031, 4040.967
284.7852, 4045.614
285.2673, 4052.343
285.7495, 4056.699
286.2316, 4057.189
286.7137, 4056.222
287.1958, 4059.411
287.6779, 4066.837
288.1600, 4074.309
288.6422, 4079.289
289.1243, 4081.991
289.6064, 4083.593
290.0885, 4083.842
290.5706, 4083.986
291.0527, 4086.802
291.5349, 4092.089
292.0170, 4096.388
292.4991, 4096.646
292.9812, 4094.255
293.4633, 4094.332
293.9454, 4097.449
294.4276, 4101.905
294.9097, 4106.463
295.3918, 4110.814
295.8739, 4113.131
296.3560, 4110.033
296.8381, 4104.467
297.3203, 4104.187
297.8024, 4109.734
298.2845, 4116.544
298.7666, 4119.108
299.2487, 4118.806
299.7308, 4120.034
300.2130, 4126.972
300.6951, 4135.651
301.1772, 4138.795
301.6593, 4136.444
302.1414, 4133.694
302.6235, 4135.880
303.1057, 4140.919
303.5878, 4144.450
304.0699, 4143.731
304.5520, 4141.948
305.0341, 4142.726
305.5162, 4145.898
305.9984, 4150.052
306.4805, 4155.046
306.9626, 4160.122
307.4447, 4163.996
307.9268, 4165.554
308.4089, 4166.787
308.8911, 4169.649
309.3732, 4173.734
309.8553, 4177.501
310.3374, 4180.036
310.8195, 4181.766
311.3016, 4183.062
311.7838, 4183.954
312.2659, 4184.554
312.7480, 4183.809
313.2301, 4182.768
313.7122, 4183.936
314.1943, 4191.370
314.6765, 4199.694
315.1586, 4204.903
315.6407, 4205.725
316.1228, 4206.028
316.6049, 4206.057
317.0870, 4206.974
317.5692, 4210.647
318.0513, 4222.403
318.5334, 4233.214
319.0155, 4237.648
319.4976, 4234.275
319.9797, 4231.659
320.4619, 4232.070
320.9440, 4234.796
321.4261, 4239.030
321.9082, 4246.681
322.3903, 4253.719
322.8724, 4259.087
323.3546, 4262.743
323.8367, 4265.008
324.3188, 4264.364
324.8009, 4263.319
325.2830, 4263.812
325.7651, 4267.958
326.2473, 4271.757
326.7294, 4274.829
327.2115, 4277.237
327.6936, 4279.151
328.1757, 4279.289
328.6578, 4279.942
329.1400, 4282.265
329.6221, 4287.706
330.1042, 4292.798
330.5863, 4297.540
331.0684, 4301.872
331.5505, 4305.632
332.0327, 4308.981
332.5148, 4311.439
332.9969, 4312.310
333.4790, 4309.771
333.9611, 4310.539
334.4432, 4315.922
334.9254, 4323.830
335.4075, 4330.856
335.8896, 4337.348
336.3717, 4342.403
336.8538, 4345.556
337.3359, 4346.730
337.8180, 4347.159
338.3001, 4346.078
338.7823, 4345.505
339.2644, 4348.554
339.7465, 4356.589
340.2286, 4362.349
340.7107, 4363.563
341.1928, 4360.898
341.6750, 4358.600
342.1571, 4356.324
342.6392, 4355.390
343.1213, 4357.848
343.6034, 4363.717
344.0855, 4367.307
344.5677, 4366.674
345.0498, 4364.151
345.5319, 4366.241
346.0140, 4373.118
346.4961, 4379.704
346.9782, 4382.421
347.4604, 4381.993
347.9425, 4381.427
348.4246, 4380.843
348.9067, 4380.870
349.3888, 4382.792
349.8709, 4386.370
350.3531, 4390.039
350.8352, 4393.767
351.3173, 4396.939
351.7994, 4397.617
352.2815, 4395.511
352.7636, 4393.786
353.2458, 4396.487
353.7279, 4401.825
354.2100, 4405.878
354.6921, 4404.829
355.1742, 4403.283
355.6563, 4407.158
356.1385, 4415.897
356.6206, 4424.099
357.1027, 4426.692
357.5848, 4427.126
358.0669, 4429.669
358.5490, 4436.729
359.0312, 4444.137
359.5133, 4449.638
359.9954, 4453.399
360.4775, 4456.088
360.9596, 4456.678
361.4417, 4457.140
361.9239, 4459.089
362.4060, 4463.501
362.8881, 4467.206
363.3702, 4467.880
363.8523, 4467.303
364.3344, 4468.208
364.8166, 4473.682
365.2987, 4478.755
365.7808, 4481.011
366.2629, 4479.972
366.7450, 4479.870
367.2271, 4482.738
367.7093, 4486.243
368.1914, 4488.334
368.6735, 4487.295
369.1556, 4486.647
369.6377, 4487.299
370.1198, 4489.039
370.6020, 4489.728
371.0841, 4487.292
371.5662, 4485.744
372.0483, 4487.511
372.5304, 4495.756
373.0125, 4501.302
373.4947, 4503.106
373.9768, 4502.343
374.4589, 4501.558
374.9410, 4500.269
375.4231, 4499.929
375.9052, 4501.190
376.3874, 4504.220
376.8695, 4507.812
377.3516, 4512.314
377.8337, 4516.885
378.3158, 4520.336
378.7979, 4522.467
379.2801, 4525.273
379.7622, 4529.833
380.2443, 4535.440
380.7264, 4538.754
381.2085, 4539.462
381.6906, 4539.799
382.1728, 4541.780
382.6549, 4545.134
383.1370, 4548.056
383.6191, 4550.098
384.1012, 4551.825
384.5833, 4554.386
385.0655, 4557.658
385.5476, 4560.706
386.0297, 4562.705
386.5118, 4564.235
386.9939, 4566.255
387.4760, 4568.791
387.9582, 4572.170
388.4403, 4578.605
388.9224, 4586.115
389.4045, 4590.577
389.8866, 4586.486
390.3687, 4581.313
390.8509, 4581.957
391.3330, 4588.005
391.8151, 4594.571
392.2972, 4600.455
392.7793, 4604.604
393.2614, 4605.701
393.7436, 4600.481
394.2257, 4596.324
394.7078, 4596.378
395.1899, 4599.903
395.6720, 4604.943
396.1541, 4614.474
396.6363, 4622.591
397.1184, 4625.888
397.6005, 4622.170
398.0826, 4619.606
398.5647, 4620.452
399.0468, 4622.779
399.5290, 4624.243
400.0111, 4622.091
400.4932, 4621.916
400.9753, 4625.157
401.4574, 4631.818
401.9395, 4638.399
402.4217, 4645.130
402.9038, 4651.523
403.3859, 4657.232
403.8680, 4662.091
404.3501, 4666.712
404.8322, 4671.742
405.3144, 4676.194
405.7965, 4676.521
406.2786, 4671.112
406.7607, 4666.903
407.2428, 4667.167
407.7249, 4672.027
408.2071, 4678.202
408.6892, 4686.213
409.1713, 4694.067
409.6534, 4698.893
410.1355, 4700.820
410.6176, 4702.803
411.0998, 4705.672
411.5819, 4709.223
412.0640, 4713.100
412.5461, 4717.263
413.0282, 4721.471
413.5103, 4726.069
413.9925, 4730.461
414.4746, 4733.041
414.9567, 4732.894
415.4388, 4732.848
415.9209, 4736.317
416.4030, 4742.231
416.8852, 4748.037
417.3673, 4753.695
417.8494, 4757.812
418.3315, 4758.242
418.8136, 4754.802
419.2957, 4752.184
419.7779, 4753.447
420.2600, 4756.674
420.7421, 4759.933
421.2242, 4763.136
421.7063, 4765.877
422.1884, 4768.358
422.6706, 4770.413
423.1527, 4771.454
423.6348, 4769.896
424.1169, 4768.518
424.5990, 4768.734
425.0811, 4771.645
425.5633, 4773.969
426.0454, 4774.092
426.5275, 4774.219
427.0096, 4777.399
427.4917, 4786.619
427.9738, 4794.304
428.4560, 4798.263
428.9381, 4798.743
429.4202, 4801.044
429.9023, 4805.910
430.3844, 4811.073
430.8665, 4814.863
431.3487, 4817.105
431.8308, 4818.435
432.3129, 4818.066
432.7950, 4817.789
433.2771, 4822.439
433.7592, 4832.181
434.2414, 4840.645
434.7235, 4843.964
435.2056, 4843.428
435.6877, 4844.358
436.1698, 4846.806
436.6519, 4849.616
437.1341, 4852.534
437.6162, 4854.920
438.0983, 4854.844
438.5804, 4850.353
439.0625, 4845.303
439.5446, 4844.276
440.0268, 4846.584
440.5089, 4849.624
440.9910, 4852.045
441.4731, 4854.501
441.9552, 4858.280
442.4373, 4864.106
442.9195, 4867.930
443.4016, 4866.478
443.8837, 4862.283
444.3658, 4858.421
444.8479, 4853.795
445.3300, 4851.675
445.8122, 4854.538
446.2943, 4861.678
446.7764, 4867.046
447.2585, 4867.201
447.7406, 4867.307
448.2227, 4870.225
448.7049, 4878.904
449.1870, 4884.570
449.6691, 4885.281
450.1512, 4883.914
450.6333, 4885.236
451.1154, 4890.979
451.5976, 4895.656
452.0797, 4897.495
452.5618, 4896.720
453.0439, 4896.410
453.5260, 4896.498
454.0081, 4897.245
454.4903, 4898.666
454.9724, 4900.760
455.4545, 4904.717
455.9366, 4911.205
456.4187, 4918.470
456.9008, 4923.521
457.3830, 4926.553
457.8651, 4928.583
458.3472, 4929.297
458.8293, 4929.648
459.3114, 4931.672
459.7935, 4935.362
460.2757, 4939.189
460.7578, 4941.159
461.2399, 4942.699
461.7220, 4945.910
462.2041, 4952.169
462.6862, 4958.813
463.1684, 4964.259
463.6505, 4968.780
464.1326, 4972.907
464.6147, 4977.230
465.0968, 4980.862
465.5789, 4983.291
466.0611, 4984.446
466.5432, 4984.509
467.0253, 4980.752
467.5074, 4977.318
467.9895, 4977.709
468.4716, 4987.117
468.9538, 4993.959
469.4359, 4997.124
469.9180, 4997.260
470.4001, 4996.000
470.8822, 4992.086
471.3643, 4989.240
471.8465, 4989.662
472.3286, 4993.966
472.8107, 4995.508
473.2928, 4993.726
473.7749, 4990.795
474.2570, 4989.000
474.7392, 4988.369
475.2213, 4988.071
475.7034, 4987.672
476.1855, 4987.834
476.6676, 4990.463
477.1497, 4995.304
477.6319, 4999.966
478.1140, 5002.918
478.5961, 5004.751
479.0782, 5006.290
479.5603, 5007.517
480.0424, 5008.841
480.5246, 5011.125
481.0067, 5013.533
481.4888, 5014.827
481.9709, 5013.000
482.4530, 5011.795
482.9352, 5013.962
483.4173, 5018.445
483.8994, 5021.926
484.3815, 5023.196
484.8636, 5023.269
485.3457, 5022.159
485.8279, 5019.127
486.3100, 5017.783
486.7921, 5019.720
487.2742, 5022.787
487.7563, 5025.264
488.2384, 5027.875
488.7206, 5028.563
489.2027, 5026.200
489.6848, 5021.929
490.1669, 5019.945
490.6490, 5020.837
491.1311, 5022.411
491.6133, 5024.041
492.0954, 5025.746
492.5775, 5025.626
493.0596, 5023.206
493.5417, 5021.136
494.0238, 5023.251
494.5060, 5028.566
494.9881, 5032.332
495.4702, 5032.922
495.9523, 5032.069
496.4344, 5031.424
496.9165, 5031.215
497.3987, 5032.312
497.8808, 5037.194
498.3629, 5042.390
498.8450, 5043.497
499.3271, 5039.932
499.8092, 5038.079
500.2914, 5044.003
500.7735, 5051.886
501.2556, 5056.268
501.7377, 5050.271
502.2198, 5047.165
502.7019, 5052.931
503.1841, 5063.827
503.6662, 5069.665
504.1483, 5063.812
504.6304, 5059.163
505.1125, 5060.419
505.5946, 5068.411
506.0768, 5071.640
506.5589, 5067.808
507.0410, 5062.718
507.5231, 5061.393
508.0052, 5064.563
508.4873, 5066.982
508.9695, 5067.964
509.4516, 5068.149
509.9337, 5068.617
510.4158, 5069.350
510.8979, 5070.094
511.3800, 5070.933
511.8622, 5071.593
512.3443, 5071.072
512.8264, 5069.427
513.3085, 5068.251
513.7906, 5068.568
514.2728, 5070.127
514.7549, 5073.030
515.2370, 5078.026
515.7191, 5082.113
516.2012, 5083.265
516.6833, 5082.342
517.1655, 5080.687
517.6476, 5077.785
518.1297, 5075.236
518.6118, 5073.413
519.0939, 5072.392
519.5760, 5072.489
520.0582, 5074.326
520.5403, 5076.860
521.0224, 5079.894
521.5045, 5084.237
521.9866, 5086.440
522.4688, 5085.137
522.9509, 5083.119
523.4330, 5084.182
523.9151, 5088.988
524.3972, 5093.036
524.8793, 5095.133
525.3615, 5095.992
525.8436, 5097.412
526.3257, 5099.394
526.8078, 5101.673
527.2899, 5104.906
527.7720, 5108.246
528.2542, 5109.641
528.7363, 5109.014
529.2184, 5107.293
529.7005, 5104.049
530.1826, 5100.619
530.6647, 5098.910
531.1469, 5100.153
531.6290, 5102.099
532.1111, 5103.333
532.5932, 5104.362
533.0753, 5106.213
533.5574, 5109.248
534.0396, 5113.037
534.5217, 5118.424
535.0038, 5125.552
535.4859, 5129.296
535.9680, 5127.034
536.4501, 5123.728
536.9323, 5122.339
537.4144, 5124.011
537.8965, 5124.091
538.3786, 5121.689
538.8607, 5118.813
539.3428, 5119.119
539.8250, 5122.971
540.3071, 5125.437
540.7892, 5124.424
541.2713, 5121.758
541.7534, 5121.998
542.2355, 5124.978
542.7177, 5128.647
543.1998, 5133.495
543.6819, 5137.601
544.1640, 5136.942
544.6461, 5131.003
545.1282, 5125.458
545.6104, 5123.536
546.0925, 5124.518
546.5746, 5127.789
547.0567, 5135.550
547.5388, 5142.181
548.0209, 5144.979
548.5031, 5145.266
548.9852, 5146.049
549.4673, 5147.750
549.9494, 5150.026
550.4315, 5153.483
550.9136, 5158.107
551.3958, 5159.835
551.8779, 5157.072
552.3600, 5154.130
552.8421, 5153.885
553.3242, 5156.643
553.8063, 5159.559
554.2885, 5162.900
554.7706, 5165.352
555.2527, 5163.999
555.7348, 5159.619
556.2169, 5157.212
556.6990, 5159.056
557.1812, 5162.609
557.6633, 5164.446
558.1454, 5164.901
558.6275, 5165.241
559.1096, 5165.210
559.5917, 5166.048
560.0739, 5169.683
560.5560, 5176.319
561.0381, 5181.322
561.5202, 5179.990
562.0023, 5177.991
562.4844, 5179.695
562.9666, 5190.599
563.4487, 5197.749
563.9308, 5198.446
564.4129, 5195.891
564.8950, 5194.834
565.3771, 5195.661
565.8593, 5197.042
566.3414, 5198.808
566.8235, 5200.817
567.3056, 5202.537
567.7877, 5203.873
568.2698, 5205.302
568.7520, 5207.446
569.2341, 5209.949
569.7162, 5211.634
570.1983, 5212.477
570.6804, 5212.423
571.1625, 5210.367
571.6447, 5207.689
572.1268, 5206.917
572.6089, 5209.843
573.0910, 5212.311
573.5731, 5211.685
574.0552, 5208.836
574.5374, 5205.247
575.0195, 5198.520
575.5016, 5194.159
575.9837, 5195.674
576.4658, 5202.458
576.9479, 5206.145
577.4301, 5203.720
577.9122, 5201.559
578.3943, 5202.266
578.8764, 5206.068
579.3585, 5212.030
579.8406, 5221.061
580.3228, 5230.200
580.8049, 5236.327
581.2870, 5239.506
581.7691, 5241.475
582.2512, 5242.081
582.7333, 5242.388
583.2155, 5244.201
583.6976, 5247.005
584.1797, 5249.417
584.6617, 5248.839
585.1439, 5248.851
585.6260, 5253.719
586.1081, 5262.469
586.5902, 5270.308
587.0723, 5276.409
587.5544, 5279.817
588.0366, 5279.272
588.5187, 5273.415
589.0008, 5269.169
589.4829, 5269.158
589.9650, 5269.943
590.4471, 5268.794
590.9293, 5264.060
591.4114, 5261.494
591.8935, 5262.032
592.3756, 5264.352
592.8577, 5266.278
593.3398, 5267.817
593.8220, 5268.837
594.3041, 5268.978
594.7862, 5268.790
595.2683, 5269.917
595.7504, 5272.131
596.2325, 5273.833
596.7147, 5274.615
597.1968, 5274.037
597.6789, 5270.249
598.1610, 5263.064
598.6431, 5258.589
599.1252, 5260.181
599.6074, 5266.062
600.0895, 5275.608
600.5716, 5295.274
601.0537, 5307.169
601.5358, 5303.687
602.0179, 5292.856
602.5001, 5284.347
602.9822, 5277.289
603.4643, 5274.678
603.9464, 5278.397
604.4285, 5286.236
604.9106, 5291.200
605.3928, 5292.990
605.8749, 5293.619
606.3570, 5293.089
606.8391, 5292.158
607.3212, 5294.141
607.8033, 5298.864
608.2855, 5302.982
608.7676, 5302.807
609.2497, 5300.938
609.7318, 5300.920
610.2139, 5303.684
610.6960, 5306.305
611.1782, 5306.250
611.6603, 5305.629
612.1424, 5306.698
612.6245, 5313.069
613.1066, 5317.422
613.5887, 5318.672
614.0709, 5317.393
614.5530, 5314.258
615.0351, 5307.997
615.5172, 5302.735
615.9993, 5299.386
616.4814, 5297.963
616.9636, 5298.796
617.4457, 5302.079
617.9278, 5305.739
618.4099, 5309.134
618.8920, 5311.858
619.3741, 5312.290
619.8563, 5310.351
620.3384, 5308.430
620.8205, 5308.602
621.3026, 5309.828
621.7847, 5310.847
622.2668, 5311.280
622.7490, 5311.726
623.2311, 5313.414
623.7132, 5314.907
624.1953, 5314.364
624.6774, 5306.842
625.1595, 5303.060
625.6417, 5305.858
626.1238, 5312.983
626.6059, 5318.330
627.0880, 5322.093
627.5701, 5323.604
628.0522, 5321.622
628.5344, 5317.265
629.0165, 5316.531
629.4986, 5319.505
629.9807, 5322.755
630.4628, 5322.761
630.9449, 5321.617
631.4271, 5323.853
631.9092, 5329.899
632.3913, 5335.777
632.8734, 5338.784
633.3555, 5339.978
633.8376, 5340.390
634.3198, 5339.817
634.8019, 5339.193
635.2840, 5338.042
635.7661, 5337.162
636.2482, 5337.738
636.7303, 5341.096
637.2125, 5343.684
637.6946, 5345.058
638.1767, 5345.371
638.6588, 5345.165
639.1409, 5344.571
639.6230, 5342.812
640.1052, 5338.762
640.5873, 5333.707
641.0694, 5332.127
641.5515, 5333.775
642.0336, 5335.162
642.5157, 5333.285
642.9979, 5330.306
643.4800, 5328.448
643.9621, 5327.924
644.4442, 5328.860
644.9263, 5332.132
645.4084, 5336.391
645.8906, 5340.521
646.3727, 5344.163
646.8548, 5347.769
647.3369, 5350.898
647.8190, 5354.071
648.3011, 5358.099
648.7833, 5363.592
649.2654, 5367.258
649.7475, 5367.824
650.2296, 5367.109
650.7117, 5369.828
651.1938, 5375.573
651.6760, 5379.333
652.1581, 5377.255
652.6402, 5373.525
653.1223, 5375.389
653.6044, 5381.583
654.0865, 5386.733
654.5687, 5386.631
655.0508, 5385.507
655.5329, 5386.432
656.0150, 5389.739
656.4971, 5392.117
656.9792, 5392.405
657.4614, 5391.876
657.9435, 5390.943
658.4256, 5388.937
658.9077, 5388.911
659.3898, 5391.531
659.8719, 5394.845
660.3541, 5397.118
660.8362, 5398.320
661.3183, 5398.233
661.8004, 5396.722
662.2825, 5394.181
662.7646, 5389.614
663.2468, 5384.446
663.7289, 5382.319
664.2110, 5386.644
664.6931, 5391.883
665.1752, 5395.042
665.6573, 5396.219
666.1395, 5395.655
666.6216, 5390.125
667.1037, 5386.344
667.5858, 5387.499
668.0679, 5392.805
668.5500, 5396.817
669.0322, 5398.852
669.5143, 5401.046
669.9964, 5405.487
670.4785, 5411.681
670.9606, 5410.268
671.4427, 5400.312
671.9249, 5391.380
672.4070, 5391.818
672.8891, 5398.653
673.3712, 5406.682
673.8533, 5415.700
674.3354, 5422.196
674.8176, 5421.415
675.2997, 5417.970
675.7818, 5416.903
676.2639, 5421.297
676.7460, 5424.469
677.2281, 5423.726
677.7103, 5421.537
678.1924, 5420.708
678.6745, 5420.923
679.1566, 5423.683
679.6387, 5430.558
680.1208, 5438.830
680.6030, 5441.948
681.0851, 5439.874
681.5672, 5438.443
682.0493, 5440.297
682.5314, 5443.417
683.0135, 5443.928
683.4957, 5442.458
683.9778, 5441.592
684.4599, 5444.451
684.9420, 5446.962
685.4241, 5445.702
685.9063, 5440.889
686.3884, 5436.845
686.8705, 5433.642
687.3526, 5432.639
687.8347, 5434.954
688.3168, 5441.336
688.7990, 5446.470
689.2811, 5450.435
689.7632, 5453.396
690.2453, 5455.339
690.7274, 5456.340
691.2095, 5456.864
691.6917, 5456.862
692.1738, 5456.884
692.6559, 5457.210
693.1380, 5457.969
693.6201, 5459.602
694.1022, 5462.642
694.5844, 5465.078
695.0665, 5464.272
695.5486, 5462.591
696.0307, 5463.095
696.5128, 5469.602
696.9949, 5474.129
697.4771, 5474.798
697.9592, 5473.574
698.4413, 5474.616
698.9234, 5478.781
699.4055, 5481.884
699.8876, 5482.608
700.3698, 5481.854
700.8519, 5481.703
701.3340, 5482.140
701.8161, 5482.886
702.2982, 5483.747
702.7803, 5484.975
703.2625, 5487.111
703.7446, 5490.015
704.2267, 5492.740
704.7088, 5495.628
705.1909, 5497.656
705.6730, 5497.750
706.1552, 5495.639
706.6373, 5494.912
707.1194, 5495.272
707.6015, 5497.395
708.0836, 5502.257
708.5657, 5509.990
709.0479, 5515.240
709.5300, 5517.473
710.0121, 5519.744
710.4942, 5525.887
710.9763, 5533.900
711.4584, 5538.942
711.9406, 5539.965
712.4227, 5540.694
712.9048, 5545.535
713.3869, 5550.705
713.8690, 5551.959
714.3511, 5545.237
714.8333, 5540.390
715.3154, 5541.549
715.7975, 5544.517
716.2796, 5544.984
716.7617, 5542.732
717.2438, 5538.924
717.7260, 5533.151
718.2081, 5527.093
718.6902, 5523.769
719.1723, 5522.989
719.6544, 5523.178
720.1365, 5523.639
720.6187, 5525.106
721.1008, 5529.083
721.5829, 5534.664
722.0650, 5539.892
722.5471, 5543.918
723.0292, 5547.178
723.5114, 5548.866
723.9935, 5549.536
724.4756, 5551.955
724.9577, 5557.969
725.4398, 5562.744
725.9219, 5564.554
726.4041, 5563.915
726.8862, 5563.455
727.3683, 5563.116
727.8504, 5564.065
728.3325, 5568.563
728.8146, 5574.417
729.2968, 5576.412
729.7789, 5574.917
730.2610, 5573.180
730.7431, 5573.015
731.2252, 5573.585
731.7073, 5573.999
732.1895, 5574.041
732.6716, 5575.626
733.1537, 5580.838
733.6358, 5585.949
734.1179, 5588.973
734.6000, 5589.371
735.0822, 5590.390
735.5643, 5592.222
736.0464, 5593.829
736.5285, 5593.276
737.0106, 5591.600
737.4927, 5593.698
737.9749, 5600.546
738.4570, 5606.726
738.9391, 5606.994
739.4212, 5604.305
739.9033, 5602.024
740.3854, 5601.404
740.8676, 5600.257
741.3497, 5595.764
741.8318, 5591.889
742.3139, 5592.846
742.7960, 5601.165
743.2781, 5607.815
743.7603, 5611.770
744.2424, 5614.461
744.7245, 5617.833
745.2066, 5621.696
745.6887, 5625.611
746.1708, 5629.750
746.6530, 5632.796
747.1351, 5631.232
747.6172, 5627.809
748.0993, 5627.488
748.5814, 5636.573
749.0635, 5643.820
749.5457, 5643.589
750.0278, 5639.241
750.5099, 5638.039
750.9920, 5642.106
751.4741, 5646.039
751.9562, 5649.723
752.4384, 5652.188
752.9205, 5649.393
753.4026, 5641.567
753.8847, 5636.014
754.3668, 5636.252
754.8489, 5639.585
755.3311, 5643.488
755.8132, 5647.382
756.2953, 5649.437
756.7774, 5646.656
757.2595, 5643.946
757.7416, 5644.109
758.2238, 5646.584
758.7059, 5647.866
759.1880, 5646.906
759.6701, 5646.153
760.1522, 5646.558
760.6343, 5647.744
761.1165, 5647.294
761.5986, 5645.083
762.0807, 5643.602
762.5628, 5644.166
763.0449, 5646.332
763.5270, 5650.163
764.0092, 5655.207
764.4913, 5659.239
764.9734, 5660.385
765.4555, 5660.655
765.9376, 5661.361
766.4197, 5662.592
766.9019, 5662.821
767.3840, 5661.388
767.8661, 5659.906
768.3482, 5659.023
768.8303, 5658.750
769.3124, 5658.941
769.7946, 5659.613
770.2767, 5660.739
770.7588, 5662.690
771.2409, 5664.941
771.7230, 5665.938
772.2051, 5665.749
772.6873, 5667.019
773.1694, 5672.128
773.6515, 5678.534
774.1336, 5685.240
774.6157, 5692.583
775.0978, 5696.506
775.5800, 5694.644
776.0621, 5692.405
776.5442, 5693.666
777.0263, 5698.724
777.5084, 5698.775
777.9905, 5693.180
778.4727, 5688.625
778.9548, 5692.784
779.4369, 5701.247
779.9190, 5706.894
780.4011, 5708.988
780.8832, 5708.180
781.3654, 5699.892
781.8475, 5692.402
782.3296, 5693.038
782.8117, 5707.143
783.2938, 5714.931
783.7759, 5713.250
784.2581, 5709.806
784.7402, 5710.607
785.2223, 5715.674
785.7044, 5720.492
786.1865, 5724.962
786.6686, 5728.041
787.1508, 5726.974
787.6329, 5724.389
788.1150, 5724.428
788.5971, 5727.874
789.0792, 5732.370
789.5613, 5737.118
790.0435, 5742.094
790.5256, 5747.678
791.0077, 5755.312
791.4898, 5758.923
791.9719, 5756.642
792.4540, 5753.327
792.9362, 5754.479
793.4183, 5759.494
793.9004, 5760.085
794.3825, 5755.198
794.8646, 5750.171
795.3467, 5750.794
795.8289, 5754.209
796.3110, 5756.732
796.7931, 5757.889
797.2752, 5757.881
797.7573, 5755.296
798.2394, 5752.677
798.7216, 5752.060
799.2037, 5753.750
799.6858, 5757.106
800.1679, 5763.061
800.6500, 5768.502
801.1321, 5769.686
801.6143, 5767.455
802.0964, 5766.302
802.5785, 5766.781
803.0606, 5767.301
803.5427, 5765.924
804.0248, 5764.041
804.5070, 5763.356
804.9891, 5764.776
805.4712, 5765.521
805.9533, 5763.404
806.4354, 5761.667
806.9175, 5763.090
807.3997, 5768.917
807.8818, 5772.805
808.3639, 5774.466
808.8460, 5774.921
809.3281, 5775.331
809.8102, 5774.366
810.2924, 5773.863
810.7745, 5770.479
811.2566, 5767.159
811.7387, 5763.422
812.2208, 5761.506
812.7029, 5764.001
813.1851, 5773.801
813.6672, 5780.906
814.1493, 5783.343
814.6314, 5784.710
815.1135, 5787.981
815.5956, 5793.269
816.0778, 5797.545
816.5599, 5800.708
817.0420, 5802.638
817.5241, 5801.133
818.0062, 5799.112
818.4883, 5802.240
818.9705, 5812.063
819.4526, 5819.974
819.9347, 5819.798
820.4168, 5817.719
820.8989, 5818.446
821.3810, 5823.038
821.8632, 5826.507
822.3453, 5828.590
822.8274, 5830.177
823.3095, 5831.924
823.7916, 5833.787
824.2737, 5835.921
824.7559, 5838.374
825.2380, 5838.953
825.7201, 5832.148
826.2022, 5824.912
826.6843, 5826.117
827.1664, 5838.175
827.6486, 5844.915
828.1307, 5835.049
828.6128, 5826.174
829.0949, 5827.851
829.5770, 5841.052
830.0591, 5849.392
830.5413, 5852.337
831.0234, 5853.346
831.5055, 5854.378
831.9876, 5855.453
832.4697, 5856.593
832.9518, 5857.766
833.4340, 5859.053
833.9161, 5859.123
834.3982, 5860.364
834.8803, 5865.698
835.3624, 5875.663
835.8445, 5880.123
836.3267, 5876.875
836.8088, 5872.437
837.2909, 5869.859
837.7730, 5868.830
838.2551, 5866.418
838.7372, 5862.919
839.2194, 5862.212
839.7015, 5870.871
840.1836, 5880.698
840.6657, 5882.205
841.1478, 5876.762
841.6299, 5873.662
842.1121, 5877.726
842.5942, 5882.673
843.0763, 5886.384
843.5584, 5889.103
844.0405, 5892.585
844.5226, 5896.928
845.0048, 5900.498
845.4869, 5901.616
845.9690, 5902.144
846.4511, 5906.851
846.9332, 5914.286
847.4153, 5919.767
847.8975, 5919.661
848.3796, 5918.382
848.8617, 5917.690
849.3438, 5917.522
849.8259, 5917.478
850.3080, 5917.659
850.7902, 5917.936
851.2723, 5918.333
851.7544, 5918.947
852.2365, 5919.571
852.7186, 5920.458
853.2007, 5923.008
853.6829, 5928.930
854.1650, 5934.747
854.6471, 5937.387
855.1292, 5937.857
855.6113, 5937.845
856.0934, 5935.747
856.5756, 5936.012
857.0577, 5940.486
857.5398, 5946.286
858.0219, 5949.050
858.5040, 5948.541
858.9861, 5948.492
859.4683, 5949.385
859.9504, 5951.218
860.4325, 5954.893
860.9146, 5959.211
861.3967, 5961.779
861.8788, 5960.857
862.3610, 5961.244
862.8431, 5965.901
863.3252, 5971.978
863.8073, 5977.072
864.2894, 5982.086
864.7715, 5982.807
865.2537, 5977.995
865.7358, 5972.881
866.2179, 5973.603
866.7000, 5978.127
867.1821, 5980.862
867.6642, 5981.291
868.1464, 5980.875
868.6285, 5978.547
869.1106, 5977.349
869.5927, 5980.200
870.0748, 5988.595
870.5569, 5994.939
871.0391, 5998.808
871.5212, 6001.149
872.0033, 6001.195
872.4854, 5999.641
872.9675, 6003.226
873.4496, 6011.547
873.9318, 6019.025
874.4139, 6020.241
874.8960, 6020.021
875.3781, 6023.042
875.8602, 6028.915
876.3423, 6033.433
876.8245, 6035.257
877.3066, 6035.789
877.7887, 6034.807
878.2708, 6032.984
878.7529, 6033.694
879.2350, 6037.015
879.7172, 6038.571
880.1993, 6034.783
880.6814, 6030.375
881.1635, 6032.972
881.6456, 6039.784
882.1277, 6044.229
882.6099, 6040.617
883.0920, 6038.267
883.5741, 6040.206
884.0562, 6044.689
884.5383, 6049.808
885.0204, 6056.171
885.5026, 6058.813
885.9847, 6056.047
886.4668, 6051.578
886.9489, 6048.797
887.4310, 6048.400
887.9131, 6052.377
888.3953, 6062.654
888.8774, 6072.987
889.3595, 6082.522
889.8416, 6089.526
890.3237, 6092.196
890.8058, 6088.822
891.2880, 6085.707
891.7701, 6082.470
892.2522, 6080.639
892.7343, 6081.479
893.2164, 6084.816
893.6985, 6091.218
894.1807, 6100.623
894.6628, 6108.972
895.1449, 6113.490
895.6270, 6116.070
896.1091, 6117.808
896.5912, 6118.720
897.0734, 6118.542
897.5555, 6115.992
898.0376, 6115.470
898.5197, 6120.416
899.0018, 6128.594
899.4839, 6131.005
899.9661, 6128.681
900.4482, 6127.599
900.9303, 6133.477
901.4124, 6139.505
901.8945, 6141.052
902.3766, 6139.148
902.8588, 6137.247
903.3409, 6135.120
903.8230, 6134.376
904.3051, 6135.626
904.7872, 6138.094
905.2693, 6140.578
905.7515, 6142.963
906.2336, 6144.475
906.7157, 6144.394
907.1978, 6144.610
907.6799, 6146.341
908.1620, 6149.414
908.6442, 6153.877
909.1263, 6162.792
909.6084, 6167.120
910.0905, 6164.279
910.5726, 6160.246
911.0547, 6161.144
911.5369, 6166.451
912.0190, 6169.161
912.5011, 6168.844
912.9832, 6168.109
913.4653, 6168.971
913.9474, 6170.568
914.4296, 6172.118
914.9117, 6173.530
915.3938, 6175.015
915.8759, 6175.467
916.3580, 6177.446
916.8401, 6182.582
917.3223, 6189.999
917.8044, 6195.154
918.2865, 6197.999
918.7686, 6199.310
919.2507, 6198.856
919.7328, 6197.571
920.2150, 6195.998
920.6971, 6194.359
921.1792, 6193.165
921.6613, 6193.065
922.1434, 6192.934
922.6255, 6192.680
923.1077, 6192.391
923.5898, 6191.767
924.0719, 6190.939
924.5540, 6192.122
925.0361, 6196.143
925.5182, 6200.603
926.0004, 6203.892
926.4825, 6205.761
926.9646, 6205.350
927.4467, 6200.403
927.9288, 6199.338
928.4109, 6206.453
928.8931, 6213.120
929.3752, 6212.484
929.8573, 6204.746
930.3394, 6200.326
930.8215, 6199.301
931.3036, 6198.941
931.7858, 6196.753
932.2679, 6194.819
932.7500, 6195.809
933.2321, 6199.423
933.7142, 6202.244
934.1964, 6203.823
934.6785, 6204.159
935.1606, 6202.502
935.6427, 6200.018
936.1248, 6200.852
936.6069, 6204.637
937.0891, 6206.750
937.5712, 6204.009
938.0533, 6202.032
938.5354, 6208.725
939.0175, 6218.827
939.4996, 6224.522
939.9818, 6218.445
940.4639, 6216.165
940.9460, 6220.229
941.4281, 6225.450
941.9102, 6226.017
942.3923, 6222.545
942.8745, 6220.707
943.3566, 6220.928
943.8387, 6222.233
944.3208, 6223.881
944.8029, 6226.230
945.2850, 6229.570
945.7672, 6233.938
946.2493, 6240.009
946.7314, 6252.402
947.2135, 6257.689
947.6956, 6247.107
948.1777, 6227.084
948.6599, 6222.591
949.1420, 6231.348
949.6241, 6240.788
950.1062, 6246.559
950.5883, 6249.228
951.0704, 6246.411
951.5526, 6241.374
952.0347, 6240.606
952.5168, 6247.053
952.9989, 6252.771
953.4810, 6257.454
953.9631, 6260.689
954.4453, 6262.099
954.9274, 6261.624
955.4095, 6258.042
955.8916, 6250.897
956.3737, 6245.406
956.8558, 6245.607
957.3380, 6248.294
957.8201, 6251.712
958.3022, 6255.794
958.7843, 6258.102
959.2664, 6258.311
959.7485, 6257.584
960.2307, 6256.406
960.7128, 6254.732
961.1949, 6252.039
961.6770, 6248.707
962.1591, 6246.118
962.6412, 6245.319
963.1234, 6245.024
963.6055, 6244.310
964.0876, 6244.118
964.5697, 6246.633
965.0518, 6253.299
965.5339, 6256.006
966.0161, 6253.211
966.4982, 6248.655
966.9803, 6244.916
967.4624, 6243.144
967.9445, 6246.754
968.4266, 6257.212
968.9088, 6264.327
969.3909, 6261.614
969.8730, 6256.846
970.3551, 6253.461
970.8372, 6251.456
971.3193, 6251.064
971.8015, 6252.201
972.2836, 6255.420
972.7657, 6262.622
973.2478, 6270.578
973.7299, 6276.030
974.2120, 6279.213
974.6942, 6280.816
975.1763, 6279.106
975.6584, 6278.553
976.1405, 6280.282
976.6226, 6282.883
977.1047, 6284.376
977.5869, 6284.875
978.0690, 6284.677
978.5511, 6283.575
979.0332, 6284.303
979.5153, 6292.701
979.9974, 6301.664
980.4796, 6303.518
980.9617, 6296.139
981.4438, 6293.210
981.9259, 6297.105
982.4080, 6301.369
982.8901, 6303.318
983.3723, 6303.345
983.8544, 6301.697
984.3365, 6298.971
984.8186, 6297.696
985.3007, 6298.275
985.7828, 6301.439
986.2650, 6310.156
986.7471, 6320.637
987.2292, 6326.527
987.7113, 6326.506
988.1934, 6325.914
988.6755, 6324.788
989.1577, 6324.490
989.6398, 6328.693
990.1219, 6333.906
990.6040, 6333.188
991.0861, 6325.693
991.5682, 6319.112
992.0504, 6316.669
992.5325, 6315.989
993.0146, 6317.100
993.4967, 6319.210
993.9788, 6316.521
994.4609, 6309.149
994.9431, 6303.499
995.4252, 6303.202
995.9073, 6304.478
996.3894, 6302.494
996.8715, 6299.486
997.3536, 6299.031
997.8358, 6305.147
998.3179, 6309.026
998.8000, 6308.706
999.2821, 6308.728
999.7642, 6314.796
1000.246, 6325.387
1000.728, 6332.210
1001.211, 6334.894
1001.693, 6335.450
1002.175, 6332.742
1002.657, 6330.463
1003.139, 6331.357
1003.621, 6335.069
1004.103, 6338.322
1004.585, 6340.920
1005.068, 6343.863
1005.550, 6347.818
1006.032, 6351.591
1006.514, 6352.969
1006.996, 6352.882
1007.478, 6353.182
1007.960, 6354.514
1008.442, 6356.068
1008.924, 6357.736
1009.407, 6359.495
1009.889, 6361.590
1010.371, 6364.067
1010.853, 6364.792
1011.335, 6363.747
1011.817, 6362.775
1012.299, 6363.784
1012.781, 6364.861
1013.263, 6363.268
1013.746, 6360.146
1014.228, 6359.694
1014.710, 6364.519
1015.192, 6368.193
1015.674, 6369.416
1016.156, 6369.736
1016.638, 6371.848
1017.120, 6375.031
1017.603, 6376.650
1018.085, 6376.000
1018.567, 6376.065
1019.049, 6379.706
1019.531, 6383.669
1020.013, 6385.953
1020.495, 6386.530
1020.977, 6385.190
1021.459, 6381.703
1021.942, 6377.991
1022.424, 6374.057
1022.906, 6371.474
1023.388, 6373.976
1023.870, 6379.167
1024.352, 6382.320
1024.834, 6379.506
1025.316, 6378.418
1025.799, 6380.766
1026.281, 6383.787
1026.763, 6384.213
1027.245, 6382.635
1027.727, 6382.640
1028.209, 6384.424
1028.691, 6387.343
1029.173, 6391.884
1029.656, 6396.523
1030.138, 6400.330
1030.620, 6403.182
1031.102, 6405.095
1031.584, 6405.821
1032.066, 6405.925
1032.548, 6404.989
1033.030, 6404.638
1033.512, 6407.458
1033.995, 6412.467
1034.477, 6418.448
1034.959, 6425.907
1035.441, 6431.101
1035.923, 6431.792
1036.405, 6431.513
1036.887, 6432.577
1037.369, 6434.568
1037.851, 6433.658
1038.334, 6429.981
1038.816, 6424.096
1039.298, 6413.320
1039.780, 6403.625
1040.262, 6398.844
1040.744, 6398.104
1041.226, 6399.798
1041.708, 6405.657
1042.191, 6407.995
1042.673, 6405.440
1043.155, 6402.720
1043.637, 6405.169
1044.119, 6410.596
1044.601, 6415.325
1045.083, 6419.107
1045.565, 6423.126
1046.047, 6429.906
1046.530, 6434.159
1047.012, 6433.067
1047.494, 6428.991
1047.976, 6428.452
1048.458, 6431.153
1048.940, 6435.047
1049.422, 6440.188
1049.904, 6444.377
1050.386, 6446.469
1050.869, 6446.466
1051.351, 6442.760
1051.833, 6433.299
1052.315, 6434.532
1052.797, 6448.974
1053.279, 6462.518
1053.761, 6465.991
1054.243, 6464.041
1054.726, 6463.864
1055.208, 6464.939
1055.690, 6465.959
1056.172, 6466.398
1056.654, 6466.584
1057.136, 6464.953
1057.618, 6465.124
1058.100, 6474.691
1058.583, 6491.057
1059.065, 6495.311
1059.547, 6486.288
1060.029, 6476.004
1060.511, 6471.252
1060.993, 6469.555
1061.475, 6470.506
1061.957, 6473.454
1062.439, 6476.146
1062.922, 6478.689
1063.404, 6480.431
1063.886, 6481.186
1064.368, 6481.042
1064.850, 6478.871
1065.332, 6476.420
1065.814, 6476.412
1066.296, 6480.130
1066.778, 6482.898
1067.261, 6485.619
1067.743, 6484.692
1068.225, 6475.413
1068.707, 6462.432
1069.189, 6461.960
1069.671, 6471.779
1070.153, 6484.271
1070.635, 6501.287
1071.118, 6513.206
1071.600, 6512.241
1072.082, 6506.498
1072.564, 6503.592
1073.046, 6503.692
1073.528, 6504.318
1074.010, 6505.319
1074.492, 6508.115
1074.974, 6515.544
1075.457, 6523.688
1075.939, 6528.760
1076.421, 6531.368
1076.903, 6534.890
1077.385, 6540.243
1077.867, 6544.299
1078.349, 6546.264
1078.831, 6547.439
1079.313, 6549.531
1079.796, 6552.070
1080.278, 6554.600
1080.760, 6557.154
1081.242, 6557.921
1081.724, 6552.456
1082.206, 6549.821
1082.688, 6554.565
1083.170, 6563.703
1083.652, 6567.836
1084.135, 6567.610
1084.617, 6565.793
1085.099, 6562.558
1085.581, 6560.059
1086.063, 6561.606
1086.545, 6563.201
1087.027, 6560.498
1087.509, 6552.745
1087.992, 6549.810
1088.474, 6551.944
1088.956, 6556.155
1089.438, 6561.541
1089.920, 6567.280
1090.402, 6573.483
1090.884, 6579.159
1091.366, 6581.958
1091.849, 6577.663
1092.331, 6578.100
1092.813, 6584.751
1093.295, 6593.045
1093.777, 6598.886
1094.259, 6602.773
1094.741, 6605.966
1095.223, 6608.455
1095.705, 6609.766
1096.188, 6609.501
1096.670, 6608.356
1097.152, 6606.541
1097.634, 6604.283
1098.116, 6601.128
1098.598, 6597.719
1099.080, 6597.513
1099.562, 6601.376
1100.044, 6605.920
1100.527, 6611.062
1101.009, 6614.217
1101.491, 6612.166
1101.973, 6606.297
1102.455, 6605.491
1102.937, 6609.870
1103.419, 6613.247
1103.901, 6612.626
1104.384, 6612.224
1104.866, 6616.462
1105.348, 6623.294
1105.830, 6630.976
1106.312, 6640.221
1106.794, 6644.913
1107.276, 6643.914
1107.758, 6642.120
1108.240, 6642.208
1108.723, 6643.361
1109.205, 6644.052
1109.687, 6644.713
1110.169, 6646.320
1110.651, 6650.771
1111.133, 6654.106
1111.615, 6656.492
1112.097, 6657.269
1112.579, 6654.618
1113.062, 6649.975
1113.544, 6648.901
1114.026, 6651.127
1114.508, 6653.642
1114.990, 6655.638
1115.472, 6656.783
1115.954, 6656.606
1116.436, 6655.776
1116.919, 6654.533
1117.401, 6653.034
1117.883, 6655.149
1118.365, 6661.375
1118.847, 6667.827
1119.329, 6673.109
1119.811, 6676.136
1120.293, 6674.365
1120.776, 6669.440
1121.258, 6667.949
1121.740, 6670.111
1122.222, 6674.083
1122.704, 6680.447
1123.186, 6684.444
1123.668, 6677.655
1124.150, 6668.041
1124.632, 6665.453
1125.115, 6672.328
1125.597, 6672.746
1126.079, 6663.189
1126.561, 6659.365
1127.043, 6670.631
1127.525, 6685.880
1128.007, 6684.437
1128.489, 6674.679
1128.971, 6671.647
1129.454, 6683.167
1129.936, 6689.192
1130.418, 6685.305
1130.900, 6680.741
1131.382, 6681.310
1131.864, 6685.089
1132.346, 6686.409
1132.828, 6686.016
1133.311, 6686.344
1133.793, 6686.903
1134.275, 6690.635
1134.757, 6701.724
1135.239, 6712.027
1135.721, 6713.232
1136.203, 6706.643
1136.685, 6702.391
1137.167, 6700.673
1137.650, 6701.566
1138.132, 6708.772
1138.614, 6714.472
1139.096, 6713.940
1139.578, 6710.375
1140.060, 6707.218
1140.542, 6704.422
1141.024, 6706.068
1141.506, 6712.589
1141.989, 6717.941
1142.471, 6716.239
1142.953, 6713.070
1143.435, 6712.509
1143.917, 6713.788
1144.399, 6713.396
1144.881, 6710.857
1145.363, 6710.482
1145.846, 6713.087
1146.328, 6717.676
1146.810, 6726.314
1147.292, 6734.193
1147.774, 6735.538
1148.256, 6730.118
1148.738, 6727.303
1149.220, 6727.331
1149.703, 6729.982
1150.185, 6736.095
1150.667, 6742.146
1151.149, 6742.384
1151.631, 6740.209
1152.113, 6740.147
1152.595, 6743.031
1153.077, 6747.515
1153.559, 6754.458
1154.042, 6759.963
1154.524, 6761.985
1155.006, 6762.279
1155.488, 6764.714
1155.970, 6767.694
1156.452, 6767.670
1156.934, 6762.069
1157.416, 6758.761
1157.898, 6759.357
1158.381, 6760.849
1158.863, 6761.658
1159.345, 6762.177
1159.827, 6764.614
1160.309, 6767.713
1160.791, 6767.680
1161.273, 6760.145
1161.755, 6755.261
1162.238, 6756.763
1162.720, 6759.445
1163.202, 6759.411
1163.684, 6757.356
1164.166, 6755.414
1164.648, 6754.266
1165.130, 6756.952
1165.612, 6770.926
1166.094, 6781.034
1166.577, 6779.104
1167.059, 6774.314
1167.541, 6776.182
1168.023, 6783.572
1168.505, 6786.353
1168.987, 6784.717
1169.469, 6783.979
1169.951, 6787.233
1170.433, 6791.936
1170.916, 6799.381
1171.398, 6806.095
1171.880, 6806.934
1172.362, 6802.269
1172.844, 6797.255
1173.326, 6792.473
1173.808, 6790.573
1174.290, 6797.267
1174.773, 6803.663
1175.255, 6803.108
1175.737, 6799.323
1176.219, 6800.274
1176.701, 6806.061
1177.183, 6805.591
1177.665, 6797.021
1178.147, 6790.159
1178.630, 6795.106
1179.112, 6802.337
1179.594, 6804.443
1180.076, 6808.961
1180.558, 6812.894
1181.040, 6813.479
1181.522, 6817.531
1182.004, 6816.522
1182.486, 6814.063
1182.969, 6811.896
1183.451, 6810.708
1183.933, 6810.782
1184.415, 6812.226
1184.897, 6817.295
1185.379, 6826.772
1185.861, 6830.106
1186.343, 6823.144
1186.825, 6815.399
1187.308, 6817.188
1187.790, 6822.100
1188.272, 6824.413
1188.754, 6823.848
1189.236, 6821.210
1189.718, 6816.083
1190.200, 6814.377
1190.682, 6818.658
1191.165, 6825.408
1191.647, 6833.597
1192.129, 6840.516
1192.611, 6842.012
1193.093, 6837.223
1193.575, 6836.616
1194.057, 6840.641
1194.539, 6844.889
1195.021, 6847.200
1195.504, 6849.663
1195.986, 6855.353
1196.468, 6862.137
1196.950, 6867.208
1197.432, 6870.064
1197.914, 6872.333
1198.396, 6873.894
1198.878, 6875.397
1199.360, 6877.341
1199.843, 6879.097
1200.325, 6880.174
1200.807, 6880.549
1201.289, 6880.038
1201.771, 6878.517
1202.253, 6877.032
1202.735, 6875.455
1203.217, 6875.495
1203.700, 6879.013
1204.182, 6883.681
1204.664, 6886.994
1205.146, 6889.612
1205.628, 6892.750
1206.110, 6897.204
1206.592, 6899.402
1207.074, 6898.860
1207.557, 6898.681
1208.039, 6901.421
1208.521, 6901.791
1209.003, 6905.799
1209.485, 6905.769
1209.967, 6907.413
1210.449, 6910.878
1210.931, 6916.513
1211.413, 6924.899
1211.896, 6931.969
1212.378, 6934.633
1212.860, 6934.924
1213.342, 6934.487
1213.824, 6933.440
1214.306, 6931.780
1214.788, 6928.883
1215.270, 6928.108
##END=



