##NAMES=Nadorite
##RRUFFID=R050523
##IDEAL CHEMISTRY=Pb^2+^Sb^3+^O_2_Cl
##LOCALITY=Constantine, Algeria
##OWNER=RRUFF
##SOURCE=University of Arizona Mineral Museum
##DESCRIPTION=Brown adamantine fragments
##STATUS=The identification of this mineral has been confirmed by X-ray diffraction and chemical analysis
##URL=rruff.info/R050523
##MEASURED CHEMISTRY=Pb_1.00_Sb^3+^_1.00_O_2_Cl_1.00_
92.37695, 850.6494
92.85907, 830.8287
93.34119, 833.7336
93.82330, 852.0238
94.30542, 872.6340
94.78754, 893.5664
95.26965, 915.7874
95.75177, 935.9195
96.23389, 954.0358
96.71600, 969.5406
97.19812, 982.0285
97.68024, 991.1508
98.16235, 999.7951
98.64447, 1011.613
99.12659, 1027.114
99.60870, 1042.088
100.0908, 1058.977
100.5729, 1077.446
101.0551, 1096.599
101.5372, 1115.900
102.0193, 1135.493
102.5014, 1156.265
102.9835, 1176.267
103.4656, 1199.934
103.9478, 1228.727
104.4299, 1261.767
104.9120, 1297.210
105.3941, 1333.576
105.8762, 1371.189
106.3583, 1410.019
106.8405, 1448.945
107.3226, 1489.265
107.8047, 1531.478
108.2868, 1575.612
108.7689, 1621.994
109.2510, 1670.583
109.7332, 1721.390
110.2153, 1775.881
110.6974, 1834.017
111.1795, 1895.879
111.6616, 1961.927
112.1437, 2031.380
112.6259, 2106.151
113.1080, 2189.201
113.5901, 2279.335
114.0722, 2371.295
114.5543, 2465.324
115.0364, 2561.157
115.5185, 2644.732
116.0007, 2712.453
116.4828, 2765.857
116.9649, 2804.298
117.4470, 2827.608
117.9291, 2841.321
118.4112, 2850.398
118.8934, 2849.157
119.3755, 2857.717
119.8576, 2876.947
120.3397, 2905.587
120.8218, 2943.952
121.3039, 2992.059
121.7861, 3047.920
122.2682, 3106.394
122.7503, 3175.101
123.2324, 3237.631
123.7145, 3292.123
124.1966, 3339.879
124.6788, 3382.581
125.1609, 3421.681
125.6430, 3456.810
126.1251, 3484.753
126.6072, 3499.786
127.0893, 3515.224
127.5715, 3537.987
128.0536, 3566.862
128.5357, 3594.764
129.0178, 3616.875
129.4999, 3633.292
129.9821, 3648.358
130.4642, 3661.450
130.9463, 3673.806
131.4284, 3686.213
131.9105, 3698.370
132.3926, 3712.188
132.8748, 3729.425
133.3569, 3749.355
133.8390, 3771.004
134.3211, 3794.399
134.8032, 3819.238
135.2853, 3844.875
135.7674, 3871.512
136.2496, 3898.807
136.7317, 3926.709
137.2138, 3955.052
137.6959, 3983.262
138.1780, 4012.023
138.6601, 4041.864
139.1423, 4066.706
139.6244, 4091.030
140.1065, 4106.339
140.5886, 4108.649
141.0707, 4098.053
141.5528, 4077.305
142.0350, 4049.558
142.5171, 4014.972
142.9992, 3970.745
143.4813, 3918.354
143.9634, 3857.824
144.4455, 3787.497
144.9277, 3707.630
145.4098, 3620.444
145.8919, 3529.151
146.3740, 3431.162
146.8561, 3333.344
147.3382, 3234.178
147.8204, 3135.526
148.3025, 3039.435
148.7846, 2946.487
149.2667, 2856.454
149.7488, 2768.055
150.2309, 2680.051
150.7131, 2594.851
151.1952, 2514.198
151.6773, 2437.183
152.1594, 2361.833
152.6415, 2285.668
153.1236, 2212.765
153.6058, 2147.443
154.0879, 2090.895
154.5700, 2039.115
155.0521, 1989.364
155.5342, 1941.755
156.0163, 1897.345
156.4985, 1858.788
156.9806, 1823.140
157.4627, 1788.375
157.9448, 1754.012
158.4269, 1720.537
158.9090, 1689.139
159.3912, 1661.726
159.8733, 1631.613
160.3554, 1596.149
160.8375, 1558.184
161.3196, 1519.550
161.8017, 1481.091
162.2839, 1442.966
162.7660, 1406.097
163.2481, 1371.699
163.7302, 1336.840
164.2123, 1300.276
164.6944, 1263.206
165.1766, 1227.150
165.6587, 1192.706
166.1408, 1160.042
166.6229, 1129.461
167.1050, 1101.643
167.5871, 1075.105
168.0693, 1049.262
168.5514, 1024.429
169.0335, 1001.141
169.5156, 979.8328
169.9977, 960.3682
170.4798, 942.5120
170.9620, 926.6324
171.4441, 911.6201
171.9262, 897.1536
172.4083, 883.2011
172.8904, 869.5682
173.3725, 856.0799
173.8547, 842.9413
174.3368, 830.6216
174.8189, 819.1574
175.3010, 808.3955
175.7831, 798.3757
176.2652, 789.0851
176.7474, 780.1357
177.2295, 771.3303
177.7116, 762.6536
178.1937, 754.3428
178.6758, 746.1988
179.1579, 738.5128
179.6401, 731.6627
180.1222, 725.7477
180.6043, 720.4998
181.0864, 716.1138
181.5685, 712.2108
182.0506, 708.2101
182.5328, 703.4854
183.0149, 698.5115
183.4970, 694.7039
183.9791, 692.1370
184.4612, 690.8669
184.9433, 691.3978
185.4255, 692.9711
185.9076, 694.2384
186.3897, 694.0781
186.8718, 692.7120
187.3539, 692.5322
187.8360, 693.4266
188.3182, 695.8799
188.8003, 699.2839
189.2824, 704.2833
189.7645, 711.9668
190.2466, 723.0025
190.7287, 737.4089
191.2109, 756.1047
191.6930, 774.8049
192.1751, 801.8787
192.6572, 838.6158
193.1393, 885.9097
193.6214, 945.4645
194.1036, 1018.766
194.5857, 1106.996
195.0678, 1203.615
195.5499, 1318.380
196.0320, 1430.902
196.5141, 1537.774
196.9963, 1635.302
197.4784, 1715.507
197.9605, 1768.936
198.4426, 1791.272
198.9247, 1810.855
199.4068, 1820.447
199.8890, 1832.912
200.3711, 1855.781
200.8532, 1889.950
201.3353, 1933.122
201.8174, 1983.602
202.2995, 2042.464
202.7817, 2109.808
203.2638, 2186.784
203.7459, 2271.737
204.2280, 2363.569
204.7101, 2462.605
205.1922, 2567.258
205.6744, 2676.427
206.1565, 2790.802
206.6386, 2913.472
207.1207, 3040.355
207.6028, 3177.771
208.0849, 3330.951
208.5671, 3498.330
209.0492, 3691.880
209.5313, 3914.534
210.0134, 4168.331
210.4955, 4471.328
210.9776, 4820.189
211.4598, 5224.823
211.9419, 5713.685
212.4240, 6297.881
212.9061, 6944.614
213.3882, 7718.954
213.8703, 8533.887
214.3525, 9231.696
214.8346, 9808.979
215.3167, 10205.66
215.7988, 10170.88
216.2809, 9557.047
216.7630, 8691.775
217.2451, 7615.365
217.7273, 6438.483
218.2094, 5339.109
218.6915, 4414.671
219.1736, 3656.630
219.6557, 3030.579
220.1378, 2588.879
220.6200, 2238.197
221.1021, 1966.188
221.5842, 1756.410
222.0663, 1586.999
222.5484, 1447.563
223.0305, 1336.600
223.5127, 1239.662
223.9948, 1163.385
224.4769, 1097.017
224.9590, 1040.564
225.4411, 992.0202
225.9232, 948.8945
226.4054, 909.3401
226.8875, 873.5798
227.3696, 841.6454
227.8517, 815.4817
228.3338, 791.5266
228.8159, 769.5365
229.2981, 749.2725
229.7802, 730.6574
230.2623, 713.5203
230.7444, 697.8851
231.2265, 684.5557
231.7086, 674.8098
232.1908, 665.7485
232.6729, 656.2953
233.1550, 646.9929
233.6371, 639.0103
234.1192, 633.1393
234.6013, 629.1219
235.0835, 625.1348
235.5656, 620.6952
236.0477, 616.7559
236.5298, 613.4573
237.0119, 610.8715
237.4940, 609.2883
237.9762, 609.0890
238.4583, 609.8015
238.9404, 609.1679
239.4225, 606.2674
239.9046, 603.3396
240.3867, 601.1532
240.8689, 599.5190
241.3510, 598.0029
241.8331, 596.4141
242.3152, 594.7776
242.7973, 593.2384
243.2794, 592.4125
243.7616, 590.7591
244.2437, 587.2115
244.7258, 582.2477
245.2079, 577.3469
245.6900, 573.2452
246.1721, 569.3906
246.6543, 564.6272
247.1364, 558.7877
247.6185, 552.6920
248.1006, 546.7667
248.5827, 540.9420
249.0648, 534.8087
249.5470, 527.9761
250.0291, 521.0329
250.5112, 514.8030
250.9933, 509.2852
251.4754, 504.1901
251.9576, 499.5936
252.4397, 495.3499
252.9218, 490.6769
253.4039, 485.3438
253.8860, 479.5373
254.3681, 473.3288
254.8503, 466.7031
255.3324, 460.5104
255.8145, 455.3971
256.2966, 451.2216
256.7787, 447.3383
257.2608, 443.9434
257.7430, 440.4135
258.2251, 436.3808
258.7072, 431.8564
259.1893, 426.8853
259.6714, 420.8495
260.1535, 414.1483
260.6357, 409.1273
261.1178, 407.1668
261.5999, 405.4317
262.0820, 402.0607
262.5641, 397.4063
263.0462, 392.5790
263.5284, 387.9671
264.0105, 383.6771
264.4926, 380.3613
264.9747, 378.8404
265.4568, 377.1624
265.9389, 374.0383
266.4211, 370.0797
266.9032, 366.5743
267.3853, 364.4532
267.8674, 363.3807
268.3495, 361.8560
268.8316, 359.5764
269.3138, 357.2713
269.7959, 355.2403
270.2780, 353.3587
270.7601, 351.4621
271.2422, 349.5041
271.7243, 347.4308
272.2065, 345.0725
272.6886, 342.3316
273.1707, 339.4669
273.6528, 336.3797
274.1349, 333.2850
274.6170, 330.4251
275.0992, 327.8777
275.5813, 325.6835
276.0634, 324.0695
276.5455, 323.6133
277.0276, 322.6271
277.5097, 320.5316
277.9919, 318.0068
278.4740, 315.5996
278.9561, 313.4996
279.4382, 311.7119
279.9203, 310.3888
280.4024, 310.2538
280.8846, 308.9825
281.3667, 305.6784
281.8488, 301.7875
282.3309, 298.3436
282.8130, 295.6122
283.2951, 293.2202
283.7773, 290.6637
284.2594, 287.9814
284.7415, 285.0102
285.2236, 281.1763
285.7057, 277.5185
286.1878, 274.7876
286.6700, 272.9962
287.1521, 271.5104
287.6342, 269.6182
288.1163, 267.2638
288.5984, 264.7420
289.0805, 261.6711
289.5627, 258.7902
290.0448, 256.3757
290.5269, 254.4570
291.0090, 252.9835
291.4911, 251.9412
291.9732, 251.3594
292.4554, 250.8566
292.9375, 250.8013
293.4196, 250.4572
293.9017, 249.3003
294.3838, 247.6520
294.8659, 246.2244
295.3481, 245.5566
295.8302, 245.5761
296.3123, 245.3340
296.7944, 244.1709
297.2765, 243.4541
297.7586, 243.7223
298.2408, 244.5562
298.7229, 245.3534
299.2050, 245.7840
299.6871, 245.9095
300.1692, 245.9544
300.6513, 245.7149
301.1335, 245.6498
301.6156, 246.1350
302.0977, 246.6766
302.5798, 246.6821
303.0619, 245.9249
303.5440, 244.7304
304.0262, 243.7404
304.5083, 242.7689
304.9904, 242.3725
305.4725, 242.9459
305.9546, 243.8062
306.4367, 244.4979
306.9189, 244.8747
307.4010, 244.9471
307.8831, 244.6756
308.3652, 243.7678
308.8473, 243.2972
309.3294, 243.4677
309.8116, 243.8250
310.2937, 244.3111
310.7758, 244.7867
311.2579, 244.8676
311.7400, 244.0740
312.2221, 242.1705
312.7043, 241.0559
313.1864, 241.5001
313.6685, 241.8539
314.1506, 241.2902
314.6327, 240.0737
315.1148, 238.9890
315.5970, 238.6381
316.0791, 238.9508
316.5612, 238.9495
317.0433, 238.4005
317.5254, 237.7981
318.0075, 237.1552
318.4897, 236.5422
318.9718, 236.0929
319.4539, 235.8859
319.9360, 235.7965
320.4181, 235.4130
320.9002, 234.3254
321.3824, 233.4518
321.8645, 233.0199
322.3466, 232.7327
322.8287, 232.2953
323.3108, 231.6136
323.7929, 230.7870
324.2751, 229.9833
324.7572, 229.1624
325.2393, 228.4483
325.7214, 227.8956
326.2035, 227.3884
326.6856, 226.7959
327.1678, 226.1328
327.6499, 225.5611
328.1320, 225.2785
328.6141, 225.3687
329.0962, 225.3352
329.5783, 225.1912
330.0605, 224.9316
330.5426, 224.4240
331.0247, 223.7829
331.5068, 223.2891
331.9889, 223.1727
332.4710, 223.4054
332.9532, 223.5293
333.4353, 223.5808
333.9174, 223.4726
334.3995, 223.2012
334.8816, 222.7550
335.3637, 221.9950
335.8459, 220.8358
336.3280, 219.5710
336.8101, 219.1521
337.2922, 220.4793
337.7743, 221.3329
338.2564, 221.3689
338.7386, 221.0035
339.2206, 220.4984
339.7028, 219.9641
340.1849, 219.5239
340.6670, 219.4480
341.1491, 220.1173
341.6312, 220.1773
342.1133, 219.0495
342.5955, 217.8761
343.0776, 217.2797
343.5597, 217.2671
344.0418, 217.5211
344.5239, 217.8762
345.0060, 218.3865
345.4882, 218.0442
345.9703, 215.3156
346.4524, 213.2085
346.9345, 212.9182
347.4166, 213.8022
347.8987, 214.6428
348.3809, 214.6898
348.8630, 214.1463
349.3451, 213.8538
349.8272, 214.0679
350.3093, 214.1314
350.7914, 213.9363
351.2736, 213.5417
351.7557, 212.8960
352.2378, 211.9872
352.7199, 211.1254
353.2020, 210.9725
353.6841, 211.9481
354.1663, 212.3369
354.6484, 211.3450
355.1305, 210.1931
355.6126, 209.6397
356.0947, 209.7059
356.5768, 209.8577
357.0590, 209.4454
357.5411, 208.4277
358.0232, 208.0110
358.5053, 208.9135
358.9874, 209.6369
359.4695, 209.3652
359.9517, 208.4613
360.4338, 207.7048
360.9159, 207.5786
361.3980, 207.9002
361.8801, 208.0818
362.3622, 207.9823
362.8444, 208.0597
363.3265, 208.9220
363.8086, 209.8355
364.2907, 209.8853
364.7728, 208.6898
365.2549, 207.1827
365.7371, 206.6008
366.2192, 207.0351
366.7013, 207.5354
367.1834, 207.9235
367.6655, 208.2789
368.1476, 208.6283
368.6298, 208.9832
369.1119, 209.4124
369.5940, 210.1783
370.0761, 211.1247
370.5582, 211.3731
371.0403, 210.4380
371.5225, 209.5572
372.0046, 209.4959
372.4867, 210.1061
372.9688, 211.1291
373.4509, 212.6712
373.9330, 214.4438
374.4152, 216.1325
374.8973, 217.7694
375.3794, 218.9654
375.8615, 219.1196
376.3436, 218.8821
376.8257, 219.2745
377.3079, 220.5713
377.7900, 222.0421
378.2721, 223.0858
378.7542, 223.8308
379.2363, 224.8443
379.7184, 226.3172
380.2006, 228.0737
380.6827, 230.0425
381.1648, 232.2242
381.6469, 234.0608
382.1290, 234.8865
382.6111, 235.4694
383.0933, 236.9798
383.5754, 239.5891
384.0575, 242.4785
384.5396, 245.1032
385.0217, 247.4577
385.5038, 249.7532
385.9860, 251.9688
386.4681, 254.1390
386.9502, 256.2481
387.4323, 258.3150
387.9144, 260.3518
388.3965, 262.2451
388.8787, 264.2844
389.3608, 267.3515
389.8429, 271.8750
390.3250, 276.3324
390.8071, 280.2802
391.2892, 284.0575
391.7714, 288.1541
392.2535, 292.6566
392.7356, 297.1546
393.2177, 301.0956
393.6998, 304.3026
394.1819, 307.8404
394.6641, 311.7009
395.1462, 315.8805
395.6283, 320.6504
396.1104, 325.7657
396.5925, 330.4233
397.0746, 334.0453
397.5568, 336.9008
398.0389, 340.6612
398.5210, 346.3576
399.0031, 351.7034
399.4852, 356.1121
399.9673, 360.2107
400.4495, 364.7754
400.9316, 370.0202
401.4137, 375.5452
401.8958, 380.7518
402.3779, 385.5653
402.8600, 390.2322
403.3422, 394.8467
403.8243, 399.2813
404.3064, 403.4764
404.7885, 407.4347
405.2706, 411.2193
405.7527, 414.8954
406.2349, 418.4283
406.7170, 421.3724
407.1991, 423.6563
407.6812, 425.3469
408.1633, 426.4408
408.6454, 427.0312
409.1276, 427.3471
409.6097, 427.4831
410.0918, 426.9675
410.5739, 424.9987
411.0560, 421.4142
411.5381, 417.2982
412.0203, 412.8855
412.5024, 407.8690
412.9845, 401.9210
413.4666, 395.1662
413.9487, 388.1312
414.4308, 381.2267
414.9130, 374.3619
415.3951, 367.1405
415.8772, 359.4182
416.3593, 351.6931
416.8414, 344.2278
417.3235, 336.9227
417.8057, 329.6199
418.2878, 322.1654
418.7699, 314.9243
419.2520, 308.1719
419.7341, 301.9014
420.2162, 296.0748
420.6984, 290.8202
421.1805, 285.8778
421.6626, 280.9288
422.1447, 275.9267
422.6268, 271.1349
423.1089, 266.5750
423.5911, 262.3117
424.0732, 258.4870
424.5553, 255.1345
425.0374, 251.8988
425.5195, 248.4933
426.0016, 244.9903
426.4838, 241.8079
426.9659, 239.2448
427.4480, 236.6794
427.9301, 233.5874
428.4122, 230.3129
428.8943, 227.6729
429.3765, 226.0013
429.8586, 224.8477
430.3407, 223.4532
430.8228, 221.7694
431.3049, 219.8964
431.7870, 217.4816
432.2692, 215.1531
432.7513, 213.4814
433.2334, 212.4040
433.7155, 211.3639
434.1976, 209.8921
434.6797, 208.0419
435.1619, 206.5650
435.6440, 206.0538
436.1261, 205.2291
436.6082, 203.6088
437.0903, 201.6805
437.5724, 199.9418
438.0546, 198.5857
438.5367, 197.5808
439.0188, 196.9900
439.5009, 197.0805
439.9830, 196.7139
440.4651, 195.2775
440.9473, 193.8945
441.4294, 193.2195
441.9115, 193.0572
442.3936, 192.7511
442.8757, 191.7886
443.3578, 190.4124
443.8400, 189.5707
444.3221, 189.6158
444.8042, 189.3023
445.2863, 187.8090
445.7684, 185.9514
446.2505, 184.4231
446.7327, 183.3610
447.2148, 182.6296
447.6969, 182.2878
448.1790, 182.2431
448.6611, 181.9468
449.1432, 181.2356
449.6254, 180.4200
450.1075, 179.6633
450.5896, 178.9981
451.0717, 178.5759
451.5538, 178.7797
452.0359, 178.9991
452.5181, 178.4841
453.0002, 177.3516
453.4823, 176.4599
453.9644, 176.2642
454.4465, 176.4605
454.9286, 176.3573
455.4108, 175.8798
455.8929, 175.4075
456.3750, 175.0798
456.8571, 174.7713
457.3392, 174.2769
457.8214, 173.5961
458.3035, 172.9908
458.7856, 172.6997
459.2677, 172.7260
459.7498, 172.7665
460.2319, 172.7217
460.7141, 172.8013
461.1962, 173.4477
461.6783, 174.1337
462.1604, 173.9530
462.6425, 172.5919
463.1246, 170.8080
463.6068, 169.9412
464.0889, 170.4507
464.5710, 170.6806
465.0531, 170.3455
465.5352, 170.0143
466.0173, 170.0636
466.4995, 170.3527
466.9816, 170.4451
467.4637, 169.9915
467.9458, 169.2158
468.4279, 168.8817
468.9100, 169.2054
469.3922, 169.4074
469.8743, 169.0997
470.3564, 168.6736
470.8385, 168.4809
471.3206, 168.5688
471.8027, 168.6202
472.2849, 168.2751
472.7670, 167.6727
473.2491, 167.3899
473.7312, 167.5655
474.2133, 167.8052
474.6954, 167.8172
475.1776, 167.6811
475.6597, 167.5873
476.1418, 167.7380
476.6239, 167.7259
477.1060, 166.8680
477.5881, 165.5807
478.0703, 165.2916
478.5524, 166.6613
479.0345, 168.4920
479.5166, 168.9884
479.9987, 167.8005
480.4808, 166.8695
480.9630, 166.4801
481.4451, 166.2244
481.9272, 165.8612
482.4093, 165.3895
482.8914, 164.8139
483.3735, 164.0858
483.8557, 163.3998
484.3378, 163.4740
484.8199, 165.2944
485.3020, 166.4715
485.7841, 166.5754
486.2662, 166.2745
486.7484, 165.9948
487.2305, 165.8371
487.7126, 165.7637
488.1947, 165.7156
488.6768, 165.7060
489.1589, 165.9662
489.6411, 166.7294
490.1232, 167.3949
490.6053, 167.6803
491.0874, 167.8255
491.5695, 168.1384
492.0516, 168.7188
492.5338, 169.2873
493.0159, 169.5762
493.4980, 169.5979
493.9801, 169.3533
494.4622, 168.5746
494.9443, 168.0420
495.4265, 168.7182
495.9086, 170.1854
496.3907, 171.2807
496.8728, 171.5451
497.3549, 171.4970
497.8370, 171.3520
498.3192, 171.2105
498.8013, 171.5383
499.2834, 172.6089
499.7655, 173.9486
500.2476, 174.7481
500.7297, 174.7714
501.2119, 175.1070
501.6940, 175.9716
502.1761, 177.0435
502.6582, 178.1233
503.1403, 179.2077
503.6224, 180.4031
504.1045, 181.7937
504.5866, 183.2914
505.0688, 184.5706
505.5509, 185.3510
506.0330, 186.3666
506.5151, 187.8786
506.9972, 189.4614
507.4793, 190.9819
507.9615, 192.3132
508.4436, 193.1122
508.9257, 192.7701
509.4078, 191.6360
509.8899, 191.9468
510.3720, 194.2266
510.8542, 196.8222
511.3363, 199.3010
511.8184, 201.6889
512.3005, 204.0127
512.7827, 206.2840
513.2648, 208.4529
513.7469, 210.4256
514.2290, 212.2713
514.7111, 214.1830
515.1932, 216.1624
515.6754, 218.3311
516.1575, 220.7788
516.6396, 223.5159
517.1217, 226.4684
517.6038, 229.8318
518.0859, 233.1715
518.5681, 236.1665
519.0502, 239.0403
519.5323, 242.0738
520.0144, 245.3675
520.4965, 249.1086
520.9786, 253.5969
521.4608, 259.0002
521.9429, 264.1768
522.4250, 268.7456
522.9071, 273.6002
523.3892, 279.0536
523.8713, 284.9858
524.3535, 291.1101
524.8356, 297.2738
525.3177, 303.8306
525.7998, 311.3532
526.2819, 320.0038
526.7640, 328.7343
527.2462, 337.1633
527.7283, 345.9761
528.2104, 355.5030
528.6925, 365.6397
529.1746, 376.1378
529.6567, 386.7831
530.1389, 397.9014
530.6210, 409.9012
531.1031, 422.7593
531.5852, 436.0520
532.0673, 449.5873
532.5494, 463.5957
533.0316, 478.5903
533.5137, 494.4084
533.9958, 510.6603
534.4779, 526.9443
534.9600, 543.8563
535.4421, 562.2571
535.9243, 581.8190
536.4064, 601.8065
536.8885, 621.7609
537.3706, 641.9294
537.8527, 662.5436
538.3348, 683.7029
538.8170, 705.5861
539.2991, 728.1943
539.7812, 751.3621
540.2633, 775.0829
540.7454, 799.4083
541.2275, 824.8388
541.7097, 851.8257
542.1918, 879.6347
542.6739, 906.1966
543.1560, 931.1719
543.6381, 956.4125
544.1202, 982.9825
544.6024, 1009.205
545.0845, 1034.167
545.5666, 1057.911
546.0487, 1080.251
546.5308, 1101.468
547.0129, 1121.213
547.4951, 1139.168
547.9772, 1155.345
548.4593, 1168.594
548.9414, 1178.621
549.4235, 1185.159
549.9056, 1187.040
550.3878, 1184.226
550.8699, 1179.253
551.3520, 1173.733
551.8341, 1165.352
552.3162, 1151.451
552.7983, 1132.762
553.2805, 1112.169
553.7626, 1091.177
554.2447, 1069.665
554.7268, 1047.171
555.2089, 1023.575
555.6910, 999.1591
556.1732, 973.0103
556.6553, 946.8495
557.1374, 921.6652
557.6195, 897.2628
558.1016, 872.8503
558.5837, 847.5523
559.0659, 822.2352
559.5480, 798.9883
560.0301, 778.1047
560.5122, 758.0745
560.9943, 738.7294
561.4764, 720.0534
561.9586, 701.8059
562.4407, 684.0639
562.9228, 667.3904
563.4049, 652.8041
563.8870, 638.8203
564.3691, 623.5887
564.8513, 607.4345
565.3334, 592.3022
565.8155, 579.1282
566.2976, 567.2968
566.7797, 555.5934
567.2618, 544.0629
567.7440, 532.6493
568.2261, 520.6224
568.7082, 509.4648
569.1903, 500.4115
569.6724, 492.9092
570.1545, 485.4326
570.6367, 477.2046
571.1188, 468.6403
571.6009, 460.7396
572.0830, 453.5768
572.5651, 446.5400
573.0472, 439.6525
573.5294, 432.8027
574.0115, 425.6913
574.4936, 418.5301
574.9757, 411.9629
575.4578, 406.4557
575.9399, 401.3690
576.4221, 396.0442
576.9042, 390.5157
577.3863, 384.8495
577.8684, 379.0142
578.3505, 373.2428
578.8326, 367.8125
579.3148, 362.7413
579.7969, 357.9711
580.2790, 353.7715
580.7611, 349.6148
581.2432, 345.2114
581.7253, 340.6853
582.2075, 336.0951
582.6896, 331.5204
583.1717, 327.1706
583.6538, 323.3974
584.1359, 320.2698
584.6180, 317.2446
585.1002, 314.5649
585.5823, 311.6464
586.0643, 308.0698
586.5464, 304.2484
587.0286, 300.7593
587.5107, 297.7669
587.9928, 294.9027
588.4749, 291.8213
588.9570, 288.5690
589.4391, 285.2583
589.9213, 281.8071
590.4034, 278.6615
590.8855, 276.2329
591.3676, 274.3283
591.8497, 272.2140
592.3318, 269.9485
592.8140, 267.3594
593.2961, 264.0058
593.7782, 260.5259
594.2603, 257.7282
594.7424, 255.6540
595.2245, 253.7525
595.7067, 251.6241
596.1888, 249.2959
596.6709, 246.8991
597.1530, 244.2441
597.6351, 241.8474
598.1172, 240.3335
598.5994, 238.6448
599.0815, 235.5701
599.5636, 231.4132
600.0457, 227.9076
600.5278, 226.6137
601.0099, 226.3956
601.4921, 224.9760
601.9742, 222.3373
602.4563, 219.7222
602.9384, 217.4896
603.4205, 215.5614
603.9026, 213.9744
604.3848, 212.7399
604.8669, 211.2693
605.3490, 209.4946
605.8311, 207.4327
606.3132, 204.7039
606.7953, 201.7371
607.2775, 199.4852
607.7596, 198.3180
608.2417, 197.6523
608.7238, 196.6366
609.2059, 195.2278
609.6880, 193.6819
610.1702, 191.8245
610.6523, 190.0293
611.1344, 188.4219
611.6165, 186.9501
612.0986, 185.5487
612.5807, 184.1974
613.0629, 182.9051
613.5450, 181.7029
614.0271, 180.5750
614.5092, 179.4492
614.9913, 178.3121
615.4734, 177.2219
615.9556, 176.2497
616.4377, 175.3312
616.9198, 174.2371
617.4019, 172.9729
617.8840, 171.5461
618.3661, 169.5369
618.8483, 167.6586
619.3304, 166.7004
619.8125, 166.5446
620.2946, 166.5431
620.7767, 166.3203
621.2589, 165.7841
621.7410, 164.5252
622.2231, 162.1047
622.7052, 160.2668
623.1873, 159.6264
623.6694, 159.2930
624.1516, 158.9225
624.6337, 158.4589
625.1158, 157.8116
625.5979, 156.8850
626.0800, 155.8522
626.5621, 154.7980
627.0443, 153.7786
627.5264, 153.0584
628.0085, 152.7248
628.4906, 152.4769
628.9727, 152.0077
629.4548, 151.3179
629.9370, 150.7191
630.4191, 150.2030
630.9012, 149.7751
631.3833, 149.6024
631.8654, 149.4163
632.3475, 148.8515
632.8297, 147.9185
633.3118, 147.0257
633.7939, 146.5889
634.2760, 146.4521
634.7581, 145.9035
635.2402, 144.7769
635.7224, 143.9060
636.2045, 143.7444
636.6866, 143.7843
637.1687, 143.4381
637.6508, 142.7315
638.1329, 142.1905
638.6151, 141.5969
639.0972, 141.5602
639.5793, 143.5249
640.0614, 146.4309
640.5435, 147.2363
641.0256, 144.8537
641.5078, 141.4087
641.9899, 139.7837
642.4720, 140.2471
642.9541, 140.3206
643.4362, 139.6221
643.9183, 138.9631
644.4005, 138.5521
644.8826, 138.2562
645.3647, 137.8675
645.8468, 137.3641
646.3289, 137.0175
646.8110, 137.3472
647.2932, 137.9444
647.7753, 137.5865
648.2574, 136.2017
648.7395, 135.1060
649.2216, 134.9741
649.7037, 135.3340
650.1859, 135.3656
650.6680, 135.0084
651.1501, 134.6239
651.6322, 134.1321
652.1143, 133.7231
652.5964, 133.5858
653.0786, 133.5945
653.5607, 133.5010
654.0428, 133.2158
654.5249, 132.8725
655.0070, 132.6206
655.4891, 132.4566
655.9713, 132.5308
656.4534, 133.0789
656.9355, 133.4074
657.4176, 133.1335
657.8997, 132.4759
658.3818, 131.5547
658.8640, 130.3143
659.3461, 129.3152
659.8282, 128.8794
660.3103, 128.7682
660.7924, 128.7904
661.2745, 128.8968
661.7567, 128.9458
662.2388, 128.8507
662.7209, 128.7993
663.2030, 129.2422
663.6851, 130.6115
664.1672, 131.0588
664.6494, 129.5685
665.1315, 128.2458
665.6136, 127.8599
666.0957, 128.0416
666.5778, 128.2615
667.0599, 128.3754
667.5421, 128.4779
668.0242, 128.6236
668.5063, 128.8242
668.9884, 129.2754
669.4705, 129.9957
669.9526, 130.1322
670.4348, 129.0047
670.9169, 127.3144
671.3990, 126.5436
671.8811, 126.7299
672.3632, 127.8532
672.8453, 131.8702
673.3275, 134.8877
673.8096, 133.9395
674.2917, 130.7061
674.7738, 128.2350
675.2559, 127.7150
675.7380, 127.9999
676.2202, 127.7787
676.7023, 127.0878
677.1844, 126.1531
677.6665, 124.7384
678.1486, 123.9302
678.6307, 124.5715
679.1129, 126.0169
679.5950, 127.1066
680.0771, 127.9076
680.5592, 128.1304
681.0413, 127.2718
681.5234, 126.1836
682.0056, 125.3539
682.4877, 124.8506
682.9698, 124.7753
683.4519, 125.1645
683.9340, 125.6965
684.4161, 125.8725
684.8983, 125.6534
685.3804, 125.5206
685.8625, 125.4408
686.3446, 125.5082
686.8267, 125.8936
687.3088, 126.3807
687.7910, 126.7562
688.2731, 127.0006
688.7552, 127.0896
689.2373, 127.1667
689.7194, 126.9719
690.2015, 125.8144
690.6837, 124.0957
691.1658, 123.2068
691.6479, 123.7384
692.1300, 125.0492
692.6121, 126.3254
693.0942, 127.6731
693.5764, 128.1310
694.0585, 126.7391
694.5406, 125.7402
695.0227, 126.0959
695.5048, 126.9354
695.9869, 127.3766
696.4691, 127.2829
696.9512, 126.9697
697.4333, 126.3190
697.9154, 125.7401
698.3975, 126.0480
698.8796, 127.0199
699.3618, 127.3924
699.8439, 126.6464
700.3260, 125.6325
700.8081, 125.5231
701.2902, 126.4541
701.7723, 127.0012
702.2545, 126.7563
702.7366, 126.6152
703.2187, 126.9014
703.7008, 127.2677
704.1829, 127.3866
704.6650, 127.2207
705.1472, 126.9094
705.6293, 126.3553
706.1114, 125.8489
706.5935, 125.9991
707.0756, 126.6923
707.5577, 127.1814
708.0399, 127.2376
708.5220, 127.0801
709.0041, 126.9207
709.4862, 126.7593
709.9683, 126.6068
710.4504, 126.4771
710.9326, 126.3362
711.4147, 126.0809
711.8968, 125.8831
712.3789, 126.0066
712.8610, 126.3612
713.3431, 126.5150
713.8253, 126.1180
714.3074, 125.5304
714.7895, 125.3486
715.2716, 125.5154
715.7537, 125.6023
716.2358, 125.5113
716.7180, 125.3959
717.2001, 125.4403
717.6822, 125.5792
718.1643, 125.3556
718.6464, 124.2189
719.1285, 123.5244
719.6107, 123.7275
720.0928, 124.1378
720.5749, 124.3048
721.0570, 124.2406
721.5391, 124.1246
722.0212, 124.0371
722.5034, 123.9714
722.9855, 123.9526
723.4676, 123.9586
723.9497, 123.8234
724.4318, 123.4985
724.9139, 123.2410
725.3961, 123.2717
725.8782, 123.4394
726.3603, 123.3045
726.8424, 122.6829
727.3245, 122.1921
727.8066, 121.7464
728.2888, 121.5543
728.7709, 121.9422
729.2530, 122.6082
729.7351, 122.9837
730.2172, 122.8812
730.6993, 122.7395
731.1815, 123.2428
731.6636, 124.1039
732.1457, 124.1222
732.6278, 123.2059
733.1099, 122.2668
733.5920, 121.6232
734.0742, 121.2587
734.5563, 121.2297
735.0384, 121.6735
735.5205, 121.7224
736.0026, 120.7015
736.4847, 120.0816
736.9669, 120.8769
737.4490, 122.0811
737.9311, 122.4802
738.4132, 121.9155
738.8953, 121.1463
739.3774, 120.7164
739.8596, 120.4921
740.3417, 120.0998
740.8238, 119.5711
741.3059, 119.5687
741.7880, 120.4443
742.2701, 121.2060
742.7523, 120.7307
743.2344, 119.1445
743.7165, 118.4256
744.1986, 119.5457
744.6807, 120.1213
745.1628, 119.4588
745.6450, 118.4812
746.1271, 117.7687
746.6092, 117.3779
747.0913, 117.2058
747.5734, 117.2216
748.0555, 117.3693
748.5377, 117.6217
749.0198, 117.9522
749.5019, 118.2642
749.9840, 118.5489
750.4661, 118.8126
750.9482, 119.1057
751.4304, 119.3166
751.9125, 119.1539
752.3946, 118.4273
752.8767, 117.7707
753.3588, 116.9944
753.8409, 116.4869
754.3231, 116.6977
754.8052, 117.1482
755.2873, 117.1199
755.7694, 116.4554
756.2515, 115.7435
756.7336, 115.3862
757.2158, 115.2842
757.6979, 115.3450
758.1800, 115.5304
758.6621, 115.6302
759.1442, 115.5630
759.6263, 115.4771
760.1085, 115.5637
760.5906, 115.8238
761.0727, 115.9534
761.5548, 115.9056
762.0369, 115.7918
762.5190, 115.6904
763.0012, 115.4854
763.4833, 114.9650
763.9654, 114.2437
764.4475, 113.7274
764.9296, 113.5249
765.4117, 113.6676
765.8939, 114.5365
766.3760, 115.6496
766.8581, 116.0558
767.3402, 115.6793
767.8223, 115.0417
768.3044, 114.4414
768.7866, 113.9368
769.2687, 113.6767
769.7508, 113.6604
770.2329, 113.9265
770.7150, 114.9257
771.1971, 115.5767
771.6793, 115.0952
772.1614, 114.1295
772.6435, 113.5169
773.1256, 113.3644
773.6077, 113.4054
774.0898, 113.8519
774.5720, 114.1716
775.0541, 113.6636
775.5362, 112.7555
776.0183, 112.3910
776.5004, 112.8105
776.9825, 113.4276
777.4647, 113.6766
777.9468, 113.6018
778.4289, 113.4345
778.9110, 113.1966
779.3931, 112.7002
779.8752, 111.6736
780.3574, 110.7232
780.8395, 110.4274
781.3216, 110.6958
781.8037, 111.0631
782.2858, 111.6307
782.7679, 112.1226
783.2501, 112.6583
783.7322, 112.9407
784.2143, 112.5016
784.6964, 111.6067
785.1785, 110.9547
785.6606, 110.8632
786.1428, 111.0429
786.6249, 111.1532
787.1070, 111.2277
787.5891, 111.4871
788.0712, 111.9581
788.5533, 112.1545
789.0355, 111.7807
789.5176, 111.1921
789.9997, 110.9649
790.4818, 111.1967
790.9639, 111.1708
791.4460, 110.6948
791.9282, 110.2183
792.4103, 109.6940
792.8924, 109.3176
793.3745, 109.3848
793.8566, 109.8102
794.3387, 110.0814
794.8209, 109.8663
795.3030, 109.5228
795.7851, 109.2856
796.2672, 109.2092
796.7493, 109.5312
797.2314, 110.2291
797.7136, 110.8415
798.1957, 111.0898
798.6778, 110.9762
799.1599, 110.4247
799.6420, 109.2602
800.1241, 108.3619
800.6063, 107.7049
801.0884, 107.3764
801.5705, 107.8084
802.0526, 108.3984
802.5347, 108.2899
803.0168, 107.3628
803.4990, 106.7209
803.9811, 106.8785
804.4632, 107.2034
804.9453, 107.3843
805.4274, 107.4388
805.9095, 107.3963
806.3917, 107.2791
806.8738, 107.1248
807.3559, 106.9257
807.8380, 106.7784
808.3201, 107.0562
808.8022, 107.7242
809.2844, 107.7919
809.7665, 106.9587
810.2486, 106.1303
810.7307, 105.9417
811.2128, 106.2209
811.6949, 106.4446
812.1771, 106.5118
812.6592, 106.7315
813.1413, 107.4186
813.6234, 107.9055
814.1055, 107.7767
814.5876, 107.3285
815.0698, 106.9546
815.5519, 106.7351
816.0340, 106.5305
816.5161, 106.1745
816.9982, 105.8511
817.4803, 105.8519
817.9625, 106.0557
818.4446, 106.1227
818.9267, 105.9811
819.4088, 105.8259
819.8909, 105.8422
820.3730, 105.9386
820.8552, 105.7000
821.3373, 104.9338
821.8194, 104.7243
822.3015, 105.5006
822.7836, 106.3306
823.2657, 106.8412
823.7479, 106.9546
824.2300, 106.3625
824.7121, 104.7162
825.1942, 103.7097
825.6763, 104.1647
826.1584, 104.8385
826.6406, 105.1283
827.1227, 105.1323
827.6048, 105.0014
828.0869, 104.8021
828.5690, 104.6490
829.0511, 104.7014
829.5333, 104.7747
830.0154, 104.4235
830.4975, 103.7727
830.9796, 103.4843
831.4617, 103.6943
831.9438, 104.0068
832.4260, 104.1406
832.9081, 104.1512
833.3902, 104.1811
833.8723, 104.1080
834.3544, 104.3871
834.8365, 105.4068
835.3187, 106.2806
835.8008, 106.7001
836.2829, 106.7704
836.7650, 106.5628
837.2471, 106.0809
837.7292, 105.5877
838.2114, 104.9772
838.6935, 104.5843
839.1756, 104.8409
839.6577, 105.3336
840.1398, 105.4257
840.6219, 105.0980
841.1041, 104.8206
841.5862, 104.9082
842.0683, 105.2127
842.5504, 105.5479
843.0325, 105.8876
843.5146, 106.0308
843.9968, 105.9459
844.4789, 105.7777
844.9610, 105.5922
845.4431, 105.3940
845.9252, 105.2037
846.4073, 105.0506
846.8895, 104.7465
847.3716, 103.9725
847.8537, 103.4775
848.3358, 103.6057
848.8179, 103.9302
849.3000, 104.1193
849.7822, 104.1574
850.2643, 104.1088
850.7464, 103.8106
851.2285, 103.7249
851.7106, 104.4868
852.1927, 105.3556
852.6749, 105.3199
853.1570, 104.5703
853.6391, 103.9979
854.1212, 104.0141
854.6033, 104.2429
855.0854, 104.1778
855.5676, 103.9022
856.0497, 103.8738
856.5318, 104.1080
857.0139, 104.1496
857.4960, 103.8041
857.9781, 103.3995
858.4603, 103.3091
858.9424, 103.4930
859.4245, 103.4738
859.9066, 102.9987
860.3887, 102.7553
860.8708, 103.0118
861.3530, 103.2824
861.8351, 103.2615
862.3172, 103.0946
862.7993, 103.0858
863.2814, 103.3248
863.7635, 103.4870
864.2457, 103.2048
864.7278, 103.0141
865.2099, 103.1728
865.6920, 103.7911
866.1741, 105.5996
866.6563, 108.3503
867.1384, 109.7981
867.6205, 107.7895
868.1026, 104.2878
868.5847, 103.1507
869.0668, 104.0263
869.5490, 104.7043
870.0311, 104.8844
870.5132, 104.6986
870.9953, 104.1382
871.4774, 103.4689
871.9595, 103.2680
872.4417, 103.6801
872.9238, 103.7504
873.4059, 103.0936
873.8880, 102.7083
874.3701, 103.2835
874.8522, 103.9503
875.3344, 103.9434
875.8165, 103.3424
876.2986, 102.7147
876.7807, 101.8396
877.2628, 101.4430
877.7449, 102.3103
878.2271, 103.3210
878.7092, 103.3660
879.1913, 102.7611
879.6734, 102.4098
880.1555, 102.6276
880.6376, 102.9845
881.1198, 103.2342
881.6019, 103.2762
882.0840, 102.6559
882.5661, 101.6125
883.0482, 101.3045
883.5303, 102.0066
884.0125, 102.7711
884.4946, 102.7943
884.9767, 102.2727
885.4588, 101.7803
885.9409, 101.2500
886.4230, 101.1957
886.9052, 101.9516
887.3873, 102.4935
887.8694, 102.1921
888.3515, 101.4759
888.8336, 101.0355
889.3157, 100.9090
889.7979, 100.7641
890.2800, 100.4594
890.7621, 100.3060
891.2442, 100.3949
891.7263, 100.6616
892.2084, 101.3459
892.6906, 102.1536
893.1727, 102.1765
893.6548, 100.8660
894.1369, 99.58559
894.6190, 99.27343
895.1011, 99.47262
895.5833, 99.81233
896.0654, 100.1789
896.5475, 100.4238
897.0296, 100.4958
897.5117, 100.3985
897.9938, 100.0847
898.4760, 99.66197
898.9581, 99.34460
899.4402, 99.15044
899.9223, 99.40395
900.4044, 100.2128
900.8865, 100.9494
901.3687, 101.2472
901.8508, 101.1508
902.3329, 100.6952
902.8150, 99.73366
903.2971, 99.14262
903.7792, 99.06200
904.2614, 99.11337
904.7435, 99.24381
905.2256, 99.41528
905.7077, 99.61495
906.1898, 99.83073
906.6719, 100.0009
907.1541, 100.2337
907.6362, 100.2350
908.1183, 99.71415
908.6004, 99.14541
909.0825, 98.81980
909.5646, 98.70762
910.0468, 98.73800
910.5289, 98.88409
911.0110, 99.04395
911.4931, 99.23809
911.9752, 99.33284
912.4573, 99.07939
912.9395, 98.64722
913.4216, 98.36462
913.9037, 98.28577
914.3858, 98.35825
914.8679, 98.56623
915.3500, 98.76596
915.8321, 98.67165
916.3142, 98.32777
916.7963, 98.03796
917.2784, 97.80386
917.7606, 97.86067
918.2427, 98.37613
918.7248, 98.84826
919.2069, 98.67857
919.6890, 97.98984
920.1711, 97.74150
920.6533, 98.12029
921.1354, 98.50975
921.6175, 99.03712
922.0996, 99.33486
922.5817, 98.96334
923.0638, 98.35488
923.5460, 98.23093
924.0281, 98.69812
924.5102, 98.83135
924.9923, 97.93435
925.4744, 97.40415
925.9565, 98.26624
926.4387, 99.29539
926.9208, 99.16154
927.4029, 98.17854
927.8850, 97.63652
928.3671, 98.09920
928.8492, 98.51311
929.3314, 97.90148
929.8135, 97.06418
930.2956, 96.93913
930.7777, 97.30235
931.2598, 97.62891
931.7419, 97.75755
932.2241, 97.64906
932.7062, 97.20303
933.1883, 96.67578
933.6704, 96.53645
934.1525, 96.73094
934.6346, 97.15685
935.1168, 97.77480
935.5989, 97.92404
936.0810, 97.24559
936.5631, 96.37003
937.0452, 96.22370
937.5273, 96.73563
938.0095, 96.62423
938.4916, 95.61356
938.9737, 95.15088
939.4558, 95.70985
939.9379, 96.45731
940.4200, 96.95738
940.9022, 97.15852
941.3843, 96.85561
941.8664, 95.68221
942.3485, 95.13130
942.8306, 95.78616
943.3127, 96.28853
943.7949, 96.10546
944.2770, 95.75838
944.7591, 95.72409
945.2412, 95.95318
945.7233, 96.13173
946.2054, 96.21261
946.6876, 96.18811
947.1697, 96.00445
947.6518, 95.76380
948.1339, 95.47812
948.6160, 95.21812
949.0981, 95.03642
949.5803, 94.96994
950.0624, 95.15388
950.5445, 95.89585
951.0266, 96.58533
951.5087, 96.50397
951.9908, 96.01139
952.4730, 95.65841
952.9551, 95.49467
953.4372, 95.40520
953.9193, 95.34173
954.4014, 95.34856
954.8835, 95.54990
955.3657, 95.82219
955.8478, 95.76203
956.3299, 95.41544
956.8120, 95.11002
957.2941, 94.90971
957.7762, 94.77294
958.2584, 94.68001
958.7405, 94.59872
959.2226, 94.46091
959.7047, 94.26192
960.1868, 94.09172
960.6689, 93.98472
961.1511, 93.70943
961.6332, 92.99899
962.1153, 92.54765
962.5974, 93.16264
963.0795, 94.51356
963.5616, 95.13293
964.0438, 94.60372
964.5259, 94.24412
965.0080, 94.19112
965.4901, 94.13317
965.9722, 93.85074
966.4543, 93.59167
966.9365, 93.70301
967.4186, 94.13239
967.9007, 94.33615
968.3828, 94.18438
968.8649, 93.88481
969.3470, 93.25986
969.8292, 92.72501
970.3113, 92.58054
970.7934, 92.69212
971.2755, 92.93084
971.7576, 93.23814
972.2397, 93.28419
972.7219, 92.63895
973.2040, 92.00092
973.6861, 91.74672
974.1682, 91.79149
974.6503, 92.25268
975.1324, 92.89258
975.6146, 93.08885
976.0967, 92.63514
976.5788, 92.18895
977.0609, 92.42568
977.5430, 92.92571
978.0251, 93.18055
978.5073, 93.21071
978.9894, 92.98223
979.4715, 92.55956
979.9536, 92.28320
980.4357, 92.34656
980.9178, 92.47865
981.4000, 92.19492
981.8821, 91.66478
982.3642, 91.59541
982.8463, 91.94113
983.3284, 92.27051
983.8105, 92.47779
984.2927, 92.60369
984.7748, 92.69094
985.2569, 92.67383
985.7390, 92.32063
986.2211, 91.60064
986.7032, 91.23466
987.1854, 91.29951
987.6675, 91.31248
988.1496, 91.07621
988.6317, 90.88187
989.1138, 91.01919
989.5959, 91.41487
990.0781, 91.76022
990.5602, 92.05862
991.0423, 92.31185
991.5244, 92.64066
992.0065, 92.68431
992.4886, 92.15097
992.9708, 91.42104
993.4529, 90.79452
993.9350, 90.30200
994.4171, 90.31686
994.8992, 91.35523
995.3813, 92.09558
995.8635, 92.55381
996.3456, 92.64029
996.8277, 92.08334
997.3098, 91.27516
997.7919, 90.56268
998.2740, 90.00258
998.7562, 89.90510
999.2383, 90.67252
999.7204, 91.42986
1000.203, 92.10671
1000.685, 92.54580
1001.167, 92.68713
1001.649, 92.49468
1002.131, 91.71899
1002.613, 90.38699
1003.095, 89.48965
1003.577, 89.77994
1004.059, 90.22020
1004.542, 90.22279
1005.024, 90.10962
1005.506, 90.17131
1005.988, 90.39178
1006.470, 90.73048
1006.952, 91.15257
1007.434, 91.38117
1007.916, 90.99513
1008.398, 90.56584
1008.881, 90.73363
1009.363, 91.15796
1009.845, 91.35124
1010.327, 91.31457
1010.809, 91.28566
1011.291, 91.35445
1011.773, 91.37320
1012.255, 91.08079
1012.738, 90.75269
1013.220, 90.95877
1013.702, 91.43968
1014.184, 91.55424
1014.666, 91.26168
1015.148, 90.83361
1015.630, 90.40351
1016.112, 90.08675
1016.594, 90.06987
1017.077, 90.24976
1017.559, 90.34300
1018.041, 90.37586
1018.523, 90.49784
1019.005, 90.72522
1019.487, 90.98189
1019.969, 91.24333
1020.451, 91.29148
1020.934, 90.61277
1021.416, 89.43121
1021.898, 89.15746
1022.380, 89.76384
1022.862, 90.30930
1023.344, 90.62743
1023.826, 90.48357
1024.308, 89.62329
1024.791, 88.67770
1025.273, 88.89043
1025.755, 90.21802
1026.237, 91.05997
1026.719, 91.39346
1027.201, 91.35383
1027.683, 90.87528
1028.165, 90.43590
1028.647, 90.35641
1029.130, 90.53111
1029.612, 90.80650
1030.094, 91.22962
1030.576, 91.00002
1031.058, 89.70122
1031.540, 89.28162
1032.022, 90.58422
1032.504, 91.88837
1032.986, 91.96590
1033.469, 91.25488
1033.951, 90.73614
1034.433, 90.45946
1034.915, 90.06934
1035.397, 89.48813
1035.879, 88.93587
1036.361, 88.24998
1036.843, 87.92769
1037.326, 88.60368
1037.808, 89.74419
1038.290, 90.03584
1038.772, 89.19662
1039.254, 88.79241
1039.736, 89.32079
1040.218, 89.49157
1040.700, 88.70649
1041.182, 87.86263
1041.665, 87.45867
1042.147, 87.47871
1042.629, 88.01842
1043.111, 89.35178
1043.593, 90.00410
1044.075, 89.29101
1044.557, 88.79354
1045.039, 88.85921
1045.521, 89.20931
1046.004, 89.97034
1046.486, 90.78905
1046.968, 90.82153
1047.450, 89.81131
1047.932, 89.19010
1048.414, 89.47377
1048.896, 89.66298
1049.378, 89.19369
1049.861, 88.83298
1050.343, 89.40556
1050.825, 90.40168
1051.307, 90.74532
1051.789, 90.25080
1052.271, 89.68148
1052.753, 88.89155
1053.235, 88.44200
1053.718, 88.72653
1054.200, 89.21342
1054.682, 89.56858
1055.164, 89.80989
1055.646, 90.06203
1056.128, 90.35190
1056.610, 90.42352
1057.092, 89.94962
1057.574, 89.59545
1058.057, 89.72764
1058.539, 89.93831
1059.021, 89.82459
1059.503, 89.59493
1059.985, 89.74751
1060.467, 90.35571
1060.949, 90.69160
1061.431, 90.33182
1061.913, 89.91117
1062.396, 89.57028
1062.878, 89.36356
1063.360, 89.33086
1063.842, 89.46227
1064.324, 89.82970
1064.806, 90.40923
1065.288, 90.77406
1065.770, 90.73180
1066.253, 90.48963
1066.735, 89.76503
1067.217, 89.23492
1067.699, 89.68288
1068.181, 90.55020
1068.663, 90.83781
1069.145, 90.47266
1069.627, 90.35348
1070.109, 91.12332
1070.592, 91.67798
1071.074, 91.36472
1071.556, 90.80938
1072.038, 90.23748
1072.520, 89.86606
1073.002, 90.10983
1073.484, 90.87934
1073.966, 91.36048
1074.448, 91.12550
1074.931, 90.85448
1075.413, 90.74379
1075.895, 90.84400
1076.377, 91.51718
1076.859, 92.22285
1077.341, 92.00784
1077.823, 91.05920
1078.305, 90.69774
1078.788, 91.55868
1079.270, 92.44105
1079.752, 92.89845
1080.234, 93.05384
1080.716, 92.84213
1081.198, 92.48345
1081.680, 92.29231
1082.162, 92.19415
1082.644, 91.73286
1083.127, 90.61455
1083.609, 89.92710
1084.091, 90.40675
1084.573, 91.16899
1085.055, 91.87254
1085.537, 92.42343
1086.019, 92.73574
1086.501, 92.83443
1086.984, 92.71801
1087.466, 92.34410
1087.948, 92.23875
1088.430, 92.87711
1088.912, 93.52309
1089.394, 93.95072
1089.876, 94.07469
1090.358, 93.54869
1090.840, 92.75546
1091.323, 92.48186
1091.805, 92.88877
1092.287, 93.36209
1092.769, 93.82453
1093.251, 94.10603
1093.733, 94.04473
1094.215, 93.86535
1094.697, 93.76862
1095.179, 93.66462
1095.662, 93.28623
1096.144, 92.64597
1096.626, 92.31846
1097.108, 92.76452
1097.590, 93.10601
1098.072, 92.76295
1098.554, 92.54636
1099.036, 93.37468
1099.519, 94.37781
1100.001, 94.21989
1100.483, 93.02200
1100.965, 92.23656
1101.447, 92.33299
1101.929, 92.56362
1102.411, 92.75275
1102.893, 93.01613
1103.375, 93.72559
1103.858, 94.29194
1104.340, 93.95106
1104.822, 92.93935
1105.304, 92.17262
1105.786, 91.79356
1106.268, 91.59328
1106.750, 91.58977
1107.232, 91.68669
1107.714, 92.01918
1108.197, 92.28362
1108.679, 92.16460
1109.161, 91.81834
1109.643, 91.57796
1110.125, 91.45026
1110.607, 91.54323
1111.089, 92.26152
1111.571, 92.63113
1112.054, 92.20554
1112.536, 91.66991
1113.018, 91.49903
1113.500, 91.41548
1113.982, 90.77699
1114.464, 89.56022
1114.946, 89.28395
1115.428, 91.17716
1115.911, 91.94260
1116.393, 90.45535
1116.875, 89.15459
1117.357, 89.11187
1117.839, 89.62502
1118.321, 90.03498
1118.803, 90.33765
1119.285, 90.50174
1119.767, 90.47977
1120.250, 90.44743
1120.732, 90.47758
1121.214, 90.32642
1121.696, 89.76797
1122.178, 89.27377
1122.660, 89.28099
1123.142, 89.58863
1123.624, 89.66399
1124.106, 89.46382
1124.589, 89.37753
1125.071, 89.46723
1125.553, 89.47306
1126.035, 89.38844
1126.517, 89.02673
1126.999, 88.14091
1127.481, 87.22092
1127.963, 87.09093
1128.446, 87.66977
1128.928, 88.02642
1129.410, 88.14474
1129.892, 88.12077
1130.374, 87.91482
1130.856, 88.03237
1131.338, 88.74863
1131.820, 89.45140
1132.302, 89.45390
1132.785, 88.99664
1133.267, 88.91618
1133.749, 89.16011
1134.231, 88.65742
1134.713, 87.40206
1135.195, 86.82720
1135.677, 87.32700
1136.159, 88.06545
1136.641, 88.47523
1137.124, 88.57774
1137.606, 88.31068
1138.088, 87.78642
1138.570, 87.44078
1139.052, 87.23070
1139.534, 86.89025
1140.016, 86.42780
1140.498, 86.21949
1140.981, 86.43890
1141.463, 86.87769
1141.945, 87.47861
1142.427, 87.95583
1142.909, 87.62605
1143.391, 86.87184
1143.873, 86.54443
1144.355, 86.58068
1144.838, 86.46355
1145.320, 86.08574
1145.802, 85.83780
1146.284, 86.00656
1146.766, 86.32137
1147.248, 86.66642
1147.730, 86.86884
1148.212, 86.55415
1148.694, 86.02499
1149.177, 85.84586
1149.659, 86.00107
1150.141, 86.10550
1150.623, 86.02348
1151.105, 85.74522
1151.587, 84.97313
1152.069, 84.34532
1152.551, 84.46402
1153.033, 84.80711
1153.516, 84.72534
1153.998, 84.47991
1154.480, 84.85715
1154.962, 85.93398
1155.444, 86.47381
1155.926, 85.62659
1156.408, 84.83321
1156.890, 84.36757
1157.373, 84.25905
1157.855, 84.87035
1158.337, 85.59801
1158.819, 85.71446
1159.301, 85.30235
1159.783, 84.93297
1160.265, 84.60564
1160.747, 84.45332
1161.229, 84.77917
1161.712, 84.85873
1162.194, 84.33100
1162.676, 83.74581
1163.158, 83.41862
1163.640, 83.29794
1164.122, 83.30995
1164.604, 83.45853
1165.086, 83.62004
1165.568, 83.81829
1166.051, 83.98521
1166.533, 84.19978
1167.015, 84.06624
1167.497, 83.26974
1167.979, 82.50359
1168.461, 82.54885
1168.943, 83.09092
1169.425, 83.05131
1169.908, 82.40578
1170.390, 82.14897
1170.872, 82.30974
1171.354, 82.30894
1171.836, 82.00556
1172.318, 82.00143
1172.800, 82.69699
1173.282, 83.49752
1173.765, 83.49734
1174.247, 83.00859
1174.729, 83.02143
1175.211, 83.34641
1175.693, 83.13234
1176.175, 82.50232
1176.657, 82.57188
1177.139, 83.60560
1177.621, 84.43471
1178.104, 84.18184
1178.586, 83.42277
1179.068, 82.70726
1179.550, 82.01448
1180.032, 81.03255
1180.514, 80.19546
1180.996, 80.60368
1181.478, 81.93343
1181.960, 82.54482
1182.443, 81.81558
1182.925, 81.10285
1183.407, 81.27672
1183.889, 81.62021
1184.371, 81.74239
1184.853, 81.80123
1185.335, 82.00079
1185.817, 82.20475
1186.300, 82.14339
1186.782, 81.82179
1187.264, 81.54775
1187.746, 81.38681
1188.228, 81.27022
1188.710, 81.08492
1189.192, 81.07600
1189.674, 81.45663
1190.156, 81.93050
1190.639, 82.40000
1191.121, 82.73190
1191.603, 82.58091
1192.085, 81.89715
1192.567, 81.39344
1193.049, 81.08775
1193.531, 80.94343
1194.013, 81.06358
1194.495, 80.96263
1194.978, 80.32008
1195.460, 79.77652
1195.942, 80.06924
1196.424, 80.83212
1196.906, 80.94134
1197.388, 80.43189
1197.870, 79.98785
1198.352, 79.62443
1198.835, 79.24989
1199.317, 78.87545
1199.799, 79.05357
1200.281, 80.08850
1200.763, 80.95393
1201.245, 80.18118
1201.727, 78.86884
1202.209, 79.27219
1202.692, 80.51586
1203.174, 80.72353
1203.656, 80.13657
1204.138, 79.87296
1204.620, 80.10323
1205.102, 80.11651
1205.584, 79.47268
1206.066, 78.96310
1206.548, 79.37711
1207.031, 79.90361
1207.513, 79.95950
1207.995, 79.76622
1208.477, 79.36480
1208.959, 79.00262
1209.441, 79.36385
1209.923, 80.48842
1210.405, 80.73555
1210.887, 78.56421
1211.370, 77.30525
1211.852, 78.22095
1212.334, 79.21589
1212.816, 79.51533
1213.298, 79.46243
1213.780, 79.20408
1214.262, 78.87324
1214.744, 78.85532
1215.227, 79.21541
1215.709, 79.11780
1216.191, 78.37691
1216.673, 77.94723
1217.155, 77.97275
1217.637, 78.25536
1218.119, 78.75439
1218.601, 79.19033
1219.083, 79.26446
1219.566, 79.10121
1220.048, 78.97446
1220.530, 78.87830
1221.012, 78.77818
1221.494, 78.67924
1221.976, 78.57719
1222.458, 78.49447
1222.940, 78.60545
1223.422, 78.97489
1223.905, 79.17924
1224.387, 78.63493
1224.869, 78.07999
1225.351, 78.55909
1225.833, 79.27034
1226.315, 79.24294
1226.797, 78.73789
1227.279, 78.10434
1227.762, 77.54385
1228.244, 77.54176
1228.726, 78.39771
1229.208, 78.93506
1229.690, 78.36967
1230.172, 77.95731
1230.654, 78.26795
1231.136, 78.72839
1231.619, 79.12608
1232.101, 79.33598
1232.583, 79.15870
1233.065, 78.65393
1233.547, 78.18916
1234.029, 77.69173
1234.511, 77.51467
1234.993, 77.76035
1235.475, 77.91701
1235.958, 77.82498
1236.440, 77.88683
1236.922, 78.38183
1237.404, 78.91222
1237.886, 78.93208
1238.368, 78.58237
1238.850, 78.20878
1239.332, 77.85986
1239.814, 77.77061
1240.297, 77.89559
1240.779, 78.03613
1241.261, 78.11175
1241.743, 77.98609
1242.225, 77.57880
1242.707, 77.11729
1243.189, 76.63348
1243.671, 76.37703
1244.154, 76.76001
1244.636, 77.32093
1245.118, 77.31399
1245.600, 77.24828
1246.082, 78.09307
1246.564, 79.84506
1247.046, 81.87052
1247.528, 84.80447
1248.010, 85.69894
1248.493, 82.23120
1248.975, 79.30987
1249.457, 78.32646
1249.939, 77.95303
1250.421, 77.58974
1250.903, 77.27535
1251.385, 77.04878
1251.867, 76.92057
1252.349, 77.01106
1252.832, 77.36499
1253.314, 77.24692
1253.796, 76.61459
1254.278, 76.49459
1254.760, 77.10182
1255.242, 77.59398
1255.724, 77.51019
1256.206, 77.27504
1256.689, 77.39725
1257.171, 77.60753
1257.653, 77.40596
1258.135, 77.01598
1258.617, 76.78625
1259.099, 76.69756
1259.581, 76.64405
1260.063, 76.62124
1260.546, 76.66507
1261.028, 76.77133
1261.510, 77.12696
1261.992, 78.22240
1262.474, 79.00880
1262.956, 78.83950
1263.438, 78.48898
1263.920, 78.53018
1264.402, 78.58386
1264.885, 77.99512
1265.367, 77.05131
1265.849, 76.83690
1266.331, 77.50774
1266.813, 77.91296
1267.295, 78.04477
1267.777, 77.89258
1268.259, 77.40604
1268.741, 77.03860
1269.224, 76.99416
1269.706, 76.99467
1270.188, 76.76553
1270.670, 76.47305
1271.152, 76.35678
1271.634, 76.44804
1272.116, 77.00379
1272.598, 77.75698
1273.081, 78.10094
1273.563, 78.03350
1274.045, 77.73486
1274.527, 77.30789
1275.009, 77.12566
1275.491, 77.53179
1275.973, 77.86120
1276.455, 77.57671
1276.938, 77.39553
1277.420, 77.93899
1277.902, 78.55290
1278.384, 78.60232
1278.866, 78.30280
1279.348, 78.13779
1279.830, 78.09715
1280.312, 77.88163
1280.794, 77.38229
1281.276, 77.13771
1281.759, 77.17728
1282.241, 77.53594
1282.723, 78.29018
1283.205, 78.49473
1283.687, 77.51680
1284.169, 76.43586
1284.651, 76.73666
1285.133, 77.71860
1285.616, 78.17117
1286.098, 78.08748
##END=



