##NAMES=Nahcolite
##RRUFFID=R070237
##IDEAL CHEMISTRY=NaHCO_3_
##LOCALITY=Bureau of Mines Oil Shale Mine, East Rifle Creek area, Garfield County, Colorado, USA
##OWNER=RRUFF
##SOURCE=Michael Scott
##DESCRIPTION=Clear, colorless to brownish, massive
##STATUS=The identification of this mineral has been confirmed by X-ray diffraction and chemical analysis
##URL=rruff.info/R070237
##MEASURED CHEMISTRY=Na_1.00_HCO_3_ ; H and C not analyzed but assumed by stoichiometry
133.2699, 2000.009
133.7520, 2153.823
134.2341, 2324.654
134.7162, 2511.638
135.1983, 2715.496
135.6804, 2934.308
136.1626, 3164.422
136.6447, 3410.885
137.1268, 3682.626
137.6089, 3977.759
138.0910, 4298.077
138.5731, 4635.757
139.0553, 4991.852
139.5374, 5383.648
140.0195, 5831.658
140.5016, 6312.601
140.9837, 6722.244
141.4658, 7065.378
141.9480, 7336.007
142.4301, 7521.700
142.9122, 7595.683
143.3943, 7638.229
143.8764, 7636.314
144.3585, 7592.081
144.8407, 7612.373
145.3228, 7670.969
145.8049, 7814.485
146.2870, 8085.712
146.7691, 8481.623
147.2512, 9003.714
147.7334, 9668.878
148.2155, 10514.35
148.6976, 11367.22
149.1797, 12353.95
149.6618, 13313.25
150.1439, 14025.16
150.6261, 14611.11
151.1082, 14832.35
151.5903, 14582.75
152.0724, 13696.18
152.5545, 12713.25
153.0366, 11555.90
153.5188, 10334.89
154.0009, 9272.486
154.4830, 8397.531
154.9651, 7678.773
155.4472, 7094.740
155.9293, 6659.489
156.4115, 6335.989
156.8936, 6124.657
157.3757, 6020.720
157.8578, 6001.823
158.3399, 6075.518
158.8221, 6224.407
159.3042, 6437.594
159.7863, 6724.492
160.2684, 7063.573
160.7505, 7463.652
161.2326, 7921.773
161.7148, 8387.163
162.1969, 8924.250
162.6790, 9427.894
163.1611, 9790.802
163.6432, 10048.42
164.1253, 10106.15
164.6075, 9875.387
165.0896, 9351.559
165.5717, 8710.264
166.0538, 7962.854
166.5359, 7173.779
167.0180, 6433.652
167.5002, 5740.888
167.9823, 5128.565
168.4644, 4632.684
168.9465, 4263.164
169.4286, 3959.437
169.9107, 3691.683
170.3929, 3459.104
170.8750, 3253.034
171.3571, 3071.781
171.8392, 2916.227
172.3213, 2790.265
172.8034, 2698.564
173.2856, 2627.003
173.7677, 2569.020
174.2498, 2522.239
174.7319, 2479.503
175.2140, 2431.885
175.6961, 2386.471
176.1783, 2355.498
176.6604, 2344.578
177.1425, 2343.243
177.6246, 2339.611
178.1067, 2334.339
178.5888, 2331.486
179.0710, 2337.181
179.5531, 2347.490
180.0352, 2353.233
180.5173, 2350.351
180.9994, 2343.743
181.4815, 2339.711
181.9637, 2338.291
182.4458, 2341.619
182.9279, 2350.375
183.4100, 2365.114
183.8921, 2387.923
184.3742, 2419.561
184.8564, 2459.635
185.3385, 2508.791
185.8206, 2568.088
186.3027, 2628.742
186.7848, 2677.987
187.2669, 2718.311
187.7491, 2770.133
188.2312, 2843.599
188.7133, 2933.859
189.1954, 3024.027
189.6775, 3112.504
190.1596, 3205.678
190.6418, 3311.679
191.1239, 3430.097
191.6060, 3559.817
192.0881, 3695.704
192.5702, 3839.926
193.0524, 4012.868
193.5345, 4215.745
194.0166, 4442.684
194.4987, 4677.896
194.9808, 4920.159
195.4629, 5190.505
195.9451, 5493.096
196.4272, 5831.661
196.9093, 6202.508
197.3914, 6604.336
197.8735, 7040.394
198.3556, 7522.928
198.8378, 8053.948
199.3199, 8606.620
199.8020, 9186.360
200.2841, 9794.865
200.7662, 10340.44
201.2483, 10839.23
201.7305, 11252.52
202.2126, 11476.05
202.6947, 11492.32
203.1768, 11384.02
203.6589, 11161.61
204.1410, 10802.59
204.6232, 10502.71
205.1053, 10280.38
205.5874, 10127.72
206.0695, 10030.12
206.5516, 10004.81
207.0337, 9989.302
207.5159, 9955.001
207.9980, 9914.797
208.4801, 9795.020
208.9622, 9570.736
209.4443, 9260.308
209.9264, 8943.479
210.4086, 8603.782
210.8907, 8289.649
211.3728, 8039.622
211.8549, 7854.164
212.3370, 7723.237
212.8191, 7640.670
213.3013, 7609.442
213.7834, 7653.419
214.2655, 7784.461
214.7476, 7972.574
215.2297, 8188.750
215.7118, 8428.092
216.1940, 8716.769
216.6761, 9064.459
217.1582, 9470.555
217.6403, 9891.367
218.1224, 10313.11
218.6045, 10761.22
219.0867, 11260.36
219.5688, 11809.47
220.0509, 12406.75
220.5330, 13052.36
221.0151, 13756.13
221.4972, 14440.01
221.9794, 15125.62
222.4615, 15773.90
222.9436, 16357.89
223.4257, 16894.19
223.9078, 17339.73
224.3899, 17704.35
224.8721, 18004.17
225.3542, 18074.13
225.8363, 17875.25
226.3184, 17484.92
226.8005, 16980.29
227.2827, 16343.25
227.7648, 15629.39
228.2469, 14835.05
228.7290, 13950.28
229.2111, 13081.88
229.6932, 12219.18
230.1754, 11391.77
230.6575, 10628.43
231.1396, 9945.075
231.6217, 9307.287
232.1038, 8704.309
232.5859, 8132.634
233.0681, 7615.724
233.5502, 7160.499
234.0323, 6756.717
234.5144, 6384.079
234.9965, 6042.284
235.4786, 5737.413
235.9608, 5476.850
236.4429, 5274.561
236.9250, 5065.149
237.4071, 4839.533
237.8892, 4613.938
238.3713, 4414.639
238.8535, 4249.588
239.3356, 4097.625
239.8177, 3952.767
240.2998, 3814.403
240.7819, 3684.323
241.2640, 3560.027
241.7462, 3443.371
242.2283, 3337.014
242.7104, 3243.560
243.1925, 3156.121
243.6746, 3072.329
244.1567, 2991.062
244.6389, 2916.344
245.1210, 2849.132
245.6031, 2788.013
246.0852, 2731.800
246.5673, 2683.575
247.0494, 2634.923
247.5316, 2581.327
248.0137, 2518.211
248.4958, 2466.203
248.9779, 2430.618
249.4600, 2403.431
249.9421, 2370.029
250.4243, 2325.487
250.9064, 2283.131
251.3885, 2247.846
251.8706, 2220.761
252.3527, 2197.236
252.8348, 2179.824
253.3170, 2164.451
253.7991, 2142.326
254.2812, 2108.538
254.7633, 2077.926
255.2454, 2058.029
255.7275, 2054.541
256.2097, 2039.612
256.6918, 2005.177
257.1739, 1965.005
257.6560, 1947.308
258.1381, 1965.018
258.6202, 1978.437
259.1024, 1970.557
259.5845, 1934.926
260.0666, 1904.893
260.5487, 1880.739
261.0308, 1862.057
261.5129, 1847.351
261.9951, 1837.099
262.4772, 1830.052
262.9593, 1827.533
263.4414, 1832.013
263.9235, 1828.565
264.4056, 1814.719
264.8878, 1795.173
265.3699, 1776.594
265.8520, 1757.193
266.3341, 1743.474
266.8162, 1739.793
267.2983, 1748.502
267.7805, 1752.266
268.2626, 1750.195
268.7447, 1744.097
269.2268, 1737.346
269.7089, 1730.641
270.1910, 1720.741
270.6732, 1703.579
271.1553, 1677.473
271.6374, 1662.896
272.1195, 1663.115
272.6016, 1670.061
273.0837, 1670.839
273.5659, 1664.544
274.0480, 1656.824
274.5301, 1649.995
275.0122, 1644.184
275.4943, 1635.397
275.9764, 1622.175
276.4586, 1608.716
276.9407, 1602.315
277.4228, 1603.909
277.9049, 1605.050
278.3870, 1602.197
278.8691, 1595.543
279.3513, 1589.252
279.8334, 1583.099
280.3155, 1577.891
280.7976, 1575.622
281.2798, 1576.500
281.7619, 1575.920
282.2440, 1571.055
282.7261, 1562.742
283.2082, 1557.840
283.6903, 1556.967
284.1725, 1557.227
284.6546, 1555.208
285.1367, 1550.983
285.6188, 1545.816
286.1009, 1538.974
286.5830, 1531.442
287.0652, 1528.103
287.5473, 1529.471
288.0294, 1532.147
288.5115, 1532.245
288.9936, 1530.088
289.4757, 1528.556
289.9579, 1530.568
290.4400, 1533.420
290.9221, 1527.771
291.4042, 1512.969
291.8863, 1497.791
292.3684, 1492.858
292.8506, 1495.771
293.3327, 1495.782
293.8148, 1486.907
294.2969, 1474.540
294.7790, 1469.154
295.2611, 1470.759
295.7433, 1475.568
296.2254, 1485.118
296.7075, 1495.840
297.1896, 1496.654
297.6717, 1477.765
298.1538, 1453.144
298.6360, 1445.430
299.1181, 1453.443
299.6002, 1464.050
300.0823, 1468.471
300.5644, 1468.250
301.0465, 1466.514
301.5287, 1464.880
302.0108, 1461.072
302.4929, 1449.627
302.9750, 1432.103
303.4571, 1418.073
303.9392, 1415.720
304.4214, 1420.112
304.9035, 1424.928
305.3856, 1429.434
305.8677, 1432.584
306.3498, 1432.943
306.8319, 1430.978
307.3141, 1428.312
307.7962, 1425.071
308.2783, 1422.007
308.7604, 1419.928
309.2425, 1419.377
309.7246, 1419.090
310.2068, 1419.865
310.6889, 1420.468
311.1710, 1417.744
311.6531, 1406.062
312.1352, 1392.969
312.6173, 1383.744
313.0995, 1379.220
313.5816, 1378.903
314.0637, 1385.422
314.5458, 1395.836
315.0279, 1404.648
315.5100, 1412.288
315.9922, 1415.862
316.4743, 1410.866
316.9564, 1392.767
317.4385, 1382.835
317.9206, 1398.771
318.4027, 1424.652
318.8849, 1438.224
319.3670, 1419.035
319.8491, 1399.261
320.3312, 1391.969
320.8133, 1400.392
321.2954, 1407.362
321.7776, 1406.910
322.2597, 1404.418
322.7418, 1405.622
323.2239, 1417.154
323.7060, 1426.661
324.1881, 1431.331
324.6703, 1430.885
325.1524, 1427.911
325.6345, 1419.580
326.1166, 1410.398
326.5987, 1403.911
327.0808, 1401.207
327.5630, 1399.975
328.0451, 1401.039
328.5272, 1404.192
329.0093, 1404.945
329.4914, 1402.782
329.9735, 1398.697
330.4557, 1393.050
330.9378, 1383.767
331.4199, 1376.542
331.9020, 1372.109
332.3841, 1370.091
332.8662, 1368.912
333.3484, 1369.582
333.8305, 1369.579
334.3126, 1365.943
334.7947, 1354.349
335.2768, 1353.935
335.7589, 1371.559
336.2411, 1397.613
336.7232, 1406.607
337.2053, 1393.377
337.6874, 1377.958
338.1695, 1369.963
338.6516, 1370.459
339.1338, 1369.662
339.6159, 1367.194
340.0980, 1363.758
340.5801, 1359.289
341.0622, 1353.195
341.5443, 1351.373
342.0265, 1360.427
342.5086, 1378.108
342.9907, 1381.611
343.4728, 1368.361
343.9549, 1350.907
344.4370, 1344.100
344.9192, 1347.276
345.4013, 1354.394
345.8834, 1365.516
346.3655, 1378.425
346.8476, 1387.593
347.3297, 1393.036
347.8119, 1393.950
348.2940, 1387.278
348.7761, 1375.065
349.2582, 1363.242
349.7403, 1351.508
350.2225, 1342.670
350.7046, 1341.907
351.1867, 1348.506
351.6688, 1357.045
352.1509, 1367.632
352.6331, 1376.648
353.1152, 1377.624
353.5973, 1365.736
354.0794, 1351.868
354.5615, 1345.566
355.0436, 1345.238
355.5258, 1346.048
356.0079, 1347.124
356.4900, 1347.181
356.9721, 1343.768
357.4542, 1334.360
357.9363, 1328.771
358.4185, 1336.237
358.9006, 1350.854
359.3827, 1362.410
359.8648, 1367.900
360.3469, 1368.527
360.8290, 1362.706
361.3112, 1348.931
361.7933, 1338.984
362.2754, 1336.579
362.7575, 1339.837
363.2396, 1346.749
363.7217, 1366.058
364.2039, 1379.703
364.6860, 1381.007
365.1681, 1369.744
365.6502, 1358.869
366.1323, 1345.029
366.6144, 1334.858
367.0966, 1333.037
367.5787, 1350.478
368.0608, 1362.997
368.5429, 1366.557
369.0250, 1363.215
369.5071, 1363.861
369.9893, 1374.244
370.4714, 1381.947
370.9535, 1379.884
371.4356, 1360.976
371.9177, 1348.482
372.3998, 1343.623
372.8820, 1344.857
373.3641, 1350.067
373.8462, 1361.878
374.3283, 1370.810
374.8104, 1372.254
375.2925, 1365.515
375.7747, 1358.796
376.2568, 1350.917
376.7389, 1345.268
377.2210, 1348.091
377.7031, 1360.067
378.1852, 1370.881
378.6674, 1378.460
379.1495, 1382.329
379.6316, 1378.752
380.1137, 1366.958
380.5958, 1354.973
381.0779, 1350.113
381.5601, 1351.562
382.0422, 1356.199
382.5243, 1365.493
383.0064, 1374.908
383.4885, 1376.222
383.9706, 1370.189
384.4528, 1362.291
384.9349, 1352.281
385.4170, 1343.804
385.8991, 1344.175
386.3812, 1356.838
386.8633, 1370.721
387.3455, 1373.164
387.8276, 1368.791
388.3097, 1368.239
388.7918, 1385.875
389.2739, 1403.708
389.7560, 1405.002
390.2382, 1387.184
390.7203, 1368.527
391.2024, 1358.034
391.6845, 1352.445
392.1666, 1347.895
392.6487, 1340.676
393.1309, 1336.645
393.6130, 1341.427
394.0951, 1353.856
394.5772, 1360.450
395.0593, 1352.235
395.5414, 1340.620
396.0236, 1332.794
396.5057, 1328.919
396.9878, 1329.850
397.4699, 1338.821
397.9520, 1353.124
398.4341, 1364.217
398.9163, 1371.876
399.3984, 1376.521
399.8805, 1377.848
400.3626, 1374.485
400.8447, 1371.945
401.3268, 1370.935
401.8090, 1370.229
402.2911, 1368.402
402.7732, 1366.145
403.2553, 1360.592
403.7374, 1348.158
404.2195, 1329.808
404.7017, 1325.671
405.1838, 1340.358
405.6659, 1356.820
406.1480, 1355.758
406.6301, 1336.758
407.1122, 1329.126
407.5944, 1341.944
408.0765, 1365.226
408.5586, 1374.102
409.0407, 1368.869
409.5228, 1362.015
410.0049, 1362.391
410.4871, 1367.567
410.9692, 1371.392
411.4513, 1373.684
411.9334, 1372.818
412.4155, 1363.066
412.8976, 1347.978
413.3798, 1338.082
413.8619, 1341.270
414.3440, 1350.040
414.8261, 1357.798
415.3082, 1364.352
415.7903, 1368.611
416.2725, 1369.428
416.7546, 1367.777
417.2367, 1364.586
417.7188, 1356.238
418.2009, 1350.797
418.6830, 1356.547
419.1652, 1369.550
419.6473, 1375.124
420.1294, 1356.669
420.6115, 1338.166
421.0937, 1334.055
421.5758, 1356.185
422.0579, 1371.379
422.5400, 1369.908
423.0221, 1360.113
423.5042, 1355.683
423.9864, 1363.522
424.4685, 1369.506
424.9506, 1369.397
425.4327, 1362.433
425.9148, 1359.573
426.3969, 1363.639
426.8791, 1368.593
427.3612, 1368.732
427.8433, 1362.081
428.3254, 1356.648
428.8075, 1352.992
429.2896, 1351.543
429.7718, 1354.565
430.2539, 1362.802
430.7360, 1371.518
431.2181, 1380.200
431.7002, 1388.293
432.1823, 1385.390
432.6645, 1368.479
433.1466, 1348.857
433.6287, 1341.417
434.1108, 1344.877
434.5929, 1353.468
435.0750, 1370.706
435.5572, 1389.008
436.0393, 1393.842
436.5214, 1385.625
437.0035, 1373.187
437.4856, 1357.609
437.9677, 1343.894
438.4499, 1340.276
438.9320, 1354.336
439.4141, 1369.609
439.8962, 1373.479
440.3783, 1369.310
440.8604, 1365.887
441.3426, 1368.048
441.8247, 1371.348
442.3068, 1372.589
442.7889, 1370.373
443.2710, 1371.188
443.7531, 1382.030
444.2353, 1394.719
444.7174, 1400.393
445.1995, 1391.698
445.6816, 1382.478
446.1637, 1373.306
446.6458, 1364.659
447.1280, 1361.404
447.6101, 1367.526
448.0922, 1374.661
448.5743, 1377.949
449.0564, 1375.391
449.5385, 1374.344
450.0207, 1375.067
450.5028, 1377.312
450.9849, 1381.575
451.4670, 1388.727
451.9491, 1393.189
452.4312, 1391.491
452.9134, 1384.709
453.3955, 1381.585
453.8776, 1382.491
454.3597, 1384.430
454.8418, 1384.316
455.3239, 1382.686
455.8061, 1381.872
456.2882, 1382.775
456.7703, 1384.126
457.2524, 1383.889
457.7345, 1382.431
458.2166, 1381.240
458.6988, 1381.481
459.1809, 1382.322
459.6630, 1382.480
460.1451, 1381.566
460.6272, 1381.932
461.1093, 1388.353
461.5915, 1395.915
462.0736, 1398.353
462.5557, 1387.104
463.0378, 1376.760
463.5199, 1371.339
464.0020, 1371.038
464.4842, 1376.453
464.9663, 1398.444
465.4484, 1418.236
465.9305, 1425.475
466.4126, 1410.635
466.8947, 1399.396
467.3769, 1391.729
467.8590, 1387.681
468.3411, 1387.572
468.8232, 1392.662
469.3053, 1399.516
469.7874, 1409.070
470.2696, 1420.785
470.7517, 1423.459
471.2338, 1414.974
471.7159, 1403.992
472.1980, 1397.256
472.6801, 1394.724
473.1623, 1394.878
473.6444, 1397.515
474.1265, 1402.676
474.6086, 1414.095
475.0907, 1430.034
475.5728, 1439.252
476.0550, 1429.721
476.5371, 1411.762
477.0192, 1402.421
477.5013, 1402.286
477.9834, 1404.690
478.4655, 1405.010
478.9477, 1404.628
479.4298, 1405.404
479.9119, 1408.927
480.3940, 1412.439
480.8761, 1414.824
481.3582, 1416.100
481.8404, 1416.270
482.3225, 1412.184
482.8046, 1409.590
483.2867, 1412.387
483.7688, 1423.960
484.2509, 1430.274
484.7331, 1426.051
485.2152, 1418.132
485.6973, 1412.533
486.1794, 1408.851
486.6615, 1408.511
487.1436, 1413.785
487.6258, 1422.654
488.1079, 1425.010
488.5900, 1419.109
489.0721, 1411.435
489.5542, 1404.599
490.0363, 1398.541
490.5185, 1396.120
491.0006, 1397.948
491.4827, 1401.691
491.9648, 1404.253
492.4470, 1405.977
492.9291, 1408.693
493.4112, 1412.909
493.8933, 1418.492
494.3754, 1427.403
494.8575, 1438.660
495.3397, 1445.556
495.8218, 1438.595
496.3039, 1427.499
496.7860, 1423.931
497.2681, 1431.666
497.7502, 1438.544
498.2324, 1435.887
498.7145, 1429.120
499.1966, 1425.568
499.6787, 1429.072
500.1608, 1434.450
500.6429, 1442.952
501.1251, 1453.878
501.6072, 1457.245
502.0893, 1446.124
502.5714, 1432.888
503.0535, 1422.741
503.5356, 1414.719
504.0178, 1412.464
504.4999, 1417.947
504.9820, 1427.451
505.4641, 1437.370
505.9462, 1449.344
506.4283, 1452.361
506.9105, 1438.928
507.3926, 1415.059
507.8747, 1405.933
508.3568, 1412.150
508.8389, 1421.975
509.3210, 1427.516
509.8032, 1429.987
510.2853, 1433.396
510.7674, 1438.874
511.2495, 1442.582
511.7316, 1438.803
512.2137, 1430.414
512.6959, 1423.341
513.1780, 1419.493
513.6601, 1418.185
514.1422, 1419.890
514.6243, 1424.202
515.1064, 1428.456
515.5886, 1431.096
516.0707, 1433.732
516.5528, 1437.835
517.0349, 1446.608
517.5170, 1450.611
517.9991, 1445.006
518.4813, 1435.657
518.9634, 1429.709
519.4455, 1427.353
519.9276, 1428.274
520.4097, 1433.772
520.8918, 1442.779
521.3740, 1449.299
521.8561, 1453.651
522.3382, 1454.461
522.8203, 1448.226
523.3024, 1435.716
523.7845, 1429.761
524.2667, 1431.671
524.7488, 1437.856
525.2309, 1446.424
525.7130, 1456.110
526.1951, 1462.312
526.6772, 1462.574
527.1594, 1459.497
527.6415, 1455.051
528.1236, 1449.591
528.6057, 1444.564
529.0878, 1439.321
529.5699, 1435.853
530.0521, 1436.067
530.5342, 1440.781
531.0163, 1446.499
531.4984, 1454.884
531.9805, 1462.568
532.4626, 1466.027
532.9448, 1460.886
533.4269, 1456.051
533.9090, 1451.295
534.3911, 1447.431
534.8732, 1448.630
535.3553, 1459.016
535.8375, 1466.667
536.3196, 1464.301
536.8017, 1451.037
537.2838, 1447.534
537.7659, 1456.349
538.2480, 1466.382
538.7302, 1462.490
539.2123, 1447.340
539.6944, 1440.320
540.1765, 1447.817
540.6586, 1461.223
541.1407, 1469.799
541.6229, 1474.299
542.1050, 1477.614
542.5871, 1481.140
543.0692, 1484.282
543.5513, 1486.511
544.0334, 1487.780
544.5156, 1488.246
544.9977, 1487.246
545.4798, 1485.893
545.9619, 1485.043
546.4440, 1484.703
546.9261, 1485.104
547.4083, 1488.847
547.8904, 1492.815
548.3725, 1490.967
548.8546, 1478.185
549.3367, 1467.960
549.8188, 1463.696
550.3010, 1465.040
550.7831, 1468.700
551.2652, 1475.688
551.7473, 1481.631
552.2294, 1482.503
552.7115, 1478.893
553.1937, 1476.199
553.6758, 1474.536
554.1579, 1475.080
554.6400, 1481.782
555.1221, 1492.160
555.6042, 1498.711
556.0864, 1494.580
556.5685, 1489.808
557.0506, 1497.203
557.5327, 1513.076
558.0148, 1523.570
558.4969, 1517.731
558.9791, 1507.578
559.4612, 1499.740
559.9433, 1494.914
560.4254, 1492.586
560.9075, 1494.497
561.3896, 1497.882
561.8718, 1500.206
562.3539, 1499.790
562.8360, 1501.517
563.3181, 1507.894
563.8002, 1515.592
564.2823, 1515.397
564.7645, 1505.290
565.2466, 1496.394
565.7287, 1493.615
566.2108, 1495.711
566.6929, 1496.485
567.1750, 1495.839
567.6572, 1495.967
568.1393, 1501.708
568.6214, 1509.046
569.1035, 1507.885
569.5856, 1494.226
570.0677, 1481.973
570.5499, 1484.780
571.0320, 1496.088
571.5141, 1505.500
571.9962, 1506.839
572.4783, 1507.923
572.9604, 1514.122
573.4426, 1523.603
573.9247, 1526.885
574.4068, 1511.105
574.8889, 1499.349
575.3710, 1503.037
575.8531, 1527.346
576.3353, 1538.351
576.8174, 1529.220
577.2995, 1516.764
577.7816, 1519.219
578.2637, 1538.598
578.7458, 1550.729
579.2280, 1550.853
579.7101, 1544.569
580.1922, 1540.008
580.6743, 1537.330
581.1564, 1537.442
581.6385, 1545.713
582.1207, 1554.373
582.6028, 1549.718
583.0849, 1533.756
583.5670, 1521.855
584.0491, 1528.669
584.5313, 1539.612
585.0134, 1542.229
585.4955, 1530.944
585.9776, 1523.495
586.4597, 1527.210
586.9418, 1535.932
587.4240, 1542.566
587.9061, 1543.551
588.3882, 1548.049
588.8703, 1560.550
589.3524, 1576.238
589.8345, 1579.813
590.3167, 1568.648
590.7988, 1555.128
591.2809, 1541.921
591.7630, 1530.489
592.2451, 1531.664
592.7272, 1545.894
593.2094, 1561.802
593.6915, 1570.820
594.1736, 1574.602
594.6557, 1575.927
595.1378, 1574.896
595.6199, 1572.798
596.1021, 1570.598
596.5842, 1567.932
597.0663, 1564.264
597.5485, 1552.503
598.0306, 1547.075
598.5127, 1557.176
598.9948, 1578.695
599.4769, 1593.843
599.9590, 1600.854
600.4412, 1602.426
600.9233, 1597.568
601.4054, 1585.509
601.8875, 1578.985
602.3696, 1578.863
602.8517, 1582.298
603.3339, 1588.448
603.8160, 1596.953
604.2981, 1601.594
604.7802, 1600.818
605.2623, 1598.982
605.7444, 1602.097
606.2266, 1608.711
606.7087, 1615.056
607.1908, 1624.543
607.6729, 1628.391
608.1550, 1610.643
608.6371, 1579.909
609.1193, 1563.559
609.6014, 1588.672
610.0835, 1617.115
610.5656, 1629.766
611.0477, 1623.195
611.5298, 1618.242
612.0120, 1615.255
612.4941, 1614.511
612.9762, 1616.808
613.4583, 1623.556
613.9404, 1628.609
614.4225, 1632.429
614.9047, 1633.166
615.3868, 1625.386
615.8689, 1609.989
616.3510, 1599.761
616.8331, 1598.893
617.3152, 1604.460
617.7974, 1614.645
618.2795, 1628.060
618.7616, 1639.837
619.2437, 1648.589
619.7258, 1653.670
620.2079, 1653.831
620.6901, 1649.045
621.1722, 1643.078
621.6543, 1635.090
622.1364, 1627.823
622.6185, 1622.799
623.1006, 1618.226
623.5828, 1620.300
624.0649, 1632.642
624.5470, 1648.311
625.0291, 1659.749
625.5112, 1667.074
625.9933, 1668.575
626.4755, 1661.591
626.9576, 1651.787
627.4397, 1652.689
627.9218, 1662.858
628.4039, 1671.334
628.8860, 1670.526
629.3682, 1666.069
629.8503, 1666.533
630.3324, 1671.113
630.8145, 1673.484
631.2966, 1664.155
631.7787, 1655.327
632.2609, 1657.181
632.7430, 1674.528
633.2251, 1688.613
633.7072, 1692.541
634.1893, 1693.640
634.6714, 1698.223
635.1536, 1709.077
635.6357, 1716.836
636.1178, 1718.934
636.5999, 1719.532
637.0820, 1728.847
637.5641, 1747.459
638.0463, 1758.477
638.5284, 1752.587
639.0105, 1739.197
639.4926, 1736.305
639.9747, 1742.979
640.4568, 1753.700
640.9390, 1765.247
641.4211, 1779.328
641.9032, 1797.676
642.3853, 1820.323
642.8674, 1845.940
643.3495, 1870.863
643.8317, 1900.626
644.3138, 1940.995
644.7959, 2006.999
645.2780, 2055.566
645.7601, 2086.699
646.2422, 2100.386
646.7244, 2093.655
647.2065, 2062.833
647.6886, 2029.149
648.1707, 1992.490
648.6528, 1960.608
649.1349, 1950.096
649.6171, 1959.433
650.0992, 1977.121
650.5813, 2000.137
651.0634, 2027.126
651.5455, 2053.680
652.0276, 2081.641
652.5098, 2119.698
652.9919, 2177.524
653.4740, 2243.033
653.9561, 2305.727
654.4382, 2361.067
654.9203, 2435.161
655.4025, 2505.046
655.8846, 2615.887
656.3667, 2797.729
656.8488, 3058.766
657.3309, 3393.311
657.8130, 3857.369
658.2952, 4296.685
658.7773, 4513.693
659.2594, 4513.166
659.7415, 4307.885
660.2236, 3830.085
660.7057, 3266.945
661.1879, 2858.842
661.6700, 2585.152
662.1521, 2394.669
662.6342, 2303.613
663.1163, 2252.368
663.5984, 2207.997
664.0806, 2170.761
664.5627, 2151.831
665.0448, 2166.648
665.5269, 2189.383
666.0090, 2208.269
666.4911, 2221.420
666.9733, 2243.559
667.4554, 2275.637
667.9375, 2314.818
668.4196, 2358.219
668.9017, 2406.198
669.3839, 2462.709
669.8660, 2527.767
670.3481, 2601.659
670.8302, 2679.766
671.3123, 2767.159
671.7944, 2875.855
672.2766, 3013.189
672.7587, 3165.124
673.2408, 3319.570
673.7229, 3482.727
674.2050, 3669.687
674.6871, 3907.651
675.1693, 4144.759
675.6514, 4354.082
676.1335, 4548.802
676.6156, 4793.696
677.0977, 5092.146
677.5798, 5431.546
678.0620, 5805.055
678.5441, 6214.949
679.0262, 6640.633
679.5083, 7083.275
679.9904, 7582.128
680.4725, 8173.113
680.9547, 8838.890
681.4368, 9564.841
681.9189, 10345.00
682.4010, 11165.26
682.8831, 12081.82
683.3652, 12994.44
683.8474, 13802.67
684.3295, 14617.31
684.8116, 15115.91
685.2937, 15274.43
685.7758, 15081.01
686.2579, 14463.27
686.7401, 13293.29
687.2222, 12040.87
687.7043, 10748.45
688.1864, 9470.723
688.6685, 8323.593
689.1506, 7307.511
689.6328, 6433.451
690.1149, 5714.166
690.5970, 5124.945
691.0791, 4642.184
691.5612, 4256.739
692.0433, 3934.836
692.5255, 3663.675
693.0076, 3436.510
693.4897, 3251.401
693.9718, 3109.121
694.4539, 2996.292
694.9360, 2920.119
695.4182, 2864.522
695.9003, 2823.771
696.3824, 2803.351
696.8645, 2781.380
697.3466, 2764.561
697.8287, 2728.579
698.3109, 2632.696
698.7930, 2489.549
699.2751, 2365.059
699.7572, 2271.963
700.2393, 2199.043
700.7214, 2138.665
701.2036, 2090.080
701.6857, 2052.266
702.1678, 2035.620
702.6499, 2017.120
703.1320, 1985.163
703.6141, 1945.104
704.0963, 1910.007
704.5784, 1877.595
705.0605, 1854.269
705.5426, 1843.544
706.0247, 1842.774
706.5068, 1841.489
706.9890, 1840.005
707.4711, 1835.370
707.9532, 1824.552
708.4353, 1809.800
708.9174, 1798.074
709.3995, 1788.850
709.8817, 1777.313
710.3638, 1753.853
710.8459, 1730.811
711.3280, 1722.202
711.8101, 1731.528
712.2922, 1735.221
712.7744, 1717.643
713.2565, 1698.890
713.7386, 1693.436
714.2207, 1710.690
714.7028, 1715.415
715.1849, 1702.064
715.6671, 1685.901
716.1492, 1687.171
716.6313, 1703.863
717.1134, 1710.874
717.5955, 1702.108
718.0776, 1688.276
718.5598, 1681.229
719.0419, 1678.877
719.5240, 1677.255
720.0061, 1676.276
720.4882, 1674.059
720.9703, 1669.346
721.4525, 1662.777
721.9346, 1655.737
722.4167, 1645.173
722.8988, 1638.232
723.3809, 1636.130
723.8630, 1638.651
724.3452, 1646.916
724.8273, 1662.260
725.3094, 1673.686
725.7915, 1676.261
726.2736, 1671.034
726.7557, 1656.581
727.2379, 1634.509
727.7200, 1617.484
728.2021, 1614.301
728.6842, 1619.216
729.1663, 1630.985
729.6484, 1649.751
730.1306, 1661.619
730.6127, 1656.243
731.0948, 1648.067
731.5769, 1645.364
732.0590, 1650.029
732.5411, 1652.059
733.0233, 1650.903
733.5054, 1648.344
733.9875, 1644.954
734.4696, 1641.178
734.9517, 1640.766
735.4338, 1644.432
735.9160, 1649.597
736.3981, 1657.245
736.8802, 1663.568
737.3623, 1661.848
737.8444, 1643.930
738.3266, 1630.153
738.8087, 1630.088
739.2908, 1638.110
739.7729, 1646.729
740.2551, 1662.080
740.7372, 1665.415
741.2193, 1649.689
741.7014, 1624.938
742.1835, 1612.189
742.6656, 1611.617
743.1478, 1614.249
743.6299, 1616.239
744.1120, 1621.053
744.5941, 1639.765
745.0762, 1666.704
745.5583, 1684.851
746.0405, 1678.157
746.5226, 1667.230
747.0047, 1663.861
747.4868, 1666.619
747.9689, 1665.608
748.4510, 1656.284
748.9332, 1647.432
749.4153, 1641.795
749.8974, 1639.153
750.3795, 1636.607
750.8616, 1634.127
751.3438, 1632.054
751.8259, 1629.173
752.3080, 1627.165
752.7901, 1631.219
753.2722, 1641.131
753.7543, 1651.078
754.2365, 1662.848
754.7186, 1669.150
755.2007, 1660.543
755.6828, 1632.037
756.1649, 1612.670
756.6470, 1611.552
757.1292, 1616.966
757.6113, 1623.311
758.0934, 1631.886
758.5755, 1634.835
759.0576, 1631.054
759.5397, 1625.407
760.0219, 1622.218
760.5040, 1621.285
760.9861, 1622.344
761.4682, 1625.561
761.9503, 1629.535
762.4324, 1633.855
762.9146, 1638.037
763.3967, 1641.410
763.8788, 1642.147
764.3609, 1644.833
764.8430, 1655.183
765.3251, 1664.976
765.8073, 1663.579
766.2894, 1647.261
766.7715, 1634.123
767.2536, 1626.219
767.7357, 1623.468
768.2178, 1629.830
768.7000, 1642.269
769.1821, 1646.928
769.6642, 1632.940
770.1463, 1620.072
770.6284, 1629.966
771.1105, 1652.655
771.5927, 1668.864
772.0748, 1665.910
772.5569, 1663.763
773.0390, 1670.598
773.5211, 1680.859
774.0032, 1677.740
774.4854, 1655.416
774.9675, 1642.496
775.4496, 1651.661
775.9317, 1672.084
776.4138, 1674.249
776.8959, 1661.562
777.3781, 1652.607
777.8602, 1661.756
778.3423, 1675.038
778.8244, 1680.126
779.3065, 1678.935
779.7886, 1680.167
780.2708, 1693.439
780.7529, 1701.962
781.2350, 1698.630
781.7171, 1684.997
782.1992, 1675.635
782.6813, 1671.209
783.1635, 1668.698
783.6456, 1665.895
784.1277, 1663.947
784.6098, 1668.579
785.0919, 1678.953
785.5740, 1686.960
786.0562, 1685.425
786.5383, 1680.775
787.0204, 1677.664
787.5025, 1676.428
787.9846, 1676.987
788.4667, 1684.057
788.9489, 1688.204
789.4310, 1684.138
789.9131, 1671.198
790.3952, 1663.839
790.8773, 1663.175
791.3594, 1663.170
791.8416, 1656.908
792.3237, 1648.182
792.8058, 1648.186
793.2879, 1657.347
793.7700, 1667.976
794.2521, 1677.781
794.7343, 1684.759
795.2164, 1685.122
795.6985, 1675.358
796.1806, 1674.197
796.6627, 1691.314
797.1448, 1708.733
797.6270, 1713.729
798.1091, 1704.204
798.5912, 1699.563
799.0733, 1700.522
799.5554, 1703.008
800.0375, 1703.155
800.5197, 1701.970
801.0018, 1701.600
801.4839, 1702.505
801.9660, 1702.733
802.4481, 1700.676
802.9302, 1697.684
803.4124, 1694.554
803.8945, 1689.589
804.3766, 1688.757
804.8587, 1692.310
805.3408, 1699.669
805.8229, 1714.458
806.3051, 1736.533
806.7872, 1739.454
807.2693, 1717.838
807.7514, 1696.268
808.2335, 1706.357
808.7156, 1730.754
809.1978, 1741.192
809.6799, 1726.194
810.1620, 1716.063
810.6441, 1731.876
811.1262, 1753.712
811.6083, 1760.819
812.0905, 1740.541
812.5726, 1735.889
813.0547, 1754.430
813.5368, 1775.723
814.0189, 1770.383
814.5010, 1744.205
814.9832, 1732.067
815.4653, 1741.009
815.9474, 1757.712
816.4295, 1776.283
816.9116, 1792.735
817.3937, 1801.817
817.8759, 1799.440
818.3580, 1794.916
818.8401, 1783.777
819.3222, 1775.554
819.8043, 1780.879
820.2864, 1803.420
820.7686, 1822.851
821.2507, 1837.193
821.7328, 1848.229
822.2149, 1857.347
822.6970, 1864.813
823.1791, 1869.464
823.6613, 1867.521
824.1434, 1874.476
824.6255, 1908.008
825.1076, 1952.690
825.5897, 1990.812
826.0718, 2008.884
826.5540, 2036.143
827.0361, 2076.260
827.5182, 2121.893
828.0003, 2163.208
828.4824, 2200.030
828.9645, 2245.474
829.4467, 2300.242
829.9288, 2368.135
830.4109, 2474.941
830.8930, 2590.586
831.3751, 2672.029
831.8572, 2712.044
832.3394, 2705.781
832.8215, 2627.826
833.3036, 2513.925
833.7857, 2402.648
834.2678, 2291.252
834.7499, 2194.173
835.2321, 2112.869
835.7142, 2046.296
836.1963, 1997.224
836.6784, 1962.043
837.1605, 1929.137
837.6426, 1896.412
838.1248, 1866.558
838.6069, 1839.755
839.0890, 1817.927
839.5711, 1803.866
840.0532, 1801.820
840.5353, 1801.283
841.0175, 1803.376
841.4996, 1804.719
841.9817, 1801.722
842.4638, 1794.264
842.9459, 1784.146
843.4280, 1770.450
843.9102, 1759.801
844.3923, 1762.933
844.8744, 1772.872
845.3565, 1778.522
845.8386, 1777.322
846.3207, 1773.251
846.8029, 1766.185
847.2850, 1758.012
847.7671, 1749.859
848.2492, 1739.350
848.7313, 1736.373
849.2134, 1743.298
849.6956, 1751.768
850.1777, 1752.198
850.6598, 1747.150
851.1419, 1747.021
851.6240, 1753.783
852.1061, 1757.652
852.5883, 1744.373
853.0704, 1728.938
853.5525, 1726.490
854.0346, 1745.685
854.5167, 1757.672
854.9988, 1756.395
855.4810, 1753.387
855.9631, 1758.499
856.4452, 1771.977
856.9273, 1776.181
857.4094, 1770.086
857.8915, 1763.048
858.3737, 1765.353
858.8558, 1770.560
859.3379, 1769.110
859.8200, 1759.281
860.3021, 1752.640
860.7842, 1757.172
861.2664, 1763.138
861.7485, 1765.265
862.2306, 1763.336
862.7127, 1759.546
863.1948, 1753.515
863.6769, 1747.155
864.1591, 1737.061
864.6412, 1728.714
865.1233, 1741.403
865.6054, 1773.485
866.0875, 1795.613
866.5696, 1775.961
867.0518, 1752.947
867.5339, 1755.239
868.0160, 1786.198
868.4981, 1799.751
868.9802, 1790.284
869.4623, 1774.778
869.9445, 1757.649
870.4266, 1741.232
870.9087, 1739.610
871.3908, 1751.350
871.8729, 1761.441
872.3550, 1756.099
872.8372, 1749.059
873.3193, 1755.872
873.8014, 1773.131
874.2835, 1779.959
874.7656, 1755.212
875.2477, 1739.651
875.7299, 1747.444
876.2120, 1771.282
876.6941, 1781.857
877.1762, 1779.180
877.6583, 1776.976
878.1404, 1783.150
878.6226, 1790.870
879.1047, 1789.994
879.5869, 1783.339
880.0690, 1778.139
880.5511, 1779.462
881.0332, 1779.894
881.5153, 1775.481
881.9974, 1769.351
882.4796, 1768.038
882.9617, 1772.215
883.4438, 1777.503
883.9259, 1782.985
884.4080, 1788.783
884.8901, 1796.317
885.3723, 1804.209
885.8544, 1809.459
886.3365, 1812.444
886.8186, 1810.164
887.3007, 1794.448
887.7828, 1775.541
888.2650, 1767.759
888.7471, 1774.271
889.2292, 1785.449
889.7113, 1803.712
890.1934, 1819.258
890.6755, 1814.501
891.1577, 1796.537
891.6398, 1788.397
892.1219, 1795.881
892.6040, 1805.911
893.0861, 1809.400
893.5682, 1811.088
894.0504, 1816.581
894.5325, 1833.068
895.0146, 1834.998
895.4967, 1816.423
895.9788, 1794.321
896.4609, 1780.680
896.9431, 1775.559
897.4252, 1783.709
897.9073, 1805.592
898.3894, 1824.765
898.8715, 1831.902
899.3536, 1829.066
899.8358, 1811.181
900.3179, 1775.442
900.8000, 1763.957
901.2821, 1799.028
901.7642, 1831.105
902.2463, 1835.471
902.7285, 1816.522
903.2106, 1808.591
903.6927, 1811.341
904.1748, 1814.703
904.6569, 1811.733
905.1390, 1806.961
905.6212, 1803.586
906.1033, 1802.147
906.5854, 1804.272
907.0675, 1817.038
907.5496, 1825.265
908.0317, 1823.742
908.5139, 1815.917
908.9960, 1812.306
909.4781, 1812.946
909.9602, 1813.901
910.4423, 1814.474
910.9244, 1813.617
911.4066, 1805.439
911.8887, 1795.763
912.3708, 1795.270
912.8529, 1823.510
913.3350, 1840.556
913.8171, 1833.156
914.2993, 1815.856
914.7814, 1807.762
915.2635, 1809.608
915.7456, 1810.923
916.2277, 1810.126
916.7098, 1808.977
917.1920, 1810.709
917.6741, 1812.953
918.1562, 1811.164
918.6383, 1802.167
919.1204, 1797.468
919.6025, 1803.588
920.0847, 1812.839
920.5668, 1821.254
921.0489, 1829.602
921.5310, 1829.349
922.0131, 1819.163
922.4952, 1811.444
922.9774, 1821.909
923.4595, 1838.469
923.9416, 1840.775
924.4237, 1828.764
924.9058, 1820.298
925.3879, 1825.906
925.8701, 1833.059
926.3522, 1835.078
926.8343, 1833.362
927.3164, 1842.370
927.7985, 1864.324
928.2806, 1876.547
928.7628, 1862.197
929.2449, 1838.127
929.7270, 1829.728
930.2091, 1833.401
930.6912, 1839.161
931.1733, 1847.986
931.6555, 1852.346
932.1376, 1845.987
932.6197, 1835.454
933.1018, 1831.969
933.5839, 1836.518
934.0660, 1841.527
934.5482, 1847.051
935.0303, 1848.286
935.5124, 1829.955
935.9945, 1805.507
936.4766, 1800.803
936.9587, 1830.697
937.4409, 1855.445
937.9230, 1859.320
938.4051, 1855.382
938.8872, 1853.792
939.3693, 1855.798
939.8514, 1851.225
940.3336, 1839.074
940.8157, 1827.970
941.2978, 1825.438
941.7799, 1828.252
942.2620, 1832.993
942.7441, 1839.138
943.2263, 1843.523
943.7084, 1845.250
944.1905, 1844.218
944.6726, 1838.950
945.1547, 1830.750
945.6368, 1827.861
946.1190, 1830.408
946.6011, 1835.968
947.0832, 1844.861
947.5653, 1854.643
948.0474, 1861.834
948.5295, 1867.450
949.0117, 1873.854
949.4938, 1884.540
949.9759, 1892.866
950.4580, 1901.120
950.9401, 1904.029
951.4222, 1888.255
951.9044, 1853.152
952.3865, 1836.253
952.8686, 1846.446
953.3507, 1861.826
953.8328, 1856.854
954.3149, 1844.208
954.7971, 1840.840
955.2792, 1853.306
955.7613, 1862.361
956.2434, 1865.196
956.7255, 1863.695
957.2076, 1855.817
957.6898, 1842.073
958.1719, 1845.633
958.6540, 1866.186
959.1361, 1880.867
959.6182, 1861.918
960.1003, 1839.435
960.5825, 1845.993
961.0646, 1876.596
961.5467, 1896.077
962.0288, 1890.936
962.5109, 1885.016
962.9930, 1884.548
963.4752, 1886.132
963.9573, 1877.554
964.4394, 1861.681
964.9215, 1857.082
965.4036, 1875.696
965.8857, 1895.740
966.3679, 1900.358
966.8500, 1895.607
967.3321, 1888.899
967.8142, 1873.491
968.2963, 1872.162
968.7784, 1890.130
969.2606, 1911.871
969.7427, 1920.231
970.2248, 1919.056
970.7069, 1923.688
971.1890, 1935.166
971.6711, 1943.067
972.1533, 1936.058
972.6354, 1926.818
973.1175, 1923.626
973.5996, 1926.792
974.0817, 1931.612
974.5638, 1938.254
975.0460, 1946.093
975.5281, 1955.924
976.0102, 1965.912
976.4923, 1970.959
976.9744, 1972.832
977.4565, 1976.725
977.9387, 1987.836
978.4208, 1997.917
978.9029, 2002.166
979.3850, 2004.644
979.8671, 2010.640
980.3492, 2020.277
980.8314, 2033.522
981.3135, 2051.304
981.7956, 2068.666
982.2777, 2081.722
982.7598, 2090.419
983.2419, 2091.528
983.7241, 2082.540
984.2062, 2083.871
984.6883, 2108.802
985.1704, 2138.499
985.6525, 2164.480
986.1346, 2187.653
986.6168, 2223.255
987.0989, 2270.462
987.5810, 2303.481
988.0631, 2295.027
988.5452, 2276.059
989.0273, 2274.607
989.5095, 2285.910
989.9916, 2297.798
990.4737, 2310.137
990.9558, 2320.076
991.4379, 2329.459
991.9200, 2333.056
992.4022, 2316.858
992.8843, 2286.632
993.3664, 2267.996
993.8485, 2267.303
994.3306, 2269.018
994.8127, 2266.289
995.2949, 2258.617
995.7770, 2242.148
996.2591, 2213.715
996.7412, 2204.364
997.2233, 2220.867
997.7054, 2232.014
998.1876, 2211.707
998.6697, 2175.665
999.1518, 2158.154
999.6339, 2156.030
1000.116, 2156.284
1000.598, 2157.440
1001.080, 2154.792
1001.562, 2141.979
1002.044, 2126.538
1002.527, 2123.115
1003.009, 2132.679
1003.491, 2141.156
1003.973, 2146.323
1004.455, 2147.989
1004.937, 2141.961
1005.419, 2134.132
1005.901, 2131.801
1006.384, 2136.547
1006.866, 2146.179
1007.348, 2164.445
1007.830, 2180.989
1008.312, 2191.130
1008.794, 2194.674
1009.276, 2187.042
1009.758, 2169.783
1010.240, 2155.553
1010.723, 2149.765
1011.205, 2151.283
1011.687, 2164.362
1012.169, 2183.854
1012.651, 2195.646
1013.133, 2196.255
1013.615, 2199.691
1014.097, 2209.648
1014.580, 2218.787
1015.062, 2210.691
1015.544, 2196.072
1016.026, 2197.359
1016.508, 2221.346
1016.990, 2245.379
1017.472, 2259.142
1017.954, 2271.551
1018.436, 2289.150
1018.919, 2311.216
1019.401, 2320.207
1019.883, 2316.063
1020.365, 2321.479
1020.847, 2363.411
1021.329, 2409.616
1021.811, 2427.959
1022.293, 2425.240
1022.776, 2418.271
1023.258, 2402.241
1023.740, 2395.722
1024.222, 2401.729
1024.704, 2415.896
1025.186, 2431.622
1025.668, 2450.414
1026.150, 2477.513
1026.632, 2514.046
1027.115, 2554.730
1027.597, 2600.863
1028.079, 2646.134
1028.561, 2682.553
1029.043, 2711.072
1029.525, 2759.575
1030.007, 2828.221
1030.489, 2908.198
1030.972, 2992.253
1031.454, 3088.869
1031.936, 3206.125
1032.418, 3347.333
1032.900, 3517.254
1033.382, 3697.101
1033.864, 3940.573
1034.346, 4245.669
1034.828, 4618.056
1035.311, 5052.178
1035.793, 5555.187
1036.275, 6149.891
1036.757, 6843.167
1037.239, 7614.674
1037.721, 8431.704
1038.203, 9339.568
1038.685, 10337.12
1039.167, 11435.43
1039.650, 12745.80
1040.132, 14259.19
1040.614, 15972.58
1041.096, 17805.47
1041.578, 19907.66
1042.060, 22315.53
1042.542, 25162.64
1043.024, 28769.85
1043.507, 33440.26
1043.989, 38497.62
1044.471, 45200.14
1044.953, 50748.57
1045.435, 53263.13
1045.917, 52766.46
1046.399, 48684.64
1046.881, 41167.61
1047.364, 33274.65
1047.846, 26227.27
1048.328, 20293.49
1048.810, 15814.37
1049.292, 12703.60
1049.774, 10266.27
1050.256, 8581.911
1050.738, 7282.374
1051.220, 6339.592
1051.703, 5634.202
1052.185, 5069.452
1052.667, 4622.571
1053.149, 4270.384
1053.631, 4021.388
1054.113, 3805.134
1054.595, 3605.346
1055.077, 3431.994
1055.559, 3294.585
1056.042, 3189.982
1056.524, 3087.664
1057.006, 2989.121
1057.488, 2906.537
1057.970, 2862.718
1058.452, 2820.249
1058.934, 2748.822
1059.416, 2663.947
1059.899, 2595.604
1060.381, 2546.057
1060.863, 2506.300
1061.345, 2476.380
1061.827, 2452.570
1062.309, 2429.438
1062.791, 2410.193
1063.273, 2406.070
1063.755, 2416.964
1064.238, 2410.624
1064.720, 2356.734
1065.202, 2312.517
1065.684, 2298.679
1066.166, 2303.215
1066.648, 2291.244
1067.130, 2266.959
1067.612, 2249.068
1068.094, 2245.010
1068.577, 2245.158
1069.059, 2248.559
1069.541, 2249.976
1070.023, 2244.617
1070.505, 2231.939
1070.987, 2211.812
1071.469, 2182.211
1071.951, 2162.289
1072.434, 2174.240
1072.916, 2196.384
1073.398, 2202.424
1073.880, 2196.451
1074.362, 2194.374
1074.844, 2206.477
1075.326, 2210.647
1075.808, 2202.379
1076.291, 2188.437
1076.773, 2174.628
1077.255, 2163.164
1077.737, 2164.697
1078.219, 2181.722
1078.701, 2190.345
1079.183, 2164.970
1079.665, 2141.813
1080.147, 2141.073
1080.630, 2158.171
1081.112, 2166.326
1081.594, 2165.718
1082.076, 2161.362
1082.558, 2152.533
1083.040, 2145.685
1083.522, 2147.068
1084.004, 2153.727
1084.486, 2162.783
1084.969, 2179.101
1085.451, 2180.956
1085.933, 2163.932
1086.415, 2149.023
1086.897, 2157.212
1087.379, 2175.777
1087.861, 2160.438
1088.343, 2189.665
1088.826, 2206.488
1089.308, 2211.572
1089.790, 2169.762
1090.272, 2188.505
1090.754, 2182.982
1091.236, 2176.463
1091.718, 2203.729
1092.200, 2168.740
1092.682, 2195.471
1093.165, 2197.566
1093.647, 2210.935
1094.129, 2199.887
1094.611, 2196.380
1095.093, 2217.299
1095.575, 2224.693
1096.057, 2210.834
1096.539, 2224.920
1097.022, 2189.080
1097.504, 2197.050
1097.986, 2223.923
1098.468, 2211.292
1098.950, 2225.824
1099.432, 2230.011
1099.914, 2187.183
1100.396, 2226.119
1100.879, 2229.696
1101.361, 2196.965
1101.843, 2233.099
1102.325, 2205.373
1102.807, 2200.441
1103.289, 2212.663
1103.771, 2207.002
1104.253, 2229.536
1104.735, 2224.908
1105.218, 2217.855
1105.700, 2221.391
1106.182, 2194.918
1106.664, 2224.118
1107.146, 2215.288
1107.628, 2225.362
1108.110, 2239.721
1108.592, 2221.271
1109.074, 2212.486
1109.557, 2202.771
1110.039, 2203.698
1110.521, 2215.450
1111.003, 2224.007
1111.485, 2224.366
1111.967, 2222.843
1112.449, 2224.094
1112.931, 2227.444
1113.414, 2232.195
1113.896, 2238.108
1114.378, 2247.135
1114.860, 2260.625
1115.342, 2271.342
1115.824, 2275.021
1116.306, 2273.622
1116.788, 2265.965
1117.271, 2256.204
1117.753, 2253.551
1118.235, 2271.025
1118.717, 2280.177
1119.199, 2276.424
1119.681, 2269.554
1120.163, 2267.330
1120.645, 2270.060
1121.127, 2283.005
1121.609, 2304.455
1122.092, 2317.166
1122.574, 2305.357
1123.056, 2291.461
1123.538, 2281.269
1124.020, 2274.975
1124.502, 2273.739
1124.984, 2277.130
1125.466, 2282.513
1125.949, 2289.878
1126.431, 2294.446
1126.913, 2288.526
1127.395, 2282.239
1127.877, 2283.354
1128.359, 2291.060
1128.841, 2300.810
1129.323, 2313.091
1129.806, 2318.035
1130.288, 2308.912
1130.770, 2297.861
1131.252, 2298.198
1131.734, 2303.572
1132.216, 2304.713
1132.698, 2296.701
1133.180, 2300.646
1133.662, 2319.725
1134.145, 2337.275
1134.627, 2342.503
1135.109, 2339.915
1135.591, 2335.044
1136.073, 2328.184
1136.555, 2320.216
1137.037, 2304.135
1137.519, 2299.714
1138.001, 2313.153
1138.484, 2327.662
1138.966, 2321.505
1139.448, 2303.967
1139.930, 2299.706
1140.412, 2308.293
1140.894, 2313.327
1141.376, 2300.383
1141.858, 2293.530
1142.341, 2302.815
1142.823, 2317.315
1143.305, 2314.053
1143.787, 2297.734
1144.269, 2290.106
1144.751, 2295.371
1145.233, 2302.879
1145.715, 2309.082
1146.198, 2313.271
1146.680, 2315.180
1147.162, 2314.998
1147.644, 2312.694
1148.126, 2308.504
1148.608, 2305.744
1149.090, 2305.577
1149.572, 2306.693
1150.054, 2308.224
1150.536, 2310.531
1151.019, 2315.508
1151.501, 2324.010
1151.983, 2320.531
1152.465, 2304.504
1152.947, 2290.204
1153.429, 2282.632
1153.911, 2283.267
1154.393, 2301.361
1154.876, 2326.299
1155.358, 2338.457
1155.840, 2331.563
1156.322, 2328.108
1156.804, 2328.795
1157.286, 2331.290
1157.768, 2335.400
1158.250, 2339.055
1158.733, 2335.375
1159.215, 2328.403
1159.697, 2335.166
1160.179, 2374.451
1160.661, 2388.901
1161.143, 2365.649
1161.625, 2333.969
1162.107, 2326.096
1162.589, 2333.442
1163.072, 2345.228
1163.554, 2359.735
1164.036, 2367.566
1164.518, 2361.533
1165.000, 2357.021
1165.482, 2358.619
1165.964, 2361.912
1166.446, 2356.589
1166.928, 2347.276
1167.411, 2344.245
1167.893, 2349.741
1168.375, 2359.249
1168.857, 2376.516
1169.339, 2391.124
1169.821, 2398.866
1170.303, 2401.174
1170.785, 2401.650
1171.268, 2400.316
1171.750, 2395.998
1172.232, 2383.813
1172.714, 2380.571
1173.196, 2404.678
1173.678, 2428.459
1174.160, 2431.739
1174.642, 2419.505
1175.125, 2427.676
1175.607, 2452.333
1176.089, 2471.546
1176.571, 2473.603
1177.053, 2469.985
1177.535, 2458.944
1178.017, 2449.722
1178.499, 2452.169
1178.981, 2466.149
1179.464, 2480.870
1179.946, 2495.423
1180.428, 2498.411
1180.910, 2463.800
1181.392, 2436.366
1181.874, 2446.563
1182.356, 2475.992
1182.838, 2498.556
1183.320, 2514.439
1183.803, 2520.727
1184.285, 2516.934
1184.767, 2513.568
1185.249, 2513.197
1185.731, 2521.033
1186.213, 2551.058
1186.695, 2590.651
1187.177, 2601.829
1187.660, 2582.137
1188.142, 2572.557
1188.624, 2580.613
1189.106, 2592.601
1189.588, 2594.786
1190.070, 2597.246
1190.552, 2610.198
1191.034, 2632.081
1191.516, 2650.094
1191.999, 2664.317
1192.481, 2673.761
1192.963, 2676.963
1193.445, 2680.623
1193.927, 2696.284
1194.409, 2712.500
1194.891, 2715.771
1195.373, 2705.043
1195.855, 2698.216
1196.338, 2695.245
1196.820, 2696.364
1197.302, 2702.433
1197.784, 2710.990
1198.266, 2719.801
1198.748, 2729.246
1199.230, 2740.952
1199.712, 2756.320
1200.195, 2762.262
1200.677, 2756.621
1201.159, 2757.073
1201.641, 2777.603
1202.123, 2803.170
1202.605, 2816.196
1203.087, 2822.423
1203.569, 2832.049
1204.052, 2848.723
1204.534, 2860.220
1205.016, 2865.484
1205.498, 2872.423
1205.980, 2887.545
1206.462, 2906.614
1206.944, 2929.151
1207.426, 2951.218
1207.908, 2961.690
1208.391, 2952.677
1208.873, 2953.411
1209.355, 2965.438
1209.837, 2985.576
1210.319, 3025.080
1210.801, 3060.326
1211.283, 3049.008
1211.765, 3008.652
1212.247, 3006.152
1212.730, 3061.477
1213.212, 3102.030
1213.694, 3118.022
1214.176, 3129.465
1214.658, 3159.751
1215.140, 3194.005
1215.622, 3210.715
1216.104, 3213.942
1216.587, 3233.979
1217.069, 3280.748
1217.551, 3313.529
1218.033, 3323.078
1218.515, 3328.757
1218.997, 3356.901
1219.479, 3389.843
1219.961, 3402.475
1220.443, 3395.609
1220.926, 3408.570
1221.408, 3446.768
1221.890, 3489.059
1222.372, 3533.466
1222.854, 3570.016
1223.336, 3579.969
1223.818, 3579.698
1224.300, 3586.532
1224.782, 3603.116
1225.265, 3625.590
1225.747, 3654.773
1226.229, 3686.364
1226.711, 3720.063
1227.193, 3752.828
1227.675, 3779.074
1228.157, 3803.498
1228.639, 3829.806
1229.122, 3858.341
1229.604, 3898.918
1230.086, 3953.597
1230.568, 4007.914
1231.050, 4056.768
1231.532, 4101.891
1232.014, 4140.727
1232.496, 4179.394
1232.979, 4228.359
1233.461, 4289.873
1233.943, 4343.774
1234.425, 4388.226
1234.907, 4438.981
1235.389, 4503.416
1235.871, 4577.583
1236.353, 4664.703
1236.835, 4757.502
1237.318, 4844.652
1237.800, 4924.565
1238.282, 5011.635
1238.764, 5105.549
1239.246, 5199.541
1239.728, 5282.928
1240.210, 5370.558
1240.692, 5469.567
1241.175, 5582.587
1241.657, 5714.665
1242.139, 5873.198
1242.621, 6000.017
1243.103, 6096.246
1243.585, 6196.478
1244.067, 6339.757
1244.549, 6478.398
1245.031, 6567.371
1245.514, 6640.816
1245.996, 6746.048
1246.478, 6886.633
1246.960, 7036.978
1247.442, 7195.738
1247.924, 7345.780
1248.406, 7465.896
1248.888, 7582.709
1249.370, 7710.400
1249.853, 7845.569
1250.335, 7979.154
1250.817, 8110.609
1251.299, 8282.165
1251.781, 8492.885
1252.263, 8711.140
1252.745, 8928.595
1253.227, 9135.392
1253.710, 9308.269
1254.192, 9483.729
1254.674, 9712.067
1255.156, 9987.147
1255.638, 10269.37
1256.120, 10555.46
1256.602, 10839.30
1257.084, 11113.16
1257.567, 11389.82
1258.049, 11663.44
1258.531, 11949.23
1259.013, 12275.17
1259.495, 12630.18
1259.977, 12969.56
1260.459, 13292.56
1260.941, 13632.44
1261.423, 14043.98
1261.906, 14410.45
1262.388, 14695.23
1262.870, 14944.14
1263.352, 15231.90
1263.834, 15528.95
1264.316, 15764.82
1264.798, 15933.29
1265.280, 16067.95
1265.762, 16190.55
1266.245, 16257.12
1266.727, 16256.40
1267.209, 16205.09
1267.691, 16124.02
1268.173, 16008.49
1268.655, 15851.76
1269.137, 15652.03
1269.619, 15406.45
1270.102, 15106.38
1270.584, 14792.11
1271.066, 14475.96
1271.548, 14141.84
1272.030, 13782.51
1272.512, 13396.95
1272.994, 12975.43
1273.476, 12524.07
1273.958, 12085.95
1274.441, 11664.77
1274.923, 11263.83
1275.405, 10889.23
1275.887, 10522.44
1276.369, 10155.33
1276.851, 9777.696
1277.333, 9366.900
1277.815, 8937.275
1278.297, 8566.773
1278.780, 8259.858
1279.262, 7978.896
1279.744, 7723.061
1280.226, 7474.085
1280.708, 7207.715
1281.190, 6949.049
1281.672, 6714.090
1282.154, 6499.913
1282.637, 6311.698
1283.119, 6145.813
1283.601, 5973.352
1284.083, 5782.952
1284.565, 5605.160
1285.047, 5472.284
1285.529, 5340.284
1286.011, 5181.523
1286.494, 5011.859
1286.976, 4886.850
1287.458, 4794.583
1287.940, 4695.817
1288.422, 4580.918
1288.904, 4473.305
1289.386, 4379.354
1289.868, 4298.813
1290.350, 4237.096
1290.833, 4182.881
1291.315, 4108.615
1291.797, 4027.018
1292.279, 3966.291
1292.761, 3934.836
1293.243, 3894.190
1293.725, 3838.236
1294.207, 3776.660
1294.689, 3709.127
1295.172, 3644.605
1295.654, 3598.666
1296.136, 3562.409
1296.618, 3523.042
1297.100, 3478.063
1297.582, 3446.287
1298.064, 3431.209
1298.546, 3402.903
1299.029, 3346.860
1299.511, 3291.082
1299.993, 3274.485
1300.475, 3266.094
1300.957, 3229.505
1301.439, 3170.782
1301.921, 3135.181
1302.403, 3121.696
1302.885, 3102.207
1303.368, 3065.543
1303.850, 3035.612
1304.332, 3043.318
1304.814, 3048.616
1305.296, 3024.172
1305.778, 2979.862
1306.260, 2947.513
1306.742, 2925.952
1307.224, 2909.698
1307.707, 2897.924
1308.189, 2889.735
1308.671, 2891.486
1309.153, 2887.334
1309.635, 2868.515
1310.117, 2844.438
1310.599, 2837.768
1311.081, 2840.418
1311.564, 2835.612
1312.046, 2819.002
1312.528, 2805.006
1313.010, 2793.976
1313.492, 2790.236
1313.974, 2799.317
1314.456, 2806.378
1314.938, 2783.687
##END=



