##NAMES=Nambulite
##RRUFFID=R060616
##IDEAL CHEMISTRY=LiMn^2+^_4_Si_5_O_14_(OH)
##LOCALITY=Kombat mine, Kombat, Grootfontein District, Otjozondjupa Region, Namibia
##OWNER=RRUFF
##SOURCE=Michael Scott
##DESCRIPTION=Pink colored fragment of a single crystal associated with gypsum
##STATUS=The identification of this mineral has been confirmed by single-crystal X-ray diffraction.
##URL=rruff.info/R060616
121.9430, 1160.179
122.4251, 1157.999
122.9073, 1154.285
123.3894, 1150.771
123.8715, 1148.105
124.3536, 1146.010
124.8357, 1143.840
125.3178, 1141.500
125.8000, 1139.271
126.2821, 1137.220
126.7642, 1135.361
127.2463, 1133.815
127.7284, 1132.830
128.2105, 1132.070
128.6927, 1130.765
129.1748, 1128.368
129.6569, 1126.307
130.1390, 1126.529
130.6211, 1129.565
131.1032, 1131.709
131.5854, 1130.437
132.0675, 1127.741
132.5496, 1125.264
133.0317, 1123.535
133.5138, 1122.467
133.9959, 1122.031
134.4781, 1123.259
134.9602, 1123.356
135.4423, 1120.886
135.9244, 1117.127
136.4065, 1113.705
136.8886, 1111.581
137.3708, 1110.694
137.8529, 1110.363
138.3350, 1111.435
138.8171, 1112.247
139.2992, 1112.147
139.7813, 1111.433
140.2635, 1110.910
140.7456, 1111.363
141.2277, 1113.032
141.7098, 1113.307
142.1919, 1111.354
142.6740, 1109.022
143.1561, 1106.711
143.6383, 1104.692
144.1204, 1103.895
144.6025, 1105.680
145.0846, 1110.627
145.5667, 1114.197
146.0488, 1115.485
146.5310, 1115.649
147.0131, 1115.604
147.4952, 1115.368
147.9773, 1115.648
148.4594, 1118.075
148.9415, 1122.221
149.4237, 1125.387
149.9058, 1125.330
150.3879, 1123.439
150.8700, 1123.842
151.3521, 1128.503
151.8342, 1133.889
152.3164, 1137.351
152.7985, 1138.968
153.2806, 1139.411
153.7627, 1139.167
154.2448, 1138.245
154.7269, 1136.208
155.2091, 1131.469
155.6912, 1126.702
156.1733, 1123.579
156.6554, 1122.088
157.1375, 1120.781
157.6196, 1117.332
158.1018, 1109.957
158.5839, 1105.827
159.0660, 1108.275
159.5481, 1111.626
160.0302, 1111.952
160.5123, 1108.446
160.9945, 1103.496
161.4766, 1101.352
161.9587, 1104.176
162.4408, 1106.852
162.9229, 1109.411
163.4050, 1111.776
163.8871, 1114.016
164.3693, 1116.154
164.8514, 1117.879
165.3335, 1118.337
165.8156, 1115.789
166.2977, 1114.415
166.7798, 1116.060
167.2620, 1118.904
167.7441, 1119.938
168.2262, 1117.608
168.7083, 1113.281
169.1904, 1110.750
169.6725, 1109.965
170.1547, 1110.416
170.6368, 1113.024
171.1189, 1117.013
171.6010, 1119.603
172.0831, 1119.096
172.5652, 1116.684
173.0474, 1114.996
173.5295, 1113.975
174.0116, 1113.765
174.4937, 1114.827
174.9758, 1117.159
175.4579, 1119.382
175.9401, 1121.133
176.4222, 1122.318
176.9043, 1122.621
177.3864, 1121.692
177.8685, 1120.585
178.3506, 1120.692
178.8328, 1122.277
179.3149, 1124.175
179.7970, 1125.689
180.2791, 1127.450
180.7612, 1130.351
181.2433, 1134.939
181.7255, 1140.007
182.2076, 1142.658
182.6897, 1140.730
183.1718, 1140.363
183.6539, 1144.624
184.1360, 1150.104
184.6181, 1153.010
185.1003, 1151.398
185.5824, 1146.710
186.0645, 1144.101
186.5466, 1145.468
187.0287, 1146.785
187.5108, 1147.767
187.9930, 1148.334
188.4751, 1148.490
188.9572, 1148.254
189.4393, 1147.561
189.9214, 1145.976
190.4035, 1143.180
190.8857, 1139.868
191.3678, 1135.342
191.8499, 1130.456
192.3320, 1126.705
192.8141, 1125.106
193.2962, 1125.324
193.7784, 1124.758
194.2605, 1122.894
194.7426, 1120.996
195.2247, 1119.512
195.7068, 1118.338
196.1889, 1117.041
196.6711, 1115.170
197.1532, 1113.065
197.6353, 1112.236
198.1174, 1113.611
198.5995, 1115.254
199.0816, 1115.999
199.5638, 1115.983
200.0459, 1116.210
200.5280, 1117.561
201.0101, 1119.482
201.4922, 1120.347
201.9743, 1119.308
202.4565, 1118.009
202.9386, 1117.799
203.4207, 1118.697
203.9028, 1120.061
204.3849, 1121.680
204.8670, 1123.554
205.3492, 1125.745
205.8313, 1128.547
206.3134, 1131.314
206.7955, 1133.274
207.2776, 1134.385
207.7597, 1134.873
208.2419, 1133.998
208.7240, 1132.857
209.2061, 1132.523
209.6882, 1133.368
210.1703, 1135.090
210.6524, 1137.495
211.1346, 1141.236
211.6167, 1143.856
212.0988, 1143.829
212.5809, 1142.749
213.0630, 1141.989
213.5451, 1142.056
214.0273, 1142.878
214.5094, 1144.429
214.9915, 1147.362
215.4736, 1149.844
215.9557, 1151.717
216.4378, 1152.979
216.9200, 1153.386
217.4021, 1152.785
217.8842, 1151.787
218.3663, 1152.156
218.8484, 1154.958
219.3305, 1157.708
219.8127, 1160.500
220.2948, 1162.955
220.7769, 1164.645
221.2590, 1165.373
221.7411, 1165.372
222.2232, 1165.289
222.7054, 1163.643
223.1875, 1163.856
223.6696, 1167.759
224.1517, 1173.035
224.6338, 1177.140
225.1159, 1178.962
225.5980, 1178.925
226.0802, 1178.219
226.5623, 1176.361
227.0444, 1174.377
227.5265, 1172.764
228.0086, 1170.940
228.4907, 1167.730
228.9729, 1162.531
229.4550, 1156.649
229.9371, 1153.716
230.4192, 1156.173
230.9013, 1157.565
231.3834, 1155.316
231.8656, 1151.765
232.3477, 1150.860
232.8298, 1154.422
233.3119, 1159.988
233.7940, 1161.814
234.2761, 1158.300
234.7583, 1155.880
235.2404, 1157.181
235.7225, 1160.459
236.2046, 1162.606
236.6867, 1162.453
237.1688, 1161.187
237.6510, 1161.146
238.1331, 1162.742
238.6152, 1163.180
239.0973, 1160.450
239.5794, 1155.954
240.0615, 1152.760
240.5437, 1151.850
241.0258, 1152.123
241.5079, 1152.142
241.9900, 1151.893
242.4721, 1151.933
242.9542, 1152.590
243.4364, 1153.718
243.9185, 1155.120
244.4006, 1157.135
244.8827, 1158.686
245.3648, 1158.227
245.8469, 1156.064
246.3290, 1154.454
246.8112, 1154.421
247.2933, 1155.779
247.7754, 1158.342
248.2575, 1163.171
248.7396, 1167.306
249.2217, 1168.252
249.7039, 1166.661
250.1860, 1164.589
250.6681, 1162.855
251.1502, 1161.467
251.6323, 1160.491
252.1144, 1160.122
252.5966, 1159.872
253.0787, 1159.399
253.5608, 1158.805
254.0429, 1158.300
254.5250, 1157.764
255.0071, 1157.398
255.4893, 1158.034
255.9714, 1159.976
256.4535, 1162.539
256.9356, 1165.212
257.4177, 1168.192
257.8998, 1171.888
258.3820, 1176.732
258.8641, 1182.341
259.3462, 1187.414
259.8283, 1192.016
260.3104, 1195.862
260.7925, 1198.264
261.2747, 1200.186
261.7568, 1203.018
262.2389, 1207.652
262.7210, 1213.276
263.2031, 1217.582
263.6852, 1220.101
264.1674, 1221.964
264.6495, 1223.238
265.1316, 1224.204
265.6137, 1225.038
266.0958, 1225.792
266.5779, 1226.677
267.0601, 1228.295
267.5422, 1231.339
268.0243, 1233.856
268.5064, 1236.326
268.9885, 1237.872
269.4706, 1237.322
269.9528, 1234.330
270.4349, 1230.144
270.9170, 1227.167
271.3991, 1226.112
271.8812, 1224.948
272.3633, 1223.971
272.8455, 1222.584
273.3276, 1219.860
273.8097, 1215.767
274.2918, 1211.632
274.7739, 1209.757
275.2560, 1212.195
275.7382, 1212.458
276.2202, 1208.419
276.7024, 1204.249
277.1845, 1202.784
277.6666, 1204.262
278.1487, 1206.849
278.6308, 1208.382
279.1129, 1208.622
279.5951, 1208.547
280.0772, 1207.658
280.5593, 1206.925
281.0414, 1207.024
281.5235, 1207.841
282.0056, 1208.668
282.4878, 1208.707
282.9699, 1207.684
283.4520, 1207.984
283.9341, 1210.900
284.4162, 1213.697
284.8983, 1215.131
285.3805, 1215.484
285.8626, 1215.675
286.3447, 1216.344
286.8268, 1217.496
287.3089, 1219.546
287.7910, 1222.582
288.2732, 1226.323
288.7553, 1230.977
289.2374, 1236.265
289.7195, 1241.970
290.2016, 1248.126
290.6837, 1254.247
291.1659, 1257.619
291.6480, 1255.646
292.1301, 1253.941
292.6122, 1253.861
293.0943, 1254.467
293.5764, 1254.337
294.0586, 1252.804
294.5407, 1250.342
295.0228, 1248.223
295.5049, 1246.845
295.9870, 1245.340
296.4691, 1243.044
296.9513, 1240.887
297.4334, 1240.372
297.9155, 1241.905
298.3976, 1243.792
298.8797, 1243.112
299.3618, 1237.833
299.8440, 1233.626
300.3261, 1230.998
300.8082, 1229.123
301.2903, 1227.314
301.7724, 1225.455
302.2545, 1223.855
302.7367, 1222.944
303.2188, 1223.038
303.7009, 1222.560
304.1830, 1221.157
304.6651, 1219.515
305.1472, 1217.765
305.6294, 1216.077
306.1115, 1214.989
306.5936, 1215.111
307.0757, 1216.551
307.5578, 1216.912
308.0399, 1216.374
308.5221, 1214.823
309.0042, 1211.406
309.4863, 1206.848
309.9684, 1202.947
310.4505, 1200.899
310.9326, 1200.464
311.4148, 1200.078
311.8969, 1198.939
312.3790, 1198.747
312.8611, 1200.648
313.3432, 1203.634
313.8253, 1206.121
314.3075, 1207.379
314.7896, 1207.770
315.2717, 1208.238
315.7538, 1210.095
316.2359, 1210.118
316.7180, 1205.461
317.2001, 1199.981
317.6823, 1198.419
318.1644, 1202.057
318.6465, 1207.868
319.1286, 1211.360
319.6107, 1211.273
320.0928, 1211.571
320.5750, 1211.652
321.0571, 1212.494
321.5392, 1215.663
322.0213, 1220.907
322.5034, 1225.714
322.9855, 1227.390
323.4677, 1225.346
323.9498, 1224.273
324.4319, 1224.546
324.9140, 1225.256
325.3961, 1226.187
325.8782, 1227.197
326.3604, 1228.098
326.8425, 1228.809
327.3246, 1229.292
327.8067, 1229.019
328.2888, 1227.696
328.7709, 1226.104
329.2531, 1224.019
329.7352, 1221.885
330.2173, 1220.387
330.6994, 1219.858
331.1815, 1220.105
331.6636, 1220.611
332.1458, 1222.426
332.6279, 1223.166
333.1100, 1222.123
333.5921, 1220.289
334.0742, 1218.219
334.5563, 1216.197
335.0385, 1214.984
335.5206, 1215.990
336.0027, 1221.333
336.4848, 1223.192
336.9669, 1218.762
337.4490, 1213.452
337.9312, 1210.654
338.4133, 1210.538
338.8954, 1211.525
339.3775, 1212.307
339.8596, 1212.959
340.3417, 1212.404
340.8239, 1209.165
341.3060, 1206.410
341.7881, 1205.791
342.2702, 1206.492
342.7523, 1206.701
343.2344, 1205.254
343.7166, 1202.551
344.1987, 1200.560
344.6808, 1199.275
345.1629, 1198.821
345.6450, 1199.800
346.1271, 1201.392
346.6093, 1202.860
347.0914, 1203.895
347.5735, 1204.422
348.0556, 1204.256
348.5377, 1203.171
349.0198, 1201.739
349.5020, 1199.221
349.9841, 1196.961
350.4662, 1196.145
350.9483, 1196.740
351.4304, 1197.673
351.9125, 1197.806
352.3947, 1197.035
352.8768, 1196.155
353.3589, 1195.119
353.8410, 1194.024
354.3231, 1192.181
354.8052, 1190.316
355.2874, 1190.165
355.7695, 1193.316
356.2516, 1198.738
356.7337, 1200.432
357.2158, 1194.347
357.6979, 1189.924
358.1800, 1189.336
358.6621, 1190.962
359.1443, 1193.282
359.6264, 1195.714
360.1085, 1197.986
360.5906, 1199.502
361.0727, 1199.777
361.5548, 1200.583
362.0370, 1202.645
362.5191, 1204.845
363.0012, 1206.588
363.4833, 1207.789
363.9654, 1208.577
364.4475, 1208.845
364.9297, 1208.517
365.4118, 1208.920
365.8939, 1209.918
366.3760, 1211.914
366.8581, 1215.500
367.3402, 1220.128
367.8224, 1224.784
368.3045, 1228.973
368.7866, 1232.666
369.2687, 1235.790
369.7508, 1238.360
370.2329, 1240.269
370.7151, 1241.569
371.1972, 1242.231
371.6793, 1242.178
372.1614, 1241.379
372.6435, 1239.936
373.1256, 1237.512
373.6078, 1233.960
374.0899, 1231.658
374.5720, 1231.766
375.0541, 1232.786
375.5362, 1234.089
376.0183, 1235.491
376.5005, 1235.972
376.9826, 1234.224
377.4647, 1230.919
377.9468, 1228.617
378.4289, 1227.775
378.9110, 1227.244
379.3932, 1226.255
379.8753, 1225.004
380.3574, 1223.905
380.8395, 1223.440
381.3216, 1222.844
381.8037, 1220.987
382.2859, 1217.839
382.7680, 1214.736
383.2501, 1212.245
383.7322, 1210.165
384.2143, 1208.034
384.6964, 1205.745
385.1786, 1203.821
385.6607, 1202.582
386.1428, 1201.963
386.6249, 1202.037
387.1070, 1203.158
387.5891, 1204.047
388.0713, 1202.690
388.5534, 1199.332
389.0355, 1196.711
389.5176, 1195.197
389.9997, 1194.787
390.4818, 1196.202
390.9640, 1199.282
391.4461, 1201.550
391.9282, 1201.026
392.4103, 1198.285
392.8924, 1196.721
393.3745, 1197.075
393.8567, 1197.668
394.3388, 1198.061
394.8209, 1198.201
395.3030, 1197.919
395.7851, 1197.119
396.2672, 1196.025
396.7494, 1194.918
397.2315, 1193.311
397.7136, 1192.966
398.1957, 1194.707
398.6778, 1197.227
399.1599, 1199.407
399.6420, 1201.179
400.1241, 1203.281
400.6063, 1206.513
401.0884, 1210.960
401.5705, 1214.042
402.0526, 1216.293
402.5347, 1216.856
403.0168, 1213.762
403.4990, 1209.154
403.9811, 1206.636
404.4632, 1207.971
404.9453, 1211.573
405.4274, 1213.592
405.9095, 1213.094
406.3917, 1212.492
406.8738, 1210.849
407.3559, 1209.872
407.8380, 1211.158
408.3201, 1214.631
408.8022, 1218.688
409.2844, 1221.792
409.7665, 1223.863
410.2486, 1225.955
410.7307, 1229.330
411.2128, 1231.224
411.6949, 1229.754
412.1771, 1226.486
412.6592, 1224.022
413.1413, 1223.763
413.6234, 1224.581
414.1055, 1223.901
414.5876, 1221.066
415.0698, 1218.722
415.5519, 1218.108
416.0340, 1217.803
416.5161, 1216.733
416.9982, 1214.812
417.4803, 1212.967
417.9625, 1211.893
418.4446, 1211.558
418.9267, 1211.795
419.4088, 1212.929
419.8909, 1214.037
420.3730, 1214.717
420.8552, 1214.938
421.3373, 1214.557
421.8194, 1213.498
422.3015, 1211.850
422.7836, 1209.270
423.2657, 1205.786
423.7479, 1203.272
424.2300, 1203.131
424.7121, 1203.779
425.1942, 1202.395
425.6763, 1198.411
426.1584, 1195.369
426.6406, 1195.591
427.1227, 1197.512
427.6048, 1198.400
428.0869, 1197.754
428.5690, 1196.859
429.0511, 1196.954
429.5333, 1198.040
430.0154, 1198.565
430.4975, 1197.486
430.9796, 1196.819
431.4617, 1198.006
431.9438, 1200.520
432.4260, 1203.238
432.9081, 1205.777
433.3902, 1207.572
433.8723, 1207.170
434.3544, 1202.773
434.8365, 1199.062
435.3187, 1195.851
435.8008, 1193.594
436.2829, 1193.436
436.7650, 1195.030
437.2471, 1196.104
437.7292, 1194.241
438.2114, 1189.298
438.6935, 1186.959
439.1756, 1190.239
439.6577, 1192.814
440.1398, 1192.852
440.6219, 1191.479
441.1040, 1190.171
441.5862, 1189.562
442.0683, 1189.512
442.5504, 1189.811
443.0325, 1190.550
443.5146, 1191.393
443.9967, 1192.331
444.4789, 1193.362
444.9610, 1194.741
445.4431, 1196.273
445.9252, 1197.332
446.4073, 1197.286
446.8894, 1196.422
447.3716, 1195.775
447.8537, 1195.226
448.3358, 1195.184
448.8179, 1196.426
449.3000, 1198.002
449.7821, 1198.825
450.2643, 1198.568
450.7464, 1198.037
451.2285, 1198.048
451.7106, 1198.430
452.1927, 1198.094
452.6748, 1196.292
453.1570, 1194.830
453.6391, 1196.338
454.1212, 1200.094
454.6033, 1202.741
455.0854, 1203.135
455.5675, 1202.360
456.0497, 1200.691
456.5318, 1198.456
457.0139, 1197.333
457.4960, 1198.294
457.9781, 1200.781
458.4602, 1203.575
458.9424, 1208.002
459.4245, 1210.061
459.9066, 1206.687
460.3887, 1201.926
460.8708, 1200.042
461.3529, 1201.564
461.8351, 1204.328
462.3172, 1206.496
462.7993, 1208.069
463.2814, 1208.547
463.7635, 1207.798
464.2456, 1206.196
464.7278, 1202.362
465.2099, 1198.199
465.6920, 1196.614
466.1741, 1198.659
466.6562, 1202.308
467.1383, 1204.006
467.6205, 1202.827
468.1026, 1202.621
468.5847, 1203.236
469.0668, 1205.132
469.5489, 1210.262
470.0310, 1217.027
470.5132, 1221.166
470.9953, 1219.165
471.4774, 1213.680
471.9595, 1211.363
472.4416, 1212.524
472.9237, 1215.780
473.4059, 1224.365
473.8880, 1232.546
474.3701, 1234.439
474.8522, 1229.236
475.3343, 1222.509
475.8164, 1216.792
476.2986, 1212.328
476.7807, 1209.925
477.2628, 1209.899
477.7449, 1210.777
478.2270, 1211.873
478.7091, 1212.995
479.1913, 1213.404
479.6734, 1211.764
480.1555, 1210.840
480.6376, 1212.563
481.1197, 1215.981
481.6018, 1219.229
482.0839, 1221.724
482.5660, 1223.619
483.0482, 1225.148
483.5303, 1226.333
484.0124, 1226.879
484.4945, 1226.463
484.9766, 1225.754
485.4587, 1224.950
485.9409, 1224.143
486.4230, 1223.415
486.9051, 1222.800
487.3872, 1222.362
487.8693, 1222.368
488.3514, 1223.405
488.8336, 1223.764
489.3157, 1223.000
489.7978, 1221.891
490.2799, 1220.749
490.7620, 1219.721
491.2441, 1219.040
491.7263, 1218.902
492.2084, 1219.274
492.6905, 1220.078
493.1726, 1221.607
493.6547, 1222.875
494.1368, 1223.103
494.6190, 1223.045
495.1011, 1223.491
495.5832, 1224.612
496.0653, 1225.919
496.5474, 1227.164
497.0295, 1228.294
497.5117, 1229.053
497.9938, 1229.304
498.4759, 1229.614
498.9580, 1230.820
499.4401, 1232.562
499.9222, 1233.022
500.4044, 1230.684
500.8865, 1228.484
501.3686, 1228.125
501.8507, 1228.966
502.3328, 1229.779
502.8149, 1230.161
503.2971, 1230.130
503.7792, 1229.623
504.2613, 1228.314
504.7434, 1227.767
505.2255, 1228.988
505.7076, 1229.910
506.1898, 1229.135
506.6719, 1227.356
507.1540, 1226.135
507.6361, 1226.314
508.1182, 1227.264
508.6003, 1227.531
509.0825, 1226.936
509.5646, 1226.138
510.0467, 1224.983
510.5288, 1223.821
511.0109, 1222.903
511.4930, 1222.160
511.9752, 1221.284
512.4573, 1219.886
512.9394, 1218.349
513.4215, 1217.545
513.9036, 1217.508
514.3857, 1218.026
514.8679, 1219.774
515.3500, 1221.459
515.8321, 1221.319
516.3142, 1219.135
516.7963, 1216.835
517.2784, 1214.845
517.7606, 1213.406
518.2427, 1213.117
518.7248, 1213.961
519.2069, 1214.834
519.6890, 1214.983
520.1711, 1214.573
520.6533, 1214.418
521.1354, 1214.602
521.6175, 1214.881
522.0996, 1215.595
522.5817, 1216.169
523.0638, 1215.671
523.5460, 1214.167
524.0281, 1212.861
524.5102, 1212.859
524.9923, 1214.144
525.4744, 1216.384
525.9565, 1220.586
526.4387, 1224.427
526.9208, 1227.728
527.4029, 1230.323
527.8850, 1231.797
528.3671, 1232.110
528.8492, 1232.215
529.3314, 1233.472
529.8135, 1235.654
530.2956, 1236.359
530.7777, 1234.978
531.2598, 1233.107
531.7419, 1230.718
532.2241, 1228.716
532.7062, 1228.986
533.1883, 1233.034
533.6704, 1237.035
534.1525, 1238.641
534.6346, 1238.234
535.1168, 1236.400
535.5989, 1233.164
536.0810, 1229.646
536.5631, 1227.084
537.0452, 1225.528
537.5273, 1223.134
538.0095, 1217.681
538.4916, 1213.926
538.9737, 1215.283
539.4558, 1218.879
539.9379, 1220.106
540.4200, 1217.575
540.9022, 1213.939
541.3843, 1213.146
541.8664, 1216.035
542.3485, 1217.022
542.8306, 1213.851
543.3127, 1211.175
543.7948, 1210.649
544.2769, 1211.499
544.7590, 1212.679
545.2411, 1213.908
545.7233, 1214.661
546.2054, 1214.134
546.6875, 1212.392
547.1696, 1210.354
547.6517, 1207.808
548.1339, 1205.648
548.6160, 1204.877
549.0981, 1205.115
549.5802, 1205.394
550.0623, 1205.462
550.5444, 1205.600
551.0266, 1206.157
551.5087, 1206.907
551.9908, 1207.344
552.4729, 1207.315
552.9550, 1206.929
553.4371, 1206.264
553.9193, 1205.218
554.4014, 1204.524
554.8835, 1204.648
555.3656, 1204.571
555.8477, 1203.743
556.3298, 1202.544
556.8120, 1201.517
557.2941, 1200.865
557.7762, 1200.501
558.2583, 1200.232
558.7404, 1199.999
559.2225, 1200.363
559.7047, 1201.628
560.1868, 1203.127
560.6689, 1205.249
561.1510, 1207.201
561.6331, 1207.473
562.1152, 1205.178
562.5974, 1202.309
563.0795, 1200.588
563.5616, 1199.808
564.0437, 1199.122
564.5258, 1198.252
565.0079, 1198.019
565.4901, 1199.644
565.9722, 1202.945
566.4543, 1204.489
566.9364, 1203.070
567.4185, 1201.304
567.9006, 1199.870
568.3828, 1198.823
568.8649, 1198.238
569.3470, 1198.119
569.8291, 1198.314
570.3112, 1198.665
570.7933, 1199.173
571.2755, 1199.839
571.7576, 1200.883
572.2397, 1201.804
572.7218, 1202.398
573.2039, 1202.849
573.6860, 1203.561
574.1682, 1204.604
574.6503, 1205.148
575.1324, 1203.526
575.6145, 1200.558
576.0966, 1200.507
576.5787, 1204.538
577.0609, 1207.833
577.5430, 1206.687
578.0251, 1202.964
578.5072, 1201.154
578.9893, 1201.540
579.4714, 1203.399
579.9536, 1208.507
580.4357, 1213.870
580.9178, 1215.381
581.3999, 1212.867
581.8820, 1209.315
582.3641, 1206.897
582.8463, 1205.458
583.3284, 1204.040
583.8105, 1202.184
584.2926, 1201.065
584.7747, 1201.737
585.2568, 1202.413
585.7390, 1201.103
586.2211, 1198.235
586.7032, 1196.378
587.1853, 1197.835
587.6674, 1201.271
588.1495, 1203.151
588.6317, 1203.382
589.1138, 1202.491
589.5959, 1199.578
590.0780, 1196.631
590.5601, 1196.171
591.0422, 1198.144
591.5244, 1200.101
592.0065, 1201.008
592.4886, 1201.801
592.9707, 1203.467
593.4528, 1205.765
593.9349, 1207.853
594.4171, 1209.370
594.8992, 1210.336
595.3813, 1210.667
595.8634, 1209.746
596.3455, 1210.049
596.8276, 1213.057
597.3098, 1215.551
597.7919, 1215.663
598.2740, 1214.469
598.7561, 1213.665
599.2382, 1213.906
599.7203, 1215.355
600.2025, 1219.030
600.6846, 1224.836
601.1667, 1228.585
601.6488, 1229.578
602.1309, 1229.032
602.6130, 1226.439
603.0952, 1223.068
603.5773, 1221.725
604.0594, 1223.708
604.5415, 1225.971
605.0236, 1226.978
605.5057, 1227.279
605.9879, 1227.701
606.4700, 1228.374
606.9521, 1228.966
607.4342, 1229.137
607.9163, 1228.996
608.3984, 1229.398
608.8806, 1230.523
609.3627, 1231.968
609.8448, 1234.201
610.3269, 1236.338
610.8090, 1237.968
611.2911, 1238.880
611.7733, 1238.580
612.2554, 1236.046
612.7375, 1232.677
613.2196, 1232.247
613.7017, 1235.127
614.1838, 1236.916
614.6660, 1235.849
615.1481, 1233.707
615.6302, 1232.462
616.1123, 1232.053
616.5944, 1231.845
617.0765, 1232.295
617.5587, 1232.363
618.0408, 1230.697
618.5229, 1228.195
619.0050, 1226.900
619.4871, 1227.512
619.9692, 1229.021
620.4514, 1230.074
620.9335, 1230.571
621.4156, 1231.337
621.8977, 1231.297
622.3798, 1232.898
622.8619, 1239.142
623.3441, 1246.152
623.8262, 1249.200
624.3083, 1247.211
624.7904, 1243.496
625.2725, 1240.083
625.7546, 1237.176
626.2367, 1235.378
626.7188, 1234.744
627.2009, 1234.975
627.6830, 1235.993
628.1652, 1237.720
628.6473, 1240.409
629.1294, 1245.013
629.6115, 1247.450
630.0936, 1245.086
630.5757, 1242.109
631.0579, 1241.321
631.5400, 1242.537
632.0221, 1244.674
632.5042, 1247.200
632.9863, 1249.855
633.4684, 1252.192
633.9506, 1254.240
634.4327, 1255.841
634.9148, 1256.723
635.3969, 1257.459
635.8790, 1258.493
636.3611, 1259.546
636.8433, 1259.814
637.3254, 1258.458
637.8075, 1258.356
638.2896, 1263.244
638.7717, 1270.368
639.2538, 1273.825
639.7360, 1272.913
640.2181, 1272.107
640.7002, 1274.648
641.1823, 1279.690
641.6644, 1283.811
642.1465, 1285.648
642.6287, 1288.431
643.1108, 1293.049
643.5929, 1297.892
644.0750, 1301.515
644.5571, 1304.422
645.0392, 1308.323
645.5214, 1314.257
646.0035, 1321.275
646.4856, 1327.576
646.9677, 1333.168
647.4498, 1339.888
647.9319, 1348.172
648.4141, 1357.345
648.8962, 1367.090
649.3783, 1377.311
649.8604, 1387.332
650.3425, 1397.079
650.8246, 1406.624
651.3068, 1414.414
651.7889, 1422.791
652.2710, 1435.038
652.7531, 1451.231
653.2352, 1468.691
653.7173, 1485.311
654.1995, 1501.507
654.6816, 1519.150
655.1637, 1538.083
655.6458, 1558.727
656.1279, 1581.744
656.6100, 1606.109
657.0922, 1631.656
657.5743, 1658.195
658.0564, 1685.110
658.5385, 1713.132
659.0206, 1740.263
659.5027, 1764.719
659.9849, 1786.701
660.4670, 1807.391
660.9491, 1827.036
661.4312, 1844.252
661.9133, 1857.960
662.3954, 1868.176
662.8776, 1874.838
663.3597, 1879.766
663.8418, 1878.536
664.3239, 1867.522
664.8060, 1852.573
665.2881, 1838.841
665.7703, 1825.965
666.2524, 1809.918
666.7345, 1787.590
667.2166, 1761.308
667.6987, 1734.810
668.1808, 1708.083
668.6630, 1680.141
669.1451, 1649.961
669.6272, 1620.728
670.1093, 1596.179
670.5914, 1575.990
671.0735, 1555.972
671.5557, 1535.187
672.0378, 1515.621
672.5199, 1498.313
673.0020, 1482.506
673.4841, 1467.469
673.9662, 1453.019
674.4484, 1438.943
674.9305, 1424.842
675.4126, 1411.218
675.8947, 1399.721
676.3768, 1390.574
676.8589, 1382.626
677.3411, 1375.824
677.8232, 1369.972
678.3053, 1364.580
678.7874, 1359.878
679.2695, 1356.852
679.7516, 1356.806
680.2338, 1357.133
680.7159, 1356.503
681.1980, 1355.180
681.6801, 1353.285
682.1622, 1350.983
682.6443, 1349.099
683.1265, 1348.425
683.6086, 1348.579
684.0907, 1347.654
684.5728, 1345.053
685.0549, 1342.655
685.5370, 1340.763
686.0192, 1339.088
686.5013, 1337.801
686.9834, 1336.602
687.4655, 1334.712
687.9476, 1331.826
688.4297, 1328.178
688.9119, 1323.213
689.3940, 1317.779
689.8761, 1314.218
690.3582, 1312.877
690.8403, 1311.756
691.3224, 1309.448
691.8046, 1305.971
692.2867, 1301.229
692.7688, 1293.296
693.2509, 1287.259
693.7330, 1285.125
694.2151, 1283.199
694.6973, 1278.635
695.1794, 1272.511
695.6615, 1267.915
696.1436, 1266.453
696.6257, 1265.943
697.1078, 1263.616
697.5900, 1260.202
698.0721, 1258.437
698.5542, 1258.796
699.0363, 1259.504
699.5184, 1259.432
700.0005, 1258.745
700.4827, 1258.029
700.9648, 1257.316
701.4469, 1256.502
701.9290, 1255.001
702.4111, 1253.943
702.8932, 1254.420
703.3754, 1255.784
703.8575, 1256.417
704.3396, 1255.559
704.8217, 1255.015
705.3038, 1257.980
705.7859, 1263.373
706.2681, 1265.565
706.7502, 1263.702
707.2323, 1261.501
707.7144, 1260.887
708.1965, 1261.356
708.6786, 1261.792
709.1607, 1262.149
709.6428, 1262.600
710.1249, 1263.002
710.6071, 1263.656
711.0892, 1265.225
711.5713, 1267.010
712.0534, 1267.785
712.5355, 1267.161
713.0176, 1265.937
713.4998, 1264.698
713.9819, 1263.576
714.4640, 1263.638
714.9461, 1265.250
715.4282, 1265.607
715.9103, 1262.659
716.3925, 1258.819
716.8746, 1258.338
717.3567, 1261.777
717.8388, 1263.262
718.3209, 1260.943
718.8030, 1258.051
719.2852, 1255.747
719.7673, 1253.961
720.2494, 1252.565
720.7315, 1251.473
721.2136, 1250.417
721.6957, 1249.025
722.1779, 1247.527
722.6600, 1247.031
723.1421, 1247.731
723.6242, 1247.615
724.1063, 1245.844
724.5884, 1243.465
725.0706, 1241.305
725.5527, 1239.404
726.0348, 1238.453
726.5169, 1238.983
726.9990, 1239.861
727.4811, 1240.607
727.9633, 1241.580
728.4454, 1243.367
728.9275, 1245.844
729.4096, 1248.293
729.8917, 1250.316
730.3738, 1251.775
730.8560, 1252.594
731.3381, 1252.800
731.8202, 1250.958
732.3023, 1245.971
732.7844, 1240.989
733.2665, 1238.285
733.7487, 1237.478
734.2308, 1236.900
734.7129, 1236.637
735.1950, 1236.437
735.6771, 1236.018
736.1592, 1235.841
736.6414, 1236.635
737.1235, 1237.946
737.6056, 1238.581
738.0877, 1237.990
738.5698, 1236.952
739.0519, 1236.310
739.5341, 1236.107
740.0162, 1237.016
740.4983, 1239.383
740.9804, 1241.363
741.4625, 1242.094
741.9446, 1241.862
742.4268, 1240.895
742.9089, 1238.832
743.3910, 1237.890
743.8731, 1238.770
744.3552, 1240.240
744.8373, 1242.158
745.3195, 1244.094
745.8016, 1245.646
746.2837, 1246.656
746.7658, 1246.955
747.2479, 1246.066
747.7300, 1244.526
748.2122, 1243.869
748.6943, 1244.112
749.1764, 1244.599
749.6585, 1245.592
750.1406, 1245.549
750.6227, 1242.220
751.1049, 1235.779
751.5870, 1231.878
752.0691, 1232.332
752.5512, 1232.654
753.0333, 1231.282
753.5154, 1230.063
753.9976, 1231.028
754.4797, 1233.602
754.9618, 1235.528
755.4439, 1235.568
755.9260, 1234.807
756.4081, 1234.793
756.8903, 1235.228
757.3724, 1234.667
757.8545, 1232.863
758.3366, 1231.302
758.8187, 1230.898
759.3008, 1231.348
759.7830, 1231.889
760.2651, 1232.463
760.7472, 1233.306
761.2293, 1235.146
761.7114, 1236.438
762.1935, 1236.002
762.6757, 1234.910
763.1578, 1234.648
763.6399, 1235.540
764.1220, 1236.690
764.6041, 1236.750
765.0862, 1237.089
765.5684, 1240.555
766.0505, 1246.445
766.5326, 1251.283
767.0147, 1253.993
767.4968, 1254.969
767.9789, 1254.508
768.4611, 1252.646
768.9432, 1250.458
769.4253, 1247.374
769.9074, 1244.913
770.3895, 1244.043
770.8716, 1243.177
771.3538, 1240.845
771.8359, 1237.598
772.3180, 1235.360
772.8001, 1235.086
773.2822, 1235.248
773.7643, 1234.398
774.2465, 1233.558
774.7286, 1234.867
775.2107, 1237.955
775.6928, 1239.949
776.1749, 1239.180
776.6570, 1237.120
777.1392, 1236.623
777.6213, 1237.909
778.1034, 1239.355
778.5855, 1241.677
779.0676, 1242.705
779.5497, 1240.165
780.0319, 1236.583
780.5140, 1235.461
780.9961, 1237.045
781.4782, 1238.135
781.9603, 1237.929
782.4424, 1237.041
782.9246, 1234.957
783.4067, 1232.793
783.8888, 1232.659
784.3709, 1234.551
784.8530, 1235.835
785.3351, 1234.016
785.8173, 1230.761
786.2994, 1230.616
786.7815, 1233.586
787.2636, 1235.697
787.7457, 1236.089
788.2278, 1235.896
788.7100, 1235.395
789.1921, 1235.113
789.6742, 1237.264
790.1563, 1243.845
790.6384, 1249.107
791.1205, 1252.242
791.6026, 1254.515
792.0847, 1256.732
792.5668, 1258.570
793.0490, 1259.680
793.5311, 1259.931
794.0132, 1258.492
794.4953, 1253.382
794.9774, 1246.758
795.4595, 1242.661
795.9417, 1240.768
796.4238, 1238.592
796.9059, 1235.235
797.3880, 1232.477
797.8701, 1232.487
798.3522, 1235.029
798.8344, 1236.323
799.3165, 1235.417
799.7986, 1235.063
800.2807, 1236.794
800.7628, 1238.176
801.2449, 1236.848
801.7271, 1234.041
802.2092, 1233.267
802.6913, 1236.023
803.1734, 1239.166
803.6555, 1240.863
804.1376, 1242.303
804.6198, 1245.995
805.1019, 1250.590
805.5840, 1251.361
806.0661, 1246.346
806.5482, 1240.197
807.0303, 1239.514
807.5125, 1243.641
807.9946, 1246.059
808.4767, 1246.336
808.9588, 1247.697
809.4409, 1252.290
809.9230, 1256.600
810.4052, 1256.043
810.8873, 1250.601
811.3694, 1247.194
811.8515, 1247.405
812.3336, 1247.458
812.8157, 1246.251
813.2979, 1244.902
813.7800, 1244.259
814.2621, 1244.273
814.7442, 1244.287
815.2263, 1243.762
815.7084, 1244.519
816.1906, 1249.674
816.6727, 1256.931
817.1548, 1261.877
817.6369, 1264.220
818.1190, 1264.251
818.6011, 1261.919
819.0833, 1259.103
819.5654, 1258.649
820.0475, 1260.665
820.5296, 1261.670
821.0117, 1260.486
821.4938, 1260.739
821.9760, 1264.674
822.4581, 1269.262
822.9402, 1273.142
823.4223, 1275.760
823.9044, 1274.570
824.3865, 1266.916
824.8687, 1258.701
825.3508, 1250.234
825.8329, 1243.720
826.3150, 1242.657
826.7971, 1245.436
827.2792, 1247.443
827.7614, 1246.646
828.2435, 1244.619
828.7256, 1242.932
829.2077, 1241.631
829.6898, 1241.004
830.1719, 1241.057
830.6541, 1241.106
831.1362, 1240.861
831.6183, 1240.655
832.1004, 1240.902
832.5825, 1241.591
833.0646, 1242.295
833.5468, 1243.207
834.0289, 1243.814
834.5110, 1243.470
834.9931, 1243.370
835.4752, 1244.842
835.9573, 1247.103
836.4395, 1247.998
836.9216, 1246.515
837.4037, 1245.233
837.8858, 1245.879
838.3679, 1247.122
838.8500, 1247.957
839.3322, 1248.142
839.8143, 1247.012
840.2964, 1244.482
840.7785, 1242.159
841.2606, 1241.944
841.7427, 1243.336
842.2249, 1244.527
842.7070, 1245.520
843.1891, 1245.847
843.6712, 1245.096
844.1533, 1244.631
844.6354, 1245.805
845.1176, 1248.205
845.5997, 1249.797
846.0818, 1250.100
846.5639, 1250.324
847.0460, 1251.374
847.5281, 1251.381
848.0103, 1248.159
848.4924, 1243.908
848.9745, 1242.012
849.4566, 1243.135
849.9387, 1244.865
850.4208, 1246.649
850.9030, 1247.871
851.3851, 1247.719
851.8672, 1246.686
852.3493, 1245.656
852.8314, 1244.829
853.3135, 1243.807
853.7957, 1242.078
854.2778, 1240.664
854.7599, 1242.839
855.2420, 1248.478
855.7241, 1250.438
856.2062, 1247.116
856.6884, 1244.359
857.1705, 1245.555
857.6526, 1248.917
858.1347, 1251.434
858.6168, 1253.359
859.0989, 1253.174
859.5811, 1248.761
860.0632, 1245.020
860.5453, 1242.167
861.0274, 1241.110
861.5095, 1243.612
861.9916, 1248.828
862.4738, 1253.188
862.9559, 1256.074
863.4380, 1256.684
863.9201, 1252.091
864.4022, 1246.537
864.8843, 1245.679
865.3665, 1248.740
865.8486, 1251.967
866.3307, 1253.736
866.8128, 1254.493
867.2949, 1254.812
867.7770, 1254.579
868.2592, 1252.790
868.7413, 1249.413
869.2234, 1247.224
869.7055, 1247.072
870.1876, 1247.999
870.6697, 1249.327
871.1519, 1250.900
871.6340, 1251.770
872.1161, 1251.015
872.5981, 1251.310
873.0803, 1254.666
873.5624, 1257.004
874.0445, 1254.947
874.5266, 1251.585
875.0087, 1252.198
875.4908, 1257.750
875.9730, 1260.950
876.4551, 1257.352
876.9372, 1252.776
877.4193, 1249.763
877.9014, 1248.534
878.3835, 1250.043
878.8657, 1253.634
879.3478, 1256.584
879.8299, 1257.182
880.3120, 1256.825
880.7941, 1257.616
881.2762, 1259.045
881.7584, 1259.207
882.2405, 1258.084
882.7226, 1256.856
883.2047, 1255.825
883.6868, 1256.880
884.1689, 1263.457
884.6511, 1275.236
885.1332, 1281.185
885.6153, 1279.733
886.0974, 1276.628
886.5795, 1272.047
887.0616, 1267.305
887.5438, 1262.579
888.0259, 1258.496
888.5080, 1257.107
888.9901, 1259.898
889.4722, 1261.895
889.9543, 1262.025
890.4365, 1261.587
890.9186, 1260.814
891.4007, 1260.121
891.8828, 1260.160
892.3649, 1260.913
892.8470, 1261.465
893.3292, 1261.511
893.8113, 1260.881
894.2934, 1259.306
894.7755, 1257.000
895.2576, 1253.729
895.7397, 1249.975
896.2219, 1247.570
896.7040, 1247.493
897.1861, 1249.010
897.6682, 1251.634
898.1503, 1255.083
898.6324, 1257.135
899.1146, 1257.749
899.5967, 1257.197
900.0788, 1255.200
900.5609, 1253.405
901.0430, 1253.626
901.5251, 1255.416
902.0073, 1255.924
902.4894, 1254.273
902.9715, 1253.118
903.4536, 1252.335
903.9357, 1252.372
904.4178, 1252.911
904.9000, 1254.608
905.3821, 1259.314
905.8642, 1267.410
906.3463, 1272.821
906.8284, 1272.917
907.3105, 1271.406
907.7927, 1269.817
908.2748, 1267.573
908.7569, 1263.099
909.2390, 1257.334
909.7211, 1253.152
910.2032, 1251.861
910.6854, 1252.329
911.1675, 1254.565
911.6496, 1257.291
912.1317, 1258.261
912.6138, 1257.787
913.0959, 1257.167
913.5781, 1256.852
914.0602, 1257.102
914.5423, 1258.295
915.0244, 1260.020
915.5065, 1261.051
915.9886, 1261.387
916.4708, 1261.820
916.9529, 1262.719
917.4350, 1261.912
917.9171, 1257.273
918.3992, 1252.006
918.8813, 1252.210
919.3635, 1259.021
919.8456, 1262.633
920.3277, 1261.775
920.8098, 1259.821
921.2919, 1255.506
921.7740, 1252.114
922.2562, 1252.221
922.7383, 1255.114
923.2204, 1258.871
923.7025, 1264.369
924.1846, 1267.843
924.6667, 1267.158
925.1489, 1265.425
925.6310, 1263.685
926.1131, 1262.493
926.5952, 1262.840
927.0773, 1264.546
927.5594, 1265.609
928.0416, 1264.186
928.5237, 1262.894
929.0058, 1264.337
929.4879, 1267.361
929.9700, 1270.556
930.4521, 1273.572
930.9343, 1276.044
931.4164, 1277.816
931.8985, 1278.920
932.3806, 1279.716
932.8627, 1279.741
933.3448, 1276.468
933.8270, 1270.371
934.3091, 1266.830
934.7912, 1267.098
935.2733, 1268.782
935.7554, 1270.381
936.2375, 1271.792
936.7197, 1272.765
937.2018, 1273.308
937.6839, 1273.435
938.1660, 1273.252
938.6481, 1272.222
939.1302, 1268.914
939.6124, 1266.241
940.0945, 1267.970
940.5766, 1273.445
941.0587, 1276.575
941.5408, 1274.678
942.0229, 1274.613
942.5051, 1278.609
942.9872, 1282.381
943.4693, 1284.208
943.9514, 1284.349
944.4335, 1282.367
944.9156, 1278.428
945.3978, 1276.676
945.8799, 1280.616
946.3620, 1284.537
946.8441, 1285.642
947.3262, 1285.196
947.8083, 1283.289
948.2905, 1281.185
948.7726, 1282.034
949.2547, 1287.041
949.7368, 1291.604
950.2189, 1289.998
950.7010, 1287.142
951.1832, 1290.975
951.6653, 1298.699
952.1474, 1303.448
952.6295, 1304.046
953.1116, 1302.710
953.5938, 1300.649
954.0759, 1298.860
954.5580, 1299.516
955.0400, 1302.011
955.5222, 1302.895
956.0043, 1302.094
956.4864, 1301.465
956.9685, 1301.497
957.4506, 1303.130
957.9327, 1307.674
958.4149, 1314.088
958.8970, 1317.582
959.3791, 1317.505
959.8612, 1317.689
960.3433, 1317.892
960.8254, 1319.959
961.3076, 1326.368
961.7897, 1333.021
962.2718, 1333.866
962.7539, 1328.769
963.2360, 1325.205
963.7181, 1323.066
964.2003, 1322.677
964.6824, 1324.654
965.1645, 1327.692
965.6466, 1331.582
966.1287, 1335.898
966.6108, 1340.243
967.0930, 1344.730
967.5751, 1347.703
968.0572, 1347.844
968.5393, 1347.631
969.0214, 1346.574
969.5035, 1346.792
969.9857, 1351.375
970.4678, 1358.704
970.9499, 1364.264
971.4320, 1366.448
971.9141, 1368.320
972.3962, 1371.719
972.8784, 1375.533
973.3605, 1378.095
973.8426, 1380.724
974.3247, 1386.140
974.8068, 1394.012
975.2889, 1401.224
975.7711, 1405.958
976.2532, 1409.903
976.7353, 1413.838
977.2174, 1418.847
977.6995, 1427.923
978.1816, 1439.994
978.6638, 1450.771
979.1459, 1459.228
979.6280, 1467.488
980.1101, 1477.382
980.5922, 1487.780
981.0743, 1496.256
981.5565, 1502.954
982.0386, 1508.611
982.5207, 1513.291
983.0028, 1518.037
983.4849, 1523.302
983.9670, 1528.145
984.4492, 1531.642
984.9313, 1533.729
985.4134, 1533.782
985.8955, 1531.436
986.3776, 1529.739
986.8597, 1529.057
987.3419, 1528.868
987.8240, 1529.317
988.3061, 1529.352
988.7882, 1527.308
989.2703, 1523.200
989.7524, 1519.596
990.2346, 1516.791
990.7167, 1513.769
991.1988, 1509.668
991.6809, 1506.366
992.1630, 1505.157
992.6451, 1505.303
993.1273, 1505.813
993.6094, 1506.923
994.0915, 1506.748
994.5736, 1503.050
995.0557, 1501.170
995.5378, 1503.609
996.0200, 1506.722
996.5021, 1508.297
996.9842, 1508.704
997.4663, 1508.471
997.9484, 1507.324
998.4305, 1508.085
998.9127, 1512.816
999.3948, 1517.874
999.8769, 1521.954
1000.359, 1525.416
1000.841, 1529.391
1001.323, 1532.956
1001.805, 1533.238
1002.287, 1528.926
1002.770, 1525.141
1003.252, 1524.229
1003.734, 1525.094
1004.216, 1528.573
1004.698, 1532.332
1005.180, 1533.923
1005.662, 1532.863
1006.144, 1528.907
1006.627, 1521.639
1007.109, 1513.668
1007.591, 1506.061
1008.073, 1499.828
1008.555, 1497.333
1009.037, 1496.709
1009.519, 1494.662
1010.001, 1490.495
1010.483, 1484.292
1010.966, 1475.824
1011.448, 1467.562
1011.930, 1462.977
1012.412, 1460.430
1012.894, 1456.802
1013.376, 1452.283
1013.858, 1447.527
1014.340, 1442.904
1014.823, 1439.810
1015.305, 1439.345
1015.787, 1440.205
1016.269, 1441.315
1016.751, 1441.856
1017.233, 1437.533
1017.715, 1429.006
1018.197, 1422.047
1018.679, 1418.321
1019.162, 1417.257
1019.644, 1418.869
1020.126, 1421.115
1020.608, 1418.443
1021.090, 1417.451
1021.572, 1415.618
1022.054, 1409.934
1022.536, 1408.643
1023.018, 1401.825
1023.501, 1394.813
1023.983, 1392.506
1024.465, 1393.377
1024.947, 1392.850
1025.429, 1390.885
1025.911, 1387.786
1026.393, 1383.324
1026.875, 1378.860
1027.358, 1374.828
1027.840, 1370.934
1028.322, 1366.720
1028.804, 1362.567
1029.286, 1360.301
1029.768, 1360.362
1030.250, 1360.821
1030.732, 1362.856
1031.214, 1361.643
1031.697, 1354.110
1032.179, 1345.057
1032.661, 1339.203
1033.143, 1336.020
1033.625, 1332.615
1034.107, 1330.813
1034.589, 1326.023
1035.071, 1329.672
1035.553, 1332.595
1036.036, 1333.407
1036.518, 1331.681
1037.000, 1325.434
1037.482, 1315.991
1037.964, 1311.172
1038.446, 1313.941
1038.928, 1315.586
1039.410, 1316.438
1039.893, 1315.698
1040.375, 1312.008
1040.857, 1307.455
1041.339, 1303.061
1041.821, 1299.328
1042.303, 1299.317
1042.785, 1306.797
1043.267, 1310.736
1043.750, 1308.837
1044.232, 1305.636
1044.714, 1301.023
1045.196, 1297.126
1045.678, 1296.408
1046.160, 1298.311
1046.642, 1300.139
1047.124, 1302.555
1047.606, 1302.792
1048.089, 1299.199
1048.571, 1294.927
1049.053, 1290.239
1049.535, 1286.241
1050.017, 1284.106
1050.499, 1283.578
1050.981, 1283.369
1051.463, 1283.289
1051.945, 1283.533
1052.428, 1283.614
1052.910, 1284.695
1053.392, 1289.885
1053.874, 1294.327
1054.356, 1291.437
1054.838, 1283.489
1055.320, 1279.286
1055.802, 1281.314
1056.285, 1284.631
1056.767, 1289.686
1057.249, 1293.468
1057.731, 1294.500
1058.213, 1293.526
1058.695, 1290.301
1059.177, 1285.881
1059.659, 1282.910
1060.141, 1282.107
1060.624, 1282.218
1061.106, 1283.812
1061.588, 1284.990
1062.070, 1283.608
1062.552, 1282.289
1063.034, 1284.602
1063.516, 1289.104
1063.998, 1291.529
1064.480, 1290.764
1064.963, 1288.688
1065.445, 1284.769
1065.927, 1281.282
1066.409, 1278.951
1066.891, 1277.995
1067.373, 1279.422
1067.855, 1282.178
1068.337, 1284.122
1068.820, 1284.758
1069.302, 1284.205
1069.784, 1280.913
1070.266, 1278.436
1070.748, 1279.631
1071.230, 1281.617
1071.712, 1281.666
1072.194, 1280.371
1072.677, 1279.379
1073.159, 1279.066
1073.641, 1279.096
1074.123, 1279.882
1074.605, 1280.265
1075.087, 1279.800
1075.569, 1278.550
1076.051, 1275.992
1076.533, 1272.925
1077.016, 1270.469
1077.498, 1268.913
1077.980, 1268.696
1078.462, 1270.835
1078.944, 1273.148
1079.426, 1274.371
1079.908, 1275.563
1080.390, 1277.705
1080.872, 1280.364
1081.354, 1283.805
1081.837, 1287.397
1082.319, 1287.096
1082.801, 1278.323
1083.283, 1271.394
1083.765, 1272.615
1084.247, 1275.886
1084.729, 1277.588
1085.211, 1278.036
1085.694, 1277.390
1086.176, 1276.228
1086.658, 1276.774
1087.140, 1280.647
1087.622, 1283.748
1088.104, 1284.293
1088.586, 1283.597
1089.068, 1281.680
1089.551, 1279.561
1090.033, 1277.886
1090.515, 1277.042
1090.997, 1278.167
1091.479, 1282.211
1091.961, 1285.255
1092.443, 1285.629
1092.925, 1284.882
1093.407, 1284.190
1093.890, 1282.449
1094.372, 1276.725
1094.854, 1269.445
1095.336, 1267.025
1095.818, 1271.361
1096.300, 1274.765
1096.782, 1274.957
1097.264, 1273.592
1097.746, 1269.611
1098.229, 1265.961
1098.711, 1265.390
1099.193, 1266.666
1099.675, 1267.123
1100.157, 1266.385
1100.639, 1266.687
1101.121, 1269.667
1101.603, 1272.180
1102.086, 1273.366
1102.568, 1273.839
1103.050, 1273.998
1103.532, 1273.663
1104.014, 1272.108
1104.496, 1269.519
1104.978, 1268.071
1105.460, 1267.137
1105.943, 1269.047
1106.425, 1276.276
1106.907, 1283.867
1107.389, 1291.604
1107.871, 1297.147
1108.353, 1297.156
1108.835, 1292.683
1109.317, 1288.865
1109.799, 1286.732
1110.281, 1283.629
1110.764, 1278.791
1111.246, 1273.748
1111.728, 1267.570
1112.210, 1262.571
1112.692, 1261.537
1113.174, 1262.904
1113.656, 1262.244
1114.138, 1258.422
1114.621, 1257.753
1115.103, 1262.318
1115.585, 1266.687
1116.067, 1270.781
1116.549, 1273.438
1117.031, 1273.458
1117.513, 1272.037
1117.995, 1271.127
1118.478, 1270.752
1118.960, 1269.481
1119.442, 1265.993
1119.924, 1265.010
1120.406, 1268.575
1120.888, 1271.242
1121.370, 1270.158
1121.852, 1267.981
1122.334, 1267.981
1122.817, 1266.227
1123.299, 1264.714
1123.781, 1264.509
1124.263, 1263.892
1124.745, 1263.309
1125.227, 1264.692
1125.709, 1265.934
1126.191, 1267.882
1126.673, 1271.515
1127.156, 1275.811
1127.638, 1278.343
1128.120, 1279.069
1128.602, 1278.642
1129.084, 1276.977
1129.566, 1274.757
1130.048, 1271.979
1130.530, 1270.154
1131.013, 1270.324
1131.495, 1271.005
1131.977, 1269.822
1132.459, 1267.350
1132.941, 1266.353
1133.423, 1266.777
1133.905, 1268.040
1134.387, 1270.034
1134.870, 1272.021
1135.352, 1273.712
1135.834, 1275.217
1136.316, 1276.783
1136.798, 1277.834
1137.280, 1276.162
1137.762, 1273.052
1138.244, 1273.299
1138.726, 1276.625
1139.208, 1281.270
1139.691, 1286.338
1140.173, 1289.129
1140.655, 1287.877
1141.137, 1284.498
1141.619, 1279.372
1142.101, 1275.139
1142.583, 1278.480
1143.065, 1285.791
1143.548, 1287.937
1144.030, 1285.565
1144.512, 1286.768
1144.994, 1294.468
1145.476, 1301.661
1145.958, 1303.561
1146.440, 1301.324
1146.922, 1293.290
1147.405, 1283.969
1147.887, 1278.787
1148.369, 1277.071
1148.851, 1276.859
1149.333, 1277.466
1149.815, 1278.253
1150.297, 1278.974
1150.779, 1279.674
1151.261, 1279.595
1151.744, 1280.350
1152.226, 1284.018
1152.708, 1288.547
1153.190, 1292.044
1153.672, 1294.076
1154.154, 1294.322
1154.636, 1292.654
1155.118, 1289.618
1155.600, 1283.808
1156.083, 1278.813
1156.565, 1274.882
1157.047, 1273.187
1157.529, 1275.938
1158.011, 1280.703
1158.493, 1284.142
1158.975, 1286.055
1159.457, 1285.618
1159.940, 1280.233
1160.422, 1276.670
1160.904, 1275.831
1161.386, 1275.847
1161.868, 1276.689
1162.350, 1277.420
1162.832, 1277.026
1163.314, 1275.927
1163.796, 1275.465
1164.279, 1275.787
1164.761, 1275.998
1165.243, 1276.299
1165.725, 1275.593
1166.207, 1273.235
1166.689, 1271.291
1167.171, 1270.875
1167.653, 1271.820
1168.135, 1274.302
1168.618, 1277.681
1169.100, 1277.945
1169.582, 1275.144
1170.064, 1272.690
1170.546, 1270.900
1171.028, 1271.213
1171.510, 1274.109
1171.992, 1277.101
1172.474, 1278.256
1172.957, 1278.001
1173.439, 1276.555
1173.921, 1274.464
1174.403, 1272.891
1174.885, 1272.154
1175.367, 1273.813
1175.849, 1277.481
1176.331, 1280.053
1176.814, 1280.233
1177.296, 1280.254
1177.778, 1281.891
1178.260, 1284.650
1178.742, 1288.204
1179.224, 1292.343
1179.706, 1299.460
1180.188, 1305.885
1180.671, 1302.506
1181.153, 1289.849
1181.635, 1279.573
1182.117, 1277.155
1182.599, 1276.258
1183.081, 1273.718
1183.563, 1271.405
1184.045, 1270.550
1184.527, 1270.444
1185.010, 1270.495
1185.492, 1270.645
1185.974, 1271.093
1186.456, 1271.918
1186.938, 1271.986
1187.420, 1268.873
1187.902, 1268.408
1188.384, 1274.676
1188.866, 1279.848
1189.349, 1279.243
1189.831, 1277.210
1190.313, 1278.461
1190.795, 1281.984
1191.277, 1283.810
1191.759, 1283.735
1192.241, 1282.550
1192.723, 1279.604
1193.206, 1277.895
1193.688, 1278.217
1194.170, 1279.186
1194.652, 1280.109
1195.134, 1280.863
1195.616, 1281.240
1196.098, 1281.338
1196.580, 1281.739
1197.063, 1281.360
1197.545, 1281.846
1198.027, 1280.309
1198.509, 1278.817
1198.991, 1277.748
1199.473, 1277.703
1199.955, 1279.298
1200.437, 1280.466
1200.919, 1277.360
1201.401, 1272.804
1201.884, 1272.049
1202.366, 1273.430
1202.848, 1273.770
1203.330, 1272.958
1203.812, 1272.055
1204.294, 1271.395
1204.776, 1270.720
1205.258, 1269.435
1205.741, 1268.957
1206.223, 1271.086
1206.705, 1273.404
1207.187, 1274.152
1207.669, 1273.923
1208.151, 1273.640
1208.633, 1273.148
1209.115, 1271.162
1209.598, 1266.713
1210.080, 1265.220
1210.562, 1271.299
1211.044, 1274.754
1211.526, 1272.010
1212.008, 1268.089
1212.490, 1263.933
1212.972, 1261.228
1213.454, 1262.521
1213.937, 1266.883
1214.419, 1269.870
1214.901, 1271.379
1215.383, 1271.678
1215.865, 1270.311
1216.347, 1271.134
1216.829, 1275.472
1217.311, 1277.667
1217.793, 1274.125
1218.276, 1269.182
1218.758, 1268.985
1219.240, 1266.094
1219.722, 1265.042
1220.204, 1265.135
1220.686, 1264.894
1221.168, 1268.202
1221.650, 1270.603
1222.133, 1271.129
1222.615, 1271.680
1223.097, 1273.382
1223.579, 1274.837
1224.061, 1274.247
1224.543, 1273.357
1225.025, 1274.386
1225.507, 1275.664
1225.990, 1274.954
1226.472, 1272.976
1226.954, 1271.256
1227.436, 1270.144
1227.918, 1269.835
1228.400, 1271.228
1228.882, 1271.631
1229.364, 1269.627
1229.846, 1267.568
1230.328, 1265.533
1230.811, 1264.676
1231.293, 1266.568
1231.775, 1269.718
1232.257, 1271.429
1232.739, 1271.708
1233.221, 1270.800
1233.703, 1272.698
1234.185, 1268.415
1234.668, 1274.273
1235.150, 1278.101
1235.632, 1277.406
1236.114, 1275.210
1236.596, 1273.783
1237.078, 1272.648
1237.560, 1270.883
1238.042, 1268.754
1238.525, 1266.445
1239.007, 1264.644
1239.489, 1266.602
1239.971, 1271.249
1240.453, 1273.342
1240.935, 1271.620
1241.417, 1269.642
1241.899, 1269.425
1242.381, 1270.254
1242.864, 1272.620
1243.346, 1274.624
1243.828, 1273.780
1244.310, 1272.439
1244.792, 1273.851
1245.274, 1276.766
1245.756, 1277.645
1246.238, 1275.994
1246.720, 1275.552
1247.203, 1278.749
1247.685, 1280.130
1248.167, 1278.182
1248.649, 1276.068
1249.131, 1274.428
1249.613, 1273.476
1250.095, 1273.594
1250.577, 1274.214
1251.059, 1274.290
1251.542, 1273.814
1252.024, 1272.176
1252.506, 1269.395
1252.988, 1269.254
1253.470, 1271.971
1253.952, 1275.187
1254.434, 1278.034
1254.916, 1279.598
1255.399, 1279.141
1255.881, 1277.779
1256.363, 1276.082
1256.845, 1275.052
1257.327, 1276.564
1257.809, 1279.465
1258.291, 1282.782
1258.773, 1285.684
1259.255, 1286.489
1259.738, 1285.264
1260.220, 1284.741
1260.702, 1286.290
1261.184, 1287.527
1261.666, 1288.362
1262.148, 1287.874
1262.630, 1284.115
1263.112, 1280.591
1263.594, 1279.914
1264.077, 1280.919
1264.559, 1282.129
1265.041, 1283.484
1265.523, 1284.469
1266.005, 1285.062
1266.487, 1285.279
1266.969, 1285.064
1267.451, 1285.152
1267.934, 1285.749
1268.416, 1285.092
1268.898, 1282.082
1269.380, 1279.136
1269.862, 1278.619
1270.344, 1280.814
1270.826, 1289.597
1271.308, 1299.450
1271.791, 1298.082
1272.273, 1290.027
1272.755, 1285.680
1273.237, 1286.148
1273.719, 1287.470
1274.201, 1288.378
1274.683, 1288.786
1275.165, 1288.033
1275.647, 1287.685
1276.130, 1289.302
1276.612, 1290.357
1277.094, 1288.176
1277.576, 1285.737
1278.058, 1286.721
1278.540, 1289.735
1279.022, 1290.901
1279.504, 1290.114
1279.986, 1289.336
1280.469, 1288.492
1280.951, 1288.009
1281.433, 1287.962
1281.915, 1288.092
1282.397, 1288.308
1282.879, 1288.200
1283.361, 1287.333
1283.843, 1287.002
1284.326, 1288.775
1284.808, 1292.564
##END=



