##NAMES=Namibite
##RRUFFID=R060782
##IDEAL CHEMISTRY=Cu^2+^(Bi^3+^O)_2_V^5+^O_4_(OH)
##LOCALITY=Khorixas, Darmaraland, Namibia
##OWNER=RRUFF
##SOURCE=Michael Scott
##DESCRIPTION=Dark green irregularly formed crystals associated with quartz
##STATUS=The identification of this mineral is confirmed by single-crystal X-ray diffraction and chemical analysis.
##URL=rruff.info/R060782
##MEASURED CHEMISTRY=(Cu_0.87_Fe_0.13_)_Σ=1_((Bi_0.93_Cr_0.05_Al_0.02_)_Σ=1_O)_2_V_1.00_O_4_(OH); OH estimated by charge balance
109.475, 634.614
109.957, 663.841
110.439, 679.599
110.921, 687.851
111.403, 697.559
111.885, 706.304
112.368, 722.775
112.850, 751.599
113.332, 787.904
113.814, 827.676
114.296, 870.429
114.778, 913.659
115.260, 948.091
115.742, 972.761
116.224, 988.430
116.706, 997.252
117.189, 998.061
117.671, 987.664
118.153, 961.801
118.635, 922.309
119.117, 892.563
119.599, 881.786
120.081, 873.270
120.563, 859.681
121.046, 845.201
121.528, 838.192
122.010, 844.694
122.492, 864.640
122.974, 900.534
123.456, 956.028
123.938, 1022.268
124.420, 1097.741
124.902, 1181.774
125.385, 1274.341
125.867, 1374.890
126.349, 1483.971
126.831, 1601.859
127.313, 1722.367
127.795, 1854.952
128.277, 2009.445
128.760, 2184.085
129.242, 2369.482
129.724, 2556.305
130.206, 2752.468
130.688, 2920.934
131.170, 3068.567
131.652, 3187.828
132.134, 3275.429
132.616, 3330.226
133.098, 3348.228
133.581, 3317.308
134.063, 3211.344
134.545, 3128.264
135.027, 3082.581
135.509, 3056.569
135.991, 3030.546
136.473, 2999.178
136.955, 2973.470
137.438, 2972.007
137.920, 2997.307
138.402, 3032.152
138.884, 3061.872
139.366, 3102.175
139.848, 3174.232
140.330, 3282.092
140.812, 3428.162
141.294, 3616.585
141.777, 3832.930
142.259, 4113.706
142.741, 4474.209
143.223, 4906.981
143.705, 5394.805
144.187, 5933.384
144.669, 6531.864
145.151, 7193.571
145.633, 7911.236
146.116, 8690.076
146.598, 9551.281
147.080, 10483.590
147.562, 11445.530
148.044, 12445.260
148.526, 13452.020
149.008, 14434.330
149.490, 15404.230
149.973, 16325.970
150.455, 17271.430
150.937, 18208.289
151.419, 18866.760
151.901, 19230.029
152.383, 19172.301
152.865, 18594.439
153.347, 17435.430
153.829, 16009.440
154.312, 14457.910
154.794, 12788.310
155.276, 11236.590
155.758, 9859.062
156.240, 8668.059
156.722, 7686.097
157.204, 6928.713
157.686, 6325.181
158.169, 5827.106
158.651, 5437.866
159.133, 5119.215
159.615, 4881.999
160.097, 4704.230
160.579, 4583.839
161.061, 4523.884
161.543, 4495.537
162.025, 4469.357
162.508, 4446.241
162.990, 4421.079
163.472, 4384.295
163.954, 4349.301
164.436, 4330.888
164.918, 4334.850
165.400, 4339.483
165.882, 4315.469
166.365, 4259.234
166.847, 4186.328
167.329, 4094.843
167.811, 3992.420
168.293, 3881.785
168.775, 3764.040
169.257, 3642.025
169.739, 3520.960
170.221, 3401.595
170.704, 3281.584
171.186, 3153.159
171.668, 3027.083
172.150, 2912.841
172.632, 2813.123
173.114, 2723.530
173.596, 2637.319
174.078, 2554.113
174.561, 2474.454
175.043, 2393.572
175.525, 2317.715
176.007, 2253.377
176.489, 2202.078
176.971, 2160.004
177.453, 2120.172
177.935, 2083.677
178.417, 2047.451
178.900, 2007.776
179.382, 1969.581
179.864, 1937.267
180.346, 1912.312
180.828, 1892.478
181.310, 1874.083
181.792, 1857.352
182.274, 1841.758
182.757, 1826.342
183.239, 1812.253
183.721, 1801.459
184.203, 1794.456
184.685, 1788.285
185.167, 1776.628
185.649, 1753.815
186.131, 1736.718
186.613, 1728.812
187.096, 1724.995
187.578, 1721.202
188.060, 1716.133
188.542, 1711.181
189.024, 1708.783
189.506, 1709.360
189.988, 1712.080
190.470, 1723.388
190.952, 1732.674
191.435, 1727.432
191.917, 1705.175
192.399, 1679.595
192.881, 1676.200
193.363, 1713.252
193.845, 1737.174
194.327, 1737.932
194.809, 1731.993
195.292, 1731.406
195.774, 1739.399
196.256, 1751.445
196.738, 1759.710
197.220, 1758.851
197.702, 1765.462
198.184, 1783.604
198.666, 1805.388
199.148, 1827.647
199.631, 1848.751
200.113, 1865.688
200.595, 1872.621
201.077, 1860.506
201.559, 1858.010
202.041, 1871.027
202.523, 1887.514
203.005, 1902.291
203.488, 1913.164
203.970, 1917.758
204.452, 1910.514
204.934, 1881.040
205.416, 1866.834
205.898, 1879.900
206.380, 1896.143
206.862, 1900.447
207.344, 1891.693
207.827, 1879.862
208.309, 1876.787
208.791, 1885.203
209.273, 1893.560
209.755, 1907.467
210.237, 1916.820
210.719, 1913.373
211.201, 1898.639
211.684, 1881.781
212.166, 1872.657
212.648, 1873.307
213.130, 1872.062
213.612, 1862.554
214.094, 1856.917
214.576, 1862.930
215.058, 1878.586
215.540, 1895.692
216.023, 1906.699
216.505, 1911.066
216.987, 1914.392
217.469, 1913.461
217.951, 1914.608
218.433, 1919.761
218.915, 1928.964
219.397, 1941.778
219.880, 1958.277
220.362, 1978.603
220.844, 1998.213
221.326, 2016.221
221.808, 2034.298
222.290, 2054.266
222.772, 2074.700
223.254, 2091.599
223.736, 2100.938
224.219, 2104.267
224.701, 2118.909
225.183, 2154.035
225.665, 2191.749
226.147, 2229.722
226.629, 2267.494
227.111, 2304.871
227.593, 2341.842
228.076, 2378.462
228.558, 2415.840
229.040, 2455.109
229.522, 2493.679
230.004, 2528.445
230.486, 2562.986
230.968, 2604.031
231.450, 2655.701
231.932, 2710.816
232.415, 2747.206
232.897, 2747.335
233.379, 2757.924
233.861, 2793.292
234.343, 2838.105
234.825, 2878.992
235.307, 2910.971
235.789, 2935.130
236.271, 2953.788
236.754, 2967.407
237.236, 2973.949
237.718, 2971.906
238.200, 2964.587
238.682, 2954.642
239.164, 2942.683
239.646, 2926.952
240.128, 2903.371
240.611, 2868.849
241.093, 2837.543
241.575, 2814.225
242.057, 2792.283
242.539, 2771.236
243.021, 2749.748
243.503, 2721.435
243.985, 2674.576
244.467, 2605.592
244.950, 2549.248
245.432, 2518.306
245.914, 2493.146
246.396, 2466.449
246.878, 2437.343
247.360, 2406.381
247.842, 2372.596
248.324, 2336.312
248.807, 2303.423
249.289, 2276.628
249.771, 2250.364
250.253, 2219.958
250.735, 2187.349
251.217, 2157.700
251.699, 2134.498
252.181, 2116.807
252.663, 2100.085
253.146, 2083.019
253.628, 2069.629
254.110, 2065.131
254.592, 2064.904
255.074, 2060.675
255.556, 2046.461
256.038, 2027.615
256.520, 2014.862
257.003, 2009.430
257.485, 2006.148
257.967, 2004.354
258.449, 2002.717
258.931, 1999.239
259.413, 1992.289
259.895, 1985.131
260.377, 1982.687
260.859, 1985.438
261.341, 1986.154
261.824, 1980.915
262.306, 1972.574
262.788, 1963.427
263.270, 1951.687
263.752, 1944.967
264.234, 1952.669
264.716, 1972.591
265.198, 1989.079
265.681, 1997.201
266.163, 1999.947
266.645, 1999.508
267.127, 1994.465
267.609, 1995.906
268.091, 2016.438
268.573, 2047.123
269.055, 2063.488
269.538, 2055.010
270.020, 2044.663
270.502, 2065.032
270.984, 2113.151
271.466, 2158.840
271.948, 2193.323
272.430, 2221.405
272.912, 2247.700
273.394, 2272.466
273.877, 2299.624
274.359, 2331.852
274.841, 2369.799
275.323, 2414.853
275.805, 2471.757
276.287, 2532.187
276.769, 2589.483
277.251, 2643.929
277.733, 2700.877
278.216, 2764.713
278.698, 2834.414
279.180, 2899.122
279.662, 2940.765
280.144, 2996.910
280.626, 3093.701
281.108, 3216.231
281.590, 3331.495
282.073, 3422.170
282.555, 3497.281
283.037, 3584.545
283.519, 3692.754
284.001, 3801.080
284.483, 3905.313
284.965, 4008.957
285.447, 4116.578
285.930, 4229.318
286.412, 4342.656
286.894, 4450.022
287.376, 4549.805
287.858, 4644.614
288.340, 4734.816
288.822, 4819.689
289.304, 4902.257
289.786, 4980.741
290.268, 5046.852
290.751, 5089.841
291.233, 5104.965
291.715, 5122.273
292.197, 5152.848
292.679, 5175.098
293.161, 5184.348
293.643, 5178.348
294.125, 5153.613
294.608, 5105.815
295.090, 5037.047
295.572, 4967.971
296.054, 4907.605
296.536, 4833.252
297.018, 4731.572
297.500, 4615.947
297.982, 4502.563
298.465, 4399.047
298.947, 4302.887
299.429, 4209.606
299.911, 4118.191
300.393, 4032.885
300.875, 3957.674
301.357, 3886.622
301.839, 3813.878
302.321, 3738.167
302.804, 3666.279
303.286, 3605.511
303.768, 3556.246
304.250, 3511.438
304.732, 3469.692
305.214, 3433.212
305.696, 3403.631
306.178, 3380.491
306.660, 3361.050
307.143, 3344.867
307.625, 3331.196
308.107, 3316.815
308.589, 3299.555
309.071, 3286.851
309.553, 3290.300
310.035, 3303.063
310.517, 3309.032
311.000, 3298.599
311.482, 3282.572
311.964, 3271.087
312.446, 3264.212
312.928, 3263.289
313.410, 3271.327
313.892, 3285.267
314.374, 3296.179
314.857, 3306.231
315.339, 3310.278
315.821, 3301.036
316.303, 3283.955
316.785, 3271.777
317.267, 3269.125
317.749, 3272.932
318.231, 3278.672
318.713, 3288.514
319.195, 3294.390
319.678, 3286.274
320.160, 3278.681
320.642, 3290.164
321.124, 3322.187
321.606, 3355.950
322.088, 3370.465
322.570, 3360.090
323.052, 3364.914
323.535, 3389.060
324.017, 3421.716
324.499, 3461.241
324.981, 3505.392
325.463, 3549.125
325.945, 3588.687
326.427, 3625.776
326.909, 3670.929
327.392, 3737.621
327.874, 3795.656
328.356, 3834.976
328.838, 3866.256
329.320, 3902.274
329.802, 3947.413
330.284, 3994.509
330.766, 4032.197
331.248, 4059.220
331.731, 4079.684
332.213, 4093.428
332.695, 4101.265
333.177, 4101.662
333.659, 4095.535
334.141, 4087.586
334.623, 4087.723
335.105, 4093.317
335.587, 4076.068
336.070, 4030.502
336.552, 3968.383
337.034, 3890.185
337.516, 3802.578
337.998, 3718.229
338.480, 3643.583
338.962, 3573.455
339.444, 3500.171
339.927, 3423.355
340.409, 3346.408
340.891, 3271.080
341.373, 3195.832
341.855, 3119.411
342.337, 3042.625
342.819, 2962.364
343.301, 2870.851
343.784, 2774.239
344.266, 2686.050
344.748, 2609.788
345.230, 2543.016
345.712, 2483.421
346.194, 2430.539
346.676, 2383.770
347.158, 2348.423
347.640, 2315.272
348.122, 2274.994
348.605, 2228.130
349.087, 2181.634
349.569, 2139.407
350.051, 2101.907
350.533, 2080.787
351.015, 2088.021
351.497, 2095.531
351.979, 2096.987
352.462, 2093.498
352.944, 2085.957
353.426, 2074.707
353.908, 2063.048
354.390, 2057.837
354.872, 2058.842
355.354, 2067.634
355.836, 2087.873
356.319, 2111.719
356.801, 2132.363
357.283, 2150.223
357.765, 2172.081
358.247, 2203.598
358.729, 2244.740
359.211, 2296.196
359.693, 2360.760
360.175, 2433.300
360.658, 2506.229
361.140, 2585.028
361.622, 2679.887
362.104, 2797.978
362.586, 2931.392
363.068, 3069.850
363.550, 3213.740
364.032, 3359.261
364.514, 3506.495
364.997, 3653.714
365.479, 3797.592
365.961, 3936.740
366.443, 4078.949
366.925, 4232.847
367.407, 4391.811
367.889, 4550.107
368.371, 4712.290
368.853, 4843.508
369.336, 4910.869
369.818, 4910.045
370.300, 4855.235
370.782, 4748.765
371.264, 4586.208
371.746, 4345.939
372.228, 4043.847
372.711, 3720.980
373.193, 3396.107
373.675, 3076.979
374.157, 2793.046
374.639, 2547.301
375.121, 2335.626
375.603, 2159.690
376.085, 2016.274
376.567, 1907.581
377.049, 1831.301
377.532, 1770.927
378.014, 1705.676
378.496, 1631.785
378.978, 1568.971
379.460, 1522.166
379.942, 1482.914
380.424, 1452.667
380.906, 1427.806
381.389, 1401.267
381.871, 1366.652
382.353, 1330.102
382.835, 1309.247
383.317, 1308.773
383.799, 1307.461
384.281, 1295.606
384.763, 1280.206
385.246, 1267.439
385.728, 1258.178
386.210, 1251.295
386.692, 1246.164
387.174, 1242.831
387.656, 1241.690
388.138, 1243.087
388.620, 1245.747
389.102, 1248.660
389.585, 1251.804
390.067, 1255.006
390.549, 1257.945
391.031, 1261.175
391.513, 1265.230
391.995, 1269.948
392.477, 1274.691
392.959, 1279.013
393.441, 1283.240
393.924, 1288.551
394.406, 1296.900
394.888, 1303.767
395.370, 1307.324
395.852, 1310.252
396.334, 1314.981
396.816, 1321.913
397.298, 1329.882
397.780, 1337.796
398.263, 1345.721
398.745, 1352.905
399.227, 1361.066
399.709, 1366.437
400.191, 1364.664
400.673, 1359.982
401.155, 1360.070
401.638, 1369.699
402.120, 1382.432
402.602, 1385.772
403.084, 1378.107
403.566, 1373.955
404.048, 1379.142
404.530, 1388.033
405.012, 1396.623
405.494, 1404.869
405.977, 1408.198
406.459, 1397.930
406.941, 1383.439
407.423, 1383.033
407.905, 1399.115
408.387, 1415.875
408.869, 1420.818
409.351, 1415.868
409.833, 1417.333
410.316, 1436.659
410.798, 1449.375
411.280, 1437.868
411.762, 1415.806
412.244, 1406.962
412.726, 1419.575
413.208, 1441.316
413.690, 1452.177
414.172, 1447.329
414.655, 1443.987
415.137, 1439.013
415.619, 1438.033
416.101, 1447.828
416.583, 1464.306
417.065, 1475.827
417.547, 1472.653
418.029, 1461.703
418.512, 1468.426
418.994, 1501.397
419.476, 1530.242
419.958, 1545.370
420.440, 1552.730
420.922, 1552.585
421.404, 1544.438
421.886, 1543.825
422.368, 1569.700
422.851, 1612.072
423.333, 1639.164
423.815, 1643.397
424.297, 1646.611
424.779, 1667.178
425.261, 1702.750
425.743, 1736.829
426.225, 1771.273
426.708, 1801.224
427.190, 1821.060
427.672, 1834.735
428.154, 1850.075
428.636, 1870.233
429.118, 1894.170
429.600, 1920.866
430.082, 1955.421
430.565, 1980.526
431.047, 1990.427
431.529, 1997.297
432.011, 2010.370
432.493, 2027.004
432.975, 2037.668
433.457, 2034.833
433.939, 2021.996
434.421, 2012.280
434.904, 2007.552
435.386, 2001.620
435.868, 1998.010
436.350, 1989.336
436.832, 1964.813
437.314, 1922.669
437.796, 1883.675
438.278, 1868.430
438.760, 1868.082
439.243, 1857.473
439.725, 1833.644
440.207, 1800.768
440.689, 1756.360
441.171, 1704.278
441.653, 1666.449
442.135, 1655.280
442.617, 1645.727
443.099, 1625.580
443.582, 1599.164
444.064, 1574.829
444.546, 1555.369
445.028, 1537.250
445.510, 1515.048
445.992, 1486.338
446.474, 1461.503
446.957, 1440.407
447.439, 1422.752
447.921, 1411.510
448.403, 1403.285
448.885, 1391.073
449.367, 1370.342
449.849, 1345.290
450.331, 1325.043
450.813, 1310.543
451.296, 1297.229
451.778, 1284.973
452.260, 1272.733
452.742, 1259.094
453.224, 1244.217
453.706, 1230.713
454.188, 1219.829
454.670, 1211.160
455.152, 1204.304
455.634, 1199.222
456.117, 1195.785
456.599, 1195.771
457.081, 1196.450
457.563, 1186.880
458.045, 1154.593
458.527, 1132.379
459.009, 1135.129
459.491, 1146.334
459.974, 1148.763
460.456, 1139.852
460.938, 1128.008
461.420, 1121.693
461.902, 1120.893
462.384, 1116.663
462.866, 1102.689
463.348, 1093.569
463.831, 1097.898
464.313, 1106.617
464.795, 1107.578
465.277, 1096.687
465.759, 1085.246
466.241, 1088.990
466.723, 1105.194
467.205, 1109.283
467.687, 1093.036
468.170, 1075.432
468.652, 1074.020
469.134, 1084.626
469.616, 1092.886
470.098, 1099.039
470.580, 1100.051
471.062, 1089.278
471.544, 1072.291
472.026, 1061.933
472.509, 1062.909
472.991, 1069.846
473.473, 1074.921
473.955, 1078.140
474.437, 1079.307
474.919, 1078.239
475.401, 1075.655
475.883, 1070.189
476.366, 1063.651
476.848, 1059.294
477.330, 1058.814
477.812, 1061.252
478.294, 1066.239
478.776, 1074.986
479.258, 1078.296
479.740, 1071.212
480.223, 1061.097
480.705, 1053.106
481.187, 1047.360
481.669, 1044.413
482.151, 1045.451
482.633, 1048.761
483.115, 1053.895
483.597, 1060.164
484.079, 1064.146
484.561, 1064.245
485.044, 1060.986
485.526, 1054.926
486.008, 1040.095
486.490, 1034.020
486.972, 1047.412
487.454, 1060.949
487.936, 1058.603
488.418, 1043.813
488.901, 1031.804
489.383, 1033.416
489.865, 1044.084
490.347, 1048.885
490.829, 1045.900
491.311, 1042.438
491.793, 1040.902
492.275, 1039.016
492.758, 1034.010
493.240, 1026.047
493.722, 1020.174
494.204, 1020.166
494.686, 1023.306
495.168, 1025.693
495.650, 1027.197
496.132, 1029.216
496.614, 1033.167
497.097, 1037.423
497.579, 1037.224
498.061, 1030.781
498.543, 1023.404
499.025, 1011.602
499.507, 1001.943
499.989, 1001.748
500.471, 1009.553
500.953, 1017.658
501.436, 1020.774
501.918, 1019.208
502.400, 1012.978
502.882, 997.216
503.364, 988.413
503.846, 996.992
504.328, 1009.967
504.810, 1018.242
505.293, 1021.011
505.775, 1021.396
506.257, 1019.493
506.739, 1017.034
507.221, 1017.884
507.703, 1021.974
508.185, 1023.644
508.667, 1019.098
509.150, 1010.786
509.632, 1005.399
510.114, 999.888
510.596, 1002.417
511.078, 1027.594
511.560, 1050.681
512.042, 1045.617
512.524, 1017.758
513.006, 995.501
513.489, 1000.860
513.971, 1024.968
514.453, 1034.076
514.935, 1021.141
515.417, 1012.911
515.899, 1020.661
516.381, 1032.302
516.863, 1038.464
517.346, 1038.893
517.828, 1040.194
518.310, 1045.818
518.792, 1053.937
519.274, 1064.013
519.756, 1075.263
520.238, 1081.495
520.720, 1078.423
521.202, 1070.940
521.685, 1069.919
522.167, 1079.055
522.649, 1088.465
523.131, 1098.191
523.613, 1108.164
524.095, 1119.403
524.577, 1130.950
525.059, 1140.016
525.541, 1144.337
526.024, 1146.988
526.506, 1155.479
526.988, 1170.928
527.470, 1185.813
527.952, 1200.404
528.434, 1211.741
528.916, 1214.313
529.398, 1209.986
529.880, 1212.305
530.363, 1231.648
530.845, 1253.979
531.327, 1267.515
531.809, 1274.215
532.291, 1279.795
532.773, 1286.159
533.255, 1295.263
533.737, 1310.541
534.219, 1333.801
534.702, 1357.010
535.184, 1379.185
535.666, 1402.271
536.148, 1425.373
536.630, 1450.264
537.112, 1480.686
537.594, 1518.654
538.076, 1558.650
538.559, 1593.612
539.041, 1624.159
539.523, 1655.160
540.005, 1686.566
540.487, 1721.130
540.969, 1761.634
541.451, 1807.699
541.933, 1856.287
542.416, 1909.327
542.898, 1963.105
543.380, 2015.889
543.862, 2068.662
544.344, 2121.412
544.826, 2174.690
545.308, 2233.289
545.790, 2302.360
546.273, 2381.628
546.755, 2462.390
547.237, 2543.926
547.719, 2628.332
548.201, 2718.448
548.683, 2810.252
549.165, 2899.860
549.647, 2986.119
550.129, 3072.252
550.612, 3158.870
551.094, 3246.595
551.576, 3339.075
552.058, 3435.696
552.540, 3529.464
553.022, 3616.446
553.504, 3697.875
553.986, 3778.573
554.468, 3869.844
554.951, 3940.703
555.433, 3979.969
555.915, 4008.776
556.397, 4044.385
556.879, 4081.840
557.361, 4103.799
557.843, 4099.159
558.325, 4076.777
558.807, 4054.928
559.290, 4034.471
559.772, 3999.526
560.254, 3944.706
560.736, 3877.985
561.218, 3804.705
561.700, 3725.895
562.182, 3643.762
562.664, 3560.438
563.146, 3472.320
563.629, 3376.158
564.111, 3274.730
564.593, 3171.501
565.075, 3068.217
565.557, 2969.403
566.039, 2880.947
566.521, 2803.373
567.003, 2728.364
567.486, 2658.386
567.968, 2587.389
568.450, 2510.795
568.932, 2433.973
569.414, 2361.516
569.896, 2294.181
570.378, 2234.927
570.860, 2191.082
571.343, 2154.937
571.825, 2112.571
572.307, 2063.974
572.789, 2019.640
573.271, 1986.104
573.753, 1959.357
574.235, 1927.931
574.717, 1887.234
575.200, 1849.943
575.682, 1816.814
576.164, 1785.814
576.646, 1758.501
577.128, 1732.140
577.610, 1699.774
578.092, 1656.081
578.574, 1610.438
579.056, 1576.303
579.539, 1553.204
580.021, 1536.841
580.503, 1529.343
580.985, 1520.264
581.467, 1498.301
581.949, 1464.746
582.431, 1439.016
582.913, 1429.208
583.395, 1417.515
583.878, 1397.458
584.360, 1372.913
584.842, 1346.318
585.324, 1319.387
585.806, 1296.132
586.288, 1281.637
586.770, 1273.526
587.252, 1257.714
587.734, 1230.194
588.217, 1208.658
588.699, 1204.731
589.181, 1204.326
589.663, 1190.159
590.145, 1161.849
590.627, 1139.000
591.109, 1131.927
591.591, 1128.668
592.073, 1120.331
592.556, 1107.799
593.038, 1093.604
593.520, 1078.782
594.002, 1064.959
594.484, 1055.128
594.966, 1050.017
595.448, 1043.468
595.930, 1029.244
596.413, 1022.270
596.895, 1037.169
597.377, 1057.866
597.859, 1060.910
598.341, 1039.401
598.823, 1017.214
599.305, 1009.708
599.787, 1010.869
600.269, 1013.618
600.752, 1016.629
601.234, 1016.340
601.716, 1010.611
602.198, 1000.411
602.680, 987.366
603.162, 963.547
603.644, 952.804
604.127, 968.499
604.609, 983.173
605.091, 980.647
605.573, 967.009
606.055, 956.669
606.537, 955.917
607.019, 958.141
607.501, 957.644
607.983, 954.515
608.466, 947.666
608.948, 936.536
609.430, 927.598
609.912, 926.349
610.394, 931.541
610.876, 935.533
611.358, 940.416
611.840, 941.154
612.322, 933.250
612.805, 924.391
613.287, 919.811
613.769, 919.628
614.251, 922.133
614.733, 927.705
615.215, 933.121
615.697, 931.093
616.179, 922.801
616.661, 920.704
617.144, 929.381
617.626, 939.146
618.108, 940.833
618.590, 934.477
619.072, 926.739
619.554, 916.022
620.036, 906.057
620.518, 895.728
621.000, 887.813
621.483, 886.095
621.965, 890.224
622.447, 895.552
622.929, 898.376
623.411, 900.089
623.893, 905.194
624.375, 913.924
624.857, 918.646
625.340, 916.151
625.822, 910.674
626.304, 906.814
626.786, 904.696
627.268, 902.574
627.750, 897.345
628.232, 895.693
628.714, 904.550
629.196, 916.128
629.679, 920.821
630.161, 916.804
630.643, 908.804
631.125, 898.698
631.607, 888.620
632.089, 887.564
632.571, 896.762
633.054, 904.433
633.536, 906.384
634.018, 905.326
634.500, 904.596
634.982, 904.257
635.464, 903.465
635.946, 897.878
636.428, 896.489
636.910, 908.966
637.393, 925.823
637.875, 930.152
638.357, 919.337
638.839, 911.751
639.321, 933.124
639.803, 973.683
640.285, 983.947
640.767, 959.434
641.250, 933.344
641.732, 914.232
642.214, 903.648
642.696, 907.115
643.178, 926.785
643.660, 940.566
644.142, 945.402
644.624, 945.342
645.106, 937.971
645.589, 928.667
646.071, 923.130
646.553, 923.577
647.035, 932.639
647.517, 960.270
647.999, 999.436
648.481, 1015.953
648.963, 1007.400
649.445, 993.719
649.928, 980.067
650.410, 968.136
650.892, 959.606
651.374, 953.519
651.856, 956.589
652.338, 980.621
652.820, 1001.497
653.302, 1003.961
653.784, 998.170
654.267, 999.298
654.749, 1011.004
655.231, 1024.806
655.713, 1031.587
656.195, 1033.820
656.677, 1040.774
657.159, 1052.811
657.641, 1064.213
658.123, 1071.974
658.606, 1079.564
659.088, 1092.564
659.570, 1112.822
660.052, 1129.553
660.534, 1142.825
661.016, 1152.658
661.498, 1152.860
661.981, 1152.695
662.463, 1166.091
662.945, 1194.608
663.427, 1222.779
663.909, 1233.126
664.391, 1235.187
664.873, 1253.814
665.355, 1288.134
665.837, 1317.939
666.320, 1335.759
666.802, 1347.573
667.284, 1360.317
667.766, 1373.697
668.248, 1390.322
668.730, 1419.186
669.212, 1439.964
669.694, 1441.487
670.177, 1436.529
670.659, 1438.842
671.141, 1449.745
671.623, 1460.183
672.105, 1462.533
672.587, 1462.128
673.069, 1471.505
673.551, 1486.609
674.033, 1486.715
674.516, 1465.261
674.998, 1433.260
675.480, 1401.949
675.962, 1371.340
676.444, 1343.528
676.926, 1319.621
677.408, 1297.021
677.890, 1274.947
678.372, 1254.288
678.855, 1238.122
679.337, 1224.943
679.819, 1206.412
680.301, 1171.761
680.783, 1137.586
681.265, 1121.543
681.747, 1116.857
682.229, 1110.270
682.711, 1098.591
683.194, 1082.042
683.676, 1059.573
684.158, 1033.578
684.640, 1018.376
685.122, 1018.980
685.604, 1016.622
686.086, 1005.394
686.568, 993.138
687.050, 985.854
687.533, 982.214
688.015, 977.556
688.497, 969.670
688.979, 962.376
689.461, 956.871
689.943, 953.356
690.425, 952.501
690.907, 954.047
691.390, 957.893
691.872, 964.912
692.354, 970.286
692.836, 959.850
693.318, 932.136
693.800, 915.930
694.282, 917.486
694.764, 924.430
695.247, 930.753
695.729, 935.792
696.211, 937.390
696.693, 933.821
697.175, 930.400
697.657, 926.083
698.139, 923.846
698.621, 927.006
699.104, 933.656
699.586, 939.831
700.068, 943.913
700.550, 946.793
701.032, 947.915
701.514, 948.688
701.996, 956.130
702.478, 970.810
702.960, 979.575
703.443, 974.445
703.925, 963.092
704.407, 959.460
704.889, 965.009
705.371, 973.278
705.853, 989.383
706.335, 1002.178
706.817, 1004.010
707.299, 1002.932
707.782, 1009.466
708.264, 1025.195
708.746, 1040.534
709.228, 1049.812
709.710, 1056.186
710.192, 1061.459
710.674, 1066.787
711.156, 1075.776
711.638, 1089.373
712.121, 1103.721
712.603, 1114.909
713.085, 1123.015
713.567, 1127.681
714.049, 1124.406
714.531, 1130.941
715.013, 1155.945
715.495, 1188.107
715.977, 1222.546
716.460, 1256.974
716.942, 1276.039
717.424, 1260.308
717.906, 1250.305
718.388, 1265.965
718.870, 1291.916
719.352, 1314.123
719.834, 1330.364
720.317, 1342.279
720.799, 1350.266
721.281, 1356.517
721.763, 1366.654
722.245, 1379.201
722.727, 1382.261
723.209, 1373.087
723.691, 1363.263
724.174, 1361.341
724.656, 1363.431
725.138, 1357.951
725.620, 1342.140
726.102, 1324.045
726.584, 1300.208
727.066, 1278.122
727.548, 1264.887
728.031, 1254.111
728.513, 1234.764
728.995, 1203.679
729.477, 1172.370
729.959, 1146.632
730.441, 1125.191
730.923, 1108.212
731.405, 1094.155
731.887, 1078.277
732.370, 1059.003
732.852, 1039.936
733.334, 1025.676
733.816, 1015.913
734.298, 1006.939
734.780, 998.878
735.262, 991.212
735.744, 984.479
736.226, 977.229
736.709, 965.776
737.191, 950.642
737.673, 943.133
738.155, 955.981
738.637, 961.090
739.119, 941.096
739.601, 916.657
740.083, 908.493
740.565, 914.968
741.048, 920.865
741.530, 918.204
742.012, 911.355
742.494, 904.384
742.976, 897.639
743.458, 893.000
743.940, 890.481
744.422, 885.682
744.904, 875.422
745.387, 862.521
745.869, 853.316
746.351, 847.487
746.833, 846.577
747.315, 853.629
747.797, 861.304
748.279, 866.089
748.761, 869.839
749.244, 875.842
749.726, 885.051
750.208, 889.906
750.690, 883.468
751.172, 876.890
751.654, 878.972
752.136, 884.891
752.618, 886.465
753.101, 882.231
753.583, 877.226
754.065, 875.698
754.547, 876.158
755.029, 876.127
755.511, 875.411
755.993, 870.531
756.475, 859.678
756.958, 853.198
757.440, 861.334
757.922, 880.387
758.404, 890.848
758.886, 889.904
759.368, 885.972
759.850, 871.561
760.332, 862.318
760.814, 872.297
761.297, 891.192
761.779, 898.413
762.261, 887.677
762.743, 875.384
763.225, 865.716
763.707, 859.868
764.189, 861.672
764.671, 867.575
765.153, 869.086
765.636, 863.741
766.118, 858.984
766.600, 865.693
767.082, 878.645
767.564, 878.580
768.046, 865.795
768.528, 855.761
769.010, 852.877
769.492, 854.896
769.975, 860.655
770.457, 869.582
770.939, 873.356
771.421, 863.638
771.903, 863.121
772.385, 883.800
772.867, 905.171
773.349, 916.011
773.831, 917.942
774.314, 915.407
774.796, 906.545
775.278, 900.771
775.760, 907.513
776.242, 915.028
776.724, 907.688
777.206, 892.450
777.688, 889.492
778.171, 906.077
778.653, 926.054
779.135, 930.604
779.617, 924.127
780.099, 919.560
780.581, 917.088
781.063, 919.089
781.545, 926.855
782.028, 936.660
782.510, 945.099
782.992, 951.946
783.474, 953.078
783.956, 943.255
784.438, 937.972
784.920, 945.492
785.402, 952.501
785.885, 944.825
786.367, 930.322
786.849, 932.487
787.331, 966.587
787.813, 991.617
788.295, 983.790
788.777, 970.269
789.259, 975.659
789.741, 992.110
790.224, 998.958
790.706, 989.410
791.188, 976.858
791.670, 973.189
792.152, 975.666
792.634, 980.029
793.116, 985.593
793.598, 988.248
794.080, 986.702
794.563, 985.648
795.045, 989.897
795.527, 998.721
796.009, 1008.579
796.491, 1021.510
796.973, 1027.755
797.455, 1021.540
797.937, 1014.745
798.419, 1015.665
798.902, 1022.391
799.384, 1028.391
799.866, 1031.059
800.348, 1038.786
800.830, 1058.851
801.312, 1077.682
801.794, 1088.217
802.276, 1092.590
802.758, 1091.438
803.241, 1085.776
803.723, 1087.765
804.205, 1112.844
804.687, 1143.122
805.169, 1158.828
805.651, 1164.541
806.133, 1169.339
806.615, 1175.796
807.098, 1185.550
807.580, 1200.688
808.062, 1217.751
808.544, 1226.048
809.026, 1225.841
809.508, 1234.754
809.990, 1255.945
810.472, 1281.311
810.955, 1308.011
811.437, 1333.680
811.919, 1353.253
812.401, 1365.646
812.883, 1375.505
813.365, 1377.228
813.847, 1383.678
814.329, 1397.659
814.812, 1418.345
815.294, 1448.553
815.776, 1486.816
816.258, 1518.364
816.740, 1530.791
817.222, 1546.345
817.704, 1576.471
818.186, 1613.585
818.668, 1653.295
819.151, 1692.713
819.633, 1724.914
820.115, 1745.130
820.597, 1768.531
821.079, 1812.582
821.561, 1871.133
822.043, 1931.465
822.525, 1993.531
823.007, 2059.153
823.490, 2129.163
823.972, 2208.961
824.454, 2305.846
824.936, 2417.942
825.418, 2531.197
825.900, 2642.906
826.382, 2769.286
826.864, 2914.033
827.346, 3073.037
827.829, 3242.526
828.311, 3423.206
828.793, 3620.565
829.275, 3827.059
829.757, 4061.213
830.239, 4317.549
830.721, 4606.216
831.203, 4938.629
831.685, 5303.466
832.168, 5676.366
832.650, 6054.105
833.132, 6479.072
833.614, 6990.749
834.096, 7533.375
834.578, 8072.791
835.060, 8623.621
835.542, 9204.642
836.024, 9817.047
836.507, 10446.650
836.989, 11095.510
837.471, 11729.210
837.953, 12334.460
838.435, 12883.910
838.917, 13302.770
839.399, 13595.890
839.881, 13836.680
840.364, 14056.920
840.846, 14264.450
841.328, 14458.710
841.810, 14645.320
842.292, 14907.660
842.774, 15250.030
843.256, 15640.270
843.738, 16088.530
844.221, 16541.260
844.703, 16978.590
845.185, 17374.480
845.667, 17576.859
846.149, 17627.051
846.631, 17405.131
847.113, 16865.680
847.595, 16088.640
848.078, 15029.600
848.560, 13786.250
849.042, 12474.610
849.524, 11084.160
850.006, 9804.156
850.488, 8676.732
850.970, 7683.317
851.452, 6833.402
851.934, 6107.255
852.417, 5506.242
852.899, 5013.213
853.381, 4582.132
853.863, 4193.732
854.345, 3850.666
854.827, 3558.395
855.309, 3310.501
855.791, 3106.146
856.273, 2938.475
856.756, 2789.086
857.238, 2649.657
857.720, 2521.078
858.202, 2405.289
858.684, 2300.427
859.166, 2200.484
859.648, 2106.348
860.130, 2026.192
860.612, 1962.244
861.095, 1904.977
861.577, 1846.691
862.059, 1788.825
862.541, 1735.062
863.023, 1685.222
863.505, 1640.440
863.987, 1601.752
864.469, 1566.047
864.951, 1530.844
865.434, 1499.164
865.916, 1477.584
866.398, 1467.962
866.880, 1452.879
867.362, 1431.425
867.844, 1406.024
868.326, 1371.869
868.808, 1338.665
869.291, 1314.100
869.773, 1296.355
870.255, 1279.132
870.737, 1260.585
871.219, 1244.142
871.701, 1233.309
872.183, 1222.753
872.665, 1206.727
873.148, 1189.139
873.630, 1177.433
874.112, 1172.339
874.594, 1166.536
875.076, 1154.311
875.558, 1140.495
876.040, 1128.471
876.522, 1119.002
877.005, 1113.711
877.487, 1112.372
877.969, 1115.250
878.451, 1122.880
878.933, 1126.102
879.415, 1108.006
879.897, 1076.102
880.379, 1054.613
880.861, 1043.706
881.344, 1040.424
881.826, 1044.125
882.308, 1048.811
882.790, 1049.010
883.272, 1045.710
883.754, 1043.476
884.236, 1043.244
884.718, 1035.432
885.200, 1017.215
885.683, 997.706
886.165, 980.381
886.647, 966.205
887.129, 956.582
887.611, 951.300
888.093, 952.512
888.575, 968.879
889.057, 976.880
889.539, 965.368
890.022, 949.995
890.504, 941.490
890.986, 938.647
891.468, 937.883
891.950, 940.283
892.432, 941.843
892.914, 943.245
893.396, 942.304
893.878, 934.949
894.361, 926.419
894.843, 925.353
895.325, 931.470
895.807, 931.724
896.289, 913.480
896.771, 897.554
897.253, 896.694
897.735, 901.843
898.218, 904.956
898.700, 905.649
899.182, 906.559
899.664, 908.701
900.146, 907.629
900.628, 893.640
901.110, 879.347
901.592, 885.839
902.075, 902.645
902.557, 905.286
903.039, 891.023
903.521, 874.898
904.003, 866.486
904.485, 862.977
904.967, 861.609
905.449, 861.532
905.932, 860.404
906.414, 857.974
906.896, 852.794
907.378, 844.309
907.860, 836.908
908.342, 835.309
908.824, 838.686
909.306, 845.997
909.788, 857.438
910.271, 859.941
910.753, 850.598
911.235, 839.148
911.717, 830.702
912.199, 824.346
912.681, 818.130
913.163, 811.833
913.645, 809.868
914.127, 815.545
914.610, 814.953
915.092, 800.193
915.574, 786.073
916.056, 786.372
916.538, 797.057
917.020, 801.488
917.502, 794.517
917.984, 792.478
918.466, 802.375
918.949, 808.113
919.431, 799.417
919.913, 786.775
920.395, 782.010
920.877, 784.791
921.359, 785.890
921.841, 786.098
922.323, 782.307
922.805, 765.418
923.288, 753.043
923.770, 762.277
924.252, 780.992
924.734, 786.380
925.216, 773.973
925.698, 764.704
926.180, 769.496
926.662, 774.023
927.145, 769.673
927.627, 762.821
928.109, 758.917
928.591, 758.584
929.073, 761.555
929.555, 768.303
930.037, 775.072
930.519, 781.238
931.002, 784.840
931.484, 781.771
931.966, 775.935
932.448, 774.774
932.930, 778.266
933.412, 778.687
933.894, 769.978
934.376, 761.214
934.859, 764.631
935.341, 771.822
935.823, 767.791
936.305, 756.369
936.787, 751.532
937.269, 757.204
937.751, 765.663
938.233, 772.628
938.715, 775.311
939.198, 765.246
939.680, 747.856
940.162, 736.966
940.644, 734.171
941.126, 738.857
941.608, 750.770
942.090, 762.413
942.572, 763.960
943.054, 758.018
943.537, 751.650
944.019, 745.365
944.501, 742.905
944.983, 744.932
945.465, 751.682
945.947, 764.353
946.429, 775.730
946.911, 770.028
947.393, 748.761
947.876, 734.565
948.358, 727.571
948.840, 726.513
949.322, 731.405
949.804, 739.994
950.286, 751.460
950.768, 763.323
951.250, 767.378
951.732, 762.553
952.215, 761.101
952.697, 764.961
953.179, 763.815
953.661, 751.541
954.143, 740.053
954.625, 744.027
955.107, 759.542
955.589, 760.124
956.072, 738.969
956.554, 728.721
957.036, 736.360
957.518, 743.541
958.000, 741.459
958.482, 735.249
958.964, 731.874
959.446, 731.311
959.929, 729.421
960.411, 723.666
960.893, 722.467
961.375, 729.355
961.857, 737.119
962.339, 742.752
962.821, 746.122
963.303, 746.673
963.786, 743.972
964.268, 741.446
964.750, 737.840
965.232, 736.392
965.714, 740.743
966.196, 744.170
966.678, 739.376
967.160, 731.099
967.642, 731.438
968.125, 744.506
968.607, 751.340
969.089, 750.656
969.571, 744.679
970.053, 725.876
970.535, 709.081
971.017, 706.656
971.499, 715.762
971.981, 728.502
972.464, 750.617
972.946, 758.497
973.428, 733.747
973.910, 713.706
974.392, 714.657
974.874, 724.384
975.356, 734.124
975.838, 742.008
976.320, 743.228
976.803, 732.120
977.285, 725.408
977.767, 726.220
978.249, 732.487
978.731, 752.413
979.213, 771.068
979.695, 768.062
980.177, 745.828
980.659, 728.359
981.142, 720.405
981.624, 719.106
982.106, 731.812
982.588, 742.238
983.070, 736.707
983.552, 725.219
984.034, 723.303
984.516, 731.176
984.999, 733.436
985.481, 720.247
985.963, 708.835
986.445, 706.649
986.927, 706.774
987.409, 704.860
987.891, 701.717
988.373, 699.076
988.856, 697.190
989.338, 695.283
989.820, 690.578
990.302, 689.143
990.784, 698.289
991.266, 707.066
991.748, 706.284
992.230, 698.998
992.713, 690.692
993.195, 682.540
993.677, 675.903
994.159, 669.000
994.641, 666.739
995.123, 674.262
995.605, 684.821
996.087, 694.237
996.569, 701.496
997.052, 705.370
997.534, 705.640
998.016, 705.766
998.498, 710.741
998.980, 711.536
999.462, 696.226
999.944, 680.912
1000.426, 682.806
1000.908, 695.799
1001.391, 704.316
1001.873, 704.610
1002.355, 706.214
1002.837, 717.831
1003.319, 726.367
1003.801, 723.161
1004.283, 714.864
1004.765, 704.245
1005.247, 694.787
1005.730, 692.773
1006.212, 699.967
1006.694, 709.260
1007.176, 722.101
1007.658, 730.591
1008.140, 727.210
1008.622, 720.017
1009.104, 715.624
1009.587, 714.260
1010.069, 715.310
1010.551, 718.932
1011.033, 719.881
1011.515, 710.616
1011.997, 704.608
1012.479, 713.312
1012.961, 724.965
1013.443, 729.617
1013.926, 727.438
1014.408, 719.148
1014.890, 703.741
1015.372, 697.011
1015.854, 717.524
1016.336, 732.930
1016.818, 719.893
1017.300, 700.756
1017.783, 697.372
1018.265, 704.759
1018.747, 706.862
1019.229, 699.721
1019.711, 693.289
1020.193, 692.961
1020.675, 691.528
1021.157, 681.554
1021.639, 672.842
1022.122, 676.901
1022.604, 688.288
1023.086, 693.198
1023.568, 688.277
1024.050, 685.032
1024.532, 690.099
1025.014, 693.091
1025.496, 688.962
1025.979, 682.194
1026.461, 672.985
1026.943, 664.960
1027.425, 666.641
1027.907, 680.715
1028.389, 690.305
1028.871, 685.252
1029.353, 684.143
1029.835, 699.727
1030.318, 714.454
1030.800, 713.122
1031.282, 702.461
1031.764, 697.291
1032.246, 700.083
1032.728, 698.758
1033.210, 683.764
1033.692, 675.702
1034.175, 684.547
1034.657, 696.211
1035.139, 704.367
1035.621, 708.089
1036.103, 704.417
1036.585, 691.826
1037.067, 684.998
1037.549, 688.688
1038.031, 692.230
1038.514, 695.842
1038.996, 697.180
1039.478, 694.540
1039.960, 689.082
1040.442, 680.819
1040.924, 669.050
1041.406, 666.532
1041.888, 679.195
1042.370, 690.406
1042.853, 699.825
1043.335, 705.572
1043.817, 705.843
1044.299, 702.560
1044.781, 697.234
1045.263, 690.073
1045.745, 688.751
1046.227, 696.470
1046.710, 701.856
1047.192, 704.229
1047.674, 703.113
1048.156, 696.119
1048.638, 689.269
1049.120, 690.709
1049.602, 699.139
1050.084, 704.812
1050.567, 708.248
1051.049, 705.469
1051.531, 693.681
1052.013, 685.442
1052.495, 685.553
1052.977, 692.307
1053.459, 706.280
1053.941, 722.855
1054.423, 720.148
1054.906, 696.312
1055.388, 685.906
1055.870, 691.812
1056.352, 700.719
1056.834, 709.062
1057.316, 710.445
1057.798, 697.083
1058.280, 678.179
1058.762, 679.174
1059.245, 697.614
1059.727, 711.000
1060.209, 718.444
1060.691, 717.551
1061.173, 707.945
1061.655, 697.426
1062.137, 691.566
1062.619, 688.550
1063.102, 684.471
1063.584, 680.888
1064.066, 685.968
1064.548, 696.528
1065.030, 696.658
1065.512, 684.955
1065.994, 675.940
1066.476, 677.974
1066.958, 684.606
1067.441, 689.396
1067.923, 692.564
1068.405, 695.657
1068.887, 697.054
1069.369, 689.479
1069.851, 675.989
1070.333, 672.320
1070.815, 685.123
1071.297, 699.500
1071.780, 703.867
1072.262, 702.147
1072.744, 694.326
1073.226, 685.856
1073.708, 685.358
1074.190, 690.590
1074.672, 694.018
1075.154, 693.526
1075.636, 692.393
1076.119, 694.339
1076.601, 693.867
1077.083, 682.745
1077.565, 672.249
1078.047, 676.986
1078.529, 687.538
1079.011, 684.258
1079.493, 666.229
1079.976, 656.669
1080.458, 667.658
1080.940, 680.207
1081.422, 691.192
1081.904, 699.259
1082.386, 704.628
1082.868, 705.934
1083.350, 697.330
1083.833, 681.890
1084.315, 678.791
1084.797, 701.389
1085.279, 712.188
1085.761, 700.379
1086.243, 688.015
1086.725, 679.409
1087.207, 674.625
1087.689, 674.693
1088.172, 678.317
1088.654, 682.344
1089.136, 688.005
1089.618, 686.869
1090.100, 673.872
1090.582, 668.846
1091.064, 678.412
1091.546, 689.996
1092.028, 696.029
1092.511, 698.837
1092.993, 703.170
1093.475, 708.462
1093.957, 703.815
1094.439, 688.278
1094.921, 680.414
1095.403, 682.997
1095.885, 687.705
1096.368, 691.113
1096.850, 690.794
1097.332, 683.246
1097.814, 671.219
1098.296, 659.375
1098.778, 649.693
1099.260, 654.985
1099.742, 672.148
1100.224, 679.536
1100.707, 671.397
1101.189, 660.465
1101.671, 655.059
1102.153, 655.161
1102.635, 664.138
1103.117, 676.344
1103.599, 682.859
1104.081, 685.369
1104.563, 688.887
1105.046, 693.317
1105.528, 693.746
1106.010, 687.580
1106.492, 680.858
1106.974, 676.055
1107.456, 674.366
1107.938, 679.989
1108.420, 686.591
1108.903, 685.326
1109.385, 679.692
1109.867, 680.298
1110.349, 689.647
1110.831, 696.142
1111.313, 694.036
1111.795, 691.796
1112.277, 693.219
1112.760, 693.818
1113.242, 689.715
1113.724, 683.780
1114.206, 679.781
1114.688, 677.854
1115.170, 677.487
1115.652, 679.462
1116.134, 681.469
1116.616, 683.840
1117.099, 685.318
1117.581, 684.379
1118.063, 685.162
1118.545, 693.833
1119.027, 703.890
1119.509, 694.158
1119.991, 662.258
1120.473, 653.024
1120.955, 668.438
1121.438, 682.202
1121.920, 689.373
1122.402, 689.278
1122.884, 680.941
1123.366, 671.179
1123.848, 669.242
1124.330, 673.189
1124.812, 679.105
1125.295, 685.771
1125.777, 688.325
1126.259, 687.317
1126.741, 688.346
1127.223, 692.678
1127.705, 693.377
1128.187, 682.139
1128.669, 673.408
1129.151, 690.339
1129.634, 712.054
1130.116, 711.410
1130.598, 698.072
1131.080, 689.395
1131.562, 687.188
1132.044, 684.108
1132.526, 676.023
1133.008, 675.370
1133.490, 699.621
1133.973, 717.178
1134.455, 704.981
1134.937, 687.279
1135.419, 685.395
1135.901, 692.584
1136.383, 692.213
1136.865, 682.264
1137.347, 678.829
1137.830, 687.294
1138.312, 692.864
1138.794, 692.910
1139.276, 693.182
1139.758, 697.339
1140.240, 699.906
1140.722, 693.906
1141.204, 683.125
1141.687, 681.712
1142.169, 690.426
1142.651, 696.254
1143.133, 698.893
1143.615, 703.131
1144.097, 710.078
1144.579, 711.861
1145.061, 703.387
1145.543, 691.249
1146.026, 683.025
1146.508, 678.616
1146.990, 678.726
1147.472, 682.161
1147.954, 687.048
1148.436, 692.360
1148.918, 696.539
1149.400, 698.871
1149.882, 697.798
1150.365, 690.681
1150.847, 683.773
1151.329, 680.775
1151.811, 681.136
1152.293, 687.258
1152.775, 694.439
1153.257, 696.536
1153.739, 694.133
1154.222, 691.102
1154.704, 687.241
1155.186, 687.227
1155.668, 697.250
1156.150, 703.472
1156.632, 701.368
1157.114, 695.900
1157.596, 686.596
1158.078, 678.481
1158.561, 680.136
1159.043, 689.861
1159.525, 690.830
1160.007, 680.488
1160.489, 678.333
1160.971, 686.575
1161.453, 692.944
1161.935, 693.662
1162.417, 691.692
1162.900, 688.505
1163.382, 688.073
1163.864, 701.416
1164.346, 721.219
1164.828, 724.786
1165.310, 717.488
1165.792, 714.987
1166.274, 717.662
1166.757, 718.109
1167.239, 713.667
1167.721, 705.597
1168.203, 691.209
1168.685, 679.695
1169.167, 681.399
1169.649, 685.456
1170.131, 682.062
1170.614, 675.271
1171.096, 669.298
1171.578, 665.787
1172.060, 668.823
1172.542, 682.037
1173.024, 691.410
1173.506, 688.306
1173.988, 692.375
1174.470, 716.661
1174.953, 733.838
1175.435, 727.035
1175.917, 707.152
1176.399, 687.098
1176.881, 668.257
1177.363, 662.643
1177.845, 671.074
1178.327, 663.876
1178.809, 639.896
1179.292, 631.463
1179.774, 646.765
1180.256, 663.249
1180.738, 665.935
1181.220, 663.237
1181.702, 666.166
1182.184, 670.881
1182.666, 672.331
1183.149, 670.230
1183.631, 660.170
1184.113, 647.194
1184.595, 645.239
1185.077, 656.413
1185.559, 665.422
1186.041, 663.929
1186.523, 662.077
1187.005, 666.024
1187.488, 668.103
1187.970, 660.666
1188.452, 652.511
1188.934, 654.539
1189.416, 662.073
1189.898, 663.125
1190.380, 657.328
1190.862, 647.365
1191.344, 629.051
1191.827, 624.522
1192.309, 639.675
1192.791, 650.250
1193.273, 645.429
1193.755, 639.376
1194.237, 645.960
1194.719, 659.286
1195.201, 668.497
1195.684, 674.131
1196.166, 676.761
1196.648, 677.511
1197.130, 680.694
1197.612, 685.219
1198.094, 682.709
1198.576, 670.310
1199.058, 662.251
1199.541, 672.424
1200.023, 683.290
1200.505, 684.225
1200.987, 682.188
1201.469, 684.696
1201.951, 685.704
1202.433, 672.555
1202.915, 649.861
1203.397, 642.774
1203.880, 657.049
1204.362, 664.691
1204.844, 660.943
1205.326, 665.389
1205.808, 687.393
1206.290, 693.919
1206.772, 665.580
1207.254, 628.988
1207.736, 612.776
1208.219, 614.208
1208.701, 631.975
1209.183, 660.133
1209.665, 676.899
1210.147, 684.152
1210.629, 693.347
1211.111, 704.533
1211.593, 706.381
1212.076, 694.009
1212.558, 680.463
1213.040, 674.560
1213.522, 670.640
1214.004, 663.939
1214.486, 659.192
1214.968, 662.574
1215.450, 668.581
1215.932, 668.067
1216.415, 662.744
1216.897, 665.443
1217.379, 681.269
1217.861, 684.836
1218.343, 671.309
1218.825, 660.497
1219.307, 656.021
1219.789, 653.246
1220.271, 649.866
1220.754, 647.459
1221.236, 647.251
1221.718, 650.517
1222.200, 665.317
1222.682, 683.854
1223.164, 682.313
1223.646, 667.036
1224.128, 654.789
1224.611, 648.724
1225.093, 647.421
1225.575, 650.368
1226.057, 654.460
1226.539, 657.979
1227.021, 662.263
1227.503, 670.477
1227.985, 676.710
1228.468, 677.171
1228.950, 673.680
1229.432, 666.158
1229.914, 657.205
1230.396, 655.049
1230.878, 660.653
1231.360, 662.640
1231.842, 660.124
1232.324, 662.087
1232.807, 670.065
1233.289, 672.605
1233.771, 665.205
1234.253, 656.345
1234.735, 653.249
1235.217, 652.900
1235.699, 651.618
1236.181, 649.812
1236.663, 647.905
1237.146, 646.043
1237.628, 642.899
1238.110, 640.372
1238.592, 641.192
1239.074, 646.337
1239.556, 662.718
1240.038, 721.946
1240.520, 744.661
1241.003, 683.100
1241.485, 635.694
1241.967, 634.354
1242.449, 648.513
1242.931, 659.441
1243.413, 666.795
1243.895, 669.729
1244.377, 668.574
1244.859, 663.507
1245.342, 655.791
1245.824, 654.196
1246.306, 657.672
1246.788, 656.695
1247.270, 650.242
1247.752, 648.078
1248.234, 656.083
1248.716, 662.352
1249.198, 654.917
1249.681, 646.899
1250.163, 647.313
1250.645, 650.120
1251.127, 649.731
1251.609, 648.842
1252.091, 652.297
1252.573, 659.312
1253.055, 666.171
1253.538, 674.800
1254.020, 672.321
1254.502, 656.588
1254.984, 641.194
1255.466, 627.828
1255.948, 627.625
1256.430, 645.550
1256.912, 663.641
1257.395, 665.270
1257.877, 659.423
1258.359, 656.594
1258.841, 656.163
1259.323, 658.869
1259.805, 662.341
1260.287, 664.006
1260.769, 663.199
1261.251, 657.847
1261.734, 647.831
1262.216, 643.113
1262.698, 652.098
1263.180, 655.019
1263.662, 646.302
1264.144, 642.007
1264.626, 648.926
1265.108, 652.948
1265.590, 643.678
1266.073, 632.544
1266.555, 637.255
1267.037, 651.106
1267.519, 654.911
1268.001, 652.075
1268.483, 650.254
1268.965, 650.483
1269.447, 656.939
1269.930, 666.390
1270.412, 662.292
1270.894, 637.528
1271.376, 623.860
1271.858, 647.075
1272.340, 665.221
##END=



