##NAMES=Narsarsukite
##RRUFFID=R060217
##IDEAL CHEMISTRY=Na_2_(Ti^4+^,Fe^3+^)Si_4_(O,F)_11_
##LOCALITY=Mont Saint-Hilaire, Rouville County, Quebec, Canada
##OWNER=RRUFF
##SOURCE=Royal Ontario Museum
##DESCRIPTION=Tan to green tetragonal prisms
##STATUS=The identification of this mineral has been confirmed by X-ray diffraction.
##URL=rruff.info/R060217
92.07813, 384.0702
92.56024, 392.1766
93.04236, 380.0317
93.52448, 355.2814
94.00659, 346.1849
94.48871, 394.4782
94.97083, 471.7080
95.45294, 498.0078
95.93506, 454.6384
96.41718, 376.5594
96.89929, 313.9045
97.38141, 267.1037
97.86353, 242.6490
98.34564, 250.8438
98.82776, 290.4479
99.30988, 340.5782
99.79199, 407.2417
100.2741, 478.9026
100.7562, 510.6776
101.2383, 495.7415
101.7205, 459.7299
102.2026, 417.9743
102.6847, 363.4139
103.1668, 333.6113
103.6489, 348.2480
104.1310, 409.0608
104.6132, 424.8127
105.0953, 368.1074
105.5774, 292.0342
106.0595, 264.0406
106.5416, 309.1208
107.0237, 364.1372
107.5059, 418.2995
107.9880, 479.0445
108.4701, 513.7098
108.9522, 501.7416
109.4343, 467.7253
109.9164, 456.2108
110.3986, 500.6689
110.8807, 539.7103
111.3628, 554.9535
111.8449, 534.0569
112.3270, 508.5387
112.8091, 471.8493
113.2913, 430.6574
113.7734, 403.2486
114.2555, 384.6752
114.7376, 385.5110
115.2197, 412.2751
115.7018, 498.8612
116.1840, 574.2165
116.6661, 609.8181
117.1482, 613.5555
117.6303, 626.3781
118.1124, 677.4438
118.5945, 738.2585
119.0767, 783.9459
119.5588, 785.4380
120.0409, 787.9698
120.5230, 818.9149
121.0051, 876.8460
121.4872, 934.6332
121.9694, 964.5176
122.4515, 985.9893
122.9336, 1026.258
123.4157, 1111.222
123.8978, 1211.264
124.3799, 1292.138
124.8621, 1349.935
125.3442, 1422.432
125.8263, 1548.917
126.3084, 1716.175
126.7905, 1892.648
127.2726, 2079.857
127.7548, 2260.807
128.2369, 2401.007
128.7190, 2492.368
129.2011, 2564.723
129.6832, 2657.062
130.1653, 2764.680
130.6474, 2864.529
131.1296, 2942.871
131.6117, 3001.818
132.0938, 3046.129
132.5759, 3068.046
133.0580, 3090.004
133.5401, 3158.516
134.0223, 3274.674
134.5044, 3403.612
134.9865, 3512.464
135.4686, 3603.886
135.9507, 3732.684
136.4328, 3916.095
136.9150, 4139.243
137.3971, 4349.329
137.8792, 4545.155
138.3613, 4737.059
138.8434, 4934.968
139.3255, 5139.390
139.8077, 5340.691
140.2898, 5541.249
140.7719, 5738.229
141.2540, 5923.544
141.7361, 6096.962
142.2182, 6255.796
142.7004, 6390.552
143.1825, 6480.938
143.6646, 6595.977
144.1467, 6756.420
144.6288, 6968.760
145.1109, 7154.908
145.5931, 7305.575
146.0752, 7438.829
146.5573, 7577.675
147.0394, 7717.504
147.5215, 7868.604
148.0036, 8030.805
148.4858, 8207.608
148.9679, 8391.236
149.4500, 8579.225
149.9321, 8775.393
150.4142, 8980.868
150.8963, 9171.725
151.3785, 9398.321
151.8606, 9675.605
152.3427, 10029.66
152.8248, 10383.10
153.3069, 10704.73
153.7890, 11029.24
154.2712, 11380.80
154.7533, 11724.16
155.2354, 12105.90
155.7175, 12532.10
156.1996, 13020.52
156.6817, 13502.89
157.1639, 13931.43
157.6460, 14348.70
158.1281, 14837.54
158.6102, 15482.16
159.0923, 16152.63
159.5744, 16789.02
160.0566, 17367.85
160.5387, 17923.40
161.0208, 18496.01
161.5029, 19056.89
161.9850, 19518.59
162.4671, 19939.16
162.9493, 20204.24
163.4314, 20238.46
163.9135, 20014.02
164.3956, 19578.69
164.8777, 18893.50
165.3598, 17995.23
165.8420, 17032.37
166.3241, 16000.61
166.8062, 14968.87
167.2883, 13994.71
167.7704, 13040.88
168.2525, 12200.25
168.7346, 11543.90
169.2168, 11054.83
169.6989, 10631.75
170.1810, 10222.82
170.6631, 9842.023
171.1452, 9505.389
171.6273, 9240.127
172.1095, 9007.538
172.5916, 8773.744
173.0737, 8539.964
173.5558, 8321.454
174.0379, 8122.018
174.5201, 7946.616
175.0022, 7799.707
175.4843, 7686.047
175.9664, 7599.108
176.4485, 7537.644
176.9306, 7500.506
177.4128, 7477.065
177.8949, 7454.659
178.3770, 7438.893
178.8591, 7441.849
179.3412, 7473.630
179.8233, 7525.213
180.3055, 7587.756
180.7876, 7662.655
181.2697, 7734.033
181.7518, 7771.511
182.2339, 7789.296
182.7160, 7834.949
183.1982, 7951.521
183.6803, 8106.725
184.1624, 8222.186
184.6445, 8292.146
185.1266, 8356.884
185.6087, 8463.463
186.0909, 8607.007
186.5730, 8755.719
187.0551, 8892.391
187.5372, 9023.121
188.0193, 9179.611
188.5014, 9367.232
188.9836, 9556.811
189.4657, 9731.495
189.9478, 9887.279
190.4299, 9995.318
190.9120, 10037.73
191.3941, 10018.90
191.8763, 9960.432
192.3584, 9861.710
192.8405, 9726.352
193.3226, 9549.166
193.8047, 9330.797
194.2868, 9095.619
194.7690, 8847.225
195.2511, 8587.702
195.7332, 8323.603
196.2153, 8047.765
196.6974, 7783.743
197.1795, 7587.085
197.6617, 7460.615
198.1438, 7349.610
198.6259, 7225.384
199.1080, 7088.481
199.5901, 6973.302
200.0722, 6880.003
200.5544, 6810.510
201.0365, 6779.105
201.5186, 6792.294
202.0007, 6800.159
202.4828, 6770.802
202.9649, 6699.573
203.4471, 6659.419
203.9292, 6662.150
204.4113, 6682.872
204.8934, 6668.727
205.3755, 6611.403
205.8576, 6553.187
206.3398, 6516.950
206.8219, 6507.619
207.3040, 6485.908
207.7861, 6448.478
208.2682, 6401.527
208.7503, 6359.305
209.2325, 6325.553
209.7146, 6286.302
210.1967, 6230.849
210.6788, 6152.345
211.1609, 6095.859
211.6430, 6077.698
212.1252, 6069.832
212.6073, 5998.803
213.0894, 5835.731
213.5715, 5685.846
214.0536, 5605.675
214.5357, 5621.883
215.0179, 5605.033
215.5000, 5541.557
215.9821, 5452.928
216.4642, 5387.147
216.9463, 5350.558
217.4284, 5324.202
217.9105, 5301.806
218.3927, 5286.837
218.8748, 5263.439
219.3569, 5224.500
219.8390, 5181.074
220.3211, 5156.982
220.8032, 5156.349
221.2854, 5167.381
221.7675, 5189.126
222.2496, 5230.493
222.7317, 5253.319
223.2138, 5251.156
223.6959, 5233.601
224.1781, 5220.155
224.6602, 5208.763
225.1423, 5205.229
225.6244, 5211.019
226.1065, 5224.182
226.5886, 5254.014
227.0708, 5310.229
227.5529, 5378.546
228.0350, 5430.079
228.5171, 5462.054
228.9992, 5482.752
229.4813, 5493.550
229.9635, 5490.004
230.4456, 5491.063
230.9277, 5501.403
231.4098, 5514.011
231.8919, 5512.884
232.3740, 5482.492
232.8562, 5463.579
233.3383, 5471.909
233.8204, 5514.583
234.3025, 5563.313
234.7846, 5628.106
235.2667, 5693.762
235.7489, 5729.460
236.2310, 5719.097
236.7131, 5705.026
237.1952, 5700.327
237.6773, 5706.076
238.1594, 5717.613
238.6416, 5734.618
239.1237, 5757.643
239.6058, 5788.477
240.0879, 5833.390
240.5700, 5876.352
241.0521, 5909.277
241.5343, 5925.174
242.0164, 5961.490
242.4985, 6027.045
242.9806, 6106.872
243.4627, 6178.951
243.9448, 6237.731
244.4270, 6297.743
244.9091, 6360.972
245.3912, 6425.721
245.8733, 6504.992
246.3554, 6606.998
246.8375, 6717.324
247.3197, 6815.948
247.8018, 6893.437
248.2839, 6976.030
248.7660, 7070.920
249.2481, 7179.869
249.7302, 7291.032
250.2124, 7407.419
250.6945, 7524.294
251.1766, 7636.044
251.6587, 7733.985
252.1408, 7844.724
252.6229, 7980.321
253.1051, 8144.940
253.5872, 8285.613
254.0693, 8388.554
254.5514, 8485.625
255.0335, 8609.787
255.5156, 8765.275
255.9978, 8935.238
256.4799, 9115.002
256.9620, 9305.451
257.4441, 9520.174
257.9262, 9770.436
258.4083, 10029.72
258.8904, 10267.47
259.3726, 10470.61
259.8547, 10688.48
260.3368, 10925.66
260.8189, 11184.06
261.3010, 11464.24
261.7831, 11772.71
262.2653, 12091.78
262.7474, 12402.74
263.2295, 12704.81
263.7116, 13010.00
264.1937, 13328.82
264.6758, 13653.28
265.1580, 13957.72
265.6401, 14245.36
266.1222, 14503.36
266.6043, 14725.38
267.0864, 14918.05
267.5685, 15057.33
268.0507, 15136.69
268.5328, 15163.07
269.0149, 15171.85
269.4970, 15180.63
269.9791, 15130.21
270.4612, 14971.52
270.9434, 14682.75
271.4255, 14395.46
271.9076, 14123.65
272.3897, 13851.28
272.8718, 13529.07
273.3539, 13146.04
273.8361, 12748.29
274.3182, 12349.32
274.8003, 11945.06
275.2824, 11583.73
275.7645, 11276.97
276.2466, 11005.63
276.7288, 10731.42
277.2109, 10452.07
277.6930, 10184.22
278.1751, 9942.055
278.6572, 9725.285
279.1393, 9516.670
279.6215, 9315.518
280.1036, 9124.212
280.5857, 8940.942
281.0678, 8764.098
281.5499, 8616.865
282.0320, 8522.974
282.5142, 8477.037
282.9963, 8407.412
283.4784, 8307.560
283.9605, 8204.146
284.4426, 8138.555
284.9247, 8111.776
285.4069, 8069.665
285.8890, 7986.252
286.3711, 7872.448
286.8532, 7773.789
287.3353, 7689.011
287.8174, 7625.725
288.2996, 7604.624
288.7817, 7621.326
289.2638, 7626.209
289.7459, 7601.927
290.2280, 7558.994
290.7101, 7523.458
291.1923, 7495.196
291.6744, 7475.031
292.1565, 7466.333
292.6386, 7467.146
293.1207, 7468.644
293.6028, 7471.442
294.0850, 7470.821
294.5671, 7446.689
295.0492, 7401.318
295.5313, 7373.936
296.0134, 7402.723
296.4955, 7472.575
296.9777, 7541.129
297.4598, 7601.571
297.9419, 7657.378
298.4240, 7710.518
298.9061, 7761.462
299.3882, 7814.077
299.8704, 7854.409
300.3525, 7900.659
300.8346, 7996.694
301.3167, 8154.326
301.7988, 8328.594
302.2809, 8467.939
302.7631, 8583.730
303.2452, 8714.282
303.7273, 8888.493
304.2094, 9084.360
304.6915, 9270.308
305.1736, 9446.123
305.6558, 9615.972
306.1379, 9773.690
306.6200, 9929.125
307.1021, 10100.07
307.5842, 10329.49
308.0663, 10556.81
308.5485, 10727.77
309.0306, 10841.52
309.5127, 10923.96
309.9948, 10986.13
310.4769, 11029.31
310.9590, 11055.62
311.4412, 11076.23
311.9233, 11070.22
312.4054, 11013.39
312.8875, 10912.33
313.3696, 10803.45
313.8517, 10710.86
314.3339, 10619.05
314.8160, 10511.55
315.2981, 10370.36
315.7802, 10237.02
316.2623, 10138.83
316.7444, 10066.05
317.2266, 9990.388
317.7087, 9882.688
318.1908, 9781.438
318.6729, 9712.323
319.1550, 9689.357
319.6371, 9671.278
320.1193, 9639.644
320.6014, 9604.582
321.0835, 9582.329
321.5656, 9588.229
322.0477, 9598.828
322.5298, 9607.732
323.0120, 9616.368
323.4941, 9611.438
323.9762, 9571.505
324.4583, 9523.494
324.9404, 9496.551
325.4225, 9522.165
325.9047, 9542.373
326.3868, 9538.436
326.8689, 9509.258
327.3510, 9490.006
327.8331, 9492.760
328.3152, 9500.758
328.7974, 9502.479
329.2795, 9502.295
329.7616, 9490.266
330.2437, 9459.017
330.7258, 9413.017
331.2079, 9375.471
331.6901, 9339.939
332.1722, 9319.081
332.6543, 9320.489
333.1364, 9358.873
333.6185, 9392.095
334.1006, 9416.447
334.5828, 9436.145
335.0649, 9461.938
335.5470, 9501.729
336.0291, 9533.717
336.5112, 9546.178
336.9933, 9532.977
337.4755, 9533.451
337.9576, 9552.686
338.4397, 9579.826
338.9218, 9603.881
339.4039, 9628.675
339.8860, 9635.545
340.3681, 9615.443
340.8503, 9570.270
341.3324, 9529.365
341.8145, 9494.899
342.2966, 9457.458
342.7787, 9400.896
343.2608, 9324.018
343.7430, 9266.131
344.2251, 9243.842
344.7072, 9239.688
345.1893, 9200.375
345.6714, 9123.306
346.1535, 9039.063
346.6357, 8956.457
347.1178, 8880.377
347.5999, 8847.580
348.0820, 8871.869
348.5641, 8916.194
349.0462, 8918.466
349.5284, 8884.166
350.0105, 8855.143
350.4926, 8862.690
350.9747, 8889.978
351.4568, 8893.557
351.9389, 8868.693
352.4211, 8848.621
352.9032, 8876.475
353.3853, 8936.314
353.8674, 8989.563
354.3495, 9018.210
354.8316, 9034.408
355.3138, 9043.713
355.7959, 9048.151
356.2780, 9068.593
356.7601, 9140.492
357.2422, 9230.455
357.7243, 9294.634
358.2065, 9308.424
358.6886, 9312.188
359.1707, 9328.122
359.6528, 9355.463
360.1349, 9391.929
360.6170, 9462.667
361.0992, 9525.043
361.5813, 9546.840
362.0634, 9516.250
362.5455, 9467.375
363.0276, 9403.586
363.5097, 9331.974
363.9919, 9263.137
364.4740, 9196.108
364.9561, 9135.981
365.4382, 9086.452
365.9203, 9048.198
366.4024, 9010.987
366.8846, 8963.132
367.3667, 8920.273
367.8488, 8895.073
368.3309, 8902.439
368.8130, 8912.540
369.2951, 8916.031
369.7773, 8916.490
370.2594, 8936.916
370.7415, 8987.336
371.2236, 9048.732
371.7057, 9114.525
372.1878, 9194.055
372.6700, 9259.517
373.1521, 9300.523
373.6342, 9331.531
374.1163, 9381.813
374.5984, 9461.442
375.0805, 9539.625
375.5627, 9605.615
376.0448, 9658.180
376.5269, 9719.080
377.0090, 9797.088
377.4911, 9868.844
377.9732, 9912.032
378.4554, 9925.923
378.9375, 9911.029
379.4196, 9858.993
379.9017, 9781.549
380.3838, 9726.427
380.8659, 9698.812
381.3481, 9657.029
381.8302, 9563.721
382.3123, 9425.528
382.7944, 9289.882
383.2765, 9159.996
383.7586, 9036.303
384.2408, 8917.370
384.7229, 8804.018
385.2050, 8693.943
385.6871, 8591.051
386.1692, 8491.264
386.6513, 8377.549
387.1335, 8249.548
387.6156, 8129.133
388.0977, 8040.116
388.5798, 7973.866
389.0619, 7913.358
389.5440, 7852.303
390.0262, 7795.907
390.5083, 7756.410
390.9904, 7728.169
391.4725, 7686.709
391.9546, 7602.129
392.4367, 7506.790
392.9189, 7427.014
393.4010, 7369.509
393.8831, 7325.159
394.3652, 7310.186
394.8473, 7302.971
395.3294, 7267.398
395.8116, 7158.188
396.2937, 7047.734
396.7758, 6972.371
397.2579, 6939.198
397.7400, 6889.816
398.2221, 6801.271
398.7043, 6698.356
399.1864, 6601.444
399.6685, 6522.094
400.1506, 6437.554
400.6327, 6342.751
401.1148, 6240.099
401.5970, 6139.142
402.0791, 6026.102
402.5612, 5932.013
403.0433, 5873.914
403.5254, 5867.429
404.0075, 5851.754
404.4897, 5816.299
404.9718, 5781.019
405.4539, 5777.286
405.9360, 5810.789
406.4181, 5858.718
406.9002, 5915.974
407.3824, 5982.232
407.8645, 6061.659
408.3466, 6156.896
408.8287, 6255.178
409.3108, 6342.375
409.7929, 6419.036
410.2751, 6505.823
410.7572, 6606.000
411.2393, 6718.753
411.7214, 6843.763
412.2035, 6980.513
412.6856, 7120.316
413.1678, 7254.543
413.6499, 7388.952
414.1320, 7533.995
414.6141, 7690.849
415.0962, 7865.195
415.5783, 8064.686
416.0605, 8286.383
416.5426, 8528.408
417.0247, 8788.129
417.5068, 9070.791
417.9889, 9385.857
418.4710, 9728.919
418.9532, 10088.63
419.4353, 10460.59
419.9174, 10842.43
420.3995, 11228.04
420.8816, 11623.17
421.3637, 12014.99
421.8459, 12406.71
422.3280, 12788.84
422.8101, 13152.60
423.2922, 13535.06
423.7743, 13856.68
424.2564, 14102.46
424.7386, 14273.25
425.2207, 14328.27
425.7028, 14243.85
426.1849, 14053.04
426.6670, 13774.84
427.1491, 13370.69
427.6313, 12940.20
428.1134, 12473.29
428.5955, 11988.52
429.0776, 11534.13
429.5597, 11097.19
430.0418, 10706.21
430.5240, 10373.66
431.0061, 10103.83
431.4882, 9847.357
431.9703, 9603.979
432.4524, 9377.900
432.9345, 9175.795
433.4167, 8998.605
433.8988, 8830.693
434.3809, 8666.951
434.8630, 8515.404
435.3451, 8401.188
435.8272, 8323.588
436.3094, 8262.678
436.7915, 8202.415
437.2736, 8148.970
437.7557, 8119.738
438.2378, 8117.362
438.7199, 8130.556
439.2020, 8147.888
439.6841, 8172.376
440.1663, 8210.194
440.6484, 8278.674
441.1305, 8351.001
441.6126, 8402.889
442.0947, 8437.192
442.5768, 8469.845
443.0590, 8497.345
443.5411, 8533.532
444.0232, 8592.926
444.5053, 8693.342
444.9874, 8783.523
445.4695, 8850.492
445.9517, 8895.163
446.4338, 8919.708
446.9159, 8911.678
447.3980, 8896.174
447.8801, 8882.720
448.3622, 8872.458
448.8444, 8844.943
449.3265, 8794.795
449.8086, 8731.942
450.2907, 8667.443
450.7728, 8625.636
451.2549, 8524.973
451.7371, 8350.042
452.2192, 8122.391
452.7013, 7884.030
453.1834, 7632.930
453.6655, 7386.293
454.1476, 7156.117
454.6298, 6941.120
455.1119, 6710.292
455.5940, 6461.983
456.0761, 6216.476
456.5582, 5998.902
457.0403, 5804.889
457.5225, 5613.203
458.0046, 5419.319
458.4867, 5233.847
458.9688, 5080.403
459.4509, 4953.540
459.9330, 4837.331
460.4152, 4717.273
460.8973, 4603.800
461.3794, 4506.019
461.8615, 4422.792
462.3436, 4367.942
462.8257, 4363.996
463.3079, 4387.341
463.7900, 4411.325
464.2721, 4426.491
464.7542, 4443.401
465.2363, 4457.540
465.7184, 4475.678
466.2006, 4517.052
466.6827, 4594.240
467.1648, 4688.691
467.6469, 4797.085
468.1290, 4925.408
468.6111, 5042.321
469.0933, 5146.693
469.5754, 5240.714
470.0575, 5323.458
470.5396, 5369.185
471.0217, 5455.674
471.5038, 5598.366
471.9860, 5787.126
472.4681, 5988.022
472.9502, 6197.292
473.4323, 6432.388
473.9144, 6700.724
474.3965, 7002.774
474.8787, 7321.313
475.3608, 7652.466
475.8429, 8012.325
476.3250, 8421.022
476.8071, 8872.502
477.2892, 9339.068
477.7714, 9810.340
478.2535, 10289.39
478.7356, 10775.63
479.2177, 11272.39
479.6998, 11780.99
480.1819, 12344.29
480.6641, 12904.40
481.1462, 13408.05
481.6283, 13855.70
482.1104, 14216.40
482.5925, 14480.99
483.0746, 14646.20
483.5568, 14708.80
484.0389, 14666.77
484.5210, 14522.70
485.0031, 14263.44
485.4852, 13901.49
485.9673, 13467.29
486.4495, 12900.04
486.9316, 12326.66
487.4137, 11786.77
487.8958, 11281.96
488.3779, 10794.22
488.8600, 10311.19
489.3422, 9853.450
489.8243, 9432.517
490.3064, 9054.336
490.7885, 8705.021
491.2706, 8380.008
491.7527, 8085.803
492.2349, 7833.469
492.7170, 7626.736
493.1991, 7443.072
493.6812, 7280.632
494.1633, 7135.533
494.6454, 6979.937
495.1276, 6813.538
495.6097, 6668.840
496.0918, 6584.453
496.5739, 6543.951
497.0560, 6516.938
497.5381, 6497.172
498.0203, 6485.724
498.5024, 6492.192
498.9845, 6507.571
499.4666, 6512.022
499.9487, 6472.005
500.4308, 6438.378
500.9130, 6440.012
501.3951, 6478.141
501.8772, 6535.157
502.3593, 6619.208
502.8414, 6711.016
503.3235, 6798.660
503.8057, 6870.500
504.2878, 6952.075
504.7699, 7039.073
505.2520, 7137.706
505.7341, 7262.445
506.2162, 7434.439
506.6984, 7589.721
507.1805, 7709.085
507.6626, 7795.257
508.1447, 7871.522
508.6268, 7934.936
509.1089, 7999.071
509.5911, 8081.099
510.0732, 8177.545
510.5553, 8245.220
511.0374, 8276.287
511.5195, 8295.969
512.0016, 8332.146
512.4838, 8383.369
512.9659, 8443.509
513.4480, 8512.604
513.9301, 8588.993
514.4122, 8667.580
514.8943, 8750.860
515.3765, 8849.243
515.8586, 8994.166
516.3407, 9140.012
516.8228, 9246.798
517.3049, 9304.393
517.7870, 9358.477
518.2692, 9443.067
518.7513, 9522.414
519.2334, 9561.766
519.7155, 9554.994
520.1976, 9508.192
520.6797, 9426.990
521.1619, 9307.586
521.6440, 9136.177
522.1261, 8902.721
522.6082, 8638.768
523.0903, 8354.422
523.5724, 8049.792
524.0546, 7714.249
524.5367, 7339.626
525.0188, 6966.663
525.5009, 6627.515
525.9830, 6319.393
526.4651, 6023.993
526.9473, 5732.182
527.4294, 5463.095
527.9115, 5261.629
528.3936, 5112.591
528.8757, 4961.647
529.3578, 4774.143
529.8400, 4581.092
530.3221, 4407.938
530.8042, 4257.068
531.2863, 4132.728
531.7684, 4055.322
532.2505, 3995.229
532.7327, 3933.155
533.2148, 3867.591
533.6969, 3795.591
534.1790, 3698.356
534.6611, 3601.923
535.1432, 3537.486
535.6254, 3539.121
536.1075, 3532.158
536.5896, 3510.287
537.0717, 3474.531
537.5538, 3427.106
538.0359, 3360.976
538.5181, 3298.767
539.0002, 3249.818
539.4823, 3214.144
539.9644, 3181.268
540.4465, 3151.849
540.9286, 3121.944
541.4108, 3082.624
541.8929, 3038.054
542.3750, 3011.122
542.8571, 3010.401
543.3392, 3014.359
543.8214, 2995.377
544.3035, 2960.772
544.7856, 2927.907
545.2677, 2902.089
545.7498, 2882.835
546.2319, 2874.981
546.7141, 2875.894
547.1962, 2870.349
547.6783, 2845.013
548.1604, 2816.988
548.6425, 2794.182
549.1246, 2776.130
549.6068, 2768.263
550.0889, 2785.765
550.5710, 2804.605
551.0531, 2801.411
551.5352, 2763.133
552.0173, 2730.732
552.4995, 2710.503
552.9816, 2698.083
553.4637, 2683.804
553.9458, 2667.795
554.4279, 2648.964
554.9100, 2624.915
555.3922, 2597.783
555.8743, 2576.114
556.3564, 2560.094
556.8385, 2546.732
557.3206, 2535.135
557.8027, 2524.285
558.2849, 2513.576
558.7670, 2504.146
559.2491, 2488.815
559.7312, 2459.810
560.2133, 2422.344
560.6954, 2383.476
561.1776, 2341.615
561.6597, 2303.457
562.1418, 2272.216
562.6239, 2246.595
563.1060, 2222.523
563.5881, 2190.757
564.0703, 2169.336
564.5524, 2168.462
565.0345, 2190.943
565.5166, 2196.196
565.9987, 2177.321
566.4808, 2152.960
566.9630, 2138.321
567.4451, 2134.605
567.9272, 2123.161
568.4093, 2099.189
568.8914, 2075.947
569.3735, 2073.655
569.8557, 2089.246
570.3378, 2108.132
570.8199, 2125.833
571.3020, 2143.504
571.7841, 2161.479
572.2662, 2180.232
572.7484, 2201.442
573.2305, 2226.753
573.7126, 2254.437
574.1947, 2286.412
574.6768, 2323.041
575.1589, 2351.918
575.6411, 2357.564
576.1232, 2360.892
576.6053, 2376.606
577.0874, 2413.374
577.5695, 2450.671
578.0516, 2493.434
578.5338, 2533.064
579.0159, 2551.896
579.4980, 2537.355
579.9801, 2548.446
580.4622, 2608.159
580.9443, 2696.206
581.4265, 2744.475
581.9086, 2753.078
582.3907, 2759.837
582.8728, 2790.787
583.3549, 2834.087
583.8370, 2862.160
584.3192, 2874.921
584.8013, 2891.591
585.2834, 2941.313
585.7655, 2996.085
586.2476, 3019.686
586.7297, 2990.548
587.2118, 2971.349
587.6939, 2999.969
588.1760, 3049.599
588.6581, 3086.093
589.1403, 3105.397
589.6224, 3108.074
590.1045, 3086.283
590.5866, 3048.296
591.0687, 3022.785
591.5508, 3016.817
592.0330, 3007.628
592.5151, 2984.360
592.9972, 2948.821
593.4793, 2926.701
593.9614, 2920.892
594.4435, 2906.851
594.9257, 2857.747
595.4078, 2784.736
595.8899, 2719.668
596.3720, 2667.066
596.8541, 2619.630
597.3362, 2576.332
597.8184, 2532.516
598.3005, 2479.184
598.7826, 2395.042
599.2647, 2327.407
599.7468, 2317.669
600.2289, 2339.795
600.7111, 2336.179
601.1932, 2259.246
601.6753, 2191.372
602.1574, 2159.185
602.6395, 2159.966
603.1216, 2153.147
603.6038, 2136.560
604.0859, 2116.098
604.5680, 2093.758
605.0501, 2069.205
605.5322, 2045.709
606.0143, 2022.465
606.4965, 2002.922
606.9786, 1987.937
607.4607, 1979.249
607.9428, 1983.938
608.4249, 2005.895
608.9070, 2034.172
609.3892, 2066.514
609.8713, 2096.164
610.3534, 2111.217
610.8355, 2091.144
611.3176, 2070.283
611.7997, 2061.553
612.2819, 2064.506
612.7640, 2076.413
613.2461, 2105.078
613.7282, 2134.355
614.2103, 2158.594
614.6924, 2176.997
615.1746, 2199.483
615.6567, 2229.329
616.1388, 2256.667
616.6209, 2271.258
617.1030, 2272.297
617.5851, 2286.433
618.0673, 2315.263
618.5494, 2355.404
619.0315, 2407.165
619.5136, 2466.662
619.9957, 2522.600
620.4778, 2573.965
620.9600, 2618.262
621.4421, 2641.107
621.9242, 2656.325
622.4063, 2691.564
622.8884, 2780.968
623.3705, 2869.422
623.8527, 2927.873
624.3348, 2961.764
624.8169, 3015.002
625.2990, 3117.551
625.7811, 3213.051
626.2632, 3279.043
626.7454, 3313.712
627.2275, 3349.399
627.7096, 3383.873
628.1917, 3425.172
628.6738, 3487.589
629.1559, 3567.788
629.6381, 3624.460
630.1202, 3651.809
630.6023, 3667.856
631.0844, 3690.577
631.5665, 3717.854
632.0486, 3746.715
632.5308, 3782.294
633.0129, 3808.122
633.4950, 3816.150
633.9771, 3805.688
634.4592, 3775.680
634.9413, 3691.708
635.4235, 3623.545
635.9056, 3608.589
636.3877, 3635.193
636.8698, 3622.308
637.3519, 3545.120
637.8340, 3468.743
638.3162, 3422.671
638.7983, 3405.737
639.2804, 3373.461
639.7625, 3322.340
640.2446, 3274.680
640.7267, 3257.846
641.2089, 3260.065
641.6910, 3242.453
642.1731, 3200.554
642.6552, 3146.398
643.1373, 3074.607
643.6194, 3003.519
644.1016, 2961.175
644.5837, 2977.406
645.0658, 2985.373
645.5479, 2948.470
646.0300, 2887.360
646.5121, 2836.337
646.9943, 2805.196
647.4764, 2778.445
647.9585, 2756.717
648.4406, 2737.650
648.9227, 2710.500
649.4048, 2672.326
649.8870, 2636.386
650.3691, 2605.949
650.8512, 2581.777
651.3333, 2572.646
651.8154, 2578.099
652.2975, 2572.837
652.7797, 2520.181
653.2618, 2453.230
653.7439, 2425.033
654.2260, 2441.239
654.7081, 2456.125
655.1902, 2437.989
655.6724, 2409.078
656.1545, 2388.072
656.6366, 2381.300
657.1187, 2377.152
657.6008, 2376.786
658.0829, 2376.842
658.5651, 2374.039
659.0472, 2368.703
659.5293, 2358.840
660.0114, 2341.858
660.4935, 2322.956
660.9756, 2314.380
661.4578, 2315.598
661.9399, 2314.063
662.4220, 2300.163
662.9041, 2286.038
663.3862, 2295.683
663.8683, 2323.337
664.3505, 2346.354
664.8326, 2349.667
665.3147, 2345.815
665.7968, 2336.521
666.2789, 2323.241
666.7610, 2327.655
667.2432, 2372.850
667.7253, 2421.627
668.2074, 2453.773
668.6895, 2463.033
669.1716, 2488.846
669.6537, 2538.341
670.1359, 2590.881
670.6180, 2628.945
671.1001, 2652.623
671.5822, 2676.069
672.0643, 2702.563
672.5464, 2719.429
673.0286, 2691.079
673.5107, 2644.289
673.9928, 2638.763
674.4749, 2710.660
674.9570, 2788.492
675.4391, 2826.952
675.9213, 2837.478
676.4034, 2838.458
676.8855, 2828.442
677.3676, 2816.707
677.8497, 2801.926
678.3318, 2787.039
678.8140, 2779.589
679.2961, 2778.450
679.7782, 2788.466
680.2603, 2817.180
680.7424, 2857.366
681.2245, 2878.481
681.7067, 2880.481
682.1888, 2871.951
682.6709, 2844.744
683.1530, 2815.921
683.6351, 2819.430
684.1172, 2854.681
684.5994, 2890.029
685.0815, 2907.110
685.5636, 2915.215
686.0457, 2918.921
686.5278, 2915.443
687.0099, 2921.583
687.4921, 2944.000
687.9742, 2974.582
688.4563, 3009.417
688.9384, 3052.477
689.4205, 3087.428
689.9026, 3113.550
690.3848, 3132.176
690.8669, 3137.899
691.3490, 3134.035
691.8311, 3151.863
692.3132, 3205.769
692.7953, 3263.958
693.2775, 3283.694
693.7596, 3280.164
694.2417, 3284.497
694.7238, 3323.979
695.2059, 3358.845
695.6880, 3361.995
696.1702, 3346.546
696.6523, 3349.592
697.1344, 3391.970
697.6165, 3434.666
698.0986, 3472.216
698.5807, 3503.723
699.0629, 3523.236
699.5450, 3529.761
700.0271, 3529.483
700.5092, 3519.712
700.9913, 3506.219
701.4734, 3513.916
701.9556, 3541.085
702.4377, 3563.855
702.9198, 3555.482
703.4019, 3539.971
703.8840, 3548.552
704.3661, 3585.148
704.8483, 3605.618
705.3304, 3584.593
705.8125, 3547.735
706.2946, 3511.394
706.7767, 3477.637
707.2589, 3439.895
707.7410, 3393.099
708.2231, 3350.112
708.7052, 3323.407
709.1873, 3313.262
709.6694, 3307.577
710.1516, 3305.757
710.6337, 3305.763
711.1158, 3302.415
711.5979, 3299.232
712.0800, 3304.359
712.5621, 3321.550
713.0443, 3343.924
713.5264, 3375.111
714.0085, 3406.264
714.4906, 3424.736
714.9727, 3406.706
715.4548, 3400.857
715.9370, 3416.770
716.4191, 3448.281
716.9012, 3483.583
717.3833, 3523.106
717.8654, 3563.061
718.3475, 3600.059
718.8297, 3638.947
719.3118, 3701.437
719.7939, 3782.347
720.2760, 3848.417
720.7581, 3862.313
721.2402, 3865.325
721.7224, 3896.921
722.2045, 3955.611
722.6866, 4033.187
723.1687, 4140.146
723.6508, 4252.267
724.1329, 4353.632
724.6151, 4443.445
725.0972, 4555.380
725.5793, 4707.075
726.0614, 4849.214
726.5435, 4948.155
727.0256, 5005.873
727.5078, 5091.559
727.9899, 5206.572
728.4720, 5341.781
728.9541, 5494.555
729.4362, 5661.692
729.9183, 5840.348
730.4005, 6029.493
730.8826, 6210.053
731.3647, 6355.172
731.8468, 6496.121
732.3289, 6655.759
732.8110, 6838.358
733.2932, 7038.608
733.7753, 7261.192
734.2574, 7496.091
734.7395, 7737.896
735.2216, 7993.460
735.7037, 8217.167
736.1859, 8401.503
736.6680, 8574.492
737.1501, 8777.099
737.6322, 8999.632
738.1143, 9207.484
738.5964, 9394.094
739.0786, 9566.338
739.5607, 9724.877
740.0428, 9874.878
740.5249, 10021.37
741.0070, 10174.55
741.4891, 10315.78
741.9713, 10432.49
742.4534, 10538.07
742.9355, 10651.43
743.4176, 10776.30
743.8997, 10897.19
744.3818, 11009.26
744.8640, 11116.48
745.3461, 11220.23
745.8282, 11323.61
746.3103, 11442.82
746.7924, 11582.02
747.2745, 11741.68
747.7567, 11923.51
748.2388, 12126.71
748.7209, 12345.71
749.2030, 12573.72
749.6851, 12825.62
750.1672, 13110.87
750.6494, 13425.70
751.1315, 13749.79
751.6136, 14069.59
752.0957, 14423.51
752.5778, 14832.37
753.0599, 15280.61
753.5421, 15718.84
754.0242, 16142.46
754.5063, 16597.42
754.9884, 17124.11
755.4705, 17682.77
755.9526, 18206.98
756.4348, 18709.48
756.9169, 19235.40
757.3990, 19807.30
757.8811, 20404.85
758.3632, 21038.93
758.8453, 21704.41
759.3275, 22332.71
759.8096, 22901.52
760.2917, 23463.75
760.7738, 24064.93
761.2559, 24686.41
761.7380, 25236.74
762.2202, 25712.12
762.7023, 26158.99
763.1844, 26622.75
763.6665, 27078.54
764.1486, 27489.78
764.6307, 27855.25
765.1129, 28203.12
765.5950, 28540.00
766.0771, 28870.21
766.5592, 29192.07
767.0413, 29505.03
767.5234, 29831.75
768.0056, 30183.30
768.4877, 30532.71
768.9698, 30851.40
769.4519, 31140.33
769.9340, 31463.31
770.4161, 31823.43
770.8983, 32180.86
771.3804, 32502.60
771.8625, 32797.92
772.3446, 33091.17
772.8267, 33387.14
773.3088, 33632.40
773.7910, 33779.35
774.2731, 33878.05
774.7552, 33970.29
775.2373, 34083.01
775.7194, 34117.88
776.2015, 34044.71
776.6837, 33937.71
777.1658, 33858.82
777.6479, 33806.95
778.1300, 33751.40
778.6121, 33692.36
779.0942, 33609.99
779.5764, 33486.54
780.0585, 33325.50
780.5406, 33124.05
781.0227, 32873.61
781.5048, 32617.72
781.9869, 32378.72
782.4691, 32144.77
782.9512, 31907.87
783.4332, 31683.76
783.9153, 31417.63
784.3975, 31100.28
784.8796, 30764.47
785.3617, 30445.37
785.8438, 30144.13
786.3259, 29850.59
786.8080, 29567.10
787.2902, 29264.47
787.7723, 28882.14
788.2544, 28469.93
788.7365, 28108.12
789.2186, 27823.30
789.7007, 27558.96
790.1829, 27296.31
790.6650, 27040.50
791.1471, 26799.58
791.6292, 26575.48
792.1113, 26356.46
792.5934, 26138.68
793.0756, 25926.45
793.5577, 25717.53
794.0398, 25514.94
794.5219, 25337.61
795.0040, 25192.75
795.4861, 25046.96
795.9683, 24849.67
796.4504, 24635.52
796.9325, 24447.82
797.4146, 24312.94
797.8967, 24178.62
798.3788, 24039.96
798.8610, 23888.84
799.3431, 23718.23
799.8252, 23521.31
800.3073, 23320.91
800.7894, 23121.73
801.2715, 22912.39
801.7537, 22679.05
802.2358, 22421.35
802.7179, 22132.34
803.2000, 21810.11
803.6821, 21470.40
804.1642, 21125.43
804.6464, 20767.53
805.1285, 20386.46
805.6106, 19984.34
806.0927, 19550.62
806.5748, 19078.40
807.0569, 18584.28
807.5391, 18068.83
808.0212, 17531.15
808.5033, 16998.16
808.9854, 16473.07
809.4675, 15952.06
809.9496, 15432.94
810.4318, 14911.84
810.9139, 14383.50
811.3960, 13833.75
811.8781, 13309.04
812.3602, 12839.29
812.8423, 12404.81
813.3245, 11991.45
813.8066, 11601.92
814.2887, 11215.63
814.7708, 10827.95
815.2529, 10455.45
815.7350, 10123.10
816.2172, 9829.070
816.6993, 9534.258
817.1814, 9234.292
817.6635, 8945.723
818.1456, 8694.007
818.6277, 8465.757
819.1099, 8244.159
819.5920, 8028.630
820.0741, 7817.401
820.5562, 7602.538
821.0383, 7397.776
821.5204, 7214.041
822.0026, 7062.322
822.4847, 6896.438
822.9668, 6712.223
823.4489, 6524.748
823.9310, 6355.836
824.4131, 6198.941
824.8953, 6029.411
825.3774, 5842.980
825.8595, 5665.112
826.3416, 5514.017
826.8237, 5382.068
827.3058, 5265.402
827.7880, 5171.876
828.2701, 5069.737
828.7522, 4952.315
829.2343, 4830.808
829.7164, 4709.784
830.1985, 4589.168
830.6807, 4495.956
831.1628, 4434.949
831.6449, 4373.219
832.1270, 4269.604
832.6091, 4150.327
833.0912, 4062.451
833.5734, 4013.085
834.0555, 3965.961
834.5376, 3902.686
835.0197, 3837.282
835.5018, 3777.860
835.9839, 3724.843
836.4661, 3677.758
836.9482, 3638.925
837.4303, 3600.187
837.9124, 3549.385
838.3945, 3492.698
838.8766, 3467.975
839.3588, 3473.988
839.8409, 3475.842
840.3230, 3440.805
840.8051, 3395.720
841.2872, 3360.291
841.7693, 3336.029
842.2515, 3327.019
842.7336, 3352.640
843.2157, 3372.300
843.6978, 3366.259
844.1799, 3337.705
844.6620, 3332.820
845.1442, 3353.237
845.6263, 3372.258
846.1084, 3369.067
846.5905, 3357.043
847.0726, 3356.645
847.5547, 3366.661
848.0369, 3380.705
848.5190, 3390.577
849.0011, 3408.901
849.4832, 3450.478
849.9653, 3508.442
850.4474, 3541.691
850.9296, 3538.124
851.4117, 3546.989
851.8938, 3586.740
852.3759, 3648.775
852.8580, 3712.585
853.3401, 3778.699
853.8223, 3846.583
854.3044, 3913.454
854.7865, 3985.283
855.2686, 4065.110
855.7507, 4152.800
856.2328, 4250.315
856.7150, 4360.940
857.1971, 4476.132
857.6792, 4591.282
858.1613, 4711.777
858.6434, 4847.621
859.1255, 4997.715
859.6077, 5167.109
860.0898, 5361.652
860.5719, 5556.310
861.0540, 5699.149
861.5361, 5825.542
862.0182, 5998.707
862.5004, 6265.339
862.9825, 6538.492
863.4646, 6795.146
863.9467, 7048.017
864.4288, 7310.159
864.9109, 7586.651
865.3931, 7855.138
865.8752, 8113.639
866.3573, 8371.670
866.8394, 8653.189
867.3215, 8944.361
867.8036, 9212.621
868.2858, 9445.420
868.7679, 9690.627
869.2500, 9978.062
869.7321, 10289.44
870.2142, 10609.15
870.6964, 10936.74
871.1785, 11279.87
871.6606, 11630.52
872.1427, 12006.07
872.6248, 12425.61
873.1069, 12878.98
873.5891, 13323.66
874.0712, 13761.34
874.5533, 14191.09
875.0354, 14609.89
875.5175, 15023.17
875.9996, 15456.91
876.4818, 15913.36
876.9639, 16292.85
877.4460, 16582.76
877.9281, 16805.23
878.4102, 16961.58
878.8923, 17057.76
879.3745, 17132.52
879.8566, 17185.11
880.3387, 17193.80
880.8208, 17134.07
881.3029, 17033.57
881.7850, 16915.61
882.2672, 16780.05
882.7493, 16628.01
883.2314, 16442.75
883.7135, 16262.52
884.1956, 16120.38
884.6777, 15980.64
885.1599, 15738.78
885.6420, 15389.74
886.1241, 15023.60
886.6062, 14670.40
887.0883, 14300.50
887.5704, 13868.03
888.0526, 13388.18
888.5347, 12891.38
889.0168, 12375.10
889.4989, 11859.31
889.9810, 11329.69
890.4631, 10821.20
890.9453, 10367.56
891.4274, 9968.146
891.9095, 9625.687
892.3916, 9343.094
892.8737, 9099.253
893.3558, 8857.087
893.8380, 8638.696
894.3201, 8497.096
894.8022, 8446.423
895.2843, 8412.479
895.7664, 8344.199
896.2485, 8287.247
896.7307, 8277.354
897.2128, 8318.781
897.6949, 8381.188
898.1770, 8472.350
898.6591, 8559.088
899.1412, 8620.287
899.6234, 8659.732
900.1055, 8683.414
900.5876, 8693.822
901.0697, 8711.470
901.5518, 8765.808
902.0339, 8814.932
902.5161, 8838.343
902.9982, 8833.568
903.4803, 8799.885
903.9624, 8725.798
904.4445, 8651.239
904.9266, 8589.507
905.4088, 8534.804
905.8909, 8483.423
906.3730, 8428.811
906.8551, 8342.736
907.3372, 8196.521
907.8193, 8037.827
908.3015, 7907.475
908.7836, 7783.312
909.2657, 7626.513
909.7478, 7417.814
910.2299, 7206.323
910.7120, 7000.232
911.1942, 6785.087
911.6763, 6538.077
912.1584, 6262.929
912.6405, 5964.163
913.1226, 5639.937
913.6047, 5334.724
914.0869, 5105.170
914.5690, 4898.960
915.0511, 4662.698
915.5332, 4373.562
916.0153, 4121.937
916.4974, 3920.125
916.9796, 3738.939
917.4617, 3561.197
917.9438, 3387.300
918.4259, 3211.464
918.9080, 3036.167
919.3901, 2893.431
919.8723, 2827.829
920.3544, 2783.555
920.8365, 2719.353
921.3186, 2636.477
921.8007, 2550.049
922.2828, 2447.461
922.7650, 2365.605
923.2471, 2318.311
923.7292, 2293.759
924.2113, 2268.229
924.6934, 2240.821
925.1755, 2201.893
925.6577, 2142.555
926.1398, 2083.561
926.6219, 2039.678
927.1040, 2008.595
927.5861, 1987.514
928.0682, 1986.168
928.5504, 1979.205
929.0325, 1963.560
929.5146, 1946.475
929.9967, 1938.036
930.4788, 1936.275
930.9609, 1922.232
931.4431, 1893.612
931.9252, 1868.178
932.4073, 1862.064
932.8894, 1863.330
933.3715, 1861.303
933.8536, 1854.567
934.3358, 1851.945
934.8179, 1858.041
935.3000, 1861.541
935.7821, 1858.273
936.2642, 1848.524
936.7463, 1826.251
937.2285, 1794.869
937.7106, 1779.815
938.1927, 1804.396
938.6748, 1840.408
939.1569, 1880.390
939.6390, 1914.674
940.1212, 1919.407
940.6033, 1866.359
941.0854, 1828.265
941.5675, 1811.021
942.0496, 1814.433
942.5317, 1851.187
943.0139, 1911.700
943.4960, 1948.382
943.9781, 1951.918
944.4602, 1941.199
944.9423, 1919.098
945.4244, 1897.128
945.9066, 1883.679
946.3887, 1878.100
946.8708, 1895.583
947.3529, 1949.896
947.8350, 1995.938
948.3171, 1998.651
948.7993, 1970.723
949.2814, 1954.732
949.7635, 1951.873
950.2456, 1969.421
950.7277, 2035.432
951.2098, 2099.673
951.6920, 2127.136
952.1741, 2127.770
952.6562, 2142.810
953.1383, 2179.138
953.6204, 2213.577
954.1025, 2243.383
954.5847, 2265.606
955.0668, 2266.600
955.5489, 2256.886
956.0310, 2267.798
956.5131, 2316.347
956.9952, 2357.594
957.4774, 2352.615
957.9595, 2340.310
958.4416, 2358.337
958.9237, 2417.051
959.4058, 2459.978
959.8879, 2484.525
960.3701, 2503.390
960.8522, 2517.807
961.3343, 2536.661
961.8164, 2585.105
962.2985, 2658.085
962.7806, 2720.098
963.2628, 2733.599
963.7449, 2755.872
964.2270, 2818.753
964.7091, 2906.523
965.1912, 2970.252
965.6733, 3007.274
966.1555, 3047.113
966.6376, 3098.781
967.1197, 3154.366
967.6018, 3206.304
968.0839, 3253.604
968.5660, 3292.262
969.0482, 3314.526
969.5303, 3344.820
970.0124, 3390.237
970.4945, 3443.642
970.9766, 3499.490
971.4587, 3557.041
971.9409, 3629.558
972.4230, 3717.094
972.9051, 3813.261
973.3872, 3918.483
973.8693, 4026.118
974.3514, 4125.518
974.8336, 4218.200
975.3157, 4319.788
975.7978, 4427.255
976.2799, 4553.210
976.7620, 4707.883
977.2441, 4876.035
977.7263, 5009.550
978.2084, 5120.377
978.6905, 5270.667
979.1726, 5491.559
979.6547, 5721.773
980.1368, 5918.078
980.6190, 6097.663
981.1010, 6277.200
981.5831, 6450.757
982.0652, 6649.724
982.5474, 6880.067
983.0295, 7118.051
983.5116, 7338.167
983.9937, 7551.005
984.4758, 7783.689
984.9579, 8035.858
985.4401, 8293.109
985.9222, 8545.530
986.4043, 8803.260
986.8864, 9073.354
987.3685, 9352.450
987.8506, 9634.796
988.3328, 9920.481
988.8149, 10193.89
989.2970, 10451.99
989.7791, 10693.61
990.2612, 10909.96
990.7433, 11111.12
991.2255, 11316.88
991.7076, 11538.73
992.1897, 11737.83
992.6718, 11870.61
993.1539, 12011.59
993.6360, 12211.51
994.1182, 12469.15
994.6003, 12710.55
995.0824, 12937.98
995.5645, 13177.40
996.0466, 13445.32
996.5287, 13739.03
997.0109, 14048.30
997.4930, 14378.99
997.9751, 14764.61
998.4572, 15227.93
998.9393, 15710.31
999.4214, 16195.18
999.9036, 16707.23
1000.386, 17277.76
1000.868, 17902.19
1001.350, 18563.86
1001.832, 19255.68
1002.314, 19977.44
1002.796, 20709.80
1003.278, 21470.47
1003.760, 22271.61
1004.243, 23122.46
1004.725, 23944.15
1005.207, 24744.57
1005.689, 25507.12
1006.171, 26242.88
1006.653, 26927.99
1007.135, 27589.61
1007.617, 28187.01
1008.100, 28630.33
1008.582, 28869.61
1009.064, 28953.53
1009.546, 28890.50
1010.028, 28693.30
1010.510, 28368.38
1010.992, 27917.59
1011.474, 27370.21
1011.956, 26721.92
1012.439, 26018.02
1012.921, 25261.51
1013.403, 24491.91
1013.885, 23736.03
1014.367, 22998.16
1014.849, 22296.93
1015.331, 21628.71
1015.813, 21010.40
1016.296, 20458.88
1016.778, 19958.80
1017.260, 19484.72
1017.742, 19033.73
1018.224, 18584.90
1018.706, 18130.08
1019.188, 17678.60
1019.670, 17250.99
1020.152, 16820.98
1020.635, 16362.51
1021.117, 15869.39
1021.599, 15371.15
1022.081, 14865.30
1022.563, 14362.99
1023.045, 13877.36
1023.527, 13397.64
1024.009, 12916.89
1024.492, 12432.55
1024.974, 11929.79
1025.456, 11388.08
1025.938, 10860.57
1026.420, 10367.33
1026.902, 9891.115
1027.384, 9401.729
1027.866, 8903.138
1028.349, 8404.543
1028.831, 7904.391
1029.313, 7436.689
1029.795, 7040.432
1030.277, 6668.324
1030.759, 6271.615
1031.241, 5840.413
1031.723, 5479.558
1032.205, 5191.267
1032.688, 4941.340
1033.170, 4726.085
1033.652, 4524.563
1034.134, 4293.725
1034.616, 4053.611
1035.098, 3848.794
1035.580, 3716.913
1036.062, 3591.829
1036.544, 3465.591
1037.027, 3340.294
1037.509, 3216.450
1037.991, 3095.392
1038.473, 2993.513
1038.955, 2911.372
1039.437, 2848.991
1039.919, 2825.055
1040.401, 2804.351
1040.884, 2758.846
1041.366, 2691.662
1041.848, 2634.452
1042.330, 2589.123
1042.812, 2547.524
1043.294, 2507.854
1043.776, 2468.616
1044.258, 2417.973
1044.740, 2367.752
1045.223, 2340.155
1045.705, 2349.625
1046.187, 2356.236
1046.669, 2359.275
1047.151, 2348.538
1047.633, 2305.755
1048.115, 2239.343
1048.597, 2228.689
1049.079, 2267.167
1049.562, 2299.848
1050.044, 2287.138
1050.526, 2266.261
1051.008, 2260.278
1051.490, 2262.043
1051.972, 2256.597
1052.454, 2243.477
1052.936, 2220.187
1053.419, 2181.992
1053.901, 2153.772
1054.383, 2174.533
1054.865, 2215.690
1055.347, 2241.000
1055.829, 2246.581
1056.311, 2237.770
1056.793, 2199.269
1057.276, 2169.093
1057.758, 2160.598
1058.240, 2166.310
1058.722, 2169.340
1059.204, 2168.895
1059.686, 2161.494
1060.168, 2146.283
1060.650, 2123.345
1061.132, 2081.578
1061.615, 2040.038
1062.097, 2017.544
1062.579, 2016.955
1063.061, 2010.372
1063.543, 1996.885
1064.025, 1987.086
1064.507, 1988.323
1064.989, 1996.536
1065.471, 2010.109
1065.954, 2026.370
1066.436, 2038.898
1066.918, 2052.293
1067.400, 2048.887
1067.882, 2017.507
1068.364, 1987.430
1068.846, 1999.274
1069.328, 2040.316
1069.811, 2070.400
1070.293, 2086.695
1070.775, 2108.409
1071.257, 2156.984
1071.739, 2200.943
1072.221, 2223.276
1072.703, 2231.143
1073.185, 2248.129
1073.667, 2273.840
1074.150, 2298.410
1074.632, 2316.925
1075.114, 2340.970
1075.596, 2388.067
1076.078, 2442.404
1076.560, 2486.998
1077.042, 2518.575
1077.524, 2546.215
1078.006, 2569.469
1078.489, 2590.339
1078.971, 2610.658
1079.453, 2628.326
1079.935, 2642.311
1080.417, 2649.786
1080.899, 2643.875
1081.381, 2618.702
1081.863, 2582.469
1082.345, 2525.004
1082.828, 2472.674
1083.310, 2461.084
1083.792, 2481.427
1084.274, 2467.848
1084.756, 2420.253
1085.238, 2373.138
1085.720, 2344.252
1086.202, 2325.876
1086.685, 2317.656
1087.167, 2316.150
1087.649, 2315.962
1088.131, 2318.199
1088.613, 2308.292
1089.095, 2281.004
1089.577, 2256.499
1090.059, 2252.963
1090.542, 2265.063
1091.024, 2293.065
1091.506, 2338.125
1091.988, 2366.267
1092.470, 2372.698
1092.952, 2370.799
1093.434, 2360.492
1093.916, 2351.623
1094.398, 2364.384
1094.880, 2393.456
1095.363, 2426.932
1095.845, 2463.483
1096.327, 2500.163
1096.809, 2537.789
1097.291, 2573.402
1097.773, 2602.352
1098.255, 2627.045
1098.737, 2669.590
1099.220, 2726.194
1099.702, 2774.094
1100.184, 2798.123
1100.666, 2813.515
1101.148, 2820.382
1101.630, 2827.447
1102.112, 2848.579
1102.594, 2887.103
1103.077, 2919.236
1103.559, 2945.001
1104.041, 2951.219
1104.523, 2898.653
1105.005, 2844.734
1105.487, 2854.623
1105.969, 2915.731
1106.451, 2946.751
1106.933, 2928.444
1107.416, 2921.578
1107.898, 2938.032
1108.380, 2965.579
1108.862, 2992.440
1109.344, 3017.753
1109.826, 3040.132
1110.308, 3058.776
1110.790, 3077.521
1111.272, 3082.472
1111.755, 3110.675
1112.237, 3181.832
1112.719, 3278.116
1113.201, 3355.677
1113.683, 3419.523
1114.165, 3487.759
1114.647, 3563.193
1115.129, 3652.884
1115.612, 3772.197
1116.094, 3896.443
1116.576, 4006.134
1117.058, 4102.809
1117.540, 4210.665
1118.022, 4329.901
1118.504, 4463.907
1118.986, 4627.472
1119.469, 4789.834
1119.951, 4918.186
1120.433, 5038.511
1120.915, 5192.042
1121.397, 5394.655
1121.879, 5553.138
1122.361, 5662.880
1122.843, 5756.401
1123.325, 5850.143
1123.807, 5947.499
1124.290, 6065.942
1124.772, 6192.698
1125.254, 6280.341
1125.736, 6328.398
1126.218, 6336.187
1126.700, 6302.357
1127.182, 6232.313
1127.664, 6127.802
1128.147, 5992.703
1128.629, 5838.558
1129.111, 5664.520
1129.593, 5452.413
1130.075, 5168.544
1130.557, 4884.701
1131.039, 4615.669
1131.521, 4357.007
1132.004, 4088.656
1132.486, 3820.908
1132.968, 3573.869
1133.450, 3349.824
1133.932, 3155.685
1134.414, 3012.971
1134.896, 2879.366
1135.378, 2731.495
1135.860, 2577.321
1136.343, 2448.128
1136.825, 2341.436
1137.307, 2249.768
1137.789, 2171.987
1138.271, 2102.541
1138.753, 2039.276
1139.235, 1983.034
1139.717, 1937.695
1140.199, 1903.099
1140.682, 1852.245
1141.164, 1785.899
1141.646, 1733.397
1142.128, 1720.331
1142.610, 1716.079
1143.092, 1695.395
1143.574, 1668.078
1144.056, 1647.572
1144.539, 1630.985
1145.021, 1639.106
1145.503, 1676.414
1145.985, 1702.517
1146.467, 1673.743
1146.949, 1627.954
1147.431, 1601.156
1147.913, 1591.958
1148.396, 1596.504
1148.878, 1628.312
1149.360, 1634.307
1149.842, 1603.837
1150.324, 1568.548
1150.806, 1565.305
1151.288, 1576.425
1151.770, 1573.648
1152.252, 1558.265
1152.734, 1553.019
1153.217, 1568.365
1153.699, 1585.756
1154.181, 1604.783
1154.663, 1618.844
1155.145, 1609.630
1155.627, 1591.175
1156.109, 1595.236
1156.591, 1626.071
1157.074, 1657.422
1157.556, 1689.460
1158.038, 1708.587
1158.520, 1708.788
1159.002, 1696.410
1159.484, 1684.617
1159.966, 1672.119
1160.448, 1652.640
1160.931, 1622.181
1161.413, 1599.823
1161.895, 1600.626
1162.377, 1606.092
1162.859, 1611.691
1163.341, 1613.981
1163.823, 1592.419
1164.305, 1553.265
1164.787, 1527.824
1165.270, 1532.493
1165.752, 1537.034
1166.234, 1519.405
1166.716, 1501.911
1167.198, 1504.630
1167.680, 1524.584
1168.162, 1515.783
1168.644, 1481.500
1169.126, 1452.365
1169.609, 1442.293
1170.091, 1441.176
1170.573, 1448.290
1171.055, 1457.814
1171.537, 1466.311
1172.019, 1475.546
1172.501, 1453.772
1172.983, 1402.345
1173.466, 1366.369
1173.948, 1392.136
1174.430, 1424.869
1174.912, 1425.742
1175.394, 1409.127
1175.876, 1401.538
1176.358, 1406.695
1176.840, 1394.979
1177.323, 1364.306
1177.805, 1341.835
1178.287, 1361.346
1178.769, 1385.884
1179.251, 1379.872
1179.733, 1355.161
1180.215, 1346.137
1180.697, 1358.179
1181.179, 1363.054
1181.661, 1358.182
1182.144, 1346.232
1182.626, 1325.567
1183.108, 1301.931
1183.590, 1277.236
1184.072, 1254.509
1184.554, 1244.937
1185.036, 1251.569
1185.518, 1258.674
1186.001, 1262.987
1186.483, 1272.375
1186.965, 1312.144
1187.447, 1349.478
1187.929, 1340.161
1188.411, 1286.384
1188.893, 1250.877
1189.375, 1237.591
1189.858, 1240.449
1190.340, 1262.422
1190.822, 1285.535
1191.304, 1286.824
1191.786, 1277.235
1192.268, 1270.405
1192.750, 1267.915
1193.232, 1258.928
1193.714, 1242.000
1194.197, 1220.568
1194.679, 1192.088
1195.161, 1169.025
1195.643, 1176.747
1196.125, 1196.989
1196.607, 1200.846
1197.089, 1179.785
1197.571, 1186.240
1198.053, 1241.079
1198.536, 1262.556
1199.018, 1206.310
1199.500, 1130.193
1199.982, 1127.401
1200.464, 1163.815
1200.946, 1189.770
1201.428, 1195.521
1201.910, 1182.874
1202.393, 1140.272
1202.875, 1118.757
1203.357, 1155.309
1203.839, 1207.706
1204.321, 1194.321
1204.803, 1150.428
1205.285, 1138.618
1205.767, 1188.816
1206.250, 1227.416
1206.732, 1256.028
1207.214, 1261.098
1207.696, 1220.923
1208.178, 1166.788
1208.660, 1161.999
1209.142, 1131.089
1209.624, 1110.761
1210.106, 1119.439
1210.589, 1097.475
1211.071, 1127.573
1211.553, 1162.757
1212.035, 1170.041
1212.517, 1165.503
1212.999, 1183.014
1213.481, 1209.117
1213.963, 1214.956
1214.445, 1173.236
1214.928, 1144.813
1215.410, 1130.354
1215.892, 1126.373
1216.374, 1138.652
1216.856, 1154.267
1217.338, 1152.004
1217.820, 1136.211
1218.302, 1117.122
1218.785, 1082.672
1219.267, 1076.594
1219.749, 1107.772
1220.231, 1140.027
1220.713, 1138.963
1221.195, 1124.797
1221.677, 1131.934
1222.159, 1150.891
1222.641, 1150.464
1223.124, 1103.117
1223.606, 1093.691
1224.088, 1134.955
1224.570, 1178.238
1225.052, 1175.789
1225.534, 1153.511
1226.016, 1136.287
1226.498, 1128.179
1226.980, 1143.221
1227.463, 1201.416
1227.945, 1221.825
1228.427, 1191.773
1228.909, 1155.170
1229.391, 1158.222
1229.873, 1172.969
1230.355, 1163.409
1230.837, 1136.708
1231.320, 1123.950
1231.802, 1129.553
1232.284, 1141.309
1232.766, 1160.120
1233.248, 1171.471
1233.730, 1152.991
1234.212, 1127.016
1234.694, 1112.797
1235.177, 1111.501
1235.659, 1123.992
1236.141, 1156.104
1236.623, 1169.382
1237.105, 1157.619
1237.587, 1138.399
1238.069, 1122.579
1238.551, 1111.081
1239.033, 1110.509
1239.516, 1115.076
1239.998, 1098.178
1240.480, 1053.324
1240.962, 1048.751
1241.444, 1098.020
1241.926, 1147.097
1242.408, 1144.940
1242.890, 1129.530
1243.372, 1130.507
1243.855, 1142.121
1244.337, 1143.210
1244.819, 1133.321
1245.301, 1127.823
1245.783, 1129.315
1246.265, 1131.172
1246.747, 1125.322
1247.229, 1121.042
1247.712, 1127.786
1248.194, 1139.694
1248.676, 1142.533
1249.158, 1136.953
1249.640, 1132.904
1250.122, 1132.115
1250.604, 1127.875
1251.086, 1106.344
1251.568, 1090.972
1252.051, 1097.838
1252.533, 1115.765
1253.015, 1117.764
1253.497, 1107.544
1253.979, 1106.139
1254.461, 1117.104
1254.943, 1128.810
1255.425, 1133.450
1255.907, 1139.736
1256.390, 1153.500
1256.872, 1168.026
1257.354, 1167.134
1257.836, 1155.630
1258.318, 1151.307
1258.800, 1157.038
1259.282, 1157.230
1259.764, 1134.361
1260.247, 1120.674
1260.729, 1128.701
1261.211, 1144.217
1261.693, 1140.119
1262.175, 1125.127
1262.657, 1118.167
1263.139, 1121.859
1263.621, 1127.218
1264.104, 1129.680
1264.586, 1140.175
1265.068, 1166.519
1265.550, 1190.010
1266.032, 1172.864
1266.514, 1139.272
1266.996, 1132.355
1267.478, 1155.876
1267.960, 1158.324
1268.443, 1126.455
1268.925, 1104.670
1269.407, 1105.873
1269.889, 1111.948
1270.371, 1098.166
1270.853, 1078.599
1271.335, 1067.610
1271.817, 1067.255
1272.299, 1077.679
1272.782, 1101.302
1273.264, 1120.917
1273.746, 1133.703
1274.228, 1136.868
1274.710, 1109.128
1275.192, 1086.413
1275.674, 1111.807
1276.156, 1171.066
1276.639, 1201.942
1277.121, 1204.128
1277.603, 1192.914
1278.085, 1170.271
1278.567, 1145.592
1279.049, 1115.000
1279.531, 1096.999
1280.013, 1109.479
1280.495, 1139.108
1280.978, 1156.493
1281.460, 1161.212
1281.942, 1140.908
1282.424, 1091.518
1282.906, 1068.410
1283.388, 1146.832
1283.870, 1198.137
1284.352, 1161.429
1284.834, 1088.114
1285.317, 1086.573
1285.799, 1130.164
1286.281, 1143.064
1286.763, 1115.797
1287.245, 1098.498
1287.727, 1119.380
1288.209, 1133.675
1288.691, 1130.278
1289.173, 1135.257
1289.656, 1116.841
1290.138, 1115.933
1290.620, 1099.650
1291.102, 1068.814
1291.584, 1062.288
1292.066, 1092.695
1292.548, 1117.361
1293.030, 1129.381
1293.513, 1130.153
1293.995, 1107.757
1294.477, 1085.250
1294.959, 1088.208
1295.441, 1115.615
1295.923, 1148.176
1296.405, 1189.525
1296.887, 1200.986
1297.370, 1174.859
1297.852, 1141.475
1298.334, 1112.507
1298.816, 1098.917
1299.298, 1124.255
1299.780, 1163.567
1300.262, 1166.265
1300.744, 1136.349
1301.226, 1124.789
1301.708, 1136.318
1302.191, 1139.002
1302.673, 1095.638
1303.155, 1062.412
1303.637, 1052.302
1304.119, 1064.790
##END=



