##NAMES=Natanite
##RRUFFID=R100016
##IDEAL CHEMISTRY=Fe^2+^Sn^4+^(OH)_6_
##LOCALITY=Level 10 silicate body, El Potosi mine, Santa Eulalia, Chihuahua, Mexico
##OWNER=RRUFF
##SOURCE=William Pinch
##DESCRIPTION=Orange octahedron, associated with black ilvaite, colorless fluorite, calcite
##STATUS=The identification of this mineral has been confirmed by single-crystal X-ray diffraction.
##URL=rruff.info/R100016
91.66309, 232.6575
92.14520, 232.1810
92.62732, 233.3341
93.10944, 234.7405
93.59155, 236.1857
94.07367, 237.5099
94.55579, 239.0369
95.03790, 240.3338
95.52002, 240.8486
96.00214, 240.5108
96.48425, 239.8439
96.96637, 238.9559
97.44849, 238.0784
97.93060, 237.3841
98.41272, 236.6466
98.89484, 235.6357
99.37695, 234.6156
99.85907, 233.4265
100.3412, 232.5261
100.8233, 232.0325
101.3054, 231.7543
101.7875, 231.4491
102.2697, 230.9508
102.7518, 230.2706
103.2339, 229.7198
103.7160, 229.3737
104.1981, 229.0037
104.6802, 228.3649
105.1624, 227.5196
105.6445, 226.8890
106.1266, 227.0299
106.6087, 227.8833
107.0908, 227.7956
107.5729, 225.7354
108.0551, 223.0432
108.5372, 221.4323
109.0193, 221.3215
109.5014, 221.6621
109.9835, 221.4574
110.4656, 220.8307
110.9478, 220.2409
111.4299, 219.8931
111.9120, 219.7762
112.3941, 219.8115
112.8762, 219.9727
113.3583, 220.3307
113.8405, 220.9706
114.3226, 221.8732
114.8047, 222.8830
115.2868, 223.8703
115.7689, 224.9288
116.2510, 225.6833
116.7332, 225.9331
117.2153, 226.0272
117.6974, 226.1930
118.1795, 226.5028
118.6616, 226.8724
119.1437, 227.1052
119.6259, 226.9492
120.1080, 226.9520
120.5901, 227.1353
121.0722, 227.4812
121.5543, 228.0334
122.0364, 228.8459
122.5186, 229.8102
123.0007, 230.2948
123.4828, 230.3203
123.9649, 229.9979
124.4470, 229.1042
124.9291, 227.7957
125.4113, 226.6787
125.8934, 226.1942
126.3755, 226.2574
126.8576, 226.2120
127.3397, 226.1089
127.8218, 225.8604
128.3040, 225.2326
128.7861, 224.1224
129.2682, 223.2161
129.7503, 223.0861
130.2324, 223.4892
130.7145, 224.1414
131.1967, 225.1542
131.6788, 226.3416
132.1609, 227.1038
132.6430, 227.2133
133.1251, 227.1878
133.6072, 227.1881
134.0894, 227.2553
134.5715, 227.4676
135.0536, 227.9144
135.5357, 228.6155
136.0178, 229.3169
136.4999, 230.0094
136.9821, 230.7067
137.4642, 231.4297
137.9463, 232.1724
138.4284, 232.9007
138.9105, 233.6071
139.3926, 234.3999
139.8748, 234.8339
140.3569, 234.6070
140.8390, 234.2996
141.3211, 234.2599
141.8032, 234.5837
142.2853, 235.2065
142.7675, 236.0773
143.2496, 237.6918
143.7317, 238.5671
144.2138, 237.8047
144.6959, 236.5048
145.1780, 236.1700
145.6602, 237.4356
146.1423, 239.5462
146.6244, 240.9463
147.1065, 241.5698
147.5886, 241.9715
148.0707, 242.3598
148.5529, 242.6987
149.0350, 242.8169
149.5171, 242.4631
149.9992, 242.0136
150.4813, 241.9595
150.9634, 242.2856
151.4456, 243.0636
151.9277, 244.7372
152.4098, 247.4660
152.8919, 249.4775
153.3740, 249.3449
153.8561, 248.4653
154.3383, 247.8497
154.8204, 247.7911
155.3025, 248.0700
155.7846, 248.3950
156.2667, 248.9373
156.7488, 249.1113
157.2310, 248.4228
157.7131, 247.4870
158.1952, 246.9330
158.6773, 247.0918
159.1594, 247.7858
159.6415, 248.3496
160.1237, 248.8639
160.6058, 249.1136
161.0879, 248.8968
161.5700, 248.4309
162.0521, 248.0497
162.5342, 247.9910
163.0164, 248.2060
163.4985, 247.9494
163.9806, 246.6303
164.4627, 245.4801
164.9448, 244.8659
165.4269, 244.7092
165.9091, 244.7841
166.3912, 244.9499
166.8733, 245.2073
167.3554, 245.3528
167.8375, 245.2100
168.3196, 245.1229
168.8018, 245.3885
169.2839, 245.9726
169.7660, 246.4844
170.2481, 246.5616
170.7302, 246.2075
171.2123, 245.9334
171.6945, 245.8866
172.1766, 245.8641
172.6587, 245.5192
173.1408, 244.7504
173.6229, 244.2135
174.1050, 244.8515
174.5872, 246.2613
175.0693, 247.3652
175.5514, 247.7809
176.0335, 247.6909
176.5156, 247.4185
176.9977, 246.9157
177.4799, 246.3508
177.9620, 245.6832
178.4441, 245.0190
178.9262, 244.6645
179.4083, 244.9856
179.8904, 245.8582
180.3726, 246.4384
180.8547, 246.5400
181.3368, 246.5251
181.8189, 246.5662
182.3010, 246.6464
182.7831, 246.6968
183.2653, 246.6548
183.7474, 246.5150
184.2295, 246.3730
184.7116, 246.0781
185.1937, 245.9157
185.6758, 246.2431
186.1580, 246.8795
186.6401, 247.2418
187.1222, 246.6054
187.6043, 244.5549
188.0864, 243.3389
188.5685, 243.4383
189.0507, 243.8367
189.5328, 244.1309
190.0149, 244.2469
190.4970, 244.2773
190.9791, 244.3326
191.4612, 244.4455
191.9434, 244.4671
192.4255, 244.3526
192.9076, 244.1933
193.3897, 244.0663
193.8718, 243.9788
194.3539, 243.8604
194.8361, 243.6160
195.3182, 243.1772
195.8003, 242.7890
196.2824, 242.2918
196.7645, 241.9306
197.2466, 242.0206
197.7288, 242.6384
198.2109, 243.4474
198.6930, 244.0727
199.1751, 244.5555
199.6572, 244.6381
200.1393, 244.1770
200.6215, 243.3194
201.1036, 242.0682
201.5857, 240.2450
202.0678, 238.6222
202.5499, 238.4353
203.0320, 239.5387
203.5142, 240.6142
203.9963, 241.3425
204.4784, 241.7068
204.9605, 241.6064
205.4426, 240.8812
205.9247, 239.9169
206.4069, 239.0562
206.8890, 238.2890
207.3711, 237.6167
207.8532, 237.0330
208.3353, 236.5397
208.8174, 236.1770
209.2996, 236.0484
209.7817, 235.9362
210.2638, 235.8025
210.7459, 235.6036
211.2280, 235.1222
211.7101, 233.8750
212.1923, 231.9034
212.6744, 230.7489
213.1565, 231.1682
213.6386, 231.9094
214.1207, 232.3764
214.6028, 232.5763
215.0850, 232.7635
215.5671, 233.2693
216.0492, 234.1866
216.5313, 234.6880
217.0134, 234.0782
217.4955, 233.6020
217.9777, 233.8797
218.4598, 234.8159
218.9419, 235.8559
219.4240, 236.4344
219.9061, 236.4628
220.3882, 236.4712
220.8704, 236.4536
221.3525, 236.4238
221.8346, 236.4648
222.3167, 236.5271
222.7988, 236.4249
223.2809, 235.8925
223.7631, 234.6883
224.2452, 234.1003
224.7273, 234.5783
225.2094, 235.1653
225.6915, 235.3553
226.1736, 235.1555
226.6558, 234.9062
227.1379, 234.9673
227.6200, 235.4187
228.1021, 235.8454
228.5842, 236.2297
229.0663, 236.6060
229.5485, 237.0270
230.0306, 237.4747
230.5127, 237.8541
230.9948, 238.0557
231.4769, 238.0361
231.9590, 238.0706
232.4412, 238.4553
232.9233, 238.6663
233.4054, 238.0790
233.8875, 236.7828
234.3696, 235.7459
234.8517, 236.0367
235.3339, 237.8590
235.8160, 238.7158
236.2981, 237.8196
236.7802, 236.5573
237.2623, 235.9249
237.7444, 235.9878
238.2266, 236.2753
238.7087, 236.4575
239.1908, 236.5176
239.6729, 236.4608
240.1550, 236.0141
240.6371, 235.6306
241.1193, 235.8617
241.6014, 236.7236
242.0835, 237.4309
242.5656, 237.2189
243.0477, 236.3367
243.5298, 235.8774
244.0120, 236.5549
244.4941, 237.3150
244.9762, 236.9639
245.4583, 235.4293
245.9404, 233.9844
246.4225, 233.4997
246.9047, 233.7028
247.3868, 234.0092
247.8689, 234.5509
248.3510, 234.9820
248.8331, 234.8717
249.3152, 234.1756
249.7974, 233.3530
250.2795, 232.4920
250.7616, 231.6978
251.2437, 231.1472
251.7258, 230.9205
252.2079, 230.8736
252.6901, 230.8969
253.1722, 231.0111
253.6543, 231.0288
254.1364, 230.7448
254.6185, 230.3720
255.1006, 230.1574
255.5828, 230.2211
256.0649, 230.2650
256.5470, 229.8457
257.0291, 228.8684
257.5112, 228.0270
257.9933, 227.6442
258.4755, 227.4572
258.9576, 227.2831
259.4397, 227.0798
259.9218, 226.9356
260.4039, 227.0039
260.8860, 227.3374
261.3682, 227.5804
261.8503, 227.2169
262.3324, 227.0125
262.8145, 227.5236
263.2966, 228.8386
263.7787, 230.5186
264.2609, 232.1235
264.7430, 233.6455
265.2251, 235.1337
265.7072, 236.5086
266.1893, 237.9057
266.6714, 239.3088
267.1536, 240.7619
267.6357, 242.4502
268.1178, 244.5807
268.5999, 247.1723
269.0820, 250.0793
269.5641, 253.3953
270.0463, 256.9789
270.5284, 260.8882
271.0105, 265.0542
271.4926, 269.2552
271.9747, 273.2198
272.4568, 276.9040
272.9390, 280.8832
273.4211, 284.9881
273.9032, 289.5849
274.3853, 295.3288
274.8674, 301.8124
275.3495, 307.8595
275.8317, 312.4064
276.3138, 315.4072
276.7959, 319.0141
277.2780, 323.4922
277.7601, 328.3859
278.2422, 333.4845
278.7244, 338.9066
279.2065, 344.9810
279.6886, 352.0960
280.1707, 360.0629
280.6528, 366.7387
281.1349, 370.2984
281.6171, 374.4116
282.0992, 379.6206
282.5813, 385.8446
283.0634, 393.0720
283.5455, 401.3495
284.0276, 410.3745
284.5098, 418.7495
284.9919, 425.4497
285.4740, 432.7454
285.9561, 441.2147
286.4382, 450.3081
286.9203, 459.4764
287.4025, 468.4270
287.8846, 477.1594
288.3667, 485.6447
288.8488, 494.1754
289.3309, 501.9608
289.8130, 509.3008
290.2952, 515.7242
290.7773, 520.9150
291.2594, 524.7205
291.7415, 527.1197
292.2236, 528.0547
292.7057, 527.4368
293.1879, 525.1960
293.6700, 521.4848
294.1521, 516.2957
294.6342, 509.6196
295.1163, 501.4637
295.5984, 491.8097
296.0806, 480.3889
296.5627, 466.0590
297.0448, 453.3565
297.5269, 443.5072
298.0090, 434.0123
298.4911, 423.1981
298.9733, 411.1527
299.4554, 399.3087
299.9375, 389.1832
300.4196, 381.1204
300.9017, 372.3968
301.3839, 361.5829
301.8660, 351.5545
302.3481, 343.5067
302.8302, 337.2515
303.3123, 331.9758
303.7944, 327.1440
304.2766, 322.7399
304.7587, 317.8756
305.2408, 311.6023
305.7229, 305.8865
306.2050, 301.5302
306.6871, 298.0790
307.1693, 294.7362
307.6514, 291.0634
308.1335, 287.1147
308.6156, 283.2537
309.0977, 278.9043
309.5798, 275.3372
310.0620, 273.1178
310.5441, 271.5901
311.0262, 270.0359
311.5083, 268.1532
311.9904, 265.9911
312.4725, 263.6566
312.9547, 260.4472
313.4368, 258.0515
313.9189, 257.1224
314.4010, 256.5873
314.8831, 255.4635
315.3652, 253.5413
315.8474, 251.3247
316.3295, 249.5242
316.8116, 248.2483
317.2937, 247.1432
317.7758, 246.2899
318.2579, 245.5158
318.7401, 244.6785
319.2222, 243.7956
319.7043, 243.0549
320.1864, 242.7156
320.6685, 242.9209
321.1506, 242.3258
321.6328, 239.9549
322.1149, 237.8787
322.5970, 237.1292
323.0791, 237.3648
323.5612, 237.6491
324.0433, 237.3406
324.5255, 236.4895
325.0076, 235.6497
325.4897, 234.6651
325.9718, 233.8678
326.4539, 233.3696
326.9360, 233.0809
327.4182, 232.8844
327.9003, 232.7246
328.3824, 232.5937
328.8645, 232.4726
329.3466, 232.4627
329.8287, 232.3149
330.3109, 231.9969
330.7930, 231.5561
331.2751, 230.9219
331.7572, 230.1152
332.2393, 229.4117
332.7214, 229.3092
333.2036, 230.3483
333.6857, 230.7171
334.1678, 229.6625
334.6499, 228.6535
335.1320, 228.8320
335.6141, 230.0908
336.0963, 231.3601
336.5784, 231.4837
337.0605, 230.2469
337.5426, 229.7276
338.0247, 230.5379
338.5068, 231.4180
338.9890, 232.0377
339.4711, 232.3929
339.9532, 232.5136
340.4353, 232.3736
340.9174, 232.0686
341.3995, 232.2314
341.8817, 233.4152
342.3638, 234.4200
342.8459, 234.8866
343.3280, 235.1487
343.8101, 235.5541
344.2922, 236.2517
344.7744, 237.2576
345.2565, 238.6488
345.7386, 240.6761
346.2207, 242.6128
346.7028, 244.4728
347.1849, 246.1965
347.6671, 247.6356
348.1492, 248.8232
348.6313, 250.0052
349.1134, 251.4805
349.5955, 253.2668
350.0776, 255.2447
350.5598, 257.6748
351.0419, 260.0732
351.5240, 262.1279
352.0061, 263.9518
352.4882, 265.9035
352.9703, 268.2395
353.4525, 270.9467
353.9346, 273.8074
354.4167, 276.9068
354.8988, 280.0602
355.3809, 283.2273
355.8630, 286.4090
356.3452, 289.6213
356.8273, 292.9002
357.3094, 296.1252
357.7915, 298.9081
358.2736, 300.8390
358.7557, 303.3716
359.2379, 307.6357
359.7200, 312.0874
360.2021, 315.4454
360.6842, 317.4628
361.1663, 319.0664
361.6484, 321.3466
362.1306, 324.3656
362.6127, 327.1836
363.0948, 329.4695
363.5769, 331.7582
364.0590, 334.2966
364.5411, 337.0985
365.0233, 340.1248
365.5054, 343.5247
365.9875, 347.1600
366.4696, 350.4215
366.9517, 353.2577
367.4338, 355.8246
367.9160, 358.2059
368.3981, 360.4021
368.8802, 362.4249
369.3623, 364.3805
369.8444, 366.0364
370.3265, 366.9922
370.8087, 367.2001
371.2908, 367.1664
371.7729, 367.0799
372.2550, 366.8148
372.7371, 366.3437
373.2192, 365.7129
373.7014, 364.5321
374.1835, 362.1777
374.6656, 358.9383
375.1477, 356.1792
375.6298, 354.5316
376.1119, 352.8301
376.5941, 349.8111
377.0762, 345.6926
377.5583, 341.4627
378.0404, 337.3735
378.5225, 333.4378
379.0046, 329.7155
379.4868, 326.2245
379.9689, 322.7990
380.4510, 319.4296
380.9331, 316.0058
381.4152, 312.2234
381.8973, 308.0807
382.3795, 303.5820
382.8616, 298.3131
383.3437, 292.5545
383.8258, 287.5695
384.3079, 284.0757
384.7900, 281.2641
385.2722, 277.3397
385.7543, 271.9749
386.2364, 266.9590
386.7185, 262.6895
387.2006, 259.0952
387.6827, 256.3479
388.1649, 254.4783
388.6470, 252.5530
389.1291, 249.4798
389.6112, 245.0540
390.0933, 241.3517
390.5754, 238.7492
391.0576, 236.5201
391.5397, 234.3115
392.0218, 232.1076
392.5039, 229.9419
392.9860, 227.8400
393.4681, 225.7924
393.9503, 223.8016
394.4324, 221.8824
394.9145, 219.9933
395.3966, 218.1424
395.8787, 216.3064
396.3608, 214.4223
396.8430, 212.4757
397.3251, 210.5818
397.8072, 208.9272
398.2893, 207.6397
398.7714, 206.2389
399.2535, 204.4179
399.7357, 202.7619
400.2178, 201.6807
400.6999, 201.0858
401.1820, 200.6210
401.6641, 200.0298
402.1462, 199.3103
402.6284, 198.4108
403.1105, 197.1489
403.5926, 195.9141
404.0747, 194.9132
404.5568, 193.9235
405.0389, 192.5647
405.5211, 190.6947
406.0032, 188.7571
406.4853, 187.6099
406.9674, 187.5455
407.4495, 187.3540
407.9316, 186.7513
408.4138, 186.1268
408.8959, 185.7860
409.3780, 185.6681
409.8601, 185.4153
410.3422, 184.6125
410.8243, 183.3593
411.3065, 182.4802
411.7886, 182.1336
412.2707, 181.8997
412.7528, 181.6161
413.2349, 181.3071
413.7170, 181.0038
414.1992, 180.7123
414.6813, 180.4408
415.1634, 180.2901
415.6455, 180.2816
416.1276, 179.9615
416.6097, 178.9942
417.0919, 177.8286
417.5740, 176.8787
418.0561, 176.1547
418.5382, 175.6563
419.0203, 175.4173
419.5024, 175.4009
419.9846, 175.5990
420.4667, 176.0678
420.9488, 176.4783
421.4309, 176.4608
421.9130, 176.1541
422.3951, 176.0782
422.8773, 176.4648
423.3594, 176.9455
423.8415, 177.4752
424.3236, 177.9354
424.8057, 177.7926
425.2878, 176.6772
425.7700, 175.0963
426.2521, 174.1179
426.7342, 173.7987
427.2163, 173.7627
427.6984, 174.1397
428.1805, 174.6631
428.6627, 175.1158
429.1448, 175.4465
429.6269, 175.6042
430.1090, 175.5253
430.5911, 175.1968
431.0732, 174.8756
431.5554, 174.3319
432.0375, 174.0399
432.5196, 174.4221
433.0017, 175.1117
433.4838, 175.4737
433.9659, 175.2099
434.4481, 174.5868
434.9302, 174.1566
435.4123, 173.8064
435.8944, 173.9017
436.3765, 174.9822
436.8586, 176.0259
437.3408, 176.2470
437.8229, 175.7083
438.3050, 175.0894
438.7871, 175.0263
439.2692, 175.4697
439.7513, 175.4965
440.2335, 174.4464
440.7156, 173.9481
441.1977, 174.9299
441.6798, 176.5030
442.1619, 177.4986
442.6440, 177.4655
443.1262, 177.0584
443.6083, 177.2268
444.0904, 178.0349
444.5725, 178.6253
445.0546, 178.8752
445.5367, 178.7919
446.0189, 178.1871
446.5010, 177.1895
446.9831, 176.4893
447.4652, 176.7473
447.9473, 177.4446
448.4294, 177.5391
448.9116, 176.9335
449.3937, 176.3529
449.8758, 176.2444
450.3579, 176.4310
450.8400, 176.4708
451.3221, 176.1951
451.8043, 176.0855
452.2864, 176.6028
452.7685, 177.4463
453.2506, 177.9553
453.7327, 177.9493
454.2148, 177.6889
454.6970, 177.4335
455.1791, 177.1738
455.6612, 177.0251
456.1433, 177.0683
456.6254, 177.1505
457.1075, 177.2167
457.5897, 177.2466
458.0718, 177.1697
458.5539, 176.9239
459.0360, 176.6248
459.5181, 176.6372
460.0002, 177.5827
460.4824, 177.9997
460.9645, 177.4552
461.4466, 176.6642
461.9287, 176.0808
462.4108, 175.8274
462.8929, 175.9619
463.3751, 176.6947
463.8572, 178.0377
464.3393, 178.4215
464.8214, 176.5758
465.3035, 175.3232
465.7856, 175.8825
466.2678, 177.2658
466.7499, 178.1890
467.2320, 178.1637
467.7141, 177.6787
468.1962, 177.4179
468.6783, 177.4082
469.1605, 177.2739
469.6426, 176.6733
470.1247, 176.2548
470.6068, 176.7542
471.0889, 177.8991
471.5710, 178.5608
472.0532, 177.6079
472.5353, 176.1158
473.0174, 176.0389
473.4995, 177.4485
473.9816, 178.5022
474.4637, 178.1473
474.9459, 177.0142
475.4280, 176.4477
475.9101, 176.6754
476.3922, 176.7479
476.8743, 176.0185
477.3564, 175.0281
477.8386, 174.5955
478.3207, 174.8484
478.8028, 175.3547
479.2849, 175.7631
479.7670, 176.0725
480.2491, 176.2631
480.7313, 176.2179
481.2134, 176.2056
481.6955, 176.3525
482.1776, 176.5824
482.6597, 176.8035
483.1418, 176.9772
483.6240, 177.0612
484.1061, 176.9780
484.5882, 176.6904
485.0703, 176.3317
485.5524, 175.5476
486.0345, 175.0307
486.5167, 175.2696
486.9988, 176.0327
487.4809, 176.7897
487.9630, 177.2498
488.4451, 177.4533
488.9272, 177.4711
489.4094, 177.2288
489.8915, 177.0298
490.3736, 177.1145
490.8557, 177.1557
491.3378, 176.7189
491.8199, 175.8443
492.3021, 175.3564
492.7842, 176.1520
493.2663, 177.6804
493.7484, 178.5936
494.2305, 178.7756
494.7126, 178.6557
495.1948, 178.2692
495.6769, 177.8288
496.1590, 177.8392
496.6411, 178.4671
497.1232, 179.2616
497.6053, 180.1480
498.0875, 181.0221
498.5696, 181.7617
499.0517, 182.3353
499.5338, 182.5968
500.0159, 182.3449
500.4980, 181.5296
500.9802, 180.7131
501.4623, 179.4118
501.9444, 178.6215
502.4265, 179.0913
502.9086, 180.2346
503.3907, 181.0156
503.8729, 181.0290
504.3550, 180.8203
504.8371, 181.4800
505.3192, 183.6762
505.8013, 184.8966
506.2834, 184.2090
506.7656, 183.4487
507.2477, 183.4178
507.7298, 183.9535
508.2119, 184.5590
508.6940, 185.0034
509.1761, 185.2819
509.6583, 185.3469
510.1404, 185.1605
510.6225, 184.9751
511.1046, 184.8400
511.5867, 184.7518
512.0688, 184.6352
512.5510, 184.5040
513.0331, 184.6160
513.5152, 185.1926
513.9973, 186.0358
514.4794, 187.0300
514.9615, 188.1556
515.4437, 188.7565
515.9258, 188.2211
516.4079, 187.0807
516.8900, 187.0190
517.3721, 188.7196
517.8542, 189.9207
518.3364, 189.5725
518.8185, 188.8183
519.3006, 188.9793
519.7827, 190.1077
520.2648, 191.2101
520.7469, 191.3841
521.2291, 190.7155
521.7112, 190.4930
522.1933, 191.0588
522.6754, 191.6880
523.1575, 192.3694
523.6396, 193.0257
524.1218, 193.6788
524.6039, 194.2934
525.0860, 194.6174
525.5681, 194.0620
526.0502, 192.6678
526.5323, 192.4422
527.0145, 194.0879
527.4966, 195.6948
527.9787, 196.1270
528.4608, 196.0529
528.9429, 196.5130
529.4250, 197.9759
529.9072, 199.2552
530.3893, 199.1382
530.8714, 198.0266
531.3535, 197.2529
531.8356, 197.1012
532.3177, 197.1929
532.7999, 197.2175
533.2820, 197.1776
533.7641, 197.1585
534.2462, 196.7480
534.7283, 196.7980
535.2104, 198.2887
535.6926, 200.3650
536.1747, 201.4341
536.6568, 200.9834
537.1389, 199.9310
537.6210, 199.5129
538.1031, 199.7941
538.5853, 200.4358
539.0674, 202.0508
539.5495, 203.3521
540.0316, 203.6064
540.5137, 203.3379
540.9958, 203.4463
541.4780, 204.3262
541.9601, 205.4555
542.4422, 205.9104
542.9243, 205.6034
543.4064, 205.8560
543.8885, 207.0863
544.3707, 208.5948
544.8528, 210.0012
545.3349, 211.2925
545.8170, 212.4316
546.2991, 213.3942
546.7813, 214.2071
547.2634, 214.6618
547.7455, 214.9355
548.2276, 215.8612
548.7097, 217.8184
549.1918, 220.0793
549.6740, 221.7045
550.1561, 222.5603
550.6382, 223.3835
551.1203, 224.0622
551.6024, 224.8224
552.0845, 225.8650
552.5667, 227.0618
553.0488, 228.1504
553.5309, 229.0119
554.0130, 229.7878
554.4951, 230.6778
554.9772, 231.5735
555.4594, 232.9026
555.9415, 235.3993
556.4236, 237.6226
556.9057, 238.6787
557.3878, 239.0853
557.8699, 239.9192
558.3521, 241.7203
558.8342, 243.9366
559.3163, 245.7979
559.7984, 247.3150
560.2805, 249.0942
560.7626, 251.3247
561.2448, 253.7277
561.7269, 256.1224
562.2090, 258.4933
562.6911, 260.7910
563.1732, 262.7082
563.6553, 264.8223
564.1375, 267.6280
564.6196, 270.9335
565.1017, 274.2316
565.5838, 277.3355
566.0659, 280.6089
566.5480, 284.5793
567.0302, 289.4789
567.5123, 294.1617
567.9944, 298.1599
568.4765, 302.4875
568.9586, 307.3638
569.4407, 312.8583
569.9229, 319.0390
570.4050, 325.9489
570.8871, 333.2637
571.3692, 340.3099
571.8513, 346.9991
572.3334, 354.7764
572.8156, 363.8782
573.2977, 373.8294
573.7798, 384.3960
574.2619, 395.5623
574.7440, 407.4653
575.2261, 420.1097
575.7083, 433.4799
576.1904, 447.2964
576.6725, 461.8257
577.1546, 478.0861
577.6367, 496.3293
578.1188, 515.2722
578.6010, 533.6385
579.0831, 551.4335
579.5652, 570.3502
580.0473, 590.6518
580.5294, 611.5959
581.0115, 633.1061
581.4937, 655.0003
581.9758, 677.0500
582.4579, 699.2397
582.9400, 721.5657
583.4221, 744.2063
583.9042, 767.1105
584.3864, 789.9353
584.8685, 812.3008
585.3506, 835.6661
585.8327, 861.1351
586.3148, 887.4998
586.7969, 913.3049
587.2791, 938.3827
587.7612, 964.2382
588.2433, 992.5842
588.7254, 1022.217
589.2075, 1051.117
589.6896, 1079.083
590.1718, 1105.550
590.6539, 1129.757
591.1360, 1152.358
591.6181, 1175.813
592.1002, 1202.253
592.5823, 1225.328
593.0645, 1244.917
593.5466, 1260.306
594.0287, 1271.511
594.5108, 1278.122
594.9929, 1279.076
595.4750, 1273.474
595.9572, 1262.294
596.4393, 1248.855
596.9214, 1234.672
597.4035, 1213.897
597.8856, 1181.823
598.3677, 1145.707
598.8499, 1108.670
599.3320, 1070.866
599.8141, 1031.901
600.2962, 990.8818
600.7783, 949.1096
601.2604, 907.4997
601.7426, 866.3733
602.2247, 826.5025
602.7068, 787.9601
603.1889, 751.3352
603.6710, 717.4055
604.1531, 686.4149
604.6353, 657.0367
605.1174, 629.4706
605.5995, 603.1211
606.0816, 577.5187
606.5637, 553.1098
607.0458, 530.8060
607.5280, 510.8718
608.0101, 492.7580
608.4922, 476.0763
608.9743, 460.9117
609.4564, 445.5591
609.9385, 429.1790
610.4207, 414.0574
610.9028, 401.2363
611.3849, 389.8219
611.8670, 378.8511
612.3491, 368.1492
612.8312, 357.9687
613.3134, 348.6025
613.7955, 339.8250
614.2776, 331.1095
614.7597, 322.4697
615.2418, 314.4901
615.7239, 307.6103
616.2061, 301.5062
616.6882, 295.3231
617.1703, 288.5637
617.6524, 282.6283
618.1345, 278.2223
618.6166, 274.0742
619.0988, 269.1842
619.5809, 263.8221
620.0630, 258.9076
620.5451, 254.9759
621.0272, 251.6023
621.5093, 247.9241
621.9915, 243.8381
622.4736, 240.1682
622.9557, 237.0709
623.4378, 234.3611
623.9199, 232.1476
624.4020, 230.1946
624.8842, 227.8913
625.3663, 224.8151
625.8484, 221.7827
626.3305, 219.5534
626.8126, 217.7537
627.2947, 215.5907
627.7769, 212.9060
628.2590, 210.2059
628.7411, 207.8764
629.2232, 205.9237
629.7053, 204.4635
630.1874, 204.4956
630.6696, 203.7432
631.1517, 201.0777
631.6338, 198.2087
632.1159, 196.6780
632.5980, 196.4570
633.0801, 196.4300
633.5623, 195.9519
634.0444, 195.0078
634.5265, 193.3658
635.0086, 190.9583
635.4907, 188.8962
635.9728, 187.5722
636.4550, 186.6344
636.9371, 185.8233
637.4192, 185.1168
637.9013, 184.1603
638.3834, 182.4477
638.8655, 180.9274
639.3477, 180.2561
639.8298, 180.1334
640.3119, 180.1117
640.7940, 180.0227
641.2761, 179.6917
641.7582, 178.8612
642.2404, 177.5232
642.7225, 176.3450
643.2046, 175.3944
643.6867, 174.5116
644.1688, 173.5187
644.6509, 172.6402
645.1331, 172.2683
645.6152, 172.3973
646.0973, 172.2437
646.5794, 171.0655
647.0615, 169.4351
647.5436, 168.2836
648.0258, 167.5844
648.5079, 166.8438
648.9900, 165.8200
649.4721, 164.7744
649.9542, 164.1808
650.4363, 164.2294
650.9185, 164.0386
651.4006, 163.3666
651.8827, 162.7326
652.3648, 162.5341
652.8469, 162.4511
653.3290, 161.9461
653.8112, 160.8677
654.2933, 159.6391
654.7754, 158.6777
655.2575, 157.9777
655.7396, 157.5263
656.2217, 157.3779
656.7039, 157.2926
657.1860, 157.2148
657.6681, 157.0981
658.1502, 156.8659
658.6323, 156.4985
659.1144, 156.1245
659.5966, 155.8044
660.0787, 155.4750
660.5608, 155.1150
661.0429, 154.6999
661.5250, 154.1384
662.0071, 153.3828
662.4893, 152.6004
662.9714, 152.1080
663.4535, 152.0034
663.9356, 151.6635
664.4177, 150.9806
664.8998, 150.1914
665.3820, 149.2484
665.8641, 148.3201
666.3462, 147.6552
666.8283, 147.3168
667.3104, 147.0356
667.7925, 146.5236
668.2747, 146.0067
668.7568, 145.9494
669.2389, 146.3208
669.7210, 146.6371
670.2031, 146.6780
670.6852, 146.4319
671.1674, 145.8208
671.6495, 144.5288
672.1316, 143.7375
672.6137, 143.8642
673.0958, 143.9958
673.5779, 143.7199
674.0601, 143.2100
674.5422, 142.8182
675.0243, 142.6630
675.5064, 142.3702
675.9885, 141.2920
676.4706, 139.7381
676.9528, 139.0038
677.4349, 139.2545
677.9170, 139.4690
678.3991, 139.0472
678.8812, 138.3320
679.3633, 138.0947
679.8455, 138.4962
680.3276, 138.7563
680.8097, 138.7558
681.2918, 138.6324
681.7739, 138.4137
682.2560, 138.1465
682.7382, 137.9721
683.2203, 137.9316
683.7024, 137.7475
684.1845, 136.9132
684.6666, 135.4634
685.1487, 134.3173
685.6309, 133.3705
686.1130, 133.0873
686.5951, 134.2632
687.0772, 135.9126
687.5593, 136.5109
688.0414, 135.8940
688.5236, 135.1081
689.0057, 134.3378
689.4878, 133.6152
689.9699, 132.9632
690.4520, 132.3835
690.9341, 131.8316
691.4163, 131.2946
691.8984, 130.9483
692.3805, 131.1243
692.8626, 131.8775
693.3447, 132.2921
693.8268, 132.3219
694.3090, 132.0857
694.7911, 131.0941
695.2732, 130.1703
695.7553, 130.4546
696.2374, 132.0735
696.7195, 133.1579
697.2017, 132.5247
697.6838, 131.2578
698.1659, 130.1885
698.6480, 129.4280
699.1301, 129.2222
699.6122, 129.6596
700.0944, 130.4270
700.5765, 131.1947
701.0586, 131.9949
701.5407, 132.1798
702.0228, 131.2089
702.5049, 130.4099
702.9871, 130.2226
703.4692, 130.2543
703.9513, 130.0975
704.4334, 129.7492
704.9155, 129.5860
705.3976, 130.1930
705.8798, 130.8139
706.3619, 130.2822
706.8440, 128.9603
707.3261, 128.2026
707.8082, 128.4234
708.2903, 128.9469
708.7725, 129.0352
709.2546, 128.6934
709.7367, 128.4613
710.2188, 128.4129
710.7009, 128.3730
711.1830, 128.3089
711.6652, 128.2492
712.1473, 128.2213
712.6294, 128.2215
713.1115, 128.2239
713.5936, 128.2163
714.0757, 128.2030
714.5579, 128.1540
715.0400, 128.0998
715.5221, 128.2315
716.0042, 128.6120
716.4863, 128.8148
716.9684, 128.4143
717.4506, 127.5246
717.9327, 126.9189
718.4148, 126.5849
718.8969, 126.5884
719.3790, 127.3861
719.8611, 128.1120
720.3433, 128.0844
720.8254, 127.5104
721.3075, 127.0615
721.7896, 127.0809
722.2717, 127.1672
722.7538, 126.7611
723.2360, 126.0568
723.7181, 125.7467
724.2002, 125.9344
724.6823, 126.1173
725.1644, 125.9814
725.6465, 125.5905
726.1287, 125.1100
726.6108, 124.1261
727.0929, 123.8585
727.5750, 125.0212
728.0571, 126.1196
728.5392, 126.3337
729.0214, 125.9987
729.5035, 125.7365
729.9856, 125.7487
730.4677, 125.7929
730.9498, 125.6322
731.4319, 125.3433
731.9141, 125.1092
732.3962, 124.9376
732.8783, 124.7138
733.3604, 124.3265
733.8425, 124.0372
734.3246, 124.3553
734.8068, 125.5541
735.2889, 126.1402
735.7710, 125.6385
736.2531, 125.1505
736.7352, 125.0279
737.2173, 125.0695
737.6995, 125.0971
738.1816, 125.0542
738.6637, 124.8574
739.1458, 124.2204
739.6279, 123.5387
740.1100, 123.5698
740.5922, 124.1844
741.0743, 124.6682
741.5564, 124.8171
742.0385, 124.7801
742.5206, 124.7099
743.0027, 124.6007
743.4849, 124.3279
743.9670, 123.5013
744.4491, 123.0600
744.9312, 123.4209
745.4133, 123.9128
745.8954, 123.8224
746.3776, 123.4207
746.8597, 123.7837
747.3418, 125.8197
747.8239, 127.7054
748.3060, 126.8640
748.7881, 124.5243
749.2703, 124.1423
749.7524, 126.0827
750.2345, 127.7985
750.7166, 127.6333
751.1987, 126.1107
751.6808, 124.5507
752.1630, 122.5108
752.6451, 121.4755
753.1272, 122.5113
753.6093, 123.3961
754.0914, 123.0968
754.5735, 122.2144
755.0557, 121.6590
755.5378, 121.6382
756.0199, 121.6726
756.5020, 121.4126
756.9841, 121.0683
757.4662, 120.8901
757.9484, 120.8748
758.4305, 121.0127
758.9126, 121.3055
759.3947, 121.5092
759.8768, 121.2234
760.3589, 120.4374
760.8411, 120.4847
761.3232, 122.1576
761.8053, 123.2234
762.2874, 122.6982
762.7695, 121.7107
763.2516, 120.8775
763.7338, 120.2881
764.2159, 120.1740
764.6980, 121.0619
765.1801, 121.8781
765.6622, 121.8013
766.1443, 121.2516
766.6265, 120.8002
767.1086, 120.5517
767.5907, 120.4610
768.0728, 120.5221
768.5549, 120.6150
769.0370, 120.3657
769.5192, 119.6680
770.0013, 119.3241
770.4834, 119.5232
770.9655, 119.8657
771.4476, 120.3104
771.9297, 120.6807
772.4119, 120.5853
772.8940, 119.8252
773.3761, 119.3582
773.8582, 119.6344
774.3403, 120.1063
774.8224, 120.5684
775.3046, 120.8849
775.7867, 120.7900
776.2688, 120.2365
776.7509, 119.5855
777.2330, 119.1526
777.7151, 118.9381
778.1973, 119.0094
778.6794, 119.4014
779.1615, 119.7322
779.6436, 119.9799
780.1257, 119.9372
780.6078, 119.1994
781.0900, 117.8272
781.5721, 117.1639
782.0542, 117.6903
782.5363, 118.2273
783.0184, 118.7316
783.5005, 119.0425
783.9827, 118.9228
784.4648, 118.5077
784.9469, 118.1610
785.4290, 118.0426
785.9111, 118.0553
786.3932, 118.1657
786.8754, 118.3103
787.3575, 118.1646
787.8396, 117.7331
788.3217, 117.8340
788.8038, 119.0225
789.2859, 120.4956
789.7681, 120.7690
790.2502, 119.5421
790.7323, 118.6393
791.2144, 118.1768
791.6965, 117.9110
792.1786, 117.9096
792.6608, 117.9868
793.1429, 117.9303
793.6250, 117.7501
794.1071, 117.6820
794.5892, 118.0452
795.0714, 118.3368
795.5535, 117.9787
796.0356, 117.3246
796.5177, 117.0592
796.9998, 117.2502
797.4819, 117.4489
797.9641, 117.3254
798.4462, 117.0293
798.9283, 116.9997
799.4104, 117.3106
799.8925, 117.3356
800.3746, 116.8817
800.8568, 116.4106
801.3389, 116.1010
801.8210, 115.9734
802.3031, 116.1112
802.7852, 116.6262
803.2673, 116.8870
803.7495, 116.4256
804.2316, 116.0520
804.7137, 116.3970
805.1958, 117.0427
805.6779, 117.3623
806.1600, 117.2376
806.6422, 116.9735
807.1243, 116.7761
807.6064, 116.6382
808.0885, 116.5537
808.5706, 116.5190
809.0527, 116.4552
809.5349, 116.3212
810.0170, 116.4060
810.4991, 117.0503
810.9812, 118.0205
811.4633, 118.3262
811.9454, 117.3672
812.4276, 116.8530
812.9097, 117.3254
813.3918, 117.6558
813.8739, 117.1870
814.3560, 116.3277
814.8381, 115.6799
815.3203, 115.3618
815.8024, 115.2293
816.2845, 115.3432
816.7666, 115.4897
817.2487, 115.4633
817.7308, 115.2957
818.2130, 115.0440
818.6951, 114.7387
819.1772, 114.4608
819.6593, 114.2663
820.1414, 114.1828
820.6235, 114.4011
821.1057, 115.0064
821.5878, 115.2652
822.0699, 114.9393
822.5520, 114.4872
823.0341, 114.1467
823.5162, 113.9445
823.9984, 113.9970
824.4805, 114.5824
824.9626, 114.7603
825.4447, 113.8987
825.9268, 113.1590
826.4089, 113.2577
826.8911, 113.8575
827.3732, 114.4753
827.8553, 114.9727
828.3374, 115.3172
828.8195, 115.4797
829.3016, 115.4773
829.7838, 115.2649
830.2659, 114.9043
830.7480, 114.6097
831.2301, 114.4325
831.7122, 114.3259
832.1943, 114.2657
832.6765, 114.2222
833.1586, 114.1188
833.6407, 114.0362
834.1228, 113.5577
834.6049, 112.0140
835.0870, 110.9879
835.5692, 111.6356
836.0513, 113.2190
836.5334, 114.9386
837.0155, 116.9314
837.4976, 117.8553
837.9797, 116.5974
838.4619, 115.0196
838.9440, 113.9854
839.4261, 113.4124
839.9082, 113.2654
840.3903, 113.4249
840.8724, 113.4165
841.3546, 112.7650
841.8367, 112.0286
842.3188, 112.3119
842.8009, 113.3560
843.2830, 113.9790
843.7651, 114.0078
844.2473, 113.5997
844.7294, 112.7379
845.2115, 111.8050
845.6936, 111.7508
846.1757, 112.9155
846.6578, 113.5298
847.1400, 113.0763
847.6221, 112.8297
848.1042, 113.5791
848.5863, 114.4667
849.0684, 114.4795
849.5505, 113.6816
850.0327, 113.3019
850.5148, 114.1409
850.9969, 114.8990
851.4790, 114.8362
851.9611, 114.4512
852.4432, 114.2958
852.9254, 114.3609
853.4075, 114.3109
853.8896, 113.9616
854.3717, 113.6099
854.8538, 113.6982
855.3359, 114.0960
855.8181, 114.3515
856.3002, 114.4449
856.7823, 114.4228
857.2644, 114.2727
857.7465, 114.1830
858.2286, 114.4316
858.7108, 115.0037
859.1929, 115.3142
859.6750, 115.3429
860.1571, 115.1431
860.6392, 114.3267
861.1213, 113.6739
861.6035, 113.8515
862.0856, 114.5265
862.5677, 114.8664
863.0498, 114.5972
863.5319, 114.4596
864.0140, 115.0257
864.4962, 115.5091
864.9783, 115.0885
865.4604, 114.2530
865.9425, 113.9831
866.4246, 114.4577
866.9067, 114.9011
867.3889, 114.5949
867.8710, 113.9434
868.3531, 113.6568
868.8352, 113.6812
869.3173, 113.7886
869.7994, 113.9365
870.2816, 114.1075
870.7637, 114.2739
871.2458, 114.4976
871.7279, 114.9916
872.2100, 115.9252
872.6921, 116.4216
873.1743, 116.3581
873.6564, 116.0595
874.1385, 115.2005
874.6206, 114.4967
875.1027, 115.0125
875.5848, 116.6776
876.0670, 117.8281
876.5491, 117.9274
877.0312, 117.8910
877.5133, 117.7952
877.9954, 117.8526
878.4775, 118.4917
878.9597, 119.4106
879.4418, 119.7448
879.9239, 119.0950
880.4060, 118.4937
880.8881, 118.9582
881.3702, 120.0002
881.8524, 120.9933
882.3345, 121.8557
882.8166, 122.3964
883.2987, 122.5663
883.7808, 122.5234
884.2629, 122.3744
884.7451, 122.1984
885.2272, 122.3502
885.7093, 122.8801
886.1914, 123.3059
886.6735, 123.5568
887.1556, 123.7189
887.6378, 123.8398
888.1199, 123.9046
888.6020, 123.8284
889.0841, 123.4377
889.5662, 123.5424
890.0483, 124.7871
890.5305, 125.6941
891.0126, 125.5940
891.4947, 125.1721
891.9768, 125.0788
892.4589, 125.2832
892.9410, 125.3533
893.4232, 125.0523
893.9053, 124.7692
894.3874, 124.8017
894.8695, 124.9269
895.3516, 124.8261
895.8337, 124.6080
896.3159, 124.7322
896.7980, 125.3201
897.2801, 125.6904
897.7622, 124.9739
898.2443, 123.6253
898.7264, 122.8759
899.2086, 122.6277
899.6907, 122.0261
900.1728, 120.8662
900.6549, 119.7781
901.1370, 119.2699
901.6191, 119.0653
902.1013, 118.3651
902.5834, 116.9674
903.0655, 115.9022
903.5476, 115.4082
904.0297, 114.7734
904.5118, 113.4287
904.9940, 112.0532
905.4761, 111.6872
905.9582, 112.2453
906.4403, 112.1493
906.9224, 110.5640
907.4045, 109.3160
907.8867, 109.1247
908.3688, 109.1087
908.8509, 108.4968
909.3330, 107.5913
909.8151, 107.1816
910.2972, 107.5212
910.7794, 107.7627
911.2615, 107.2728
911.7436, 106.5100
912.2257, 105.8409
912.7078, 105.2965
913.1899, 104.9593
913.6721, 104.8013
914.1542, 104.6152
914.6363, 104.2518
915.1184, 103.8012
915.6005, 103.3867
916.0826, 103.0175
916.5648, 102.7643
917.0469, 102.6340
917.5290, 102.5420
918.0111, 102.4810
918.4932, 102.2758
918.9753, 101.5994
919.4575, 100.5221
919.9396, 100.3811
920.4217, 101.7865
920.9038, 102.4189
921.3859, 101.4417
921.8680, 100.3413
922.3502, 100.2560
922.8323, 100.6525
923.3144, 100.1915
923.7965, 98.45555
924.2786, 97.51546
924.7607, 98.19633
925.2429, 98.92498
925.7250, 99.24815
926.2071, 99.25160
926.6892, 98.88383
927.1713, 98.28136
927.6534, 97.89317
928.1356, 97.96310
928.6177, 98.06590
929.0998, 97.82092
929.5819, 97.55929
930.0640, 97.66604
930.5461, 98.04671
931.0283, 98.55241
931.5104, 99.08006
931.9925, 99.24426
932.4746, 98.47713
932.9567, 97.46450
933.4388, 97.66898
933.9210, 98.73389
934.4031, 99.30061
934.8852, 99.18841
935.3673, 98.73438
935.8494, 98.09814
936.3315, 97.40647
936.8137, 96.85888
937.2958, 96.45362
937.7779, 96.18140
938.2600, 96.03934
938.7421, 96.03829
939.2242, 96.17086
939.7064, 96.49583
940.1885, 97.21490
940.6706, 98.10522
941.1527, 98.27708
941.6348, 97.13037
942.1169, 96.65614
942.5991, 97.61963
943.0812, 98.32977
943.5633, 97.98129
944.0454, 97.34290
944.5275, 97.24648
945.0096, 97.64652
945.4918, 97.89242
945.9739, 97.76115
946.4560, 97.59937
946.9381, 97.60726
947.4202, 97.53726
947.9023, 96.92202
948.3845, 96.19357
948.8666, 96.31342
949.3487, 97.43279
949.8308, 98.27869
950.3129, 97.76343
950.7950, 96.90162
951.2772, 96.50988
951.7593, 96.50059
952.2414, 96.92738
952.7235, 97.62198
953.2056, 98.01699
953.6877, 97.83637
954.1699, 97.44979
954.6520, 97.38198
955.1341, 97.44668
955.6162, 96.97829
956.0983, 96.09460
956.5804, 95.63218
957.0626, 95.78117
957.5447, 95.88664
958.0268, 95.42648
958.5089, 94.69669
958.9910, 94.36956
959.4731, 94.45496
959.9553, 94.89556
960.4374, 95.82864
960.9195, 96.45509
961.4016, 96.43242
961.8837, 96.12608
962.3658, 95.87200
962.8480, 95.67562
963.3301, 95.58371
963.8122, 95.58015
964.2943, 95.72141
964.7764, 96.20535
965.2585, 96.57425
965.7407, 96.48629
966.2228, 96.25010
966.7049, 96.25838
967.1870, 96.51466
967.6691, 96.70435
968.1512, 97.00402
968.6334, 96.94176
969.1155, 95.93540
969.5976, 94.99898
970.0797, 94.91116
970.5618, 95.35914
971.0439, 95.72167
971.5261, 95.87001
972.0082, 96.00011
972.4903, 96.41499
972.9724, 96.59277
973.4545, 95.95042
973.9366, 95.05830
974.4188, 94.47182
974.9009, 94.27721
975.3830, 94.49873
975.8651, 95.17007
976.3472, 95.78940
976.8293, 95.82679
977.3115, 95.62822
977.7936, 95.68413
978.2757, 95.87763
978.7578, 95.89205
979.2399, 95.69353
979.7220, 95.36471
980.2042, 94.89192
980.6863, 94.83131
981.1684, 96.75853
981.6505, 99.71474
982.1326, 99.85004
982.6147, 97.45734
983.0969, 96.10757
983.5790, 96.84075
984.0611, 97.73489
984.5432, 97.11633
985.0253, 95.61967
985.5074, 94.97705
985.9896, 95.21138
986.4717, 95.33964
986.9538, 95.29899
987.4359, 95.25183
987.9180, 95.25732
988.4001, 95.29269
988.8823, 95.35856
989.3644, 95.42579
989.8465, 95.28902
990.3286, 94.86820
990.8107, 94.48111
991.2928, 94.09653
991.7750, 93.84218
992.2571, 93.76729
992.7392, 93.86702
993.2213, 94.25270
993.7034, 94.92162
994.1855, 95.08776
994.6677, 94.14220
995.1498, 93.61094
995.6319, 93.82014
996.1140, 94.20303
996.5961, 94.67970
997.0782, 95.06371
997.5604, 94.99947
998.0425, 94.45419
998.5246, 94.14641
999.0067, 94.41141
999.4888, 94.62560
999.9709, 94.54969
1000.453, 94.42393
1000.935, 94.47165
1001.417, 94.58170
1001.899, 94.48438
1002.382, 94.12541
1002.864, 93.88923
1003.346, 94.11445
1003.828, 94.29067
1004.310, 94.07537
1004.792, 93.71313
1005.274, 93.38504
1005.756, 93.15228
1006.238, 93.12780
1006.721, 93.34909
1007.203, 93.50001
1007.685, 93.19238
1008.167, 92.88864
1008.649, 93.24947
1009.131, 93.78385
1009.613, 93.48789
1010.095, 92.59489
1010.578, 92.35032
1011.060, 93.31533
1011.542, 94.41959
1012.024, 94.62785
1012.506, 94.30936
1012.988, 93.85938
1013.470, 93.38300
1013.952, 93.13890
1014.434, 93.13572
1014.917, 93.14880
1015.399, 93.05083
1015.881, 93.04447
1016.363, 93.65034
1016.845, 94.47994
1017.327, 94.29851
1017.809, 93.31184
1018.291, 92.40176
1018.773, 91.78459
1019.256, 91.68783
1019.738, 92.30212
1020.220, 93.10345
1020.702, 93.12363
1021.184, 92.50845
1021.666, 92.28703
1022.148, 92.44925
1022.630, 92.76956
1023.113, 93.21857
1023.595, 93.35477
1024.077, 92.82195
1024.559, 91.96249
1025.041, 91.39279
1025.523, 91.11166
1026.005, 91.47575
1026.487, 92.61055
1026.969, 93.29441
1027.452, 93.16116
1027.934, 92.77925
1028.416, 92.53543
1028.898, 92.41158
1029.380, 92.32977
1029.862, 92.24419
1030.344, 92.73860
1030.826, 94.24343
1031.309, 94.68484
1031.791, 93.03868
1032.273, 91.37326
1032.755, 91.37073
1033.237, 92.46281
1033.719, 93.11962
1034.201, 93.28207
1034.683, 93.25166
1035.166, 92.78489
1035.648, 92.69895
1036.130, 93.55441
1036.612, 94.31827
1037.094, 94.07008
1037.576, 93.15818
1038.058, 92.58442
1038.540, 92.40013
1039.022, 92.36673
1039.505, 92.46638
1039.987, 92.75153
1040.469, 93.51233
1040.951, 94.17352
1041.433, 94.15350
1041.915, 93.71040
1042.397, 93.61482
1042.879, 94.03094
1043.361, 94.25389
1043.844, 94.19149
1044.326, 94.04850
1044.808, 93.78698
1045.290, 93.53873
1045.772, 93.37388
1046.254, 93.30314
1046.736, 93.35796
1047.218, 93.56962
1047.700, 93.78942
1048.183, 93.92001
1048.665, 94.16588
1049.147, 94.90230
1049.629, 95.48567
1050.111, 95.23299
1050.593, 94.48604
1051.075, 94.07414
1051.557, 94.14462
1052.040, 94.24192
1052.522, 94.22141
1053.004, 94.29534
1053.486, 94.77460
1053.968, 95.15579
1054.450, 95.06719
1054.932, 94.56551
1055.414, 93.61197
1055.896, 92.06718
1056.379, 91.42564
1056.861, 92.82883
1057.343, 94.22472
1057.825, 94.98685
1058.307, 95.29507
1058.789, 95.05367
1059.271, 94.56612
1059.753, 94.41848
1060.236, 94.72851
1060.718, 94.93080
1061.200, 94.54590
1061.682, 94.41181
1062.164, 95.33311
1062.646, 96.20912
1063.128, 95.85513
1063.610, 94.90922
1064.093, 94.67455
1064.575, 95.37125
1065.057, 96.01305
1065.539, 96.29390
1066.021, 96.37273
1066.503, 96.22258
1066.985, 95.98619
1067.467, 95.64851
1067.949, 95.36465
1068.432, 95.45122
1068.914, 95.91628
1069.396, 96.22694
1069.878, 96.11738
1070.360, 95.89470
1070.842, 95.56980
1071.324, 95.30557
1071.806, 95.21328
1072.288, 95.27526
1072.771, 95.43513
1073.253, 95.69545
1073.735, 96.15591
1074.217, 97.10064
1074.699, 97.76942
1075.181, 97.62591
1075.663, 97.25615
1076.145, 97.08485
1076.627, 96.98033
1077.110, 96.60909
1077.592, 96.04220
1078.074, 95.81313
1078.556, 96.16668
1079.038, 96.73474
1079.520, 97.87306
1080.002, 98.59776
1080.484, 97.61208
1080.967, 96.20499
1081.449, 96.17814
1081.931, 97.33191
1082.413, 98.12340
1082.895, 97.99254
1083.377, 97.78589
1083.859, 97.88792
1084.341, 98.03812
1084.823, 98.13907
1085.306, 98.15337
1085.788, 97.95322
1086.270, 97.64998
1086.752, 97.56370
1087.234, 97.80259
1087.716, 98.05516
1088.198, 98.25183
1088.680, 98.34852
1089.163, 98.22746
1089.645, 98.07492
1090.127, 98.15344
1090.609, 98.31822
1091.091, 98.18838
1091.573, 97.67859
1092.055, 97.22952
1092.537, 96.89330
1093.020, 96.80547
1093.502, 97.18455
1093.984, 97.68052
1094.466, 98.12105
1094.948, 98.43649
1095.430, 98.51224
1095.912, 98.35234
1096.394, 98.22124
1096.876, 98.18086
1097.359, 98.21513
1097.841, 98.37631
1098.323, 98.55005
1098.805, 98.77058
1099.287, 98.89231
1099.769, 98.65617
1100.251, 98.10788
1100.733, 97.66833
1101.215, 97.45987
1101.698, 97.31027
1102.180, 97.12666
1102.662, 97.04634
1103.144, 97.25190
1103.626, 97.50420
1104.108, 97.57119
1104.590, 97.46066
1105.072, 97.30698
1105.554, 97.23122
1106.037, 96.76571
1106.519, 95.03301
1107.001, 93.93522
1107.483, 94.83723
1107.965, 95.98040
1108.447, 95.65667
1108.929, 94.57242
1109.411, 94.54430
1109.894, 95.93795
1110.376, 96.87466
1110.858, 97.12807
1111.340, 96.98775
1111.822, 96.11580
1112.304, 95.29078
1112.786, 94.85133
1113.268, 94.79434
1113.750, 95.32883
1114.233, 96.47887
1114.715, 96.85825
1115.197, 95.68808
1115.679, 95.01325
1116.161, 95.29337
1116.643, 95.59532
1117.125, 95.47810
1117.607, 95.27857
1118.090, 95.48057
1118.572, 95.94094
1119.054, 95.79855
1119.536, 94.54611
1120.018, 93.98605
1120.500, 94.55083
1120.982, 94.93301
1121.464, 94.57570
1121.947, 94.21906
1122.429, 94.49514
1122.911, 95.17773
1123.393, 95.71666
1123.875, 96.12605
1124.357, 96.26512
1124.839, 96.08386
1125.321, 95.79456
1125.803, 95.40903
1126.286, 94.99878
1126.768, 94.58781
1127.250, 94.20493
1127.732, 93.85459
1128.214, 93.56812
1128.696, 93.82462
1129.178, 94.76266
1129.660, 95.01917
1130.142, 94.32182
1130.625, 93.91336
1131.107, 94.34717
1131.589, 95.00896
1132.071, 95.26909
1132.553, 95.25198
1133.035, 95.34520
1133.517, 95.53887
1133.999, 95.59593
1134.481, 95.51067
1134.964, 95.44188
1135.446, 95.43293
1135.928, 95.43802
1136.410, 95.43035
1136.892, 95.38583
1137.374, 95.18372
1137.856, 94.91895
1138.338, 95.15871
1138.821, 95.72051
1139.303, 95.55482
1139.785, 94.63555
1140.267, 94.04411
1140.749, 94.26860
1141.231, 94.65402
1141.713, 94.50581
1142.195, 94.11958
1142.677, 94.02431
1143.160, 94.09916
1143.642, 93.98317
1144.124, 93.78941
1144.606, 94.18515
1145.088, 95.17576
1145.570, 95.50566
1146.052, 94.15484
1146.534, 92.68374
1147.017, 92.89584
1147.499, 93.75681
1147.981, 94.13893
1148.463, 94.13491
1148.945, 93.87789
1149.427, 93.51310
1149.909, 93.35639
1150.391, 93.53300
1150.874, 93.80930
1151.356, 94.11931
1151.838, 94.37627
1152.320, 94.60947
1152.802, 94.67854
1153.284, 94.23319
1153.766, 93.60325
1154.248, 93.56597
1154.730, 94.16050
1155.213, 94.27123
1155.695, 93.13813
1156.177, 92.14462
1156.659, 91.72277
1157.141, 91.59680
1157.623, 91.74907
1158.105, 92.01151
1158.587, 92.23044
1159.069, 92.40519
1159.552, 92.63703
1160.034, 93.10471
1160.516, 93.04600
1160.998, 91.81358
1161.480, 90.87287
1161.962, 90.58084
1162.444, 90.62828
1162.926, 91.13471
1163.408, 91.65671
1163.891, 91.38635
1164.373, 90.33981
1164.855, 89.71140
1165.337, 89.57986
1165.819, 89.67138
1166.301, 90.08475
1166.783, 90.39397
1167.265, 90.41477
1167.748, 90.36716
1168.230, 90.51723
1168.712, 90.65955
1169.194, 90.02727
1169.676, 88.55556
1170.158, 88.31985
1170.640, 89.40330
1171.122, 89.75606
1171.604, 88.93518
1172.087, 88.59888
1172.569, 89.72227
1173.051, 90.95882
1173.533, 90.39804
1174.015, 88.84478
1174.497, 88.77994
1174.979, 89.71932
1175.461, 89.71217
1175.944, 88.79636
1176.426, 87.98315
1176.908, 87.58140
1177.390, 87.40519
1177.872, 87.32781
1178.354, 87.41398
1178.836, 87.95216
1179.318, 88.53352
1179.801, 88.39734
1180.283, 87.95481
1180.765, 88.05561
1181.247, 88.58761
1181.729, 88.84167
1182.211, 88.58858
1182.693, 88.21416
1183.175, 87.78852
1183.657, 87.53333
1184.140, 87.83627
1184.622, 88.12036
1185.104, 87.65379
1185.586, 86.99729
1186.068, 87.15537
1186.550, 88.00075
1187.032, 88.30372
1187.514, 87.49744
1187.996, 87.06106
1188.479, 87.61467
1188.961, 88.14139
1189.443, 88.48852
1189.925, 88.51804
1190.407, 87.75297
1190.889, 86.79936
1191.371, 86.75129
1191.853, 87.61607
1192.335, 88.24403
1192.818, 88.66090
1193.300, 88.72092
1193.782, 88.18975
1194.264, 87.96165
1194.746, 88.46859
1195.228, 89.05086
1195.710, 89.15543
1196.192, 88.88705
1196.675, 88.47417
1197.157, 87.92120
1197.639, 87.18225
1198.121, 86.27603
1198.603, 85.98702
1199.085, 86.40191
1199.567, 86.66140
1200.049, 86.38013
1200.531, 86.14857
1201.014, 86.61913
1201.496, 87.38052
1201.978, 87.80070
1202.460, 87.91183
1202.942, 87.58709
1203.424, 87.06394
1203.906, 87.03428
1204.388, 87.47538
1204.871, 87.64273
1205.353, 87.17705
1205.835, 86.74853
1206.317, 86.92061
1206.799, 87.24763
1207.281, 87.43839
1207.763, 87.56363
1208.245, 87.63746
1208.728, 87.73309
1209.210, 88.09853
1209.692, 88.66119
1210.174, 88.71268
1210.656, 87.71488
1211.138, 87.04871
1211.620, 87.07801
1212.102, 87.35528
1212.584, 88.15130
1213.067, 88.69182
1213.549, 88.18282
1214.031, 87.20606
1214.513, 86.81902
1214.995, 87.01978
1215.477, 87.20004
1215.959, 87.29622
1216.441, 87.69246
1216.923, 88.59127
1217.406, 88.98754
1217.888, 88.47921
1218.370, 87.63287
1218.852, 86.84245
1219.334, 86.23906
1219.816, 86.13541
1220.298, 86.43922
1220.780, 86.64944
1221.262, 86.81249
1221.745, 87.26022
1222.227, 87.93893
1222.709, 88.27705
1223.191, 88.10374
1223.673, 87.94953
1224.155, 88.29068
1224.637, 88.60067
1225.119, 88.14416
1225.602, 87.47099
1226.084, 87.09871
1226.566, 87.05393
1227.048, 87.59501
1227.530, 88.40057
1228.012, 88.45325
1228.494, 87.46983
1228.976, 87.06510
1229.458, 88.72654
1229.941, 89.77805
1230.423, 88.66835
1230.905, 87.58151
1231.387, 87.99928
1231.869, 88.83616
1232.351, 88.83619
1232.833, 88.25626
1233.315, 87.90247
1233.798, 87.77071
1234.280, 87.95378
1234.762, 88.68684
1235.244, 88.83578
1235.726, 87.99598
1236.208, 87.61800
1236.690, 88.45528
1237.172, 89.51704
1237.655, 89.82993
1238.137, 89.52798
1238.619, 88.64202
1239.101, 87.44515
1239.583, 87.43899
1240.065, 88.35161
1240.547, 88.89944
1241.029, 88.91150
1241.511, 88.80622
1241.994, 88.75588
1242.476, 88.63120
1242.958, 88.24413
1243.440, 87.90564
1243.922, 87.95810
1244.404, 88.16318
1244.886, 88.22939
1245.368, 88.31773
1245.850, 88.95711
1246.333, 89.81675
1246.815, 89.55628
1247.297, 87.65923
1247.779, 86.91618
1248.261, 89.15139
1248.743, 90.75517
1249.225, 90.63589
1249.707, 90.22112
1250.189, 90.03697
1250.672, 89.88213
1251.154, 89.54796
1251.636, 89.10332
1252.118, 88.73033
1252.600, 88.42271
1253.082, 88.36074
1253.564, 88.56166
1254.046, 88.71229
1254.529, 88.76954
1255.011, 88.92362
1255.493, 89.24978
1255.975, 89.61533
1256.457, 89.93596
1256.939, 90.10243
1257.421, 89.96355
1257.903, 89.54346
1258.385, 88.56543
1258.868, 87.50607
1259.350, 87.31319
1259.832, 87.84987
1260.314, 88.47594
1260.796, 88.98979
1261.278, 89.33963
1261.760, 89.43913
1262.242, 89.49790
1262.725, 89.60046
1263.207, 89.68179
1263.689, 89.77115
1264.171, 89.76672
1264.653, 89.35110
1265.135, 88.88496
1265.617, 89.18030
1266.099, 90.22584
1266.582, 90.70129
1267.064, 90.41223
1267.546, 90.44389
1268.028, 91.01064
1268.510, 90.88847
1268.992, 89.64579
1269.474, 88.47488
1269.956, 88.15724
1270.438, 88.35366
1270.921, 88.63570
1271.403, 89.01314
1271.885, 89.64037
1272.367, 90.32104
1272.849, 90.49733
1273.331, 90.34547
1273.813, 90.43035
1274.295, 90.81404
1274.777, 91.18607
1275.260, 91.42725
1275.742, 91.54499
1276.224, 91.59059
1276.706, 91.44740
1277.188, 90.72204
1277.670, 90.15621
1278.152, 90.50856
1278.634, 91.14635
1279.116, 91.20921
1279.599, 90.83327
1280.081, 90.55106
1280.563, 90.33987
1281.045, 90.42112
1281.527, 90.90662
1282.009, 91.17738
1282.491, 91.14543
1282.973, 90.81851
1283.456, 90.15526
1283.938, 89.91138
1284.420, 90.86309
1284.902, 92.11141
1285.384, 92.33833
##END=



