##NAMES=Natrodufrenite
##RRUFFID=R070599
##IDEAL CHEMISTRY=NaFe^2+^Fe^3+^_5_(PO_4_)_4_(OH)_6_&#183;2H_2_O
##LOCALITY=Hout Bay, Cape of Good Hope Province, South Africa
##OWNER=RRUFF
##SOURCE=James Shigley
##DESCRIPTION=Sheaflike, dark brown to red-brown aggregates
##STATUS=The identification of this mineral has been confirmed by X-ray diffraction and chemical analysis
##URL=rruff.info/R070599
##MEASURED CHEMISTRY=(Na_0.62_[box]_0.19_Mn_0.10_Ca_0.09_)_Σ=1_Fe^2+^_1.00_(Fe^3+^_4.95_Al_0.05_)_Σ=5_(P_1.00_O_4_)_4_((OH)_4.76_F_0.24_)_Σ=6_·2H_2_O ; H not measured but estimated by difference and charge balance
113.9630, 10555.62
114.4451, 10617.21
114.9272, 10700.51
115.4094, 10779.94
115.8915, 10865.57
116.3736, 10930.26
116.8557, 10960.63
117.3378, 10973.74
117.8199, 10989.40
118.3021, 11018.46
118.7842, 11057.31
119.2663, 11082.11
119.7484, 11079.67
120.2305, 11079.32
120.7126, 11087.15
121.1948, 11104.27
121.6769, 11133.98
122.1590, 11182.92
122.6411, 11251.03
123.1232, 11304.30
123.6053, 11330.62
124.0875, 11348.73
124.5696, 11379.13
125.0517, 11426.56
125.5338, 11471.53
126.0159, 11481.34
126.4980, 11464.70
126.9802, 11467.31
127.4623, 11519.82
127.9444, 11606.67
128.4265, 11679.27
128.9086, 11722.33
129.3907, 11755.87
129.8729, 11798.10
130.3550, 11849.17
130.8371, 11901.56
131.3192, 11954.04
131.8013, 12009.78
132.2834, 12044.54
132.7656, 12031.00
133.2477, 12006.76
133.7298, 11995.80
134.2119, 12005.48
134.6940, 12023.67
135.1761, 12027.03
135.6583, 12007.14
136.1404, 11985.61
136.6225, 11968.36
137.1046, 11951.16
137.5867, 11930.68
138.0688, 11905.46
138.5510, 11874.84
139.0331, 11833.10
139.5152, 11780.51
139.9973, 11715.78
140.4794, 11638.27
140.9615, 11548.28
141.4437, 11446.52
141.9258, 11331.81
142.4079, 11203.12
142.8900, 11076.35
143.3721, 10961.74
143.8542, 10840.66
144.3364, 10700.61
144.8185, 10541.55
145.3006, 10373.75
145.7827, 10204.11
146.2648, 10028.71
146.7469, 9874.788
147.2291, 9765.697
147.7112, 9669.448
148.1933, 9548.434
148.6754, 9390.341
149.1575, 9217.099
149.6396, 9059.236
150.1218, 8915.765
150.6039, 8782.096
151.0860, 8656.762
151.5681, 8540.113
152.0502, 8431.104
152.5323, 8332.085
153.0145, 8239.505
153.4966, 8142.492
153.9787, 8034.647
154.4608, 7942.733
154.9429, 7899.891
155.4250, 7908.732
155.9072, 7904.812
156.3893, 7853.551
156.8714, 7781.339
157.3535, 7707.811
157.8356, 7635.945
158.3177, 7568.629
158.7999, 7510.155
159.2820, 7460.228
159.7641, 7420.404
160.2462, 7401.197
160.7283, 7387.837
161.2104, 7362.951
161.6926, 7315.815
162.1747, 7252.034
162.6568, 7196.315
163.1389, 7156.207
163.6210, 7116.036
164.1031, 7072.814
164.5853, 7026.564
165.0674, 6978.408
165.5495, 6930.769
166.0316, 6883.962
166.5137, 6822.497
166.9958, 6718.083
167.4780, 6624.556
167.9601, 6561.957
168.4422, 6528.251
168.9243, 6510.944
169.4064, 6500.907
169.8885, 6506.433
170.3707, 6483.826
170.8528, 6413.712
171.3349, 6335.867
171.8170, 6272.215
172.2991, 6226.846
172.7813, 6192.468
173.2634, 6159.561
173.7455, 6127.946
174.2276, 6099.146
174.7097, 6069.227
175.1918, 6043.921
175.6740, 6029.169
176.1561, 6026.827
176.6382, 6034.294
177.1203, 6049.455
177.6024, 6079.042
178.0845, 6099.715
178.5667, 6109.465
179.0488, 6107.088
179.5309, 6086.479
180.0130, 6040.254
180.4951, 5983.488
180.9772, 5948.502
181.4594, 5936.689
181.9415, 5937.003
182.4236, 5951.746
182.9057, 5977.156
183.3878, 5995.559
183.8699, 5996.493
184.3521, 5987.008
184.8342, 5982.676
185.3163, 5986.390
185.7984, 5991.296
186.2805, 5989.531
186.7626, 5980.678
187.2448, 5977.416
187.7269, 5993.685
188.2090, 6016.681
188.6911, 6029.351
189.1732, 6023.688
189.6553, 6011.046
190.1375, 6008.379
190.6196, 6019.744
191.1017, 6027.627
191.5838, 6020.802
192.0659, 6006.624
192.5480, 5992.797
193.0302, 5980.762
193.5123, 5972.254
193.9944, 5973.827
194.4765, 5994.628
194.9586, 6009.167
195.4407, 6006.112
195.9229, 5991.390
196.4050, 5972.863
196.8871, 5950.018
197.3692, 5926.472
197.8513, 5927.762
198.3334, 5977.012
198.8156, 6026.748
199.2977, 6066.203
199.7798, 6094.384
200.2619, 6110.280
200.7440, 6107.100
201.2261, 6083.560
201.7083, 6086.783
202.1904, 6143.740
202.6725, 6205.382
203.1546, 6263.257
203.6367, 6313.965
204.1188, 6353.196
204.6010, 6372.597
205.0831, 6363.757
205.5652, 6383.852
206.0473, 6462.953
206.5294, 6542.341
207.0115, 6592.615
207.4937, 6614.832
207.9758, 6629.918
208.4579, 6662.042
208.9400, 6720.042
209.4221, 6767.833
209.9042, 6793.999
210.3864, 6820.396
210.8685, 6862.322
211.3506, 6920.906
211.8327, 6985.744
212.3148, 7044.033
212.7970, 7098.011
213.2791, 7135.981
213.7612, 7142.936
214.2433, 7144.217
214.7254, 7162.271
215.2075, 7201.678
215.6897, 7248.367
216.1718, 7281.156
216.6539, 7292.402
217.1360, 7302.464
217.6181, 7314.206
218.1002, 7323.698
218.5824, 7322.220
219.0645, 7306.820
219.5466, 7291.590
220.0287, 7304.647
220.5108, 7366.867
220.9929, 7408.304
221.4751, 7402.562
221.9572, 7375.803
222.4393, 7367.517
222.9214, 7393.549
223.4035, 7430.127
223.8856, 7425.879
224.3678, 7366.981
224.8499, 7314.970
225.3320, 7285.747
225.8141, 7273.365
226.2962, 7268.948
226.7783, 7271.886
227.2605, 7276.409
227.7426, 7272.859
228.2247, 7265.357
228.7068, 7243.374
229.1889, 7194.533
229.6710, 7127.569
230.1532, 7063.986
230.6353, 7011.436
231.1174, 6966.707
231.5995, 6923.537
232.0816, 6881.266
232.5637, 6841.941
233.0459, 6804.965
233.5280, 6771.447
234.0101, 6746.491
234.4922, 6735.809
234.9743, 6731.485
235.4564, 6721.179
235.9386, 6705.627
236.4207, 6682.908
236.9028, 6635.935
237.3849, 6572.297
237.8670, 6547.761
238.3491, 6612.281
238.8313, 6703.163
239.3134, 6727.686
239.7955, 6665.682
240.2776, 6588.768
240.7597, 6551.015
241.2418, 6550.049
241.7240, 6549.615
242.2061, 6535.119
242.6882, 6516.512
243.1703, 6506.061
243.6524, 6506.245
244.1345, 6509.517
244.6167, 6509.572
245.0988, 6506.374
245.5809, 6502.673
246.0630, 6491.911
246.5451, 6486.504
247.0272, 6505.052
247.5094, 6557.268
247.9915, 6604.876
248.4736, 6599.650
248.9557, 6536.758
249.4378, 6491.472
249.9199, 6501.586
250.4021, 6532.993
250.8842, 6556.756
251.3663, 6567.563
251.8484, 6574.405
252.3305, 6584.660
252.8126, 6597.830
253.2948, 6619.096
253.7769, 6664.867
254.2590, 6710.902
254.7411, 6732.683
255.2232, 6722.157
255.7053, 6710.278
256.1874, 6739.822
256.6696, 6819.669
257.1517, 6884.118
257.6338, 6895.967
258.1159, 6895.128
258.5980, 6908.030
259.0801, 6940.662
259.5623, 6982.786
260.0444, 7023.752
260.5265, 7063.799
261.0086, 7101.392
261.4907, 7129.331
261.9728, 7158.448
262.4550, 7197.948
262.9371, 7250.108
263.4192, 7305.393
263.9013, 7354.029
264.3834, 7395.245
264.8655, 7432.083
265.3477, 7457.878
265.8298, 7483.728
266.3119, 7517.617
266.7940, 7561.015
267.2761, 7607.795
267.7582, 7650.476
268.2404, 7688.276
268.7225, 7726.255
269.2046, 7760.931
269.6867, 7799.389
270.1688, 7851.925
270.6509, 7919.338
271.1331, 7982.564
271.6152, 8013.053
272.0973, 8002.034
272.5794, 8008.579
273.0615, 8064.195
273.5436, 8125.673
274.0258, 8164.803
274.5079, 8179.315
274.9900, 8195.034
275.4721, 8243.146
275.9542, 8329.087
276.4363, 8412.748
276.9185, 8494.689
277.4006, 8569.091
277.8827, 8631.380
278.3648, 8681.672
278.8469, 8723.396
279.3290, 8756.802
279.8112, 8780.445
280.2933, 8810.184
280.7754, 8848.552
281.2575, 8893.259
281.7396, 8950.881
282.2217, 9018.183
282.7039, 9076.760
283.1860, 9101.680
283.6681, 9089.196
284.1502, 9096.303
284.6323, 9150.515
285.1144, 9204.030
285.5966, 9237.097
286.0787, 9248.874
286.5608, 9244.902
287.0429, 9220.339
287.5250, 9174.589
288.0071, 9151.619
288.4893, 9179.237
288.9714, 9203.408
289.4535, 9199.396
289.9356, 9170.505
290.4177, 9131.305
290.8998, 9087.560
291.3820, 9040.018
291.8641, 9005.768
292.3462, 8994.589
292.8283, 8986.171
293.3104, 8977.013
293.7925, 8963.866
294.2747, 8939.533
294.7568, 8893.868
295.2389, 8831.601
295.7210, 8783.457
296.2031, 8766.387
296.6852, 8738.541
297.1674, 8676.896
297.6495, 8593.436
298.1316, 8511.392
298.6137, 8443.009
299.0958, 8385.083
299.5779, 8328.166
300.0601, 8278.094
300.5422, 8217.199
301.0243, 8123.553
301.5064, 8018.778
301.9885, 7936.536
302.4706, 7901.325
302.9528, 7890.582
303.4349, 7849.975
303.9170, 7767.170
304.3991, 7683.924
304.8812, 7619.003
305.3633, 7562.308
305.8455, 7502.336
306.3276, 7433.288
306.8097, 7362.264
307.2918, 7305.825
307.7739, 7273.256
308.2560, 7222.203
308.7382, 7112.490
309.2203, 6987.869
309.7024, 6887.430
310.1845, 6823.928
310.6666, 6779.698
311.1487, 6737.419
311.6309, 6698.312
312.1130, 6650.553
312.5951, 6574.588
313.0772, 6497.241
313.5593, 6445.295
314.0414, 6426.198
314.5236, 6410.750
315.0057, 6372.088
315.4878, 6310.411
315.9699, 6242.033
316.4520, 6158.821
316.9341, 6081.905
317.4163, 6032.046
317.8984, 6010.935
318.3805, 5997.033
318.8626, 5979.473
319.3447, 5957.550
319.8268, 5925.383
320.3090, 5874.991
320.7911, 5823.193
321.2732, 5786.839
321.7553, 5764.845
322.2374, 5744.152
322.7195, 5716.584
323.2017, 5685.019
323.6838, 5658.043
324.1659, 5637.989
324.6480, 5619.685
325.1301, 5597.925
325.6122, 5573.622
326.0944, 5550.554
326.5765, 5528.154
327.0586, 5508.521
327.5407, 5498.127
328.0228, 5500.053
328.5049, 5497.616
328.9871, 5467.285
329.4692, 5419.887
329.9513, 5393.521
330.4334, 5418.377
330.9155, 5453.287
331.3976, 5451.274
331.8798, 5411.136
332.3619, 5371.469
332.8440, 5357.336
333.3261, 5363.349
333.8082, 5363.889
334.2903, 5346.776
334.7725, 5334.414
335.2546, 5346.790
335.7367, 5378.989
336.2188, 5406.173
336.7010, 5414.296
337.1831, 5410.406
337.6652, 5416.061
338.1473, 5433.455
338.6294, 5455.565
339.1115, 5480.134
339.5937, 5507.436
340.0758, 5540.105
340.5579, 5581.097
341.0400, 5623.159
341.5221, 5649.887
342.0042, 5657.084
342.4864, 5661.886
342.9685, 5655.975
343.4506, 5653.645
343.9327, 5679.120
344.4148, 5738.877
344.8969, 5807.474
345.3791, 5848.735
345.8612, 5847.827
346.3433, 5854.372
346.8254, 5870.942
347.3075, 5893.227
347.7896, 5914.515
348.2718, 5935.642
348.7539, 5968.414
349.2360, 6028.992
349.7181, 6126.190
350.2002, 6190.154
350.6823, 6198.586
351.1645, 6200.377
351.6466, 6218.850
352.1287, 6251.866
352.6108, 6285.394
353.0929, 6308.540
353.5750, 6322.375
354.0572, 6348.021
354.5393, 6401.845
355.0214, 6449.324
355.5035, 6480.623
355.9856, 6501.198
356.4677, 6518.884
356.9499, 6537.421
357.4320, 6558.083
357.9141, 6585.600
358.3962, 6629.207
358.8783, 6666.253
359.3604, 6691.903
359.8426, 6711.702
360.3247, 6731.132
360.8068, 6751.797
361.2889, 6771.694
361.7710, 6787.254
362.2531, 6797.957
362.7353, 6805.480
363.2174, 6807.498
363.6995, 6808.438
364.1816, 6808.158
364.6637, 6808.049
365.1458, 6813.625
365.6280, 6836.545
366.1101, 6879.593
366.5922, 6901.670
367.0743, 6876.920
367.5564, 6856.709
368.0385, 6874.032
368.5207, 6916.727
369.0028, 6949.396
369.4849, 6949.191
369.9670, 6921.112
370.4491, 6881.042
370.9312, 6819.664
371.4134, 6765.551
371.8955, 6738.362
372.3776, 6725.791
372.8597, 6710.499
373.3418, 6685.801
373.8239, 6656.521
374.3061, 6629.074
374.7882, 6603.738
375.2703, 6578.704
375.7524, 6560.254
376.2345, 6537.201
376.7166, 6492.834
377.1988, 6419.023
377.6809, 6343.600
378.1630, 6285.843
378.6451, 6242.980
379.1272, 6204.274
379.6093, 6168.179
380.0915, 6132.523
380.5736, 6095.677
381.0557, 6058.573
381.5378, 6014.589
382.0199, 5943.704
382.5020, 5871.162
382.9842, 5843.619
383.4663, 5871.182
383.9484, 5900.614
384.4305, 5879.801
384.9126, 5803.113
385.3947, 5726.331
385.8769, 5641.155
386.3590, 5563.563
386.8411, 5508.314
387.3232, 5472.013
387.8053, 5438.779
388.2874, 5398.566
388.7696, 5352.366
389.2517, 5307.376
389.7338, 5264.817
390.2159, 5221.959
390.6980, 5174.958
391.1801, 5128.113
391.6623, 5088.894
392.1444, 5060.733
392.6265, 5038.660
393.1086, 5011.676
393.5907, 4974.359
394.0728, 4940.247
394.5550, 4909.385
395.0371, 4881.751
395.5192, 4857.876
396.0013, 4837.658
396.4834, 4819.303
396.9655, 4800.699
397.4477, 4781.192
397.9298, 4764.669
398.4119, 4748.329
398.8940, 4737.713
399.3761, 4732.896
399.8582, 4735.611
400.3404, 4749.470
400.8225, 4778.277
401.3046, 4819.711
401.7867, 4864.465
402.2688, 4919.161
402.7509, 4964.492
403.2331, 4988.294
403.7152, 5002.834
404.1973, 5022.031
404.6794, 5050.658
405.1615, 5084.900
405.6436, 5120.933
406.1258, 5159.173
406.6079, 5195.669
407.0900, 5224.093
407.5721, 5255.194
408.0542, 5299.672
408.5363, 5358.365
409.0185, 5421.945
409.5006, 5493.143
409.9827, 5564.882
410.4648, 5611.196
410.9469, 5619.656
411.4290, 5630.680
411.9112, 5695.890
412.3933, 5804.357
412.8754, 5885.870
413.3575, 5904.355
413.8396, 5908.400
414.3217, 5940.828
414.8039, 6000.335
415.2860, 6065.027
415.7681, 6125.565
416.2502, 6179.150
416.7323, 6212.572
417.2144, 6210.268
417.6966, 6209.706
418.1787, 6223.126
418.6608, 6244.158
419.1429, 6263.178
419.6250, 6276.938
420.1071, 6288.100
420.5893, 6301.736
421.0714, 6321.732
421.5535, 6335.556
422.0356, 6343.478
422.5177, 6345.609
422.9998, 6341.906
423.4820, 6332.464
423.9641, 6317.277
424.4462, 6295.593
424.9283, 6267.307
425.4104, 6240.828
425.8925, 6223.190
426.3747, 6199.299
426.8568, 6161.058
427.3389, 6115.394
427.8210, 6072.991
428.3031, 6039.229
428.7852, 6009.755
429.2674, 5976.014
429.7495, 5936.966
430.2316, 5897.204
430.7137, 5859.630
431.1958, 5820.864
431.6779, 5779.271
432.1601, 5734.710
432.6422, 5684.961
433.1243, 5621.203
433.6064, 5548.987
434.0885, 5494.137
434.5706, 5464.735
435.0528, 5443.219
435.5349, 5411.761
436.0170, 5374.701
436.4991, 5349.017
436.9812, 5352.747
437.4633, 5360.575
437.9455, 5346.487
438.4276, 5311.576
438.9097, 5269.797
439.3918, 5222.987
439.8739, 5178.493
440.3560, 5161.537
440.8382, 5191.040
441.3203, 5215.046
441.8024, 5214.836
442.2845, 5202.563
442.7666, 5191.558
443.2487, 5185.985
443.7309, 5189.239
444.2130, 5207.766
444.6951, 5249.875
445.1772, 5279.388
445.6593, 5285.603
446.1414, 5290.727
446.6236, 5305.877
447.1057, 5330.066
447.5878, 5356.603
448.0699, 5380.108
448.5520, 5402.736
449.0341, 5437.350
449.5163, 5497.522
449.9984, 5548.362
450.4805, 5572.918
450.9626, 5590.842
451.4447, 5622.242
451.9268, 5673.156
452.4090, 5732.667
452.8911, 5789.536
453.3732, 5843.899
453.8553, 5891.710
454.3374, 5922.953
454.8195, 5958.305
455.3017, 6008.691
455.7838, 6074.233
456.2659, 6154.976
456.7480, 6270.665
457.2301, 6393.667
457.7122, 6472.623
458.1944, 6503.951
458.6765, 6539.711
459.1586, 6609.578
459.6407, 6707.419
460.1228, 6808.840
460.6049, 6922.279
461.0871, 7026.716
461.5692, 7103.837
462.0513, 7168.512
462.5334, 7247.787
463.0155, 7349.953
463.4977, 7464.072
463.9798, 7576.051
464.4619, 7686.613
464.9440, 7791.560
465.4261, 7881.806
465.9082, 7974.790
466.3904, 8085.076
466.8725, 8208.168
467.3546, 8327.980
467.8367, 8434.000
468.3188, 8527.727
468.8009, 8614.123
469.2831, 8691.530
469.7652, 8764.073
470.2473, 8830.565
470.7294, 8893.972
471.2115, 8962.274
471.6936, 9036.345
472.1758, 9097.513
472.6579, 9114.887
473.1400, 9089.055
473.6221, 9086.601
474.1042, 9133.193
474.5863, 9176.430
475.0685, 9180.329
475.5506, 9152.741
476.0327, 9116.705
476.5148, 9085.453
476.9969, 9047.228
477.4790, 8987.362
477.9612, 8906.527
478.4433, 8813.988
478.9254, 8713.602
479.4075, 8604.841
479.8896, 8485.502
480.3717, 8346.830
480.8539, 8218.497
481.3360, 8118.981
481.8181, 8028.894
482.3002, 7924.088
482.7823, 7801.097
483.2644, 7675.204
483.7466, 7562.679
484.2287, 7464.990
484.7108, 7364.249
485.1929, 7266.336
485.6750, 7158.583
486.1571, 7027.326
486.6393, 6886.090
487.1214, 6751.147
487.6035, 6629.656
488.0856, 6525.075
488.5677, 6452.519
489.0498, 6425.989
489.5320, 6381.910
490.0141, 6292.374
490.4962, 6197.048
490.9783, 6116.119
491.4604, 6050.388
491.9425, 5991.159
492.4247, 5935.703
492.9068, 5882.902
493.3889, 5829.821
493.8710, 5776.956
494.3531, 5721.852
494.8352, 5659.841
495.3174, 5595.921
495.7995, 5541.420
496.2816, 5502.017
496.7637, 5463.001
497.2458, 5415.309
497.7279, 5363.844
498.2101, 5317.374
498.6922, 5278.162
499.1743, 5242.805
499.6564, 5207.435
500.1385, 5171.740
500.6206, 5137.628
501.1028, 5099.440
501.5849, 5067.877
502.0670, 5057.562
502.5491, 5056.247
503.0312, 5037.467
503.5133, 4986.169
503.9955, 4918.218
504.4776, 4874.558
504.9597, 4868.679
505.4418, 4853.888
505.9239, 4816.792
506.4060, 4774.631
506.8882, 4740.656
507.3703, 4713.793
507.8524, 4680.109
508.3345, 4620.959
508.8166, 4548.254
509.2987, 4496.486
509.7809, 4469.150
510.2630, 4450.410
510.7451, 4439.089
511.2272, 4428.131
511.7093, 4402.420
512.1914, 4355.360
512.6735, 4304.491
513.1556, 4251.945
513.6378, 4202.920
514.1199, 4172.041
514.6020, 4162.589
515.0841, 4153.074
515.5662, 4117.418
516.0483, 4049.065
516.5305, 3997.405
517.0126, 3971.604
517.4947, 3949.799
517.9768, 3924.160
518.4589, 3896.398
518.9410, 3871.820
519.4232, 3853.413
519.9053, 3834.921
520.3874, 3802.271
520.8695, 3749.527
521.3516, 3703.278
521.8337, 3675.069
522.3159, 3647.179
522.7980, 3607.033
523.2801, 3557.306
523.7622, 3512.344
524.2443, 3482.228
524.7264, 3460.683
525.2086, 3436.071
525.6907, 3408.215
526.1728, 3381.827
526.6549, 3359.252
527.1370, 3339.643
527.6191, 3321.815
528.1013, 3308.200
528.5834, 3290.063
529.0655, 3262.344
529.5476, 3230.162
530.0297, 3197.789
530.5118, 3166.498
530.9940, 3138.551
531.4761, 3116.105
531.9582, 3099.025
532.4403, 3083.143
532.9224, 3071.009
533.4045, 3057.127
533.8867, 3039.979
534.3688, 3021.043
534.8509, 2998.217
535.3330, 2971.988
535.8151, 2953.310
536.2972, 2965.059
536.7794, 3006.919
537.2615, 3013.550
537.7436, 2951.498
538.2257, 2901.713
538.7078, 2932.527
539.1899, 3009.231
539.6721, 3057.869
540.1542, 3041.792
540.6363, 3015.078
541.1184, 3025.067
541.6005, 3061.615
542.0826, 3089.189
542.5648, 3094.636
543.0469, 3098.100
543.5290, 3128.270
544.0111, 3195.196
544.4932, 3252.081
544.9753, 3283.726
545.4575, 3319.662
545.9396, 3378.333
546.4217, 3453.241
546.9038, 3529.370
547.3859, 3599.066
547.8680, 3664.293
548.3502, 3728.594
548.8323, 3788.257
549.3144, 3858.018
549.7965, 3946.982
550.2786, 4041.431
550.7607, 4137.590
551.2429, 4233.783
551.7250, 4326.267
552.2071, 4413.508
552.6892, 4496.016
553.1713, 4576.308
553.6534, 4654.688
554.1356, 4723.080
554.6177, 4775.072
555.0998, 4817.979
555.5819, 4869.151
556.0640, 4935.749
556.5461, 4987.364
557.0283, 5022.333
557.5104, 5036.830
557.9925, 5023.248
558.4746, 4984.513
558.9567, 4931.924
559.4388, 4873.118
559.9210, 4808.459
560.4031, 4740.935
560.8852, 4670.621
561.3673, 4597.203
561.8494, 4522.670
562.3315, 4444.589
562.8137, 4355.370
563.2958, 4257.051
563.7779, 4168.364
564.2600, 4110.791
564.7421, 4074.231
565.2242, 4026.165
565.7064, 3963.710
566.1885, 3903.659
566.6706, 3854.696
567.1527, 3814.856
567.6348, 3778.030
568.1169, 3742.802
568.5991, 3713.765
569.0812, 3699.585
569.5633, 3688.652
570.0454, 3664.594
570.5275, 3626.949
571.0096, 3589.876
571.4918, 3563.944
571.9739, 3549.198
572.4560, 3545.062
572.9381, 3566.502
573.4202, 3578.239
573.9023, 3559.080
574.3845, 3538.135
574.8666, 3549.089
575.3487, 3595.107
575.8308, 3640.352
576.3129, 3648.756
576.7950, 3629.251
577.2772, 3618.601
577.7593, 3618.250
578.2414, 3626.017
578.7235, 3650.499
579.2056, 3678.993
579.6877, 3680.583
580.1699, 3638.459
580.6520, 3602.859
581.1341, 3604.568
581.6162, 3617.820
582.0984, 3608.987
582.5805, 3574.057
583.0626, 3530.258
583.5447, 3491.223
584.0269, 3456.983
584.5090, 3428.866
584.9911, 3403.420
585.4732, 3389.964
585.9553, 3403.155
586.4374, 3420.262
586.9196, 3417.672
587.4017, 3392.343
587.8838, 3364.276
588.3659, 3351.080
588.8480, 3349.042
589.3301, 3347.452
589.8123, 3347.950
590.2944, 3338.087
590.7765, 3306.396
591.2586, 3261.061
591.7407, 3223.423
592.2228, 3197.417
592.7050, 3170.318
593.1871, 3133.213
593.6692, 3096.114
594.1513, 3073.090
594.6334, 3063.362
595.1155, 3053.010
595.5977, 3030.790
596.0798, 2998.691
596.5619, 2969.619
597.0440, 2941.663
597.5261, 2920.496
598.0082, 2912.087
598.4904, 2906.496
598.9725, 2898.184
599.4546, 2885.633
599.9367, 2865.608
600.4188, 2829.197
600.9009, 2785.725
601.3831, 2754.205
601.8652, 2735.221
602.3473, 2725.042
602.8294, 2725.075
603.3115, 2729.928
603.7936, 2727.213
604.2758, 2715.700
604.7579, 2701.433
605.2400, 2678.454
605.7221, 2658.333
606.2042, 2655.450
606.6863, 2664.586
607.1685, 2665.436
607.6506, 2643.353
608.1327, 2610.329
608.6148, 2603.056
609.0969, 2632.050
609.5790, 2653.697
610.0612, 2657.460
610.5433, 2654.500
611.0254, 2648.979
611.5075, 2642.361
611.9896, 2639.832
612.4717, 2647.401
612.9539, 2657.355
613.4360, 2661.505
613.9181, 2660.701
614.4002, 2657.874
614.8823, 2653.457
615.3644, 2650.479
615.8466, 2654.367
616.3287, 2668.880
616.8108, 2676.331
617.2929, 2667.916
617.7750, 2662.315
618.2571, 2675.617
618.7393, 2695.160
619.2214, 2698.153
619.7035, 2675.018
620.1856, 2640.634
620.6677, 2611.237
621.1498, 2586.923
621.6320, 2576.836
622.1141, 2589.467
622.5962, 2600.543
623.0783, 2585.657
623.5604, 2555.766
624.0425, 2541.399
624.5247, 2556.386
625.0068, 2572.939
625.4889, 2578.449
625.9710, 2577.947
626.4531, 2578.210
626.9352, 2580.714
627.4174, 2583.782
627.8995, 2585.255
628.3816, 2585.567
628.8637, 2592.497
629.3458, 2612.581
629.8279, 2628.878
630.3101, 2631.596
630.7922, 2633.467
631.2743, 2650.231
631.7564, 2682.558
632.2385, 2707.838
632.7206, 2703.747
633.2028, 2686.086
633.6849, 2682.474
634.1670, 2693.444
634.6491, 2707.864
635.1312, 2720.054
635.6133, 2732.913
636.0955, 2753.691
636.5776, 2792.481
637.0597, 2817.262
637.5418, 2817.131
638.0239, 2812.684
638.5060, 2813.787
638.9882, 2820.799
639.4703, 2830.823
639.9524, 2842.083
640.4345, 2857.746
640.9166, 2888.989
641.3987, 2937.005
641.8809, 2963.898
642.3630, 2953.181
642.8451, 2938.472
643.3272, 2948.788
643.8093, 2977.660
644.2914, 3004.690
644.7736, 3028.552
645.2557, 3048.529
645.7378, 3063.114
646.2199, 3074.264
646.7020, 3084.668
647.1841, 3094.956
647.6663, 3104.694
648.1484, 3113.353
648.6305, 3121.024
649.1126, 3128.523
649.5947, 3133.273
650.0768, 3142.568
650.5590, 3162.441
651.0411, 3184.675
651.5232, 3201.807
652.0053, 3213.136
652.4874, 3224.359
652.9695, 3237.941
653.4517, 3253.462
653.9338, 3276.355
654.4159, 3303.233
654.8980, 3310.384
655.3801, 3283.466
655.8622, 3244.795
656.3444, 3235.435
656.8265, 3266.819
657.3086, 3297.272
657.7907, 3335.078
658.2728, 3363.499
658.7549, 3374.644
659.2371, 3371.851
659.7192, 3358.191
660.2013, 3333.100
660.6834, 3311.278
661.1655, 3314.796
661.6476, 3337.112
662.1298, 3347.471
662.6119, 3341.709
663.0940, 3326.437
663.5761, 3303.395
664.0582, 3274.740
664.5403, 3251.342
665.0225, 3232.388
665.5046, 3219.084
665.9867, 3222.256
666.4688, 3223.538
666.9509, 3203.573
667.4330, 3165.333
667.9152, 3126.770
668.3973, 3099.401
668.8794, 3080.800
669.3615, 3068.965
669.8436, 3066.169
670.3257, 3049.488
670.8079, 3009.676
671.2900, 2960.343
671.7721, 2907.391
672.2542, 2853.410
672.7363, 2817.394
673.2184, 2824.478
673.7006, 2826.226
674.1827, 2790.938
674.6648, 2737.272
675.1469, 2693.685
675.6290, 2667.018
676.1111, 2646.885
676.5933, 2623.664
677.0754, 2597.285
677.5575, 2567.769
678.0396, 2534.287
678.5217, 2499.473
679.0038, 2459.161
679.4860, 2421.169
679.9681, 2395.898
680.4502, 2383.946
680.9323, 2369.112
681.4144, 2343.873
681.8965, 2314.229
682.3787, 2285.572
682.8608, 2257.415
683.3429, 2225.591
683.8250, 2188.148
684.3071, 2154.441
684.7892, 2141.955
685.2714, 2156.982
685.7535, 2154.651
686.2356, 2122.703
686.7177, 2089.159
687.1998, 2063.435
687.6819, 2042.127
688.1641, 2019.488
688.6462, 1993.630
689.1283, 1973.940
689.6104, 1972.190
690.0925, 1977.167
690.5746, 1972.261
691.0568, 1957.370
691.5389, 1940.033
692.0210, 1923.697
692.5031, 1909.266
692.9852, 1898.867
693.4673, 1894.817
693.9495, 1889.377
694.4316, 1881.990
694.9137, 1873.797
695.3958, 1866.639
695.8779, 1858.631
696.3600, 1845.051
696.8422, 1822.372
697.3243, 1802.078
697.8064, 1798.985
698.2885, 1804.036
698.7706, 1795.047
699.2527, 1770.167
699.7349, 1746.692
700.2170, 1735.793
700.6991, 1735.434
701.1812, 1739.107
701.6633, 1752.917
702.1454, 1760.055
702.6276, 1757.534
703.1097, 1751.342
703.5918, 1744.642
704.0739, 1737.030
704.5560, 1726.090
705.0381, 1709.466
705.5203, 1693.113
706.0024, 1682.732
706.4845, 1677.681
706.9666, 1677.701
707.4487, 1682.922
707.9308, 1686.761
708.4130, 1684.263
708.8951, 1676.152
709.3772, 1665.922
709.8593, 1644.071
710.3414, 1634.565
710.8235, 1647.636
711.3057, 1665.007
711.7878, 1677.000
712.2699, 1682.805
712.7520, 1683.788
713.2341, 1680.126
713.7162, 1672.864
714.1984, 1661.220
714.6805, 1646.845
715.1626, 1634.677
715.6447, 1625.656
716.1268, 1621.094
716.6089, 1623.327
717.0911, 1630.939
717.5732, 1633.463
718.0553, 1626.631
718.5374, 1620.536
719.0195, 1613.528
719.5016, 1609.469
719.9838, 1614.279
720.4659, 1624.934
720.9480, 1630.115
721.4301, 1619.943
721.9122, 1608.838
722.3943, 1619.340
722.8765, 1643.744
723.3586, 1652.867
723.8407, 1639.993
724.3228, 1623.891
724.8049, 1621.270
725.2870, 1630.085
725.7692, 1631.675
726.2513, 1620.639
726.7334, 1610.115
727.2155, 1598.879
727.6976, 1590.346
728.1797, 1587.870
728.6619, 1590.402
729.1440, 1594.150
729.6261, 1599.563
730.1082, 1602.121
730.5903, 1592.736
731.0724, 1576.724
731.5546, 1571.069
732.0367, 1579.195
732.5188, 1588.971
733.0009, 1589.804
733.4830, 1583.296
733.9651, 1580.972
734.4473, 1589.328
734.9294, 1590.589
735.4115, 1573.945
735.8936, 1557.903
736.3757, 1555.449
736.8578, 1564.269
737.3400, 1574.653
737.8221, 1586.186
738.3042, 1592.683
738.7863, 1582.233
739.2684, 1564.419
739.7505, 1560.762
740.2327, 1574.295
740.7148, 1592.767
741.1969, 1608.005
741.6790, 1618.286
742.1611, 1613.766
742.6432, 1582.937
743.1254, 1564.304
743.6075, 1577.656
744.0896, 1590.226
744.5717, 1575.331
745.0538, 1544.233
745.5359, 1531.549
746.0181, 1556.746
746.5002, 1584.665
746.9823, 1592.233
747.4644, 1589.836
747.9465, 1593.878
748.4286, 1604.800
748.9108, 1609.817
749.3929, 1599.235
749.8750, 1580.157
750.3571, 1573.756
750.8392, 1584.670
751.3214, 1585.886
751.8035, 1564.798
752.2856, 1547.013
752.7677, 1556.772
753.2498, 1581.473
753.7319, 1591.162
754.2141, 1571.388
754.6962, 1558.584
755.1783, 1576.490
755.6604, 1599.756
756.1425, 1601.214
756.6246, 1584.239
757.1068, 1568.371
757.5889, 1564.286
758.0710, 1565.059
758.5531, 1555.567
759.0352, 1536.171
759.5173, 1533.853
759.9995, 1556.474
760.4816, 1578.928
760.9637, 1588.513
761.4458, 1586.741
761.9279, 1575.943
762.4100, 1548.801
762.8922, 1531.478
763.3743, 1532.413
763.8564, 1539.031
764.3385, 1546.747
764.8206, 1553.536
765.3027, 1554.774
765.7849, 1548.587
766.2670, 1546.713
766.7491, 1570.676
767.2312, 1608.304
767.7133, 1618.269
768.1954, 1598.221
768.6776, 1575.161
769.1597, 1560.550
769.6418, 1552.536
770.1239, 1548.768
770.6060, 1551.521
771.0881, 1549.978
771.5703, 1534.750
772.0524, 1526.405
772.5345, 1537.546
773.0166, 1555.507
773.4987, 1565.151
773.9808, 1563.820
774.4630, 1560.114
774.9451, 1555.436
775.4272, 1553.816
775.9093, 1565.806
776.3914, 1585.662
776.8735, 1591.603
777.3557, 1576.844
777.8378, 1558.039
778.3199, 1555.638
778.8020, 1568.521
779.2841, 1570.637
779.7662, 1555.779
780.2484, 1543.800
780.7305, 1539.143
781.2126, 1539.900
781.6947, 1547.346
782.1768, 1560.032
782.6589, 1567.116
783.1411, 1562.523
783.6232, 1555.773
784.1053, 1551.366
784.5874, 1547.801
785.0695, 1541.646
785.5516, 1533.603
786.0338, 1529.588
786.5159, 1534.988
786.9980, 1544.581
787.4801, 1546.840
787.9622, 1541.777
788.4443, 1532.747
788.9265, 1518.285
789.4086, 1506.693
789.8907, 1504.864
790.3728, 1510.935
790.8549, 1516.477
791.3370, 1519.701
791.8192, 1525.095
792.3013, 1535.486
792.7834, 1545.640
793.2655, 1551.219
793.7476, 1554.175
794.2297, 1560.383
794.7119, 1573.117
795.1940, 1581.630
795.6761, 1572.565
796.1582, 1554.063
796.6403, 1540.264
797.1224, 1532.283
797.6046, 1529.174
798.0867, 1530.725
798.5688, 1535.147
799.0509, 1538.823
799.5330, 1540.724
800.0151, 1549.995
800.4973, 1576.097
800.9794, 1593.793
801.4615, 1589.323
801.9436, 1574.307
802.4257, 1555.873
802.9078, 1534.129
803.3900, 1525.652
803.8721, 1549.493
804.3542, 1572.600
804.8363, 1568.691
805.3184, 1553.821
805.8005, 1555.995
806.2827, 1578.416
806.7648, 1598.673
807.2469, 1597.109
807.7290, 1581.768
808.2111, 1571.309
808.6932, 1565.663
809.1754, 1562.155
809.6575, 1559.811
810.1396, 1561.869
810.6217, 1574.114
811.1038, 1593.286
811.5859, 1597.740
812.0681, 1567.313
812.5502, 1552.185
813.0323, 1567.486
813.5144, 1585.808
813.9965, 1590.277
814.4786, 1585.204
814.9608, 1583.075
815.4429, 1589.078
815.9250, 1593.381
816.4071, 1585.490
816.8892, 1574.282
817.3713, 1571.489
817.8535, 1576.773
818.3356, 1585.334
818.8177, 1595.038
819.2998, 1604.374
819.7819, 1612.325
820.2640, 1618.913
820.7462, 1615.343
821.2283, 1597.243
821.7104, 1585.025
822.1925, 1590.292
822.6746, 1600.942
823.1567, 1599.178
823.6389, 1583.275
824.1210, 1574.064
824.6031, 1577.176
825.0852, 1580.721
825.5673, 1582.195
826.0494, 1581.567
826.5316, 1577.878
827.0137, 1571.925
827.4958, 1566.629
827.9779, 1561.937
828.4600, 1561.314
828.9421, 1573.846
829.4243, 1592.537
829.9064, 1600.205
830.3885, 1594.612
830.8706, 1581.922
831.3527, 1564.969
831.8348, 1548.200
832.3170, 1543.018
832.7991, 1550.752
833.2812, 1565.124
833.7633, 1594.416
834.2454, 1614.439
834.7275, 1607.060
835.2097, 1584.553
835.6918, 1569.696
836.1739, 1563.470
836.6560, 1561.244
837.1381, 1565.221
837.6202, 1569.854
838.1024, 1574.447
838.5845, 1576.816
839.0666, 1572.999
839.5487, 1562.888
840.0308, 1552.584
840.5129, 1544.507
840.9951, 1540.550
841.4772, 1544.758
841.9593, 1555.609
842.4414, 1569.638
842.9235, 1585.722
843.4056, 1597.706
843.8878, 1599.801
844.3699, 1594.249
844.8520, 1590.137
845.3341, 1588.044
845.8162, 1585.359
846.2983, 1581.404
846.7805, 1577.407
847.2626, 1573.942
847.7447, 1571.020
848.2268, 1568.852
848.7089, 1568.317
849.1910, 1566.225
849.6732, 1557.905
850.1553, 1551.971
850.6374, 1557.819
851.1195, 1568.037
851.6016, 1569.260
852.0837, 1558.427
852.5659, 1547.100
853.0480, 1546.749
853.5301, 1549.966
854.0122, 1542.116
854.4943, 1527.510
854.9764, 1523.540
855.4586, 1534.582
855.9407, 1547.434
856.4228, 1549.264
856.9049, 1543.120
857.3870, 1543.179
857.8691, 1550.811
858.3513, 1558.944
858.8334, 1567.578
859.3155, 1574.808
859.7976, 1580.465
860.2797, 1583.540
860.7618, 1580.692
861.2440, 1567.991
861.7261, 1558.061
862.2082, 1552.513
862.6903, 1549.677
863.1724, 1553.067
863.6545, 1556.743
864.1367, 1548.057
864.6188, 1524.658
865.1009, 1509.329
865.5830, 1523.989
866.0651, 1549.092
866.5472, 1564.942
867.0294, 1572.312
867.5115, 1571.914
867.9936, 1565.069
868.4757, 1560.835
868.9578, 1568.287
869.4399, 1582.190
869.9221, 1584.727
870.4042, 1574.953
870.8863, 1570.592
871.3684, 1575.935
871.8505, 1581.353
872.3326, 1579.681
872.8148, 1573.914
873.2969, 1573.164
873.7790, 1583.242
874.2611, 1585.385
874.7432, 1569.522
875.2253, 1557.844
875.7075, 1560.108
876.1896, 1570.510
876.6717, 1582.419
877.1538, 1594.771
877.6359, 1607.239
878.1180, 1624.220
878.6002, 1636.467
879.0823, 1638.507
879.5644, 1631.291
880.0465, 1607.996
880.5286, 1574.268
881.0107, 1558.502
881.4929, 1584.012
881.9750, 1624.947
882.4571, 1637.027
882.9392, 1626.894
883.4213, 1623.147
883.9034, 1629.127
884.3856, 1642.054
884.8677, 1661.174
885.3498, 1683.712
885.8319, 1705.418
886.3140, 1727.754
886.7961, 1738.615
887.2783, 1730.484
887.7604, 1726.011
888.2425, 1733.104
888.7246, 1747.019
889.2067, 1763.910
889.6888, 1783.506
890.1710, 1802.036
890.6531, 1818.235
891.1352, 1834.480
891.6173, 1853.216
892.0994, 1870.818
892.5815, 1882.916
893.0637, 1891.370
893.5458, 1901.630
894.0279, 1915.910
894.5100, 1931.958
894.9921, 1949.439
895.4742, 1966.936
895.9564, 1980.789
896.4385, 1992.925
896.9206, 2010.143
897.4027, 2034.576
897.8848, 2059.530
898.3669, 2076.210
898.8491, 2088.087
899.3312, 2112.567
899.8133, 2149.429
900.2954, 2170.186
900.7775, 2165.346
901.2596, 2158.699
901.7418, 2169.357
902.2239, 2194.590
902.7060, 2224.672
903.1881, 2270.322
903.6702, 2293.656
904.1523, 2275.920
904.6345, 2258.274
905.1166, 2262.450
905.5987, 2277.783
906.0808, 2289.941
906.5629, 2298.361
907.0450, 2303.608
907.5272, 2299.555
908.0093, 2299.735
908.4914, 2316.864
908.9735, 2336.916
909.4556, 2342.764
909.9377, 2335.053
910.4199, 2328.208
910.9020, 2330.128
911.3841, 2333.809
911.8662, 2335.905
912.3483, 2334.202
912.8304, 2321.460
913.3126, 2300.854
913.7947, 2286.371
914.2768, 2284.494
914.7589, 2287.884
915.2410, 2288.817
915.7231, 2286.791
916.2053, 2276.928
916.6874, 2259.369
917.1695, 2247.702
917.6516, 2246.979
918.1337, 2247.210
918.6158, 2238.124
919.0980, 2221.579
919.5801, 2209.208
920.0622, 2201.869
920.5443, 2196.069
921.0264, 2190.748
921.5085, 2188.069
921.9907, 2193.360
922.4728, 2200.699
922.9549, 2196.592
923.4370, 2176.622
923.9191, 2162.637
924.4012, 2162.221
924.8834, 2161.377
925.3655, 2153.324
925.8476, 2143.104
926.3297, 2133.271
926.8118, 2125.979
927.2939, 2129.478
927.7761, 2158.501
928.2582, 2181.078
928.7403, 2168.071
929.2224, 2143.168
929.7045, 2135.421
930.1866, 2141.647
930.6688, 2140.868
931.1509, 2124.285
931.6330, 2111.487
932.1151, 2131.201
932.5972, 2166.708
933.0793, 2180.850
933.5615, 2176.473
934.0436, 2169.118
934.5257, 2163.195
935.0078, 2159.614
935.4899, 2159.478
935.9720, 2161.705
936.4542, 2161.941
936.9363, 2159.679
937.4184, 2164.241
937.9005, 2179.801
938.3826, 2188.257
938.8647, 2175.825
939.3469, 2156.600
939.8290, 2157.822
940.3111, 2185.295
940.7932, 2197.075
941.2753, 2177.781
941.7574, 2166.715
942.2396, 2178.274
942.7217, 2197.307
943.2038, 2216.004
943.6859, 2232.723
944.1680, 2241.038
944.6501, 2237.027
945.1323, 2230.181
945.6144, 2211.431
946.0965, 2201.440
946.5786, 2223.559
947.0607, 2259.335
947.5428, 2277.411
948.0250, 2271.368
948.5071, 2262.167
948.9892, 2256.745
949.4713, 2257.028
949.9534, 2269.726
950.4355, 2286.431
950.9177, 2292.942
951.3998, 2289.967
951.8819, 2290.831
952.3640, 2303.942
952.8461, 2317.717
953.3282, 2315.115
953.8104, 2303.187
954.2925, 2299.229
954.7746, 2302.356
955.2567, 2301.977
955.7388, 2294.339
956.2209, 2285.101
956.7031, 2280.633
957.1852, 2279.083
957.6673, 2272.341
958.1494, 2260.334
958.6315, 2250.922
959.1136, 2245.267
959.5958, 2243.433
960.0779, 2246.465
960.5600, 2251.383
961.0421, 2251.080
961.5242, 2243.791
962.0063, 2241.321
962.4885, 2244.966
962.9706, 2251.039
963.4527, 2262.650
963.9348, 2271.338
964.4169, 2266.336
964.8990, 2249.254
965.3812, 2237.725
965.8633, 2223.972
966.3454, 2227.208
966.8275, 2264.422
967.3096, 2301.650
967.7917, 2320.817
968.2739, 2329.157
968.7560, 2336.093
969.2381, 2342.222
969.7202, 2358.600
970.2023, 2400.326
970.6844, 2438.651
971.1666, 2458.990
971.6487, 2470.064
972.1308, 2479.027
972.6129, 2487.403
973.0950, 2494.432
973.5771, 2497.990
974.0593, 2508.191
974.5414, 2541.572
975.0235, 2577.641
975.5056, 2586.060
975.9877, 2581.694
976.4698, 2599.553
976.9520, 2646.085
977.4341, 2697.450
977.9162, 2736.295
978.3983, 2769.358
978.8804, 2802.635
979.3625, 2838.654
979.8447, 2885.226
980.3268, 2941.810
980.8089, 3000.481
981.2910, 3057.821
981.7731, 3112.575
982.2552, 3162.650
982.7374, 3209.191
983.2195, 3254.143
983.7016, 3298.182
984.1837, 3355.952
984.6658, 3431.759
985.1479, 3511.502
985.6301, 3585.772
986.1122, 3653.709
986.5943, 3711.247
987.0764, 3756.945
987.5585, 3805.252
988.0406, 3853.687
988.5228, 3918.558
989.0049, 4017.036
989.4870, 4111.437
989.9691, 4152.311
990.4512, 4146.386
990.9333, 4181.456
991.4155, 4283.782
991.8976, 4367.579
992.3797, 4419.513
992.8618, 4458.669
993.3439, 4489.550
993.8260, 4517.147
994.3082, 4552.361
994.7903, 4598.849
995.2724, 4632.625
995.7545, 4653.584
996.2366, 4661.562
996.7188, 4651.420
997.2009, 4632.601
997.6830, 4612.146
998.1651, 4589.025
998.6472, 4557.176
999.1293, 4508.756
999.6115, 4472.591
1000.094, 4474.419
1000.576, 4469.128
1001.058, 4425.620
1001.540, 4366.245
1002.022, 4317.406
1002.504, 4281.393
1002.986, 4246.581
1003.468, 4208.036
1003.951, 4170.465
1004.433, 4136.309
1004.915, 4104.519
1005.397, 4079.362
1005.879, 4054.071
1006.361, 4011.962
1006.843, 3950.685
1007.325, 3896.676
1007.807, 3875.497
1008.290, 3861.511
1008.772, 3831.200
1009.254, 3792.220
1009.736, 3753.327
1010.218, 3716.919
1010.700, 3685.864
1011.182, 3661.499
1011.664, 3637.879
1012.146, 3607.309
1012.629, 3574.674
1013.111, 3549.481
1013.593, 3528.928
1014.075, 3506.023
1014.557, 3478.825
1015.039, 3445.031
1015.521, 3402.347
1016.003, 3357.451
1016.486, 3321.128
1016.968, 3291.294
1017.450, 3261.183
1017.932, 3230.983
1018.414, 3202.252
1018.896, 3175.635
1019.378, 3154.736
1019.860, 3144.601
1020.342, 3138.148
1020.825, 3114.550
1021.307, 3075.726
1021.789, 3042.956
1022.271, 3018.043
1022.753, 2996.067
1023.235, 2974.779
1023.717, 2956.012
1024.199, 2943.052
1024.682, 2934.079
1025.164, 2913.357
1025.646, 2878.394
1026.128, 2868.796
1026.610, 2896.212
1027.092, 2914.982
1027.574, 2896.380
1028.056, 2861.417
1028.538, 2846.229
1029.021, 2851.341
1029.503, 2856.730
1029.985, 2864.610
1030.467, 2863.301
1030.949, 2848.022
1031.431, 2828.121
1031.913, 2807.128
1032.395, 2789.574
1032.877, 2789.213
1033.360, 2811.674
1033.842, 2825.412
1034.324, 2827.140
1034.806, 2827.902
1035.288, 2833.357
1035.770, 2834.790
1036.252, 2820.256
1036.734, 2795.638
1037.217, 2787.389
1037.699, 2807.144
1038.181, 2817.158
1038.663, 2806.550
1039.145, 2802.943
1039.627, 2823.708
1040.109, 2849.447
1040.591, 2859.150
1041.073, 2854.124
1041.556, 2849.449
1042.038, 2838.969
1042.520, 2838.468
1043.002, 2860.214
1043.484, 2878.301
1043.966, 2881.735
1044.448, 2875.527
1044.930, 2863.238
1045.412, 2845.046
1045.895, 2832.818
1046.377, 2818.415
1046.859, 2823.048
1047.341, 2877.097
1047.823, 2922.381
1048.305, 2916.028
1048.787, 2883.538
1049.269, 2865.542
1049.752, 2866.152
1050.234, 2869.801
1050.716, 2875.100
1051.198, 2881.762
1051.680, 2895.311
1052.162, 2904.881
1052.644, 2901.666
1053.126, 2889.129
1053.609, 2873.200
1054.091, 2853.431
1054.573, 2840.210
1055.055, 2845.385
1055.537, 2845.476
1056.019, 2827.415
1056.501, 2804.319
1056.983, 2786.364
1057.465, 2773.044
1057.948, 2761.479
1058.430, 2752.082
1058.912, 2739.190
1059.394, 2715.339
1059.876, 2694.640
1060.358, 2688.818
1060.840, 2685.344
1061.322, 2668.717
1061.804, 2643.163
1062.287, 2627.354
1062.769, 2630.953
1063.251, 2625.210
1063.733, 2591.059
1064.215, 2554.433
1064.697, 2527.208
1065.179, 2507.523
1065.661, 2494.352
1066.144, 2485.926
1066.626, 2477.438
1067.108, 2468.144
1067.590, 2456.625
1068.072, 2437.803
1068.554, 2421.375
1069.036, 2418.280
1069.518, 2418.277
1070.000, 2410.912
1070.483, 2393.893
1070.965, 2364.132
1071.447, 2310.495
1071.929, 2268.863
1072.411, 2263.352
1072.893, 2266.916
1073.375, 2262.747
1073.857, 2254.279
1074.339, 2250.932
1074.822, 2250.994
1075.304, 2237.983
1075.786, 2195.538
1076.268, 2160.898
1076.750, 2156.356
1077.232, 2161.289
1077.714, 2165.193
1078.197, 2165.866
1078.679, 2160.950
1079.161, 2150.917
1079.643, 2140.475
1080.125, 2131.719
1080.607, 2122.254
1081.089, 2107.829
1081.571, 2095.316
1082.053, 2093.563
1082.536, 2095.343
1083.018, 2085.704
1083.500, 2065.354
1083.982, 2057.128
1084.464, 2082.757
1084.946, 2100.096
1085.428, 2082.146
1085.910, 2056.061
1086.392, 2039.475
1086.875, 2030.483
1087.357, 2026.099
1087.839, 2024.624
1088.321, 2018.404
1088.803, 1998.988
1089.285, 1983.045
1089.767, 1978.414
1090.249, 1978.884
1090.732, 1984.350
1091.214, 1989.447
1091.696, 1984.891
1092.178, 1970.597
1092.660, 1959.448
1093.142, 1961.296
1093.624, 1959.021
1094.106, 1939.050
1094.589, 1919.994
1095.071, 1916.341
1095.553, 1921.739
1096.035, 1930.910
1096.517, 1940.833
1096.999, 1933.017
1097.481, 1881.241
1097.963, 1841.026
1098.445, 1840.849
1098.927, 1846.244
1099.410, 1830.622
1099.892, 1808.305
1100.374, 1805.195
1100.856, 1821.744
1101.338, 1828.498
1101.820, 1807.816
1102.302, 1791.421
1102.784, 1790.279
1103.267, 1791.901
1103.749, 1793.057
1104.231, 1790.110
1104.713, 1774.941
1105.195, 1748.652
1105.677, 1732.109
1106.159, 1732.229
1106.641, 1737.273
1107.124, 1754.236
1107.606, 1765.490
1108.088, 1754.852
1108.570, 1737.870
1109.052, 1737.253
1109.534, 1752.098
1110.016, 1756.535
1110.498, 1735.512
1110.980, 1723.750
1111.463, 1736.366
1111.945, 1744.334
1112.427, 1727.882
1112.909, 1705.315
1113.391, 1700.760
1113.873, 1712.163
1114.355, 1712.667
1114.837, 1691.788
1115.319, 1677.540
1115.802, 1674.136
1116.284, 1671.821
1116.766, 1666.288
1117.248, 1661.037
1117.730, 1660.227
1118.212, 1663.084
1118.694, 1664.829
1119.176, 1668.161
1119.659, 1663.106
1120.141, 1639.272
1120.623, 1627.759
1121.105, 1645.793
1121.587, 1670.342
1122.069, 1679.554
1122.551, 1676.767
1123.033, 1676.268
1123.516, 1680.831
1123.998, 1676.784
1124.480, 1659.292
1124.962, 1646.859
1125.444, 1643.603
1125.926, 1624.170
1126.408, 1653.687
1126.890, 1670.202
1127.372, 1674.412
1127.854, 1629.467
1128.337, 1647.995
1128.819, 1641.087
1129.301, 1633.135
1129.783, 1660.598
1130.265, 1622.802
1130.747, 1649.704
1131.229, 1650.779
1131.711, 1663.675
1132.194, 1650.975
1132.676, 1646.181
1133.158, 1666.990
1133.640, 1673.622
1134.122, 1657.976
1134.604, 1671.623
1135.086, 1664.771
1135.568, 1681.370
1136.051, 1686.405
1136.533, 1682.045
1137.015, 1679.013
1137.497, 1676.065
1137.979, 1660.543
1138.461, 1633.112
1138.943, 1622.171
1139.425, 1642.836
1139.907, 1666.054
1140.390, 1650.101
1140.872, 1616.566
1141.354, 1614.887
1141.836, 1634.117
1142.318, 1645.330
1142.800, 1646.416
1143.282, 1646.694
1143.764, 1649.950
1144.246, 1654.854
1144.729, 1664.311
1145.211, 1669.542
1145.693, 1652.086
1146.175, 1626.916
1146.657, 1619.635
1147.139, 1626.305
1147.621, 1631.271
1148.103, 1630.091
1148.586, 1627.513
1149.068, 1627.735
1149.550, 1625.453
1150.032, 1610.164
1150.514, 1595.903
1150.996, 1601.002
1151.478, 1615.618
1151.960, 1621.079
1152.443, 1615.617
1152.925, 1611.528
1153.407, 1617.008
1153.889, 1616.783
1154.371, 1595.208
1154.853, 1575.496
1155.335, 1571.328
1155.817, 1578.288
1156.299, 1597.296
1156.781, 1622.314
1157.264, 1631.311
1157.746, 1614.135
1158.228, 1598.432
1158.710, 1587.097
1159.192, 1581.089
1159.674, 1586.600
1160.156, 1592.341
1160.638, 1588.624
1161.121, 1577.835
1161.603, 1566.256
1162.085, 1552.311
1162.567, 1545.292
1163.049, 1549.900
1163.531, 1552.476
1164.013, 1548.684
1164.495, 1545.900
1164.978, 1549.990
1165.460, 1555.847
1165.942, 1553.872
1166.424, 1544.258
1166.906, 1543.019
1167.388, 1553.043
1167.870, 1556.133
1168.352, 1548.632
1168.834, 1541.305
1169.317, 1538.906
1169.799, 1538.826
1170.281, 1537.634
1170.763, 1536.795
1171.245, 1543.320
1171.727, 1556.307
1172.209, 1560.465
1172.691, 1556.306
1173.173, 1575.654
1173.656, 1627.151
1174.138, 1663.604
1174.620, 1644.183
1175.102, 1601.790
1175.584, 1589.132
1176.066, 1597.418
1176.548, 1608.472
1177.030, 1620.902
1177.513, 1635.140
1177.995, 1649.873
1178.477, 1658.337
1178.959, 1656.442
1179.441, 1654.530
1179.923, 1663.736
1180.405, 1676.508
1180.887, 1682.806
1181.370, 1688.556
1181.852, 1704.473
1182.334, 1727.413
1182.816, 1747.873
1183.298, 1763.017
1183.780, 1769.449
1184.262, 1760.728
1184.744, 1749.040
1185.226, 1732.562
1185.708, 1723.170
1186.191, 1738.698
1186.673, 1762.754
1187.155, 1769.208
1187.637, 1756.426
1188.119, 1742.092
1188.601, 1725.583
1189.083, 1712.957
1189.565, 1712.970
1190.048, 1706.291
1190.530, 1682.027
1191.012, 1652.352
1191.494, 1629.091
1191.976, 1609.295
1192.458, 1581.645
1192.940, 1541.639
1193.422, 1516.004
1193.905, 1509.787
1194.387, 1499.469
1194.869, 1477.611
1195.351, 1460.606
1195.833, 1460.673
1196.315, 1465.656
1196.797, 1454.758
1197.279, 1430.590
1197.761, 1409.969
1198.244, 1392.315
1198.726, 1367.782
1199.208, 1336.931
1199.690, 1300.063
1200.172, 1327.861
1200.654, 1342.655
1201.136, 1345.146
1201.618, 1298.480
1202.100, 1315.290
1202.583, 1306.657
1203.065, 1296.986
1203.547, 1322.729
1204.029, 1283.213
1204.511, 1308.395
1204.993, 1307.750
1205.475, 1318.926
1205.957, 1304.506
1206.440, 1297.989
1206.922, 1317.078
1207.404, 1321.990
1207.886, 1304.625
1208.368, 1316.551
1208.850, 1276.141
1209.332, 1281.658
1209.814, 1306.989
1210.297, 1290.906
1210.779, 1303.301
1211.261, 1304.851
1211.743, 1257.119
1212.225, 1295.094
1212.707, 1296.004
1213.189, 1258.855
1213.671, 1293.893
1214.153, 1261.991
1214.635, 1253.983
1215.118, 1263.952
1215.600, 1255.180
1216.082, 1275.962
1216.564, 1268.273
1217.046, 1258.039
1217.528, 1258.907
1218.010, 1228.317
1218.492, 1256.088
1218.975, 1243.990
1219.457, 1251.711
1219.939, 1263.924
1220.421, 1241.746
1220.903, 1255.977
1221.385, 1213.745
1221.867, 1218.758
1222.349, 1218.683
1222.832, 1236.863
1223.314, 1238.091
1223.796, 1238.579
1224.278, 1239.695
1224.760, 1239.992
1225.242, 1237.636
1225.724, 1232.685
1226.206, 1223.738
1226.688, 1212.235
1227.171, 1204.781
1227.653, 1203.586
1228.135, 1208.228
1228.617, 1221.917
1229.099, 1237.178
1229.581, 1259.519
1230.063, 1273.265
1230.545, 1253.384
1231.027, 1217.728
1231.510, 1210.640
1231.992, 1239.205
1232.474, 1252.401
1232.956, 1241.531
1233.438, 1233.885
1233.920, 1233.669
1234.402, 1232.593
1234.884, 1226.439
1235.367, 1220.004
1235.849, 1218.089
1236.331, 1220.067
1236.813, 1224.914
1237.295, 1232.368
1237.777, 1238.911
1238.259, 1243.724
1238.741, 1234.564
1239.224, 1210.658
1239.706, 1192.191
1240.188, 1190.029
1240.670, 1197.049
1241.152, 1210.043
1241.634, 1222.717
1242.116, 1223.232
1242.598, 1218.762
1243.080, 1223.210
1243.563, 1231.395
1244.045, 1226.764
1244.527, 1208.329
1245.009, 1195.858
1245.491, 1199.395
1245.973, 1205.759
1246.455, 1211.208
1246.937, 1215.971
1247.419, 1225.492
1247.902, 1229.717
1248.384, 1212.639
1248.866, 1184.260
1249.348, 1171.470
1249.830, 1175.651
1250.312, 1184.294
1250.794, 1200.356
1251.276, 1213.112
1251.759, 1222.635
1252.241, 1223.464
1252.723, 1212.142
1253.205, 1195.658
1253.687, 1180.111
1254.169, 1166.788
1254.651, 1157.835
1255.133, 1153.830
1255.615, 1160.595
1256.098, 1175.215
1256.580, 1184.439
1257.062, 1186.482
1257.544, 1186.798
1258.026, 1187.912
1258.508, 1191.463
1258.990, 1201.405
1259.472, 1211.551
1259.954, 1218.859
1260.437, 1221.226
1260.919, 1214.323
1261.401, 1201.973
1261.883, 1188.473
1262.365, 1175.655
1262.847, 1168.542
1263.329, 1169.450
1263.811, 1173.092
1264.294, 1185.609
1264.776, 1190.260
1265.258, 1173.248
1265.740, 1162.827
1266.222, 1182.024
1266.704, 1211.705
1267.186, 1220.738
1267.668, 1211.098
1268.151, 1197.141
1268.633, 1178.823
1269.115, 1171.489
1269.597, 1175.952
1270.079, 1183.718
1270.561, 1191.900
1271.043, 1199.106
1271.525, 1205.001
1272.007, 1205.004
1272.490, 1186.415
1272.972, 1164.433
1273.454, 1162.540
1273.936, 1170.230
1274.418, 1169.690
1274.900, 1164.320
1275.382, 1168.968
1275.864, 1186.074
1276.346, 1199.371
1276.829, 1204.034
1277.311, 1202.959
1277.793, 1190.758
1278.275, 1180.750
1278.757, 1181.434
1279.239, 1183.817
1279.721, 1179.062
1280.203, 1172.430
1280.686, 1177.929
1281.168, 1195.957
1281.650, 1193.815
1282.132, 1168.866
1282.614, 1161.483
1283.096, 1176.470
1283.578, 1185.072
1284.060, 1176.723
1284.542, 1164.163
##END=



