##NAMES=Natrojarosite
##RRUFFID=R080062
##IDEAL CHEMISTRY=NaFe^3+^_3_(S^6+^O_4_)_2_(OH)_6_
##LOCALITY=Lavra  do Tomé, Galiléja, Minas Gerais, Brazil
##OWNER=RRUFF
##SOURCE=Luiz Menezes
##DESCRIPTION=Golden brown rhombohedral crystals associated with colorless to pale purple phosphosiderite 
##STATUS=The identification of this mineral has been confirmed only by single crystal X-ray diffraction.
##URL=rruff.info/R080062
92.35352, 16.49330
92.83563, 15.11318
93.31775, 14.52554
93.79987, 15.07813
94.28198, 16.46948
94.76410, 17.84121
95.24622, 19.00144
95.72833, 20.07309
96.21045, 21.25612
96.69257, 22.55458
97.17468, 23.98105
97.65680, 25.46213
98.13892, 27.00790
98.62103, 28.91753
99.10315, 31.34760
99.58527, 34.21806
100.0674, 36.71071
100.5495, 38.55798
101.0316, 40.57027
101.5137, 43.82500
101.9958, 48.65858
102.4780, 53.62310
102.9601, 58.21399
103.4422, 62.34023
103.9243, 66.67219
104.4064, 71.26784
104.8885, 76.05495
105.3707, 81.07415
105.8528, 86.60765
106.3349, 91.91587
106.8170, 96.67134
107.2991, 100.6649
107.7813, 104.4993
108.2634, 108.1515
108.7455, 111.6593
109.2276, 115.0174
109.7097, 117.7193
110.1918, 120.6735
110.6740, 124.2620
111.1561, 128.0261
111.6382, 132.9510
112.1203, 139.1361
112.6024, 146.5925
113.0845, 155.0616
113.5667, 165.1992
114.0488, 175.9126
114.5309, 186.5844
115.0130, 196.4130
115.4951, 206.7103
115.9772, 217.6774
116.4594, 229.4296
116.9415, 242.3424
117.4236, 257.1835
117.9057, 273.0681
118.3878, 288.9799
118.8699, 305.2297
119.3521, 321.0879
119.8342, 336.3687
120.3163, 351.0577
120.7984, 365.1471
121.2805, 378.6614
121.7626, 391.5708
122.2448, 403.8243
122.7269, 415.6748
123.2090, 426.7238
123.6911, 436.3868
124.1732, 444.4065
124.6553, 451.8598
125.1375, 458.8084
125.6196, 465.7614
126.1017, 474.3298
126.5838, 486.0060
127.0659, 499.8744
127.5480, 514.3650
128.0302, 529.3626
128.5123, 544.8779
128.9944, 560.1959
129.4765, 575.5388
129.9586, 592.9798
130.4407, 614.0918
130.9229, 638.5788
131.4050, 665.3040
131.8871, 693.0531
132.3692, 723.0917
132.8513, 757.4098
133.3334, 794.6832
133.8156, 833.0726
134.2977, 873.1978
134.7798, 917.8322
135.2619, 967.5602
135.7440, 1025.481
136.2261, 1088.017
136.7083, 1146.382
137.1904, 1204.155
137.6725, 1248.616
138.1546, 1269.933
138.6367, 1269.656
139.1188, 1240.815
139.6010, 1175.760
140.0831, 1074.850
140.5652, 976.4307
141.0473, 876.8555
141.5294, 782.7200
142.0115, 703.8555
142.4937, 640.8968
142.9758, 589.0894
143.4579, 547.2620
143.9400, 516.6320
144.4221, 490.5848
144.9042, 469.7614
145.3864, 452.9274
145.8685, 438.6107
146.3506, 427.5160
146.8327, 417.7181
147.3148, 408.5377
147.7969, 400.1058
148.2791, 392.0789
148.7612, 384.0257
149.2433, 376.4278
149.7254, 370.3068
150.2075, 366.8038
150.6896, 363.8173
151.1718, 360.6304
151.6539, 357.0587
152.1360, 353.5648
152.6181, 349.7950
153.1002, 346.0482
153.5823, 343.2393
154.0645, 342.1684
154.5466, 341.4664
155.0287, 340.5082
155.5108, 339.3333
155.9929, 337.7436
156.4750, 335.3724
156.9572, 332.4493
157.4393, 329.9766
157.9214, 328.4525
158.4035, 327.2382
158.8856, 325.9302
159.3677, 324.1220
159.8499, 322.5237
160.3320, 321.4113
160.8141, 320.7269
161.2962, 320.1254
161.7783, 319.6478
162.2604, 319.1374
162.7426, 318.4651
163.2247, 317.3482
163.7068, 316.2780
164.1889, 315.4957
164.6710, 314.9931
165.1531, 314.5364
165.6353, 313.8274
166.1174, 313.1630
166.5995, 312.8631
167.0816, 313.1876
167.5637, 313.7969
168.0458, 314.5845
168.5280, 315.5353
169.0101, 316.3849
169.4922, 317.0912
169.9743, 317.5597
170.4564, 317.6510
170.9385, 317.0294
171.4207, 316.1738
171.9028, 315.4267
172.3849, 314.7998
172.8670, 314.3978
173.3491, 314.2675
173.8312, 314.4155
174.3134, 314.8572
174.7955, 315.8779
175.2776, 317.0704
175.7597, 317.8583
176.2418, 318.1681
176.7239, 318.5207
177.2061, 319.3930
177.6882, 320.7077
178.1703, 322.2303
178.6524, 324.0682
179.1345, 326.0059
179.6166, 327.6610
180.0988, 329.0197
180.5809, 330.1464
181.0630, 330.7101
181.5451, 330.9650
182.0272, 331.9066
182.5093, 334.3810
182.9915, 337.9196
183.4736, 341.3511
183.9557, 344.6057
184.4378, 347.8163
184.9199, 351.3350
185.4020, 355.0473
185.8842, 358.6167
186.3663, 361.7695
186.8484, 364.6007
187.3305, 367.2910
187.8126, 369.8404
188.2947, 372.3705
188.7769, 375.1160
189.2590, 378.0695
189.7411, 381.0345
190.2232, 383.8609
190.7053, 386.5891
191.1874, 389.5218
191.6696, 392.7032
192.1517, 396.1280
192.6338, 399.8081
193.1159, 403.7442
193.5980, 407.9287
194.0801, 412.3384
194.5623, 416.9568
195.0444, 421.8872
195.5265, 427.0941
196.0086, 432.6188
196.4907, 438.1728
196.9728, 443.5821
197.4550, 450.4263
197.9371, 459.9132
198.4192, 472.0687
198.9013, 484.9341
199.3834, 498.3062
199.8655, 512.2575
200.3477, 527.0674
200.8298, 542.6108
201.3119, 559.5113
201.7940, 578.2648
202.2761, 598.8857
202.7582, 621.0845
203.2404, 644.6185
203.7225, 669.8718
204.2046, 698.2510
204.6867, 730.2633
205.1688, 763.8167
205.6509, 796.7916
206.1331, 828.7899
206.6152, 864.1635
207.0973, 904.2784
207.5794, 947.4991
208.0615, 988.5254
208.5436, 1026.514
209.0258, 1064.722
209.5079, 1104.960
209.9900, 1147.402
210.4721, 1190.079
210.9542, 1232.345
211.4363, 1274.884
211.9185, 1320.139
212.4006, 1368.596
212.8827, 1419.122
213.3648, 1469.693
213.8469, 1520.160
214.3290, 1573.050
214.8112, 1628.620
215.2933, 1686.521
215.7754, 1747.310
216.2575, 1810.500
216.7396, 1877.737
217.2217, 1949.822
217.7038, 2027.261
218.1860, 2107.199
218.6681, 2188.559
219.1502, 2271.905
219.6323, 2358.847
220.1144, 2450.006
220.5965, 2542.441
221.0787, 2635.056
221.5608, 2731.255
222.0429, 2818.107
222.5250, 2894.620
223.0071, 2961.186
223.4892, 3017.882
223.9714, 3071.466
224.4535, 3105.598
224.9356, 3112.008
225.4177, 3088.953
225.8998, 3041.573
226.3819, 2967.734
226.8641, 2869.811
227.3462, 2757.332
227.8283, 2626.425
228.3104, 2487.141
228.7925, 2344.858
229.2746, 2192.675
229.7568, 2048.727
230.2389, 1912.902
230.7210, 1786.220
231.2031, 1665.603
231.6852, 1557.628
232.1673, 1457.283
232.6495, 1363.594
233.1316, 1275.211
233.6137, 1196.951
234.0958, 1132.529
234.5779, 1078.449
235.0600, 1025.921
235.5422, 972.9760
236.0243, 923.5909
236.5064, 879.5333
236.9885, 842.0305
237.4706, 807.2011
237.9527, 775.6063
238.4349, 746.9418
238.9170, 720.9869
239.3991, 698.5713
239.8812, 677.6174
240.3633, 657.1921
240.8454, 636.8500
241.3276, 618.1970
241.8097, 601.7127
242.2918, 586.9857
242.7739, 573.3447
243.2560, 560.9749
243.7381, 549.4081
244.2203, 538.5168
244.7024, 528.4127
245.1845, 518.6384
245.6666, 508.9237
246.1487, 499.6908
246.6308, 491.6089
247.1130, 485.0538
247.5951, 479.0176
248.0772, 473.3615
248.5593, 468.3334
249.0414, 462.5986
249.5235, 455.6860
250.0057, 448.3683
250.4878, 441.7713
250.9699, 435.9839
251.4520, 430.7392
251.9341, 426.0859
252.4162, 422.1165
252.8984, 418.1716
253.3805, 414.3228
253.8626, 410.4081
254.3447, 406.1849
254.8268, 401.1128
255.3089, 396.7296
255.7911, 393.7794
256.2732, 392.5179
256.7553, 390.3011
257.2374, 386.5327
257.7195, 382.3869
258.2017, 379.3051
258.6838, 377.5249
259.1659, 376.2265
259.6480, 375.3267
260.1301, 374.8575
260.6122, 374.0657
261.0944, 372.6012
261.5765, 371.2476
262.0586, 370.9821
262.5407, 372.3158
263.0228, 373.2841
263.5049, 373.1696
263.9871, 372.0603
264.4692, 372.2853
264.9513, 374.2994
265.4334, 376.9232
265.9155, 379.0440
266.3976, 380.3365
266.8798, 382.0764
267.3619, 384.4117
267.8440, 387.3694
268.3261, 391.1190
268.8082, 395.9144
269.2903, 400.9456
269.7725, 405.3680
270.2546, 408.8260
270.7367, 413.0728
271.2188, 418.4797
271.7009, 424.7813
272.1830, 431.0083
272.6652, 437.0527
273.1473, 443.1890
273.6294, 449.5828
274.1115, 456.1741
274.5936, 463.3601
275.0757, 471.1700
275.5579, 479.6625
276.0400, 488.8843
276.5221, 498.9390
277.0042, 509.2828
277.4863, 519.4859
277.9684, 529.4874
278.4506, 540.1550
278.9327, 551.5987
279.4148, 563.6682
279.8969, 576.1483
280.3790, 589.0837
280.8611, 602.1277
281.3433, 615.0209
281.8254, 627.8256
282.3075, 641.0908
282.7896, 655.0652
283.2717, 669.1896
283.7538, 682.2252
284.2360, 694.1049
284.7181, 706.7139
285.2002, 720.9577
285.6823, 736.7264
286.1644, 753.4074
286.6465, 771.1169
287.1287, 788.7274
287.6108, 804.3356
288.0929, 818.0552
288.5750, 832.1004
289.0571, 847.7880
289.5392, 864.5285
290.0214, 879.6638
290.5035, 893.0712
290.9856, 905.4319
291.4677, 917.3566
291.9498, 928.8493
292.4319, 939.6309
292.9141, 950.2032
293.3962, 959.8177
293.8783, 967.0438
294.3604, 971.8513
294.8425, 973.7947
295.3246, 972.4044
295.8068, 967.8336
296.2889, 960.5662
296.7710, 950.3448
297.2531, 937.8442
297.7352, 924.2385
298.2173, 909.5583
298.6995, 893.3766
299.1816, 875.7960
299.6637, 856.5174
300.1458, 835.0806
300.6279, 810.6925
301.1100, 785.2112
301.5922, 761.1743
302.0743, 738.2704
302.5564, 715.3695
303.0385, 690.5622
303.5206, 665.6166
304.0027, 642.7337
304.4849, 622.6456
304.9670, 603.6643
305.4491, 584.3613
305.9312, 565.1387
306.4133, 546.9556
306.8954, 530.9469
307.3776, 515.8411
307.8597, 500.3417
308.3418, 484.1078
308.8239, 468.9186
309.3060, 456.6320
309.7881, 446.0404
310.2703, 435.6288
310.7524, 424.8203
311.2345, 413.7853
311.7166, 402.1955
312.1987, 390.1291
312.6808, 379.4915
313.1630, 372.1845
313.6451, 366.4557
314.1272, 360.3581
314.6093, 353.0957
315.0914, 345.5454
315.5735, 337.7071
316.0557, 329.7938
316.5378, 322.9488
317.0199, 318.5907
317.5020, 314.9649
317.9841, 310.6797
318.4662, 304.8867
318.9484, 299.3505
319.4305, 294.6791
319.9126, 290.7109
320.3947, 287.0197
320.8768, 283.5330
321.3589, 280.2553
321.8411, 277.2785
322.3232, 274.9585
322.8053, 272.1632
323.2874, 267.8924
323.7695, 263.1576
324.2516, 259.5605
324.7338, 258.6947
325.2159, 257.7582
325.6980, 255.7186
326.1801, 252.1529
326.6622, 249.1504
327.1443, 247.2818
327.6265, 245.8372
328.1086, 244.0953
328.5907, 241.6125
329.0728, 239.3385
329.5549, 237.4249
330.0370, 235.8679
330.5192, 234.4813
331.0013, 233.2655
331.4834, 232.2104
331.9655, 231.3333
332.4476, 230.9461
332.9297, 230.1624
333.4119, 228.5994
333.8940, 226.5493
334.3761, 225.3645
334.8582, 225.3721
335.3403, 225.7539
335.8224, 226.1071
336.3046, 226.3607
336.7867, 226.7974
337.2688, 227.4508
337.7509, 228.2673
338.2330, 229.0986
338.7151, 229.8299
339.1973, 230.9303
339.6794, 232.7711
340.1615, 235.3940
340.6436, 237.4570
341.1257, 238.7760
341.6078, 239.9027
342.0899, 241.4478
342.5721, 243.3799
343.0542, 245.8267
343.5363, 248.8452
344.0184, 252.3815
344.5005, 256.3963
344.9826, 260.9047
345.4648, 265.5526
345.9469, 269.8115
346.4290, 273.8273
346.9111, 278.2289
347.3932, 283.0869
347.8753, 288.5010
348.3575, 294.7531
348.8396, 301.7549
349.3217, 308.9183
349.8038, 315.5917
350.2859, 322.0748
350.7680, 329.1545
351.2502, 336.9861
351.7323, 345.1519
352.2144, 352.9631
352.6965, 360.7077
353.1786, 369.0309
353.6607, 378.5465
354.1429, 388.7050
354.6250, 398.8887
355.1071, 409.0760
355.5892, 419.2880
356.0713, 429.4896
356.5534, 439.7470
357.0356, 450.1465
357.5177, 460.2537
357.9998, 470.9684
358.4819, 483.4567
358.9640, 497.3297
359.4461, 510.0936
359.9283, 520.2487
360.4104, 528.8371
360.8925, 536.7960
361.3746, 544.8292
361.8567, 551.3870
362.3388, 555.9557
362.8210, 558.5554
363.3031, 559.3600
363.7852, 558.9393
364.2673, 556.3085
364.7494, 550.9350
365.2315, 542.5719
365.7137, 532.1349
366.1958, 518.2986
366.6779, 503.1139
367.1600, 488.8658
367.6421, 476.8593
368.1242, 464.7342
368.6064, 451.9048
369.0885, 438.2734
369.5706, 424.9577
370.0527, 411.5293
370.5348, 398.6762
371.0169, 386.6629
371.4991, 375.6349
371.9812, 365.4247
372.4633, 356.0886
372.9454, 347.5299
373.4275, 339.6152
373.9096, 332.3561
374.3918, 325.5693
374.8739, 319.3265
375.3560, 313.5940
375.8381, 308.1993
376.3202, 303.1298
376.8023, 298.4879
377.2845, 294.5334
377.7666, 291.3871
378.2487, 288.4221
378.7308, 285.5017
379.2129, 282.6094
379.6950, 279.8112
380.1772, 277.0078
380.6593, 274.6778
381.1414, 273.5233
381.6235, 273.4089
382.1056, 272.9507
382.5877, 271.7881
383.0699, 270.2542
383.5520, 268.8176
384.0341, 267.4922
384.5162, 266.5454
384.9983, 266.3108
385.4804, 266.5464
385.9626, 266.7833
386.4447, 267.0032
386.9268, 267.0697
387.4089, 266.7352
387.8910, 266.1354
388.3731, 265.5842
388.8553, 264.7591
389.3374, 264.3324
389.8195, 265.3194
390.3016, 267.6172
390.7837, 269.7303
391.2658, 270.3589
391.7480, 270.4570
392.2301, 271.0518
392.7122, 272.8822
393.1943, 274.6311
393.6764, 275.3651
394.1585, 275.4843
394.6407, 276.1034
395.1228, 277.7081
395.6049, 279.8287
396.0870, 282.3831
396.5691, 285.5748
397.0512, 288.4535
397.5334, 290.5123
398.0155, 292.2761
398.4976, 294.3730
398.9797, 297.1718
399.4618, 299.9928
399.9439, 302.6063
400.4261, 305.0103
400.9082, 307.8340
401.3903, 311.3143
401.8724, 314.9801
402.3545, 318.5605
402.8366, 322.0150
403.3188, 325.3488
403.8009, 328.3751
404.2830, 331.3607
404.7651, 335.0742
405.2472, 339.6959
405.7293, 344.4283
406.2115, 348.9284
406.6936, 353.1467
407.1757, 357.4996
407.6578, 361.9109
408.1399, 366.7064
408.6220, 372.5248
409.1042, 379.3434
409.5863, 386.0294
410.0684, 392.1264
410.5505, 398.0143
411.0326, 404.8675
411.5147, 412.7085
411.9969, 421.1617
412.4790, 430.0620
412.9611, 439.4806
413.4432, 449.4073
413.9253, 459.9328
414.4074, 471.0251
414.8896, 482.3937
415.3717, 494.3174
415.8538, 507.4082
416.3359, 522.1227
416.8180, 537.9381
417.3001, 554.0687
417.7823, 570.7225
418.2644, 588.1802
418.7465, 606.1780
419.2286, 625.6763
419.7107, 647.4150
420.1928, 672.6413
420.6750, 699.0809
421.1571, 725.3759
421.6392, 752.3134
422.1213, 781.2834
422.6034, 812.2075
423.0855, 845.4949
423.5677, 881.9222
424.0498, 921.9476
424.5319, 962.7806
425.0140, 1003.941
425.4961, 1046.327
425.9782, 1090.950
426.4604, 1138.357
426.9425, 1187.251
427.4246, 1237.349
427.9067, 1289.050
428.3888, 1341.643
428.8709, 1394.134
429.3531, 1449.052
429.8352, 1509.166
430.3173, 1574.604
430.7994, 1639.893
431.2815, 1703.646
431.7636, 1768.979
432.2458, 1839.707
432.7279, 1915.905
433.2100, 1995.895
433.6921, 2079.307
434.1742, 2166.336
434.6563, 2255.391
435.1385, 2347.557
435.6206, 2442.340
436.1027, 2541.063
436.5848, 2642.360
437.0669, 2743.241
437.5490, 2844.697
438.0312, 2942.311
438.5133, 3034.038
438.9954, 3119.311
439.4775, 3196.487
439.9596, 3270.317
440.4417, 3332.254
440.9239, 3374.839
441.4060, 3397.694
441.8881, 3403.827
442.3702, 3396.480
442.8523, 3372.500
443.3344, 3328.599
443.8166, 3258.174
444.2987, 3174.390
444.7808, 3076.579
445.2629, 2967.794
445.7450, 2856.145
446.2271, 2740.332
446.7093, 2627.132
447.1914, 2518.859
447.6735, 2414.708
448.1556, 2317.926
448.6377, 2230.163
449.1198, 2149.555
449.6020, 2074.462
450.0841, 2007.901
450.5662, 1944.047
451.0483, 1883.724
451.5304, 1825.216
452.0125, 1762.249
452.4947, 1693.451
452.9768, 1622.821
453.4589, 1551.919
453.9410, 1480.161
454.4231, 1407.025
454.9052, 1330.912
455.3874, 1255.240
455.8695, 1182.221
456.3516, 1111.804
456.8337, 1046.255
457.3158, 985.7920
457.7979, 930.0784
458.2801, 877.9996
458.7622, 829.8174
459.2443, 785.5918
459.7264, 747.1614
460.2085, 712.4711
460.6906, 679.3936
461.1728, 647.6035
461.6549, 617.7656
462.1370, 591.5824
462.6191, 567.8682
463.1012, 545.5046
463.5833, 523.5309
464.0655, 503.2510
464.5476, 485.8999
465.0297, 471.2930
465.5118, 457.1036
465.9939, 442.8925
466.4760, 429.1030
466.9582, 416.0562
467.4403, 403.6968
467.9224, 391.9805
468.4045, 380.9322
468.8866, 370.5474
469.3687, 360.6696
469.8509, 351.6065
470.3330, 342.7919
470.8151, 334.0219
471.2972, 325.3572
471.7793, 317.5327
472.2614, 310.6751
472.7436, 304.1119
473.2257, 297.1808
473.7078, 289.8359
474.1899, 283.4492
474.6720, 278.1834
475.1541, 273.6066
475.6363, 269.2675
476.1184, 265.1228
476.6005, 260.8812
477.0826, 256.1244
477.5647, 251.3870
478.0468, 247.5582
478.5290, 244.5753
479.0111, 241.8710
479.4932, 239.2594
479.9753, 236.6104
480.4574, 233.6861
480.9395, 230.3009
481.4217, 227.0996
481.9038, 224.7198
482.3859, 222.7702
482.8680, 220.7086
483.3501, 217.8780
483.8322, 215.3666
484.3144, 213.7625
484.7965, 213.0114
485.2786, 212.0063
485.7607, 210.3336
486.2428, 208.5757
486.7249, 207.0307
487.2071, 205.8890
487.6892, 204.5642
488.1713, 202.8384
488.6534, 201.0875
489.1355, 199.9489
489.6176, 199.7704
490.0998, 199.1456
490.5819, 197.5773
491.0640, 195.2959
491.5461, 193.4607
492.0282, 192.0754
492.5103, 191.0411
492.9925, 190.4593
493.4746, 190.2223
493.9567, 189.8313
494.4388, 189.2434
494.9209, 188.4987
495.4030, 187.3436
495.8852, 186.0475
496.3673, 185.2963
496.8494, 185.8601
497.3315, 186.5875
497.8136, 186.3198
498.2957, 185.2308
498.7779, 184.0537
499.2600, 183.0938
499.7421, 182.2247
500.2242, 181.3333
500.7063, 180.3587
501.1884, 179.5427
501.6706, 179.0939
502.1527, 178.7876
502.6348, 178.4050
503.1169, 177.8898
503.5990, 177.3345
504.0811, 176.6732
504.5633, 175.9776
505.0454, 175.5123
505.5275, 175.3804
506.0096, 175.3176
506.4917, 175.2400
506.9738, 175.1507
507.4560, 174.9587
507.9381, 174.6122
508.4202, 174.2997
508.9023, 174.1861
509.3844, 174.2715
509.8665, 174.5942
510.3487, 175.2266
510.8308, 175.9800
511.3129, 176.5651
511.7950, 176.9991
512.2772, 177.3589
512.7593, 177.5570
513.2414, 177.7716
513.7235, 178.2165
514.2056, 178.8936
514.6877, 179.7269
515.1699, 180.8574
515.6520, 182.0214
516.1341, 182.9317
516.6162, 183.2887
517.0983, 183.8541
517.5804, 185.0652
518.0626, 186.6084
518.5447, 187.9700
519.0268, 189.0217
519.5089, 189.9242
519.9910, 190.4755
520.4731, 190.7414
520.9553, 191.8228
521.4374, 194.0956
521.9195, 196.6029
522.4016, 198.8394
522.8837, 200.7448
523.3658, 202.5775
523.8480, 204.3014
524.3301, 206.0495
524.8122, 208.0603
525.2943, 210.3030
525.7764, 212.3239
526.2585, 213.7986
526.7407, 215.2180
527.2228, 217.6662
527.7049, 221.0067
528.1870, 224.3507
528.6691, 227.2237
529.1512, 229.8140
529.6334, 232.2039
530.1155, 234.4041
530.5976, 236.8987
531.0797, 240.1235
531.5618, 243.7492
532.0439, 247.4262
532.5261, 251.3039
533.0082, 254.9392
533.4903, 257.9554
533.9724, 260.7020
534.4545, 264.0072
534.9366, 267.9989
535.4188, 272.4776
535.9009, 277.5626
536.3830, 283.2335
536.8651, 288.4435
537.3472, 292.8970
537.8293, 297.4613
538.3115, 302.6984
538.7936, 308.6291
539.2757, 314.6371
539.7578, 320.6113
540.2399, 326.7804
540.7220, 333.6640
541.2042, 341.0915
541.6863, 348.5279
542.1684, 355.7003
542.6505, 363.0314
543.1326, 371.4595
543.6147, 380.6626
544.0969, 389.6531
544.5790, 397.0389
545.0611, 404.2928
545.5432, 412.5409
546.0253, 421.8510
546.5074, 431.9121
546.9896, 443.1961
547.4717, 454.7445
547.9538, 465.7647
548.4359, 475.1963
548.9180, 485.3853
549.4001, 497.0097
549.8823, 509.4139
550.3644, 521.4484
550.8465, 532.9758
551.3286, 544.6423
551.8107, 556.6586
552.2928, 569.0253
552.7750, 581.1378
553.2571, 592.9185
553.7392, 605.1256
554.2213, 618.6142
554.7034, 633.0129
555.1855, 646.9727
555.6677, 660.4567
556.1498, 673.3123
556.6319, 685.1984
557.1140, 696.2460
557.5961, 706.5773
558.0782, 716.0635
558.5604, 725.1498
559.0425, 734.3854
559.5246, 743.4318
560.0067, 751.4759
560.4888, 758.3463
560.9709, 763.9105
561.4531, 768.0278
561.9352, 770.7234
562.4173, 772.0923
562.8994, 772.3469
563.3815, 771.0806
563.8636, 767.9522
564.3458, 762.4117
564.8279, 756.6356
565.3100, 750.9348
565.7921, 744.5422
566.2742, 736.4413
566.7563, 726.4872
567.2385, 715.9775
567.7206, 705.3973
568.2027, 694.2283
568.6848, 681.4224
569.1669, 667.0482
569.6490, 652.9060
570.1312, 640.7217
570.6133, 628.7999
571.0954, 614.3676
571.5775, 597.3627
572.0596, 580.6893
572.5417, 565.7433
573.0239, 551.9667
573.5060, 539.3284
573.9881, 528.2540
574.4702, 516.7571
574.9523, 503.6681
575.4344, 489.8841
575.9166, 476.7092
576.3987, 464.6094
576.8808, 452.2685
577.3629, 438.8242
577.8450, 425.0428
578.3271, 413.3507
578.8093, 404.1613
579.2914, 395.9263
579.7735, 388.3847
580.2556, 381.4723
580.7377, 373.8224
581.2198, 365.4147
581.7020, 356.7924
582.1841, 347.9196
582.6662, 339.2471
583.1483, 331.8831
583.6304, 326.2543
584.1125, 321.0324
584.5947, 315.0319
585.0768, 308.7181
585.5589, 302.7655
586.0410, 297.2931
586.5231, 292.3666
587.0052, 288.5010
587.4873, 285.2603
587.9694, 281.5406
588.4515, 276.5927
588.9337, 271.6599
589.4158, 266.9877
589.8979, 262.5741
590.3800, 258.7520
590.8621, 255.6809
591.3442, 252.8985
591.8264, 250.1367
592.3085, 247.3648
592.7906, 244.8694
593.2727, 242.6943
593.7548, 240.6198
594.2369, 238.2384
594.7191, 235.6722
595.2012, 233.4534
595.6833, 231.7154
596.1654, 230.3255
596.6475, 229.1867
597.1296, 228.2900
597.6118, 227.5879
598.0939, 226.9145
598.5760, 226.5668
599.0581, 226.8266
599.5402, 227.6393
600.0223, 228.4871
600.5045, 228.7823
600.9866, 229.5132
601.4687, 230.9996
601.9508, 233.1035
602.4329, 236.5395
602.9150, 241.2116
603.3972, 247.3296
603.8793, 255.1262
604.3614, 264.6805
604.8435, 275.2514
605.3256, 286.4242
605.8077, 299.1373
606.2899, 314.8944
606.7720, 333.4862
607.2541, 353.2987
607.7362, 373.8001
608.2183, 395.1768
608.7004, 418.0685
609.1826, 442.0457
609.6647, 464.7891
610.1468, 483.9964
610.6289, 502.9541
611.1110, 522.8422
611.5931, 543.9728
612.0753, 567.5557
612.5574, 593.6746
613.0395, 622.8262
613.5216, 654.9230
614.0037, 689.7794
614.4858, 728.9081
614.9680, 772.3784
615.4501, 820.0139
615.9322, 871.0449
616.4143, 925.0569
616.8964, 986.4520
617.3785, 1057.299
617.8607, 1132.681
618.3428, 1204.148
618.8249, 1272.625
619.3070, 1342.017
619.7891, 1416.214
620.2712, 1490.725
620.7534, 1565.691
621.2355, 1639.108
621.7176, 1698.325
622.1997, 1749.530
622.6818, 1774.975
623.1639, 1766.088
623.6461, 1722.006
624.1282, 1643.527
624.6103, 1512.655
625.0924, 1363.432
625.5745, 1214.127
626.0566, 1056.386
626.5388, 917.7213
627.0209, 800.3958
627.5030, 701.6124
627.9851, 620.0029
628.4672, 555.8806
628.9493, 502.6840
629.4315, 460.0997
629.9136, 425.5279
630.3957, 396.7414
630.8778, 373.1246
631.3599, 353.2603
631.8420, 337.5713
632.3242, 324.4773
632.8063, 312.9145
633.2884, 302.9940
633.7705, 294.8470
634.2526, 289.1839
634.7347, 284.7642
635.2169, 280.9992
635.6990, 277.8746
636.1811, 275.4967
636.6632, 273.8749
637.1453, 272.9824
637.6274, 272.9326
638.1096, 273.8458
638.5917, 274.6913
639.0738, 275.3265
639.5559, 276.1772
640.0380, 277.8021
640.5201, 280.1344
641.0023, 282.8929
641.4844, 286.2116
641.9665, 289.5760
642.4486, 292.4239
642.9307, 294.9828
643.4128, 297.6976
643.8950, 301.4568
644.3771, 304.7756
644.8592, 306.8389
645.3413, 307.8113
645.8234, 308.7413
646.3055, 310.1339
646.7877, 311.1283
647.2698, 311.5180
647.7519, 311.3123
648.2340, 310.2066
648.7161, 308.0875
649.1982, 305.3902
649.6804, 302.5879
650.1625, 299.5909
650.6446, 295.4011
651.1267, 289.8948
651.6088, 283.9149
652.0909, 278.1435
652.5731, 272.6361
653.0552, 267.5396
653.5373, 263.2574
654.0194, 258.5735
654.5015, 252.2235
654.9836, 245.0477
655.4658, 238.2445
655.9479, 231.9837
656.4300, 226.3201
656.9121, 221.5507
657.3942, 217.3232
657.8763, 212.6611
658.3585, 207.1926
658.8406, 202.0811
659.3227, 197.6995
659.8048, 193.9492
660.2869, 190.6163
660.7690, 187.7074
661.2512, 184.9292
661.7333, 182.1651
662.2154, 179.4011
662.6975, 176.6448
663.1796, 173.8941
663.6617, 171.1124
664.1439, 168.0838
664.6260, 165.1296
665.1081, 162.5492
665.5902, 160.4935
666.0723, 158.5597
666.5544, 156.6906
667.0366, 154.8939
667.5187, 153.1718
668.0008, 151.5527
668.4829, 149.9666
668.9650, 148.4487
669.4471, 146.9435
669.9293, 145.2830
670.4114, 143.4637
670.8935, 141.8341
671.3756, 140.4778
671.8577, 139.3679
672.3398, 138.5740
672.8220, 137.9906
673.3041, 137.2757
673.7862, 136.1231
674.2683, 134.8895
674.7504, 133.8476
675.2325, 132.9557
675.7147, 132.0193
676.1968, 130.7509
676.6789, 129.6187
677.1610, 128.9223
677.6431, 128.6790
678.1252, 128.2325
678.6074, 127.5267
679.0895, 126.7305
679.5716, 125.8770
680.0537, 124.9601
680.5358, 124.4574
681.0179, 124.4316
681.5001, 124.4225
681.9822, 123.9099
682.4643, 123.0949
682.9464, 122.4276
683.4285, 122.0315
683.9106, 121.5792
684.3928, 120.5841
684.8749, 119.4943
685.3570, 118.8360
685.8391, 119.3657
686.3212, 119.5617
686.8033, 118.8402
687.2855, 117.7593
687.7676, 117.2447
688.2497, 117.6103
688.7318, 117.7071
689.2139, 117.1771
689.6960, 116.3374
690.1782, 116.1613
690.6603, 116.6098
691.1424, 116.9102
691.6245, 116.6459
692.1066, 116.0613
692.5887, 115.4352
693.0709, 114.7995
693.5530, 114.2924
694.0351, 113.9208
694.5172, 113.7653
694.9993, 114.0183
695.4814, 114.7007
695.9636, 115.0656
696.4457, 114.7501
696.9278, 114.3353
697.4099, 114.0742
697.8920, 113.9867
698.3741, 113.9362
698.8563, 113.9510
699.3384, 113.9148
699.8205, 113.6790
700.3026, 113.2928
700.7847, 112.9249
701.2668, 112.5677
701.7490, 112.4234
702.2311, 113.1193
702.7132, 113.9965
703.1953, 114.0228
703.6774, 112.3391
704.1595, 111.0516
704.6417, 111.3639
705.1238, 112.3982
705.6059, 112.9306
706.0880, 112.6506
706.5701, 112.2492
707.0522, 111.6407
707.5344, 111.0505
708.0165, 111.1182
708.4986, 111.9115
708.9807, 112.2712
709.4628, 111.6933
709.9449, 110.6822
710.4271, 110.0635
710.9092, 109.8158
711.3913, 109.8383
711.8734, 110.4751
712.3555, 111.0290
712.8376, 110.7895
713.3198, 109.9524
713.8019, 109.5177
714.2840, 110.1681
714.7661, 110.8621
715.2482, 111.2225
715.7303, 111.2588
716.2125, 111.2969
716.6946, 111.4248
717.1767, 111.3148
717.6588, 110.5030
718.1409, 109.1642
718.6230, 108.8882
719.1052, 109.6984
719.5873, 110.5172
720.0694, 110.4845
720.5515, 109.9592
721.0336, 109.2818
721.5157, 108.4554
721.9979, 107.9231
722.4800, 108.2003
722.9621, 108.6551
723.4442, 108.7687
723.9263, 108.2941
724.4084, 107.8956
724.8906, 107.5514
725.3727, 107.3034
725.8548, 107.3028
726.3369, 107.5926
726.8190, 107.3994
727.3011, 106.5607
727.7833, 105.5014
728.2654, 104.8139
728.7475, 104.3433
729.2296, 103.6881
729.7117, 102.5980
730.1938, 101.5905
730.6760, 101.1418
731.1581, 100.9826
731.6402, 100.6892
732.1223, 99.80813
732.6044, 99.24393
733.0865, 99.33613
733.5687, 99.73830
734.0508, 99.73339
734.5329, 99.27433
735.0150, 98.56055
735.4971, 97.51324
735.9792, 96.38635
736.4614, 95.87247
736.9435, 95.85170
737.4256, 95.70622
737.9077, 94.77503
738.3898, 93.85353
738.8719, 93.87627
739.3541, 94.57317
739.8362, 94.99566
740.3183, 94.80231
740.8004, 94.27405
741.2825, 93.29422
741.7646, 91.96193
742.2468, 91.14821
742.7289, 91.06102
743.2110, 90.97056
743.6931, 90.48319
744.1752, 89.70045
744.6573, 89.19862
745.1395, 88.97816
745.6216, 88.90910
746.1037, 89.10263
746.5858, 89.28797
747.0679, 88.99617
747.5500, 88.23672
748.0322, 87.71550
748.5143, 88.15520
748.9964, 88.61613
749.4785, 88.47442
749.9606, 87.54555
750.4427, 86.75049
750.9249, 86.01895
751.4070, 85.51585
751.8891, 85.47888
752.3712, 85.89599
752.8533, 85.98975
753.3354, 85.71700
753.8176, 85.34631
754.2997, 85.12053
754.7818, 84.96658
755.2639, 84.77110
755.7460, 84.51678
756.2281, 84.23525
756.7103, 83.86610
757.1924, 83.52593
757.6745, 83.31776
758.1566, 83.25961
758.6387, 83.33987
759.1208, 83.63047
759.6030, 83.97301
760.0851, 84.22530
760.5672, 84.38930
761.0493, 84.41001
761.5314, 84.25423
762.0135, 84.06593
762.4957, 84.09195
762.9778, 84.19424
763.4599, 84.03813
763.9420, 83.31211
764.4241, 82.89317
764.9063, 83.71918
765.3884, 84.94140
765.8705, 85.51234
766.3526, 84.67432
766.8347, 84.05754
767.3168, 83.75587
767.7990, 83.67583
768.2811, 83.73645
768.7632, 83.95112
769.2453, 84.01364
769.7274, 83.82168
770.2095, 83.55746
770.6917, 83.49302
771.1738, 83.55299
771.6559, 83.55344
772.1380, 83.22681
772.6201, 83.11316
773.1022, 83.81321
773.5844, 84.85479
774.0665, 85.38455
774.5486, 84.85545
775.0307, 84.44583
775.5128, 84.26978
775.9949, 84.31622
776.4771, 84.69846
776.9592, 85.44380
777.4413, 85.78275
777.9234, 85.32450
778.4055, 84.62088
778.8876, 84.63381
779.3698, 85.09330
779.8519, 85.30470
780.3340, 84.53340
780.8161, 83.87748
781.2982, 84.00410
781.7803, 84.63292
782.2625, 84.98429
782.7446, 84.72595
783.2267, 84.64749
783.7088, 84.94505
784.1909, 85.50225
784.6730, 86.05372
785.1552, 86.60024
785.6373, 86.93295
786.1194, 86.80959
786.6015, 86.60426
787.0836, 87.01966
787.5657, 87.81875
788.0479, 88.34184
788.5300, 87.99230
789.0121, 87.58583
789.4942, 87.49887
789.9763, 87.65289
790.4584, 87.71951
790.9406, 87.74497
791.4227, 87.55264
791.9048, 86.96699
792.3869, 86.19917
792.8690, 86.00711
793.3511, 86.35374
793.8333, 86.69115
794.3154, 86.75545
794.7975, 86.68060
795.2796, 86.61636
795.7617, 86.54755
796.2438, 86.42796
796.7260, 86.11605
797.2081, 85.87831
797.6902, 85.84818
798.1723, 85.98381
798.6544, 86.15474
799.1365, 86.43901
799.6187, 86.51713
800.1008, 86.13584
800.5829, 85.56890
801.0650, 85.85152
801.5471, 86.82603
802.0292, 87.48076
802.5114, 86.95646
802.9935, 86.11112
803.4756, 85.59126
803.9577, 85.39162
804.4398, 85.49075
804.9219, 86.12943
805.4041, 86.80544
805.8862, 87.52934
806.3683, 88.17954
806.8504, 88.11292
807.3325, 87.13313
807.8146, 86.41903
808.2968, 86.56665
808.7789, 87.12961
809.2610, 87.00924
809.7431, 86.37934
810.2252, 85.94785
810.7073, 86.43946
811.1895, 86.92107
811.6716, 86.59434
812.1537, 85.72865
812.6358, 85.35357
813.1179, 86.20544
813.6000, 86.73558
814.0822, 86.39444
814.5643, 85.54060
815.0464, 85.66283
815.5285, 86.78488
816.0106, 87.51872
816.4927, 87.04462
816.9749, 86.12486
817.4570, 85.91698
817.9391, 86.22924
818.4212, 86.50295
818.9033, 86.32578
819.3854, 86.22370
819.8676, 86.45974
820.3497, 86.94938
820.8318, 87.40781
821.3139, 87.91959
821.7960, 88.15089
822.2781, 87.87101
822.7603, 87.39947
823.2424, 87.67333
823.7245, 88.55433
824.2066, 89.13634
824.6887, 88.92412
825.1708, 88.42876
825.6530, 88.00324
826.1351, 87.65877
826.6172, 87.43079
827.0993, 87.46629
827.5814, 87.44166
828.0635, 87.20203
828.5457, 86.90520
829.0278, 86.92608
829.5099, 87.32835
829.9920, 87.62936
830.4741, 87.70918
830.9562, 87.63896
831.4384, 87.39005
831.9205, 87.08427
832.4026, 87.06120
832.8847, 87.85365
833.3668, 88.36520
833.8489, 87.56053
834.3311, 86.22868
834.8132, 85.80201
835.2953, 87.19494
835.7774, 87.80253
836.2595, 87.09848
836.7416, 85.83504
837.2238, 85.23040
837.7059, 85.21267
838.1880, 85.18930
838.6701, 85.02471
839.1522, 84.81811
839.6343, 84.48201
840.1165, 84.23257
840.5986, 84.43493
841.0807, 85.83256
841.5628, 86.60046
842.0449, 85.91194
842.5270, 84.74987
843.0092, 84.00381
843.4913, 83.66825
843.9734, 83.89749
844.4555, 84.84093
844.9376, 85.84104
845.4197, 86.09281
845.9019, 85.82141
846.3840, 85.43774
846.8661, 84.95847
847.3482, 84.67276
847.8303, 84.88338
848.3124, 85.27790
848.7946, 85.57539
849.2767, 85.69913
849.7588, 85.84501
850.2409, 85.96230
850.7230, 86.19704
851.2051, 86.58331
851.6873, 87.16596
852.1694, 88.64693
852.6515, 91.13799
853.1336, 92.87603
853.6157, 91.39339
854.0978, 89.11763
854.5800, 88.63405
855.0621, 90.51048
855.5442, 91.79163
856.0263, 91.60604
856.5084, 90.95130
856.9905, 90.11318
857.4727, 89.09309
857.9548, 88.66724
858.4369, 88.82322
858.9190, 89.74604
859.4011, 92.67316
859.8832, 95.93760
860.3654, 96.42439
860.8475, 94.38007
861.3296, 92.54902
861.8117, 92.36674
862.2938, 92.52300
862.7759, 92.37621
863.2581, 91.97334
863.7402, 91.77133
864.2223, 91.78610
864.7044, 91.96300
865.1865, 92.34747
865.6686, 92.83086
866.1508, 93.11800
866.6329, 93.24203
867.1150, 93.33699
867.5971, 93.57423
868.0792, 93.70479
868.5613, 93.45042
869.0435, 92.96034
869.5256, 92.71886
870.0077, 92.87257
870.4898, 93.08302
870.9719, 93.37043
871.4540, 93.60214
871.9362, 93.39300
872.4183, 92.80655
872.9004, 92.35448
873.3825, 92.25034
873.8646, 92.21972
874.3467, 91.96634
874.8289, 91.62007
875.3110, 91.38032
875.7931, 91.39827
876.2752, 91.41192
876.7573, 91.49126
877.2394, 91.47485
877.7216, 91.01508
878.2037, 90.05716
878.6858, 89.76114
879.1679, 90.34856
879.6500, 91.17563
880.1321, 91.84682
880.6143, 92.19048
881.0964, 91.75569
881.5785, 90.18520
882.0606, 89.15389
882.5427, 89.91452
883.0248, 90.90079
883.5070, 90.99378
883.9891, 90.01109
884.4712, 89.19376
884.9533, 88.51687
885.4354, 88.16309
885.9175, 88.52467
886.3997, 89.23804
886.8818, 89.51650
887.3639, 89.35913
887.8460, 89.19056
888.3281, 89.20895
888.8102, 89.30920
889.2924, 89.45056
889.7745, 89.62809
890.2566, 89.84328
890.7387, 90.16434
891.2208, 90.30795
891.7029, 90.11711
892.1851, 89.69656
892.6672, 89.15421
893.1493, 88.57889
893.6314, 88.35875
894.1135, 89.06449
894.5956, 89.80264
895.0778, 90.02687
895.5599, 89.90238
896.0420, 89.83440
896.5241, 89.71396
897.0062, 89.97005
897.4883, 90.83024
897.9705, 91.86887
898.4526, 92.24266
898.9347, 92.07560
899.4168, 91.92472
899.8989, 91.91187
900.3810, 92.00249
900.8632, 92.19242
901.3453, 92.45837
901.8274, 92.78879
902.3095, 93.31791
902.7916, 93.63082
903.2737, 93.66188
903.7559, 93.57166
904.2380, 93.47258
904.7201, 93.37025
905.2022, 93.33418
905.6843, 93.36872
906.1664, 93.44158
906.6486, 93.47868
907.1307, 93.57419
907.6128, 93.99885
908.0949, 94.81767
908.5770, 94.89371
909.0591, 93.35967
909.5413, 92.09395
910.0234, 91.98170
910.5055, 92.80358
910.9876, 93.18741
911.4697, 93.15494
911.9518, 93.10744
912.4340, 93.36024
912.9161, 93.63426
913.3982, 93.59358
913.8803, 93.33923
914.3624, 93.15339
914.8445, 93.03334
915.3267, 93.12289
915.8088, 93.61771
916.2909, 94.20120
916.7730, 94.11791
917.2551, 93.38742
917.7372, 92.92014
918.2194, 92.93552
918.7015, 93.22642
919.1836, 93.76214
919.6657, 94.35583
920.1478, 94.72767
920.6299, 94.64437
921.1121, 94.72346
921.5942, 95.23232
922.0763, 95.73652
922.5584, 95.81587
923.0405, 95.44710
923.5226, 95.44202
924.0048, 95.84401
924.4869, 96.24044
924.9690, 96.15102
925.4511, 95.96558
925.9332, 96.18925
926.4153, 96.82919
926.8975, 97.36382
927.3796, 97.47059
927.8617, 97.65479
928.3438, 98.16482
928.8259, 98.88824
929.3080, 99.23660
929.7902, 99.21644
930.2723, 99.05408
930.7544, 98.69630
931.2365, 98.42933
931.7186, 98.78075
932.2007, 99.45073
932.6829, 99.82218
933.1650, 99.56834
933.6471, 99.16122
934.1292, 98.43509
934.6113, 97.80928
935.0934, 98.04477
935.5756, 99.13166
936.0577, 99.80894
936.5398, 99.86189
937.0219, 99.72969
937.5040, 99.90269
937.9861, 100.0973
938.4683, 99.89307
938.9504, 99.08689
939.4325, 98.63989
939.9146, 99.09035
940.3967, 99.43037
940.8788, 98.93657
941.3610, 97.73554
941.8431, 97.67175
942.3252, 98.70118
942.8073, 99.57669
943.2894, 99.26754
943.7715, 98.62597
944.2537, 98.39927
944.7358, 98.50640
945.2179, 98.58302
945.7000, 98.54263
946.1821, 98.46532
946.6642, 98.31587
947.1464, 98.18100
947.6285, 98.35526
948.1106, 98.76868
948.5927, 98.84148
949.0748, 98.34773
949.5569, 97.74345
950.0391, 97.33938
950.5212, 97.09612
951.0033, 96.96938
951.4854, 96.93262
951.9675, 97.10325
952.4496, 97.62704
952.9318, 98.09907
953.4139, 98.08381
953.8960, 97.70756
954.3781, 97.74734
954.8602, 98.19855
955.3423, 98.74477
955.8245, 99.47008
956.3066, 99.95727
956.7887, 99.62614
957.2708, 98.64705
957.7529, 98.47910
958.2350, 99.69217
958.7172, 100.4068
959.1993, 99.88534
959.6814, 98.88207
960.1635, 99.09696
960.6456, 100.2214
961.1277, 101.2500
961.6099, 101.6963
962.0920, 102.3066
962.5741, 103.8418
963.0562, 105.5857
963.5383, 106.6649
964.0204, 106.7608
964.5026, 107.0995
964.9847, 107.7259
965.4668, 108.4470
965.9489, 108.9730
966.4310, 109.4954
966.9131, 110.5739
967.3953, 112.1815
967.8774, 113.6471
968.3595, 114.0379
968.8416, 114.8003
969.3237, 116.8472
969.8058, 119.8581
970.2880, 122.4457
970.7701, 124.6067
971.2522, 126.5081
971.7343, 128.1356
972.2164, 129.6916
972.6985, 131.3802
973.1807, 133.2648
973.6628, 135.4425
974.1449, 138.0401
974.6270, 140.8393
975.1091, 143.9890
975.5912, 147.1816
976.0734, 150.1716
976.5555, 152.9485
977.0376, 155.4836
977.5197, 157.7257
978.0018, 160.0962
978.4839, 163.1493
978.9661, 166.3824
979.4482, 169.2710
979.9303, 171.8057
980.4124, 174.4435
980.8945, 177.5990
981.3766, 180.3544
981.8588, 182.3099
982.3409, 183.8202
982.8230, 186.0447
983.3051, 188.7962
983.7872, 191.0193
984.2693, 191.9261
984.7515, 192.9957
985.2336, 196.0898
985.7157, 199.5929
986.1978, 201.2092
986.6799, 199.3716
987.1620, 199.1070
987.6442, 200.7164
988.1263, 203.0701
988.6084, 205.4788
989.0905, 207.7691
989.5726, 208.9913
990.0547, 209.2989
990.5369, 210.6522
991.0190, 214.5734
991.5011, 219.2819
991.9832, 223.9535
992.4653, 228.6929
992.9474, 234.0548
993.4296, 239.9449
993.9117, 246.8262
994.3938, 254.6071
994.8759, 263.9343
995.3580, 275.3855
995.8401, 289.0219
996.3223, 305.3155
996.8044, 324.5890
997.2865, 346.2354
997.7686, 369.9689
998.2507, 396.2281
998.7328, 426.2000
999.2150, 459.4637
999.6971, 492.0761
1000.179, 523.5294
1000.661, 555.2328
1001.143, 587.1866
1001.626, 620.3860
1002.108, 654.9666
1002.590, 691.4194
1003.072, 733.5627
1003.554, 780.7029
1004.036, 832.5432
1004.518, 887.3427
1005.000, 948.9559
1005.482, 1021.535
1005.965, 1105.762
1006.447, 1201.588
1006.929, 1308.960
1007.411, 1427.915
1007.893, 1564.895
1008.375, 1710.365
1008.857, 1859.416
1009.339, 2014.345
1009.822, 2163.078
1010.304, 2308.331
1010.786, 2413.783
1011.268, 2468.960
1011.750, 2460.039
1012.232, 2349.869
1012.714, 2159.164
1013.196, 1947.405
1013.678, 1699.967
1014.161, 1476.227
1014.643, 1286.347
1015.125, 1126.225
1015.607, 993.6143
1016.089, 887.7004
1016.571, 801.6838
1017.053, 735.7298
1017.535, 683.4786
1018.018, 644.3582
1018.500, 613.7691
1018.982, 588.2695
1019.464, 567.6293
1019.946, 552.3104
1020.428, 543.0843
1020.910, 536.4631
1021.392, 531.5111
1021.874, 527.6266
1022.357, 523.7888
1022.839, 520.1207
1023.321, 516.9844
1023.803, 515.5692
1024.285, 513.1639
1024.767, 509.3740
1025.249, 504.0568
1025.731, 497.0987
1026.214, 488.4796
1026.696, 477.8644
1027.178, 465.1566
1027.660, 451.7298
1028.142, 438.4883
1028.624, 424.9698
1029.106, 410.4600
1029.588, 395.1684
1030.070, 380.3842
1030.553, 365.8758
1031.035, 352.3701
1031.517, 340.0038
1031.999, 328.7593
1032.481, 318.3528
1032.963, 308.8593
1033.445, 300.4900
1033.927, 293.4440
1034.410, 286.7241
1034.892, 279.7604
1035.374, 273.1670
1035.856, 267.4540
1036.338, 262.6090
1036.820, 258.0373
1037.302, 253.8122
1037.784, 249.7665
1038.266, 245.7083
1038.749, 241.9265
1039.231, 238.7871
1039.713, 236.1793
1040.195, 233.9312
1040.677, 232.1977
1041.159, 230.5162
1041.641, 228.9212
1042.123, 227.1878
1042.605, 225.0540
1043.088, 222.5446
1043.570, 219.6217
1044.052, 216.2833
1044.534, 213.2625
1045.016, 210.9649
1045.498, 209.1022
1045.980, 207.7774
1046.462, 206.7681
1046.945, 204.9450
1047.427, 202.2596
1047.909, 199.7782
1048.391, 197.8968
1048.873, 196.3087
1049.355, 194.8045
1049.837, 193.3296
1050.319, 191.7883
1050.802, 190.0654
1051.284, 188.5461
1051.766, 187.3836
1052.248, 186.1283
1052.730, 184.2513
1053.212, 182.0766
1053.694, 180.6333
1054.176, 179.8415
1054.658, 179.3180
1055.141, 179.1941
1055.623, 178.9278
1056.105, 178.2296
1056.587, 177.3232
1057.069, 176.4548
1057.551, 175.6157
1058.033, 175.1239
1058.515, 175.0303
1058.997, 175.1787
1059.480, 175.6305
1059.962, 176.1096
1060.444, 176.2706
1060.926, 176.0887
1061.408, 176.2580
1061.890, 176.9276
1062.372, 177.5413
1062.854, 177.7010
1063.337, 178.0146
1063.819, 180.0754
1064.301, 183.1114
1064.783, 185.3544
1065.265, 185.9136
1065.747, 186.5881
1066.229, 187.9609
1066.711, 189.6031
1067.193, 191.2222
1067.676, 193.2764
1068.158, 195.0311
1068.640, 197.8030
1069.122, 200.6518
1069.604, 203.2948
1070.086, 205.9298
1070.568, 208.7108
1071.050, 211.6425
1071.532, 214.6036
1072.015, 217.4002
1072.497, 221.0527
1072.979, 225.8170
1073.461, 230.9211
1073.943, 235.9230
1074.425, 240.5485
1074.907, 244.2127
1075.389, 246.9023
1075.872, 250.0136
1076.354, 253.7715
1076.836, 258.2042
1077.318, 263.5919
1077.800, 269.3265
1078.282, 274.1544
1078.764, 278.2765
1079.246, 282.4373
1079.729, 286.7820
1080.211, 291.5138
1080.693, 296.5980
1081.175, 302.3133
1081.657, 308.9302
1082.139, 316.4658
1082.621, 322.7852
1083.103, 327.9071
1083.585, 333.6433
1084.068, 341.3180
1084.550, 349.7348
1085.032, 357.6357
1085.514, 365.4363
1085.996, 373.6684
1086.478, 382.1518
1086.960, 391.5581
1087.442, 401.8609
1087.924, 413.2396
1088.406, 426.2785
1088.889, 440.3042
1089.371, 453.9257
1089.853, 467.3733
1090.335, 482.4696
1090.817, 500.2285
1091.299, 519.3607
1091.781, 539.1157
1092.263, 560.5136
1092.746, 585.3473
1093.228, 613.3173
1093.710, 642.2264
1094.192, 671.5008
1094.674, 703.7109
1095.156, 740.8123
1095.638, 781.3783
1096.120, 824.1230
1096.603, 868.8608
1097.085, 916.9644
1097.567, 968.3937
1098.049, 1024.092
1098.531, 1085.091
1099.013, 1149.284
1099.495, 1215.506
1099.977, 1283.817
1100.459, 1355.420
1100.942, 1429.699
1101.424, 1508.056
1101.906, 1591.113
1102.388, 1676.953
1102.870, 1765.080
1103.352, 1855.956
1103.834, 1951.213
1104.316, 2050.884
1104.798, 2152.223
1105.281, 2258.050
1105.763, 2362.114
1106.245, 2464.262
1106.727, 2562.726
1107.209, 2655.315
1107.691, 2741.271
1108.173, 2814.593
1108.655, 2874.860
1109.138, 2913.600
1109.620, 2927.629
1110.102, 2917.438
1110.584, 2880.306
1111.066, 2821.160
1111.548, 2746.185
1112.030, 2654.829
1112.512, 2549.858
1112.995, 2429.757
1113.477, 2302.953
1113.959, 2170.388
1114.441, 2038.753
1114.923, 1913.177
1115.405, 1793.963
1115.887, 1681.561
1116.369, 1574.681
1116.851, 1476.779
1117.333, 1389.266
1117.816, 1310.519
1118.298, 1239.686
1118.780, 1175.678
1119.262, 1117.195
1119.744, 1065.107
1120.226, 1015.877
1120.708, 968.7802
1121.190, 925.9460
1121.673, 888.3998
1122.155, 855.7498
1122.637, 826.3351
1123.119, 799.9529
1123.601, 776.0449
1124.083, 755.2083
1124.565, 735.8484
1125.047, 717.6725
1125.530, 700.6406
1126.012, 684.2597
1126.494, 668.7538
1126.976, 655.3289
1127.458, 644.0009
1127.940, 634.5566
1128.422, 627.7567
1128.904, 621.8164
1129.386, 615.9531
1129.869, 610.4426
1130.351, 605.5924
1130.833, 601.4178
1131.315, 599.1609
1131.797, 599.0291
1132.279, 599.5851
1132.761, 598.9017
1133.243, 599.1541
1133.725, 602.5098
1134.208, 608.3737
1134.690, 613.6365
1135.172, 618.1637
1135.654, 623.2087
1136.136, 629.0968
1136.618, 635.7011
1137.100, 642.3203
1137.582, 649.9307
1138.065, 659.7437
1138.547, 672.1034
1139.029, 685.1973
1139.511, 698.9797
1139.993, 713.7679
1140.475, 729.7920
1140.957, 746.6970
1141.439, 764.1664
1141.922, 782.1751
1142.404, 801.0190
1142.886, 820.4818
1143.368, 841.3887
1143.850, 863.9483
1144.332, 886.6163
1144.814, 908.1389
1145.296, 928.8264
1145.778, 949.3570
1146.260, 969.9171
1146.743, 991.6805
1147.225, 1017.405
1147.707, 1040.757
1148.189, 1061.217
1148.671, 1079.359
1149.153, 1095.412
1149.635, 1109.562
1150.117, 1123.210
1150.600, 1136.263
1151.082, 1147.809
1151.564, 1159.096
1152.046, 1166.800
1152.528, 1168.999
1153.010, 1167.590
1153.492, 1165.236
1153.974, 1161.705
1154.457, 1153.663
1154.939, 1140.924
1155.421, 1125.439
1155.903, 1107.682
1156.385, 1088.420
1156.867, 1068.768
1157.349, 1047.703
1157.831, 1021.762
1158.313, 990.7388
1158.796, 961.1377
1159.278, 934.0395
1159.760, 907.1049
1160.242, 877.8945
1160.724, 848.4033
1161.206, 820.2379
1161.688, 793.2252
1162.170, 766.7361
1162.652, 740.6548
1163.135, 715.0354
1163.617, 689.5936
1164.099, 665.4180
1164.581, 643.8319
1165.063, 623.6046
1165.545, 603.3551
1166.027, 582.9606
1166.509, 563.4354
1166.992, 544.6967
1167.474, 526.7781
1167.956, 509.6835
1168.438, 493.3819
1168.920, 477.1935
1169.402, 461.8069
1169.884, 447.9889
1170.366, 436.3664
1170.849, 425.5673
1171.331, 415.8864
1171.813, 405.8813
1172.295, 394.1847
1172.777, 382.0194
1173.259, 371.0918
1173.741, 361.1711
1174.223, 352.0605
1174.705, 344.0521
1175.188, 336.1663
1175.670, 328.3297
1176.152, 320.6120
1176.634, 312.8388
1177.116, 305.2597
1177.598, 297.9679
1178.080, 291.0351
1178.562, 284.6073
1179.044, 278.6236
1179.527, 273.3961
1180.009, 269.2858
1180.491, 265.0789
1180.973, 259.0739
1181.455, 252.1869
1181.937, 246.6291
1182.419, 242.3472
1182.901, 238.4914
1183.384, 235.4190
1183.866, 231.7974
1184.348, 227.1283
1184.830, 222.3622
1185.312, 218.9506
1185.794, 216.3340
1186.276, 212.8493
1186.758, 208.4623
1187.240, 204.5457
1187.723, 202.2303
1188.205, 199.7598
1188.687, 196.5252
1189.169, 193.1819
1189.651, 190.9783
1190.133, 189.5395
1190.615, 187.8663
1191.097, 185.8156
1191.579, 183.3760
1192.062, 180.1447
1192.544, 176.9570
1193.026, 174.0047
1193.508, 171.3504
1193.990, 169.2917
1194.472, 167.6471
1194.954, 165.8079
1195.436, 163.6304
1195.919, 161.4284
1196.401, 159.1751
1196.883, 157.1236
1197.365, 155.4529
1197.847, 154.0001
1198.329, 152.2911
1198.811, 150.3793
1199.293, 148.4101
1199.776, 146.3501
1200.258, 144.5068
1200.740, 143.2906
1201.222, 142.0249
1201.704, 140.3065
1202.186, 138.3058
1202.668, 136.8245
1203.150, 135.7416
1203.632, 134.5322
1204.115, 132.9679
1204.597, 131.4415
1205.079, 130.1922
1205.561, 128.9890
1206.043, 127.7167
1206.525, 126.3982
1207.007, 125.1898
1207.489, 124.0923
1207.971, 123.0636
1208.454, 122.1233
1208.936, 121.1982
1209.418, 120.1549
1209.900, 119.2384
1210.382, 118.7482
1210.864, 118.5496
1211.346, 117.6280
1211.828, 116.1206
1212.311, 114.7388
1212.793, 113.8188
1213.275, 113.0278
1213.757, 112.4018
1214.239, 111.6879
1214.721, 110.5863
1215.203, 109.1975
1215.685, 108.3489
1216.167, 107.9477
1216.650, 107.4766
1217.132, 106.3813
1217.614, 105.5769
1218.096, 105.5575
1218.578, 105.7185
1219.060, 105.6024
1219.542, 105.2099
1220.024, 104.3512
1220.506, 103.1535
1220.989, 102.2996
1221.471, 102.6977
1221.953, 102.7060
1222.435, 101.5900
1222.917, 100.2271
1223.399, 99.52408
1223.881, 99.35901
1224.363, 99.17657
1224.846, 98.96030
1225.328, 98.74815
1225.810, 98.65755
1226.292, 98.42467
1226.774, 97.91745
1227.256, 97.35085
1227.738, 97.05016
1228.220, 96.90015
1228.703, 96.34477
1229.185, 95.44662
1229.667, 94.82968
1230.149, 95.10918
1230.631, 95.25546
1231.113, 95.01192
1231.595, 94.59046
1232.077, 94.23809
1232.559, 93.93063
1233.042, 93.55679
1233.524, 93.13634
1234.006, 92.88304
1234.488, 93.30017
1234.970, 93.24741
1235.452, 92.30103
1235.934, 91.20155
1236.416, 91.11864
1236.898, 91.59162
1237.381, 91.54983
1237.863, 90.96400
1238.345, 90.46183
1238.827, 90.37305
1239.309, 90.16332
1239.791, 89.63384
1240.273, 89.19435
1240.755, 89.65929
1241.238, 90.48904
1241.720, 90.66367
1242.202, 90.13126
1242.684, 89.43002
1243.166, 88.31086
1243.648, 87.83028
1244.130, 88.34093
1244.612, 89.12508
1245.094, 89.26477
1245.577, 89.05222
1246.059, 88.88859
1246.541, 88.80959
1247.023, 88.79042
1247.505, 88.92719
1247.987, 88.80283
1248.469, 88.28288
1248.951, 87.64320
1249.433, 87.23319
1249.916, 86.91373
1250.398, 86.54613
1250.880, 86.10988
1251.362, 85.54135
1251.844, 84.78394
1252.326, 84.20037
1252.808, 83.92728
1253.290, 83.61704
1253.773, 82.78730
1254.255, 81.80625
1254.737, 80.97502
1255.219, 80.33781
1255.701, 79.96832
1256.183, 79.92006
1256.665, 79.65295
1257.147, 79.02393
1257.630, 78.28941
1258.112, 77.62003
1258.594, 77.00506
1259.076, 76.38002
1259.558, 75.79713
1260.040, 75.69568
1260.522, 76.06316
1261.004, 75.58903
1261.486, 73.83824
1261.969, 72.23767
1262.451, 72.27213
1262.933, 72.42591
1263.415, 71.51775
1263.897, 69.97653
1264.379, 69.37968
1264.861, 69.58084
1265.343, 69.55367
1265.825, 69.08434
1266.308, 68.33423
1266.790, 66.94292
1267.272, 65.82529
1267.754, 65.51983
1268.236, 65.69029
1268.718, 65.53256
1269.200, 65.08144
1269.682, 64.38941
1270.165, 63.42090
1270.647, 62.65907
1271.129, 62.40255
1271.611, 62.28492
1272.093, 62.18938
1272.575, 62.15932
1273.057, 62.54369
1273.539, 62.99200
1274.021, 62.53463
1274.504, 60.89602
1274.986, 59.81244
1275.468, 59.85612
1275.950, 59.87724
1276.432, 59.51299
1276.914, 59.00981
1277.396, 58.60015
1277.878, 58.37703
1278.360, 58.63223
1278.843, 59.42950
1279.325, 59.60816
1279.807, 58.92000
1280.289, 58.38267
1280.771, 58.30432
1281.253, 58.37688
1281.735, 58.23212
1282.217, 58.03211
1282.700, 58.02998
1283.182, 58.20292
1283.664, 57.93173
1284.146, 57.14770
1284.628, 56.74051
1285.110, 56.97783
1285.592, 57.39308
1286.074, 57.76360
1286.557, 57.97010
1287.039, 57.89036
1287.521, 57.57339
1288.003, 57.06702
1288.485, 56.40418
1288.967, 55.96379
1289.449, 55.82637
1289.931, 55.95473
1290.413, 56.88278
1290.896, 57.40047
1291.378, 56.74339
1291.860, 55.48067
1292.342, 55.11725
1292.824, 55.38300
1293.306, 55.24087
1293.788, 54.47224
1294.270, 53.98717
1294.752, 54.51658
1295.235, 54.87514
1295.717, 54.65597
1296.199, 54.27564
1296.681, 54.56108
1297.163, 55.15570
1297.645, 55.45490
1298.127, 55.37904
1298.609, 54.98294
1299.092, 54.10417
1299.574, 53.41606
1300.056, 53.04540
1300.538, 53.00142
1301.020, 53.72121
1301.502, 54.47573
1301.984, 54.22203
1302.466, 53.02522
1302.948, 52.49479
1303.431, 52.76862
1303.913, 52.77787
1304.395, 52.34881
1304.877, 51.45308
##END=



