##NAMES=Natroboltwoodite
##RRUFFID=R060880
##IDEAL CHEMISTRY=Na(U^6+^O_2_)(SiO_3_OH)&#183;H_2_O
##LOCALITY=Alluaiv Mountain, Lovozero, Russia
##OWNER=RRUFF
##SOURCE=Michael Scott
##DESCRIPTION=Pale yellow massive, X-ray diffraction indicates that this is amorphous
##STATUS=The identification of this mineral is not yet confirmed.
##URL=rruff.info/R060880
166.8464, 1098.548
167.3285, 1108.445
167.8106, 1116.448
168.2927, 1121.643
168.7749, 1125.384
169.2570, 1129.606
169.7391, 1134.481
170.2212, 1136.766
170.7033, 1131.527
171.1854, 1122.194
171.6676, 1117.506
172.1497, 1124.572
172.6318, 1133.751
173.1139, 1133.100
173.5960, 1121.407
174.0781, 1110.139
174.5603, 1107.559
175.0424, 1110.919
175.5245, 1114.854
176.0066, 1121.146
176.4887, 1125.997
176.9708, 1122.884
177.4530, 1110.259
177.9351, 1098.493
178.4172, 1096.100
178.8993, 1099.061
179.3814, 1100.571
179.8635, 1096.791
180.3457, 1091.812
180.8278, 1091.253
181.3099, 1095.654
181.7920, 1101.964
182.2741, 1109.900
182.7562, 1118.277
183.2384, 1125.018
183.7205, 1127.927
184.2026, 1129.795
184.6847, 1135.032
185.1668, 1144.311
185.6489, 1154.058
186.1311, 1162.079
186.6132, 1169.170
187.0953, 1176.445
187.5774, 1184.818
188.0595, 1193.189
188.5416, 1199.587
189.0238, 1203.588
189.5059, 1207.356
189.9880, 1211.837
190.4701, 1216.950
190.9522, 1222.933
191.4343, 1231.763
191.9165, 1240.121
192.3986, 1241.506
192.8807, 1233.742
193.3628, 1227.593
193.8449, 1229.574
194.3270, 1236.562
194.8092, 1245.545
195.2913, 1257.051
195.7734, 1268.888
196.2555, 1276.428
196.7376, 1277.989
197.2197, 1282.462
197.7019, 1298.533
198.1840, 1319.211
198.6661, 1336.293
199.1482, 1346.974
199.6303, 1353.702
200.1124, 1358.584
200.5946, 1360.732
201.0767, 1365.256
201.5588, 1378.271
202.0409, 1393.990
202.5230, 1406.041
203.0051, 1411.438
203.4873, 1414.360
203.9694, 1420.539
204.4515, 1430.677
204.9336, 1439.984
205.4157, 1445.642
205.8978, 1449.540
206.3800, 1453.716
206.8621, 1459.260
207.3442, 1464.016
207.8263, 1464.371
208.3084, 1459.641
208.7905, 1456.459
209.2727, 1461.248
209.7548, 1467.182
210.2369, 1466.080
210.7190, 1454.280
211.2011, 1440.700
211.6832, 1435.005
212.1654, 1437.629
212.6475, 1441.740
213.1296, 1446.970
213.6117, 1451.262
214.0938, 1452.108
214.5760, 1448.521
215.0581, 1443.760
215.5402, 1441.419
216.0223, 1441.505
216.5044, 1439.549
216.9865, 1433.784
217.4687, 1425.391
217.9508, 1415.436
218.4329, 1403.776
218.9150, 1391.819
219.3971, 1379.689
219.8792, 1367.580
220.3614, 1359.195
220.8435, 1360.042
221.3256, 1360.732
221.8077, 1349.987
222.2898, 1326.149
222.7719, 1302.673
223.2541, 1289.202
223.7362, 1284.300
224.2183, 1280.621
224.7004, 1277.672
225.1825, 1273.932
225.6646, 1268.364
226.1468, 1260.992
226.6289, 1251.451
227.1110, 1238.177
227.5931, 1222.341
228.0752, 1207.842
228.5573, 1195.519
229.0395, 1184.685
229.5216, 1174.448
230.0037, 1164.803
230.4858, 1156.601
230.9679, 1149.457
231.4500, 1144.118
231.9322, 1143.649
232.4143, 1150.673
232.8964, 1156.973
233.3785, 1153.025
233.8606, 1140.671
234.3427, 1128.251
234.8249, 1116.239
235.3070, 1106.404
235.7891, 1103.395
236.2712, 1109.119
236.7533, 1114.243
237.2354, 1108.311
237.7176, 1093.902
238.1997, 1082.681
238.6818, 1077.883
239.1639, 1076.776
239.6460, 1078.097
240.1281, 1081.997
240.6103, 1082.698
241.0924, 1073.384
241.5745, 1056.487
242.0566, 1045.406
242.5387, 1044.888
243.0208, 1047.826
243.5030, 1048.658
243.9851, 1047.517
244.4672, 1047.503
244.9493, 1051.674
245.4314, 1058.413
245.9135, 1060.429
246.3957, 1055.019
246.8778, 1047.593
247.3599, 1038.920
247.8420, 1030.097
248.3241, 1025.847
248.8062, 1029.694
249.2884, 1038.992
249.7705, 1044.308
250.2526, 1043.911
250.7347, 1042.485
251.2168, 1040.006
251.6989, 1037.719
252.1811, 1039.371
252.6632, 1047.509
253.1453, 1057.821
253.6274, 1058.827
254.1095, 1042.587
254.5916, 1032.273
255.0738, 1036.186
255.5559, 1047.170
256.0380, 1056.286
256.5201, 1060.730
257.0022, 1061.908
257.4843, 1061.682
257.9665, 1057.249
258.4486, 1057.465
258.9307, 1069.501
259.4128, 1082.392
259.8949, 1084.390
260.3770, 1073.868
260.8592, 1060.232
261.3413, 1054.891
261.8234, 1061.077
262.3055, 1065.608
262.7876, 1065.743
263.2697, 1066.599
263.7519, 1072.141
264.2340, 1081.927
264.7161, 1092.706
265.1982, 1101.981
265.6803, 1110.266
266.1624, 1111.946
266.6446, 1098.226
267.1267, 1087.521
267.6088, 1087.932
268.0909, 1097.114
268.5730, 1109.471
269.0551, 1122.044
269.5373, 1134.020
270.0194, 1136.733
270.5015, 1114.575
270.9836, 1099.324
271.4657, 1100.911
271.9478, 1111.614
272.4300, 1120.303
272.9121, 1121.277
273.3942, 1117.005
273.8763, 1114.823
274.3584, 1115.858
274.8405, 1117.363
275.3227, 1120.564
275.8048, 1123.149
276.2869, 1122.052
276.7690, 1116.307
277.2511, 1109.562
277.7332, 1108.401
278.2154, 1115.390
278.6975, 1120.040
279.1796, 1118.028
279.6617, 1115.469
280.1438, 1116.535
280.6259, 1121.630
281.1081, 1127.584
281.5902, 1131.601
282.0723, 1133.674
282.5544, 1134.186
283.0365, 1133.636
283.5186, 1130.770
284.0008, 1122.432
284.4829, 1110.447
284.9650, 1101.809
285.4471, 1104.174
285.9292, 1114.496
286.4113, 1118.629
286.8935, 1113.583
287.3756, 1107.616
287.8577, 1105.425
288.3398, 1105.890
288.8219, 1106.994
289.3040, 1109.099
289.7862, 1110.751
290.2683, 1109.007
290.7504, 1103.265
291.2325, 1098.051
291.7146, 1095.909
292.1967, 1095.873
292.6789, 1096.178
293.1610, 1095.958
293.6431, 1097.030
294.1252, 1101.938
294.6073, 1109.996
295.0894, 1116.915
295.5716, 1121.222
296.0537, 1123.192
296.5358, 1123.097
297.0179, 1119.943
297.5000, 1117.871
297.9821, 1118.944
298.4643, 1122.130
298.9464, 1124.985
299.4285, 1126.500
299.9106, 1129.500
300.3927, 1139.456
300.8748, 1158.987
301.3570, 1172.136
301.8391, 1173.259
302.3212, 1169.809
302.8033, 1167.294
303.2854, 1166.690
303.7675, 1168.279
304.2497, 1172.969
304.7318, 1181.264
305.2139, 1185.452
305.6960, 1182.855
306.1781, 1179.448
306.6602, 1176.739
307.1424, 1175.402
307.6245, 1177.054
308.1066, 1183.244
308.5887, 1192.462
309.0708, 1196.054
309.5529, 1187.805
310.0351, 1180.800
310.5172, 1178.706
310.9993, 1177.809
311.4814, 1173.001
311.9635, 1162.387
312.4456, 1149.499
312.9278, 1141.750
313.4099, 1144.466
313.8920, 1140.964
314.3741, 1125.330
314.8562, 1107.874
315.3383, 1094.965
315.8205, 1087.527
316.3026, 1082.948
316.7847, 1079.430
317.2668, 1077.284
317.7489, 1072.884
318.2310, 1065.184
318.7132, 1056.125
319.1953, 1044.843
319.6774, 1032.808
320.1595, 1023.220
320.6416, 1018.115
321.1237, 1016.823
321.6059, 1019.096
322.0880, 1028.299
322.5701, 1032.231
323.0522, 1018.208
323.5343, 997.5615
324.0164, 985.1795
324.4986, 987.7605
324.9807, 993.9009
325.4628, 990.6950
325.9449, 978.7103
326.4270, 969.0673
326.9091, 966.4509
327.3913, 967.2772
327.8734, 966.2534
328.3555, 963.2485
328.8376, 959.2819
329.3197, 953.0650
329.8018, 946.5583
330.2840, 944.4388
330.7661, 948.3746
331.2482, 952.4375
331.7303, 949.5496
332.2124, 938.9209
332.6945, 930.0532
333.1767, 924.0615
333.6588, 919.6694
334.1409, 916.3667
334.6230, 913.9084
335.1051, 911.8825
335.5873, 910.4326
336.0694, 909.1913
336.5515, 903.7301
337.0336, 889.3851
337.5157, 876.8849
337.9979, 869.8504
338.4800, 865.8947
338.9621, 861.1545
339.4442, 854.0093
339.9263, 846.1060
340.4084, 841.0764
340.8906, 840.9175
341.3727, 840.1083
341.8548, 838.5417
342.3369, 836.3397
342.8190, 833.1478
343.3011, 829.1704
343.7833, 825.4487
344.2654, 822.9728
344.7475, 821.7679
345.2296, 821.4107
345.7117, 824.0908
346.1938, 825.0209
346.6760, 820.3240
347.1581, 812.7351
347.6402, 807.8596
348.1223, 809.4415
348.6044, 814.6071
349.0865, 817.3770
349.5687, 817.4979
350.0508, 816.1904
350.5329, 811.3919
351.0150, 806.6454
351.4971, 806.8889
351.9792, 814.4553
352.4614, 820.8392
352.9435, 817.7033
353.4256, 807.5172
353.9077, 800.7215
354.3898, 801.0607
354.8719, 803.0676
355.3541, 798.2567
355.8362, 786.8596
356.3183, 780.2379
356.8004, 785.5629
357.2825, 794.1494
357.7646, 796.6072
358.2468, 792.6352
358.7289, 788.1828
359.2110, 787.6997
359.6931, 790.8261
360.1752, 792.3716
360.6573, 792.2109
361.1395, 790.9220
361.6216, 787.0261
362.1037, 782.4861
362.5858, 780.9632
363.0679, 784.0267
363.5500, 789.0829
364.0322, 790.5524
364.5143, 784.0512
364.9964, 781.6660
365.4785, 785.1021
365.9606, 790.8148
366.4427, 797.9651
366.9249, 805.5391
367.4070, 811.1254
367.8891, 811.9578
368.3712, 808.1132
368.8533, 804.6636
369.3354, 799.6365
369.8176, 797.8786
370.2997, 803.7579
370.7818, 813.1421
371.2639, 819.2217
371.7460, 818.2917
372.2281, 814.6393
372.7103, 815.0606
373.1924, 820.0400
373.6745, 823.9916
374.1566, 823.5234
374.6387, 822.5822
375.1208, 826.6524
375.6030, 836.7318
376.0851, 844.4907
376.5672, 843.4367
377.0493, 837.6608
377.5314, 835.0663
378.0135, 837.0258
378.4957, 840.7969
378.9778, 844.4380
379.4599, 847.8670
379.9420, 850.2563
380.4241, 852.3361
380.9063, 852.6918
381.3884, 848.1001
381.8705, 841.0197
382.3526, 838.4233
382.8347, 844.4034
383.3168, 855.0010
383.7990, 859.0090
384.2811, 847.1373
384.7632, 840.8972
385.2453, 844.7151
385.7274, 851.4788
386.2095, 855.4475
386.6917, 855.7621
387.1738, 855.2252
387.6559, 857.5090
388.1380, 863.1566
388.6201, 863.4380
389.1022, 852.6072
389.5844, 842.7720
390.0665, 838.2667
390.5486, 837.4616
391.0307, 837.6219
391.5128, 837.7816
391.9949, 837.7088
392.4771, 836.3729
392.9592, 833.3944
393.4413, 832.7387
393.9234, 838.0110
394.4055, 844.2664
394.8876, 845.6028
395.3698, 841.4150
395.8519, 837.5759
396.3340, 838.6414
396.8161, 841.5450
397.2982, 839.8439
397.7803, 832.3709
398.2625, 825.5238
398.7446, 826.2106
399.2267, 833.6467
399.7088, 832.2195
400.1909, 812.2827
400.6730, 793.8921
401.1552, 786.0979
401.6373, 786.2404
402.1194, 789.4448
402.6015, 793.7725
403.0836, 797.8890
403.5657, 798.8466
404.0479, 793.6594
404.5300, 790.7190
405.0121, 793.8884
405.4942, 795.9061
405.9763, 791.1392
406.4584, 780.4305
406.9406, 768.9515
407.4227, 760.3584
407.9048, 754.6317
408.3869, 752.1849
408.8690, 755.7184
409.3511, 757.5684
409.8333, 753.2495
410.3154, 746.6559
410.7975, 742.3496
411.2796, 741.7884
411.7617, 742.3967
412.2438, 742.4910
412.7260, 741.8694
413.2081, 738.4050
413.6902, 729.6528
414.1723, 721.8429
414.6544, 724.8755
415.1365, 737.3633
415.6187, 744.2214
416.1008, 738.2827
416.5829, 728.9020
417.0650, 723.0902
417.5471, 720.7946
418.0292, 720.0269
418.5114, 719.9691
418.9935, 720.1113
419.4756, 718.6974
419.9577, 714.2252
420.4398, 710.0782
420.9219, 705.7115
421.4041, 702.1794
421.8862, 700.8795
422.3683, 701.7404
422.8504, 703.1293
423.3325, 703.6834
423.8146, 703.4380
424.2968, 700.9788
424.7789, 694.8105
425.2610, 688.2505
425.7431, 681.9378
426.2252, 676.1179
426.7073, 670.9799
427.1895, 666.4134
427.6716, 663.1345
428.1537, 662.3693
428.6358, 664.0401
429.1179, 666.8251
429.6000, 671.8275
430.0822, 675.8076
430.5643, 674.1943
431.0464, 667.3437
431.5285, 661.4828
432.0106, 659.4141
432.4927, 658.3042
432.9749, 654.2291
433.4570, 647.9133
433.9391, 644.8061
434.4212, 648.9204
434.9033, 657.7720
435.3854, 661.6772
435.8676, 654.1978
436.3497, 650.1046
436.8318, 652.9633
437.3139, 658.1144
437.7960, 662.0188
438.2781, 663.7457
438.7603, 663.5409
439.2424, 660.9567
439.7245, 655.9646
440.2066, 654.0906
440.6887, 659.3846
441.1708, 662.1499
441.6530, 655.6202
442.1351, 645.8758
442.6172, 642.3578
443.0993, 649.6011
443.5814, 658.4287
444.0635, 656.8373
444.5457, 646.4924
445.0278, 641.7834
445.5099, 648.1116
445.9920, 656.6659
446.4741, 656.3411
446.9562, 648.0229
447.4384, 642.9017
447.9205, 645.2864
448.4026, 649.4455
448.8847, 651.5225
449.3668, 651.6752
449.8489, 651.1121
450.3311, 650.4172
450.8132, 649.5471
451.2953, 648.2737
451.7774, 644.4836
452.2595, 643.7098
452.7416, 649.2628
453.2238, 655.0634
453.7059, 657.1844
454.1880, 655.4540
454.6701, 651.5783
455.1522, 645.7096
455.6343, 639.0854
456.1165, 638.3639
456.5986, 646.1048
457.0807, 653.6880
457.5628, 657.2244
458.0449, 659.2844
458.5270, 662.6398
459.0092, 668.0246
459.4913, 672.5513
459.9734, 674.3519
460.4555, 673.9120
460.9376, 671.9996
461.4197, 668.6508
461.9019, 664.6876
462.3840, 659.9758
462.8661, 654.9042
463.3482, 654.4557
463.8303, 661.3877
464.3124, 669.4014
464.7946, 679.3155
465.2767, 687.9731
465.7588, 690.0923
466.2409, 684.2948
466.7230, 675.2077
467.2051, 668.6230
467.6873, 664.1373
468.1694, 664.2018
468.6515, 674.5875
469.1336, 683.6916
469.6157, 688.0624
470.0978, 688.0883
470.5800, 684.1933
471.0621, 674.9644
471.5442, 665.6088
472.0263, 663.9437
472.5084, 669.5588
472.9905, 674.7731
473.4727, 678.0700
473.9548, 679.5573
474.4369, 679.0608
474.9190, 676.7466
475.4011, 673.1301
475.8832, 666.9482
476.3654, 660.6168
476.8475, 654.7256
477.3296, 650.1100
477.8117, 649.3173
478.2938, 653.9158
478.7759, 661.6654
479.2581, 667.3849
479.7402, 672.4527
480.2223, 672.7120
480.7044, 665.2206
481.1865, 656.0648
481.6686, 647.5912
482.1508, 640.6201
482.6329, 636.1289
483.1150, 635.2145
483.5971, 636.8357
484.0792, 638.4083
484.5613, 639.8491
485.0435, 641.8718
485.5256, 646.6801
486.0077, 650.5584
486.4898, 647.3575
486.9719, 635.7461
487.4540, 628.7539
487.9362, 636.9465
488.4183, 649.0297
488.9004, 650.5350
489.3825, 641.8212
489.8646, 633.7227
490.3467, 633.2548
490.8289, 638.6415
491.3110, 642.4389
491.7931, 642.8888
492.2752, 643.9914
492.7573, 649.4493
493.2394, 653.1153
493.7216, 647.0485
494.2037, 632.8125
494.6858, 621.6471
495.1679, 624.8867
495.6500, 638.3493
496.1321, 642.5787
496.6143, 634.6824
497.0964, 626.3907
497.5785, 620.9310
498.0606, 618.4442
498.5427, 620.6854
499.0248, 629.3247
499.5070, 634.0147
499.9891, 624.6302
500.4712, 610.7491
500.9533, 606.9446
501.4355, 614.1155
501.9176, 623.2837
502.3997, 628.7615
502.8818, 630.5174
503.3639, 628.1694
503.8460, 613.4458
504.3282, 605.2141
504.8103, 609.9112
505.2924, 618.4821
505.7745, 623.6337
506.2566, 624.2650
506.7387, 623.1436
507.2209, 622.8900
507.7030, 622.9515
508.1851, 619.1942
508.6672, 608.7908
509.1493, 603.1119
509.6314, 611.3679
510.1136, 624.7635
510.5957, 632.1300
511.0778, 632.1172
511.5599, 629.2336
512.0420, 623.2210
512.5241, 616.6588
513.0062, 613.3270
513.4883, 613.3591
513.9705, 614.1075
514.4526, 613.7120
514.9347, 612.4832
515.4168, 612.0676
515.8989, 614.0045
516.3810, 614.6621
516.8632, 610.9684
517.3453, 607.9265
517.8274, 611.5960
518.3095, 620.9839
518.7916, 627.9630
519.2737, 623.5803
519.7559, 612.4004
520.2380, 610.9551
520.7201, 621.5048
521.2022, 630.8793
521.6843, 634.0050
522.1664, 632.7648
522.6486, 630.0924
523.1307, 625.6508
523.6128, 621.5240
524.0949, 616.0948
524.5770, 612.8162
525.0591, 616.9410
525.5413, 627.2143
526.0234, 636.9363
526.5055, 642.0712
526.9876, 643.6126
527.4697, 644.7532
527.9518, 644.8724
528.4340, 645.7693
528.9161, 648.4120
529.3982, 651.0727
529.8803, 651.5318
530.3624, 650.7736
530.8445, 652.5741
531.3267, 660.2902
531.8088, 670.9115
532.2909, 679.3030
532.7730, 685.4918
533.2551, 690.8536
533.7372, 695.3288
534.2194, 699.9831
534.7015, 706.8989
535.1836, 716.6304
535.6657, 724.1589
536.1478, 729.0693
536.6299, 731.5341
537.1121, 729.4584
537.5942, 725.1887
538.0763, 724.0537
538.5584, 728.5238
539.0405, 735.3713
539.5226, 738.6056
540.0048, 737.2747
540.4869, 736.4347
540.9690, 736.5687
541.4511, 736.9581
541.9332, 738.5989
542.4153, 740.0988
542.8975, 737.8613
543.3796, 727.8281
543.8617, 718.9417
544.3438, 722.3397
544.8259, 732.9373
545.3080, 735.1337
545.7902, 724.8842
546.2723, 712.1777
546.7544, 707.9304
547.2365, 712.7565
547.7186, 708.5789
548.2007, 684.5227
548.6829, 665.4938
549.1650, 658.6579
549.6471, 659.2017
550.1292, 663.0441
550.6113, 668.6096
551.0934, 673.5384
551.5756, 677.1461
552.0577, 678.5972
552.5398, 670.6242
553.0219, 649.4819
553.5040, 632.5876
553.9861, 630.7977
554.4683, 637.5524
554.9504, 639.1177
555.4325, 632.9725
555.9146, 629.3668
556.3967, 636.2961
556.8788, 643.9114
557.3610, 640.6789
557.8431, 628.0726
558.3252, 616.6449
558.8073, 613.2978
559.2894, 615.0336
559.7715, 612.1519
560.2537, 600.9349
560.7358, 594.2459
561.2179, 597.2935
561.7000, 602.1459
562.1821, 605.8675
562.6642, 607.8630
563.1464, 607.0873
563.6285, 601.6176
564.1106, 594.7582
564.5927, 589.7377
565.0748, 586.3508
565.5569, 584.3785
566.0391, 584.0168
566.5212, 583.0729
567.0033, 578.0803
567.4854, 567.6422
567.9675, 564.3327
568.4496, 575.4290
568.9318, 584.2165
569.4139, 582.5103
569.8960, 577.2429
570.3781, 578.2390
570.8602, 587.7444
571.3423, 597.7618
571.8245, 600.0200
572.3066, 595.7542
572.7887, 590.7670
573.2708, 585.0837
573.7529, 579.1579
574.2350, 571.8207
574.7172, 565.1709
575.1993, 564.2076
575.6814, 571.5804
576.1635, 577.0630
576.6456, 577.6982
577.1277, 576.0679
577.6099, 573.3303
578.0920, 570.2279
578.5741, 568.0152
579.0562, 567.4222
579.5383, 568.2001
580.0204, 570.0179
580.5026, 573.2311
580.9847, 575.9965
581.4668, 578.6998
581.9489, 580.1073
582.4310, 578.6878
582.9132, 575.3759
583.3953, 573.0672
583.8774, 572.9617
584.3596, 573.4952
584.8417, 574.9996
585.3238, 576.0622
585.8059, 572.3096
586.2880, 563.2258
586.7701, 555.8596
587.2523, 557.6520
587.7344, 568.0354
588.2165, 575.8121
588.6986, 581.1406
589.1807, 583.3884
589.6628, 580.5512
590.1450, 576.2040
590.6271, 572.8041
591.1092, 570.8313
591.5913, 570.5460
592.0734, 573.6620
592.5555, 577.7234
593.0377, 578.8138
593.5198, 577.2406
594.0019, 575.6533
594.4840, 575.1595
594.9661, 574.8706
595.4482, 573.2503
595.9304, 569.4749
596.4125, 567.4521
596.8946, 567.8454
597.3767, 569.0232
597.8588, 572.0225
598.3409, 574.8028
598.8231, 573.7176
599.3052, 567.6326
599.7873, 561.4474
600.2694, 561.7706
600.7515, 566.2913
601.2336, 564.8239
601.7158, 555.7457
602.1979, 548.4344
602.6800, 548.6451
603.1621, 553.8922
603.6442, 557.7582
604.1263, 560.2187
604.6085, 561.5339
605.0906, 560.7916
605.5727, 559.7180
606.0548, 559.5308
606.5369, 560.0062
607.0190, 560.3326
607.5012, 560.1002
607.9833, 559.4718
608.4654, 559.2273
608.9475, 559.3363
609.4296, 556.1621
609.9117, 547.1144
610.3939, 539.7709
610.8760, 541.2312
611.3581, 549.1204
611.8402, 553.3704
612.3223, 551.5488
612.8044, 549.2798
613.2866, 548.6655
613.7687, 548.0417
614.2508, 545.6630
614.7329, 541.4998
615.2150, 536.4095
615.6971, 530.7585
616.1793, 525.1204
616.6614, 520.8134
617.1435, 517.6815
617.6256, 517.3624
618.1077, 522.9241
618.5898, 527.8602
619.0720, 524.5576
619.5541, 515.1826
620.0362, 509.3441
620.5183, 513.2169
621.0004, 515.7795
621.4825, 507.9347
621.9647, 497.2342
622.4468, 495.7057
622.9289, 504.5280
623.4110, 514.2797
623.8931, 516.5327
624.3752, 512.7839
624.8574, 511.0833
625.3395, 512.3785
625.8216, 512.7627
626.3037, 511.2241
626.7858, 508.4032
627.2679, 503.7590
627.7501, 497.7703
628.2322, 494.8840
628.7143, 499.6884
629.1964, 504.5127
629.6785, 504.0437
630.1606, 500.1718
630.6428, 495.3834
631.1249, 490.7172
631.6070, 488.5198
632.0891, 491.9966
632.5712, 500.4766
633.0533, 506.0633
633.5355, 508.5852
634.0176, 508.5964
634.4997, 503.9355
634.9818, 498.4516
635.4639, 495.7199
635.9460, 495.8026
636.4282, 496.3743
636.9103, 496.7851
637.3924, 497.3420
637.8745, 498.0548
638.3566, 499.1265
638.8387, 501.7115
639.3209, 505.9520
639.8030, 509.0303
640.2851, 507.2964
640.7672, 500.8962
641.2493, 495.1219
641.7314, 489.7358
642.2136, 485.3587
642.6957, 481.2508
643.1778, 478.9495
643.6599, 479.8767
644.1420, 484.1131
644.6241, 491.1526
645.1063, 506.3452
645.5884, 519.2979
646.0705, 519.5428
646.5526, 511.7056
647.0347, 506.0407
647.5168, 505.9065
647.9990, 507.7965
648.4811, 508.0511
648.9632, 506.6413
649.4453, 501.6431
649.9274, 490.2494
650.4095, 481.7482
650.8917, 481.7666
651.3738, 484.6993
651.8559, 483.3177
652.3380, 477.1350
652.8201, 475.4564
653.3022, 486.0048
653.7844, 497.3113
654.2665, 500.3947
654.7486, 498.1449
655.2307, 497.0396
655.7128, 499.0328
656.1949, 500.9805
656.6771, 498.8691
657.1592, 493.0710
657.6413, 488.8061
658.1234, 486.1223
658.6055, 484.9037
659.0876, 485.9695
659.5698, 487.8317
660.0519, 488.1842
660.5340, 486.9024
661.0161, 487.3833
661.4982, 491.9151
661.9803, 496.7872
662.4625, 501.3776
662.9446, 504.2585
663.4267, 501.8329
663.9088, 493.8629
664.3909, 486.3190
664.8730, 485.9983
665.3552, 491.4702
665.8373, 495.1050
666.3194, 496.7573
666.8015, 497.1503
667.2836, 495.4643
667.7657, 493.8607
668.2479, 496.2857
668.7300, 502.9759
669.2121, 505.3106
669.6942, 498.7455
670.1763, 492.0323
670.6584, 487.9270
671.1406, 486.2946
671.6227, 487.3273
672.1048, 490.7172
672.5869, 494.9391
673.0690, 499.2893
673.5511, 503.1469
674.0333, 504.4163
674.5154, 503.0703
674.9975, 501.4934
675.4796, 499.9388
675.9617, 499.5840
676.4438, 502.6080
676.9260, 509.2828
677.4081, 511.4490
677.8902, 505.9960
678.3723, 500.4328
678.8544, 494.2058
679.3365, 490.1234
679.8187, 492.3658
680.3008, 499.9465
680.7829, 506.4695
681.2650, 506.9410
681.7471, 505.4227
682.2292, 509.1876
682.7114, 516.6171
683.1935, 519.7701
683.6756, 516.6763
684.1577, 510.6131
684.6398, 503.4829
685.1219, 495.9831
685.6041, 494.7100
686.0862, 506.3059
686.5683, 513.6610
687.0504, 513.1267
687.5325, 510.0605
688.0146, 506.7626
688.4968, 503.9681
688.9789, 503.0086
689.4610, 505.3593
689.9431, 507.8333
690.4252, 506.0593
690.9073, 503.1514
691.3895, 507.1921
691.8716, 517.9669
692.3537, 524.4645
692.8358, 518.4412
693.3179, 504.8009
693.8000, 497.8334
694.2822, 499.4414
694.7643, 500.9413
695.2464, 500.0384
695.7285, 501.0559
696.2106, 509.4424
696.6927, 520.7456
697.1749, 525.7133
697.6570, 520.7703
698.1391, 515.9453
698.6212, 515.2985
699.1033, 516.3629
699.5854, 516.9734
700.0676, 517.2246
700.5497, 518.3911
701.0318, 521.0897
701.5139, 523.5630
701.9960, 522.8645
702.4781, 519.2271
702.9603, 515.9530
703.4424, 512.8078
703.9245, 511.7094
704.4066, 514.4131
704.8887, 518.9128
705.3708, 521.5200
705.8530, 521.5786
706.3351, 522.2790
706.8172, 524.3765
707.2993, 526.4404
707.7814, 528.1405
708.2635, 529.2798
708.7457, 529.5371
709.2278, 528.8956
709.7099, 527.9218
710.1920, 526.1896
710.6741, 524.8372
711.1563, 526.6146
711.6384, 530.9531
712.1205, 534.3303
712.6026, 535.5544
713.0847, 535.9618
713.5668, 536.4484
714.0490, 537.1030
714.5311, 543.6481
715.0132, 565.1465
715.4953, 577.2504
715.9774, 568.4229
716.4595, 554.9774
716.9417, 547.0372
717.4238, 544.8992
717.9059, 546.4920
718.3880, 552.7030
718.8701, 560.3664
719.3522, 568.6296
719.8344, 576.5865
720.3165, 583.2513
720.7986, 588.3424
721.2807, 591.0175
721.7628, 590.2100
722.2449, 588.6842
722.7271, 594.1288
723.2092, 607.1753
723.6913, 614.3064
724.1734, 611.8994
724.6555, 609.3677
725.1376, 612.9944
725.6198, 620.6403
726.1019, 626.0198
726.5840, 626.8395
727.0661, 630.9626
727.5482, 641.9765
728.0303, 653.5446
728.5125, 663.2711
728.9946, 670.6393
729.4767, 674.2990
729.9588, 673.8652
730.4409, 674.6352
730.9230, 681.9101
731.4052, 692.9965
731.8873, 704.0475
732.3694, 714.6198
732.8515, 722.2695
733.3336, 725.8730
733.8157, 729.2169
734.2979, 737.5734
734.7800, 750.9473
735.2621, 760.8256
735.7442, 765.3113
736.2263, 769.9628
736.7084, 776.7495
737.1906, 783.7657
737.6727, 789.6777
738.1548, 794.4617
738.6369, 798.3058
739.1190, 798.5205
739.6011, 801.0765
740.0833, 810.6710
740.5654, 822.8212
741.0475, 831.3126
741.5296, 836.9376
742.0117, 846.1828
742.4938, 863.6868
742.9760, 883.6642
743.4581, 895.1667
743.9402, 899.8953
744.4223, 910.0394
744.9044, 927.3380
745.3865, 946.2794
745.8687, 963.2539
746.3508, 980.1412
746.8329, 1002.228
747.3150, 1034.789
747.7971, 1057.882
748.2792, 1061.574
748.7614, 1067.175
749.2435, 1081.396
749.7256, 1101.581
750.2077, 1126.208
750.6898, 1154.897
751.1719, 1179.888
751.6541, 1193.400
752.1362, 1205.655
752.6183, 1223.901
753.1004, 1247.948
753.5825, 1279.188
754.0646, 1316.620
754.5468, 1352.282
755.0289, 1377.668
755.5110, 1396.854
755.9931, 1422.589
756.4752, 1455.158
756.9573, 1489.228
757.4395, 1524.852
757.9216, 1558.355
758.4037, 1584.680
758.8858, 1606.568
759.3679, 1636.864
759.8500, 1680.978
760.3322, 1725.813
760.8143, 1771.342
761.2964, 1817.246
761.7785, 1863.986
762.2606, 1911.137
762.7427, 1957.939
763.2249, 2003.980
763.7070, 2051.357
764.1891, 2100.492
764.6712, 2152.539
765.1533, 2211.975
765.6354, 2275.422
766.1176, 2330.657
766.5997, 2374.108
767.0818, 2421.907
767.5639, 2495.658
768.0460, 2588.365
768.5281, 2659.839
769.0103, 2706.381
769.4924, 2760.614
769.9745, 2832.091
770.4566, 2910.513
770.9387, 2985.398
771.4208, 3057.800
771.9030, 3137.704
772.3851, 3233.844
772.8672, 3324.612
773.3493, 3406.272
773.8314, 3483.965
774.3135, 3561.656
774.7957, 3638.096
775.2778, 3709.583
775.7599, 3773.837
776.2420, 3838.329
776.7241, 3913.014
777.2062, 3986.693
777.6884, 4040.175
778.1705, 4080.481
778.6526, 4134.125
779.1347, 4210.231
779.6168, 4287.241
780.0989, 4338.293
780.5811, 4367.598
781.0632, 4397.377
781.5453, 4428.269
782.0274, 4455.172
782.5095, 4476.696
782.9916, 4493.811
783.4738, 4508.021
783.9559, 4518.996
784.4380, 4522.581
784.9201, 4522.628
785.4022, 4508.932
785.8843, 4475.500
786.3665, 4433.440
786.8486, 4390.778
787.3307, 4344.485
787.8128, 4284.759
788.2949, 4205.244
788.7770, 4127.876
789.2592, 4071.811
789.7413, 4017.662
790.2234, 3945.045
790.7055, 3859.298
791.1876, 3776.793
791.6697, 3702.415
792.1519, 3625.417
792.6340, 3534.211
793.1161, 3431.703
793.5982, 3323.795
794.0803, 3211.020
794.5624, 3111.720
795.0446, 3032.179
795.5267, 2956.825
796.0088, 2871.109
796.4909, 2777.373
796.9730, 2692.163
797.4551, 2622.343
797.9373, 2544.957
798.4194, 2444.987
798.9015, 2352.706
799.3836, 2291.819
799.8657, 2247.665
800.3478, 2190.308
800.8300, 2111.187
801.3121, 2042.477
801.7942, 1999.104
802.2763, 1962.993
802.7584, 1927.493
803.2405, 1890.042
803.7227, 1845.870
804.2048, 1795.224
804.6869, 1746.390
805.1690, 1708.316
805.6511, 1672.646
806.1332, 1626.127
806.6154, 1572.132
807.0975, 1519.754
807.5796, 1471.100
808.0617, 1428.884
808.5438, 1396.084
809.0259, 1367.433
809.5081, 1327.522
809.9902, 1273.978
810.4723, 1232.094
810.9544, 1206.753
811.4365, 1182.871
811.9186, 1152.863
812.4008, 1120.550
812.8829, 1092.577
813.3650, 1070.574
813.8471, 1045.690
814.3292, 1014.387
814.8113, 984.7781
815.2935, 956.5407
815.7756, 932.7542
816.2577, 918.3383
816.7398, 911.5110
817.2219, 902.9260
817.7040, 888.5649
818.1862, 872.8053
818.6683, 857.0186
819.1504, 842.1763
819.6325, 832.1041
820.1146, 824.0970
820.5967, 808.5456
821.0789, 781.1100
821.5610, 753.0552
822.0431, 738.4926
822.5252, 733.8687
823.0073, 729.2199
823.4894, 724.4548
823.9716, 723.1712
824.4537, 727.0230
824.9358, 728.2175
825.4179, 717.3399
825.9000, 696.8234
826.3821, 684.9204
826.8643, 683.6527
827.3464, 684.5074
827.8285, 688.6060
828.3106, 690.8449
828.7927, 688.2521
829.2748, 681.1429
829.7570, 669.6317
830.2391, 650.2687
830.7212, 635.7360
831.2033, 627.9030
831.6854, 624.1055
832.1675, 626.0089
832.6497, 629.7180
833.1318, 630.9250
833.6139, 629.0300
834.0960, 625.6520
834.5781, 622.2659
835.0602, 616.9120
835.5424, 605.1740
836.0245, 592.2412
836.5066, 585.7258
836.9887, 585.5172
837.4708, 587.4347
837.9529, 589.6221
838.4351, 589.8953
838.9172, 584.1115
839.3993, 574.1595
839.8814, 565.5634
840.3635, 558.7016
840.8456, 553.8392
841.3278, 551.2169
841.8099, 549.3937
842.2920, 546.6489
842.7741, 543.1106
843.2562, 539.5270
843.7383, 535.4136
844.2205, 533.6341
844.7026, 536.1951
845.1847, 538.4374
845.6668, 537.1239
846.1489, 532.8023
846.6310, 527.1571
847.1132, 518.2424
847.5953, 512.0002
848.0774, 500.6620
848.5595, 500.9202
849.0416, 539.6053
849.5237, 581.6683
850.0059, 575.1466
850.4880, 518.5791
850.9701, 481.6851
851.4522, 509.6933
851.9343, 538.4356
852.4164, 529.4351
852.8986, 506.0336
853.3807, 492.7007
853.8628, 490.2938
854.3449, 489.6373
854.8270, 486.6234
855.3091, 483.6349
855.7913, 484.7654
856.2734, 486.6949
856.7555, 482.3854
857.2376, 473.2776
857.7197, 465.1629
858.2018, 460.0699
858.6840, 459.1640
859.1661, 464.5130
859.6482, 473.8879
860.1303, 481.5950
860.6124, 487.5773
861.0945, 484.5461
861.5767, 469.8270
862.0588, 455.5651
862.5409, 448.9625
863.0230, 448.5104
863.5051, 451.3526
863.9872, 458.7220
864.4694, 463.4554
864.9515, 464.4980
865.4336, 464.8496
865.9157, 464.7956
866.3978, 465.0607
866.8799, 468.0217
867.3621, 472.9743
867.8442, 472.1754
868.3263, 456.5769
868.8084, 447.7583
869.2905, 454.9376
869.7726, 463.9019
870.2548, 465.7816
870.7369, 462.8639
871.2190, 460.1211
871.7011, 458.5992
872.1832, 457.3788
872.6653, 454.3190
873.1475, 453.2004
873.6296, 459.6201
874.1117, 468.1740
874.5938, 470.0760
875.0759, 465.5476
875.5580, 462.6673
876.0402, 466.6976
876.5223, 472.1105
877.0044, 472.4165
877.4865, 469.9276
877.9686, 468.3326
878.4507, 468.2327
878.9329, 471.2898
879.4150, 477.9560
879.8971, 483.4903
880.3792, 481.1717
880.8613, 474.1299
881.3434, 474.6388
881.8256, 482.1389
882.3077, 486.3293
882.7898, 484.8636
883.2719, 484.0675
883.7540, 488.6089
884.2361, 496.0705
884.7183, 500.7852
885.2004, 502.3407
885.6825, 503.4553
886.1646, 504.5336
886.6467, 503.6462
887.1288, 497.8067
887.6110, 493.0229
888.0931, 497.3945
888.5752, 510.2085
889.0573, 517.9124
889.5394, 517.5463
890.0215, 516.6848
890.5037, 512.8928
890.9858, 511.7893
891.4679, 519.5400
891.9500, 530.5924
892.4321, 534.5689
892.9142, 529.1409
893.3964, 527.2611
893.8785, 534.6740
894.3606, 542.4280
894.8427, 548.8436
895.3248, 552.2795
895.8069, 548.7613
896.2891, 540.8026
896.7712, 537.6294
897.2533, 544.6729
897.7354, 550.3078
898.2175, 544.7467
898.6996, 536.8061
899.1818, 535.0396
899.6639, 537.5119
900.1460, 540.5842
900.6281, 542.7011
901.1102, 540.9986
901.5923, 530.1143
902.0745, 519.0495
902.5566, 521.3751
903.0387, 531.4942
903.5208, 538.8688
904.0029, 542.0134
904.4850, 541.5791
904.9672, 537.8472
905.4493, 533.0470
905.9314, 529.7887
906.4135, 527.8931
906.8956, 526.5739
907.3777, 525.9393
907.8599, 526.7292
908.3420, 529.1017
908.8241, 534.4238
909.3062, 544.5430
909.7883, 555.9888
910.2704, 558.8911
910.7526, 552.5872
911.2347, 550.5573
911.7169, 553.8119
912.1990, 558.3804
912.6811, 562.8594
913.1632, 567.9755
913.6453, 575.0910
914.1274, 583.7573
914.6096, 589.1495
915.0917, 589.9738
915.5738, 590.9805
916.0559, 591.8792
916.5380, 594.4389
917.0201, 601.1993
917.5023, 609.1317
917.9844, 611.9584
918.4665, 607.8849
918.9486, 609.2150
919.4307, 620.5482
919.9128, 630.9371
920.3950, 638.4811
920.8771, 644.4984
921.3592, 649.5720
921.8413, 653.8774
922.3234, 657.4957
922.8055, 659.5192
923.2877, 663.6813
923.7698, 672.4285
924.2519, 681.4624
924.7340, 689.9290
925.2161, 696.8929
925.6982, 701.5710
926.1804, 703.8583
926.6625, 703.3587
927.1446, 695.3727
927.6267, 693.4446
928.1088, 709.6298
928.5909, 729.0807
929.0731, 739.2322
929.5552, 743.4883
930.0373, 749.4662
930.5194, 758.7415
931.0015, 767.2678
931.4836, 771.5632
931.9658, 775.4108
932.4479, 782.5410
932.9300, 790.7906
933.4121, 796.7100
933.8942, 801.0390
934.3763, 808.0082
934.8585, 819.1932
935.3406, 827.7442
935.8227, 822.7703
936.3048, 814.7939
936.7869, 821.1759
937.2690, 836.1028
937.7512, 846.6394
938.2333, 850.7780
938.7154, 852.2943
939.1975, 853.3428
939.6796, 853.1263
940.1617, 849.4895
940.6439, 844.0411
941.1260, 841.2021
941.6081, 840.7210
942.0902, 840.6617
942.5723, 840.5082
943.0544, 840.6376
943.5366, 841.1113
944.0187, 842.8564
944.5008, 849.0643
944.9829, 858.7855
945.4650, 864.9212
945.9471, 867.0850
946.4293, 867.8744
946.9114, 868.0811
947.3935, 869.8359
947.8756, 876.2734
948.3577, 875.2741
948.8398, 885.8422
949.3220, 877.9268
949.8041, 874.4805
950.2862, 877.2598
950.7683, 882.2222
951.2504, 887.6826
951.7325, 893.4898
952.2147, 899.8345
952.6968, 902.7941
953.1789, 909.5375
953.6610, 907.9979
954.1431, 907.3707
954.6252, 908.3369
955.1074, 911.0508
955.5895, 916.1317
956.0716, 922.2287
956.5537, 926.3029
957.0358, 927.7219
957.5179, 934.3592
958.0001, 950.5886
958.4822, 960.2719
958.9643, 957.1812
959.4464, 951.3326
959.9285, 949.2151
960.4106, 950.2929
960.8928, 953.5149
961.3749, 960.4663
961.8570, 964.0601
962.3391, 965.0505
962.8212, 961.2104
963.3033, 949.7609
963.7855, 935.5560
964.2676, 920.0252
964.7497, 905.0647
965.2318, 899.0512
965.7139, 909.3785
966.1960, 913.5441
966.6782, 907.4179
967.1603, 900.2819
967.6424, 897.8973
968.1245, 893.7092
968.6066, 877.8363
969.0887, 852.7880
969.5709, 836.9818
970.0530, 840.4315
970.5351, 838.1563
971.0172, 824.6013
971.4993, 809.5442
971.9814, 794.8861
972.4636, 782.5756
972.9457, 777.6346
973.4278, 779.0730
973.9099, 772.1022
974.3920, 742.1303
974.8741, 722.1953
975.3563, 727.8445
975.8384, 734.0252
976.3205, 726.4235
976.8026, 710.8333
977.2847, 694.5387
977.7668, 678.5465
978.2490, 666.9741
978.7311, 663.4124
979.2132, 660.3884
979.6953, 655.9597
980.1774, 651.2828
980.6595, 646.8770
981.1417, 642.8956
981.6238, 640.4286
982.1059, 639.6489
982.5880, 635.3078
983.0701, 622.8774
983.5522, 610.6481
984.0344, 600.8158
984.5165, 593.0731
984.9986, 587.5248
985.4807, 583.7330
985.9628, 581.1749
986.4449, 579.7534
986.9271, 579.0598
987.4092, 581.8934
987.8913, 581.6818
988.3734, 573.1608
988.8555, 562.2982
989.3376, 553.4289
989.8198, 546.7620
990.3019, 542.1624
990.7840, 539.9283
991.2661, 535.5664
991.7482, 522.3565
992.2303, 512.6075
992.7125, 515.4120
993.1946, 522.4694
993.6767, 527.5083
994.1588, 529.4493
994.6409, 526.9459
995.1230, 518.8690
995.6052, 513.7194
996.0873, 518.2496
996.5694, 523.1511
997.0515, 523.5539
997.5336, 521.3649
998.0157, 518.1460
998.4979, 514.3184
998.9800, 509.7483
999.4621, 503.9938
999.9442, 500.4950
1000.426, 503.7567
1000.908, 506.3471
1001.391, 502.7765
1001.873, 496.9900
1002.355, 493.6277
1002.837, 492.0076
1003.319, 488.0693
1003.801, 479.9128
1004.283, 474.1144
1004.765, 476.7819
1005.247, 479.1025
1005.730, 474.0819
1006.212, 467.0294
1006.694, 463.0512
1007.176, 462.6046
1007.658, 465.7306
1008.140, 473.7483
1008.622, 477.9136
1009.104, 470.5818
1009.587, 462.5856
1010.069, 460.2363
1010.551, 460.7824
1011.033, 461.4119
1011.515, 461.8571
1011.997, 463.2340
1012.479, 466.6853
1012.961, 466.6674
1013.443, 457.5123
1013.926, 448.1306
1014.408, 442.8430
1014.890, 440.5341
1015.372, 440.7465
1015.854, 442.5872
1016.336, 443.9578
1016.818, 444.0437
1017.300, 445.0432
1017.783, 449.3616
1018.265, 452.9293
1018.747, 454.1737
1019.229, 453.1638
1019.711, 447.6762
1020.193, 440.3262
1020.675, 438.9535
1021.157, 447.0593
1021.639, 452.3119
1022.122, 448.9750
1022.604, 443.9689
1023.086, 439.4711
1023.568, 435.6019
1024.050, 431.3402
1024.532, 427.8827
1025.014, 429.0414
1025.496, 436.9106
1025.979, 441.9465
1026.461, 439.0070
1026.943, 436.1842
1027.425, 437.0105
1027.907, 438.9063
1028.389, 439.0708
1028.871, 438.6118
1029.353, 441.7074
1029.835, 450.7165
1030.318, 453.2526
1030.800, 437.6039
1031.282, 427.9578
1031.764, 439.0242
1032.246, 451.7888
1032.728, 449.9771
1033.210, 439.6191
1033.692, 435.2409
1034.174, 439.0095
1034.657, 442.4322
1035.139, 446.3344
1035.621, 447.5060
1036.103, 442.1113
1036.585, 436.9298
1037.067, 437.4244
1037.549, 440.7855
1038.031, 440.9076
1038.514, 436.5710
1038.996, 436.5428
1039.478, 445.9075
1039.960, 451.7438
1040.442, 449.9617
1040.924, 447.3223
1041.406, 447.3546
1041.888, 448.9134
1042.370, 450.5749
1042.853, 452.4558
1043.335, 452.0832
1043.817, 448.3862
1044.299, 444.5155
1044.781, 439.4655
1045.263, 436.5145
1045.745, 436.7073
1046.227, 440.7934
1046.709, 451.7193
1047.192, 468.6207
1047.674, 475.0476
1048.156, 466.8539
1048.638, 461.4685
1049.120, 460.8133
1049.602, 461.7598
1050.084, 462.8107
1050.566, 465.4195
1051.049, 472.1554
1051.531, 481.6214
1052.013, 485.3116
1052.495, 482.3790
1052.977, 478.6576
1053.459, 473.8250
1053.941, 472.6705
1054.423, 477.8295
1054.906, 482.9725
1055.388, 481.4627
1055.870, 475.8105
1056.352, 473.9738
1056.834, 475.9172
1057.316, 477.6077
1057.798, 478.8653
1058.280, 480.5405
1058.762, 482.8456
1059.245, 487.1595
1059.727, 495.3005
1060.209, 503.3346
1060.691, 501.4712
1061.173, 492.1694
1061.655, 489.1783
1062.137, 491.7693
1062.619, 491.6770
1063.101, 487.4548
1063.584, 485.8918
1064.066, 491.5147
1064.548, 498.9249
1065.030, 500.2291
1065.512, 497.7213
1065.994, 496.3008
1066.476, 495.9727
1066.958, 496.6595
1067.441, 498.2572
1067.923, 500.4162
1068.405, 502.9883
1068.887, 506.1080
1069.369, 511.0078
1069.851, 515.6074
1070.333, 517.3956
1070.815, 516.6923
1071.297, 512.3419
1071.780, 506.1732
1072.262, 503.4655
1072.744, 505.7434
1073.226, 508.8009
1073.708, 509.5219
1074.190, 510.1739
1074.672, 512.2166
1075.154, 515.4839
1075.636, 522.0325
1076.119, 528.7821
1076.601, 529.5731
1077.083, 523.8397
1077.565, 517.7062
1078.047, 512.1663
1078.529, 509.5868
1079.011, 515.1197
1079.494, 519.6141
1079.976, 514.4523
1080.458, 506.1261
1080.940, 504.2138
1081.422, 507.8615
1081.904, 507.6626
1082.386, 499.2021
1082.868, 493.1837
1083.350, 492.7468
1083.833, 493.6565
1084.315, 492.9608
1084.797, 494.1260
1085.279, 502.8483
1085.761, 515.6648
1086.243, 521.5203
1086.725, 518.0858
1087.207, 516.9584
1087.689, 519.5939
1088.172, 521.9564
1088.654, 524.0869
1089.136, 524.4868
1089.618, 522.1071
1090.100, 517.4335
1090.582, 510.2487
1091.064, 500.6855
1091.546, 499.3634
1092.029, 507.7463
1092.511, 517.9636
1092.993, 530.1384
1093.475, 539.1349
1093.957, 542.7576
1094.439, 541.4150
1094.921, 534.7817
1095.403, 524.6462
1095.885, 516.5098
1096.368, 510.5383
1096.850, 510.0547
1097.332, 514.9037
1097.814, 520.1273
1098.296, 524.2476
1098.778, 528.3990
1099.260, 533.6397
1099.742, 538.3835
1100.224, 540.1445
1100.707, 539.3723
1101.189, 535.4847
1101.671, 530.3290
1102.153, 529.7057
1102.635, 533.6505
1103.117, 537.2488
1103.599, 538.2120
1104.081, 538.1203
1104.564, 536.8869
1105.046, 536.8496
1105.528, 542.6624
1106.010, 549.6638
1106.492, 551.0978
1106.974, 548.3873
1107.456, 545.7787
1107.938, 544.5500
1108.421, 545.9052
1108.903, 553.4581
1109.385, 559.2994
1109.867, 559.1199
1110.349, 556.6458
1110.831, 550.8956
1111.313, 546.7309
1111.795, 552.9466
1112.277, 567.6751
1112.760, 575.7142
1113.242, 571.1705
1113.724, 568.3933
1114.206, 569.1439
1114.688, 571.4461
1115.170, 576.9966
1115.652, 581.3100
1116.134, 580.2513
1116.616, 575.9438
1117.099, 572.8333
1117.581, 570.6218
1118.063, 573.2910
1118.545, 582.7321
1119.027, 590.3766
1119.509, 595.2545
1119.991, 596.6075
1120.473, 593.5718
1120.956, 588.5512
1121.438, 583.8707
1121.920, 580.5740
1122.402, 583.9490
1122.884, 593.1843
1123.366, 599.6730
1123.848, 603.1761
1124.330, 609.1758
1124.813, 618.8917
1125.295, 625.7081
1125.777, 624.4313
1126.259, 619.6752
1126.741, 617.2639
1127.223, 616.2626
1127.705, 614.7680
1128.187, 613.4612
1128.669, 614.2406
1129.151, 616.8199
1129.634, 619.4006
1130.116, 621.2816
1130.598, 622.4731
1131.080, 620.4629
1131.562, 620.8670
1132.044, 631.9627
1132.526, 643.0805
1133.008, 641.7632
1133.491, 634.6504
1133.973, 634.1719
1134.455, 641.2982
1134.937, 647.6909
1135.419, 653.3621
1135.901, 654.8762
1136.383, 648.4114
1136.865, 641.9117
1137.348, 636.0684
1137.830, 633.6846
1138.312, 638.0782
1138.794, 647.1908
1139.276, 656.0007
1139.758, 664.6627
1140.240, 672.1193
1140.722, 679.3912
1141.204, 680.4467
1141.687, 672.8771
1142.169, 665.3283
1142.651, 661.5853
1143.133, 662.6901
1143.615, 671.0229
1144.097, 683.5187
1144.579, 690.8313
1145.061, 693.5250
1145.543, 693.3367
1146.026, 691.3162
1146.508, 692.2462
1146.990, 697.0668
1147.472, 702.9770
1147.954, 708.5968
1148.436, 712.0979
1148.918, 709.1415
1149.400, 705.1299
1149.883, 706.4711
1150.365, 711.3209
1150.847, 719.5285
1151.329, 727.9485
1151.811, 728.5991
1152.293, 719.8681
1152.775, 712.9744
1153.257, 709.3143
1153.740, 713.3093
1154.222, 734.4960
1154.704, 754.6456
1155.186, 763.1164
1155.668, 764.7912
1156.150, 764.2062
1156.632, 762.1700
1157.114, 761.0718
1157.596, 760.0509
1158.078, 763.2842
1158.561, 772.7944
1159.043, 781.2117
1159.525, 786.9718
1160.007, 791.8180
1160.489, 796.9420
1160.971, 800.9401
1161.453, 801.2881
1161.935, 799.3193
1162.418, 800.2025
1162.900, 804.0069
1163.382, 813.5079
1163.864, 827.2953
1164.346, 833.7818
1164.828, 830.6114
1165.310, 827.3965
1165.792, 830.2694
1166.275, 836.9493
1166.757, 848.0812
1167.239, 858.7003
1167.721, 861.5765
1168.203, 860.5550
1168.685, 860.0410
1169.167, 861.1979
1169.649, 864.5938
1170.131, 870.3925
1170.614, 879.2344
1171.096, 896.5518
1171.578, 909.2073
1172.060, 909.5967
1172.542, 908.9398
1173.024, 913.2570
1173.506, 919.2210
1173.988, 923.2515
1174.470, 925.9794
1174.953, 929.1409
1175.435, 932.2814
1175.917, 939.4629
1176.399, 952.6560
1176.881, 961.0441
1177.363, 962.0462
1177.845, 962.7445
1178.327, 966.2025
1178.810, 973.6351
1179.292, 987.5991
1179.774, 1003.763
1180.256, 1009.240
1180.738, 1021.854
1181.220, 1031.219
1181.702, 1036.815
1182.184, 1046.932
1182.667, 1048.241
1183.149, 1050.832
1183.631, 1059.396
1184.113, 1069.876
1184.595, 1080.541
1185.077, 1090.552
1185.559, 1101.819
1186.041, 1109.705
1186.523, 1104.200
1187.005, 1095.531
1187.488, 1103.411
1187.970, 1126.833
1188.452, 1139.409
1188.934, 1128.132
1189.416, 1127.768
1189.898, 1147.136
1190.380, 1161.301
1190.862, 1161.812
1191.345, 1161.726
1191.827, 1169.612
1192.309, 1180.642
1192.791, 1186.120
1193.273, 1188.740
1193.755, 1206.768
1194.237, 1237.025
1194.719, 1248.887
1195.202, 1242.987
1195.684, 1239.537
1196.166, 1244.322
1196.648, 1254.945
1197.130, 1270.590
1197.612, 1285.896
1198.094, 1294.005
1198.576, 1300.584
1199.058, 1314.101
1199.541, 1327.423
1200.023, 1329.710
1200.505, 1325.655
1200.987, 1326.298
1201.469, 1332.883
1201.951, 1337.237
1202.433, 1332.564
1202.915, 1335.091
1203.397, 1353.722
1203.880, 1369.687
1204.362, 1376.448
1204.844, 1382.513
1205.326, 1395.004
1205.808, 1408.163
1206.290, 1411.002
1206.772, 1405.609
1207.254, 1408.371
1207.737, 1418.856
1208.219, 1430.647
1208.701, 1442.558
1209.183, 1448.171
1209.665, 1446.530
1210.147, 1447.448
1210.629, 1457.782
1211.111, 1467.622
1211.594, 1460.307
1212.076, 1453.512
1212.558, 1471.606
1213.040, 1496.989
1213.522, 1508.359
1214.004, 1509.579
1214.486, 1511.861
1214.968, 1516.731
1215.450, 1519.878
1215.932, 1518.574
1216.415, 1519.304
1216.897, 1526.614
1217.379, 1529.226
1217.861, 1520.796
1218.343, 1514.246
1218.825, 1518.715
1219.307, 1527.550
1219.789, 1531.264
1220.272, 1530.302
1220.754, 1524.489
1221.236, 1515.403
1221.718, 1516.938
1222.200, 1527.896
1222.682, 1538.434
1223.164, 1545.076
1223.646, 1542.314
1224.129, 1526.572
1224.611, 1512.715
1225.093, 1518.874
1225.575, 1525.588
1226.057, 1513.950
1226.539, 1498.583
1227.021, 1490.294
1227.503, 1489.587
1227.985, 1501.426
1228.468, 1521.423
1228.950, 1523.762
1229.432, 1498.178
1229.914, 1482.400
1230.396, 1479.730
1230.878, 1478.438
1231.360, 1476.361
1231.842, 1477.216
1232.324, 1483.974
1232.807, 1487.221
1233.289, 1475.037
1233.771, 1478.476
1234.253, 1458.468
1234.735, 1470.960
1235.217, 1474.486
1235.699, 1469.851
1236.181, 1459.012
1236.664, 1444.626
1237.146, 1433.263
1237.628, 1426.852
1238.110, 1419.257
1238.592, 1403.066
1239.074, 1392.026
1239.556, 1393.766
1240.038, 1399.518
1240.521, 1410.883
1241.003, 1418.133
1241.485, 1410.559
1241.967, 1394.804
1242.449, 1383.573
1242.931, 1376.897
1243.413, 1378.718
1243.895, 1389.966
1244.377, 1392.814
1244.859, 1386.063
1245.342, 1378.763
1245.824, 1373.550
1246.306, 1367.829
1246.788, 1359.810
1247.270, 1353.104
1247.752, 1354.814
1248.234, 1356.581
1248.716, 1346.223
1249.199, 1346.678
1249.681, 1331.868
1250.163, 1334.724
1250.645, 1329.056
1251.127, 1315.249
1251.609, 1304.432
1252.091, 1298.656
1252.573, 1293.812
1253.056, 1285.989
1253.538, 1290.097
1254.020, 1315.503
1254.502, 1327.542
1254.984, 1307.828
1255.466, 1283.237
1255.948, 1280.403
1256.430, 1289.653
1256.912, 1293.167
1257.395, 1292.712
1257.877, 1292.040
1258.359, 1291.467
1258.841, 1291.219
1259.323, 1291.503
1259.805, 1292.798
1260.287, 1295.147
1260.769, 1298.140
1261.251, 1303.680
1261.734, 1305.103
1262.216, 1295.452
1262.698, 1288.169
1263.180, 1290.663
1263.662, 1293.537
1264.144, 1291.527
1264.626, 1286.144
1265.108, 1278.221
1265.591, 1269.973
1266.073, 1273.128
1266.555, 1285.853
1267.037, 1292.789
1267.519, 1293.095
1268.001, 1282.275
1268.483, 1263.617
1268.965, 1255.461
1269.448, 1264.560
1269.930, 1277.733
1270.412, 1290.270
1270.894, 1297.121
1271.376, 1290.370
1271.858, 1282.445
##END=



