##NAMES=Natrojarosite
##RRUFFID=R050289
##IDEAL CHEMISTRY=NaFe^3+^_3_(S^6+^O_4_)_2_(OH)_6_
##LOCALITY=Bristol mine, Pioche, Lincoln County, Nevada, USA
##OWNER=RRUFF
##SOURCE=Marcus Origlieri
##DESCRIPTION=Mustard-colored massive
##STATUS=The identification of this mineral has been confirmed by X-ray diffraction and chemical analysis
##URL=rruff.info/R050289
##MEASURED CHEMISTRY=(Na_0.99_K_0.01_)_Î£=1_Fe^3+^_3.00_(S_1.00_O_4_)_2_(OH)_6_
92.35352, 2.660836
92.83563, 2.419851
93.31775, 2.317234
93.79987, 2.422783
94.28198, 2.675972
94.76410, 2.903978
95.24622, 3.068315
95.72833, 3.193745
96.21045, 3.332633
96.69257, 3.487640
97.17468, 3.625876
97.65680, 3.680879
98.13892, 3.655856
98.62103, 3.712277
99.10315, 3.894269
99.58527, 4.192473
100.0674, 4.563427
100.5495, 5.033722
101.0316, 5.511183
101.5137, 5.860041
101.9958, 6.044263
102.4780, 6.232394
102.9601, 6.448186
103.4422, 6.670593
103.9243, 7.075232
104.4064, 7.749244
104.8885, 8.551984
105.3707, 9.239551
105.8528, 9.728958
106.3349, 10.21181
106.8170, 10.77646
107.2991, 11.59455
107.7813, 12.16083
108.2634, 12.27810
108.7455, 12.11668
109.2276, 12.24209
109.7097, 12.89140
110.1918, 13.65913
110.6740, 14.37862
111.1561, 15.03447
111.6382, 15.65466
112.1203, 16.14916
112.6024, 16.56727
113.0845, 17.18212
113.5667, 18.14238
114.0488, 19.25149
114.5309, 20.38872
115.0130, 21.50688
115.4951, 22.65979
115.9772, 23.87294
116.4594, 25.15594
116.9415, 26.46231
117.4236, 27.84558
117.9057, 29.22215
118.3878, 30.49710
118.8699, 31.64211
119.3521, 32.68609
119.8342, 33.58807
120.3163, 34.32190
120.7984, 35.17912
121.2805, 36.48647
121.7626, 38.02832
122.2448, 39.43592
122.7269, 40.52634
123.2090, 41.40390
123.6911, 42.10753
124.1732, 42.58957
124.6553, 43.11439
125.1375, 43.92486
125.6196, 44.98065
126.1017, 46.15409
126.5838, 47.53588
127.0659, 48.96032
127.5480, 50.07417
128.0302, 50.71888
128.5123, 51.28442
128.9944, 52.23666
129.4765, 53.57078
129.9586, 55.24134
130.4407, 57.34769
130.9229, 59.80242
131.4050, 62.23837
131.8871, 64.44486
132.3692, 66.65435
132.8513, 69.26984
133.3334, 72.16589
133.8156, 75.24654
134.2977, 78.88124
134.7798, 83.29288
135.2619, 87.50623
135.7440, 91.53495
136.2261, 95.18289
136.7083, 97.96622
137.1904, 100.0882
137.6725, 100.8871
138.1546, 99.60844
138.6367, 96.11594
139.1188, 91.42228
139.6010, 85.35476
140.0831, 77.93217
140.5652, 71.38585
141.0473, 65.66529
141.5294, 60.72772
142.0115, 56.63194
142.4937, 53.45028
142.9758, 50.80345
143.4579, 48.58860
143.9400, 46.85637
144.4221, 45.33067
144.9042, 44.00440
145.3864, 42.87500
145.8685, 41.97486
146.3506, 41.34898
146.8327, 40.87208
147.3148, 40.52351
147.7969, 40.41582
148.2791, 40.18491
148.7612, 39.75899
149.2433, 39.22025
149.7254, 38.74817
150.2075, 38.33662
150.6896, 37.99977
151.1718, 37.74475
151.6539, 37.56056
152.1360, 37.47078
152.6181, 37.49046
153.1002, 37.60587
153.5823, 37.77653
154.0645, 38.35143
154.5466, 38.72962
155.0287, 38.62121
155.5108, 37.29159
155.9929, 36.32072
156.4750, 36.19066
156.9572, 36.68676
157.4393, 36.94358
157.9214, 36.48265
158.4035, 35.90599
158.8856, 35.58763
159.3677, 35.95573
159.8499, 36.24232
160.3320, 36.12822
160.8141, 35.69154
161.2962, 35.40180
161.7783, 35.61854
162.2604, 35.96450
162.7426, 36.12849
163.2247, 35.91244
163.7068, 35.58999
164.1889, 35.15354
164.6710, 34.63282
165.1531, 34.37072
165.6353, 34.77946
166.1174, 35.45247
166.5995, 35.95206
167.0816, 35.93042
167.5637, 35.82707
168.0458, 35.98101
168.5280, 36.39380
169.0101, 36.71267
169.4922, 36.56054
169.9743, 36.20138
170.4564, 36.00491
170.9385, 36.29436
171.4207, 36.70775
171.9028, 36.91191
172.3849, 36.88616
172.8670, 36.82541
173.3491, 36.87596
173.8312, 36.99870
174.3134, 37.11920
174.7955, 37.21802
175.2776, 37.28948
175.7597, 37.27547
176.2418, 37.15203
176.7239, 37.12278
177.2061, 37.49129
177.6882, 38.12500
178.1703, 38.65580
178.6524, 38.87390
179.1345, 38.88932
179.6166, 38.79610
180.0988, 38.54856
180.5809, 38.45844
181.0630, 39.10151
181.5451, 40.29136
182.0272, 41.25295
182.5093, 41.32012
182.9915, 40.88342
183.4736, 40.93124
183.9557, 41.59836
184.4378, 42.50231
184.9199, 43.23368
185.4020, 43.78084
185.8842, 44.15477
186.3663, 44.22099
186.8484, 44.08871
187.3305, 44.17465
187.8126, 44.54794
188.2947, 45.04868
188.7769, 45.42194
189.2590, 45.67433
189.7411, 45.93822
190.2232, 46.33479
190.7053, 46.83094
191.1874, 47.18458
191.6696, 47.32064
192.1517, 47.42138
192.6338, 47.88366
193.1159, 48.72075
193.5980, 49.56149
194.0801, 50.11517
194.5623, 50.41036
195.0444, 50.89644
195.5265, 51.61361
196.0086, 52.53282
196.4907, 53.58893
196.9728, 54.77655
197.4550, 56.13921
197.9371, 57.78912
198.4192, 59.73280
198.9013, 61.47497
199.3834, 62.83253
199.8655, 64.10004
200.3477, 66.04459
200.8298, 68.73177
201.3119, 71.80047
201.7940, 75.15295
202.2761, 78.82043
202.7582, 82.43356
203.2404, 85.98460
203.7225, 89.44582
204.2046, 92.63779
204.6867, 95.42868
205.1688, 98.41908
205.6509, 102.0514
206.1331, 106.4696
206.6152, 110.6843
207.0973, 114.5504
207.5794, 118.1932
208.0615, 121.9916
208.5436, 125.9677
209.0258, 130.0600
209.5079, 134.1781
209.9900, 138.2643
210.4721, 142.5385
210.9542, 146.9561
211.4363, 151.5918
211.9185, 156.7337
212.4006, 162.4810
212.8827, 168.5683
213.3648, 174.7355
213.8469, 181.0695
214.3290, 187.3737
214.8112, 193.5428
215.2933, 199.6672
215.7754, 206.3235
216.2575, 213.6511
216.7396, 221.2732
217.2217, 228.9873
217.7038, 236.8852
218.1860, 244.5724
218.6681, 252.1540
219.1502, 259.4442
219.6323, 265.7163
220.1144, 271.0507
220.5965, 275.1460
221.0787, 277.8089
221.5608, 279.0672
222.0429, 278.8525
222.5250, 277.1860
223.0071, 274.0400
223.4892, 269.3684
223.9714, 263.0049
224.4535, 255.3363
224.9356, 246.3855
225.4177, 235.9002
225.8998, 224.8077
226.3819, 212.9335
226.8641, 200.4621
227.3462, 188.3738
227.8283, 176.5652
228.3104, 165.3094
228.7925, 154.8536
229.2746, 144.9720
229.7568, 136.1431
230.2389, 128.5712
230.7210, 121.9499
231.2031, 115.5234
231.6852, 109.1194
232.1673, 103.1727
232.6495, 97.99500
233.1316, 93.90115
233.6137, 89.86620
234.0958, 85.82966
234.5779, 81.89272
235.0600, 78.41226
235.5422, 75.44631
236.0243, 72.79754
236.5064, 70.37602
236.9885, 68.18003
237.4706, 66.23078
237.9527, 64.64670
238.4349, 63.30033
238.9170, 61.89289
239.3991, 60.37987
239.8812, 58.87169
240.3633, 57.40239
240.8454, 55.94284
241.3276, 54.58606
241.8097, 53.28882
242.2918, 52.12831
242.7739, 51.32452
243.2560, 51.10371
243.7381, 50.88991
244.2203, 50.45340
244.7024, 49.69330
245.1845, 48.98816
245.6666, 48.30767
246.1487, 47.69826
246.6308, 47.24896
247.1130, 47.03899
247.5951, 46.86042
248.0772, 46.66974
248.5593, 46.51161
249.0414, 46.15445
249.5235, 45.46207
250.0057, 44.65678
250.4878, 44.11880
250.9699, 44.02485
251.4520, 43.87886
251.9341, 43.48573
252.4162, 42.75417
252.8984, 42.22586
253.3805, 41.97089
253.8626, 41.86365
254.3447, 41.72417
254.8268, 41.51812
255.3089, 41.34472
255.7911, 41.22817
256.2732, 41.16640
256.7553, 41.18658
257.2374, 41.35690
257.7195, 41.54211
258.2017, 41.55313
258.6838, 41.28337
259.1659, 41.08285
259.6480, 41.04193
260.1301, 41.16529
260.6122, 41.34651
261.0944, 41.65983
261.5765, 41.93968
262.0586, 41.97850
262.5407, 41.66594
263.0228, 41.41267
263.5049, 41.27921
263.9871, 41.26793
264.4692, 41.48388
264.9513, 42.01083
265.4334, 42.63371
265.9155, 43.16444
266.3976, 43.56428
266.8798, 43.97005
267.3619, 44.39895
267.8440, 44.85293
268.3261, 45.31574
268.8082, 45.78310
269.2903, 46.26576
269.7725, 46.78617
270.2546, 47.36052
270.7367, 47.84139
271.2188, 48.10624
271.7009, 48.27345
272.1830, 48.94398
272.6652, 50.28603
273.1473, 51.65660
273.6294, 52.55141
274.1115, 52.85166
274.5936, 53.42027
275.0757, 54.41888
275.5579, 55.69100
276.0400, 56.72516
276.5221, 57.45271
277.0042, 58.21721
277.4863, 59.30395
277.9684, 60.75460
278.4506, 61.88643
278.9327, 62.52132
279.4148, 62.98152
279.8969, 64.04594
280.3790, 65.80820
280.8611, 67.51777
281.3433, 68.69225
281.8254, 69.34238
282.3075, 70.22778
282.7896, 71.38288
283.2717, 72.76408
283.7538, 74.40379
284.2360, 76.31687
284.7181, 78.11625
285.2002, 79.64909
285.6823, 80.92347
286.1644, 81.91914
286.6465, 82.54531
287.1287, 83.18559
287.6108, 84.44139
288.0929, 86.27464
288.5750, 87.99786
289.0571, 89.34379
289.5392, 90.38026
290.0214, 91.33822
290.5035, 92.21418
290.9856, 93.01266
291.4677, 93.72231
291.9498, 94.35213
292.4319, 94.93819
292.9141, 95.51896
293.3962, 96.05559
293.8783, 96.54821
294.3604, 96.99827
294.8425, 97.12914
295.3246, 96.59663
295.8068, 95.52975
296.2889, 94.38182
296.7710, 93.28775
297.2531, 92.11687
297.7352, 90.63428
298.2173, 88.86783
298.6995, 86.98188
299.1816, 85.13396
299.6637, 83.25687
300.1458, 81.21902
300.6279, 78.90613
301.1100, 76.57869
301.5922, 74.69632
302.0743, 73.14341
302.5564, 71.46301
303.0385, 69.18047
303.5206, 66.66059
304.0027, 64.39678
304.4849, 62.50619
304.9670, 60.73691
305.4491, 58.83460
305.9312, 56.88586
306.4133, 55.09789
306.8954, 53.64799
307.3776, 52.36773
307.8597, 51.12069
308.3418, 49.88540
308.8239, 48.69701
309.3060, 47.53227
309.7881, 46.42785
310.2703, 45.47822
310.7524, 44.84715
311.2345, 44.27736
311.7166, 43.55796
312.1987, 42.69341
312.6808, 41.90391
313.1630, 41.36721
313.6451, 40.94299
314.1272, 40.47552
314.6093, 39.88716
315.0914, 39.27467
315.5735, 38.63033
316.0557, 37.98082
316.5378, 37.46925
317.0199, 37.29685
317.5020, 37.20516
317.9841, 36.99212
318.4662, 36.49459
318.9484, 36.05546
319.4305, 35.85832
319.9126, 35.81253
320.3947, 35.67971
320.8768, 35.31311
321.3589, 34.90125
321.8411, 34.53286
322.3232, 34.23068
322.8053, 33.95376
323.2874, 33.70886
323.7695, 33.48203
324.2516, 33.25125
324.7338, 32.87028
325.2159, 32.61592
325.6980, 32.65186
326.1801, 33.10144
326.6622, 33.30954
327.1443, 33.04847
327.6265, 32.60698
328.1086, 32.27390
328.5907, 32.16044
329.0728, 32.04069
329.5549, 31.85744
330.0370, 31.60880
330.5192, 31.45600
331.0013, 31.48853
331.4834, 31.54012
331.9655, 31.48362
332.4476, 31.16975
332.9297, 31.01375
333.4119, 31.14831
333.8940, 31.47846
334.3761, 31.55008
334.8582, 31.16494
335.3403, 30.83268
335.8224, 30.84321
336.3046, 31.34724
336.7867, 31.76215
337.2688, 32.12432
337.7509, 32.35838
338.2330, 32.20595
338.7151, 31.45908
339.1973, 30.98803
339.6794, 31.24987
340.1615, 32.28868
340.6436, 33.00584
341.1257, 33.31168
341.6078, 33.47799
342.0899, 33.88045
342.5721, 34.53541
343.0542, 35.11717
343.5363, 35.51288
344.0184, 35.75621
344.5005, 35.97512
344.9826, 36.15979
345.4648, 36.38005
345.9469, 36.65554
346.4290, 37.00375
346.9111, 37.54166
347.3932, 38.33702
347.8753, 39.27399
348.3575, 40.12008
348.8396, 40.87842
349.3217, 41.63805
349.8038, 42.56290
350.2859, 43.52080
350.7680, 44.11216
351.2502, 44.20519
351.7323, 44.25542
352.2144, 44.90688
352.6965, 45.97558
353.1786, 46.88604
353.6607, 47.19045
354.1429, 47.25322
354.6250, 47.49879
355.1071, 47.94728
355.5892, 48.53556
356.0713, 49.24258
356.5534, 50.05302
357.0356, 50.94856
357.5177, 52.18736
357.9998, 53.29159
358.4819, 53.77831
358.9640, 53.74722
359.4461, 53.73753
359.9283, 54.13308
360.4104, 54.61623
360.8925, 54.92808
361.3746, 55.00677
361.8567, 54.91231
362.3388, 54.51846
362.8210, 53.96624
363.3031, 53.56722
363.7852, 53.88727
364.2673, 54.00681
364.7494, 53.38369
365.2315, 51.70827
365.7137, 50.22303
366.1958, 49.32682
366.6779, 48.70654
367.1600, 47.98603
367.6421, 47.08469
368.1242, 46.12085
368.6064, 45.07257
369.0885, 43.92860
369.5706, 42.90290
370.0527, 42.00333
370.5348, 41.21003
371.0169, 40.50652
371.4991, 39.96716
371.9812, 39.40071
372.4633, 38.75388
372.9454, 38.07059
373.4275, 37.52190
373.9096, 37.14189
374.3918, 36.82730
374.8739, 36.54085
375.3560, 36.27757
375.8381, 36.05230
376.3202, 35.87629
376.8023, 35.72652
377.2845, 35.57882
377.7666, 35.44128
378.2487, 35.25964
378.7308, 34.97832
379.2129, 34.62763
379.6950, 34.47887
380.1772, 34.56536
380.6593, 34.67434
381.1414, 34.56460
381.6235, 34.26726
382.1056, 34.06469
382.5877, 34.02172
383.0699, 34.09599
383.5520, 34.27885
384.0341, 34.55283
384.5162, 34.72277
384.9983, 34.59802
385.4804, 34.28997
385.9626, 34.01574
386.4447, 33.78636
386.9268, 33.64687
387.4089, 33.68029
387.8910, 33.83954
388.3731, 34.01839
388.8553, 34.16888
389.3374, 34.31746
389.8195, 34.51335
390.3016, 34.74821
390.7837, 34.92867
391.2658, 34.98632
391.7480, 34.96117
392.2301, 34.88440
392.7122, 34.67318
393.1943, 34.53864
393.6764, 34.59780
394.1585, 34.81660
394.6407, 35.09481
395.1228, 35.54249
395.6049, 35.92863
396.0870, 36.11254
396.5691, 36.00010
397.0512, 35.93718
397.5334, 36.00063
398.0155, 36.14568
398.4976, 36.31491
398.9797, 36.51376
399.4618, 36.72488
399.9439, 36.94477
400.4261, 37.17290
400.9082, 37.40985
401.3903, 37.62074
401.8724, 37.87243
402.3545, 38.22823
402.8366, 38.79773
403.3188, 39.21637
403.8009, 39.41417
404.2830, 39.47089
404.7651, 39.55532
405.2472, 39.61511
405.7293, 39.85112
406.2115, 40.40383
406.6936, 41.27987
407.1757, 42.08518
407.6578, 42.83900
408.1399, 43.47504
408.6220, 43.84428
409.1042, 43.95530
409.5863, 44.19754
410.0684, 44.68873
410.5505, 45.36419
411.0326, 46.07126
411.5147, 46.81763
411.9969, 47.71798
412.4790, 49.05206
412.9611, 50.60163
413.4432, 51.71580
413.9253, 52.19661
414.4074, 52.72404
414.8896, 54.14574
415.3717, 56.18851
415.8538, 58.20614
416.3359, 59.64959
416.8180, 61.07115
417.3001, 63.01412
417.7823, 65.49844
418.2644, 67.99248
418.7465, 70.17276
419.2286, 72.27840
419.7107, 74.48683
420.1928, 76.59267
420.6750, 79.18950
421.1571, 82.78522
421.6392, 87.08072
422.1213, 91.21059
422.6034, 94.45681
423.0855, 97.89393
423.5677, 102.0728
424.0498, 107.2324
424.5319, 112.3194
425.0140, 117.1474
425.4961, 121.9635
425.9782, 127.0179
426.4604, 132.2292
426.9425, 137.8133
427.4246, 143.8880
427.9067, 150.4290
428.3888, 156.8868
428.8709, 163.2695
429.3531, 169.5332
429.8352, 175.6254
430.3173, 181.3089
430.7994, 187.6798
431.2815, 194.9343
431.7636, 202.5897
432.2458, 209.7016
432.7279, 216.2334
433.2100, 222.7788
433.6921, 229.4275
434.1742, 236.2927
434.6563, 243.7398
435.1385, 251.8790
435.6206, 260.0696
436.1027, 267.7951
436.5848, 275.1644
437.0669, 282.5307
437.5490, 290.0964
438.0312, 297.3846
438.5133, 304.3674
438.9954, 310.7851
439.4775, 315.9073
439.9596, 319.3119
440.4417, 321.2963
440.9239, 322.1830
441.4060, 321.9954
441.8881, 320.3794
442.3702, 316.9028
442.8523, 312.0284
443.3344, 306.1710
443.8166, 299.5798
444.2987, 291.8553
444.7808, 282.2142
445.2629, 271.2526
445.7450, 260.6378
446.2271, 251.0556
446.7093, 241.8258
447.1914, 232.6734
447.6735, 223.4078
448.1556, 214.7722
448.6377, 207.0721
449.1198, 199.8774
449.6020, 192.7420
450.0841, 185.7412
450.5662, 178.9697
451.0483, 172.5689
451.5304, 166.3847
452.0125, 159.8435
452.4947, 152.7578
452.9768, 145.7261
453.4589, 139.0210
453.9410, 132.5939
454.4231, 126.3290
454.9052, 120.1568
455.3874, 114.0680
455.8695, 107.7942
456.3516, 101.3937
456.8337, 95.51943
457.3158, 90.33819
457.7979, 85.75687
458.2801, 81.65418
458.7622, 78.01918
459.2443, 74.63245
459.7264, 71.42444
460.2085, 68.37922
460.6906, 65.51726
461.1728, 62.84406
461.6549, 60.36443
462.1370, 58.19498
462.6191, 56.23730
463.1012, 54.39853
463.5833, 52.69703
464.0655, 51.05178
464.5476, 49.37775
465.0297, 47.70875
465.5118, 46.26037
465.9939, 45.31189
466.4760, 44.46854
466.9582, 43.51160
467.4403, 42.25747
467.9224, 41.17041
468.4045, 40.30726
468.8866, 39.59764
469.3687, 38.94001
469.8509, 38.39130
470.3330, 37.80545
470.8151, 37.10464
471.2972, 36.31656
471.7793, 35.76828
472.2614, 35.53543
472.7436, 35.32264
473.2257, 34.91483
473.7078, 34.30686
474.1899, 33.66800
474.6720, 32.97518
475.1541, 32.34093
475.6363, 32.00005
476.1184, 31.90444
476.6005, 31.74606
477.0826, 31.37336
477.5647, 30.88107
478.0468, 30.36222
478.5290, 29.83069
479.0111, 29.41290
479.4932, 29.32008
479.9753, 29.33858
480.4574, 29.20058
480.9395, 28.81674
481.4217, 28.41076
481.9038, 28.05840
482.3859, 27.78994
482.8680, 27.65646
483.3501, 27.85112
483.8322, 28.01178
484.3144, 28.01375
484.7965, 27.85787
485.2786, 27.62415
485.7607, 27.16309
486.2428, 26.75660
486.7249, 26.56372
487.2071, 26.76660
487.6892, 26.78905
488.1713, 26.53454
488.6534, 26.16772
489.1355, 25.93045
489.6176, 25.86842
490.0998, 25.80521
490.5819, 25.71443
491.0640, 25.58673
491.5461, 25.35117
492.0282, 24.99065
492.5103, 24.64251
492.9925, 24.36955
493.4746, 24.18077
493.9567, 24.18645
494.4388, 24.42824
494.9209, 24.67809
495.4030, 24.59793
495.8852, 24.31865
496.3673, 24.17626
496.8494, 24.42711
497.3315, 24.74281
497.8136, 24.82273
498.2957, 24.69774
498.7779, 24.49257
499.2600, 24.13030
499.7421, 23.80793
500.2242, 23.68814
500.7063, 23.83465
501.1884, 23.97709
501.6706, 24.06589
502.1527, 24.09710
502.6348, 24.06441
503.1169, 23.82767
503.5990, 23.69551
504.0811, 23.73749
504.5633, 23.91148
505.0454, 24.08287
505.5275, 24.32742
506.0096, 24.42961
506.4917, 24.23703
506.9738, 23.70398
507.4560, 23.43778
507.9381, 23.49365
508.4202, 23.66668
508.9023, 23.78026
509.3844, 23.83342
509.8665, 23.78894
510.3487, 23.60021
510.8308, 23.38427
511.3129, 23.36059
511.7950, 23.49477
512.2772, 23.62576
512.7593, 23.62753
513.2414, 23.60127
513.7235, 23.68874
514.2056, 23.88731
514.6877, 24.07750
515.1699, 24.15125
515.6520, 24.19785
516.1341, 24.30548
516.6162, 24.53256
517.0983, 24.74472
517.5804, 24.90273
518.0626, 25.01777
518.5447, 25.10831
519.0268, 25.17781
519.5089, 25.21973
519.9910, 25.16714
520.4731, 25.03847
520.9553, 25.16873
521.4374, 25.74829
521.9195, 26.30054
522.4016, 26.51135
522.8837, 26.27722
523.3658, 26.27078
523.8480, 26.57022
524.3301, 26.94486
524.8122, 27.03127
525.2943, 26.85277
525.7764, 26.80539
526.2585, 27.05871
526.7407, 27.43125
527.2228, 27.49925
527.7049, 27.33679
528.1870, 27.37021
528.6691, 28.15522
529.1512, 29.12492
529.6334, 29.54063
530.1155, 29.33767
530.5976, 29.13263
531.0797, 29.27935
531.5618, 29.61338
532.0439, 29.97075
532.5261, 30.30218
533.0082, 30.67028
533.4903, 31.23071
533.9724, 31.83028
534.4545, 32.14915
534.9366, 31.70603
535.4188, 31.50173
535.9009, 31.85985
536.3830, 32.76305
536.8651, 33.41072
537.3472, 33.67610
537.8293, 33.93484
538.3115, 34.49865
538.7936, 35.40580
539.2757, 35.99693
539.7578, 36.15238
540.2399, 36.22854
540.7220, 36.75704
541.2042, 37.66020
541.6863, 38.54284
542.1684, 39.35308
542.6505, 40.00937
543.1326, 40.22575
543.6147, 40.13667
544.0969, 40.26653
544.5790, 41.14675
545.0611, 42.21972
545.5432, 42.98797
546.0253, 43.39071
546.5074, 43.86245
546.9896, 44.61281
547.4717, 45.48806
547.9538, 46.36509
548.4359, 47.22588
548.9180, 48.08552
549.4001, 48.94873
549.8823, 49.81676
550.3644, 50.69886
550.8465, 51.66118
551.3286, 52.52359
551.8107, 53.19538
552.2928, 53.72118
552.7750, 54.43872
553.2571, 55.39783
553.7392, 56.32237
554.2213, 56.88438
554.7034, 57.19878
555.1855, 58.07652
555.6677, 59.62154
556.1498, 61.23957
556.6319, 62.42533
557.1140, 63.19680
557.5961, 63.49837
558.0782, 62.98096
558.5604, 62.55448
559.0425, 63.25663
559.5246, 64.60918
560.0067, 65.54424
560.4888, 65.22526
560.9709, 64.74628
561.4531, 64.67331
561.9352, 65.02460
562.4173, 65.09887
562.8994, 64.72954
563.3815, 64.11350
563.8636, 63.29733
564.3458, 62.12129
564.8279, 61.21550
565.3100, 60.68649
565.7921, 60.28187
566.2742, 59.65289
566.7563, 58.76266
567.2385, 58.02361
567.7206, 57.64254
568.2027, 57.31818
568.6848, 56.33629
569.1669, 54.75947
569.6490, 53.14872
570.1312, 51.69463
570.6133, 50.41727
571.0954, 49.43975
571.5775, 48.73269
572.0596, 48.02256
572.5417, 47.15416
573.0239, 46.17896
573.5060, 45.14044
573.9881, 44.00313
574.4702, 42.89660
574.9523, 41.78928
575.4344, 40.74532
575.9166, 39.86127
576.3987, 39.31752
576.8808, 38.67326
577.3629, 37.81115
577.8450, 36.81853
578.3271, 35.96785
578.8093, 35.27525
579.2914, 34.68337
579.7735, 34.20217
580.2556, 33.81947
580.7377, 33.40861
581.2198, 32.97419
581.7020, 32.47290
582.1841, 31.76860
582.6662, 30.98138
583.1483, 30.42899
583.6304, 30.20070
584.1125, 29.99344
584.5947, 29.45118
585.0768, 28.78332
585.5589, 28.29958
586.0410, 28.29919
586.5231, 28.28689
587.0052, 28.03569
587.4873, 27.61488
587.9694, 27.21526
588.4515, 26.74770
588.9337, 26.43894
589.4158, 26.44752
589.8979, 26.77703
590.3800, 26.77604
590.8621, 26.28037
591.3442, 25.74223
591.8264, 25.46109
592.3085, 25.45185
592.7906, 25.45172
593.2727, 25.47263
593.7548, 25.42494
594.2369, 25.11932
594.7191, 24.63568
595.2012, 24.29358
595.6833, 24.19265
596.1654, 24.21485
596.6475, 24.26855
597.1296, 24.34503
597.6118, 24.42531
598.0939, 24.45609
598.5760, 24.52861
599.0581, 24.71912
599.5402, 25.01265
600.0223, 25.28897
600.5045, 25.41214
600.9866, 25.60960
601.4687, 26.00113
601.9508, 26.63614
602.4329, 27.22647
602.9150, 27.65184
603.3972, 28.19519
603.8793, 29.16581
604.3614, 30.61412
604.8435, 31.93708
605.3256, 32.95793
605.8077, 34.05412
606.2899, 35.84203
606.7720, 38.24051
607.2541, 40.81323
607.7362, 43.53517
608.2183, 46.21228
608.7004, 48.48290
609.1826, 50.46919
609.6647, 52.51292
610.1468, 54.85222
610.6289, 57.29274
611.1110, 59.59230
611.5931, 61.75458
612.0753, 64.30341
612.5574, 67.41650
613.0395, 70.93243
613.5216, 74.68872
614.0037, 78.50863
614.4858, 83.15949
614.9680, 88.80757
615.4501, 95.06055
615.9322, 101.4566
616.4143, 107.9552
616.8964, 114.9044
617.3785, 122.4664
617.8607, 130.2206
618.3428, 137.5737
618.8249, 144.5157
619.3070, 151.0088
619.7891, 157.3408
620.2712, 163.0000
620.7534, 168.1054
621.2355, 172.3472
621.7176, 174.0379
622.1997, 172.8760
622.6818, 168.5297
623.1639, 160.3159
623.6461, 147.7742
624.1282, 134.2760
624.6103, 118.6013
625.0924, 103.3960
625.5745, 90.28615
626.0566, 79.29128
626.5388, 70.03599
627.0209, 62.78698
627.5030, 56.96077
627.9851, 51.88099
628.4672, 47.58924
628.9493, 44.14569
629.4315, 41.67944
629.9136, 39.86099
630.3957, 38.32619
630.8778, 37.04941
631.3599, 35.97673
631.8420, 35.14589
632.3242, 34.45792
632.8063, 33.77520
633.2884, 33.14656
633.7705, 32.80418
634.2526, 33.18105
634.7347, 33.56269
635.2169, 33.54063
635.6990, 32.99119
636.1811, 32.71681
636.6632, 32.81342
637.1453, 33.06425
637.6274, 33.34046
638.1096, 33.65634
638.5917, 33.90435
639.0738, 34.06865
639.5559, 34.20185
640.0380, 34.40021
640.5201, 34.63600
641.0023, 34.77181
641.4844, 34.73574
641.9665, 34.66617
642.4486, 34.69814
642.9307, 34.81060
643.4128, 34.95610
643.8950, 35.22274
644.3771, 35.41467
644.8592, 35.42746
645.3413, 35.28127
645.8234, 35.09174
646.3055, 34.76416
646.7877, 34.52195
647.2698, 34.50707
647.7519, 34.73636
648.2340, 34.64607
648.7161, 34.15982
649.1982, 33.56572
649.6804, 33.06852
650.1625, 32.65651
650.6446, 32.21486
651.1267, 31.73507
651.6088, 31.25733
652.0909, 30.88614
652.5731, 30.54006
653.0552, 30.03742
653.5373, 29.24412
654.0194, 28.51880
654.5015, 28.16209
654.9836, 27.98166
655.4658, 27.69230
655.9479, 27.07415
656.4300, 26.51181
656.9121, 26.09707
657.3942, 25.78738
657.8763, 25.47356
658.3585, 25.14937
658.8406, 24.82981
659.3227, 24.51746
659.8048, 24.21172
660.2869, 23.90625
660.7690, 23.59788
661.2512, 23.36421
661.7333, 23.31837
662.2154, 23.36406
662.6975, 23.32422
663.1796, 23.19269
663.6617, 23.00996
664.1439, 22.81417
664.6260, 22.57394
665.1081, 22.21830
665.5902, 21.65440
666.0723, 21.27558
666.5544, 21.35409
667.0366, 21.56045
667.5187, 21.58327
668.0008, 21.30102
668.4829, 21.09081
668.9650, 20.99419
669.4471, 20.95635
669.9293, 20.89339
670.4114, 20.80517
670.8935, 20.72161
671.3756, 20.67120
671.8577, 20.59689
672.3398, 20.37691
672.8220, 20.04403
673.3041, 19.71510
673.7862, 19.30822
674.2683, 19.04333
674.7504, 19.21774
675.2325, 19.72730
675.7147, 20.04724
676.1968, 19.82861
676.6789, 19.56239
677.1610, 19.48437
677.6431, 19.60841
678.1252, 19.60772
678.6074, 19.42958
679.0895, 19.22527
679.5716, 19.09817
680.0537, 19.04731
680.5358, 18.93898
681.0179, 18.75647
681.5001, 18.62701
681.9822, 18.78096
682.4643, 19.06310
682.9464, 19.12599
683.4285, 18.86163
683.9106, 18.57138
684.3928, 18.47105
684.8749, 18.46501
685.3570, 18.43490
685.8391, 18.27987
686.3212, 18.18559
686.8033, 18.28597
687.2855, 18.42981
687.7676, 18.35314
688.2497, 17.92849
688.7318, 17.60096
689.2139, 17.46180
689.6960, 17.47210
690.1782, 17.58536
690.6603, 17.79271
691.1424, 17.91646
691.6245, 17.80153
692.1066, 17.60235
692.5887, 17.56816
693.0709, 17.66848
693.5530, 17.77314
694.0351, 17.85500
694.5172, 17.88133
694.9993, 17.79487
695.4814, 17.58922
695.9636, 17.46155
696.4457, 17.46973
696.9278, 17.53496
697.4099, 17.64079
697.8920, 17.80472
698.3741, 17.88509
698.8563, 17.86910
699.3384, 17.80873
699.8205, 17.72835
700.3026, 17.63894
700.7847, 17.60848
701.2668, 17.65573
701.7490, 17.67382
702.2311, 17.50119
702.7132, 17.25695
703.1953, 17.11492
703.6774, 17.17237
704.1595, 17.22347
704.6417, 17.16314
705.1238, 17.05927
705.6059, 17.00971
706.0880, 17.08158
706.5701, 17.09976
707.0522, 17.01447
707.5344, 16.89088
708.0165, 16.89215
708.4986, 17.03091
708.9807, 17.09344
709.4628, 16.99462
709.9449, 16.81012
710.4271, 16.61213
710.9092, 16.43678
711.3913, 16.41143
711.8734, 16.82711
712.3555, 17.22598
712.8376, 17.21988
713.3198, 16.88647
713.8019, 16.63528
714.2840, 16.64392
714.7661, 16.68989
715.2482, 16.71459
715.7303, 16.71591
716.2125, 16.60894
716.6946, 16.33669
717.1767, 16.11003
717.6588, 16.08112
718.1409, 16.22057
718.6230, 16.31714
719.1052, 16.37188
719.5873, 16.37750
720.0694, 16.29007
720.5515, 16.16953
721.0336, 16.07400
721.5157, 16.00554
721.9979, 16.02486
722.4800, 16.32439
722.9621, 16.61926
723.4442, 16.66384
723.9263, 16.26948
724.4084, 15.97952
724.8906, 15.77892
725.3727, 15.69731
725.8548, 15.83316
726.3369, 16.21540
726.8190, 16.36499
727.3011, 16.19325
727.7833, 15.89670
728.2654, 15.68138
728.7475, 15.54344
729.2296, 15.48489
729.7117, 15.54567
730.1938, 15.60248
730.6760, 15.52784
731.1581, 15.40652
731.6402, 15.36784
732.1223, 15.62451
732.6044, 15.73418
733.0865, 15.55952
733.5687, 15.23219
734.0508, 15.03166
734.5329, 14.98650
735.0150, 14.94454
735.4971, 14.85178
735.9792, 14.75301
736.4614, 14.78833
736.9435, 14.92575
737.4256, 15.00039
737.9077, 14.84542
738.3898, 14.65632
738.8719, 14.64245
739.3541, 14.75344
739.8362, 14.81237
740.3183, 14.69403
740.8004, 14.57379
741.2825, 14.53517
741.7646, 14.56427
742.2468, 14.53098
742.7289, 14.39387
743.2110, 14.29978
743.6931, 14.33963
744.1752, 14.48308
744.6573, 14.57228
745.1395, 14.60607
745.6216, 14.56705
746.1037, 14.36545
746.5858, 14.12677
747.0679, 14.03452
747.5500, 14.08969
748.0322, 14.10947
748.5143, 13.92345
748.9964, 13.74526
749.4785, 13.73352
749.9606, 13.95325
750.4427, 14.03095
750.9249, 13.90230
751.4070, 13.74283
751.8891, 13.67175
752.3712, 13.68748
752.8533, 13.71255
753.3354, 13.74037
753.8176, 13.82390
754.2997, 14.13727
754.7818, 14.49314
755.2639, 14.55861
755.7460, 14.23586
756.2281, 13.92858
756.7103, 13.87649
757.1924, 13.91948
757.6745, 13.92163
758.1566, 13.83646
758.6387, 13.76479
759.1208, 13.68239
759.6030, 13.64202
760.0851, 13.72053
760.5672, 13.92365
761.0493, 14.10011
761.5314, 14.24740
762.0135, 14.30415
762.4957, 14.09033
762.9778, 13.75506
763.4599, 13.59200
763.9420, 13.73630
764.4241, 13.91563
764.9063, 14.01165
765.3884, 14.04548
765.8705, 14.04193
766.3526, 13.96697
766.8347, 13.90728
767.3168, 13.85335
767.7990, 13.82789
768.2811, 13.90388
768.7632, 14.09237
769.2453, 14.12574
769.7274, 13.89639
770.2095, 13.62770
770.6917, 13.68589
771.1738, 13.94344
771.6559, 14.11804
772.1380, 14.05396
772.6201, 13.95768
773.1022, 13.89487
773.5844, 13.88266
774.0665, 13.95838
774.5486, 14.28417
775.0307, 14.45656
775.5128, 14.35854
775.9949, 14.12435
776.4771, 14.08630
776.9592, 14.25440
777.4413, 14.29961
777.9234, 14.06059
778.4055, 13.75531
778.8876, 13.75362
779.3698, 13.95861
779.8519, 14.12138
780.3340, 14.10524
780.8161, 14.04491
781.2982, 13.94722
781.7803, 13.85246
782.2625, 13.87970
782.7446, 14.15265
783.2267, 14.34310
783.7088, 14.34924
784.1909, 14.25061
784.6730, 14.32932
785.1552, 14.58286
785.6373, 14.66258
786.1194, 14.29082
786.6015, 13.82913
787.0836, 13.88207
787.5657, 14.29167
788.0479, 14.62234
788.5300, 14.60647
789.0121, 14.52876
789.4942, 14.50598
789.9763, 14.52125
790.4584, 14.50223
790.9406, 14.46536
791.4227, 14.34823
791.9048, 14.07677
792.3869, 13.74465
792.8690, 13.69134
793.3511, 13.89971
793.8333, 14.11328
794.3154, 14.21778
794.7975, 14.25853
795.2796, 14.27639
795.7617, 14.27389
796.2438, 14.25820
796.7260, 14.21927
797.2081, 14.18166
797.6902, 14.16406
798.1723, 14.15737
798.6544, 14.11763
799.1365, 14.02056
799.6187, 13.95979
800.1008, 13.98503
800.5829, 14.05589
801.0650, 14.01917
801.5471, 13.89811
802.0292, 13.84357
802.5114, 14.03386
802.9935, 14.25052
803.4756, 14.23923
803.9577, 14.07621
804.4398, 14.01848
804.9219, 14.33583
805.4041, 14.54898
805.8862, 14.44660
806.3683, 14.13148
806.8504, 14.05406
807.3325, 14.26495
807.8146, 14.46717
808.2968, 14.54530
808.7789, 14.54756
809.2610, 14.59636
809.7431, 14.67034
810.2252, 14.68219
810.7073, 14.49675
811.1895, 14.31783
811.6716, 14.32770
812.1537, 14.46074
812.6358, 14.46681
813.1179, 14.17080
813.6000, 13.93294
814.0822, 13.83535
814.5643, 13.85312
815.0464, 13.92018
815.5285, 14.03779
816.0106, 14.11643
816.4927, 14.06499
816.9749, 14.01062
817.4570, 14.22390
817.9391, 14.60154
818.4212, 14.85216
818.9033, 14.75132
819.3854, 14.58999
819.8676, 14.47102
820.3497, 14.38499
820.8318, 14.28064
821.3139, 14.10585
821.7960, 14.04823
822.2781, 14.19989
822.7603, 14.45344
823.2424, 14.52152
823.7245, 14.43771
824.2066, 14.42189
824.6887, 14.62781
825.1708, 14.85821
825.6530, 14.93458
826.1351, 14.89899
826.6172, 14.84407
827.0993, 14.77448
827.5814, 14.71721
828.0635, 14.68808
828.5457, 14.66941
829.0278, 14.62079
829.5099, 14.53832
829.9920, 14.44479
830.4741, 14.32465
830.9562, 14.23732
831.4384, 14.31400
831.9205, 14.49991
832.4026, 14.65895
832.8847, 14.77755
833.3668, 14.80780
833.8489, 14.62417
834.3311, 14.36207
834.8132, 14.26661
835.2953, 14.47670
835.7774, 14.59304
836.2595, 14.52592
836.7416, 14.41159
837.2238, 14.53016
837.7059, 14.84386
838.1880, 14.96919
838.6701, 14.77184
839.1522, 14.51897
839.6343, 14.51936
840.1165, 14.62560
840.5986, 14.61478
841.0807, 14.24068
841.5628, 14.06018
842.0449, 14.37676
842.5270, 14.80376
843.0092, 14.94694
843.4913, 14.75522
843.9734, 14.52421
844.4555, 14.23332
844.9376, 14.08157
845.4197, 14.53477
845.9019, 15.25920
846.3840, 15.48347
846.8661, 14.94889
847.3482, 14.46879
847.8303, 14.60380
848.3124, 14.94051
848.7946, 15.10600
849.2767, 15.00752
849.7588, 14.89389
850.2409, 14.74202
850.7230, 14.61853
851.2051, 14.57083
851.6873, 14.60057
852.1694, 14.73982
852.6515, 14.99508
853.1336, 15.26121
853.6157, 15.58080
854.0978, 15.78973
854.5800, 15.65323
855.0621, 15.08867
855.5442, 14.69370
856.0263, 14.65896
856.5084, 14.75720
856.9905, 14.94030
857.4727, 15.20851
857.9548, 15.19576
858.4369, 14.87103
858.9190, 14.60563
859.4011, 14.73966
859.8832, 15.06002
860.3654, 15.24125
860.8475, 15.28292
861.3296, 15.28310
861.8117, 15.29116
862.2938, 15.26515
862.7759, 15.13082
863.2581, 14.91887
863.7402, 14.89192
864.2223, 15.11829
864.7044, 15.29320
865.1865, 15.25219
865.6686, 15.09800
866.1508, 15.10098
866.6329, 15.23231
867.1150, 15.36778
867.5971, 15.48686
868.0792, 15.54694
868.5613, 15.47349
869.0435, 15.31714
869.5256, 15.24115
870.0077, 15.30768
870.4898, 15.36407
870.9719, 15.39229
871.4540, 15.38573
871.9362, 15.29137
872.4183, 15.12916
872.9004, 15.07762
873.3825, 15.26377
873.8646, 15.42674
874.3467, 15.23483
874.8289, 14.87655
875.3110, 14.63918
875.7931, 14.61264
876.2752, 14.72091
876.7573, 15.08012
877.2394, 15.44769
877.7216, 15.51305
878.2037, 15.25838
878.6858, 14.97550
879.1679, 14.67638
879.6500, 14.46006
880.1321, 14.47790
880.6143, 14.62668
881.0964, 14.77320
881.5785, 14.90766
882.0606, 14.96886
882.5427, 14.86764
883.0248, 14.73779
883.5070, 14.68124
883.9891, 14.72074
884.4712, 14.66695
884.9533, 14.49257
885.4354, 14.36574
885.9175, 14.52206
886.3997, 14.78893
886.8818, 14.74212
887.3639, 14.39671
887.8460, 14.14997
888.3281, 14.36073
888.8102, 14.60365
889.2924, 14.60932
889.7745, 14.39274
890.2566, 14.27738
890.7387, 14.27090
891.2208, 14.35831
891.7029, 14.61689
892.1851, 14.91001
892.6672, 14.79117
893.1493, 14.35914
893.6314, 14.04300
894.1135, 14.15563
894.5956, 14.34783
895.0778, 14.45568
895.5599, 14.49083
896.0420, 14.48437
896.5241, 14.43882
897.0062, 14.33936
897.4883, 14.12889
897.9705, 13.94254
898.4526, 14.10795
898.9347, 14.54063
899.4168, 14.84199
899.8989, 14.89132
900.3810, 14.85729
900.8632, 14.83647
901.3453, 14.82717
901.8274, 14.82702
902.3095, 14.83476
902.7916, 14.85875
903.2737, 14.92162
903.7559, 14.96676
904.2380, 14.92996
904.7201, 14.82074
905.2022, 14.71451
905.6843, 14.61529
906.1664, 14.58555
906.6486, 14.77336
907.1307, 14.98869
907.6128, 15.03491
908.0949, 14.88239
908.5770, 14.77981
909.0591, 14.80277
909.5413, 14.82236
910.0234, 14.77472
910.5055, 14.67810
910.9876, 14.66206
911.4697, 14.72149
911.9518, 14.75854
912.4340, 14.71369
912.9161, 14.62381
913.3982, 14.49591
913.8803, 14.35263
914.3624, 14.25812
914.8445, 14.17466
915.3267, 14.23361
915.8088, 14.56364
916.2909, 14.96553
916.7730, 14.97624
917.2551, 14.60704
917.7372, 14.37633
918.2194, 14.42340
918.7015, 14.57061
919.1836, 14.58276
919.6657, 14.59056
920.1478, 14.81774
920.6299, 15.59792
921.1121, 15.95357
921.5942, 15.49135
922.0763, 14.86889
922.5584, 14.59504
923.0405, 14.67971
923.5226, 14.85308
924.0048, 15.11621
924.4869, 15.32824
924.9690, 15.34790
925.4511, 15.27251
925.9332, 15.17845
926.4153, 15.07727
926.8975, 15.05348
927.3796, 15.19672
927.8617, 15.35115
928.3438, 15.47387
928.8259, 15.56604
929.3080, 15.65230
929.7902, 15.73194
930.2723, 15.72630
930.7544, 15.53539
931.2365, 15.31928
931.7186, 15.29505
932.2007, 15.38297
932.6829, 15.41927
933.1650, 15.25399
933.6471, 15.17627
934.1292, 15.27983
934.6113, 15.43386
935.0934, 15.43010
935.5756, 15.27086
936.0577, 15.20496
936.5398, 15.28248
937.0219, 15.35354
937.5040, 15.17091
937.9861, 14.95157
938.4683, 15.00634
938.9504, 15.47480
939.4325, 15.72120
939.9146, 15.48385
940.3967, 15.20931
940.8788, 15.14791
941.3610, 15.27606
941.8431, 15.26035
942.3252, 15.10589
942.8073, 14.96364
943.2894, 14.87655
943.7715, 14.89006
944.2537, 15.16733
944.7358, 15.60161
945.2179, 15.80488
945.7000, 15.50637
946.1821, 15.21609
946.6642, 14.98606
947.1464, 14.83742
947.6285, 14.87574
948.1106, 15.06560
948.5927, 15.11837
949.0748, 14.92358
949.5569, 14.69956
950.0391, 14.63604
950.5212, 14.65312
951.0033, 14.65870
951.4854, 14.61489
951.9675, 14.61844
952.4496, 14.69773
952.9318, 14.77623
953.4139, 14.75736
953.8960, 14.67558
954.3781, 14.78609
954.8602, 15.07647
955.3423, 15.29548
955.8245, 15.24657
956.3066, 15.09093
956.7887, 14.87472
957.2708, 14.63021
957.7529, 14.55872
958.2350, 14.76828
958.7172, 14.89608
959.1993, 14.81423
959.6814, 14.63438
960.1635, 14.61334
960.6456, 14.70120
961.1277, 14.72867
961.6099, 14.58277
962.0920, 14.48312
962.5741, 14.68853
963.0562, 14.93260
963.5383, 14.87866
964.0204, 14.31730
964.5026, 14.07234
964.9847, 14.20716
965.4668, 14.45639
965.9489, 14.62445
966.4310, 14.71529
966.9131, 14.68309
967.3953, 14.54480
967.8774, 14.53702
968.3595, 15.02467
968.8416, 15.42167
969.3237, 15.37150
969.8058, 14.98671
970.2880, 14.75410
970.7701, 14.67724
971.2522, 14.72100
971.7343, 14.91699
972.2164, 15.15174
972.6985, 15.29618
973.1807, 15.35416
973.6628, 15.32536
974.1449, 15.06688
974.6270, 14.96375
975.1091, 15.22929
975.5912, 15.54573
976.0734, 15.56801
976.5555, 15.28557
977.0376, 15.30852
977.5197, 15.68236
978.0018, 16.02180
978.4839, 15.92205
978.9661, 15.69722
979.4482, 15.68880
979.9303, 15.90271
980.4124, 16.02020
980.8945, 15.89984
981.3766, 15.82705
981.8588, 15.87839
982.3409, 16.03651
982.8230, 16.30754
983.3051, 16.65875
983.7872, 16.91006
984.2693, 16.94909
984.7515, 16.96338
985.2336, 17.02388
985.7157, 17.16347
986.1978, 17.44361
986.6799, 17.97851
987.1620, 18.36939
987.6442, 18.57608
988.1263, 18.75111
988.6084, 19.02542
989.0905, 19.37363
989.5726, 19.71541
990.0547, 20.05405
990.5369, 20.45529
991.0190, 20.96088
991.5011, 21.53001
991.9832, 22.13153
992.4653, 22.77751
992.9474, 23.52997
993.4296, 24.37376
993.9117, 25.39986
994.3938, 26.62267
994.8759, 28.06526
995.3580, 29.86333
995.8401, 31.86057
996.3223, 33.82890
996.8044, 35.48561
997.2865, 37.63607
997.7686, 40.52122
998.2507, 43.76760
998.7328, 47.22902
999.2150, 50.85893
999.6971, 54.15266
1000.179, 57.07133
1000.661, 60.11000
1001.143, 63.46190
1001.626, 67.17453
1002.108, 71.43301
1002.590, 76.12911
1003.072, 80.91922
1003.554, 85.54408
1004.036, 90.54704
1004.518, 95.89762
1005.000, 101.8375
1005.482, 108.8688
1005.965, 116.7532
1006.447, 124.7482
1006.929, 132.7521
1007.411, 140.5561
1007.893, 148.9640
1008.375, 156.4492
1008.857, 162.3061
1009.339, 166.6823
1009.822, 168.0535
1010.304, 166.4519
1010.786, 161.5993
1011.268, 152.3352
1011.750, 140.5393
1012.232, 127.4280
1012.714, 113.6849
1013.196, 101.0900
1013.678, 89.95128
1014.161, 80.42059
1014.643, 72.62873
1015.125, 66.48019
1015.607, 62.25714
1016.089, 59.73684
1016.571, 57.44249
1017.053, 55.16247
1017.535, 53.28265
1018.018, 52.35815
1018.500, 51.75421
1018.982, 50.92809
1019.464, 49.83802
1019.946, 49.08646
1020.428, 48.78598
1020.910, 48.40330
1021.392, 47.65124
1021.874, 46.73971
1022.357, 46.16527
1022.839, 45.75665
1023.321, 45.11703
1023.803, 44.00529
1024.285, 42.77892
1024.767, 41.49128
1025.249, 40.14481
1025.731, 38.67108
1026.214, 37.05852
1026.696, 35.92499
1027.178, 35.30854
1027.660, 34.69884
1028.142, 33.62258
1028.624, 32.42470
1029.106, 31.42030
1029.588, 30.59685
1030.070, 29.65578
1030.553, 28.40667
1031.035, 27.44500
1031.517, 26.97043
1031.999, 26.75806
1032.481, 26.44784
1032.963, 26.06015
1033.445, 25.63339
1033.927, 25.15282
1034.410, 24.71300
1034.892, 24.34632
1035.374, 24.05371
1035.856, 23.87385
1036.338, 23.81216
1036.820, 23.48874
1037.302, 22.90054
1037.784, 22.46990
1038.266, 22.61706
1038.749, 22.91545
1039.231, 22.99005
1039.713, 22.87497
1040.195, 22.64494
1040.677, 22.22763
1041.159, 21.84242
1041.641, 21.47986
1042.123, 21.20266
1042.605, 21.12302
1043.088, 21.18456
1043.570, 21.26088
1044.052, 21.33801
1044.534, 21.31885
1045.016, 21.03595
1045.498, 20.75842
1045.980, 20.62289
1046.462, 20.60932
1046.945, 20.64812
1047.427, 20.74259
1047.909, 20.79872
1048.391, 20.76403
1048.873, 20.72898
1049.355, 20.81030
1049.837, 20.94274
1050.319, 21.04741
1050.802, 21.14850
1051.284, 21.08386
1051.766, 20.75194
1052.248, 20.48375
1052.730, 20.61328
1053.212, 20.97914
1053.694, 21.04637
1054.176, 20.87059
1054.658, 20.71809
1055.141, 20.77299
1055.623, 20.81011
1056.105, 20.66374
1056.587, 20.50005
1057.069, 20.62682
1057.551, 21.05758
1058.033, 21.26028
1058.515, 21.14606
1058.997, 21.01328
1059.480, 21.20048
1059.962, 21.44749
1060.444, 21.45494
1060.926, 21.19975
1061.408, 21.17825
1061.890, 21.48519
1062.372, 21.81766
1062.854, 22.10332
1063.337, 22.30887
1063.819, 22.26880
1064.301, 22.11074
1064.783, 22.13306
1065.265, 22.52070
1065.747, 22.85163
1066.229, 22.93036
1066.711, 22.97923
1067.193, 23.15986
1067.676, 23.45930
1068.158, 23.62157
1068.640, 23.65769
1069.122, 23.72234
1069.604, 23.91410
1070.086, 24.16353
1070.568, 24.47796
1071.050, 24.80790
1071.532, 25.01802
1072.015, 25.00746
1072.497, 25.26829
1072.979, 25.90196
1073.461, 26.59018
1073.943, 27.02233
1074.425, 27.28210
1074.907, 27.40516
1075.389, 27.41243
1075.872, 27.64261
1076.354, 28.35879
1076.836, 29.05383
1077.318, 29.59066
1077.800, 30.01785
1078.282, 30.43109
1078.764, 30.84287
1079.246, 31.29824
1079.729, 31.80530
1080.211, 32.38671
1080.693, 33.01326
1081.175, 33.76800
1081.657, 34.73542
1082.139, 35.91768
1082.621, 36.87388
1083.103, 37.60753
1083.585, 38.34257
1084.068, 39.10214
1084.550, 40.03011
1085.032, 41.34758
1085.514, 42.90342
1085.996, 44.38661
1086.478, 45.61104
1086.960, 47.10346
1087.442, 48.91611
1087.924, 50.88472
1088.406, 52.83157
1088.889, 54.83407
1089.371, 57.05891
1089.853, 59.51019
1090.335, 62.15660
1090.817, 65.03183
1091.299, 68.03780
1091.781, 71.01903
1092.263, 74.25674
1092.746, 78.38937
1093.228, 83.24109
1093.710, 87.81606
1094.192, 91.89063
1094.674, 96.21748
1095.156, 101.3683
1095.638, 106.8900
1096.120, 112.5188
1096.603, 118.1984
1097.085, 123.7873
1097.567, 129.2766
1098.049, 134.8613
1098.531, 140.6376
1099.013, 146.5049
1099.495, 152.4228
1099.977, 158.4075
1100.459, 164.5700
1100.942, 170.8269
1101.424, 177.4690
1101.906, 184.6363
1102.388, 191.7956
1102.870, 198.8065
1103.352, 205.5625
1103.834, 212.2474
1104.316, 218.5840
1104.798, 223.5950
1105.281, 226.5207
1105.763, 228.7556
1106.245, 230.9034
1106.727, 231.9132
1107.209, 230.5434
1107.691, 227.0072
1108.173, 222.1645
1108.655, 216.0434
1109.138, 208.7730
1109.620, 199.7580
1110.102, 190.2319
1110.584, 180.4649
1111.066, 170.6397
1111.548, 160.7922
1112.030, 150.8512
1112.512, 141.1407
1112.995, 131.5706
1113.477, 122.6059
1113.959, 114.5839
1114.441, 107.3533
1114.923, 100.8178
1115.405, 94.96665
1115.887, 89.96719
1116.369, 85.88889
1116.851, 82.02486
1117.333, 78.05790
1117.816, 74.31705
1118.298, 71.23697
1118.780, 68.66940
1119.262, 66.41245
1119.744, 64.46651
1120.226, 62.78107
1120.708, 61.40423
1121.190, 60.15441
1121.673, 58.92037
1122.155, 57.72768
1122.637, 56.52702
1123.119, 55.38477
1123.601, 54.48426
1124.083, 54.01786
1124.565, 53.64780
1125.047, 53.37389
1125.530, 53.09304
1126.012, 52.68036
1126.494, 52.16730
1126.976, 51.63831
1127.458, 51.13240
1127.940, 50.93697
1128.422, 51.63403
1128.904, 52.20371
1129.386, 52.01421
1129.869, 51.52740
1130.351, 51.41483
1130.833, 51.67350
1131.315, 52.17979
1131.797, 52.93400
1132.279, 53.71904
1132.761, 54.42739
1133.243, 55.04485
1133.725, 55.44756
1134.208, 55.72649
1134.690, 56.32635
1135.172, 57.27347
1135.654, 58.41859
1136.136, 59.80661
1136.618, 61.12346
1137.100, 61.80420
1137.582, 62.36452
1138.065, 63.39525
1138.547, 65.03434
1139.029, 66.67152
1139.511, 68.32410
1139.993, 69.89922
1140.475, 71.29403
1140.957, 72.69712
1141.439, 74.36691
1141.922, 76.28490
1142.404, 78.50921
1142.886, 81.27803
1143.368, 83.67033
1143.850, 85.49095
1144.332, 87.13771
1144.814, 88.74007
1145.296, 90.36989
1145.778, 92.37510
1146.260, 94.58646
1146.743, 96.56975
1147.225, 97.97987
1147.707, 99.35439
1148.189, 100.8959
1148.671, 102.3233
1149.153, 103.2438
1149.635, 103.8178
1150.117, 105.0011
1150.600, 106.7024
1151.082, 108.1316
1151.564, 109.0493
1152.046, 109.4166
1152.528, 109.0366
1153.010, 108.2518
1153.492, 107.4771
1153.974, 106.7041
1154.457, 105.8358
1154.939, 104.8711
1155.421, 103.6122
1155.903, 101.7345
1156.385, 99.71491
1156.867, 97.90514
1157.349, 96.13924
1157.831, 94.01588
1158.313, 91.52131
1158.796, 88.86469
1159.278, 86.04994
1159.760, 83.21807
1160.242, 80.36132
1160.724, 77.64108
1161.206, 75.22688
1161.688, 73.08142
1162.170, 71.01391
1162.652, 69.01436
1163.135, 67.12447
1163.617, 65.38182
1164.099, 63.64824
1164.581, 61.65570
1165.063, 59.64542
1165.545, 57.93297
1166.027, 56.59514
1166.509, 54.93283
1166.992, 52.82996
1167.474, 51.03046
1167.956, 49.95209
1168.438, 49.10752
1168.920, 47.79898
1169.402, 46.32289
1169.884, 45.10261
1170.366, 44.34803
1170.849, 43.44910
1171.331, 42.36431
1171.813, 41.26828
1172.295, 40.19048
1172.777, 39.20984
1173.259, 38.52374
1173.741, 38.00814
1174.223, 37.43508
1174.705, 36.74701
1175.188, 35.94610
1175.670, 34.94600
1176.152, 34.04650
1176.634, 33.56413
1177.116, 33.28604
1177.598, 32.70911
1178.080, 31.94940
1178.562, 31.36413
1179.044, 31.28228
1179.527, 31.03856
1180.009, 30.51157
1180.491, 29.95180
1180.973, 29.67102
1181.455, 29.50681
1181.937, 29.00554
1182.419, 28.24468
1182.901, 27.66113
1183.384, 27.70320
1183.866, 27.52574
1184.348, 26.89881
1184.830, 26.17743
1185.312, 25.86911
1185.794, 25.80707
1186.276, 25.50036
1186.758, 24.94222
1187.240, 24.51235
1187.723, 24.55838
1188.205, 24.50454
1188.687, 24.16982
1189.169, 23.72874
1189.651, 23.49278
1190.133, 23.38632
1190.615, 23.15444
1191.097, 22.76237
1191.579, 22.44898
1192.062, 22.42102
1192.544, 22.35963
1193.026, 22.14014
1193.508, 21.84611
1193.990, 21.68667
1194.472, 21.61030
1194.954, 21.42437
1195.436, 21.08000
1195.919, 20.74683
1196.401, 20.44923
1196.883, 20.24896
1197.365, 20.20972
1197.847, 20.25464
1198.329, 20.13713
1198.811, 19.90331
1199.293, 19.74175
1199.776, 19.71924
1200.258, 19.67196
1200.740, 19.51766
1201.222, 19.31897
1201.704, 19.08720
1202.186, 18.84512
1202.668, 18.70925
1203.150, 18.65507
1203.632, 18.58677
1204.115, 18.48352
1204.597, 18.33476
1205.079, 18.02572
1205.561, 17.79011
1206.043, 17.82739
1206.525, 18.04761
1207.007, 17.93443
1207.489, 17.56513
1207.971, 17.28698
1208.454, 17.28576
1208.936, 17.29862
1209.418, 17.19695
1209.900, 17.09123
1210.382, 17.08602
1210.864, 17.14561
1211.346, 16.95237
1211.828, 16.57279
1212.311, 16.34545
1212.793, 16.56712
1213.275, 16.74028
1213.757, 16.63263
1214.239, 16.45409
1214.721, 16.35324
1215.203, 16.31888
1215.685, 16.24303
1216.167, 16.14250
1216.650, 16.10444
1217.132, 16.27605
1217.614, 16.37894
1218.096, 16.27523
1218.578, 16.12340
1219.060, 16.06019
1219.542, 16.07268
1220.024, 16.08532
1220.506, 16.09148
1220.989, 16.06219
1221.471, 15.94397
1221.953, 15.84149
1222.435, 15.81832
1222.917, 15.78358
1223.399, 15.57548
1223.881, 15.26503
1224.363, 15.26135
1224.846, 15.52768
1225.328, 15.76084
1225.810, 15.86730
1226.292, 15.83178
1226.774, 15.59168
1227.256, 15.31055
1227.738, 15.15221
1228.220, 15.11687
1228.703, 15.27131
1229.185, 15.57828
1229.667, 15.77296
1230.149, 15.58798
1230.631, 15.48039
1231.113, 15.58833
1231.595, 15.75444
1232.077, 15.80906
1232.559, 15.75394
1233.042, 15.53358
1233.524, 15.17456
1234.006, 14.90536
1234.488, 14.84702
1234.970, 14.87730
1235.452, 15.02258
1235.934, 15.15277
1236.416, 15.02353
1236.898, 14.76807
1237.381, 14.71327
1237.863, 14.86245
1238.345, 14.96597
1238.827, 14.86872
1239.309, 14.84456
1239.791, 14.97491
1240.273, 15.11552
1240.755, 15.08263
1241.238, 14.91856
1241.720, 14.60909
1242.202, 14.18875
1242.684, 14.06859
1243.166, 14.56289
1243.648, 14.84181
1244.130, 14.70513
1244.612, 14.42807
1245.094, 14.35887
1245.577, 14.39101
1246.059, 14.06480
1246.541, 14.42079
1247.023, 14.61606
1247.505, 14.65936
1247.987, 14.08914
1248.469, 14.31602
1248.951, 14.22644
1249.433, 14.12591
1249.916, 14.47106
1250.398, 14.00101
1250.880, 14.34338
1251.362, 14.36442
1251.844, 14.53561
1252.326, 14.38838
1252.808, 14.34228
1253.290, 14.61897
1253.773, 14.24995
1254.255, 14.11660
1254.737, 14.16531
1255.219, 14.37035
1255.701, 14.34055
1256.183, 14.03551
1256.665, 13.87161
1257.147, 13.97096
1257.630, 14.07818
1258.112, 13.88706
1258.594, 13.65965
1259.076, 13.67664
1259.558, 13.86091
1260.040, 13.84201
1260.522, 13.62275
1261.004, 13.40434
1261.486, 13.22225
1261.969, 13.10617
1262.451, 13.14588
1262.933, 13.19293
1263.415, 13.12322
1263.897, 12.98985
1264.379, 12.99768
1264.861, 13.12253
1265.343, 13.17013
1265.825, 13.08455
1266.308, 13.03560
1266.790, 13.16396
1267.272, 13.31436
1267.754, 13.43923
1268.236, 13.50876
1268.718, 13.38492
1269.200, 13.13550
1269.682, 13.03440
1270.165, 13.15376
1270.647, 13.21265
1271.129, 12.94164
1271.611, 12.80392
1272.093, 13.02446
1272.575, 13.35801
1273.057, 13.23265
1273.539, 12.85925
1274.021, 12.74086
1274.504, 12.98777
1274.986, 13.14455
1275.468, 13.11611
1275.950, 13.00810
1276.432, 12.81923
1276.914, 12.63391
1277.396, 12.56448
1277.878, 12.59288
1278.360, 12.73258
1278.843, 12.99052
1279.325, 13.09860
1279.807, 13.00508
1280.289, 12.91584
1280.771, 12.88838
1281.253, 12.88161
1281.735, 12.82031
1282.217, 12.77001
1282.700, 12.83192
1283.182, 12.99923
1283.664, 13.07950
1284.146, 13.07471
1284.628, 12.90275
1285.110, 12.47587
1285.592, 12.20304
1286.074, 12.66849
1286.557, 13.23256
1287.039, 13.37693
1287.521, 13.19434
1288.003, 13.00418
1288.485, 12.81050
1288.967, 12.66113
1289.449, 12.56812
1289.931, 12.51620
1290.413, 12.58153
1290.896, 12.57939
1291.378, 12.36641
1291.860, 12.07830
1292.342, 12.07225
1292.824, 12.28527
1293.306, 12.53428
1293.788, 12.79603
1294.270, 12.93961
1294.752, 12.81372
1295.235, 12.68135
1295.717, 12.59876
1296.199, 12.56538
1296.681, 12.62648
1297.163, 12.71825
1297.645, 12.69632
1298.127, 12.54344
1298.609, 12.49688
1299.092, 12.63675
1299.574, 12.71556
1300.056, 12.65644
1300.538, 12.58840
1301.020, 12.74416
1301.502, 12.92724
1301.984, 12.84978
1302.466, 12.53541
1302.948, 12.45518
1303.431, 12.65364
1303.913, 12.77971
1304.395, 12.77684
1304.877, 12.63737
##END=



