##NAMES=Natroalunite
##RRUFFID=R060406
##IDEAL CHEMISTRY=NaAl_3_(S^6+^O_4_)_2_(OH)_6_
##LOCALITY=Sugar Loaf Butte, Arizona, USA
##OWNER=RRUFF
##SOURCE=American Museum of Natural History
##DESCRIPTION=Tan colored consolidated powder
##STATUS=The identification of this mineral has been confirmed only by X-ray diffraction
##URL=rruff.info/R060406
172.0309, 1177.246
172.5130, 1186.547
172.9951, 1194.983
173.4772, 1203.107
173.9593, 1211.814
174.4414, 1221.918
174.9236, 1232.462
175.4057, 1242.436
175.8878, 1251.926
176.3699, 1260.586
176.8520, 1268.110
177.3341, 1274.672
177.8163, 1280.678
178.2984, 1285.799
178.7805, 1290.561
179.2626, 1295.752
179.7447, 1301.294
180.2268, 1307.075
180.7090, 1313.123
181.1911, 1319.300
181.6732, 1325.116
182.1553, 1330.461
182.6374, 1335.274
183.1195, 1338.893
183.6017, 1341.132
184.0838, 1343.470
184.5659, 1347.821
185.0480, 1353.891
185.5301, 1360.460
186.0123, 1367.192
186.4944, 1373.966
186.9765, 1380.094
187.4586, 1385.510
187.9407, 1390.617
188.4228, 1396.000
188.9050, 1401.600
189.3871, 1407.179
189.8692, 1412.759
190.3513, 1418.212
190.8334, 1423.054
191.3155, 1427.248
191.7977, 1430.823
192.2798, 1433.498
192.7619, 1435.289
193.2440, 1437.383
193.7261, 1440.750
194.2082, 1445.240
194.6904, 1449.043
195.1725, 1451.956
195.6546, 1454.426
196.1367, 1456.998
196.6188, 1459.658
197.1009, 1462.753
197.5831, 1466.774
198.0652, 1471.746
198.5473, 1475.918
199.0294, 1479.078
199.5115, 1481.538
199.9937, 1483.770
200.4758, 1485.647
200.9579, 1487.791
201.4400, 1490.742
201.9221, 1494.589
202.4042, 1497.693
202.8864, 1499.716
203.3685, 1501.170
203.8506, 1503.309
204.3327, 1506.230
204.8148, 1509.319
205.2969, 1512.081
205.7791, 1514.356
206.2612, 1517.628
206.7433, 1522.559
207.2254, 1528.096
207.7075, 1531.232
208.1896, 1531.237
208.6718, 1531.014
209.1539, 1532.325
209.6360, 1535.581
210.1181, 1538.258
210.6002, 1540.154
211.0823, 1541.468
211.5645, 1542.635
212.0466, 1543.543
212.5287, 1544.681
213.0108, 1546.384
213.4929, 1548.841
213.9750, 1551.234
214.4572, 1553.444
214.9393, 1555.601
215.4214, 1558.060
215.9035, 1560.640
216.3856, 1563.899
216.8678, 1568.315
217.3499, 1574.576
217.8320, 1579.797
218.3141, 1583.579
218.7962, 1586.225
219.2783, 1588.667
219.7605, 1590.908
220.2426, 1592.800
220.7247, 1594.041
221.2068, 1594.014
221.6889, 1595.021
222.1710, 1597.263
222.6532, 1600.584
223.1353, 1604.504
223.6174, 1609.431
224.0995, 1614.403
224.5816, 1619.031
225.0637, 1623.571
225.5459, 1627.244
226.0280, 1629.733
226.5101, 1631.438
226.9922, 1633.374
227.4743, 1635.260
227.9564, 1637.835
228.4386, 1641.617
228.9207, 1647.097
229.4028, 1652.397
229.8849, 1657.542
230.3670, 1662.460
230.8492, 1667.141
231.3313, 1671.577
231.8134, 1675.709
232.2955, 1679.468
232.7776, 1682.336
233.2597, 1686.046
233.7419, 1691.267
234.2240, 1697.212
234.7061, 1701.691
235.1882, 1704.574
235.6703, 1706.272
236.1524, 1707.019
236.6346, 1707.032
237.1167, 1705.540
237.5988, 1702.072
238.0809, 1697.289
238.5630, 1692.462
239.0451, 1686.828
239.5273, 1682.319
240.0094, 1680.053
240.4915, 1681.547
240.9736, 1681.100
241.4557, 1677.804
241.9378, 1672.919
242.4200, 1669.066
242.9021, 1666.420
243.3842, 1664.415
243.8663, 1662.825
244.3484, 1661.573
244.8306, 1660.992
245.3127, 1661.438
245.7948, 1662.374
246.2769, 1662.788
246.7590, 1662.377
247.2411, 1661.973
247.7233, 1661.836
248.2054, 1661.964
248.6875, 1662.444
249.1696, 1663.393
249.6517, 1664.636
250.1338, 1666.010
250.6160, 1668.047
251.0981, 1669.250
251.5802, 1668.708
252.0623, 1665.698
252.5444, 1664.871
253.0265, 1667.400
253.5087, 1671.172
253.9908, 1673.046
254.4729, 1672.094
254.9550, 1671.153
255.4371, 1670.810
255.9192, 1670.985
256.4014, 1672.671
256.8835, 1677.031
257.3656, 1681.749
257.8477, 1683.867
258.3298, 1682.090
258.8120, 1680.612
259.2941, 1680.565
259.7762, 1682.046
260.2583, 1683.141
260.7404, 1683.616
261.2225, 1683.958
261.7047, 1684.545
262.1868, 1685.040
262.6689, 1686.678
263.1510, 1690.328
263.6331, 1695.841
264.1152, 1699.310
264.5974, 1700.387
265.0795, 1699.900
265.5616, 1697.954
266.0437, 1693.262
266.5258, 1691.510
267.0079, 1694.767
267.4901, 1702.301
267.9722, 1707.053
268.4543, 1708.392
268.9364, 1708.409
269.4185, 1708.775
269.9006, 1709.660
270.3828, 1710.204
270.8649, 1710.105
271.3470, 1709.576
271.8291, 1709.754
272.3112, 1710.874
272.7933, 1711.971
273.2755, 1711.877
273.7576, 1710.123
274.2397, 1710.341
274.7218, 1713.733
275.2039, 1718.869
275.6860, 1721.295
276.1682, 1720.593
276.6503, 1718.840
277.1324, 1716.935
277.6145, 1714.820
278.0966, 1714.096
278.5787, 1715.436
279.0609, 1717.693
279.5430, 1717.821
280.0251, 1715.388
280.5072, 1713.833
280.9893, 1715.882
281.4715, 1721.510
281.9536, 1724.951
282.4357, 1725.507
282.9178, 1724.682
283.3999, 1724.910
283.8820, 1726.197
284.3642, 1727.844
284.8463, 1729.563
285.3284, 1731.321
285.8105, 1732.894
286.2926, 1734.088
286.7747, 1735.556
287.2569, 1738.829
287.7390, 1743.780
288.2211, 1747.580
288.7032, 1748.428
289.1853, 1747.077
289.6674, 1747.090
290.1496, 1748.649
290.6317, 1750.477
291.1138, 1751.041
291.5959, 1750.535
292.0780, 1750.151
292.5602, 1750.312
293.0423, 1750.886
293.5244, 1751.412
294.0065, 1751.883
294.4886, 1752.767
294.9707, 1754.913
295.4529, 1757.944
295.9350, 1760.515
296.4171, 1762.563
296.8992, 1763.721
297.3813, 1762.553
297.8634, 1759.293
298.3456, 1756.557
298.8277, 1756.409
299.3098, 1758.259
299.7919, 1761.027
300.2740, 1764.829
300.7561, 1768.831
301.2383, 1772.018
301.7204, 1774.455
302.2025, 1776.183
302.6846, 1776.961
303.1667, 1777.147
303.6488, 1777.171
304.1310, 1776.947
304.6131, 1777.031
305.0952, 1778.162
305.5773, 1780.071
306.0594, 1782.024
306.5415, 1783.534
307.0237, 1784.943
307.5058, 1786.815
307.9879, 1789.294
308.4700, 1791.440
308.9521, 1792.129
309.4343, 1792.029
309.9164, 1792.340
310.3985, 1794.019
310.8806, 1795.999
311.3627, 1797.375
311.8448, 1798.112
312.3270, 1798.956
312.8091, 1800.435
313.2912, 1802.253
313.7733, 1804.062
314.2554, 1805.869
314.7375, 1807.530
315.2197, 1808.870
315.7018, 1809.944
316.1839, 1811.106
316.6660, 1812.584
317.1481, 1814.193
317.6302, 1815.760
318.1124, 1817.139
318.5945, 1818.605
319.0766, 1820.328
319.5587, 1822.233
320.0408, 1824.083
320.5229, 1826.514
321.0051, 1828.365
321.4872, 1828.806
321.9693, 1826.543
322.4514, 1825.052
322.9335, 1825.262
323.4156, 1826.694
323.8978, 1828.424
324.3799, 1831.267
324.8620, 1833.542
325.3441, 1834.403
325.8262, 1833.090
326.3083, 1832.562
326.7905, 1833.456
327.2726, 1835.126
327.7547, 1836.762
328.2368, 1838.128
328.7189, 1839.684
329.2010, 1841.420
329.6832, 1843.282
330.1653, 1845.859
330.6474, 1850.974
331.1295, 1855.492
331.6116, 1856.630
332.0938, 1850.706
332.5759, 1847.309
333.0580, 1848.515
333.5401, 1853.619
334.0222, 1857.291
334.5043, 1859.114
334.9865, 1860.119
335.4686, 1860.831
335.9507, 1861.051
336.4328, 1861.515
336.9149, 1862.312
337.3970, 1863.360
337.8792, 1864.324
338.3613, 1865.041
338.8434, 1866.187
339.3255, 1868.401
339.8076, 1871.997
340.2898, 1874.340
340.7719, 1875.238
341.2540, 1875.312
341.7361, 1875.233
342.2182, 1874.935
342.7003, 1875.224
343.1825, 1876.378
343.6646, 1878.366
344.1467, 1881.153
344.6288, 1884.926
345.1109, 1888.637
345.5930, 1891.123
346.0752, 1892.455
346.5573, 1893.900
347.0394, 1896.041
347.5215, 1898.208
348.0036, 1898.312
348.4857, 1896.407
348.9679, 1895.226
349.4500, 1898.170
349.9321, 1903.525
350.4142, 1906.125
350.8963, 1904.734
351.3784, 1901.575
351.8606, 1898.682
352.3427, 1896.260
352.8248, 1895.020
353.3069, 1896.444
353.7890, 1898.904
354.2711, 1899.894
354.7533, 1899.047
355.2354, 1898.426
355.7175, 1900.225
356.1996, 1903.423
356.6817, 1906.228
357.1638, 1907.789
357.6460, 1908.736
358.1281, 1909.416
358.6102, 1909.854
359.0923, 1910.299
359.5744, 1911.149
360.0565, 1911.953
360.5387, 1912.244
361.0208, 1911.418
361.5029, 1910.658
361.9850, 1910.302
362.4671, 1910.396
362.9492, 1911.100
363.4314, 1912.961
363.9135, 1915.098
364.3956, 1917.152
364.8777, 1919.400
365.3598, 1920.810
365.8419, 1919.666
366.3241, 1917.895
366.8062, 1918.397
367.2883, 1925.010
367.7704, 1930.615
368.2526, 1932.604
368.7347, 1929.966
369.2168, 1929.319
369.6989, 1932.201
370.1810, 1936.201
370.6631, 1939.391
371.1453, 1941.392
371.6274, 1943.145
372.1095, 1944.846
372.5916, 1946.430
373.0737, 1947.306
373.5558, 1946.838
374.0380, 1946.608
374.5201, 1947.598
375.0022, 1950.230
375.4843, 1952.584
375.9664, 1954.378
376.4485, 1956.055
376.9307, 1958.651
377.4128, 1962.345
377.8949, 1966.116
378.3770, 1969.777
378.8591, 1973.265
379.3412, 1975.404
379.8234, 1975.927
380.3055, 1975.969
380.7876, 1976.720
381.2697, 1978.166
381.7518, 1979.914
382.2339, 1982.085
382.7161, 1984.341
383.1982, 1986.045
383.6803, 1987.184
384.1624, 1987.613
384.6445, 1986.938
385.1266, 1985.472
385.6088, 1983.972
386.0909, 1982.567
386.5730, 1981.133
387.0551, 1979.228
387.5372, 1977.147
388.0193, 1975.698
388.5015, 1975.484
388.9836, 1976.031
389.4657, 1977.243
389.9478, 1979.151
390.4299, 1980.287
390.9120, 1978.601
391.3942, 1975.876
391.8763, 1974.344
392.3584, 1975.833
392.8405, 1977.682
393.3226, 1978.949
393.8047, 1979.565
394.2869, 1979.207
394.7690, 1976.054
395.2511, 1973.052
395.7332, 1972.174
396.2154, 1974.793
396.6975, 1977.329
397.1796, 1978.935
397.6617, 1980.031
398.1438, 1981.328
398.6259, 1983.207
399.1081, 1985.012
399.5902, 1986.835
400.0723, 1988.869
400.5544, 1989.382
401.0365, 1986.555
401.5186, 1983.508
402.0008, 1982.959
402.4829, 1986.629
402.9650, 1989.402
403.4471, 1990.231
403.9292, 1989.731
404.4113, 1990.681
404.8935, 1993.807
405.3756, 1996.727
405.8577, 1998.276
406.3398, 1998.390
406.8219, 1997.402
407.3040, 1994.848
407.7862, 1992.154
408.2683, 1991.789
408.7504, 1993.863
409.2325, 1995.361
409.7146, 1994.874
410.1967, 1993.176
410.6789, 1992.812
411.1610, 1993.835
411.6431, 1995.420
412.1252, 1997.072
412.6073, 1998.734
413.0894, 2000.153
413.5716, 2001.126
414.0537, 2002.097
414.5358, 2003.570
415.0179, 2005.455
415.5000, 2007.535
415.9821, 2009.981
416.4643, 2012.321
416.9464, 2013.964
417.4285, 2014.790
417.9106, 2015.414
418.3927, 2015.933
418.8748, 2016.533
419.3570, 2017.430
419.8391, 2018.644
420.3212, 2020.220
420.8033, 2022.685
421.2854, 2025.736
421.7675, 2027.964
422.2497, 2028.644
422.7318, 2028.667
423.2139, 2028.320
423.6960, 2026.947
424.1781, 2026.817
424.6602, 2029.836
425.1424, 2033.838
425.6245, 2035.533
426.1066, 2032.179
426.5887, 2029.984
427.0709, 2030.598
427.5530, 2034.008
428.0351, 2036.732
428.5172, 2038.472
428.9993, 2039.926
429.4814, 2041.638
429.9636, 2043.751
430.4457, 2045.465
430.9278, 2046.596
431.4099, 2047.392
431.8920, 2048.328
432.3741, 2049.395
432.8563, 2050.710
433.3384, 2052.485
433.8205, 2054.619
434.3026, 2056.524
434.7847, 2058.263
435.2668, 2059.374
435.7490, 2058.693
436.2311, 2056.845
436.7132, 2056.179
437.1953, 2057.767
437.6774, 2060.170
438.1595, 2061.756
438.6417, 2062.560
439.1238, 2062.718
439.6059, 2061.021
440.0880, 2059.395
440.5701, 2060.522
441.0522, 2065.187
441.5344, 2069.177
442.0165, 2068.942
442.4986, 2066.814
442.9807, 2065.644
443.4628, 2067.406
443.9449, 2069.284
444.4271, 2070.135
444.9092, 2070.104
445.3913, 2070.146
445.8734, 2070.265
446.3555, 2070.659
446.8376, 2071.498
447.3198, 2073.293
447.8019, 2074.488
448.2840, 2074.316
448.7661, 2073.820
449.2482, 2074.555
449.7303, 2077.620
450.2125, 2080.028
450.6946, 2080.905
451.1767, 2080.408
451.6588, 2080.802
452.1409, 2082.466
452.6230, 2084.177
453.1052, 2085.068
453.5873, 2085.105
454.0694, 2084.653
454.5515, 2083.430
455.0337, 2082.357
455.5158, 2083.184
455.9979, 2085.809
456.4800, 2088.747
456.9621, 2092.226
457.4442, 2095.345
457.9264, 2095.106
458.4085, 2091.658
458.8906, 2088.822
459.3727, 2090.717
459.8548, 2095.065
460.3369, 2098.191
460.8191, 2099.170
461.3012, 2099.231
461.7833, 2098.548
462.2654, 2097.723
462.7475, 2097.992
463.2296, 2101.595
463.7118, 2105.045
464.1939, 2105.720
464.6760, 2103.417
465.1581, 2102.444
465.6402, 2105.544
466.1223, 2109.568
466.6045, 2112.256
467.0866, 2111.202
467.5687, 2111.320
468.0508, 2113.112
468.5329, 2116.197
469.0150, 2119.932
469.4972, 2125.286
469.9793, 2129.769
470.4614, 2132.619
470.9435, 2133.819
471.4256, 2133.645
471.9077, 2131.402
472.3899, 2129.238
472.8720, 2129.182
473.3541, 2131.409
473.8362, 2133.980
474.3183, 2136.689
474.8004, 2139.552
475.2826, 2142.751
475.7647, 2146.242
476.2468, 2149.458
476.7289, 2151.808
477.2110, 2153.724
477.6931, 2156.260
478.1753, 2159.420
478.6574, 2162.473
479.1395, 2164.782
479.6216, 2166.604
480.1037, 2168.352
480.5858, 2170.286
481.0680, 2171.908
481.5501, 2172.560
482.0322, 2172.689
482.5143, 2173.212
482.9964, 2173.794
483.4786, 2175.492
483.9607, 2179.793
484.4428, 2187.055
484.9249, 2192.043
485.4070, 2192.971
485.8892, 2191.750
486.3713, 2189.613
486.8534, 2185.526
487.3355, 2182.190
487.8176, 2179.808
488.2997, 2178.160
488.7819, 2176.714
489.2640, 2175.311
489.7461, 2174.468
490.2282, 2174.771
490.7103, 2176.041
491.1924, 2174.951
491.6746, 2170.862
492.1567, 2166.923
492.6388, 2165.927
493.1209, 2167.639
493.6030, 2170.310
494.0851, 2173.961
494.5673, 2177.796
495.0494, 2180.342
495.5315, 2181.990
496.0136, 2184.077
496.4957, 2188.350
496.9778, 2192.747
497.4600, 2194.537
497.9421, 2193.990
498.4242, 2193.868
498.9063, 2197.348
499.3884, 2201.133
499.8705, 2202.159
500.3527, 2198.766
500.8348, 2195.223
501.3169, 2192.463
501.7990, 2190.660
502.2811, 2190.062
502.7632, 2192.365
503.2454, 2194.154
503.7275, 2194.502
504.2096, 2193.557
504.6917, 2192.828
505.1738, 2192.360
505.6559, 2192.106
506.1381, 2191.962
506.6202, 2191.760
507.1023, 2192.625
507.5844, 2194.917
508.0665, 2197.677
508.5486, 2199.586
509.0308, 2200.632
509.5129, 2201.429
509.9950, 2201.991
510.4771, 2202.493
510.9592, 2203.403
511.4413, 2204.642
511.9235, 2205.819
512.4056, 2207.183
512.8877, 2208.086
513.3698, 2207.083
513.8519, 2203.906
514.3340, 2201.121
514.8162, 2201.476
515.2983, 2202.989
515.7804, 2203.215
516.2625, 2199.852
516.7446, 2197.145
517.2267, 2197.521
517.7089, 2199.897
518.1910, 2201.567
518.6731, 2201.649
519.1552, 2201.294
519.6373, 2200.710
520.1194, 2199.833
520.6016, 2199.471
521.0837, 2199.451
521.5658, 2200.102
522.0479, 2201.705
522.5300, 2204.357
523.0121, 2207.753
523.4943, 2212.597
523.9764, 2217.172
524.4585, 2217.710
524.9406, 2214.104
525.4227, 2210.935
525.9048, 2209.590
526.3870, 2209.954
526.8691, 2212.754
527.3513, 2217.779
527.8334, 2221.606
528.3155, 2220.914
528.7976, 2217.847
529.2797, 2215.099
529.7618, 2212.790
530.2440, 2212.068
530.7261, 2215.294
531.2082, 2220.098
531.6903, 2223.387
532.1724, 2221.606
532.6545, 2220.870
533.1367, 2224.563
533.6188, 2231.152
534.1009, 2235.291
534.5830, 2234.025
535.0651, 2232.229
535.5472, 2231.593
536.0294, 2232.397
536.5115, 2232.284
536.9936, 2230.668
537.4757, 2228.977
537.9578, 2228.202
538.4399, 2228.260
538.9221, 2230.168
539.4042, 2234.893
539.8863, 2240.042
540.3684, 2240.950
540.8505, 2237.921
541.3326, 2234.532
541.8148, 2231.073
542.2969, 2228.849
542.7790, 2231.321
543.2611, 2237.927
543.7432, 2244.211
544.2253, 2247.512
544.7075, 2248.779
545.1896, 2248.508
545.6717, 2246.405
546.1538, 2244.897
546.6359, 2244.856
547.1180, 2246.167
547.6002, 2248.714
548.0823, 2255.303
548.5644, 2259.865
549.0465, 2259.662
549.5286, 2256.575
550.0107, 2256.243
550.4929, 2261.200
550.9750, 2264.998
551.4571, 2264.812
551.9392, 2260.596
552.4213, 2259.915
552.9034, 2263.602
553.3856, 2268.140
553.8677, 2270.817
554.3498, 2271.744
554.8319, 2272.049
555.3140, 2271.650
555.7961, 2271.367
556.2783, 2272.498
556.7604, 2274.647
557.2425, 2276.743
557.7246, 2279.092
558.2067, 2280.528
558.6888, 2278.775
559.1710, 2274.903
559.6531, 2272.522
560.1352, 2274.720
560.6173, 2277.938
561.0994, 2280.176
561.5815, 2281.203
562.0637, 2281.933
562.5458, 2281.726
563.0279, 2281.812
563.5100, 2283.171
563.9921, 2287.492
564.4742, 2290.003
564.9564, 2290.042
565.4385, 2288.609
565.9206, 2287.087
566.4027, 2285.251
566.8848, 2284.386
567.3669, 2284.973
567.8491, 2286.714
568.3312, 2289.314
568.8133, 2292.688
569.2954, 2294.851
569.7775, 2293.244
570.2596, 2289.909
570.7418, 2288.872
571.2239, 2290.430
571.7060, 2292.195
572.1881, 2291.925
572.6702, 2291.073
573.1523, 2291.422
573.6345, 2294.575
574.1166, 2296.875
574.5987, 2295.942
575.0808, 2293.468
575.5629, 2292.247
576.0450, 2294.515
576.5272, 2296.083
577.0093, 2296.051
577.4914, 2294.621
577.9735, 2292.948
578.4556, 2290.697
578.9377, 2288.960
579.4199, 2288.202
579.9020, 2288.457
580.3841, 2289.990
580.8662, 2293.028
581.3483, 2296.246
581.8304, 2298.455
582.3126, 2299.747
582.7947, 2300.237
583.2768, 2299.692
583.7589, 2299.131
584.2410, 2299.820
584.7231, 2301.252
585.2053, 2302.435
585.6874, 2301.667
586.1696, 2301.650
586.6517, 2304.796
587.1338, 2310.188
587.6159, 2313.868
588.0980, 2313.952
588.5801, 2312.772
589.0623, 2310.644
589.5444, 2307.067
590.0265, 2306.139
590.5086, 2309.522
590.9907, 2313.462
591.4728, 2314.962
591.9550, 2313.659
592.4371, 2312.405
592.9192, 2311.384
593.4013, 2310.709
593.8834, 2310.642
594.3655, 2311.152
594.8477, 2311.808
595.3298, 2312.306
595.8119, 2313.146
596.2940, 2315.719
596.7761, 2319.349
597.2582, 2321.835
597.7404, 2320.703
598.2225, 2318.957
598.7046, 2318.701
599.1867, 2320.017
599.6688, 2321.390
600.1509, 2322.437
600.6331, 2323.286
601.1152, 2324.042
601.5973, 2324.961
602.0794, 2325.073
602.5615, 2323.687
603.0436, 2322.149
603.5258, 2322.137
604.0079, 2323.971
604.4900, 2325.726
604.9721, 2327.132
605.4542, 2328.315
605.9363, 2329.729
606.4185, 2331.289
606.9006, 2332.124
607.3827, 2331.343
607.8648, 2329.935
608.3469, 2328.969
608.8290, 2328.530
609.3112, 2329.120
609.7933, 2332.382
610.2754, 2335.819
610.7575, 2337.259
611.2396, 2336.109
611.7217, 2335.435
612.2039, 2335.979
612.6860, 2337.320
613.1681, 2339.176
613.6502, 2341.842
614.1323, 2344.489
614.6144, 2347.855
615.0966, 2350.474
615.5787, 2349.422
616.0608, 2343.790
616.5429, 2340.704
617.0250, 2342.781
617.5071, 2347.322
617.9893, 2347.616
618.4714, 2344.241
618.9535, 2341.536
619.4356, 2342.345
619.9177, 2344.804
620.3998, 2346.852
620.8820, 2348.450
621.3641, 2349.498
621.8462, 2349.428
622.3283, 2349.143
622.8104, 2349.421
623.2925, 2350.626
623.7747, 2351.208
624.2568, 2349.382
624.7389, 2347.726
625.2210, 2348.539
625.7031, 2353.916
626.1852, 2356.994
626.6674, 2356.845
627.1495, 2354.848
627.6316, 2352.616
628.1137, 2350.064
628.5958, 2349.622
629.0779, 2352.825
629.5601, 2357.613
630.0422, 2360.185
630.5243, 2360.763
631.0064, 2360.418
631.4885, 2358.758
631.9706, 2357.159
632.4528, 2357.102
632.9349, 2358.531
633.4170, 2360.131
633.8991, 2360.531
634.3812, 2361.553
634.8633, 2364.739
635.3455, 2371.507
635.8276, 2376.177
636.3097, 2377.210
636.7918, 2377.385
637.2739, 2379.193
637.7560, 2383.232
638.2382, 2386.090
638.7203, 2386.987
639.2024, 2387.434
639.6845, 2390.014
640.1666, 2394.445
640.6487, 2398.497
641.1309, 2401.313
641.6130, 2403.678
642.0951, 2406.944
642.5772, 2410.643
643.0594, 2413.370
643.5415, 2413.722
644.0236, 2413.549
644.5057, 2413.928
644.9879, 2414.860
645.4700, 2415.784
645.9521, 2415.738
646.4342, 2416.575
646.9163, 2419.604
647.3984, 2425.570
647.8806, 2429.011
648.3627, 2428.956
648.8448, 2428.418
649.3269, 2429.852
649.8090, 2433.300
650.2911, 2437.305
650.7733, 2442.011
651.2554, 2446.488
651.7375, 2449.364
652.2196, 2451.196
652.7017, 2453.473
653.1838, 2456.992
653.6660, 2460.231
654.1481, 2462.000
654.6302, 2462.616
655.1123, 2462.676
655.5944, 2463.272
656.0765, 2462.270
656.5587, 2458.093
657.0408, 2451.446
657.5229, 2445.660
658.0050, 2440.822
658.4871, 2436.787
658.9692, 2433.615
659.4514, 2431.242
659.9335, 2429.094
660.4156, 2427.200
660.8977, 2425.377
661.3798, 2423.418
661.8619, 2421.483
662.3441, 2420.176
662.8262, 2419.575
663.3083, 2418.561
663.7904, 2415.033
664.2725, 2411.228
664.7546, 2410.002
665.2368, 2413.261
665.7189, 2415.552
666.2010, 2413.713
666.6831, 2410.619
667.1652, 2409.688
667.6473, 2413.722
668.1295, 2415.397
668.6116, 2413.034
669.0937, 2408.960
669.5758, 2407.863
670.0579, 2409.995
670.5400, 2412.615
671.0222, 2415.263
671.5043, 2417.481
671.9864, 2417.875
672.4685, 2416.794
672.9506, 2416.101
673.4327, 2416.774
673.9149, 2418.266
674.3970, 2420.785
674.8791, 2424.001
675.3612, 2425.796
675.8433, 2423.487
676.3254, 2421.112
676.8076, 2421.364
677.2897, 2425.181
677.7718, 2426.297
678.2539, 2423.098
678.7360, 2419.554
679.2181, 2418.236
679.7003, 2419.312
680.1824, 2421.843
680.6645, 2426.253
681.1466, 2430.301
681.6287, 2430.810
682.1108, 2428.979
682.5930, 2428.091
683.0751, 2428.831
683.5572, 2430.363
684.0393, 2432.563
684.5214, 2434.884
685.0035, 2436.578
685.4857, 2437.335
685.9678, 2437.439
686.4499, 2435.467
686.9320, 2433.063
687.4141, 2434.036
687.8962, 2441.074
688.3784, 2446.355
688.8605, 2447.742
689.3426, 2446.374
689.8247, 2446.086
690.3068, 2446.937
690.7889, 2447.843
691.2711, 2448.387
691.7532, 2448.608
692.2353, 2448.608
692.7174, 2448.361
693.1995, 2447.684
693.6816, 2446.300
694.1638, 2444.570
694.6459, 2442.389
695.1280, 2439.713
695.6101, 2438.312
696.0922, 2438.692
696.5743, 2440.527
697.0565, 2444.201
697.5386, 2451.066
698.0207, 2453.877
698.5028, 2451.220
698.9849, 2447.581
699.4670, 2447.542
699.9492, 2450.691
700.4313, 2452.390
700.9135, 2451.792
701.3956, 2451.329
701.8777, 2454.570
702.3598, 2459.479
702.8419, 2462.449
703.3240, 2461.559
703.8062, 2460.323
704.2883, 2460.688
704.7704, 2461.746
705.2525, 2462.183
705.7346, 2460.724
706.2167, 2460.028
706.6989, 2460.677
707.1810, 2462.140
707.6631, 2463.245
708.1452, 2463.964
708.6273, 2464.646
709.1094, 2465.409
709.5916, 2466.266
710.0737, 2467.510
710.5558, 2468.969
711.0379, 2469.725
711.5200, 2468.120
712.0021, 2466.444
712.4843, 2467.416
712.9664, 2470.390
713.4485, 2471.978
713.9306, 2467.865
714.4127, 2464.780
714.8948, 2467.079
715.3770, 2474.886
715.8591, 2478.900
716.3412, 2477.780
716.8233, 2475.520
717.3054, 2474.385
717.7875, 2474.308
718.2697, 2473.312
718.7518, 2471.318
719.2339, 2469.635
719.7160, 2469.821
720.1981, 2470.922
720.6802, 2471.507
721.1624, 2471.408
721.6445, 2470.730
722.1266, 2468.401
722.6087, 2466.184
723.0908, 2465.726
723.5729, 2468.397
724.0551, 2470.588
724.5372, 2472.093
725.0193, 2473.102
725.5014, 2473.655
725.9835, 2473.626
726.4656, 2473.819
726.9478, 2474.136
727.4299, 2475.184
727.9120, 2479.083
728.3941, 2484.553
728.8762, 2487.002
729.3583, 2483.868
729.8405, 2480.140
730.3226, 2480.562
730.8047, 2483.077
731.2868, 2484.276
731.7689, 2481.351
732.2510, 2479.064
732.7332, 2478.622
733.2153, 2479.477
733.6974, 2480.670
734.1795, 2482.245
734.6616, 2484.077
735.1437, 2486.179
735.6259, 2488.462
736.1080, 2490.780
736.5901, 2493.090
737.0722, 2495.082
737.5543, 2496.442
738.0364, 2497.500
738.5186, 2498.952
739.0007, 2500.478
739.4828, 2501.032
739.9649, 2499.478
740.4470, 2497.501
740.9291, 2495.479
741.4113, 2493.556
741.8934, 2492.677
742.3755, 2493.070
742.8576, 2494.095
743.3397, 2502.608
743.8218, 2505.395
744.3040, 2507.427
744.7861, 2508.744
745.2682, 2507.203
745.7503, 2509.352
746.2324, 2510.022
746.7145, 2510.632
747.1967, 2499.578
747.6788, 2498.919
748.1609, 2499.357
748.6430, 2500.445
749.1251, 2502.194
749.6072, 2504.933
750.0894, 2506.403
750.5715, 2505.707
751.0536, 2504.876
751.5357, 2505.494
752.0178, 2507.820
752.4999, 2508.151
752.9821, 2506.153
753.4642, 2504.414
753.9463, 2506.263
754.4284, 2509.934
754.9105, 2511.451
755.3926, 2510.058
755.8748, 2509.134
756.3569, 2512.051
756.8390, 2515.670
757.3211, 2517.027
757.8032, 2514.082
758.2853, 2512.212
758.7675, 2511.677
759.2496, 2512.300
759.7318, 2514.461
760.2139, 2518.584
760.6960, 2520.537
761.1781, 2519.483
761.6602, 2518.094
762.1423, 2520.461
762.6245, 2524.987
763.1066, 2527.458
763.5887, 2526.304
764.0708, 2525.298
764.5529, 2528.056
765.0350, 2532.053
765.5172, 2534.285
765.9993, 2531.578
766.4814, 2530.495
766.9635, 2532.513
767.4456, 2535.377
767.9277, 2536.034
768.4099, 2534.127
768.8920, 2531.838
769.3741, 2529.006
769.8562, 2527.079
770.3383, 2529.339
770.8204, 2534.237
771.3026, 2537.472
771.7847, 2536.970
772.2668, 2535.917
772.7489, 2536.266
773.2310, 2537.593
773.7131, 2539.207
774.1953, 2543.316
774.6774, 2544.549
775.1595, 2540.518
775.6416, 2534.523
776.1237, 2533.030
776.6058, 2536.699
777.0880, 2539.782
777.5701, 2540.782
778.0522, 2540.698
778.5343, 2540.669
779.0164, 2540.873
779.4985, 2541.933
779.9807, 2544.996
780.4628, 2547.801
780.9449, 2548.559
781.4270, 2548.069
781.9091, 2548.034
782.3912, 2549.879
782.8734, 2550.679
783.3555, 2549.102
783.8376, 2546.698
784.3197, 2547.958
784.8018, 2553.330
785.2839, 2557.325
785.7661, 2557.952
786.2482, 2556.746
786.7303, 2555.723
787.2124, 2554.949
787.6945, 2554.585
788.1766, 2555.430
788.6588, 2555.971
789.1409, 2554.300
789.6230, 2551.687
790.1051, 2551.911
790.5872, 2558.245
791.0693, 2562.726
791.5515, 2563.034
792.0336, 2560.867
792.5157, 2561.251
792.9978, 2564.209
793.4799, 2567.111
793.9620, 2569.006
794.4442, 2570.339
794.9263, 2572.131
795.4084, 2573.946
795.8905, 2574.600
796.3726, 2571.551
796.8547, 2569.295
797.3369, 2570.129
797.8190, 2573.303
798.3011, 2576.146
798.7832, 2579.194
799.2653, 2580.493
799.7474, 2578.789
800.2296, 2575.552
800.7117, 2575.118
801.1938, 2577.276
801.6759, 2579.835
802.1580, 2582.418
802.6401, 2584.394
803.1223, 2584.918
803.6044, 2584.255
804.0865, 2583.054
804.5686, 2581.136
805.0507, 2579.283
805.5328, 2577.616
806.0150, 2576.257
806.4971, 2575.437
806.9792, 2575.089
807.4613, 2575.595
807.9434, 2577.172
808.4255, 2579.532
808.9077, 2582.548
809.3898, 2585.913
809.8719, 2588.310
810.3540, 2588.871
810.8361, 2588.470
811.3182, 2586.759
811.8004, 2584.624
812.2825, 2584.155
812.7646, 2587.787
813.2467, 2590.820
813.7288, 2592.444
814.2109, 2592.923
814.6931, 2592.684
815.1752, 2591.645
815.6573, 2590.960
816.1394, 2591.070
816.6215, 2591.593
817.1037, 2592.367
817.5858, 2593.041
818.0679, 2592.662
818.5500, 2588.644
819.0322, 2585.837
819.5143, 2587.365
819.9964, 2591.639
820.4785, 2595.520
820.9606, 2599.103
821.4427, 2601.536
821.9249, 2602.540
822.4070, 2602.426
822.8891, 2601.552
823.3712, 2600.004
823.8533, 2598.699
824.3354, 2597.865
824.8176, 2597.501
825.2997, 2597.675
825.7818, 2598.356
826.2639, 2599.455
826.7460, 2602.250
827.2281, 2603.955
827.7103, 2603.161
828.1924, 2601.334
828.6745, 2600.091
829.1566, 2599.113
829.6387, 2600.321
830.1208, 2604.616
830.6030, 2609.614
831.0851, 2610.886
831.5672, 2609.781
832.0493, 2610.357
832.5314, 2614.525
833.0135, 2618.275
833.4957, 2618.570
833.9778, 2616.987
834.4599, 2615.375
834.9420, 2614.614
835.4241, 2612.981
835.9063, 2609.539
836.3884, 2606.445
836.8705, 2606.968
837.3526, 2610.993
837.8347, 2613.355
838.3168, 2613.305
838.7990, 2612.338
839.2811, 2611.125
839.7632, 2610.332
840.2453, 2611.069
840.7274, 2613.999
841.2095, 2616.815
841.6917, 2618.514
842.1738, 2619.893
842.6559, 2621.798
843.1380, 2624.928
843.6201, 2625.562
844.1022, 2622.967
844.5844, 2620.389
845.0665, 2621.614
845.5486, 2625.214
846.0307, 2627.327
846.5128, 2627.625
846.9949, 2626.941
847.4771, 2624.386
847.9592, 2622.149
848.4413, 2622.428
848.9234, 2626.282
849.4055, 2627.868
849.8876, 2625.634
850.3698, 2623.317
850.8519, 2622.905
851.3340, 2624.311
851.8161, 2627.523
852.2982, 2632.497
852.7803, 2636.224
853.2625, 2634.765
853.7446, 2632.024
854.2267, 2632.976
854.7088, 2637.370
855.1909, 2639.848
855.6730, 2636.655
856.1552, 2633.321
856.6373, 2632.092
857.1194, 2632.694
857.6015, 2632.704
858.0836, 2632.126
858.5657, 2631.084
859.0479, 2628.814
859.5300, 2626.711
860.0121, 2628.133
860.4942, 2632.225
860.9763, 2635.961
861.4584, 2637.117
861.9406, 2638.240
862.4227, 2640.593
862.9048, 2643.859
863.3869, 2646.884
863.8690, 2650.191
864.3511, 2651.782
864.8333, 2650.620
865.3154, 2648.178
865.7975, 2647.415
866.2796, 2648.096
866.7617, 2649.270
867.2438, 2650.886
867.7260, 2652.372
868.2081, 2652.621
868.6902, 2652.628
869.1723, 2653.961
869.6544, 2659.702
870.1365, 2662.680
870.6187, 2661.293
871.1008, 2658.433
871.5829, 2658.188
872.0650, 2660.437
872.5471, 2662.667
873.0292, 2664.731
873.5114, 2665.622
873.9935, 2662.792
874.4756, 2658.875
874.9577, 2657.401
875.4399, 2659.794
875.9220, 2662.256
876.4041, 2663.767
876.8862, 2665.104
877.3683, 2667.066
877.8505, 2670.062
878.3326, 2670.289
878.8147, 2667.391
879.2968, 2664.145
879.7789, 2662.395
880.2610, 2662.142
880.7432, 2664.275
881.2253, 2668.668
881.7074, 2671.529
882.1895, 2669.366
882.6716, 2666.751
883.1537, 2666.602
883.6359, 2668.758
884.1180, 2668.957
884.6001, 2666.692
885.0822, 2664.698
885.5643, 2664.350
886.0464, 2665.169
886.5286, 2666.210
887.0107, 2667.426
887.4928, 2668.598
887.9749, 2669.694
888.4570, 2670.581
888.9391, 2671.342
889.4213, 2671.808
889.9034, 2671.359
890.3855, 2669.080
890.8676, 2668.132
891.3497, 2669.511
891.8318, 2671.995
892.3140, 2673.122
892.7961, 2673.312
893.2782, 2674.250
893.7603, 2676.535
894.2424, 2679.448
894.7245, 2684.044
895.2067, 2688.233
895.6888, 2689.424
896.1709, 2684.242
896.6530, 2680.692
897.1351, 2678.755
897.6172, 2678.536
898.0994, 2681.169
898.5815, 2686.061
899.0636, 2688.502
899.5457, 2687.927
900.0278, 2686.839
900.5099, 2686.973
900.9921, 2687.762
901.4742, 2688.745
901.9563, 2689.874
902.4384, 2691.156
902.9205, 2693.212
903.4026, 2694.443
903.8848, 2693.508
904.3669, 2690.876
904.8490, 2690.983
905.3311, 2693.713
905.8132, 2696.188
906.2953, 2695.839
906.7775, 2695.027
907.2596, 2696.453
907.7417, 2699.491
908.2238, 2701.891
908.7059, 2703.285
909.1880, 2703.565
909.6702, 2702.629
910.1523, 2700.667
910.6344, 2697.189
911.1165, 2692.299
911.5986, 2690.809
912.0807, 2695.129
912.5629, 2700.644
913.0450, 2702.192
913.5271, 2701.441
914.0092, 2700.858
914.4913, 2701.240
914.9734, 2701.573
915.4556, 2701.084
915.9377, 2701.047
916.4198, 2703.067
916.9019, 2707.345
917.3840, 2710.115
917.8661, 2711.185
918.3483, 2710.725
918.8304, 2706.882
919.3125, 2702.732
919.7946, 2703.148
920.2767, 2708.664
920.7589, 2711.907
921.2410, 2707.869
921.7231, 2704.006
922.2052, 2703.327
922.6873, 2705.471
923.1694, 2707.439
923.6516, 2709.199
924.1337, 2710.774
924.6158, 2711.840
925.0979, 2712.979
925.5800, 2715.540
926.0621, 2718.751
926.5443, 2720.744
927.0264, 2719.350
927.5085, 2718.594
927.9906, 2719.671
928.4727, 2721.567
928.9548, 2722.382
929.4370, 2722.056
929.9191, 2722.902
930.4012, 2725.515
930.8833, 2728.576
931.3654, 2730.958
931.8475, 2732.703
932.3297, 2733.650
932.8118, 2733.267
933.2939, 2733.902
933.7761, 2738.077
934.2582, 2741.340
934.7403, 2740.430
935.2224, 2735.171
935.7045, 2732.292
936.1866, 2731.818
936.6688, 2732.060
937.1509, 2731.487
937.6330, 2731.247
938.1151, 2733.745
938.5972, 2738.204
939.0793, 2740.368
939.5615, 2738.117
940.0436, 2734.271
940.5257, 2728.325
941.0078, 2722.060
941.4899, 2721.302
941.9720, 2725.827
942.4542, 2729.393
942.9363, 2730.159
943.4184, 2729.480
943.9005, 2726.807
944.3826, 2724.368
944.8647, 2725.486
945.3469, 2733.992
945.8290, 2740.250
946.3111, 2743.828
946.7932, 2744.577
947.2753, 2740.935
947.7574, 2733.238
948.2396, 2730.269
948.7217, 2732.351
949.2038, 2734.653
949.6859, 2732.463
950.1680, 2729.565
950.6501, 2729.539
951.1323, 2732.459
951.6144, 2735.322
952.0965, 2738.558
952.5786, 2740.172
953.0607, 2738.597
953.5428, 2735.609
954.0250, 2737.665
954.5071, 2743.711
954.9892, 2747.440
955.4713, 2744.910
955.9534, 2741.747
956.4355, 2742.219
956.9177, 2744.662
957.3998, 2746.723
957.8819, 2748.296
958.3640, 2748.996
958.8461, 2748.461
959.3282, 2747.820
959.8104, 2748.645
960.2925, 2750.383
960.7746, 2750.525
961.2567, 2748.902
961.7388, 2748.571
962.2209, 2754.023
962.7031, 2759.318
963.1852, 2759.339
963.6673, 2754.320
964.1494, 2752.567
964.6315, 2754.928
965.1136, 2757.538
965.5958, 2758.759
966.0779, 2759.500
966.5600, 2762.325
967.0421, 2766.278
967.5242, 2768.627
968.0063, 2766.150
968.4885, 2764.920
968.9706, 2769.056
969.4527, 2774.712
969.9348, 2777.275
970.4169, 2776.252
970.8990, 2774.032
971.3812, 2770.394
971.8633, 2767.646
972.3454, 2769.560
972.8275, 2773.145
973.3096, 2773.574
973.7917, 2770.435
974.2739, 2767.831
974.7560, 2767.273
975.2381, 2767.454
975.7202, 2767.717
976.2023, 2768.283
976.6844, 2770.755
977.1666, 2775.130
977.6487, 2778.741
978.1308, 2780.331
978.6129, 2780.991
979.0950, 2781.885
979.5771, 2782.668
980.0593, 2782.761
980.5414, 2781.159
981.0235, 2780.141
981.5056, 2779.898
981.9877, 2780.077
982.4698, 2780.313
982.9520, 2780.620
983.4341, 2781.067
983.9162, 2781.646
984.3983, 2782.781
984.8804, 2785.438
985.3625, 2788.195
985.8447, 2790.170
986.3268, 2791.257
986.8089, 2791.366
987.2910, 2790.062
987.7731, 2789.158
988.2552, 2789.505
988.7374, 2790.297
989.2195, 2789.864
989.7016, 2788.531
990.1837, 2786.970
990.6658, 2784.728
991.1479, 2783.669
991.6301, 2784.930
992.1122, 2787.557
992.5944, 2790.892
993.0765, 2795.315
993.5586, 2797.729
994.0407, 2797.898
994.5228, 2797.550
995.0049, 2798.311
995.4871, 2799.246
995.9692, 2798.478
996.4513, 2796.380
996.9334, 2795.925
997.4155, 2799.748
997.8976, 2803.201
998.3798, 2804.930
998.8619, 2805.761
999.3440, 2808.220
999.8261, 2812.000
1000.308, 2813.811
1000.790, 2812.172
1001.272, 2810.474
1001.755, 2812.400
1002.237, 2815.301
1002.719, 2816.058
1003.201, 2813.031
1003.683, 2812.217
1004.165, 2814.444
1004.647, 2816.849
1005.129, 2817.335
1005.612, 2816.659
1006.094, 2816.755
1006.576, 2817.655
1007.058, 2819.419
1007.540, 2823.168
1008.022, 2826.610
1008.504, 2828.897
1008.986, 2830.284
1009.468, 2830.827
1009.951, 2830.248
1010.433, 2830.868
1010.915, 2832.930
1011.397, 2836.716
1011.879, 2844.736
1012.361, 2853.375
1012.843, 2857.335
1013.325, 2855.010
1013.807, 2855.005
1014.290, 2859.413
1014.772, 2865.358
1015.254, 2872.023
1015.736, 2879.105
1016.218, 2885.333
1016.700, 2890.929
1017.182, 2897.141
1017.664, 2905.130
1018.147, 2913.274
1018.629, 2920.019
1019.111, 2926.513
1019.593, 2934.613
1020.075, 2944.616
1020.557, 2955.360
1021.039, 2966.727
1021.521, 2979.129
1022.003, 2994.007
1022.486, 3009.805
1022.968, 3023.728
1023.450, 3035.702
1023.932, 3046.306
1024.414, 3055.283
1024.896, 3063.555
1025.378, 3072.523
1025.860, 3080.561
1026.343, 3082.976
1026.825, 3079.882
1027.307, 3073.437
1027.789, 3064.449
1028.271, 3051.504
1028.753, 3030.784
1029.235, 3006.727
1029.717, 2984.035
1030.199, 2962.427
1030.682, 2945.318
1031.164, 2933.420
1031.646, 2923.669
1032.128, 2914.387
1032.610, 2905.612
1033.092, 2896.884
1033.574, 2888.695
1034.056, 2883.148
1034.539, 2883.818
1035.021, 2884.089
1035.503, 2881.995
1035.985, 2878.321
1036.467, 2872.976
1036.949, 2865.853
1037.431, 2863.694
1037.913, 2867.757
1038.396, 2871.583
1038.878, 2868.113
1039.360, 2862.610
1039.842, 2860.214
1040.324, 2861.381
1040.806, 2861.462
1041.288, 2859.354
1041.770, 2858.176
1042.252, 2859.118
1042.734, 2861.285
1043.217, 2862.977
1043.699, 2864.388
1044.181, 2866.126
1044.663, 2868.849
1045.145, 2870.834
1045.627, 2871.559
1046.109, 2871.100
1046.591, 2868.763
1047.074, 2864.333
1047.556, 2864.669
1048.038, 2869.797
1048.520, 2874.121
1049.002, 2872.934
1049.484, 2870.187
1049.966, 2869.218
1050.448, 2869.463
1050.931, 2869.042
1051.413, 2866.612
1051.895, 2866.272
1052.377, 2869.088
1052.859, 2872.594
1053.341, 2873.610
1053.823, 2873.121
1054.305, 2873.416
1054.787, 2874.763
1055.270, 2875.764
1055.752, 2875.191
1056.234, 2874.763
1056.716, 2875.127
1057.198, 2876.194
1057.680, 2878.006
1058.162, 2880.454
1058.644, 2881.880
1059.126, 2881.325
1059.609, 2880.626
1060.091, 2881.006
1060.573, 2882.348
1061.055, 2884.836
1061.537, 2889.125
1062.019, 2891.929
1062.501, 2893.181
1062.983, 2893.323
1063.466, 2891.573
1063.948, 2889.532
1064.430, 2891.130
1064.912, 2895.058
1065.394, 2897.334
1065.876, 2893.770
1066.358, 2892.224
1066.840, 2895.271
1067.323, 2899.310
1067.805, 2898.582
1068.287, 2894.249
1068.769, 2895.819
1069.251, 2903.978
1069.733, 2911.596
1070.215, 2911.719
1070.697, 2911.276
1071.179, 2916.394
1071.661, 2925.040
1072.144, 2927.464
1072.626, 2922.545
1073.108, 2918.653
1073.590, 2917.736
1074.072, 2919.364
1074.554, 2925.533
1075.036, 2932.762
1075.518, 2935.916
1076.001, 2932.847
1076.483, 2931.959
1076.965, 2934.793
1077.447, 2938.129
1077.929, 2940.561
1078.411, 2942.162
1078.893, 2942.715
1079.375, 2942.537
1079.858, 2942.695
1080.340, 2943.913
1080.822, 2945.001
1081.304, 2945.807
1081.786, 2945.960
1082.268, 2944.874
1082.750, 2942.504
1083.232, 2940.249
1083.714, 2938.128
1084.197, 2936.671
1084.679, 2937.834
1085.161, 2938.405
1085.643, 2935.271
1086.125, 2929.597
1086.607, 2924.973
1087.089, 2921.064
1087.571, 2920.488
1088.054, 2924.355
1088.536, 2928.963
1089.018, 2929.826
1089.500, 2928.676
1089.982, 2927.822
1090.464, 2927.510
1090.946, 2927.407
1091.428, 2927.812
1091.911, 2927.642
1092.393, 2926.169
1092.875, 2924.271
1093.357, 2924.220
1093.839, 2925.553
1094.321, 2927.067
1094.803, 2928.955
1095.285, 2929.305
1095.767, 2924.481
1096.250, 2920.373
1096.732, 2921.473
1097.214, 2927.430
1097.696, 2930.904
1098.178, 2932.009
1098.660, 2932.699
1099.142, 2933.758
1099.624, 2935.099
1100.106, 2937.077
1100.589, 2939.145
1101.071, 2940.337
1101.553, 2940.141
1102.035, 2941.052
1102.517, 2943.421
1102.999, 2945.175
1103.481, 2942.867
1103.963, 2940.003
1104.446, 2942.241
1104.928, 2948.323
1105.410, 2952.577
1105.892, 2953.517
1106.374, 2952.339
1106.856, 2947.938
1107.338, 2943.757
1107.820, 2945.086
1108.302, 2950.102
1108.785, 2955.499
1109.267, 2960.829
1109.749, 2962.824
1110.231, 2955.605
1110.713, 2950.167
1111.195, 2951.380
1111.677, 2956.583
1112.159, 2958.414
1112.641, 2957.351
1113.124, 2956.275
1113.606, 2956.026
1114.088, 2955.469
1114.570, 2952.554
1115.052, 2950.143
1115.534, 2951.059
1116.016, 2955.076
1116.498, 2956.788
1116.981, 2956.100
1117.463, 2956.410
1117.945, 2960.049
1118.427, 2963.937
1118.909, 2964.703
1119.391, 2963.859
1119.873, 2963.604
1120.355, 2964.687
1120.838, 2964.269
1121.320, 2961.650
1121.802, 2960.393
1122.284, 2965.003
1122.766, 2971.188
1123.248, 2971.913
1123.730, 2968.862
1124.212, 2966.689
1124.694, 2967.040
1125.177, 2968.097
1125.659, 2969.773
1126.141, 2972.133
1126.623, 2976.467
1127.105, 2981.270
1127.587, 2981.647
1128.069, 2978.020
1128.551, 2975.363
1129.033, 2976.487
1129.516, 2978.148
1129.998, 2979.792
1130.480, 2980.971
1130.962, 2980.151
1131.444, 2978.009
1131.926, 2978.821
1132.408, 2983.340
1132.890, 2986.964
1133.373, 2985.991
1133.855, 2984.121
1134.337, 2983.368
1134.819, 2983.520
1135.301, 2983.759
1135.783, 2984.115
1136.265, 2984.667
1136.747, 2985.574
1137.229, 2986.189
1137.712, 2985.435
1138.194, 2984.524
1138.676, 2984.656
1139.158, 2985.831
1139.640, 2986.852
1140.122, 2987.698
1140.604, 2988.491
1141.086, 2989.125
1141.569, 2990.006
1142.051, 2991.357
1142.533, 2993.368
1143.015, 2996.642
1143.497, 3002.222
1143.979, 3005.382
1144.461, 3005.730
1144.943, 3004.985
1145.426, 3003.102
1145.908, 3001.633
1146.390, 3004.101
1146.872, 3008.746
1147.354, 3011.948
1147.836, 3010.239
1148.318, 3011.170
1148.800, 3016.373
1149.282, 3020.821
1149.765, 3019.063
1150.247, 3013.937
1150.729, 3011.773
1151.211, 3012.148
1151.693, 3012.531
1152.175, 3011.293
1152.657, 3011.205
1153.139, 3013.455
1153.621, 3015.870
1154.104, 3015.089
1154.586, 3012.382
1155.068, 3012.577
1155.550, 3015.652
1156.032, 3017.804
1156.514, 3015.828
1156.996, 3014.256
1157.478, 3014.588
1157.961, 3016.002
1158.443, 3017.202
1158.925, 3018.192
1159.407, 3018.827
1159.889, 3019.040
1160.371, 3020.019
1160.853, 3023.809
1161.335, 3027.104
1161.818, 3028.073
1162.300, 3027.342
1162.782, 3026.060
1163.264, 3024.416
1163.746, 3025.379
1164.228, 3030.186
1164.710, 3033.980
1165.192, 3031.430
1165.674, 3028.131
1166.156, 3028.792
1166.639, 3032.613
1167.121, 3034.091
1167.603, 3033.258
1168.085, 3032.158
1168.567, 3031.414
1169.049, 3030.770
1169.531, 3028.937
1170.013, 3027.842
1170.496, 3030.335
1170.978, 3036.458
1171.460, 3038.681
1171.942, 3036.718
1172.424, 3035.830
1172.906, 3038.957
1173.388, 3043.003
1173.870, 3045.144
1174.353, 3046.156
1174.835, 3046.920
1175.317, 3047.427
1175.799, 3048.671
1176.281, 3050.885
1176.763, 3052.224
1177.245, 3051.135
1177.727, 3049.261
1178.209, 3047.825
1178.692, 3047.140
1179.174, 3047.880
1179.656, 3050.766
1180.138, 3053.130
1180.620, 3054.940
1181.102, 3056.348
1181.584, 3056.903
1182.066, 3057.515
1182.548, 3060.051
1183.031, 3063.444
1183.513, 3065.094
1183.995, 3063.186
1184.477, 3063.130
1184.959, 3065.706
1185.441, 3068.043
1185.923, 3066.185
1186.405, 3063.544
1186.888, 3065.435
1187.370, 3070.814
1187.852, 3075.609
1188.334, 3080.270
1188.816, 3081.287
1189.298, 3077.355
1189.780, 3072.957
1190.262, 3072.568
1190.745, 3074.755
1191.227, 3078.353
1191.709, 3082.739
1192.191, 3085.339
1192.673, 3085.287
1193.155, 3083.972
1193.637, 3081.331
1194.119, 3078.145
1194.601, 3074.656
1195.084, 3071.572
1195.566, 3069.649
1196.048, 3069.085
1196.530, 3071.293
1197.012, 3079.495
1197.494, 3084.140
1197.976, 3082.539
1198.458, 3078.825
1198.941, 3079.531
1199.423, 3081.816
1199.905, 3079.641
1200.387, 3072.573
1200.869, 3069.653
1201.351, 3075.262
1201.833, 3079.609
1202.315, 3080.178
1202.797, 3078.727
1203.280, 3077.635
1203.762, 3076.725
1204.244, 3075.513
1204.726, 3073.923
1205.208, 3073.029
1205.690, 3072.697
1206.172, 3074.002
1206.654, 3078.279
1207.136, 3082.563
1207.619, 3079.872
1208.101, 3074.143
1208.583, 3072.646
1209.065, 3077.233
1209.547, 3081.123
1210.029, 3082.846
1210.511, 3084.752
1210.993, 3087.899
1211.476, 3091.314
1211.958, 3093.273
1212.440, 3094.267
1212.922, 3095.149
1213.404, 3096.143
1213.886, 3096.765
1214.368, 3096.942
1214.850, 3096.964
1215.333, 3097.094
1215.815, 3096.981
1216.297, 3095.626
1216.779, 3093.674
1217.261, 3092.272
1217.743, 3091.776
1218.225, 3091.409
1218.707, 3090.858
1219.189, 3091.083
1219.672, 3092.998
1220.154, 3095.325
1220.636, 3095.104
1221.118, 3093.785
1221.600, 3094.083
1222.082, 3097.337
1222.564, 3099.888
1223.046, 3101.253
1223.528, 3102.843
1224.011, 3105.916
1224.493, 3109.007
1224.975, 3109.655
1225.457, 3108.511
1225.939, 3106.402
1226.421, 3102.037
1226.903, 3101.708
1227.385, 3106.940
1227.868, 3110.816
1228.350, 3108.180
1228.832, 3103.412
1229.314, 3102.558
1229.796, 3104.577
1230.278, 3108.124
1230.760, 3114.642
1231.242, 3117.277
1231.724, 3115.306
1232.207, 3112.939
1232.689, 3112.937
1233.171, 3113.617
1233.653, 3112.811
1234.135, 3111.164
1234.617, 3109.740
1235.099, 3108.708
1235.581, 3107.832
1236.063, 3107.071
1236.546, 3107.115
1237.028, 3109.452
1237.510, 3111.750
1237.992, 3110.437
1238.474, 3112.580
1238.956, 3113.334
1239.438, 3113.142
1239.920, 3114.873
1240.403, 3113.123
1240.885, 3112.273
1241.367, 3116.589
1241.849, 3121.376
1242.331, 3122.214
1242.813, 3120.906
1243.295, 3120.157
1243.777, 3120.097
1244.260, 3119.497
1244.742, 3118.329
1245.224, 3119.501
1245.706, 3128.293
1246.188, 3136.337
1246.670, 3136.893
1247.152, 3133.919
1247.634, 3132.920
1248.116, 3134.030
1248.599, 3136.232
1249.081, 3139.346
1249.563, 3140.568
1250.045, 3134.994
1250.527, 3130.836
1251.009, 3134.823
1251.491, 3140.688
1251.973, 3141.310
1252.455, 3137.014
1252.938, 3137.348
1253.420, 3141.701
1253.902, 3144.714
1254.384, 3141.774
1254.866, 3139.128
1255.348, 3139.721
1255.830, 3140.932
1256.313, 3139.853
1256.795, 3137.239
1257.277, 3137.940
1257.759, 3141.592
1258.241, 3145.980
1258.723, 3151.404
1259.205, 3155.573
1259.687, 3157.970
1260.169, 3159.273
1260.651, 3159.950
1261.134, 3159.977
1261.616, 3158.907
1262.098, 3157.093
1262.580, 3155.804
1263.062, 3155.022
1263.544, 3155.674
1264.026, 3158.160
1264.508, 3161.163
1264.991, 3164.608
1265.473, 3167.266
1265.955, 3165.598
1266.437, 3161.277
1266.919, 3158.675
1267.401, 3159.114
1267.883, 3161.692
1268.365, 3167.184
1268.848, 3171.950
1269.330, 3172.200
1269.812, 3170.887
1270.294, 3172.164
1270.776, 3171.784
1271.258, 3171.683
1271.740, 3172.822
1272.222, 3172.358
1272.704, 3174.291
1273.187, 3176.341
1273.669, 3176.096
1274.151, 3176.038
1274.633, 3179.758
1275.115, 3184.391
1275.597, 3184.997
1276.079, 3180.478
1276.561, 3180.181
1277.043, 3184.019
1277.526, 3186.809
1278.008, 3183.738
1278.490, 3180.685
1278.972, 3182.148
1279.454, 3184.710
1279.936, 3184.540
1280.418, 3181.789
1280.900, 3180.898
1281.383, 3181.588
1281.865, 3182.145
1282.347, 3180.653
1282.829, 3180.336
1283.311, 3183.034
1283.793, 3186.222
1284.275, 3188.194
1284.757, 3189.033
1285.240, 3188.630
1285.722, 3187.471
1286.204, 3187.216
1286.686, 3189.756
1287.168, 3190.945
1287.650, 3189.856
1288.132, 3188.721
1288.614, 3189.208
1289.096, 3190.646
1289.578, 3191.728
1290.061, 3192.636
1290.543, 3193.735
1291.025, 3195.157
1291.507, 3196.461
1291.989, 3197.522
1292.471, 3198.845
1292.953, 3201.338
1293.435, 3203.385
1293.918, 3201.053
1294.400, 3197.959
1294.882, 3200.785
1295.364, 3210.993
1295.846, 3213.766
1296.328, 3209.047
1296.810, 3204.254
1297.292, 3202.287
1297.775, 3201.901
1298.257, 3204.045
1298.739, 3206.509
1299.221, 3207.374
1299.703, 3206.619
1300.185, 3203.662
1300.667, 3199.011
1301.149, 3195.311
1301.631, 3193.270
1302.114, 3191.909
1302.596, 3194.647
##END=



