##NAMES=Natrolite
##RRUFFID=R040022
##IDEAL CHEMISTRY=Na_2_(Si_3_Al_2_)O_10_&#183;2H_2_O
##LOCALITY=Patterson, Passaic County, New Jersey, USA
##OWNER=RRUFF
##SOURCE=University of Arizona Mineral Museum
##DESCRIPTION=White fine fibrous mass
##STATUS=The identification of this mineral has been confirmed by X-ray diffraction and chemical analysis
##URL=rruff.info/R040022
##MEASURED CHEMISTRY=(Na_1.87_Ca_0.08_[box]_0.05_)_Σ=2_(Si_2.97_Al_2.03_)O_10_·1.95H_2_O; H_2_O estimated by difference
130.1867, 100.6889
130.6688, 101.2248
131.1509, 101.8046
131.6330, 102.2368
132.1152, 102.6116
132.5973, 102.9390
133.0794, 103.2141
133.5615, 103.5542
134.0436, 104.4550
134.5257, 107.0108
135.0079, 108.9683
135.4900, 109.6489
135.9721, 109.5466
136.4542, 109.5079
136.9363, 110.0757
137.4184, 111.2262
137.9006, 112.4251
138.3827, 113.5773
138.8648, 114.8568
139.3469, 116.5500
139.8290, 118.5575
140.3111, 120.3076
140.7933, 121.2168
141.2754, 121.3763
141.7575, 121.8591
142.2396, 123.1466
142.7217, 124.5715
143.2038, 125.6237
143.6860, 126.3853
144.1681, 126.2496
144.6502, 124.1639
145.1323, 120.7733
145.6144, 117.3050
146.0965, 114.2975
146.5787, 111.6088
147.0608, 108.7202
147.5429, 105.3700
148.0250, 102.1850
148.5071, 99.34506
148.9892, 96.89563
149.4714, 94.92565
149.9535, 93.50551
150.4356, 92.63538
150.9177, 92.31236
151.3998, 93.13931
151.8819, 94.07890
152.3641, 94.68896
152.8462, 95.00343
153.3283, 95.38277
153.8104, 96.27677
154.2925, 97.89724
154.7746, 99.45483
155.2568, 100.8800
155.7389, 102.3100
156.2210, 103.7573
156.7031, 105.2507
157.1852, 106.9040
157.6673, 108.9209
158.1495, 111.7583
158.6316, 114.1530
159.1137, 115.8132
159.5958, 117.1808
160.0779, 118.8903
160.5600, 121.1964
161.0422, 123.4556
161.5243, 124.2354
162.0064, 123.2847
162.4885, 121.7816
162.9706, 119.9555
163.4527, 117.7476
163.9349, 115.0142
164.4170, 111.6426
164.8991, 107.7647
165.3812, 103.5027
165.8633, 98.53789
166.3454, 94.03996
166.8276, 90.79260
167.3097, 88.68660
167.7918, 86.79087
168.2739, 84.80299
168.7560, 82.86266
169.2381, 81.12577
169.7203, 79.63058
170.2024, 78.28601
170.6845, 76.95914
171.1666, 75.62104
171.6487, 74.50651
172.1308, 73.98025
172.6130, 73.57999
173.0951, 72.90408
173.5772, 71.79591
174.0593, 70.56026
174.5414, 69.75768
175.0235, 69.61699
175.5057, 69.45586
175.9878, 69.15887
176.4699, 68.76441
176.9520, 68.23556
177.4341, 67.54041
177.9162, 66.82384
178.3984, 66.54405
178.8805, 67.14107
179.3626, 67.64957
179.8447, 67.98846
180.3268, 68.16406
180.8089, 68.15383
181.2911, 67.93040
181.7732, 67.56282
182.2553, 67.44930
182.7374, 67.84401
183.2195, 68.21265
183.7016, 68.54183
184.1838, 68.77139
184.6659, 68.81522
185.1480, 68.62095
185.6301, 68.19146
186.1122, 67.55551
186.5943, 66.87228
187.0764, 65.89235
187.5586, 64.21406
188.0407, 62.07611
188.5228, 60.22501
189.0049, 59.16628
189.4870, 58.87303
189.9691, 58.73226
190.4513, 58.94220
190.9334, 59.13242
191.4155, 59.07644
191.8976, 58.77716
192.3797, 58.30584
192.8618, 57.51836
193.3440, 56.62612
193.8261, 56.20148
194.3082, 56.59053
194.7903, 57.28436
195.2724, 57.75529
195.7545, 57.97327
196.2367, 58.16417
196.7188, 58.58186
197.2009, 59.04166
197.6830, 59.26439
198.1651, 59.06324
198.6472, 58.65054
199.1294, 58.36863
199.6115, 58.22005
200.0936, 58.21192
200.5757, 58.21172
201.0578, 58.36365
201.5399, 58.94644
202.0221, 60.28162
202.5042, 61.99431
202.9863, 62.92674
203.4684, 62.48609
203.9505, 62.20036
204.4326, 62.81930
204.9148, 63.81837
205.3969, 64.45444
205.8790, 64.26292
206.3611, 63.41731
206.8432, 62.79758
207.3253, 62.58204
207.8075, 62.40423
208.2896, 62.18021
208.7717, 61.93963
209.2538, 61.75051
209.7359, 61.67168
210.2180, 61.67419
210.7002, 61.48970
211.1823, 60.97482
211.6644, 60.40722
212.1465, 59.81200
212.6286, 59.20198
213.1107, 58.52760
213.5929, 57.71603
214.0750, 56.81672
214.5571, 56.60452
215.0392, 58.05815
215.5213, 59.09650
216.0034, 58.75191
216.4856, 57.51640
216.9677, 56.56581
217.4498, 56.74950
217.9319, 57.93406
218.4140, 58.24416
218.8961, 57.10577
219.3783, 55.89359
219.8604, 55.15325
220.3425, 54.78344
220.8246, 54.38315
221.3067, 53.65749
221.7888, 52.68913
222.2710, 52.03948
222.7531, 52.11516
223.2352, 52.08786
223.7173, 51.40659
224.1994, 50.19415
224.6815, 49.06421
225.1637, 48.40587
225.6458, 48.12477
226.1279, 47.73972
226.6100, 47.07140
227.0921, 46.47617
227.5742, 46.23418
228.0564, 46.31946
228.5385, 46.46154
229.0206, 46.56289
229.5027, 46.60138
229.9848, 46.54026
230.4669, 46.31483
230.9491, 46.07230
231.4312, 45.86679
231.9133, 45.69596
232.3954, 45.78685
232.8775, 46.62862
233.3596, 47.60405
233.8418, 47.84771
234.3239, 47.02861
234.8060, 45.91737
235.2881, 45.21064
235.7702, 44.90501
236.2523, 45.04765
236.7345, 46.16438
237.2166, 47.49406
237.6987, 48.34394
238.1808, 48.53137
238.6629, 48.41694
239.1451, 48.38882
239.6272, 48.44849
240.1093, 48.58559
240.5914, 49.08032
241.0735, 49.49005
241.5556, 49.49361
242.0378, 49.01345
242.5199, 48.17922
243.0020, 47.00279
243.4841, 45.28460
243.9662, 44.00446
244.4483, 43.65601
244.9305, 43.58436
245.4126, 43.40168
245.8947, 43.01875
246.3768, 42.56872
246.8589, 42.21433
247.3410, 41.94987
247.8231, 41.80857
248.3053, 41.82782
248.7874, 41.93443
249.2695, 42.16729
249.7516, 42.49788
250.2337, 42.76046
250.7158, 42.71569
251.1980, 42.25599
251.6801, 41.76870
252.1622, 40.87660
252.6443, 40.24708
253.1264, 40.45470
253.6085, 41.46277
254.0907, 42.65940
254.5728, 43.29245
255.0549, 43.22413
255.5370, 42.97792
256.0191, 42.14248
256.5013, 41.48598
256.9834, 41.54452
257.4655, 42.28283
257.9476, 43.23833
258.4297, 43.92876
258.9118, 44.34035
259.3940, 44.51563
259.8761, 44.31137
260.3582, 44.04780
260.8403, 43.80082
261.3224, 43.62716
261.8045, 43.64491
262.2867, 44.01675
262.7688, 44.85315
263.2509, 45.25337
263.7330, 44.74342
264.2151, 44.32873
264.6972, 44.54867
265.1794, 45.31849
265.6615, 46.21718
266.1436, 46.91805
266.6257, 47.41986
267.1078, 47.74514
267.5899, 47.88496
268.0721, 47.90699
268.5542, 47.68116
269.0363, 47.33548
269.5184, 47.23174
270.0005, 47.67179
270.4826, 48.59960
270.9648, 49.14994
271.4469, 49.08464
271.9290, 48.98211
272.4111, 49.03740
272.8932, 49.22115
273.3753, 49.46272
273.8575, 49.74599
274.3396, 50.03229
274.8217, 50.10779
275.3038, 49.89625
275.7859, 49.61544
276.2680, 49.25128
276.7502, 48.86750
277.2323, 48.64445
277.7144, 48.72029
278.1965, 48.90983
278.6786, 48.58607
279.1607, 47.39735
279.6428, 46.44557
280.1249, 46.21956
280.6071, 46.40555
281.0892, 46.44133
281.5713, 46.11640
282.0534, 45.57475
282.5355, 45.03044
283.0176, 44.37307
283.4998, 44.02271
283.9819, 44.20147
284.4640, 44.72235
284.9461, 45.35615
285.4282, 46.06982
285.9103, 46.74512
286.3925, 47.17790
286.8746, 47.35305
287.3567, 47.54288
287.8388, 47.90501
288.3209, 48.27290
288.8030, 48.40681
289.2852, 48.25371
289.7673, 47.97689
290.2494, 47.68185
290.7315, 47.37481
291.2136, 47.26100
291.6957, 47.53074
292.1779, 47.92389
292.6600, 48.16500
293.1421, 48.22609
293.6242, 48.20363
294.1063, 48.09161
294.5884, 47.94514
295.0706, 48.03241
295.5527, 48.84171
296.0348, 49.57498
296.5169, 49.29184
296.9990, 48.02773
297.4811, 46.98621
297.9633, 46.97125
298.4454, 47.77245
298.9275, 48.55339
299.4096, 49.37561
299.8917, 50.07563
300.3738, 50.47680
300.8560, 50.61682
301.3381, 50.75498
301.8202, 51.00825
302.3023, 51.33171
302.7844, 51.57891
303.2665, 51.60020
303.7487, 51.88966
304.2308, 53.15163
304.7129, 55.00581
305.1950, 56.05383
305.6771, 55.67286
306.1592, 54.51016
306.6414, 53.51017
307.1235, 52.69251
307.6056, 51.80642
308.0877, 50.71051
308.5698, 49.46619
309.0519, 48.17855
309.5341, 46.82709
310.0162, 45.54025
310.4983, 44.38566
310.9804, 43.35279
311.4625, 42.71571
311.9446, 42.83916
312.4268, 43.31714
312.9089, 43.53693
313.3910, 43.41632
313.8731, 43.14858
314.3552, 42.80952
314.8373, 42.43847
315.3195, 42.16938
315.8016, 42.00224
316.2837, 41.96464
316.7658, 42.22874
317.2479, 42.81233
317.7300, 43.11921
318.2122, 42.49665
318.6943, 41.41350
319.1764, 41.02142
319.6585, 41.77666
320.1406, 42.77298
320.6227, 43.30697
321.1049, 43.44196
321.5870, 43.66396
322.0691, 44.24321
322.5512, 44.96623
323.0333, 45.48730
323.5154, 45.83096
323.9976, 45.91329
324.4797, 45.30327
324.9618, 44.34444
325.4439, 44.19744
325.9260, 45.41727
326.4081, 47.10530
326.8903, 48.09069
327.3724, 48.39188
327.8545, 48.61315
328.3366, 49.04665
328.8187, 49.50951
329.3008, 49.61061
329.7830, 49.21367
330.2651, 48.83248
330.7472, 49.17807
331.2293, 50.06955
331.7114, 50.45841
332.1935, 49.92456
332.6757, 48.93428
333.1578, 47.86931
333.6399, 46.74961
334.1220, 45.72630
334.6041, 44.88415
335.0862, 44.23041
335.5684, 43.72105
336.0505, 43.41753
336.5326, 43.19521
337.0147, 42.97780
337.4968, 42.77229
337.9789, 42.63372
338.4611, 42.64419
338.9432, 42.67263
339.4253, 42.36128
339.9074, 41.45555
340.3895, 40.88741
340.8716, 41.28533
341.3538, 42.24606
341.8359, 42.96173
342.3180, 43.19312
342.8001, 43.17673
343.2822, 43.22845
343.7643, 43.35931
344.2465, 43.43819
344.7286, 43.43200
345.2107, 43.36616
345.6928, 43.22087
346.1749, 42.99568
346.6570, 42.84837
347.1392, 42.95906
347.6213, 43.33730
348.1034, 43.56818
348.5855, 43.57578
349.0676, 43.50068
349.5497, 43.32640
350.0319, 43.11332
350.5140, 43.12952
350.9961, 43.59515
351.4782, 44.38528
351.9603, 44.89791
352.4424, 45.05738
352.9246, 45.09258
353.4067, 44.98930
353.8888, 44.82200
354.3709, 44.68749
354.8530, 44.60813
355.3351, 44.66643
355.8173, 45.06384
356.2994, 46.04889
356.7815, 46.79699
357.2636, 47.24122
357.7457, 47.41635
358.2278, 47.26464
358.7100, 46.80759
359.1921, 46.28286
359.6742, 45.95720
360.1563, 45.87626
360.6384, 45.72885
361.1205, 45.59184
361.6027, 45.32908
362.0848, 44.84910
362.5669, 44.17549
363.0490, 43.35576
363.5311, 42.39553
364.0132, 41.33717
364.4954, 40.55447
364.9775, 40.37416
365.4596, 40.06713
365.9417, 39.35899
366.4238, 38.48041
366.9059, 37.74818
367.3881, 37.28809
367.8702, 37.01038
368.3523, 36.72840
368.8344, 36.39295
369.3165, 36.14135
369.7986, 35.96756
370.2808, 35.87225
370.7629, 35.93777
371.2450, 36.12652
371.7271, 36.23182
372.2092, 36.00394
372.6913, 35.36641
373.1735, 34.88068
373.6556, 34.62754
374.1377, 34.43625
374.6198, 34.23107
375.1019, 34.04244
375.5840, 33.96723
376.0662, 34.08443
376.5483, 34.33104
377.0304, 34.40118
377.5125, 34.18638
377.9946, 33.93703
378.4767, 33.62540
378.9589, 33.33514
379.4410, 33.18330
379.9231, 33.20127
380.4052, 33.25444
380.8873, 33.10063
381.3694, 32.63198
381.8516, 32.31382
382.3337, 32.16850
382.8158, 32.19140
383.2979, 32.52674
383.7800, 33.08312
384.2621, 33.51992
384.7443, 33.47005
385.2264, 32.98812
385.7085, 32.78366
386.1906, 33.11061
386.6727, 33.35218
387.1548, 33.21690
387.6370, 32.86160
388.1191, 32.46657
388.6012, 32.01756
389.0833, 31.75197
389.5654, 32.30707
390.0475, 33.97286
390.5297, 35.12516
391.0118, 34.71511
391.4939, 33.88712
391.9760, 33.54124
392.4581, 33.80564
392.9402, 34.20758
393.4224, 34.34675
393.9045, 34.27662
394.3866, 34.33978
394.8687, 34.63617
395.3508, 34.98745
395.8329, 35.15078
396.3151, 35.22201
396.7972, 35.54567
397.2793, 36.68489
397.7614, 37.95075
398.2435, 38.19422
398.7256, 37.32795
399.2078, 36.51856
399.6899, 36.45903
400.1720, 36.89473
400.6541, 37.23003
401.1362, 37.43096
401.6183, 37.55072
402.1004, 37.44434
402.5826, 37.26730
403.0647, 37.52155
403.5468, 38.44319
404.0289, 39.61267
404.5110, 40.45601
404.9931, 40.97042
405.4753, 41.37067
405.9574, 41.57079
406.4395, 41.74681
406.9216, 42.04688
407.4037, 42.48964
407.8858, 43.07499
408.3680, 43.84558
408.8501, 44.77438
409.3322, 45.48941
409.8143, 45.96850
410.2964, 46.30357
410.7785, 46.45430
411.2607, 46.49811
411.7428, 46.56012
412.2249, 46.69088
412.7070, 46.87045
413.1891, 47.06017
413.6712, 47.25505
414.1534, 47.47210
414.6355, 47.80700
415.1176, 48.09361
415.5997, 48.28922
416.0818, 48.34061
416.5639, 48.07488
417.0461, 47.24787
417.5282, 45.84457
418.0103, 45.08783
418.4924, 45.47016
418.9745, 45.99443
419.4566, 46.59369
419.9388, 47.16132
420.4209, 47.51247
420.9030, 47.55416
421.3851, 47.54475
421.8672, 48.05657
422.3493, 49.34345
422.8315, 50.50895
423.3136, 51.41952
423.7957, 52.23795
424.2778, 53.08069
424.7599, 53.94203
425.2420, 54.70934
425.7242, 55.23956
426.2063, 55.56664
426.6884, 56.01252
427.1705, 56.66737
427.6526, 57.28931
428.1347, 57.70131
428.6169, 58.04027
429.0990, 58.48924
429.5811, 59.09306
430.0632, 59.87146
430.5453, 60.88938
431.0274, 62.15083
431.5096, 63.46348
431.9917, 64.81644
432.4738, 66.15825
432.9559, 67.39725
433.4380, 68.53615
433.9201, 69.79842
434.4023, 71.31367
434.8844, 73.01211
435.3665, 74.76222
435.8486, 76.55576
436.3307, 78.41293
436.8128, 80.37370
437.2950, 82.40864
437.7771, 84.38239
438.2592, 86.46656
438.7413, 88.31053
439.2234, 89.62463
439.7055, 90.54887
440.1877, 91.50420
440.6698, 92.70012
441.1519, 93.73908
441.6340, 94.03517
442.1161, 93.65549
442.5982, 92.16959
443.0804, 88.90102
443.5625, 85.01456
444.0446, 81.18967
444.5267, 77.55018
445.0088, 73.98593
445.4909, 70.38944
445.9731, 66.80441
446.4552, 63.60622
446.9373, 60.80479
447.4194, 58.34960
447.9015, 56.36463
448.3836, 54.66148
448.8658, 53.08252
449.3479, 51.57058
449.8300, 50.10595
450.3121, 48.66387
450.7942, 47.22431
451.2763, 45.88411
451.7585, 44.58649
452.2406, 43.44649
452.7227, 42.62659
453.2048, 42.00666
453.6869, 41.29731
454.1690, 40.26435
454.6512, 39.12289
455.1333, 38.44692
455.6154, 38.37224
456.0975, 38.36303
456.5796, 38.41871
457.0617, 38.37048
457.5439, 37.97674
458.0260, 37.21129
458.5081, 36.53027
458.9902, 36.36595
459.4723, 36.58012
459.9544, 36.68258
460.4366, 36.62000
460.9187, 36.45187
461.4008, 36.13676
461.8829, 35.74834
462.3650, 35.47256
462.8471, 35.31220
463.3293, 35.30248
463.8114, 35.60571
464.2935, 36.11123
464.7756, 36.41348
465.2577, 36.35447
465.7398, 36.04777
466.2220, 35.60817
466.7041, 34.91909
467.1862, 34.57322
467.6683, 34.88186
468.1504, 35.38196
468.6325, 35.73428
469.1147, 35.91333
469.5968, 35.99066
470.0789, 35.99383
470.5610, 35.95650
471.0431, 36.10533
471.5252, 36.80492
472.0074, 37.24068
472.4895, 37.16944
472.9716, 36.87772
473.4537, 36.58430
473.9358, 36.37174
474.4179, 36.30098
474.9001, 36.48383
475.3822, 36.96143
475.8643, 37.34440
476.3464, 37.67259
476.8285, 37.84567
477.3106, 37.68015
477.7928, 37.37351
478.2749, 37.22050
478.7570, 37.34249
479.2391, 37.70760
479.7212, 38.38663
480.2033, 39.45643
480.6855, 40.18119
481.1676, 40.16058
481.6497, 39.96333
482.1318, 40.08105
482.6139, 40.48030
483.0960, 40.83076
483.5782, 40.93994
484.0603, 40.91986
484.5424, 40.94892
485.0245, 41.03477
485.5066, 41.10239
485.9887, 41.10080
486.4709, 41.05878
486.9530, 41.05231
487.4351, 41.09038
487.9172, 41.14117
488.3993, 41.22579
488.8814, 41.30397
489.3636, 41.30265
489.8457, 41.21271
490.3278, 41.10283
490.8099, 41.00592
491.2920, 40.91012
491.7741, 41.13194
492.2563, 42.00777
492.7384, 42.75944
493.2205, 43.05182
493.7026, 43.10636
494.1847, 43.22923
494.6668, 43.53682
495.1490, 43.95843
495.6311, 44.39538
496.1132, 44.85643
496.5953, 45.29985
497.0774, 45.92555
497.5595, 46.34077
498.0417, 46.17990
498.5238, 45.69336
499.0059, 45.40308
499.4880, 45.57417
499.9701, 46.11391
500.4522, 46.96495
500.9344, 48.22984
501.4165, 49.14808
501.8986, 49.22564
502.3807, 49.10834
502.8628, 49.39330
503.3449, 50.08037
503.8271, 50.82168
504.3092, 51.41720
504.7913, 51.98211
505.2734, 52.70116
505.7555, 53.58372
506.2376, 54.52489
506.7198, 55.49748
507.2019, 56.47293
507.6840, 57.35168
508.1661, 58.06862
508.6482, 58.82597
509.1303, 59.73985
509.6125, 60.69014
510.0946, 61.38486
510.5767, 61.84855
511.0588, 62.62318
511.5409, 64.28835
512.0230, 66.83533
512.5051, 68.88551
512.9872, 69.64303
513.4694, 70.85305
513.9515, 73.13456
514.4336, 75.90221
514.9157, 78.47659
515.3978, 80.66891
515.8799, 82.76772
516.3621, 85.25230
516.8442, 88.19587
517.3263, 90.66733
517.8084, 92.44548
518.2905, 94.03195
518.7726, 95.55003
519.2548, 97.07480
519.7369, 98.73638
520.2190, 100.6161
520.7011, 102.5715
521.1832, 104.3565
521.6653, 106.0266
522.1475, 108.0390
522.6296, 110.5528
523.1117, 113.3262
523.5938, 116.0656
524.0759, 118.7864
524.5580, 121.7846
525.0402, 125.2253
525.5223, 128.8559
526.0044, 132.4575
526.4865, 136.0881
526.9686, 139.9499
527.4507, 144.0964
527.9329, 148.5938
528.4150, 153.6195
528.8971, 159.6162
529.3792, 165.0486
529.8613, 170.1597
530.3434, 174.5038
530.8256, 177.8820
531.3077, 180.2939
531.7898, 181.9102
532.2719, 182.8805
532.7540, 182.9049
533.2361, 181.2131
533.7183, 177.7061
534.2004, 172.7259
534.6825, 165.5171
535.1646, 157.4015
535.6467, 148.9140
536.1288, 140.1340
536.6110, 131.2753
537.0931, 122.2366
537.5752, 113.3261
538.0573, 105.1827
538.5394, 97.79458
539.0215, 91.02882
539.5037, 84.77039
539.9858, 79.18967
540.4679, 74.58183
540.9500, 70.97521
541.4321, 67.71132
541.9142, 64.69339
542.3964, 61.86826
542.8785, 59.05578
543.3606, 56.33657
543.8427, 54.18135
544.3248, 52.99260
544.8069, 52.43632
545.2891, 51.26846
545.7712, 48.57625
546.2533, 46.52614
546.7354, 45.48958
547.2175, 44.87498
547.6996, 44.39368
548.1818, 43.93314
548.6639, 43.35787
549.1460, 42.54702
549.6281, 41.55636
550.1102, 40.59153
550.5923, 39.54798
551.0745, 38.79346
551.5566, 38.69171
552.0387, 38.76662
552.5208, 38.66060
553.0029, 38.34237
553.4850, 37.97636
553.9672, 37.58707
554.4493, 37.23452
554.9314, 37.07381
555.4135, 37.11373
555.8956, 37.10212
556.3777, 36.90954
556.8599, 36.56890
557.3420, 36.15742
557.8241, 35.65222
558.3062, 35.14607
558.7883, 34.43245
559.2704, 33.87985
559.7526, 34.05850
560.2347, 34.82043
560.7168, 35.36998
561.1989, 35.12153
561.6810, 34.21955
562.1631, 33.28009
562.6453, 32.01886
563.1274, 31.24086
563.6095, 31.24113
564.0916, 31.52737
564.5737, 31.80842
565.0558, 32.03944
565.5380, 32.27404
566.0201, 32.65086
566.5022, 33.01123
566.9843, 32.86555
567.4664, 32.13348
567.9485, 31.39916
568.4307, 30.79995
568.9128, 30.38949
569.3949, 30.25531
569.8770, 30.41845
570.3591, 30.58354
570.8412, 30.55865
571.3234, 30.55338
571.8055, 30.93710
572.2876, 31.60269
572.7697, 31.93421
573.2518, 31.54745
573.7339, 30.75029
574.2161, 30.34224
574.6982, 30.71679
575.1803, 30.79571
575.6624, 30.19893
576.1445, 29.65790
576.6266, 29.74290
577.1088, 30.26918
577.5909, 30.66822
578.0730, 30.59051
578.5551, 30.22756
579.0372, 29.96655
579.5193, 29.79927
580.0015, 29.79360
580.4836, 30.13171
580.9657, 30.46062
581.4478, 30.43511
581.9299, 30.14850
582.4120, 30.01435
582.8942, 30.33697
583.3763, 30.74990
583.8584, 30.94229
584.3405, 30.92729
584.8226, 30.70425
585.3047, 30.23850
585.7869, 29.73138
586.2690, 29.45632
586.7511, 29.45296
587.2332, 29.52475
587.7153, 29.79667
588.1974, 30.00529
588.6796, 30.03508
589.1617, 29.92904
589.6438, 29.72245
590.1259, 29.43880
590.6080, 29.18878
591.0901, 29.15333
591.5723, 29.35662
592.0544, 29.53842
592.5365, 29.68300
593.0186, 29.82232
593.5007, 29.98482
593.9828, 30.14668
594.4650, 30.29327
594.9471, 30.44623
595.4292, 30.48304
595.9113, 30.22103
596.3934, 29.78533
596.8755, 29.44996
597.3577, 29.25492
597.8398, 29.20347
598.3219, 29.33935
598.8040, 29.62359
599.2861, 29.78717
599.7682, 29.95323
600.2504, 29.85928
600.7325, 29.09568
601.2146, 28.29617
601.6967, 28.16812
602.1788, 28.67570
602.6609, 29.18288
603.1431, 29.16354
603.6252, 28.75145
604.1073, 28.52448
604.5894, 28.52345
605.0715, 28.60174
605.5536, 28.85714
606.0358, 29.07932
606.5179, 29.07275
607.0000, 28.85886
607.4821, 28.67061
607.9642, 28.55749
608.4464, 28.56852
608.9285, 28.89096
609.4106, 29.44698
609.8927, 29.76363
610.3748, 29.64130
610.8569, 29.26438
611.3391, 28.88025
611.8212, 28.46863
612.3033, 28.14799
612.7854, 27.90974
613.2675, 27.76698
613.7496, 27.75949
614.2318, 27.84098
614.7139, 27.92879
615.1960, 27.99527
615.6781, 28.10299
616.1602, 28.41841
616.6423, 28.96497
617.1245, 29.14069
617.6066, 28.70029
618.0887, 28.30417
618.5708, 28.35431
619.0529, 28.61796
619.5350, 28.80510
620.0172, 28.88511
620.4993, 28.83196
620.9814, 28.51859
621.4635, 28.10967
621.9456, 27.84566
622.4277, 27.75305
622.9099, 27.79457
623.3920, 27.96487
623.8741, 28.22481
624.3562, 28.43570
624.8383, 28.62033
625.3204, 28.71491
625.8026, 28.68632
626.2847, 28.59937
626.7668, 28.51689
627.2489, 28.41267
627.7310, 28.17697
628.2131, 27.70565
628.6953, 27.20538
629.1774, 27.04058
629.6595, 27.21964
630.1416, 27.59428
630.6237, 28.32856
631.1058, 28.93904
631.5880, 28.88343
632.0701, 28.34582
632.5522, 27.86833
633.0343, 27.49878
633.5164, 27.24399
633.9985, 26.97820
634.4807, 26.87621
634.9628, 27.42657
635.4449, 28.62747
635.9270, 29.62544
636.4091, 29.57337
636.8912, 28.59564
637.3734, 28.01410
637.8555, 28.10170
638.3376, 28.15656
638.8197, 27.95835
639.3018, 27.77364
639.7839, 27.86761
640.2661, 28.20547
640.7482, 28.48688
641.2303, 28.52348
641.7124, 28.40335
642.1945, 28.20947
642.6766, 27.95623
643.1588, 27.81201
643.6409, 27.84480
644.1230, 27.96881
644.6051, 28.09927
645.0872, 28.24138
645.5693, 28.31615
646.0515, 28.42354
646.5336, 28.35217
647.0157, 27.76045
647.4978, 27.05314
647.9799, 26.79996
648.4620, 27.12003
648.9442, 27.66425
649.4263, 28.13308
649.9084, 28.51508
650.3905, 28.64245
650.8726, 28.39965
651.3547, 28.21536
651.8369, 28.38492
652.3190, 28.58401
652.8011, 28.36916
653.2832, 27.71935
653.7653, 27.35179
654.2474, 27.83812
654.7296, 28.48630
655.2117, 28.58460
655.6938, 28.26983
656.1759, 28.05379
656.6580, 28.13882
657.1401, 28.34035
657.6223, 28.38978
658.1044, 28.25899
658.5865, 28.14455
659.0686, 27.99416
659.5507, 27.92371
660.0328, 28.01502
660.5150, 28.17546
660.9971, 28.30678
661.4792, 28.38598
661.9613, 28.43841
662.4434, 28.51117
662.9255, 28.56409
663.4077, 28.47253
663.8898, 28.23372
664.3719, 27.99082
664.8540, 27.73604
665.3361, 27.63537
665.8182, 28.08356
666.3004, 29.41551
666.7825, 30.06850
667.2646, 29.22747
667.7467, 28.52006
668.2288, 29.10635
668.7109, 30.25994
669.1931, 30.69330
669.6752, 30.00667
670.1573, 28.97412
670.6394, 28.49777
671.1215, 28.54086
671.6036, 28.64433
672.0858, 28.81306
672.5679, 29.03536
673.0500, 29.46113
673.5321, 29.83408
674.0142, 29.66594
674.4963, 28.82829
674.9785, 28.38516
675.4606, 29.01651
675.9427, 29.84577
676.4248, 30.15377
676.9069, 30.06438
677.3890, 29.98218
677.8712, 30.07022
678.3533, 30.23562
678.8354, 30.34256
679.3175, 30.38199
679.7996, 30.45917
680.2817, 30.67465
680.7639, 30.77172
681.2460, 30.49241
681.7281, 30.15227
682.2102, 30.14399
682.6923, 30.52742
683.1744, 30.88971
683.6566, 31.03643
684.1387, 31.02334
684.6208, 30.87284
685.1029, 30.61680
685.5850, 30.30490
686.0671, 29.93019
686.5493, 29.75168
687.0314, 30.24677
687.5135, 31.64225
687.9956, 32.47723
688.4777, 32.17813
688.9598, 31.97523
689.4420, 32.30891
689.9241, 32.82428
690.4062, 33.13935
690.8883, 33.17508
691.3704, 33.04068
691.8525, 32.65987
692.3347, 32.22670
692.8168, 32.11483
693.2989, 32.31869
693.7810, 32.71193
694.2631, 33.32237
694.7452, 33.87148
695.2274, 33.90242
695.7095, 33.26104
696.1916, 33.05468
696.6737, 33.58889
697.1558, 34.15145
697.6379, 34.68068
698.1201, 35.03321
698.6022, 34.96426
699.0843, 34.49225
699.5664, 34.01458
700.0485, 33.84320
700.5306, 33.91373
701.0128, 34.14958
701.4949, 34.56400
701.9770, 34.71056
702.4591, 34.35642
702.9412, 33.86107
703.4233, 33.63263
703.9055, 33.68759
704.3876, 33.79548
704.8697, 34.01975
705.3518, 34.21747
705.8339, 34.41070
706.3160, 34.50914
706.7982, 34.29676
707.2803, 33.82888
707.7624, 33.52212
708.2445, 33.78392
708.7266, 34.35509
709.2087, 34.46688
709.6909, 34.07351
710.1730, 33.70247
710.6550, 33.40845
711.1371, 33.28176
711.6193, 33.54625
712.1014, 34.10257
712.5835, 34.35766
713.0656, 34.10198
713.5477, 33.75504
714.0298, 33.44918
714.5120, 33.12731
714.9941, 32.61704
715.4762, 31.99397
715.9583, 31.63449
716.4404, 31.82402
716.9225, 32.31725
717.4047, 32.51989
717.8868, 32.39627
718.3689, 32.34563
718.8510, 32.50653
719.3331, 32.60335
719.8152, 32.34171
720.2974, 31.87656
720.7795, 31.60840
721.2616, 31.71314
721.7437, 31.71064
722.2258, 31.09392
722.7079, 30.55149
723.1901, 31.01112
723.6722, 32.17848
724.1543, 32.91455
724.6364, 32.61035
725.1185, 31.84622
725.6006, 31.73619
726.0828, 32.36813
726.5649, 32.30833
727.0470, 31.04437
727.5291, 30.03235
728.0112, 30.30295
728.4933, 31.15988
728.9755, 31.47591
729.4576, 31.08904
729.9397, 30.76307
730.4218, 30.89388
730.9039, 31.00817
731.3860, 30.60975
731.8682, 29.92206
732.3503, 29.47052
732.8324, 29.43700
733.3145, 29.59014
733.7966, 29.72759
734.2787, 29.82717
734.7609, 29.41096
735.2430, 28.16176
735.7251, 27.39045
736.2072, 27.94036
736.6893, 28.85229
737.1714, 28.96518
737.6536, 28.31499
738.1357, 27.80639
738.6178, 27.74703
739.0999, 27.74050
739.5820, 27.46708
740.0641, 27.15884
740.5463, 27.20503
741.0284, 27.63767
741.5105, 28.14052
741.9926, 28.48416
742.4747, 28.65077
742.9568, 28.51327
743.4390, 28.00100
743.9211, 27.62312
744.4032, 27.49607
744.8853, 27.49654
745.3674, 27.61220
745.8495, 27.78089
746.3317, 27.77884
746.8138, 27.41392
747.2959, 27.16241
747.7780, 27.24008
748.2601, 27.44701
748.7422, 27.66289
749.2244, 27.83421
749.7065, 27.86362
750.1886, 27.69349
750.6707, 27.45517
751.1528, 27.36636
751.6349, 27.42258
752.1171, 27.44694
752.5992, 27.43129
753.0813, 27.36193
753.5634, 27.13029
754.0455, 26.90503
754.5276, 27.09890
755.0098, 27.85809
755.4919, 28.30668
755.9740, 28.06649
756.4561, 27.77292
756.9382, 27.80566
757.4203, 27.99849
757.9025, 28.07565
758.3846, 27.96961
758.8667, 27.79628
759.3488, 27.64777
759.8309, 27.52178
760.3130, 27.41837
760.7952, 27.33871
761.2773, 27.23973
761.7594, 27.08380
762.2415, 26.97612
762.7236, 27.06937
763.2057, 27.35293
763.6879, 27.43399
764.1700, 26.91397
764.6521, 26.74848
765.1342, 27.46959
765.6163, 28.31149
766.0984, 28.72550
766.5806, 28.69174
767.0627, 28.34992
767.5448, 27.71171
768.0269, 27.02282
768.5090, 26.52984
768.9911, 26.23623
769.4733, 26.16786
769.9554, 26.32847
770.4375, 26.69197
770.9196, 27.31543
771.4017, 27.99435
771.8839, 28.25024
772.3660, 27.92148
772.8481, 27.63077
773.3302, 27.30179
773.8123, 27.09343
774.2944, 27.17008
774.7766, 27.33859
775.2587, 27.33664
775.7408, 27.13059
776.2229, 26.96418
776.7050, 27.05373
777.1871, 27.21160
777.6693, 27.14724
778.1514, 26.95726
778.6335, 26.99051
779.1156, 27.33539
779.5977, 27.70128
780.0798, 27.79371
780.5620, 27.66405
781.0441, 27.66652
781.5262, 27.86907
782.0083, 28.04722
782.4904, 28.28311
782.9725, 28.36523
783.4547, 28.09834
783.9368, 27.59054
784.4189, 27.08622
784.9010, 26.55830
785.3831, 26.22882
785.8652, 26.24937
786.3474, 26.48809
786.8295, 26.94046
787.3116, 27.48280
787.7937, 27.78590
788.2758, 27.70692
788.7579, 27.49880
789.2401, 27.53970
789.7222, 27.81377
790.2043, 27.95450
790.6864, 27.94102
791.1685, 27.87016
791.6506, 27.70963
792.1328, 27.58542
792.6149, 27.71175
793.0970, 28.09044
793.5791, 28.32174
794.0612, 28.34002
794.5433, 28.26113
795.0255, 28.01840
795.5076, 27.76802
795.9897, 27.61440
796.4718, 27.59606
796.9539, 27.80418
797.4360, 28.37137
797.9182, 28.92773
798.4003, 28.79791
798.8824, 28.20022
799.3645, 28.04721
799.8466, 28.45584
800.3287, 29.01181
800.8109, 29.56794
801.2930, 29.92923
801.7751, 29.59952
802.2572, 28.19538
802.7393, 27.39265
803.2214, 27.66269
803.7036, 27.99357
804.1857, 28.13466
804.6678, 28.18311
805.1499, 28.26990
805.6320, 28.40137
806.1141, 28.45222
806.5963, 28.37104
807.0784, 28.17923
807.5605, 27.71865
808.0426, 27.21447
808.5247, 27.18606
809.0068, 27.66405
809.4890, 28.15568
809.9711, 28.29933
810.4532, 28.18271
810.9353, 28.00404
811.4174, 27.74505
811.8995, 27.56116
812.3817, 27.44168
812.8638, 27.45754
813.3459, 27.72814
813.8280, 28.12889
814.3101, 28.39514
814.7922, 28.50390
815.2744, 28.58383
815.7565, 28.67463
816.2386, 28.71701
816.7207, 28.65725
817.2028, 28.54152
817.6849, 28.39346
818.1671, 28.24068
818.6492, 28.19004
819.1313, 28.37476
819.6134, 28.64573
820.0955, 28.75068
820.5776, 28.72072
821.0598, 28.72907
821.5419, 28.81458
822.0240, 28.74262
822.5061, 28.26801
822.9882, 27.61504
823.4703, 27.57699
823.9525, 28.60603
824.4346, 29.13024
824.9167, 28.74384
825.3988, 28.30317
825.8809, 28.12211
826.3630, 28.09907
826.8452, 28.11098
827.3273, 28.14392
827.8094, 28.18611
828.2915, 28.22907
828.7736, 28.28415
829.2557, 28.45312
829.7379, 28.60148
830.2200, 28.45570
830.7021, 28.01245
831.1842, 27.56972
831.6663, 27.35187
832.1484, 27.28379
832.6306, 27.15235
833.1127, 26.97245
833.5948, 27.15298
834.0769, 27.84273
834.5590, 28.41408
835.0411, 28.46794
835.5233, 28.14966
836.0054, 27.77170
836.4875, 27.21323
836.9696, 26.94448
837.4517, 27.11416
837.9338, 27.37039
838.4160, 27.75896
838.8981, 28.07620
839.3802, 27.99427
839.8623, 27.55366
840.3444, 27.30982
840.8265, 27.70856
841.3087, 28.20453
841.7908, 28.29955
842.2729, 28.19862
842.7550, 28.28998
843.2371, 28.58029
843.7192, 28.77900
844.2014, 28.70788
844.6835, 28.43814
845.1656, 27.96946
845.6477, 27.29528
846.1298, 27.28157
846.6119, 28.17526
847.0941, 28.86186
847.5762, 28.81910
848.0583, 28.38072
848.5404, 27.94234
849.0225, 27.47451
849.5046, 27.33482
849.9868, 27.78876
850.4689, 28.20844
850.9510, 28.46526
851.4331, 28.62572
851.9152, 28.78874
852.3973, 28.90821
852.8795, 28.80176
853.3616, 28.32029
853.8437, 27.85965
854.3258, 27.69444
854.8079, 27.76319
855.2900, 28.10879
855.7722, 28.61977
856.2543, 28.98046
856.7364, 29.05965
857.2185, 28.80560
857.7006, 27.95974
858.1827, 26.71548
858.6649, 26.75841
859.1470, 28.40908
859.6291, 29.27294
860.1112, 28.50006
860.5933, 27.36333
861.0754, 26.91001
861.5576, 27.02342
862.0397, 27.10449
862.5218, 27.10312
863.0039, 27.15419
863.4860, 27.27407
863.9681, 27.43595
864.4503, 27.73607
864.9324, 28.02043
865.4145, 27.99987
865.8966, 27.62864
866.3787, 27.35690
866.8608, 27.59624
867.3430, 27.91419
867.8251, 27.90761
868.3072, 27.66536
868.7893, 27.29328
869.2714, 26.85996
869.7535, 26.57912
870.2357, 26.61266
870.7178, 26.82769
871.1999, 27.00983
871.6820, 27.15290
872.1641, 26.99040
872.6462, 26.42139
873.1284, 26.01345
873.6105, 26.11329
874.0926, 26.37349
874.5747, 26.19045
875.0568, 25.44986
875.5389, 25.26763
876.0211, 26.25565
876.5032, 26.99610
876.9853, 27.27807
877.4674, 27.24478
877.9495, 26.84026
878.4316, 26.21449
878.9138, 25.76185
879.3959, 25.60857
879.8780, 25.57960
880.3601, 25.72614
880.8422, 25.84123
881.3243, 25.64633
881.8065, 25.27403
882.2886, 25.02357
882.7707, 24.98896
883.2528, 25.07612
883.7349, 25.25296
884.2170, 25.44035
884.6992, 25.32898
885.1813, 24.99653
885.6634, 25.18511
886.1455, 26.07165
886.6276, 26.83628
887.1097, 26.90966
887.5919, 26.46140
888.0740, 25.86783
888.5561, 25.00945
889.0382, 24.47028
889.5203, 24.32220
890.0024, 24.38092
890.4846, 24.82953
890.9667, 25.27530
891.4488, 25.24127
891.9309, 24.76545
892.4130, 24.39025
892.8951, 24.08521
893.3773, 24.03676
893.8594, 24.52962
894.3415, 25.10467
894.8236, 25.47621
895.3057, 25.59728
895.7878, 25.39492
896.2700, 24.83140
896.7521, 24.31495
897.2342, 24.16088
897.7163, 24.25617
898.1984, 24.62646
898.6805, 25.09152
899.1627, 25.10291
899.6448, 24.56146
900.1269, 23.86851
900.6090, 23.32034
901.0911, 22.95783
901.5732, 22.97508
902.0554, 23.38091
902.5375, 23.59462
903.0196, 23.52230
903.5017, 23.45146
903.9838, 23.52283
904.4659, 23.67990
904.9481, 23.87814
905.4302, 24.15737
905.9123, 24.07688
906.3944, 23.05157
906.8765, 22.52048
907.3586, 23.20203
907.8408, 23.98567
908.3229, 24.05169
908.8050, 23.60941
909.2871, 23.26579
909.7692, 23.10528
910.2513, 23.14789
910.7335, 23.67786
911.2156, 24.14038
911.6977, 24.04563
912.1798, 23.64495
912.6619, 23.31801
913.1440, 23.16133
913.6262, 23.14922
914.1083, 23.35601
914.5904, 23.53925
915.0725, 23.25197
915.5546, 22.72318
916.0367, 22.52450
916.5189, 22.69019
917.0010, 22.98767
917.4831, 23.30917
917.9652, 23.53318
918.4473, 23.40284
918.9294, 22.98006
919.4116, 23.04835
919.8937, 23.72692
920.3758, 23.99648
920.8579, 23.48688
921.3400, 22.83591
921.8221, 22.54246
922.3043, 22.53085
922.7864, 22.50422
923.2685, 22.38913
923.7506, 22.41998
924.2327, 22.77521
924.7148, 23.06556
925.1970, 23.11126
925.6791, 23.06460
926.1612, 23.05771
926.6433, 23.10702
927.1254, 23.26304
927.6075, 23.86221
928.0897, 24.14396
928.5718, 23.42794
929.0539, 22.61958
929.5360, 22.58920
930.0181, 23.09184
930.5002, 23.50167
930.9824, 23.61356
931.4645, 23.49606
931.9466, 22.95003
932.4287, 22.39908
932.9108, 22.51122
933.3929, 23.00770
933.8751, 23.21444
934.3572, 23.04668
934.8393, 22.85726
935.3214, 22.87006
935.8035, 23.00204
936.2856, 23.10667
936.7678, 23.19777
937.2499, 23.45265
937.7320, 23.88817
938.2141, 23.99990
938.6962, 23.57658
939.1783, 22.96045
939.6605, 22.49398
940.1426, 22.16406
940.6247, 21.86230
941.1068, 21.45469
941.5889, 21.52713
942.0710, 22.46496
942.5532, 23.31187
943.0353, 23.56722
943.5174, 23.46658
943.9995, 23.37650
944.4816, 23.31015
944.9637, 23.10658
945.4459, 22.46713
945.9280, 22.08904
946.4101, 22.31709
946.8922, 22.68769
947.3743, 22.87392
947.8564, 22.92734
948.3386, 23.05560
948.8207, 23.34149
949.3028, 23.45913
949.7849, 23.00315
950.2670, 22.59119
950.7491, 22.80181
951.2313, 23.27530
951.7134, 23.45576
952.1955, 23.32175
952.6776, 23.24940
953.1597, 23.47240
953.6418, 23.70758
954.1240, 23.53016
954.6061, 23.20948
955.0882, 23.41134
955.5703, 23.94700
956.0524, 23.83420
956.5345, 22.83049
957.0166, 22.02677
957.4987, 22.52604
957.9808, 23.75956
958.4630, 24.26977
958.9451, 24.10665
959.4272, 23.91848
959.9093, 23.77185
960.3914, 23.67643
960.8735, 23.62886
961.3557, 23.67270
961.8378, 23.88854
962.3199, 24.26868
962.8020, 24.59860
963.2841, 24.94665
963.7662, 24.99505
964.2484, 24.47827
964.7305, 24.04891
965.2126, 24.19858
965.6947, 24.67905
966.1768, 24.93789
966.6589, 24.92320
967.1411, 24.88898
967.6232, 24.80872
968.1053, 24.74527
968.5874, 24.66117
969.0695, 24.64340
969.5516, 24.87397
970.0338, 25.21949
970.5159, 25.26681
970.9980, 24.82246
971.4801, 24.47371
971.9622, 24.55324
972.4443, 24.59556
972.9265, 24.14207
973.4086, 23.61655
973.8907, 23.69091
974.3728, 24.27654
974.8549, 24.56918
975.3370, 24.06249
975.8192, 23.58757
976.3013, 23.86759
976.7834, 24.40185
977.2655, 24.76165
977.7476, 24.87661
978.2297, 24.60801
978.7119, 23.98711
979.1940, 23.41440
979.6761, 23.18943
980.1582, 23.15745
980.6403, 23.13272
981.1224, 23.11526
981.6046, 23.09631
982.0867, 23.08219
982.5688, 23.14222
983.0509, 23.29920
983.5330, 23.36273
984.0151, 23.06380
984.4973, 22.56770
984.9794, 22.44067
985.4615, 22.65549
985.9436, 22.78810
986.4257, 22.76806
986.9078, 22.98046
987.3900, 23.68345
987.8721, 24.49233
988.3542, 24.79415
988.8363, 24.60968
989.3184, 24.46124
989.8005, 24.35562
990.2827, 24.23472
990.7648, 24.03235
991.2469, 23.97339
991.7290, 24.26970
992.2111, 24.74086
992.6932, 24.99739
993.1754, 25.01066
993.6575, 24.96168
994.1396, 24.81619
994.6217, 24.66970
995.1038, 24.52787
995.5859, 24.40876
996.0681, 24.35773
996.5502, 24.33673
997.0323, 24.20785
997.5144, 23.83828
997.9965, 23.76541
998.4786, 24.33227
998.9608, 24.80571
999.4429, 24.92023
999.9250, 24.86712
1000.407, 24.77875
1000.889, 24.67661
1001.371, 24.56949
1001.853, 24.40857
1002.336, 24.39292
1002.818, 24.72785
1003.300, 25.06289
1003.782, 25.17362
1004.264, 25.18694
1004.746, 25.24220
1005.228, 25.35843
1005.710, 25.53305
1006.193, 25.83665
1006.675, 25.98339
1007.157, 25.60239
1007.639, 25.17251
1008.121, 25.17013
1008.603, 25.41331
1009.085, 25.63397
1009.567, 25.73702
1010.049, 25.59813
1010.532, 25.05369
1011.014, 24.52526
1011.496, 24.41767
1011.978, 24.57284
1012.460, 24.95202
1012.942, 25.36289
1013.424, 25.23442
1013.906, 24.53314
1014.388, 24.08567
1014.871, 24.59680
1015.353, 25.40538
1015.835, 25.59675
1016.317, 25.34318
1016.799, 24.88339
1017.281, 24.35032
1017.763, 24.20763
1018.245, 24.58393
1018.728, 25.13326
1019.210, 25.59441
1019.692, 25.89451
1020.174, 25.75294
1020.656, 25.29028
1021.138, 25.13748
1021.620, 25.32322
1022.102, 25.51529
1022.584, 25.58690
1023.067, 25.61314
1023.549, 25.64044
1024.031, 25.73477
1024.513, 26.23744
1024.995, 27.12891
1025.477, 27.47492
1025.959, 27.14881
1026.441, 27.01527
1026.924, 27.47330
1027.406, 28.04534
1027.888, 28.14015
1028.370, 27.90474
1028.852, 28.17920
1029.334, 29.05561
1029.816, 29.75680
1030.298, 30.18693
1030.781, 30.56170
1031.263, 30.96131
1031.745, 31.37254
1032.227, 31.77348
1032.709, 32.16857
1033.191, 32.63506
1033.673, 33.22625
1034.155, 33.67117
1034.637, 33.82518
1035.120, 34.13987
1035.602, 34.90587
1036.084, 35.82122
1036.566, 36.55334
1037.048, 37.09292
1037.530, 37.26123
1038.012, 36.81948
1038.494, 36.54816
1038.976, 36.63115
1039.459, 36.68297
1039.941, 36.62191
1040.423, 36.36100
1040.905, 35.69912
1041.387, 34.66344
1041.869, 33.86361
1042.351, 33.55447
1042.833, 33.05312
1043.316, 32.08638
1043.798, 31.21225
1044.280, 30.86490
1044.762, 30.60122
1045.244, 29.76929
1045.726, 28.42361
1046.208, 27.51974
1046.690, 27.60077
1047.172, 27.35008
1047.655, 26.15624
1048.137, 25.20707
1048.619, 25.34072
1049.101, 25.80899
1049.583, 25.76009
1050.065, 25.18049
1050.547, 24.40733
1051.029, 22.90191
1051.511, 22.14556
1051.994, 23.04000
1052.476, 23.93077
1052.958, 23.89082
1053.440, 23.46856
1053.922, 23.34609
1054.404, 23.51899
1054.886, 23.57656
1055.368, 23.32561
1055.851, 23.17115
1056.333, 23.29856
1056.815, 23.43856
1057.297, 23.57639
1057.779, 23.56168
1058.261, 23.07329
1058.743, 22.23552
1059.225, 21.74225
1059.708, 21.91574
1060.190, 22.09103
1060.672, 21.97769
1061.154, 21.91706
1061.636, 22.26994
1062.118, 22.66137
1062.600, 22.54533
1063.082, 22.03266
1063.564, 21.81340
1064.047, 22.26685
1064.529, 22.42349
1065.011, 21.43150
1065.493, 20.61645
1065.975, 20.98786
1066.457, 21.77136
1066.939, 22.05639
1067.421, 21.91172
1067.903, 21.96383
1068.386, 22.46506
1068.868, 22.82164
1069.350, 22.55058
1069.832, 22.34475
1070.314, 22.88112
1070.796, 23.48658
1071.278, 23.30115
1071.760, 22.53781
1072.243, 21.98940
1072.725, 21.87240
1073.207, 21.99006
1073.689, 22.43458
1074.171, 22.87929
1074.653, 23.21736
1075.135, 23.40020
1075.617, 23.26683
1076.099, 22.96927
1076.582, 22.89290
1077.064, 23.14933
1077.546, 23.35526
1078.028, 23.28044
1078.510, 23.18477
1078.992, 23.23383
1079.474, 23.30859
1079.956, 23.29738
1080.438, 23.21853
1080.921, 23.09213
1081.403, 22.92912
1081.885, 22.91228
1082.367, 23.36869
1082.849, 23.67072
1083.331, 23.38070
1083.813, 22.91261
1084.295, 22.53089
1084.777, 22.27378
1085.260, 22.17778
1085.742, 22.23188
1086.224, 22.26513
1086.706, 22.24792
1087.188, 22.13490
1087.670, 21.66035
1088.152, 21.32757
1088.634, 21.69404
1089.117, 22.36200
1089.599, 22.74053
1090.081, 22.77623
1090.563, 22.75677
1091.045, 22.80881
1091.527, 22.75886
1092.009, 22.44627
1092.491, 22.10449
1092.974, 21.87099
1093.456, 21.70853
1093.938, 21.53428
1094.420, 21.37103
1094.902, 21.35456
1095.384, 21.58574
1095.866, 21.74860
1096.348, 21.68878
1096.830, 21.57557
1097.313, 21.61422
1097.795, 21.55266
1098.277, 20.83026
1098.759, 19.82102
1099.241, 19.72710
1099.723, 21.01298
1100.205, 21.85358
1100.687, 21.24188
1101.169, 20.66082
1101.652, 20.81517
1102.134, 21.15301
1102.616, 21.30020
1103.098, 21.24659
1103.580, 20.98318
1104.062, 20.49515
1104.544, 20.18372
1105.026, 20.38651
1105.509, 20.43457
1105.991, 19.92825
1106.473, 19.43744
1106.955, 19.44220
1107.437, 19.62825
1107.919, 19.40307
1108.401, 18.77084
1108.883, 18.55114
1109.365, 19.27640
1109.848, 19.78820
1110.330, 19.63157
1110.812, 19.57960
1111.294, 20.30492
1111.776, 21.08261
1112.258, 20.95114
1112.740, 20.09212
1113.222, 19.67788
1113.704, 20.02989
1114.187, 20.26869
1114.669, 20.32772
1115.151, 20.29895
1115.633, 20.11150
1116.115, 19.93541
1116.597, 19.95138
1117.079, 20.07457
1117.561, 20.06954
1118.044, 19.89828
1118.526, 19.76096
1119.008, 19.62960
1119.490, 19.58755
1119.972, 19.74621
1120.454, 19.85798
1120.936, 19.73215
1121.418, 19.50072
1121.901, 19.35509
1122.383, 19.29248
1122.865, 19.49089
1123.347, 20.17686
1123.829, 20.53191
1124.311, 20.40497
1124.793, 20.07092
1125.275, 19.49454
1125.757, 19.06436
1126.240, 19.35466
1126.722, 20.14784
1127.204, 20.14837
1127.686, 19.03695
1128.168, 18.80700
1128.650, 19.83477
1129.132, 20.40890
1129.614, 19.91216
1130.096, 19.15173
1130.579, 18.73590
1131.061, 18.62039
1131.543, 18.74797
1132.025, 19.12343
1132.507, 19.33013
1132.989, 19.35540
1133.471, 19.48793
1133.953, 19.81082
1134.436, 19.84964
1134.918, 19.28601
1135.400, 18.64144
1135.882, 18.70905
1136.364, 19.29574
1136.846, 19.62229
1137.328, 19.69137
1137.810, 19.41055
1138.292, 18.81624
1138.775, 18.48172
1139.257, 18.62247
1139.739, 18.92899
1140.221, 19.15407
1140.703, 19.26109
1141.185, 19.15187
1141.667, 18.87323
1142.149, 18.44536
1142.631, 17.97663
1143.114, 17.89918
1143.596, 18.26865
1144.078, 18.77560
1144.560, 19.26487
1145.042, 19.55515
1145.524, 19.35594
1146.006, 18.88435
1146.488, 18.29854
1146.971, 17.78013
1147.453, 17.73673
1147.935, 18.10577
1148.417, 18.55680
1148.899, 18.96218
1149.381, 19.27937
1149.863, 19.59583
1150.345, 19.64424
1150.828, 18.93506
1151.310, 18.03060
1151.792, 17.47286
1152.274, 17.26970
1152.756, 17.43933
1153.238, 17.89298
1153.720, 18.25407
1154.202, 18.37874
1154.684, 18.35141
1155.167, 18.02317
1155.649, 17.77892
1156.131, 17.94992
1156.613, 18.26885
1157.095, 18.55112
1157.577, 18.70185
1158.059, 18.47581
1158.541, 17.74923
1159.023, 17.35579
1159.506, 17.62086
1159.988, 18.06250
1160.470, 19.04115
1160.952, 19.62153
1161.434, 18.65997
1161.916, 17.27429
1162.398, 17.25159
1162.880, 18.54458
1163.363, 19.27341
1163.845, 19.17746
1164.327, 18.96029
1164.809, 18.44343
1165.291, 18.12803
1165.773, 18.28602
1166.255, 18.53047
1166.737, 18.56384
1167.219, 18.42641
1167.702, 18.17141
1168.184, 17.74903
1168.666, 17.82783
1169.148, 18.59948
1169.630, 18.90165
1170.112, 18.43735
1170.594, 18.00979
1171.076, 18.02658
1171.558, 18.28192
1172.041, 18.54677
1172.523, 18.79872
1173.005, 18.95313
1173.487, 19.01147
1173.969, 18.96086
1174.451, 18.81470
1174.933, 18.80171
1175.415, 18.97248
1175.898, 19.01202
1176.380, 18.68954
1176.862, 18.22042
1177.344, 17.86927
1177.826, 17.63186
1178.308, 17.47326
1178.790, 17.43135
1179.272, 17.69275
1179.755, 18.17771
1180.237, 18.50101
1180.719, 18.53849
1181.201, 18.61038
1181.683, 19.05048
1182.165, 19.45328
1182.647, 19.39936
1183.129, 19.12027
1183.611, 18.82219
1184.094, 18.52189
1184.576, 18.11043
1185.058, 17.67924
1185.540, 17.65851
1186.022, 18.29972
1186.504, 18.80497
1186.986, 18.83221
1187.468, 18.62828
1187.950, 17.86221
1188.433, 17.34859
1188.915, 18.18845
1189.397, 19.55146
1189.879, 19.78907
1190.361, 18.78195
1190.843, 18.18839
1191.325, 18.53242
1191.807, 18.68021
1192.290, 18.41754
1192.772, 18.18632
1193.254, 18.05965
1193.736, 18.12593
1194.218, 18.60057
1194.700, 19.21930
1195.182, 19.23348
1195.664, 18.56107
1196.146, 18.35894
1196.629, 18.74542
1197.111, 18.93761
1197.593, 18.78304
1198.075, 18.66428
1198.557, 18.77848
1199.039, 18.87516
1199.521, 18.63548
1200.003, 18.25981
1200.485, 18.37400
1200.968, 18.85604
1201.450, 19.08740
1201.932, 19.06450
1202.414, 18.86292
1202.896, 18.54984
1203.378, 18.41275
1203.860, 18.61315
1204.342, 18.89502
1204.825, 19.03634
1205.307, 19.05640
1205.789, 18.87987
1206.271, 18.66607
1206.753, 18.70189
1207.235, 18.88693
1207.717, 18.97880
1208.199, 18.91931
1208.682, 18.72732
1209.164, 18.31103
1209.646, 18.07203
1210.128, 18.37866
1210.610, 18.71773
1211.092, 18.84336
1211.574, 18.81145
1212.056, 18.50441
1212.538, 18.15081
1213.021, 18.33914
1213.503, 19.18126
1213.985, 19.52286
1214.467, 18.67678
1214.949, 18.35656
1215.431, 19.05585
1215.913, 19.60956
1216.395, 19.61125
1216.877, 19.27382
1217.360, 18.67826
1217.842, 18.00815
1218.324, 17.77550
1218.806, 17.99316
1219.288, 18.05110
1219.770, 17.93153
1220.252, 18.01385
1220.734, 18.36027
1221.217, 18.46744
1221.699, 18.10761
1222.181, 17.84247
1222.663, 18.25971
1223.145, 19.00275
1223.627, 19.46194
1224.109, 19.70720
1224.591, 19.97838
1225.073, 20.15563
1225.556, 19.77927
1226.038, 18.94147
1226.520, 18.21490
1227.002, 17.83207
1227.484, 17.80716
1227.966, 18.47504
1228.448, 19.08306
1228.930, 18.93439
1229.412, 18.65680
1229.895, 18.88180
1230.377, 19.28805
1230.859, 19.39599
1231.341, 19.20206
1231.823, 18.92214
1232.305, 18.51587
1232.787, 18.31313
1233.269, 18.58475
1233.752, 18.71416
1234.234, 18.37654
1234.716, 18.17869
1235.198, 18.49074
1235.680, 19.04012
1236.162, 19.57800
1236.644, 20.01393
1237.126, 19.82878
1237.609, 18.92829
1238.091, 18.40750
1238.573, 18.31055
1239.055, 18.17565
1239.537, 17.90195
1240.019, 17.81949
1240.501, 18.11453
1240.983, 18.53635
1241.465, 18.86277
1241.948, 19.00482
1242.430, 18.54698
1242.912, 17.90568
1243.394, 18.08346
1243.876, 18.79207
1244.358, 19.15653
1244.840, 19.11114
1245.322, 19.28492
1245.804, 19.98857
1246.287, 20.31709
1246.769, 19.19036
1247.251, 18.25366
1247.733, 18.81312
1248.215, 19.53201
1248.697, 19.24561
1249.179, 18.52765
1249.661, 18.26075
1250.144, 18.42588
1250.626, 18.46450
1251.108, 18.19197
1251.590, 18.32556
1252.072, 19.29677
1252.554, 19.60448
1253.036, 18.60452
1253.518, 17.96398
1254.000, 18.70036
1254.483, 19.69812
1254.965, 19.56874
1255.447, 18.74140
1255.929, 18.62629
1256.411, 19.08428
1256.893, 19.10171
1257.375, 18.71917
1257.857, 18.30829
1258.339, 17.97173
1258.822, 17.82846
1259.304, 17.92341
1259.786, 18.02545
1260.268, 17.86475
1260.750, 17.75838
1261.232, 18.22663
1261.714, 18.71803
1262.196, 18.50472
1262.679, 18.03161
1263.161, 17.92660
1263.643, 18.19513
1264.125, 18.63509
1264.607, 19.25919
1265.089, 19.58064
1265.571, 19.44345
1266.053, 19.09246
1266.536, 18.33922
1267.018, 17.71088
1267.500, 17.35463
1267.982, 17.30485
1268.464, 17.69456
1268.946, 18.28237
1269.428, 18.44059
1269.910, 18.19628
1270.392, 18.27753
1270.875, 18.66578
1271.357, 18.81233
1271.839, 18.66655
1272.321, 18.39352
1272.803, 18.07490
1273.285, 17.96745
1273.767, 18.27524
1274.249, 18.75948
1274.731, 19.36037
1275.214, 19.77661
##END=



