##NAMES=Natrojarosite
##RRUFFID=R050471
##IDEAL CHEMISTRY=NaFe^3+^_3_(S^6+^O_4_)_2_(OH)_6_
##LOCALITY=Bristol mine, Pioche, Lincoln County, Nevada, USA
##OWNER=RRUFF
##SOURCE=Marcus Origlieri
##DESCRIPTION=Tan colored, fine-grained massive
##STATUS=The identification of this mineral has been confirmed by X-ray diffraction and chemical analysis
##URL=rruff.info/R050471
##MEASURED CHEMISTRY=(Na_0.60_K_0.30_Pb_0.10_)_Σ=1_(Fe^3+^_2.98_Al_0.02_)_Σ=3_((S_0.95_As_0.05_)_Σ=1_O_4_)_2_(OH)_6_
91.00781, 10.33836
91.48993, 10.79327
91.97205, 10.97549
92.45416, 10.61380
92.93628, 9.991171
93.41840, 9.759186
93.90051, 10.10016
94.38263, 10.72976
94.86475, 11.17484
95.34686, 11.43788
95.82898, 11.75970
96.31110, 12.37665
96.79321, 13.26230
97.27533, 14.11978
97.75745, 14.86917
98.23956, 15.53276
98.72168, 16.12154
99.20380, 16.57649
99.68591, 17.12217
100.1680, 17.99331
100.6501, 19.19674
101.1323, 20.66339
101.6144, 22.43450
102.0965, 24.54431
102.5786, 26.48631
103.0607, 28.10323
103.5428, 29.70459
104.0250, 31.89600
104.5071, 34.96281
104.9892, 38.10777
105.4713, 40.96062
105.9534, 43.14770
106.4355, 45.86883
106.9177, 49.49788
107.3998, 53.67529
107.8819, 57.39431
108.3640, 60.34411
108.8461, 63.04243
109.3282, 65.76299
109.8104, 68.60258
110.2925, 71.29295
110.7746, 73.35416
111.2567, 74.96822
111.7388, 77.66673
112.2209, 82.40824
112.7031, 87.82381
113.1852, 93.02469
113.6673, 97.02925
114.1494, 101.5355
114.6315, 107.0698
115.1136, 113.7151
115.5958, 120.7648
116.0779, 127.9450
116.5600, 135.4342
117.0421, 143.3974
117.5242, 152.0499
118.0063, 161.1628
118.4885, 170.8786
118.9706, 181.3320
119.4527, 191.6785
119.9348, 201.5777
120.4169, 211.0051
120.8990, 220.0719
121.3812, 228.5704
121.8633, 236.7929
122.3454, 245.0977
122.8275, 253.9305
123.3096, 262.0165
123.7917, 267.6548
124.2739, 271.3898
124.7560, 275.2197
125.2381, 280.1205
125.7202, 286.0360
126.2023, 292.7782
126.6844, 300.3411
127.1666, 308.7403
127.6487, 317.9126
128.1308, 327.9190
128.6129, 338.9124
129.0950, 351.0432
129.5771, 364.3418
130.0593, 378.9372
130.5414, 394.4514
131.0235, 411.3135
131.5056, 429.9352
131.9877, 448.4275
132.4698, 467.0629
132.9520, 488.8255
133.4341, 513.5826
133.9162, 539.5922
134.3983, 567.0997
134.8804, 595.5566
135.3625, 622.3732
135.8447, 648.8477
136.3268, 671.1313
136.8089, 685.7516
137.2910, 693.6770
137.7731, 689.9851
138.2552, 671.3297
138.7374, 636.6563
139.2195, 596.8370
139.7016, 549.3353
140.1837, 498.5453
140.6658, 453.9694
141.1479, 415.2436
141.6301, 382.1493
142.1122, 354.5470
142.5943, 333.1346
143.0764, 314.7436
143.5585, 299.1349
144.0406, 286.2643
144.5228, 275.6547
145.0049, 268.0883
145.4870, 261.8571
145.9691, 256.1431
146.4512, 250.7983
146.9333, 246.1001
147.4155, 242.2886
147.8976, 239.2245
148.3797, 235.8960
148.8618, 231.1687
149.3439, 226.2733
149.8260, 225.7941
150.3082, 224.9447
150.7903, 223.7454
151.2724, 221.1473
151.7545, 220.3555
152.2366, 218.8398
152.7188, 217.2942
153.2009, 216.7566
153.6830, 214.3619
154.1651, 213.8083
154.6472, 212.5198
155.1293, 211.5677
155.6115, 209.8869
156.0936, 208.4314
156.5757, 207.7045
157.0578, 206.5741
157.5399, 204.8098
158.0220, 203.8790
158.5042, 201.4587
158.9863, 200.3455
159.4684, 199.7962
159.9505, 198.0685
160.4326, 197.1510
160.9147, 195.6932
161.3969, 195.2137
161.8790, 195.5779
162.3611, 195.8951
162.8432, 195.5363
163.3253, 194.1065
163.8074, 192.9878
164.2896, 193.1623
164.7717, 194.0917
165.2538, 194.7044
165.7359, 193.8391
166.2180, 192.8554
166.7001, 192.9230
167.1823, 194.7171
167.6644, 196.5148
168.1465, 197.0139
168.6286, 196.6054
169.1107, 196.3907
169.5928, 197.1267
170.0750, 198.2983
170.5571, 199.3759
171.0392, 200.1529
171.5213, 200.9371
172.0034, 201.9830
172.4855, 203.2659
172.9677, 204.6411
173.4498, 205.9311
173.9319, 207.2891
174.4140, 208.9646
174.8961, 211.2215
175.3782, 213.5960
175.8604, 215.4789
176.3425, 216.9578
176.8246, 218.6785
177.3067, 221.3749
177.7888, 224.6790
178.2709, 227.7633
178.7531, 230.1586
179.2352, 232.4294
179.7173, 235.2835
180.1994, 238.7298
180.6815, 242.8677
181.1636, 248.2602
181.6458, 254.5015
182.1279, 260.1667
182.6100, 264.4453
183.0921, 268.0475
183.5742, 272.5952
184.0563, 278.0361
184.5385, 283.8746
185.0206, 289.2623
185.5027, 294.4571
185.9848, 300.4640
186.4669, 308.1849
186.9490, 316.9290
187.4312, 324.7741
187.9133, 331.4601
188.3954, 338.0458
188.8775, 345.7595
189.3596, 354.4476
189.8417, 363.0487
190.3239, 370.9590
190.8060, 378.3953
191.2881, 385.9757
191.7702, 393.5553
192.2523, 401.5241
192.7344, 410.6533
193.2166, 420.9068
193.6987, 431.2248
194.1808, 441.3102
194.6629, 451.1458
195.1450, 460.7086
195.6271, 469.6581
196.1093, 479.1991
196.5914, 491.4676
197.0735, 506.6529
197.5556, 522.1733
198.0377, 536.8730
198.5198, 550.8698
199.0020, 564.9928
199.4841, 579.2297
199.9662, 593.6467
200.4483, 608.4424
200.9304, 623.5117
201.4125, 639.5539
201.8947, 657.2504
202.3768, 676.7783
202.8589, 695.6302
203.3410, 713.6364
203.8231, 731.2515
204.3052, 748.9818
204.7874, 766.9160
205.2695, 785.0020
205.7516, 803.0649
206.2337, 820.9711
206.7158, 839.9313
207.1979, 860.3715
207.6801, 881.5566
208.1622, 901.3906
208.6443, 919.4288
209.1264, 937.8494
209.6085, 957.5784
210.0906, 978.6785
210.5728, 1000.857
211.0549, 1023.802
211.5370, 1047.917
212.0191, 1073.554
212.5012, 1101.093
212.9833, 1129.733
213.4655, 1159.033
213.9476, 1189.483
214.4297, 1219.615
214.9118, 1250.225
215.3939, 1280.041
215.8760, 1306.916
216.3581, 1330.822
216.8403, 1351.384
217.3224, 1368.500
217.8045, 1383.057
218.2866, 1391.827
218.7687, 1394.667
219.2508, 1391.606
219.7330, 1382.673
220.2151, 1367.826
220.6972, 1347.196
221.1793, 1320.922
221.6614, 1288.230
222.1435, 1251.135
222.6257, 1208.484
223.1078, 1161.755
223.5899, 1113.488
224.0720, 1062.217
224.5541, 1011.570
225.0362, 962.0845
225.5184, 913.9173
226.0005, 867.4715
226.4826, 822.0035
226.9647, 778.3604
227.4468, 737.4382
227.9289, 699.4407
228.4111, 664.3367
228.8932, 632.2831
229.3753, 604.1111
229.8574, 577.1082
230.3395, 550.9426
230.8216, 526.2271
231.3038, 504.3494
231.7859, 486.3691
232.2680, 469.8910
232.7501, 453.7300
233.2322, 437.0364
233.7143, 422.7033
234.1965, 411.3959
234.6786, 402.2320
235.1607, 392.5172
235.6428, 381.3411
236.1249, 370.9231
236.6070, 362.3289
237.0892, 356.3339
237.5713, 350.4148
238.0534, 344.3151
238.5355, 338.3543
239.0176, 333.4821
239.4997, 330.4048
239.9819, 327.3043
240.4640, 323.3414
240.9461, 317.8318
241.4282, 313.0522
241.9103, 309.2531
242.3924, 306.1079
242.8746, 302.7738
243.3567, 298.8210
243.8388, 295.3416
244.3209, 292.8906
244.8030, 292.0688
245.2851, 290.7303
245.7673, 288.6638
246.2494, 286.1722
246.7315, 283.8763
247.2136, 281.7274
247.6957, 279.8551
248.1778, 278.3622
248.6600, 277.4401
249.1421, 276.3553
249.6242, 275.0897
250.1063, 273.6639
250.5884, 272.0659
251.0705, 270.0617
251.5527, 268.2721
252.0348, 266.9566
252.5169, 266.2007
252.9990, 265.5935
253.4811, 265.2731
253.9632, 265.0016
254.4454, 264.3434
254.9275, 263.1245
255.4096, 261.8370
255.8917, 260.5940
256.3738, 259.3575
256.8560, 258.3771
257.3381, 257.6493
257.8202, 257.1729
258.3023, 256.9914
258.7844, 257.2838
259.2665, 257.4824
259.7487, 257.3425
260.2308, 256.7709
260.7129, 256.5607
261.1950, 256.8965
261.6771, 257.3907
262.1592, 257.4734
262.6414, 256.9543
263.1235, 256.5031
263.6056, 256.3280
264.0877, 256.4474
264.5698, 256.4786
265.0519, 256.2099
265.5341, 256.1392
266.0162, 257.0468
266.4983, 259.3906
266.9804, 261.2511
267.4625, 261.9366
267.9446, 261.4701
268.4268, 261.8202
268.9089, 263.1700
269.3910, 264.9983
269.8731, 266.8458
270.3552, 268.7199
270.8373, 270.5169
271.3195, 272.1527
271.8016, 273.6629
272.2837, 275.4633
272.7658, 277.5459
273.2479, 279.9911
273.7300, 283.0313
274.2122, 286.7690
274.6943, 290.3860
275.1764, 293.6522
275.6585, 296.6534
276.1406, 299.7206
276.6227, 302.7407
277.1049, 306.2072
277.5870, 310.7797
278.0691, 316.5926
278.5512, 321.9257
279.0333, 326.3351
279.5154, 330.1675
279.9976, 334.5428
280.4797, 339.5107
280.9618, 344.8301
281.4439, 350.5844
281.9260, 356.7534
282.4081, 362.7100
282.8903, 368.2603
283.3724, 373.6748
283.8545, 379.6718
284.3366, 386.2969
284.8187, 393.0424
285.3008, 399.5552
285.7830, 405.8959
286.2651, 412.0236
286.7472, 417.8924
287.2293, 423.7143
287.7114, 429.9146
288.1935, 436.4890
288.6757, 443.1457
289.1578, 449.6611
289.6399, 456.1045
290.1220, 462.6536
290.6041, 469.4962
291.0862, 475.9849
291.5684, 480.8537
292.0505, 484.2873
292.5326, 487.8188
293.0147, 492.8247
293.4968, 498.5400
293.9789, 502.8655
294.4611, 505.6858
294.9432, 507.2722
295.4253, 507.7504
295.9074, 507.1901
296.3895, 505.8968
296.8716, 504.3392
297.3538, 502.0540
297.8359, 498.1945
298.3180, 492.7329
298.8001, 485.6911
299.2822, 476.2621
299.7643, 465.0996
300.2465, 454.0712
300.7286, 444.1448
301.2107, 434.5322
301.6928, 423.8048
302.1749, 412.1242
302.6570, 400.4846
303.1392, 389.8144
303.6213, 379.7772
304.1034, 370.0287
304.5855, 360.2326
305.0676, 350.8205
305.5497, 341.9141
306.0319, 333.5777
306.5140, 325.6839
306.9961, 318.0424
307.4782, 310.9537
307.9603, 304.7916
308.4424, 300.0470
308.9246, 295.5839
309.4067, 290.3172
309.8888, 284.5981
310.3709, 279.3308
310.8530, 275.2540
311.3351, 271.7616
311.8173, 268.3426
312.2994, 264.8233
312.7815, 261.5361
313.2636, 258.8009
313.7457, 256.4529
314.2278, 254.1782
314.7100, 251.9079
315.1921, 249.6557
315.6742, 247.4367
316.1563, 245.2685
316.6384, 243.0863
317.1205, 240.7151
317.6027, 238.3917
318.0848, 236.4301
318.5669, 235.1459
319.0490, 234.0461
319.5311, 233.0300
320.0132, 232.0974
320.4954, 230.9610
320.9775, 229.2617
321.4596, 227.4627
321.9417, 225.9831
322.4238, 225.2303
322.9059, 224.4663
323.3881, 223.5285
323.8702, 222.4310
324.3523, 221.2855
324.8344, 219.7819
325.3165, 218.4534
325.7986, 217.6007
326.2808, 217.7613
326.7629, 217.7967
327.2450, 217.5947
327.7271, 217.2049
328.2092, 216.8213
328.6913, 216.5277
329.1735, 216.1687
329.6556, 215.6522
330.1377, 214.7533
330.6198, 214.1196
331.1019, 213.7937
331.5840, 213.7181
332.0662, 213.7991
332.5483, 214.1613
333.0304, 214.4953
333.5125, 214.6750
333.9946, 214.6521
334.4767, 214.7243
334.9589, 214.8854
335.4410, 215.1438
335.9231, 215.5636
336.4052, 216.2788
336.8873, 216.7462
337.3694, 216.5305
337.8516, 215.7375
338.3336, 216.5028
338.8158, 219.3665
339.2979, 222.6592
339.7800, 224.8230
340.2621, 225.6522
340.7442, 226.7101
341.2263, 228.3256
341.7085, 230.3093
342.1906, 231.7584
342.6727, 232.5381
343.1548, 233.7079
343.6369, 236.2607
344.1190, 240.0789
344.6012, 243.5737
345.0833, 246.4453
345.5654, 249.1281
346.0475, 252.6187
346.5296, 256.8301
347.0117, 260.6561
347.4939, 263.1705
347.9760, 264.7671
348.4581, 266.8540
348.9402, 269.5839
349.4223, 272.2494
349.9044, 274.1893
350.3866, 275.4611
350.8687, 276.2887
351.3508, 276.3844
351.8329, 276.2679
352.3150, 276.9782
352.7971, 278.4868
353.2793, 279.7218
353.7614, 279.5489
354.2435, 278.6196
354.7256, 278.0075
355.2077, 278.2099
355.6898, 278.6028
356.1720, 278.9178
356.6541, 279.0451
357.1362, 278.5429
357.6183, 276.4930
358.1004, 274.0510
358.5826, 272.4055
359.0647, 272.2238
359.5468, 271.6993
360.0289, 269.6450
360.5110, 266.5775
360.9931, 263.4673
361.4753, 260.7149
361.9574, 258.0365
362.4395, 255.3330
362.9216, 252.6127
363.4037, 249.7546
363.8858, 246.8115
364.3680, 243.6817
364.8501, 240.2440
365.3322, 236.3651
365.8143, 232.3393
366.2964, 228.0798
366.7785, 223.5889
367.2607, 219.5128
367.7428, 216.2078
368.2249, 213.1077
368.7070, 209.8491
369.1891, 205.6990
369.6712, 202.4085
370.1534, 200.4428
370.6355, 199.3674
371.1176, 197.8138
371.5997, 195.4156
372.0818, 192.9975
372.5639, 190.8787
373.0461, 189.1477
373.5282, 187.3755
374.0103, 185.5245
374.4924, 183.6254
374.9745, 181.6772
375.4566, 179.5247
375.9388, 177.7880
376.4209, 176.8053
376.9030, 176.5034
377.3851, 175.7959
377.8672, 174.5596
378.3493, 173.2966
378.8315, 172.5497
379.3136, 172.3252
379.7957, 172.0845
380.2778, 171.7457
380.7599, 171.3152
381.2420, 170.7320
381.7242, 170.0056
382.2063, 169.3467
382.6884, 168.8569
383.1705, 168.5419
383.6526, 168.4624
384.1347, 168.6372
384.6169, 168.9756
385.0990, 169.4553
385.5811, 170.0213
386.0632, 170.4789
386.5453, 170.5341
387.0274, 170.5210
387.5096, 170.9191
387.9917, 171.7296
388.4738, 172.6646
388.9559, 173.6520
389.4380, 174.5702
389.9201, 175.2234
390.4023, 175.0853
390.8844, 175.2002
391.3665, 176.4586
391.8486, 178.6183
392.3307, 180.7460
392.8128, 182.4143
393.2950, 183.8801
393.7771, 185.3447
394.2592, 186.8848
394.7413, 188.2822
395.2234, 189.1802
395.7055, 189.9333
396.1877, 191.0912
396.6698, 193.2676
397.1519, 195.3938
397.6340, 196.9606
398.1161, 197.8164
398.5982, 199.3808
399.0804, 202.5807
399.5625, 206.0216
400.0446, 208.6684
400.5267, 209.6042
401.0088, 211.1088
401.4909, 213.4844
401.9731, 216.5774
402.4552, 219.7185
402.9373, 222.7958
403.4194, 226.1099
403.9015, 229.8816
404.3836, 234.2911
404.8658, 238.3859
405.3479, 241.9289
405.8300, 245.4175
406.3121, 249.6927
406.7942, 254.8415
407.2763, 260.1432
407.7585, 265.3480
408.2406, 270.5288
408.7227, 275.7772
409.2048, 280.9908
409.6869, 286.8752
410.1690, 294.3987
410.6512, 303.2044
411.1333, 311.8264
411.6154, 319.8342
412.0975, 327.8462
412.5796, 336.9246
413.0617, 346.9655
413.5439, 357.5750
414.0260, 368.5832
414.5081, 380.1346
414.9902, 392.2314
415.4723, 404.9191
415.9544, 418.3645
416.4366, 432.7021
416.9187, 447.7847
417.4008, 463.3247
417.8829, 479.2177
418.3650, 495.6665
418.8471, 512.8933
419.3293, 530.7919
419.8114, 549.7261
420.2935, 569.4016
420.7756, 590.3837
421.2577, 612.6253
421.7398, 636.9309
422.2220, 661.6225
422.7041, 686.0869
423.1862, 710.9105
423.6683, 737.2074
424.1504, 765.7972
424.6325, 795.6653
425.1147, 826.5466
425.5968, 859.0131
426.0789, 890.8575
426.5610, 921.4037
427.0431, 951.9608
427.5252, 983.3268
428.0074, 1015.889
428.4895, 1048.456
428.9716, 1081.075
429.4537, 1113.098
429.9358, 1141.946
430.4179, 1167.212
430.9001, 1190.456
431.3822, 1212.703
431.8643, 1233.999
432.3464, 1251.012
432.8285, 1263.352
433.3106, 1272.674
433.7928, 1280.840
434.2749, 1287.802
434.7570, 1293.191
435.2391, 1297.015
435.7212, 1299.106
436.2033, 1299.009
436.6855, 1296.785
437.1676, 1292.942
437.6497, 1287.234
438.1318, 1280.333
438.6139, 1273.716
439.0960, 1268.223
439.5782, 1260.803
440.0603, 1248.087
440.5424, 1231.666
441.0245, 1214.743
441.5066, 1199.447
441.9887, 1183.252
442.4709, 1164.459
442.9530, 1143.079
443.4351, 1120.798
443.9172, 1098.140
444.3993, 1075.009
444.8814, 1051.594
445.3636, 1026.116
445.8457, 1002.505
446.3278, 982.1520
446.8099, 964.1487
447.2920, 945.6669
447.7741, 925.4684
448.2563, 905.9940
448.7384, 888.7164
449.2205, 873.9359
449.7026, 857.6320
450.1847, 839.6008
450.6668, 820.5723
451.1490, 801.4265
451.6311, 782.4307
452.1132, 761.9925
452.5953, 739.3648
453.0774, 715.4033
453.5595, 690.9661
454.0417, 665.8768
454.5238, 641.0532
455.0059, 616.2935
455.4880, 592.0067
455.9701, 569.0084
456.4522, 547.3997
456.9344, 527.3582
457.4165, 509.2667
457.8986, 492.8275
458.3807, 477.8190
458.8628, 464.2729
459.3449, 451.7855
459.8271, 439.4891
460.3092, 427.6154
460.7913, 416.9121
461.2734, 407.4777
461.7555, 399.6395
462.2376, 393.9552
462.7198, 390.9748
463.2019, 388.1622
463.6840, 384.2108
464.1661, 379.8413
464.6482, 375.9253
465.1303, 372.3737
465.6125, 369.6204
466.0946, 368.2398
466.5767, 368.0255
467.0588, 367.2177
467.5409, 365.4296
468.0230, 363.2499
468.5052, 360.8523
468.9873, 357.9400
469.4694, 355.5752
469.9515, 353.9186
470.4336, 352.6820
470.9157, 351.5787
471.3979, 350.8300
471.8800, 349.4881
472.3621, 347.3016
472.8442, 344.3449
473.3263, 340.7806
473.8084, 336.5716
474.2906, 332.0371
474.7727, 327.2947
475.2548, 322.3893
475.7369, 317.5638
476.2190, 312.8381
476.7011, 308.1381
477.1833, 303.5156
477.6654, 298.8115
478.1475, 293.5844
478.6296, 287.1968
479.1117, 280.5153
479.5938, 274.3799
480.0760, 268.7234
480.5581, 263.3038
481.0402, 257.9960
481.5223, 252.7935
482.0044, 247.6525
482.4865, 242.5664
482.9687, 237.6901
483.4508, 233.1149
483.9329, 228.7587
484.4150, 224.5678
484.8971, 220.1664
485.3792, 216.2664
485.8614, 213.3692
486.3435, 211.3588
486.8256, 208.5117
487.3077, 204.0444
487.7898, 199.7027
488.2719, 196.4606
488.7541, 194.7327
489.2362, 192.9625
489.7183, 191.1017
490.2004, 189.2479
490.6825, 187.5640
491.1646, 186.0708
491.6468, 184.4462
492.1289, 182.4785
492.6110, 180.3646
493.0931, 178.5627
493.5752, 177.0648
494.0573, 175.7600
494.5395, 174.6598
495.0216, 173.6688
495.5037, 172.5258
495.9858, 171.1941
496.4679, 169.8686
496.9500, 168.5261
497.4322, 167.3566
497.9143, 166.7014
498.3964, 167.4137
498.8785, 168.0310
499.3606, 167.6216
499.8427, 166.3559
500.3249, 165.0703
500.8070, 163.7977
501.2891, 162.7706
501.7712, 162.2145
502.2533, 162.4402
502.7354, 162.3098
503.2176, 161.3827
503.6997, 160.2445
504.1818, 159.4720
504.6639, 159.1188
505.1460, 159.0541
505.6281, 159.4057
506.1103, 160.0094
506.5924, 160.1585
507.0745, 159.7213
507.5566, 159.2868
508.0387, 159.2333
508.5208, 159.5297
509.0030, 159.4655
509.4851, 158.9693
509.9672, 158.5151
510.4493, 158.7128
510.9314, 159.3915
511.4135, 159.9671
511.8957, 160.2615
512.3778, 160.4456
512.8599, 160.6877
513.3420, 160.9800
513.8242, 161.2933
514.3063, 161.8504
514.7884, 162.2617
515.2705, 161.9958
515.7526, 161.0146
516.2347, 160.4858
516.7169, 161.1244
517.1990, 162.2493
517.6811, 163.3564
518.1632, 164.5923
518.6453, 165.4877
519.1274, 165.5833
519.6096, 165.3835
520.0917, 165.8302
520.5738, 167.2680
521.0559, 168.7883
521.5380, 170.2832
522.0201, 171.7255
522.5023, 172.4567
522.9844, 172.1504
523.4665, 172.0762
523.9486, 173.3798
524.4307, 175.9832
524.9128, 178.1802
525.3950, 179.8059
525.8771, 181.0464
526.3592, 181.9353
526.8413, 182.5863
527.3234, 183.4595
527.8055, 184.8460
528.2877, 186.4002
528.7698, 187.7872
529.2519, 189.0091
529.7340, 190.1338
530.2161, 190.9010
530.6982, 191.7832
531.1804, 193.2394
531.6625, 195.3966
532.1446, 197.5286
532.6267, 199.3415
533.1088, 201.0376
533.5909, 202.7752
534.0731, 204.3780
534.5552, 206.3037
535.0373, 208.7839
535.5194, 211.5705
536.0015, 214.1493
536.4836, 216.3620
536.9658, 218.6447
537.4479, 221.1365
537.9300, 223.8171
538.4121, 226.6170
538.8942, 229.6000
539.3763, 232.3555
539.8585, 234.2775
540.3406, 235.5658
540.8227, 237.4155
541.3048, 240.0652
541.7869, 243.0480
542.2690, 245.6960
542.7512, 248.2227
543.2333, 251.1721
543.7154, 255.2710
544.1975, 259.4654
544.6796, 262.7305
545.1617, 265.2999
545.6439, 268.0661
546.1260, 271.2508
546.6081, 274.9047
547.0902, 279.2713
547.5723, 284.6322
548.0544, 289.4155
548.5366, 292.9816
549.0187, 296.1556
549.5008, 299.6718
549.9829, 303.7204
550.4650, 307.7722
550.9471, 311.8083
551.4293, 315.8040
551.9114, 319.8332
552.3935, 323.9437
552.8756, 327.8509
553.3577, 331.3139
553.8398, 334.4875
554.3220, 338.2469
554.8041, 342.6337
555.2862, 346.8120
555.7683, 350.2219
556.2504, 352.9689
556.7325, 355.2645
557.2147, 357.0847
557.6968, 358.7303
558.1789, 360.2998
558.6610, 361.9005
559.1431, 363.6747
559.6252, 366.6974
560.1074, 368.8480
560.5895, 368.8597
561.0716, 367.2449
561.5537, 365.7334
562.0358, 364.8258
562.5179, 363.9022
563.0001, 362.7809
563.4822, 361.4691
563.9643, 359.9972
564.4464, 358.5316
564.9285, 356.6710
565.4106, 354.1224
565.8928, 350.8639
566.3749, 346.9217
566.8570, 342.1499
567.3391, 336.9293
567.8212, 331.7406
568.3033, 326.5476
568.7855, 321.4248
569.2676, 316.2572
569.7497, 311.2485
570.2318, 306.8555
570.7139, 302.9494
571.1960, 298.6006
571.6782, 292.7661
572.1603, 286.6529
572.6424, 281.4880
573.1245, 277.4024
573.6066, 273.0202
574.0887, 267.3345
574.5709, 261.3802
575.0530, 255.9161
575.5351, 251.3724
576.0172, 246.7559
576.4993, 241.8836
576.9814, 236.9895
577.4636, 232.5786
577.9457, 228.8697
578.4278, 225.0463
578.9099, 220.8406
579.3920, 216.4737
579.8741, 212.6622
580.3563, 209.4106
580.8384, 206.9215
581.3205, 206.2789
581.8026, 206.4334
582.2847, 204.0326
582.7668, 198.9334
583.2490, 193.4521
583.7311, 189.2543
584.2132, 185.9531
584.6953, 183.0287
585.1774, 180.4302
585.6595, 178.0954
586.1416, 175.9194
586.6237, 174.0126
587.1058, 172.5034
587.5880, 172.1488
588.0701, 171.4027
588.5522, 169.6336
589.0343, 167.1071
589.5164, 165.0435
589.9985, 163.6351
590.4807, 162.3614
590.9628, 161.0071
591.4449, 159.5689
591.9270, 158.1772
592.4091, 156.8297
592.8912, 155.5327
593.3734, 154.1131
593.8555, 152.6951
594.3376, 151.9970
594.8197, 152.2358
595.3018, 152.7100
595.7839, 152.8428
596.2661, 152.6357
596.7482, 152.0761
597.2303, 150.5805
597.7124, 149.3289
598.1945, 149.1029
598.6766, 149.6807
599.1588, 150.4291
599.6409, 151.3415
600.1230, 152.2185
600.6051, 152.8624
601.0872, 153.2268
601.5693, 154.0632
602.0515, 155.2868
602.5336, 157.0827
603.0157, 159.5464
603.4978, 162.6737
603.9799, 166.6593
604.4620, 171.6570
604.9442, 177.1663
605.4263, 182.1178
605.9084, 186.8596
606.3905, 192.9726
606.8726, 201.0640
607.3547, 210.4280
607.8369, 220.8381
608.3190, 231.9067
608.8011, 242.9480
609.2832, 253.4131
609.7653, 263.8030
610.2474, 274.3239
610.7296, 285.0687
611.2117, 295.9443
611.6938, 305.8339
612.1759, 316.9035
612.6580, 330.2450
613.1401, 346.1528
613.6223, 363.3633
614.1044, 381.2931
614.5865, 400.9881
615.0686, 423.4240
615.5507, 448.7776
616.0328, 474.6479
616.5150, 500.8658
616.9971, 526.9896
617.4792, 552.3889
617.9613, 577.1257
618.4434, 601.5156
618.9255, 626.0553
619.4077, 649.7520
619.8898, 673.1420
620.3719, 695.1631
620.8540, 712.8649
621.3361, 728.5241
621.8182, 736.0400
622.3004, 732.4822
622.7825, 717.7376
623.2646, 691.9374
623.7467, 649.1989
624.2288, 600.0939
624.7109, 548.7310
625.1931, 492.3746
625.6752, 442.6044
626.1573, 399.6175
626.6394, 362.2587
627.1215, 329.5959
627.6036, 301.6376
628.0858, 277.9287
628.5679, 258.6956
629.0500, 242.8779
629.5321, 229.5908
630.0142, 218.5568
630.4963, 209.3436
630.9785, 201.9061
631.4606, 195.9463
631.9427, 191.7144
632.4248, 188.8372
632.9069, 186.1056
633.3890, 182.6192
633.8712, 179.5737
634.3533, 177.6241
634.8354, 176.8782
635.3175, 176.0849
635.7996, 175.0115
636.2817, 174.0882
636.7639, 173.5510
637.2460, 173.4592
637.7281, 173.5173
638.2102, 173.8013
638.6923, 174.0122
639.1744, 173.9362
639.6566, 173.5354
640.1387, 172.4325
640.6208, 170.3700
641.1029, 168.2445
641.5850, 167.2231
642.0671, 166.9112
642.5493, 166.4922
643.0314, 165.9087
643.5135, 164.8780
643.9956, 162.9626
644.4777, 160.4466
644.9598, 158.1933
645.4420, 156.4713
645.9241, 154.9861
646.4062, 153.8470
646.8883, 153.0214
647.3704, 151.4604
647.8525, 148.8575
648.3347, 146.2121
648.8168, 144.2607
649.2989, 142.9483
649.7810, 141.1879
650.2631, 138.9225
650.7452, 136.6964
651.2274, 135.2225
651.7095, 134.1716
652.1916, 132.7571
652.6737, 130.7284
653.1558, 128.8407
653.6379, 127.8155
654.1201, 127.1961
654.6022, 126.3744
655.0843, 125.0340
655.5664, 123.6325
656.0485, 122.1615
656.5306, 120.7239
657.0128, 119.5101
657.4949, 118.5357
657.9770, 117.7836
658.4591, 117.3870
658.9412, 117.1959
659.4233, 116.4498
659.9055, 115.0887
660.3876, 113.8062
660.8697, 113.0739
661.3518, 112.6744
661.8339, 112.0173
662.3160, 111.1229
662.7982, 110.3433
663.2803, 110.0863
663.7624, 109.9718
664.2445, 109.6270
664.7266, 108.9721
665.2087, 108.2782
665.6909, 107.5378
666.1730, 106.8543
666.6551, 106.3290
667.1372, 106.1758
667.6193, 105.7664
668.1014, 104.8885
668.5836, 103.9739
669.0657, 103.7643
669.5478, 104.3536
670.0299, 104.5207
670.5120, 103.9213
670.9941, 102.9507
671.4763, 102.2187
671.9584, 101.7056
672.4405, 101.3219
672.9226, 101.0959
673.4047, 100.9213
673.8868, 100.7659
674.3690, 100.5976
674.8511, 100.2976
675.3332, 99.54666
675.8153, 98.90858
676.2974, 98.67651
676.7795, 98.87550
677.2617, 98.99209
677.7438, 99.09087
678.2259, 99.00723
678.7080, 98.57043
679.1901, 97.73912
679.6722, 97.20893
680.1544, 96.99808
680.6365, 96.93474
681.1186, 96.93715
681.6007, 96.95512
682.0828, 96.81363
682.5649, 96.45127
683.0471, 96.15341
683.5292, 96.31942
684.0113, 96.62523
684.4934, 96.67111
684.9755, 96.16933
685.4576, 95.68110
685.9398, 95.33039
686.4219, 95.08018
686.9040, 94.83760
687.3861, 94.45372
687.8682, 94.42931
688.3503, 95.05701
688.8325, 95.93739
689.3146, 95.89599
689.7967, 94.92107
690.2788, 94.04318
690.7609, 93.69104
691.2430, 93.69397
691.7252, 93.88110
692.2073, 94.18801
692.6894, 94.31469
693.1715, 93.93552
693.6536, 93.43416
694.1357, 92.97881
694.6179, 92.59395
695.1000, 92.52883
695.5821, 93.16891
696.0642, 93.85375
696.5463, 94.29023
697.0284, 94.45708
697.5106, 94.49070
697.9927, 94.34007
698.4748, 94.17750
698.9569, 94.17895
699.4390, 94.31742
699.9211, 94.37106
700.4033, 94.32774
700.8854, 94.18303
701.3675, 93.78567
701.8496, 93.32829
702.3317, 93.16616
702.8138, 93.54194
703.2960, 93.79743
703.7781, 93.42790
704.2602, 92.81727
704.7423, 92.43555
705.2244, 92.52808
705.7065, 92.63653
706.1887, 92.71136
706.6708, 92.79192
707.1529, 92.95869
707.6350, 93.21889
708.1171, 93.53759
708.5992, 93.97932
709.0814, 94.38280
709.5635, 94.37920
710.0456, 94.02386
710.5277, 93.58442
711.0098, 92.98809
711.4919, 92.52929
711.9741, 92.67117
712.4562, 93.23032
712.9383, 93.47381
713.4204, 92.64795
713.9025, 91.91563
714.3846, 91.95463
714.8668, 92.70898
715.3489, 92.89882
715.8310, 92.25864
716.3131, 91.58315
716.7952, 91.19770
717.2773, 91.11012
717.7595, 91.60526
718.2416, 92.72887
718.7237, 93.59738
719.2058, 93.17364
719.6879, 92.15280
720.1700, 91.75328
720.6522, 92.13442
721.1343, 92.34010
721.6164, 91.46603
722.0985, 90.40129
722.5806, 89.89134
723.0627, 90.38410
723.5449, 90.66172
724.0270, 90.55744
724.5091, 90.32455
724.9912, 90.22881
725.4733, 90.32874
725.9554, 90.16091
726.4376, 89.61147
726.9197, 89.00822
727.4018, 88.91610
727.8839, 89.15471
728.3660, 89.13791
728.8481, 88.64442
729.3303, 88.01830
729.8124, 87.40145
730.2945, 86.88740
730.7766, 86.62543
731.2587, 86.84465
731.7408, 87.09969
732.2230, 87.49342
732.7051, 87.81112
733.1872, 87.57471
733.6693, 86.56096
734.1514, 85.61009
734.6335, 84.81621
735.1157, 84.30190
735.5978, 84.56886
736.0799, 85.52342
736.5620, 86.37639
737.0441, 86.83187
737.5262, 86.94073
738.0084, 86.62252
738.4905, 85.98592
738.9726, 85.40019
739.4547, 85.07004
739.9368, 84.78111
740.4189, 84.31995
740.9011, 83.72865
741.3832, 83.66844
741.8653, 84.50554
742.3474, 85.20529
742.8295, 85.29829
743.3116, 84.86000
743.7938, 84.41628
744.2759, 83.96091
744.7580, 83.68843
745.2401, 83.93306
745.7222, 84.36132
746.2043, 84.47501
746.6865, 84.25826
747.1686, 83.87166
747.6507, 83.08456
748.1328, 82.40191
748.6149, 82.23898
749.0970, 82.79375
749.5792, 83.10540
750.0613, 83.04648
750.5434, 82.86646
751.0255, 82.71721
751.5076, 82.60702
751.9897, 82.42433
752.4719, 82.14991
752.9540, 81.89566
753.4361, 81.71702
753.9182, 81.63976
754.4003, 81.76292
754.8824, 82.12608
755.3646, 82.44846
755.8467, 82.46939
756.3288, 82.40119
756.8109, 82.45698
757.2930, 82.82248
757.7751, 82.99612
758.2573, 82.92024
758.7394, 82.68011
759.2215, 82.23289
759.7036, 81.46257
760.1857, 81.41735
760.6678, 82.35490
761.1500, 83.45409
761.6321, 83.56090
762.1142, 83.00571
762.5963, 82.59772
763.0784, 82.55919
763.5605, 82.63253
764.0427, 82.67227
764.5248, 82.70284
765.0069, 82.75503
765.4890, 82.76594
765.9711, 82.89732
766.4532, 83.20540
766.9354, 83.60545
767.4175, 84.05379
767.8996, 84.62174
768.3817, 84.70187
768.8638, 84.02607
769.3459, 83.20722
769.8281, 83.31656
770.3102, 84.10374
770.7923, 84.85030
771.2744, 85.39643
771.7565, 85.68938
772.2386, 85.53146
772.7208, 85.13371
773.2029, 84.86369
773.6850, 84.76006
774.1671, 84.86272
774.6492, 85.26350
775.1313, 85.82365
775.6135, 86.28069
776.0956, 86.63960
776.5777, 86.79707
777.0598, 86.63441
777.5419, 86.39329
778.0240, 86.50375
778.5062, 86.90257
778.9883, 87.39615
779.4704, 88.00134
779.9525, 88.56255
780.4346, 88.96844
780.9167, 89.25535
781.3989, 89.52367
781.8810, 89.82434
782.3631, 90.05356
782.8452, 90.07629
783.3273, 90.05221
783.8094, 90.55132
784.2916, 91.64071
784.7737, 92.60316
785.2558, 93.19650
785.7379, 93.51814
786.2200, 93.56248
786.7021, 93.45493
787.1843, 93.61098
787.6664, 94.60673
788.1485, 95.56221
788.6306, 95.77760
789.1127, 95.50749
789.5948, 95.73045
790.0770, 96.79907
790.5591, 98.01325
791.0412, 99.35503
791.5233, 100.6758
792.0054, 101.2791
792.4875, 101.1381
792.9697, 101.2922
793.4518, 102.3163
793.9339, 103.7938
794.4160, 105.2601
794.8981, 106.6359
795.3802, 107.6586
795.8624, 107.8527
796.3445, 108.0130
796.8266, 108.5825
797.3087, 109.4607
797.7908, 110.0780
798.2729, 110.2019
798.7551, 110.5036
799.2372, 111.2922
799.7193, 112.3642
800.2014, 112.8746
800.6835, 112.8713
801.1656, 113.0466
801.6478, 113.9988
802.1299, 115.1223
802.6120, 115.6098
803.0941, 115.6565
803.5762, 115.8982
804.0583, 116.7510
804.5405, 117.6758
805.0226, 118.5661
805.5047, 119.3745
805.9868, 119.8639
806.4689, 119.9053
806.9510, 120.0121
807.4332, 120.3801
807.9153, 120.9177
808.3974, 121.4113
808.8795, 121.8481
809.3616, 122.1559
809.8438, 122.1171
810.3259, 122.0845
810.8080, 122.4365
811.2901, 123.0454
811.7722, 123.4957
812.2543, 123.3485
812.7365, 123.4266
813.2186, 124.0312
813.7007, 124.9950
814.1828, 125.7186
814.6649, 126.1947
815.1470, 126.4934
815.6292, 126.5382
816.1113, 126.5242
816.5934, 126.8776
817.0755, 127.4975
817.5576, 128.0438
818.0397, 128.2162
818.5219, 128.4075
819.0040, 128.8128
819.4861, 129.3993
819.9682, 130.0654
820.4503, 131.0258
820.9324, 131.6646
821.4146, 131.7279
821.8967, 131.4769
822.3788, 131.6474
822.8609, 132.2026
823.3430, 132.5654
823.8251, 132.3645
824.3073, 132.0865
824.7894, 132.4228
825.2715, 133.1181
825.7536, 133.6319
826.2357, 133.5703
826.7178, 133.5138
827.2000, 133.4808
827.6821, 133.6008
828.1642, 134.2235
828.6463, 135.6029
829.1284, 136.5589
829.6105, 136.7405
830.0927, 136.5982
830.5748, 136.9508
831.0569, 137.6872
831.5390, 138.4348
832.0211, 139.1188
832.5032, 139.7027
832.9854, 140.2036
833.4675, 140.5737
833.9496, 140.7264
834.4317, 140.0205
834.9138, 140.0196
835.3959, 141.2326
835.8781, 142.7992
836.3602, 143.1798
836.8423, 142.3759
837.3244, 142.4385
837.8065, 143.9783
838.2886, 145.7372
838.7708, 146.1013
839.2529, 145.7152
839.7350, 145.6763
840.2171, 146.5784
840.6992, 147.2540
841.1813, 147.1120
841.6635, 146.6752
842.1456, 146.4860
842.6277, 146.5937
843.1098, 146.8452
843.5919, 147.3007
844.0740, 147.7187
844.5562, 147.7684
845.0383, 147.5463
845.5204, 147.3611
846.0025, 147.2859
846.4846, 147.0719
846.9667, 146.3208
847.4489, 145.4744
847.9310, 145.0061
848.4131, 145.2492
848.8952, 145.1113
849.3773, 144.4275
849.8594, 143.5545
850.3416, 142.6652
850.8237, 141.7677
851.3058, 141.3845
851.7879, 141.5806
852.2700, 141.4984
852.7521, 140.0426
853.2343, 138.1111
853.7164, 136.7929
854.1985, 136.2309
854.6806, 135.6808
855.1627, 134.8676
855.6448, 134.0333
856.1270, 133.3484
856.6091, 132.8180
857.0912, 131.9333
857.5733, 130.6245
858.0554, 129.3904
858.5375, 128.6855
859.0197, 128.2394
859.5018, 127.4141
859.9839, 126.2616
860.4660, 125.1074
860.9481, 124.0900
861.4302, 123.1599
861.9124, 122.2577
862.3945, 121.4070
862.8766, 120.7442
863.3587, 120.4461
863.8408, 119.9432
864.3229, 118.9712
864.8051, 117.7108
865.2872, 116.6861
865.7693, 115.8783
866.2514, 115.2287
866.7335, 114.8166
867.2156, 114.4510
867.6978, 114.0873
868.1799, 113.6593
868.6620, 113.0070
869.1441, 111.8310
869.6262, 110.7608
870.1083, 109.7948
870.5905, 109.0318
871.0726, 108.8388
871.5547, 109.1900
872.0368, 109.1304
872.5189, 108.3333
873.0010, 107.2990
873.4832, 106.5007
873.9653, 105.8786
874.4474, 105.3487
874.9295, 104.9755
875.4116, 104.5285
875.8937, 103.9699
876.3759, 103.2981
876.8580, 102.4402
877.3401, 101.2975
877.8222, 100.6040
878.3043, 100.5010
878.7864, 100.4366
879.2686, 99.67710
879.7507, 98.57927
880.2328, 97.81049
880.7149, 97.49087
881.1970, 97.24804
881.6791, 96.94794
882.1613, 96.62300
882.6434, 96.28815
883.1255, 95.94213
883.6076, 95.63084
884.0897, 95.38734
884.5718, 95.07605
885.0540, 94.49507
885.5361, 93.78076
886.0182, 93.48167
886.5003, 93.53732
886.9824, 93.46996
887.4645, 92.77773
887.9467, 92.05900
888.4288, 91.70873
888.9109, 91.71375
889.3930, 91.69031
889.8751, 91.70900
890.3572, 91.49401
890.8394, 90.83358
891.3215, 89.97859
891.8036, 89.74674
892.2857, 90.02407
892.7678, 90.17592
893.2499, 89.80787
893.7321, 89.35352
894.2142, 88.34911
894.6963, 89.08833
895.1784, 89.45753
895.6605, 89.47662
896.1426, 88.09690
896.6248, 88.52341
897.1069, 88.22610
897.5890, 87.89908
898.0711, 88.57984
898.5532, 87.40356
899.0353, 88.06836
899.5175, 87.99820
899.9996, 88.26443
900.4817, 87.80231
900.9638, 87.56515
901.4459, 88.05656
901.9280, 88.14456
902.4102, 87.59857
902.8923, 87.88618
903.3744, 86.68446
903.8565, 86.78963
904.3386, 87.45868
904.8207, 86.94934
905.3029, 87.25023
905.7850, 87.24256
906.2671, 85.83247
906.7492, 86.86131
907.2313, 86.83540
907.7134, 85.72648
908.1956, 86.67174
908.6777, 85.71212
909.1598, 85.43243
909.6419, 85.66444
910.1240, 85.36301
910.6061, 85.90261
911.0883, 84.80797
911.5704, 85.48061
912.0525, 86.62017
912.5346, 87.29830
913.0167, 87.57473
913.4988, 87.57898
913.9810, 87.19240
914.4631, 86.73061
914.9452, 86.10392
915.4273, 85.53919
915.9094, 85.46453
916.3915, 85.93851
916.8737, 86.08241
917.3558, 85.71826
917.8379, 85.25349
918.3200, 85.03503
918.8021, 85.06105
919.2842, 85.44712
919.7664, 86.36922
920.2485, 86.89804
920.7306, 86.36104
921.2127, 85.66508
921.6948, 85.33143
922.1769, 85.37288
922.6591, 85.58028
923.1412, 85.97199
923.6233, 86.34995
924.1054, 86.67443
924.5875, 86.84801
925.0696, 86.64182
925.5518, 86.12359
926.0339, 85.67173
926.5160, 85.30752
926.9981, 85.20597
927.4802, 85.59011
927.9623, 86.22668
928.4445, 86.35905
928.9266, 85.94798
929.4087, 85.51213
929.8908, 85.20031
930.3729, 84.93669
930.8550, 84.55129
931.3372, 84.15243
931.8193, 83.94476
932.3014, 84.05410
932.7835, 84.24989
933.2656, 84.51230
933.7477, 84.81596
934.2299, 85.24311
934.7120, 85.86225
935.1941, 85.81599
935.6762, 85.00186
936.1583, 84.06533
936.6404, 83.48013
937.1226, 83.20688
937.6047, 83.32555
938.0868, 83.83617
938.5689, 84.17823
939.0510, 84.11459
939.5331, 83.88868
940.0153, 83.52398
940.4974, 83.06473
940.9795, 82.79175
941.4616, 82.70207
941.9437, 82.85128
942.4258, 83.56835
942.9080, 84.19093
943.3901, 83.61375
943.8722, 82.35751
944.3543, 81.53749
944.8364, 81.93395
945.3185, 82.22644
945.8007, 82.16658
946.2828, 81.97169
946.7649, 81.97295
947.2470, 82.16158
947.7291, 82.09632
948.2112, 81.67049
948.6934, 81.34692
949.1755, 81.79537
949.6576, 82.45054
950.1397, 82.64288
950.6218, 82.18369
951.1039, 81.88075
951.5861, 81.94023
952.0682, 82.02256
952.5503, 81.95716
953.0324, 81.76878
953.5145, 81.63223
953.9966, 81.54282
954.4788, 81.43501
954.9609, 81.31389
955.4430, 81.12068
955.9251, 80.63353
956.4072, 80.04105
956.8893, 79.87058
957.3715, 80.60012
957.8536, 81.02625
958.3357, 80.88871
958.8178, 80.54380
959.2999, 80.61858
959.7820, 80.99861
960.2642, 81.15882
960.7463, 80.98587
961.2284, 80.67287
961.7105, 80.15269
962.1926, 79.69303
962.6747, 79.55747
963.1569, 79.83748
963.6390, 80.10307
964.1211, 80.37486
964.6032, 80.58152
965.0853, 80.66743
965.5674, 80.65621
966.0496, 80.55956
966.5317, 80.40826
967.0138, 80.34355
967.4959, 80.55608
967.9780, 80.75414
968.4601, 80.74385
968.9423, 80.62880
969.4244, 80.62293
969.9065, 80.70795
970.3886, 80.99944
970.8707, 81.54933
971.3528, 82.22273
971.8350, 82.94679
972.3171, 83.63866
972.7992, 84.13351
973.2813, 84.35561
973.7634, 84.61263
974.2455, 85.06817
974.7277, 85.55098
975.2098, 85.95622
975.6919, 86.28295
976.1740, 86.49454
976.6561, 86.57024
977.1382, 86.97961
977.6204, 88.22025
978.1025, 89.81359
978.5846, 91.27750
979.0667, 92.61420
979.5488, 93.87721
980.0309, 94.93018
980.5131, 96.06547
980.9952, 97.28548
981.4773, 98.64745
981.9594, 100.3096
982.4415, 102.2262
982.9236, 104.1004
983.4058, 105.8511
983.8879, 107.5547
984.3700, 109.0626
984.8521, 110.6852
985.3342, 112.6897
985.8163, 115.1300
986.2985, 117.9893
986.7806, 121.3252
987.2627, 124.9578
987.7448, 128.8632
988.2269, 133.0020
988.7090, 137.1603
989.1912, 141.4181
989.6733, 146.1055
990.1554, 151.3870
990.6375, 157.1889
991.1196, 163.3262
991.6017, 169.9528
992.0839, 177.2309
992.5660, 185.2461
993.0481, 193.4519
993.5302, 201.7118
994.0123, 210.6090
994.4944, 221.0772
994.9766, 232.5137
995.4587, 243.8654
995.9408, 254.8479
996.4229, 266.6564
996.9050, 279.6096
997.3871, 293.6613
997.8693, 308.7698
998.3514, 324.9273
998.8335, 341.1300
999.3156, 357.3697
999.7977, 374.9300
1000.280, 394.8031
1000.762, 415.3043
1001.244, 434.3153
1001.726, 453.0034
1002.208, 473.5011
1002.690, 497.7631
1003.173, 521.2878
1003.655, 543.9540
1004.137, 565.5324
1004.619, 586.2492
1005.101, 605.5836
1005.583, 620.9481
1006.065, 632.3529
1006.547, 639.3078
1007.029, 640.5586
1007.512, 638.2905
1007.994, 634.3252
1008.476, 628.0165
1008.958, 615.4885
1009.440, 596.2869
1009.922, 573.6179
1010.404, 548.4350
1010.886, 520.3742
1011.369, 486.5814
1011.851, 449.9364
1012.333, 414.9872
1012.815, 381.7533
1013.297, 352.1245
1013.779, 325.9299
1014.261, 303.3300
1014.743, 284.8497
1015.225, 270.2540
1015.708, 258.2403
1016.190, 248.7229
1016.672, 240.2837
1017.154, 231.9732
1017.636, 224.5391
1018.118, 218.8222
1018.600, 214.4931
1019.082, 210.3212
1019.565, 206.3325
1020.047, 202.2888
1020.529, 198.1371
1021.011, 193.9197
1021.493, 189.4581
1021.975, 184.9666
1022.457, 180.9606
1022.939, 177.5752
1023.421, 174.2252
1023.904, 170.5827
1024.386, 166.9911
1024.868, 163.6172
1025.350, 160.4210
1025.832, 156.9562
1026.314, 153.2294
1026.796, 149.6429
1027.278, 146.3683
1027.760, 143.3267
1028.243, 140.4174
1028.725, 137.6820
1029.207, 135.2138
1029.689, 132.9893
1030.171, 131.1691
1030.653, 129.9301
1031.135, 128.6984
1031.617, 126.6802
1032.100, 124.2604
1032.582, 122.4806
1033.064, 121.3625
1033.546, 120.5082
1034.028, 119.7761
1034.510, 119.1689
1034.992, 118.8469
1035.474, 118.6205
1035.957, 117.8636
1036.439, 116.5207
1036.921, 115.4904
1037.403, 115.0245
1037.885, 114.7725
1038.367, 114.3356
1038.849, 113.8849
1039.331, 113.7046
1039.813, 113.9789
1040.296, 113.8704
1040.778, 113.1136
1041.260, 112.4276
1041.742, 112.2701
1042.224, 112.4669
1042.706, 112.4643
1043.188, 112.2945
1043.670, 112.0845
1044.152, 111.9370
1044.635, 111.7123
1045.117, 111.0716
1045.599, 110.4830
1046.081, 110.6594
1046.563, 111.7604
1047.045, 112.2908
1047.527, 112.1157
1048.009, 111.8565
1048.492, 111.9430
1048.974, 112.3198
1049.456, 113.1220
1049.938, 114.2812
1050.420, 114.9543
1050.902, 114.8033
1051.384, 114.7129
1051.866, 114.8744
1052.349, 115.2472
1052.831, 115.7507
1053.313, 116.4011
1053.795, 117.3411
1054.277, 118.7498
1054.759, 119.8034
1055.241, 119.7350
1055.723, 119.5070
1056.205, 119.6930
1056.688, 120.2896
1057.170, 121.3556
1057.652, 122.8949
1058.134, 124.1113
1058.616, 124.2689
1059.098, 124.2845
1059.580, 125.0268
1060.062, 126.2365
1060.544, 127.4287
1061.027, 128.4367
1061.509, 129.6453
1061.991, 131.0980
1062.473, 132.6550
1062.955, 134.1835
1063.437, 135.7097
1063.919, 137.4065
1064.401, 139.2141
1064.884, 140.7061
1065.366, 141.1787
1065.848, 141.9139
1066.330, 143.3727
1066.812, 145.2644
1067.294, 146.9420
1067.776, 148.4237
1068.258, 150.0128
1068.740, 151.7387
1069.223, 153.7137
1069.705, 156.1988
1070.187, 158.8640
1070.669, 161.4837
1071.151, 164.0551
1071.633, 166.4458
1072.115, 168.5858
1072.597, 171.0068
1073.079, 174.0638
1073.562, 177.3650
1074.044, 180.3342
1074.526, 183.1256
1075.008, 186.0761
1075.490, 189.0333
1075.972, 192.6102
1076.454, 196.9335
1076.936, 201.6615
1077.419, 206.7433
1077.901, 212.0446
1078.383, 216.7927
1078.865, 221.1547
1079.347, 226.0442
1079.829, 231.9481
1080.311, 238.5224
1080.793, 245.6093
1081.275, 253.2927
1081.758, 261.8677
1082.240, 271.4508
1082.722, 280.9230
1083.204, 290.1461
1083.686, 299.5772
1084.168, 309.3888
1084.650, 320.0459
1085.132, 332.2618
1085.615, 346.0393
1086.097, 359.7044
1086.579, 372.8775
1087.061, 387.0001
1087.543, 402.3493
1088.025, 418.7439
1088.507, 435.5102
1088.989, 452.8743
1089.471, 471.3341
1089.953, 491.2396
1090.436, 511.3566
1090.918, 531.2306
1091.400, 551.5687
1091.882, 572.9326
1092.364, 595.2059
1092.846, 618.3102
1093.328, 641.8473
1093.810, 664.8983
1094.293, 687.3784
1094.775, 708.7649
1095.257, 728.5377
1095.739, 747.4543
1096.221, 766.7531
1096.703, 786.9236
1097.185, 803.2128
1097.667, 815.5391
1098.150, 826.5618
1098.632, 838.1428
1099.114, 849.1908
1099.596, 859.2152
1100.078, 867.9597
1100.560, 874.8784
1101.042, 880.1168
1101.524, 883.2326
1102.006, 884.2205
1102.489, 882.8485
1102.971, 878.5678
1103.453, 871.9069
1103.935, 864.1483
1104.417, 855.2812
1104.899, 843.0089
1105.381, 825.5374
1105.863, 806.2633
1106.345, 786.3828
1106.828, 764.7894
1107.310, 738.9075
1107.792, 709.5938
1108.274, 680.0019
1108.756, 650.3360
1109.238, 621.4039
1109.720, 594.4922
1110.202, 567.8799
1110.685, 540.8206
1111.167, 513.3240
1111.649, 486.8323
1112.131, 461.5197
1112.613, 437.9639
1113.095, 416.9718
1113.577, 397.8050
1114.059, 380.6476
1114.542, 365.0262
1115.024, 350.3244
1115.506, 336.2588
1115.988, 323.5448
1116.470, 312.1710
1116.952, 302.2569
1117.434, 294.5989
1117.916, 287.8618
1118.398, 280.5352
1118.880, 272.9854
1119.363, 266.1904
1119.845, 260.3994
1120.327, 254.8093
1120.809, 249.2567
1121.291, 244.4081
1121.773, 241.3844
1122.255, 239.3364
1122.737, 236.7945
1123.220, 233.7578
1123.702, 230.8135
1124.184, 227.9529
1124.666, 225.5736
1125.148, 223.8347
1125.630, 222.4864
1126.112, 221.1708
1126.594, 219.9120
1127.077, 218.7260
1127.559, 217.6038
1128.041, 216.8321
1128.523, 216.6228
1129.005, 216.7312
1129.487, 217.0325
1129.969, 217.5418
1130.451, 218.2435
1130.933, 219.1779
1131.416, 220.7283
1131.898, 223.1931
1132.380, 225.5132
1132.862, 226.5922
1133.344, 227.5707
1133.826, 229.4479
1134.308, 232.1521
1134.790, 234.3398
1135.272, 236.0010
1135.755, 238.4782
1136.237, 242.5959
1136.719, 247.3486
1137.201, 251.8758
1137.683, 256.3911
1138.165, 261.1564
1138.647, 266.1436
1139.129, 271.5755
1139.612, 277.5300
1140.094, 283.3036
1140.576, 287.8748
1141.058, 292.4109
1141.540, 298.5199
1142.022, 305.6919
1142.504, 312.8941
1142.986, 319.8363
1143.469, 326.9708
1143.951, 334.3990
1144.433, 341.9155
1144.915, 349.3323
1145.397, 356.8371
1145.879, 365.1483
1146.361, 373.9756
1146.843, 382.0741
1147.325, 388.8050
1147.807, 395.2044
1148.290, 401.4196
1148.772, 407.2917
1149.254, 412.6021
1149.736, 417.4598
1150.218, 422.6913
1150.700, 428.2419
1151.182, 432.3490
1151.664, 433.1262
1152.147, 433.7541
1152.629, 435.4066
1153.111, 437.1318
1153.593, 437.4052
1154.075, 436.2066
1154.557, 433.0795
1155.039, 427.8535
1155.521, 422.6968
1156.004, 420.0442
1156.486, 416.2957
1156.968, 409.4738
1157.450, 400.6048
1157.932, 392.6191
1158.414, 385.3885
1158.896, 378.0820
1159.378, 370.5981
1159.860, 362.5054
1160.343, 352.6898
1160.825, 342.9281
1161.307, 334.6311
1161.789, 327.5015
1162.271, 318.8210
1162.753, 308.6881
1163.235, 299.4589
1163.717, 292.1490
1164.199, 285.4826
1164.682, 278.8967
1165.164, 272.3014
1165.646, 265.5793
1166.128, 258.7027
1166.610, 252.2625
1167.092, 246.3167
1167.574, 240.5261
1168.056, 234.6843
1168.539, 229.1115
1169.021, 224.2699
1169.503, 219.7504
1169.985, 214.8797
1170.467, 209.4310
1170.949, 204.8157
1171.431, 201.1636
1171.913, 197.5168
1172.396, 192.8616
1172.878, 188.3418
1173.360, 185.5657
1173.842, 183.6700
1174.324, 180.8414
1174.806, 176.4818
1175.288, 172.4422
1175.770, 168.7400
1176.252, 165.5609
1176.734, 163.3903
1177.217, 161.5659
1177.699, 159.2298
1178.181, 156.5756
1178.663, 154.3201
1179.145, 152.9292
1179.627, 150.9230
1180.109, 148.0554
1180.591, 145.1621
1181.074, 143.1726
1181.556, 141.6223
1182.038, 139.8842
1182.520, 137.9675
1183.002, 136.0883
1183.484, 134.2527
1183.966, 132.4756
1184.448, 130.7932
1184.931, 129.0766
1185.413, 126.9562
1185.895, 124.7878
1186.377, 123.2283
1186.859, 122.2433
1187.341, 121.2582
1187.823, 120.3226
1188.305, 118.9852
1188.787, 116.9955
1189.270, 114.9863
1189.752, 113.9893
1190.234, 113.5130
1190.716, 112.6426
1191.198, 111.3001
1191.680, 110.1993
1192.162, 109.7425
1192.644, 109.0275
1193.126, 107.7381
1193.609, 106.2986
1194.091, 105.5045
1194.573, 105.0318
1195.055, 104.2675
1195.537, 103.1072
1196.019, 101.9939
1196.501, 101.0427
1196.983, 100.0823
1197.466, 98.96572
1197.948, 97.95106
1198.430, 97.72203
1198.912, 97.86772
1199.394, 97.50427
1199.876, 96.38695
1200.358, 95.40600
1200.840, 94.75629
1201.323, 94.24318
1201.805, 93.86491
1202.287, 93.48989
1202.769, 92.73769
1203.251, 91.80630
1203.733, 91.17009
1204.215, 91.02535
1204.697, 89.87479
1205.179, 90.39978
1205.661, 90.55467
1206.144, 90.35880
1206.626, 88.76483
1207.108, 88.97707
1207.590, 88.46550
1208.072, 87.92417
1208.554, 88.39071
1209.036, 87.00011
1209.518, 87.45067
1210.001, 87.16557
1210.483, 87.21748
1210.965, 86.54111
1211.447, 86.08964
1211.929, 86.36681
1212.411, 86.24049
1212.893, 85.48029
1213.375, 85.55357
1213.858, 84.13689
1214.340, 84.02783
1214.822, 84.48256
1215.304, 83.75898
1215.786, 83.84557
1216.268, 83.62366
1216.750, 81.99924
1217.232, 82.81377
1217.714, 82.57362
1218.197, 81.24972
1218.679, 81.98077
1219.161, 80.80682
1219.643, 80.31289
1220.125, 80.33057
1220.607, 79.81483
1221.089, 80.14018
1221.571, 79.65524
1222.053, 79.09800
1222.536, 78.85593
1223.018, 77.71941
1223.500, 78.24355
1223.982, 77.63326
1224.464, 77.58694
1224.946, 78.17342
1225.428, 78.33070
1225.910, 77.48533
1226.393, 76.86613
1226.875, 76.54812
1227.357, 76.29238
1227.839, 75.93005
1228.321, 75.51633
1228.803, 75.12590
1229.285, 74.75408
1229.767, 74.38354
1230.250, 73.86996
1230.732, 73.70423
1231.214, 73.99549
1231.696, 74.23232
1232.178, 73.88687
1232.660, 73.35301
1233.142, 73.21192
1233.624, 73.30562
1234.106, 73.24307
1234.589, 72.82552
1235.071, 72.64938
1235.553, 72.76289
1236.035, 72.93321
1236.517, 73.10827
1236.999, 73.13757
1237.481, 72.70601
1237.963, 72.02161
1238.445, 71.56662
1238.928, 71.44591
1239.410, 71.25883
1239.892, 70.97243
1240.374, 70.77539
1240.856, 70.99437
1241.338, 71.19742
1241.820, 70.91442
1242.302, 70.34140
1242.785, 69.87226
1243.267, 69.47303
1243.749, 69.49034
1244.231, 69.95747
1244.713, 70.36452
1245.195, 70.36853
1245.677, 70.14664
1246.159, 69.53432
1246.641, 68.92020
1247.124, 69.08510
1247.606, 70.15170
1248.088, 70.43910
1248.570, 69.88522
1249.052, 69.33797
1249.534, 69.48795
1250.016, 69.67688
1250.498, 69.43349
1250.980, 69.03563
1251.463, 68.91313
1251.945, 69.05645
1252.427, 68.71383
1252.909, 67.91866
1253.391, 67.39124
1253.873, 68.00841
1254.355, 68.46922
1254.837, 67.98032
1255.320, 67.24658
1255.802, 67.09795
1256.284, 67.42359
1256.766, 67.53936
1257.248, 67.43635
1257.730, 67.26864
1258.212, 67.09876
1258.694, 66.88779
1259.177, 66.58180
1259.659, 66.29945
1260.141, 66.19471
1260.623, 66.21301
1261.105, 66.24096
1261.587, 66.23424
1262.069, 66.01828
1262.551, 65.07870
1263.033, 64.64349
1263.516, 65.04461
1263.998, 65.56308
1264.480, 65.45567
1264.962, 64.97346
1265.444, 64.54585
1265.926, 64.20669
1266.408, 64.01218
1266.890, 64.11921
1267.372, 64.09502
1267.855, 63.88038
1268.337, 63.65888
1268.819, 63.67943
1269.301, 63.72425
1269.783, 63.29232
1270.265, 62.65167
1270.747, 62.64573
1271.229, 63.76095
1271.712, 63.99879
1272.194, 63.14708
1272.676, 62.37493
1273.158, 62.94849
1273.640, 63.68105
1274.122, 63.31335
1274.604, 62.34809
1275.086, 61.81649
1275.568, 61.81139
1276.051, 61.73085
1276.533, 61.55589
1277.015, 61.43864
1277.497, 61.51296
1277.979, 61.63639
1278.461, 61.80185
1278.943, 61.91154
1279.425, 61.81221
1279.907, 61.50965
1280.390, 61.39155
1280.872, 61.43887
1281.354, 61.44344
1281.836, 61.06684
1282.318, 60.93376
1282.800, 61.51979
1283.282, 62.15444
1283.764, 62.26960
1284.247, 61.93622
1284.729, 61.29091
1285.211, 60.48877
1285.693, 60.11241
1286.175, 60.85458
1286.657, 61.36332
1287.139, 61.49563
1287.621, 61.35351
1288.104, 60.75881
1288.586, 60.08732
1289.068, 60.31447
1289.550, 61.07271
1290.032, 61.50883
1290.514, 61.18670
1290.996, 60.89902
1291.478, 60.61957
1291.960, 60.49145
1292.443, 60.76302
1292.925, 61.06724
1293.407, 60.76431
1293.889, 60.25791
1294.371, 60.33862
1294.853, 61.26963
1295.335, 61.27645
1295.817, 60.33218
1296.299, 59.52280
1296.782, 59.50325
1297.264, 59.65707
1297.746, 59.46585
1298.228, 59.26588
1298.710, 59.50391
1299.192, 60.12128
1299.674, 59.82897
1300.156, 58.81762
1300.639, 58.34123
1301.121, 59.18407
1301.603, 59.99519
1302.085, 60.14656
1302.567, 60.10113
1303.049, 60.06260
1303.531, 60.02092
##END=



