##NAMES=Natrolite
##RRUFFID=R050589
##IDEAL CHEMISTRY=Na_2_(Si_3_Al_2_)O_10_&#183;2H_2_O
##LOCALITY=Mont Saint-Hilaire, Rouville County, Quebec, Canada
##OWNER=RRUFF
##SOURCE=Bob Downs
##DESCRIPTION=White to colorless prismatic crystals associated with aegirine
##STATUS=The identification of this mineral has been confirmed by X-ray diffraction and chemical analysis
##URL=rruff.info/R050589
##MEASURED CHEMISTRY=Na_2.00_(Si_3.00_Al_2.00_)O_10_Â·2H_2_O
92.06543, 258.9182
92.54755, 257.3967
93.02966, 258.2738
93.51178, 260.7977
93.99390, 261.6920
94.47601, 260.7621
94.95813, 258.6653
95.44025, 256.3264
95.92236, 254.4823
96.40448, 253.1021
96.88660, 251.4869
97.36871, 249.3881
97.85082, 247.4847
98.33294, 246.2819
98.81506, 245.6936
99.29717, 244.9362
99.77929, 244.0629
100.2614, 243.1364
100.7435, 243.2119
101.2256, 244.9069
101.7078, 247.6917
102.1899, 250.4373
102.6720, 252.8731
103.1541, 255.2689
103.6362, 257.8118
104.1183, 260.4861
104.6005, 263.2926
105.0826, 266.3847
105.5647, 269.8708
106.0468, 272.8260
106.5289, 274.4977
107.0110, 275.8304
107.4931, 277.1605
107.9753, 278.6064
108.4574, 280.4196
108.9395, 283.1115
109.4216, 286.9177
109.9037, 291.3737
110.3858, 296.3372
110.8680, 301.8466
111.3501, 308.4231
111.8322, 316.4928
112.3143, 325.3456
112.7964, 330.3813
113.2785, 330.1753
113.7607, 328.1431
114.2428, 323.5777
114.7249, 317.5741
115.2070, 312.4636
115.6891, 309.7580
116.1712, 309.7882
116.6534, 312.2769
117.1355, 316.5050
117.6176, 323.4504
118.0997, 334.5208
118.5818, 349.9827
119.0639, 367.2178
119.5461, 385.3896
120.0282, 403.7842
120.5103, 419.4753
120.9924, 433.6234
121.4745, 444.3924
121.9566, 447.0190
122.4388, 438.7592
122.9209, 424.9047
123.4030, 408.7778
123.8851, 390.8709
124.3672, 372.6592
124.8493, 354.6119
125.3315, 336.4829
125.8136, 321.4474
126.2957, 311.4698
126.7778, 303.6921
127.2599, 297.3973
127.7420, 292.3985
128.2242, 288.5128
128.7063, 285.7156
129.1884, 284.8006
129.6705, 283.3457
130.1526, 280.4454
130.6347, 277.5974
131.1169, 275.8668
131.5990, 275.6165
132.0811, 276.5594
132.5632, 278.0895
133.0453, 280.1183
133.5274, 282.9401
134.0096, 286.6825
134.4917, 291.2145
134.9738, 296.4527
135.4559, 302.4592
135.9380, 308.9826
136.4201, 315.0477
136.9023, 320.1200
137.3844, 325.5316
137.8665, 331.9420
138.3486, 339.2025
138.8307, 346.6685
139.3128, 353.8519
139.7950, 361.0489
140.2771, 368.7631
140.7592, 377.2961
141.2413, 386.1099
141.7234, 395.2963
142.2055, 405.2572
142.6877, 413.2806
143.1698, 417.3590
143.6519, 418.7623
144.1340, 418.4519
144.6161, 416.4713
145.0982, 413.1779
145.5803, 409.3747
146.0625, 404.5575
146.5446, 400.0474
147.0267, 395.4349
147.5088, 391.4591
147.9909, 389.2552
148.4730, 389.7180
148.9552, 392.7525
149.4373, 396.2938
149.9194, 399.4556
150.4015, 404.1117
150.8836, 410.9975
151.3657, 419.8481
151.8479, 430.0180
152.3300, 440.8270
152.8121, 452.2473
153.2942, 465.2561
153.7763, 480.0372
154.2584, 495.8519
154.7406, 512.1891
155.2227, 529.0690
155.7048, 547.2351
156.1869, 567.5607
156.6690, 590.5727
157.1511, 614.4857
157.6333, 640.7433
158.1154, 667.0920
158.5975, 692.1055
159.0796, 715.5570
159.5617, 736.2428
160.0438, 752.7469
160.5260, 765.6319
161.0081, 772.4014
161.4902, 772.3428
161.9723, 765.7399
162.4544, 752.3709
162.9365, 731.0898
163.4187, 705.0455
163.9008, 677.6083
164.3829, 648.9792
164.8650, 619.9581
165.3471, 589.9515
165.8292, 559.4341
166.3113, 531.9767
166.7935, 508.5463
167.2756, 488.6738
167.7577, 471.7407
168.2398, 457.6530
168.7219, 446.0314
169.2040, 437.0584
169.6862, 431.0678
170.1683, 425.5298
170.6504, 420.1395
171.1325, 415.0735
171.6146, 410.6744
172.0967, 406.9448
172.5789, 403.2387
173.0610, 398.7527
173.5431, 393.7094
174.0252, 387.1839
174.5073, 378.3881
174.9894, 368.8034
175.4716, 359.2207
175.9537, 350.0045
176.4358, 341.2729
176.9179, 333.2690
177.4000, 325.6045
177.8821, 319.4517
178.3643, 315.0160
178.8464, 311.9341
179.3285, 309.9320
179.8106, 308.8838
180.2927, 308.7715
180.7748, 309.6084
181.2570, 311.7281
181.7391, 314.3753
182.2212, 317.7869
182.7033, 321.6330
183.1854, 325.4561
183.6675, 329.0916
184.1497, 332.4803
184.6318, 335.4931
185.1139, 339.1556
185.5960, 341.1646
186.0781, 340.5832
186.5602, 337.6911
187.0423, 333.0924
187.5245, 326.6560
188.0066, 318.9974
188.4887, 311.6406
188.9708, 304.5146
189.4529, 297.8680
189.9350, 291.8177
190.4172, 286.3878
190.8993, 281.5704
191.3814, 277.3167
191.8635, 273.8167
192.3456, 271.1799
192.8277, 269.4751
193.3099, 268.5645
193.7920, 268.4962
194.2741, 269.3686
194.7562, 270.3539
195.2383, 270.5789
195.7204, 271.0166
196.2026, 272.6467
196.6847, 275.8712
197.1668, 279.9424
197.6489, 283.6800
198.1310, 286.7965
198.6131, 290.4341
199.0953, 295.0739
199.5774, 300.2691
200.0595, 305.5886
200.5416, 310.8751
201.0237, 316.3233
201.5058, 322.3734
201.9880, 329.4334
202.4701, 336.4251
202.9522, 343.4935
203.4343, 350.2383
203.9164, 356.4837
204.3985, 362.1799
204.8807, 366.8844
205.3628, 369.2432
205.8449, 368.9550
206.3270, 366.1913
206.8091, 360.4039
207.2912, 352.5355
207.7733, 343.4339
208.2555, 333.5357
208.7376, 322.9025
209.2197, 311.7523
209.7018, 298.2235
210.1839, 286.2991
210.6660, 276.9502
211.1482, 269.3698
211.6303, 262.4983
212.1124, 255.8017
212.5945, 249.3746
213.0766, 243.4611
213.5587, 237.9695
214.0409, 233.0353
214.5230, 228.8504
215.0051, 225.2246
215.4872, 221.7655
215.9693, 218.2580
216.4514, 214.8167
216.9336, 211.9505
217.4157, 209.8156
217.8978, 207.8748
218.3799, 205.9279
218.8620, 204.0375
219.3441, 202.3946
219.8263, 201.2070
220.3084, 200.2092
220.7905, 198.6843
221.2726, 196.4291
221.7547, 194.0704
222.2368, 191.8131
222.7190, 189.6768
223.2011, 187.7582
223.6832, 186.1568
224.1653, 184.7664
224.6474, 183.3535
225.1295, 181.9245
225.6117, 180.4586
226.0938, 178.7871
226.5759, 176.9695
227.0580, 175.5759
227.5401, 175.0394
228.0222, 174.8919
228.5043, 174.4695
228.9865, 173.6648
229.4686, 172.9041
229.9507, 172.6350
230.4328, 172.8532
230.9149, 172.9483
231.3970, 172.5424
231.8792, 172.0836
232.3613, 171.9353
232.8434, 172.1464
233.3255, 172.5863
233.8076, 173.1860
234.2897, 173.9616
234.7719, 174.7151
235.2540, 175.4260
235.7361, 176.0850
236.2182, 176.5406
236.7003, 176.7993
237.1824, 177.2862
237.6646, 178.7102
238.1467, 181.3687
238.6288, 183.3192
239.1109, 183.8726
239.5930, 183.9173
240.0751, 183.8832
240.5573, 183.8188
241.0394, 183.5011
241.5215, 182.6564
242.0036, 181.2090
242.4857, 179.5039
242.9678, 177.2832
243.4500, 175.0286
243.9321, 172.9170
244.4142, 171.0002
244.8963, 169.2785
245.3784, 167.7708
245.8605, 166.5184
246.3427, 165.3492
246.8248, 164.1811
247.3069, 163.1596
247.7890, 162.4462
248.2711, 161.9925
248.7532, 161.5720
249.2354, 160.9057
249.7175, 159.8735
250.1996, 159.1335
250.6817, 158.8284
251.1638, 158.6484
251.6459, 158.4264
252.1281, 158.1811
252.6102, 158.0663
253.0923, 158.2634
253.5744, 158.8592
254.0565, 159.2119
254.5386, 159.1505
255.0208, 159.0493
255.5029, 159.0866
255.9850, 159.2436
256.4671, 159.3795
256.9492, 159.3510
257.4313, 159.1224
257.9135, 159.1617
258.3956, 159.5850
258.8777, 160.0955
259.3598, 160.6121
259.8419, 161.1153
260.3240, 161.6064
260.8062, 162.0996
261.2883, 162.5943
261.7704, 162.9011
262.2525, 162.9473
262.7346, 162.9335
263.2167, 162.7545
263.6989, 162.5564
264.1810, 162.7645
264.6631, 163.7490
265.1452, 165.3589
265.6273, 166.2298
266.1094, 165.7264
266.5916, 165.3278
267.0737, 165.6175
267.5558, 166.4191
268.0379, 167.2898
268.5200, 167.9900
269.0021, 168.5813
269.4843, 169.3399
269.9664, 170.6118
270.4485, 171.6040
270.9306, 171.8875
271.4127, 171.7100
271.8948, 171.6647
272.3770, 172.0950
272.8591, 172.6542
273.3412, 172.3117
273.8233, 170.6001
274.3054, 169.1696
274.7875, 168.7144
275.2697, 168.8643
275.7518, 168.9825
276.2339, 168.8876
276.7160, 168.5668
277.1981, 167.8873
277.6802, 166.7670
278.1623, 165.7765
278.6444, 165.0598
279.1266, 164.5752
279.6087, 164.3376
280.0908, 164.4145
280.5729, 164.4984
281.0550, 164.0020
281.5371, 162.9048
282.0193, 162.1747
282.5014, 162.1514
282.9835, 162.6065
283.4656, 163.3130
283.9477, 164.2827
284.4298, 165.2206
284.9120, 165.6935
285.3941, 165.7784
285.8762, 166.0530
286.3583, 166.8300
286.8404, 167.7680
287.3225, 168.3896
287.8047, 168.6171
288.2868, 168.8735
288.7689, 169.5813
289.2510, 170.6121
289.7331, 171.5228
290.2152, 172.2816
290.6974, 172.8605
291.1795, 173.1524
291.6616, 173.1473
292.1437, 173.1420
292.6258, 173.3377
293.1079, 173.6631
293.5901, 173.9200
294.0722, 173.8728
294.5543, 173.9944
295.0364, 174.6995
295.5185, 175.9744
296.0006, 177.5306
296.4828, 179.3188
296.9649, 181.2848
297.4470, 183.3363
297.9291, 185.5625
298.4112, 187.6569
298.8933, 189.3669
299.3755, 190.7303
299.8576, 191.8988
300.3397, 192.4359
300.8218, 193.3804
301.3039, 196.2804
301.7860, 201.4105
302.2682, 206.3254
302.7503, 209.6164
303.2324, 211.6071
303.7145, 213.5028
304.1966, 215.6623
304.6787, 217.6089
305.1609, 219.2680
305.6430, 220.6058
306.1251, 220.4737
306.6072, 217.9693
307.0893, 213.6990
307.5714, 208.8366
308.0536, 203.3877
308.5357, 197.7024
309.0178, 191.7596
309.4999, 185.7704
309.9820, 180.4372
310.4641, 176.0484
310.9463, 172.4346
311.4284, 169.5200
311.9105, 167.3940
312.3926, 165.5161
312.8747, 163.4563
313.3568, 161.4433
313.8390, 159.9499
314.3211, 159.3109
314.8032, 158.9712
315.2853, 158.3147
315.7674, 157.3340
316.2495, 156.5025
316.7317, 156.1341
317.2138, 155.9905
317.6959, 155.6523
318.1780, 154.9601
318.6601, 154.4133
319.1422, 154.5112
319.6243, 155.1574
320.1064, 155.6516
320.5886, 155.6372
321.0707, 155.5477
321.5528, 155.9939
322.0349, 157.0203
322.5170, 157.9411
322.9991, 158.3692
323.4813, 158.4102
323.9634, 158.2958
324.4455, 157.9373
324.9276, 157.7168
325.4097, 158.1382
325.8918, 159.0779
326.3740, 159.9634
326.8561, 160.4654
327.3382, 160.8369
327.8203, 161.5029
328.3024, 162.5290
328.7845, 163.6887
329.2667, 165.0279
329.7488, 166.3723
330.2309, 167.2528
330.7130, 167.3706
331.1951, 167.1315
331.6772, 166.8885
332.1594, 166.6408
332.6415, 166.3682
333.1236, 166.0691
333.6057, 165.7254
334.0878, 165.3161
334.5699, 164.8384
335.0521, 164.3020
335.5342, 163.6174
336.0163, 162.8499
336.4984, 162.2835
336.9805, 162.0781
337.4626, 162.0389
337.9448, 161.8152
338.4269, 161.3511
338.9090, 161.0730
339.3911, 161.3588
339.8732, 161.9088
340.3553, 162.1121
340.8375, 161.7985
341.3196, 161.3351
341.8017, 161.0949
342.2838, 161.0592
342.7659, 161.1267
343.2480, 161.3105
343.7302, 161.5702
344.2123, 161.7884
344.6944, 161.9608
345.1765, 162.4029
345.6586, 163.5367
346.1407, 165.1764
346.6229, 166.1815
347.1050, 165.8680
347.5871, 165.5145
348.0692, 166.0107
348.5513, 167.1573
349.0334, 168.1732
349.5156, 168.6288
349.9977, 168.7499
350.4798, 169.1512
350.9619, 169.9090
351.4440, 170.7243
351.9261, 171.4804
352.4083, 172.2329
352.8904, 173.0542
353.3725, 173.9548
353.8546, 174.9947
354.3367, 176.3248
354.8188, 178.0514
355.3010, 179.6009
355.7831, 180.9219
356.2652, 182.0431
356.7473, 183.0117
357.2294, 183.8255
357.7115, 184.4352
358.1937, 184.8266
358.6758, 184.9821
359.1579, 184.7011
359.6400, 183.8581
360.1221, 182.7522
360.6042, 181.5839
361.0863, 180.2769
361.5685, 178.5858
362.0506, 176.3262
362.5327, 173.6470
363.0148, 171.1543
363.4969, 168.8983
363.9790, 166.7572
364.4612, 164.7773
364.9433, 162.8756
365.4254, 160.9339
365.9075, 158.9176
366.3896, 156.9771
366.8717, 155.3469
367.3539, 154.0709
367.8360, 153.0783
368.3181, 152.5570
368.8002, 152.1551
369.2823, 151.7168
369.7644, 151.1859
370.2466, 150.4766
370.7287, 149.4621
371.2108, 148.1059
371.6929, 147.0977
372.1750, 146.6647
372.6571, 146.3042
373.1393, 145.8936
373.6214, 145.4470
374.1035, 145.0051
374.5856, 144.5913
375.0677, 144.2023
375.5498, 143.8178
376.0320, 143.3403
376.5141, 143.0263
376.9962, 143.0862
377.4783, 143.1946
377.9604, 143.0065
378.4425, 142.4631
378.9247, 141.8557
379.4068, 141.6083
379.8889, 141.8556
380.3710, 141.9944
380.8531, 142.0411
381.3352, 141.9644
381.8174, 141.7106
382.2995, 141.3118
382.7816, 140.8234
383.2637, 140.1931
383.7458, 139.5082
384.2279, 139.4506
384.7101, 140.5914
385.1922, 141.4960
385.6743, 141.5764
386.1564, 141.2687
386.6385, 141.1088
387.1206, 141.3168
387.6028, 141.6796
388.0849, 141.8298
388.5670, 141.6977
389.0491, 141.6886
389.5312, 142.1600
390.0133, 142.5930
390.4955, 142.4949
390.9776, 141.8835
391.4597, 141.4262
391.9418, 141.8053
392.4239, 142.8554
392.9060, 143.5684
393.3882, 143.7377
393.8703, 143.8034
394.3524, 144.0328
394.8345, 144.3778
395.3166, 144.7473
395.7987, 145.1520
396.2809, 145.5284
396.7630, 145.7965
397.2451, 145.9587
397.7272, 145.9810
398.2093, 145.6052
398.6914, 145.2401
399.1736, 145.5443
399.6557, 146.7176
400.1378, 147.9819
400.6199, 149.0363
401.1020, 149.8335
401.5841, 150.1328
402.0662, 149.7445
402.5483, 149.2554
403.0305, 149.3547
403.5126, 149.9994
403.9947, 150.8489
404.4768, 152.0368
404.9589, 153.2766
405.4410, 154.2795
405.9232, 155.0426
406.4053, 155.7207
406.8874, 156.3328
407.3695, 156.9638
407.8516, 158.0546
408.3337, 160.0997
408.8159, 161.9595
409.2980, 163.2578
409.7801, 164.1555
410.2622, 164.8938
410.7443, 165.5605
411.2264, 166.1365
411.7086, 166.6125
412.1907, 167.0663
412.6728, 167.1601
413.1549, 166.5044
413.6370, 165.8095
414.1191, 165.5224
414.6013, 165.6584
415.0834, 166.0229
415.5655, 166.4658
416.0476, 166.9927
416.5297, 167.6796
417.0118, 168.8806
417.4940, 169.8309
417.9761, 169.8043
418.4582, 169.6783
418.9403, 170.6703
419.4224, 173.2255
419.9045, 176.5247
420.3867, 179.0556
420.8688, 180.1939
421.3509, 182.2149
421.8330, 185.4785
422.3151, 189.3499
422.7972, 193.6372
423.2794, 198.2456
423.7615, 203.0809
424.2436, 208.1425
424.7257, 213.3716
425.2078, 218.4261
425.6899, 223.2218
426.1721, 227.9718
426.6542, 232.5299
427.1363, 237.1963
427.6184, 242.3721
428.1005, 248.2102
428.5826, 254.4515
429.0648, 260.6566
429.5469, 266.8521
430.0290, 273.6112
430.5111, 281.0721
430.9932, 289.1338
431.4753, 297.4749
431.9575, 306.1448
432.4396, 315.5692
432.9217, 325.7523
433.4038, 336.8329
433.8859, 349.2088
434.3680, 362.8904
434.8502, 377.4330
435.3323, 392.5264
435.8144, 408.3808
436.2965, 425.3703
436.7786, 443.8466
437.2607, 462.9293
437.7429, 482.6262
438.2250, 502.4929
438.7071, 522.0255
439.1892, 541.3372
439.6713, 558.8051
440.1534, 572.3517
440.6356, 582.1217
441.1177, 586.1025
441.5998, 583.6401
442.0819, 575.7610
442.5640, 562.2299
443.0461, 543.7310
443.5282, 521.7003
444.0103, 496.8287
444.4925, 469.7256
444.9746, 444.0361
445.4567, 419.9605
445.9388, 397.1948
446.4209, 375.7369
446.9030, 355.7240
447.3852, 336.9779
447.8673, 319.6096
448.3494, 303.8537
448.8315, 290.1778
449.3136, 278.9343
449.7957, 268.0349
450.2779, 256.8767
450.7600, 246.6122
451.2421, 237.6935
451.7242, 229.9673
452.2063, 223.1098
452.6884, 217.0201
453.1706, 211.6169
453.6527, 206.8139
454.1348, 202.6472
454.6169, 199.0374
455.0990, 196.4381
455.5811, 194.0950
456.0633, 191.4737
456.5454, 188.5416
457.0275, 185.6797
457.5096, 183.0979
457.9917, 180.8023
458.4738, 178.8014
458.9560, 177.1397
459.4381, 175.6398
459.9202, 174.1021
460.4023, 172.6597
460.8844, 171.6296
461.3665, 171.3691
461.8487, 171.1023
462.3308, 170.1021
462.8129, 168.5834
463.2950, 167.2771
463.7771, 166.3866
464.2592, 165.8576
464.7414, 165.7007
465.2235, 165.9785
465.7056, 166.1427
466.1877, 166.0214
466.6698, 165.8496
467.1519, 165.7995
467.6341, 165.8741
468.1162, 166.0195
468.5983, 166.2106
469.0804, 166.4332
469.5625, 166.6124
470.0446, 166.4166
470.5268, 166.6110
471.0089, 167.4120
471.4910, 168.5390
471.9731, 169.7627
472.4552, 171.0218
472.9373, 172.3542
473.4195, 173.8544
473.9016, 175.5586
474.3837, 176.8983
474.8658, 177.3827
475.3479, 178.0278
475.8300, 179.0390
476.3122, 180.4002
476.7943, 182.1725
477.2764, 184.4248
477.7585, 186.7750
478.2406, 188.6716
478.7227, 190.0823
479.2049, 191.2430
479.6870, 191.9872
480.1691, 192.6988
480.6512, 193.7108
481.1333, 194.9553
481.6154, 196.0993
482.0976, 196.9995
482.5797, 197.6988
483.0618, 198.2574
483.5439, 198.6761
484.0260, 198.9748
484.5081, 199.1749
484.9902, 199.2450
485.4724, 199.1338
485.9545, 198.8091
486.4366, 198.4176
486.9187, 198.0879
487.4008, 197.6820
487.8829, 196.9277
488.3651, 195.8071
488.8472, 194.6983
489.3293, 193.9497
489.8114, 193.5535
490.2935, 193.0959
490.7756, 192.4667
491.2578, 191.9162
491.7399, 191.6687
492.2220, 191.4861
492.7041, 191.0203
493.1862, 190.1657
493.6683, 189.1450
494.1505, 188.3304
494.6326, 187.8885
495.1147, 187.0047
495.5968, 184.9429
496.0789, 183.1639
496.5610, 182.5510
497.0432, 182.5752
497.5253, 182.1077
498.0074, 180.4641
498.4895, 178.3753
498.9716, 177.2438
499.4537, 177.2021
499.9359, 177.2851
500.4180, 177.3658
500.9001, 177.4090
501.3822, 177.3560
501.8643, 177.2208
502.3464, 177.1365
502.8286, 177.0426
503.3107, 177.0921
503.7928, 177.6113
504.2749, 178.6079
504.7570, 179.5623
505.2391, 180.0587
505.7213, 180.4368
506.2034, 181.6252
506.6855, 183.9969
507.1676, 186.1928
507.6497, 187.6216
508.1318, 188.8141
508.6140, 190.2526
509.0961, 192.0462
509.5782, 194.2970
510.0603, 197.1831
510.5424, 200.6457
511.0245, 203.4505
511.5067, 204.3810
511.9888, 206.1225
512.4709, 209.3976
512.9530, 213.5742
513.4351, 218.0323
513.9172, 222.5869
514.3994, 227.2972
514.8815, 232.2149
515.3636, 237.3537
515.8457, 242.7945
516.3278, 248.7928
516.8099, 254.7979
517.2921, 260.5858
517.7742, 266.2154
518.2563, 271.7262
518.7384, 277.1005
519.2205, 282.5578
519.7026, 288.3505
520.1848, 294.4578
520.6669, 300.6912
521.1490, 306.9261
521.6311, 313.4457
522.1132, 320.4146
522.5953, 327.8297
523.0775, 335.8510
523.5596, 343.9898
524.0417, 353.1575
524.5238, 364.0993
525.0059, 376.5421
525.4880, 389.7825
525.9702, 403.4597
526.4523, 417.9503
526.9344, 434.1443
527.4165, 452.3812
527.8986, 471.4134
528.3807, 491.6564
528.8629, 512.3317
529.3450, 533.6329
529.8271, 554.9369
530.3092, 575.3656
530.7913, 594.5588
531.2734, 611.7955
531.7556, 625.8901
532.2377, 637.9100
532.7198, 643.5745
533.2019, 641.6464
533.6840, 633.3958
534.1661, 618.1113
534.6483, 596.5127
535.1304, 571.2364
535.6125, 542.5467
536.0946, 511.7817
536.5767, 480.3423
537.0588, 448.0987
537.5410, 417.8471
538.0231, 390.9122
538.5052, 366.5549
538.9873, 343.4673
539.4694, 321.2694
539.9515, 301.8354
540.4337, 286.6836
540.9158, 273.7587
541.3979, 260.9071
541.8800, 248.2122
542.3621, 237.0171
542.8442, 228.3060
543.3264, 221.5200
543.8085, 214.7427
544.2906, 207.4962
544.7726, 201.0273
545.2548, 195.5181
545.7369, 190.6621
546.2190, 186.3555
546.7011, 182.5228
547.1832, 179.0541
547.6653, 175.9433
548.1475, 173.1158
548.6296, 170.3007
549.1117, 167.4068
549.5938, 164.7783
550.0759, 162.6328
550.5580, 160.7240
551.0402, 158.8818
551.5223, 157.0948
552.0044, 155.4100
552.4865, 153.8641
552.9686, 152.4272
553.4507, 151.0488
553.9329, 149.7268
554.4150, 148.4330
554.8971, 147.1030
555.3792, 145.8322
555.8613, 144.9289
556.3434, 144.5732
556.8256, 144.0565
557.3077, 143.0644
557.7898, 141.9733
558.2719, 141.0900
558.7540, 140.4464
559.2361, 140.0358
559.7183, 139.9007
560.2004, 139.8925
560.6825, 139.3140
561.1646, 137.4937
561.6467, 136.2724
562.1288, 136.2441
562.6110, 136.4637
563.0931, 136.2488
563.5752, 135.6056
564.0573, 134.9778
564.5394, 134.7198
565.0215, 134.6730
565.5037, 134.3772
565.9858, 133.7705
566.4679, 133.3274
566.9500, 133.3461
567.4321, 133.5125
567.9142, 133.4202
568.3964, 133.0602
568.8785, 132.5939
569.3606, 131.7271
569.8427, 131.0159
570.3248, 131.3037
570.8069, 132.3849
571.2891, 133.1056
571.7712, 132.7889
572.2533, 131.8591
572.7354, 131.3777
573.2175, 131.7123
573.6996, 131.8570
574.1818, 131.6772
574.6639, 131.4394
575.1460, 131.2793
575.6281, 131.2005
576.1102, 131.1442
576.5923, 131.0584
577.0745, 131.0323
577.5566, 131.3671
578.0387, 132.1971
578.5208, 132.6421
579.0029, 132.3028
579.4850, 131.7547
579.9672, 131.3179
580.4493, 131.0284
580.9314, 131.0186
581.4135, 131.5811
581.8956, 132.2413
582.3777, 132.5422
582.8599, 132.5450
583.3420, 132.5043
583.8241, 132.5196
584.3062, 132.4390
584.7883, 131.9549
585.2704, 130.8361
585.7526, 130.5574
586.2347, 131.9389
586.7168, 133.2251
587.1989, 133.5597
587.6810, 133.3277
588.1631, 133.2115
588.6453, 133.4588
589.1274, 133.7849
589.6095, 133.7433
590.0916, 133.2797
590.5737, 132.9298
591.0558, 132.5505
591.5380, 132.5185
592.0201, 133.3973
592.5022, 134.5746
592.9843, 135.0750
593.4664, 134.5477
593.9485, 133.7591
594.4307, 133.2287
594.9128, 132.8843
595.3949, 132.5171
595.8770, 132.0884
596.3591, 131.8388
596.8412, 132.0254
597.3234, 132.5581
597.8055, 132.7672
598.2876, 132.5213
598.7697, 132.1830
599.2518, 132.0160
599.7339, 131.6494
600.2161, 130.4838
600.6982, 128.6446
601.1803, 126.9977
601.6624, 126.2470
602.1445, 126.2336
602.6266, 126.2624
603.1088, 126.3297
603.5909, 126.4485
604.0730, 126.9298
604.5551, 127.2275
605.0372, 126.7783
605.5193, 125.6467
606.0015, 124.6011
606.4836, 124.0525
606.9657, 123.7508
607.4478, 123.4059
607.9299, 123.0282
608.4120, 122.7217
608.8942, 122.5494
609.3763, 122.3952
609.8584, 122.0401
610.3405, 121.3406
610.8226, 121.0131
611.3047, 121.6315
611.7869, 122.0113
612.2690, 121.2777
612.7511, 120.0271
613.2332, 119.3194
613.7153, 119.5446
614.1974, 120.1044
614.6796, 120.1459
615.1617, 119.6342
615.6438, 119.3399
616.1259, 119.3981
616.6080, 119.4733
617.0901, 119.4121
617.5723, 119.2531
618.0544, 118.9986
618.5365, 118.5769
619.0186, 118.3258
619.5007, 118.5920
619.9828, 119.0926
620.4650, 119.4264
620.9471, 119.5364
621.4292, 119.4076
621.9113, 118.9915
622.3934, 118.3756
622.8755, 117.8992
623.3577, 117.4170
623.8398, 117.3128
624.3219, 117.9574
624.8040, 118.6611
625.2861, 119.0142
625.7682, 119.0184
626.2504, 118.8069
626.7325, 118.4013
627.2145, 117.9702
627.6967, 117.8747
628.1788, 118.1322
628.6609, 118.3076
629.1430, 118.2767
629.6251, 118.2052
630.1072, 118.2636
630.5894, 118.4115
631.0715, 118.5003
631.5536, 118.4667
632.0357, 118.4140
632.5178, 118.4197
632.9999, 118.4311
633.4821, 118.3751
633.9642, 118.2323
634.4463, 117.9906
634.9284, 117.6149
635.4105, 117.1229
635.8926, 116.7923
636.3748, 116.6331
636.8569, 116.6350
637.3390, 116.9416
637.8211, 117.2835
638.3032, 117.4767
638.7853, 117.4942
639.2675, 117.3588
639.7496, 116.9682
640.2317, 116.5057
640.7138, 116.3653
641.1959, 116.5065
641.6780, 116.3078
642.1602, 115.4129
642.6423, 114.4661
643.1244, 114.3936
643.6065, 115.4069
644.0886, 115.9863
644.5707, 115.8602
645.0529, 115.6041
645.5350, 115.0028
646.0171, 114.1218
646.4992, 114.5241
646.9813, 114.7379
647.4634, 114.7734
647.9456, 114.0964
648.4277, 114.3395
648.9098, 114.2138
649.3919, 114.0730
649.8740, 114.4455
650.3561, 113.8722
650.8383, 114.2366
651.3204, 114.2266
651.8025, 114.1783
652.2846, 114.1922
652.7667, 114.2045
653.2488, 114.2250
653.7310, 114.2811
654.2131, 114.3560
654.6952, 114.3961
655.1773, 114.3789
655.6594, 114.3176
656.1415, 114.2161
656.6237, 114.0358
657.1058, 113.9986
657.5879, 114.2841
658.0700, 114.5190
658.5521, 114.6268
659.0342, 114.6178
659.5164, 114.4326
659.9985, 114.0643
660.4806, 113.8347
660.9627, 114.1834
661.4448, 114.8222
661.9269, 115.0617
662.4091, 114.8662
662.8912, 114.5247
663.3733, 114.1082
663.8554, 113.7233
664.3375, 113.5779
664.8196, 113.6993
665.3018, 114.0075
665.7839, 114.8010
666.2660, 115.4825
666.7481, 115.6911
667.2302, 115.5760
667.7123, 115.3499
668.1945, 115.1031
668.6766, 115.0065
669.1587, 115.4994
669.6408, 116.5010
670.1229, 116.6051
670.6050, 115.4137
671.0872, 114.4059
671.5693, 114.4391
672.0514, 115.0501
672.5335, 115.4530
673.0156, 115.6177
673.4977, 115.6723
673.9799, 115.5322
674.4620, 115.3922
674.9441, 115.4319
675.4262, 115.6131
675.9083, 115.7916
676.3904, 115.9041
676.8726, 116.0263
677.3547, 116.3033
677.8368, 116.7736
678.3189, 117.1461
678.8010, 117.4112
679.2831, 117.5917
679.7653, 117.4990
680.2474, 117.4289
680.7295, 117.8737
681.2116, 118.9676
681.6937, 119.8352
682.1758, 119.7925
682.6580, 119.3732
683.1401, 119.1004
683.6222, 119.0675
684.1043, 119.6134
684.5864, 120.9681
685.0685, 122.5220
685.5507, 123.1553
686.0328, 122.5111
686.5149, 122.3704
686.9970, 123.0046
687.4791, 123.8497
687.9612, 125.1804
688.4434, 126.4231
688.9255, 126.7121
689.4076, 125.8734
689.8897, 125.0377
690.3718, 125.0990
690.8539, 125.7580
691.3361, 126.5305
691.8182, 127.3885
692.3003, 128.1101
692.7824, 128.5682
693.2645, 128.9376
693.7466, 129.4837
694.2288, 130.2042
694.7109, 131.1408
695.1930, 132.6844
695.6751, 133.9731
696.1572, 134.4826
696.6393, 134.6766
697.1215, 135.2032
697.6036, 136.1816
698.0857, 137.1249
698.5678, 137.5294
699.0499, 137.5785
699.5320, 137.8281
700.0142, 138.2857
700.4963, 138.7481
700.9784, 139.1779
701.4605, 139.5133
701.9426, 139.6479
702.4247, 139.5522
702.9069, 139.4589
703.3890, 139.2560
703.8711, 139.1892
704.3532, 139.6811
704.8353, 140.1951
705.3174, 139.8206
705.7996, 138.5602
706.2817, 137.5966
706.7638, 138.3222
707.2459, 139.9416
707.7280, 139.5727
708.2101, 136.9310
708.6923, 135.0231
709.1743, 134.9342
709.6564, 135.5011
710.1385, 135.5701
710.6207, 135.1704
711.1028, 134.6438
711.5849, 133.4983
712.0670, 132.8367
712.5491, 133.5680
713.0313, 134.7208
713.5134, 135.0721
713.9955, 134.5725
714.4776, 134.1233
714.9597, 134.4588
715.4418, 135.2158
715.9240, 135.3039
716.4061, 134.6042
716.8882, 134.3174
717.3703, 134.9052
717.8524, 135.5809
718.3345, 135.5603
718.8167, 135.0820
719.2988, 134.9863
719.7809, 135.6363
720.2630, 136.2256
720.7451, 136.3302
721.2272, 136.3497
721.7094, 136.8363
722.1915, 137.6642
722.6736, 138.1666
723.1557, 137.9175
723.6378, 137.3024
724.1199, 137.1123
724.6021, 137.3842
725.0842, 137.5918
725.5663, 137.6547
726.0484, 137.7204
726.5305, 138.1065
727.0126, 138.4817
727.4948, 138.1093
727.9769, 136.6853
728.4590, 135.3395
728.9411, 134.6081
729.4232, 133.9165
729.9053, 132.7537
730.3875, 131.2338
730.8696, 129.7303
731.3517, 128.4016
731.8338, 127.1095
732.3159, 125.6249
732.7980, 123.9514
733.2802, 122.3377
733.7623, 120.7029
734.2444, 119.3664
734.7265, 118.5641
735.2086, 118.0701
735.6907, 117.5902
736.1729, 117.1331
736.6550, 116.6022
737.1371, 116.0031
737.6192, 115.2956
738.1013, 114.3349
738.5834, 113.2896
739.0656, 112.3971
739.5477, 111.7190
740.0298, 111.2361
740.5119, 110.9637
740.9940, 110.8487
741.4761, 110.6679
741.9583, 110.4136
742.4404, 110.1470
742.9225, 109.9281
743.4046, 109.6391
743.8867, 108.9575
744.3688, 108.0237
744.8510, 107.7024
745.3331, 108.8521
745.8152, 109.6342
746.2973, 109.2743
746.7794, 108.3769
747.2615, 107.3097
747.7437, 106.2936
748.2258, 105.7383
748.7079, 105.9504
749.1900, 106.5109
749.6721, 106.6467
750.1542, 106.3651
750.6364, 106.1605
751.1185, 106.1702
751.6006, 105.9812
752.0827, 105.1779
752.5648, 104.0462
753.0469, 103.3663
753.5291, 103.2221
754.0112, 103.2464
754.4933, 103.4910
754.9754, 103.7939
755.4575, 104.1731
755.9396, 104.5020
756.4218, 104.5371
756.9039, 104.2133
757.3860, 103.8186
757.8681, 103.6470
758.3502, 103.6537
758.8323, 103.7504
759.3145, 103.9475
759.7966, 103.8683
760.2787, 103.2491
760.7608, 103.6074
761.2429, 103.7772
761.7250, 103.7687
762.2072, 103.0477
762.6893, 103.2468
763.1714, 103.0771
763.6535, 102.8923
764.1356, 103.2208
764.6177, 102.6035
765.0999, 102.9239
765.5820, 102.8700
766.0641, 102.9873
766.5462, 102.7338
767.0283, 102.5948
767.5104, 102.8268
767.9926, 102.8534
768.4747, 102.7281
768.9568, 103.1301
769.4389, 102.4215
769.9210, 101.0290
770.4031, 100.4008
770.8853, 101.0666
771.3674, 101.4619
771.8495, 101.3168
772.3316, 101.2054
772.8137, 101.4949
773.2958, 101.9247
773.7780, 102.1048
774.2601, 101.9454
774.7422, 101.5699
775.2243, 100.6642
775.7064, 99.84694
776.1885, 100.2301
776.6707, 101.4489
777.1528, 102.0446
777.6349, 101.5097
778.1170, 100.6855
778.5991, 100.6213
779.0812, 101.2605
779.5634, 101.4059
780.0455, 100.7864
780.5276, 100.2789
781.0097, 100.1389
781.4918, 100.1350
781.9739, 100.0821
782.4561, 100.0075
782.9382, 100.0504
783.4203, 100.4154
783.9024, 100.6438
784.3845, 100.4428
784.8666, 100.0346
785.3488, 99.49735
785.8309, 98.98483
786.3130, 98.98143
786.7951, 99.78868
787.2772, 100.8099
787.7593, 100.9216
788.2415, 100.1511
788.7236, 99.69738
789.2057, 99.67669
789.6878, 99.75386
790.1699, 99.78024
790.6520, 99.80332
791.1342, 99.91955
791.6162, 100.1533
792.0983, 100.3262
792.5804, 100.3547
793.0626, 100.4064
793.5447, 100.6083
794.0268, 100.8323
794.5089, 100.9774
794.9910, 100.9994
795.4731, 100.8182
795.9553, 100.3184
796.4374, 99.67587
796.9195, 99.01588
797.4016, 98.42347
797.8837, 98.36673
798.3658, 98.94200
798.8480, 99.72598
799.3301, 100.4856
799.8122, 101.1182
800.2943, 101.2257
800.7764, 100.3921
801.2585, 99.92944
801.7407, 100.2402
802.2228, 100.5040
802.7049, 100.3317
803.1870, 99.96224
803.6691, 99.70415
804.1512, 99.60723
804.6334, 99.69823
805.1155, 100.3191
805.5976, 100.8532
806.0797, 100.5655
806.5618, 99.77525
807.0439, 99.08541
807.5261, 98.70419
808.0082, 98.51324
808.4903, 99.02782
808.9724, 99.35395
809.4545, 99.50175
809.9366, 98.93711
810.4188, 99.29246
810.9009, 99.27909
811.3830, 99.25063
811.8651, 99.73543
812.3472, 99.27441
812.8293, 99.75107
813.3115, 99.85345
813.7936, 100.1271
814.2757, 100.0298
814.7578, 100.0471
815.2399, 99.98996
815.7220, 99.98857
816.2042, 99.95500
816.6863, 99.89066
817.1684, 99.82059
817.6505, 99.70635
818.1326, 99.63032
818.6147, 99.86440
819.0969, 100.3166
819.5790, 100.4152
820.0611, 99.98185
820.5432, 99.52134
821.0253, 99.55618
821.5074, 99.97637
821.9896, 100.0229
822.4717, 99.43240
822.9538, 99.07390
823.4359, 99.30042
823.9180, 99.49769
824.4001, 99.23909
824.8823, 98.74284
825.3644, 98.41434
825.8465, 98.30871
826.3286, 98.39859
826.8107, 98.92677
827.2928, 99.41955
827.7750, 99.39381
828.2571, 99.06071
828.7392, 98.89500
829.2213, 99.01453
829.7034, 99.10878
830.1855, 98.79145
830.6677, 98.29252
831.1498, 98.37347
831.6319, 99.01176
832.1140, 99.44492
832.5961, 99.49902
833.0782, 99.29321
833.5604, 98.81765
834.0425, 98.20596
834.5246, 98.04213
835.0067, 98.80702
835.4888, 99.19836
835.9709, 98.88212
836.4531, 98.87525
836.9352, 99.23967
837.4173, 99.41563
837.8994, 99.41327
838.3815, 98.69848
838.8636, 98.90363
839.3458, 98.74010
839.8279, 98.56147
840.3100, 98.89611
840.7921, 98.28493
841.2742, 98.61144
841.7563, 98.56364
842.2385, 97.76474
842.7206, 97.86998
843.2027, 98.04720
843.6848, 97.97704
844.1669, 97.65313
844.6490, 97.45079
845.1312, 97.43095
845.6133, 97.48619
846.0954, 97.56552
846.5775, 97.26305
847.0596, 97.61076
847.5417, 97.77000
848.0239, 97.75089
848.5060, 97.01938
848.9881, 97.20782
849.4702, 97.02758
849.9523, 96.83224
850.4344, 97.15015
850.9166, 96.52224
851.3987, 96.83203
851.8808, 96.76751
852.3629, 96.87430
852.8450, 96.61015
853.3271, 96.46056
853.8093, 96.68201
854.2914, 96.69804
854.7735, 96.39118
855.2556, 96.50455
855.7377, 96.84325
856.2198, 96.99348
856.7020, 96.96537
857.1841, 96.22487
857.6662, 96.40431
858.1483, 96.21508
858.6304, 96.01074
859.1125, 96.38187
859.5947, 96.42845
860.0768, 95.99582
860.5589, 95.70168
861.0410, 95.59254
861.5231, 95.54998
862.0052, 95.62969
862.4874, 95.70681
862.9695, 95.69967
863.4516, 95.62351
863.9337, 95.51481
864.4158, 95.37234
864.8979, 95.26193
865.3801, 95.24313
865.8622, 95.26250
866.3443, 95.34195
866.8264, 95.39884
867.3085, 95.18047
867.7906, 94.65213
868.2728, 94.15377
868.7549, 94.01087
869.2370, 94.12748
869.7191, 94.30251
870.2012, 94.53305
870.6833, 94.44927
871.1655, 93.90948
871.6476, 93.45214
872.1297, 93.47838
872.6118, 93.79688
873.0939, 93.93426
873.5760, 93.84944
874.0581, 93.70394
874.5402, 93.40661
875.0223, 93.15900
875.5045, 92.98799
875.9866, 92.91199
876.4687, 92.98134
876.9508, 93.17854
877.4329, 93.36236
877.9150, 93.59167
878.3972, 93.65968
878.8793, 93.33826
879.3614, 92.87843
879.8435, 92.55690
880.3256, 92.36408
880.8077, 92.10390
881.2899, 91.68388
881.7720, 91.42596
882.2541, 91.94691
882.7362, 92.88291
883.2183, 93.08735
883.7004, 92.60938
884.1826, 92.14558
884.6647, 91.91258
885.1468, 91.71360
885.6289, 91.31200
886.1110, 90.81291
886.5931, 90.87272
887.0753, 91.85709
887.5574, 92.26423
888.0395, 91.56913
888.5216, 90.86387
889.0037, 90.82899
889.4858, 91.12371
889.9680, 91.17954
890.4501, 90.95048
890.9322, 90.71004
891.4143, 90.41494
891.8964, 90.21315
892.3785, 90.27417
892.8607, 90.38541
893.3428, 90.28605
893.8249, 90.01022
894.3070, 89.81481
894.7891, 89.85573
895.2712, 89.89924
895.7534, 89.64047
896.2355, 89.30106
896.7176, 89.33556
897.1997, 89.63806
897.6818, 89.65746
898.1639, 89.19633
898.6461, 88.69584
899.1282, 88.73885
899.6103, 89.12186
900.0924, 88.82113
900.5745, 87.78886
901.0566, 87.18285
901.5388, 87.26457
902.0209, 87.70259
902.5030, 88.39174
902.9851, 89.13123
903.4672, 89.31420
903.9493, 88.63573
904.4315, 88.26633
904.9136, 88.59671
905.3957, 88.72941
905.8778, 88.16394
906.3599, 87.44248
906.8420, 87.04924
907.3242, 87.00512
907.8063, 87.19866
908.2884, 87.88281
908.7705, 88.42107
909.2526, 88.58827
909.7347, 88.49060
910.2169, 88.04933
910.6990, 87.46003
911.1811, 87.11250
911.6632, 87.13683
912.1453, 87.25632
912.6274, 87.23637
913.1096, 87.17381
913.5917, 87.19706
914.0738, 87.30253
914.5559, 87.53414
915.0380, 87.87090
915.5201, 88.07053
916.0023, 87.94372
916.4844, 87.63805
916.9665, 87.48183
917.4486, 87.47264
917.9307, 87.36848
918.4128, 87.12971
918.8950, 86.97097
919.3771, 87.01092
919.8592, 87.08980
920.3413, 86.98510
920.8234, 86.70433
921.3055, 86.61531
921.7877, 86.96857
922.2698, 87.07051
922.7519, 86.52560
923.2340, 86.04601
923.7161, 86.06228
924.1982, 86.37443
924.6804, 86.63364
925.1625, 86.80299
925.6446, 86.94060
926.1267, 87.13213
926.6088, 87.21008
927.0909, 86.98792
927.5731, 86.67640
928.0552, 86.49879
928.5373, 86.46395
929.0194, 86.47750
929.5015, 86.51027
929.9836, 86.52724
930.4658, 86.45583
930.9479, 86.37728
931.4300, 86.45892
931.9121, 86.63622
932.3942, 86.65747
932.8763, 86.46646
933.3585, 86.33645
933.8406, 86.58162
934.3227, 86.97330
934.8048, 86.87901
935.2869, 86.36079
935.7690, 85.94256
936.2512, 85.69242
936.7333, 85.71409
937.2154, 86.13976
937.6975, 86.57909
938.1796, 86.28143
938.6617, 85.18375
939.1439, 84.83779
939.6260, 85.53964
940.1081, 86.18379
940.5902, 86.52740
941.0723, 86.74992
941.5544, 86.98180
942.0366, 87.20545
942.5187, 87.35645
943.0008, 87.40192
943.4829, 87.45930
943.9650, 87.72836
944.4471, 87.77598
944.9293, 87.09436
945.4114, 86.35015
945.8935, 86.36821
946.3756, 87.06763
946.8577, 87.57642
947.3398, 87.54820
947.8220, 87.42575
948.3041, 87.30117
948.7862, 87.27760
949.2683, 87.51125
949.7504, 87.89969
950.2325, 88.25902
950.7147, 88.53284
951.1968, 88.73508
951.6789, 88.85201
952.1610, 88.93114
952.6431, 89.01749
953.1252, 89.11671
953.6074, 89.26160
954.0895, 89.43874
954.5716, 89.52542
955.0537, 89.45608
955.5358, 89.47036
956.0179, 90.03992
956.5000, 90.97215
956.9821, 91.25983
957.4642, 90.94109
957.9464, 90.93034
958.4285, 91.45351
958.9106, 92.20178
959.3927, 92.94576
959.8748, 93.72856
960.3569, 94.67008
960.8391, 95.82234
961.3212, 96.89092
961.8033, 97.92867
962.2854, 98.73064
962.7675, 99.20842
963.2496, 99.43452
963.7318, 99.41662
964.2139, 99.19584
964.6960, 99.08474
965.1781, 99.32682
965.6602, 99.27626
966.1423, 98.71156
966.6245, 98.11101
967.1066, 97.55327
967.5887, 97.13036
968.0708, 97.06435
968.5529, 97.33222
969.0350, 97.32262
969.5172, 96.76144
969.9993, 96.10119
970.4814, 95.35250
970.9635, 94.68203
971.4456, 94.23121
971.9277, 93.95525
972.4099, 93.70646
972.8920, 93.45673
973.3741, 93.49131
973.8562, 94.46499
974.3383, 95.26355
974.8204, 94.67703
975.3026, 93.55595
975.7847, 93.09830
976.2668, 93.27266
976.7489, 93.38704
977.2310, 93.13313
977.7131, 92.85005
978.1953, 93.07336
978.6774, 93.37667
979.1595, 92.87671
979.6416, 91.83614
980.1237, 91.06680
980.6058, 90.72089
981.0880, 90.56532
981.5701, 90.46256
982.0522, 90.36197
982.5343, 90.16730
983.0164, 89.89775
983.4985, 87.97740
983.9807, 88.33483
984.4628, 88.50382
984.9449, 88.49450
985.4270, 87.77274
985.9091, 87.97093
986.3912, 87.80045
986.8734, 87.61484
987.3555, 87.94250
987.8376, 87.32437
988.3197, 87.64391
988.8018, 88.97791
989.2839, 88.92786
989.7661, 88.78249
990.2482, 88.59534
990.7303, 88.39761
991.2124, 88.42960
991.6945, 88.83574
992.1766, 89.12578
992.6588, 89.16528
993.1409, 89.26193
993.6230, 89.65337
994.1051, 90.09530
994.5872, 90.19459
995.0693, 89.95883
995.5515, 89.99498
996.0336, 90.51171
996.5157, 91.00453
996.9978, 91.54929
997.4799, 91.91265
997.9620, 91.81733
998.4442, 91.53733
998.9263, 91.47160
999.4084, 91.66232
999.8905, 91.90171
1000.373, 92.03685
1000.855, 92.34907
1001.337, 93.27924
1001.819, 94.11143
1002.301, 94.10025
1002.783, 93.60989
1003.265, 93.38634
1003.747, 93.60316
1004.230, 93.94093
1004.712, 94.37760
1005.194, 94.72655
1005.676, 94.79046
1006.158, 94.75536
1006.640, 94.89856
1007.122, 95.13319
1007.604, 95.14672
1008.086, 94.83076
1008.569, 94.45815
1009.051, 94.17705
1009.533, 94.00386
1010.015, 94.03733
1010.497, 94.15510
1010.979, 94.07165
1011.461, 93.84550
1011.943, 93.90246
1012.426, 94.44401
1012.908, 94.91235
1013.390, 94.57755
1013.872, 93.84384
1014.354, 93.41565
1014.836, 93.23064
1015.318, 93.08220
1015.800, 92.94530
1016.282, 92.93375
1016.765, 93.11367
1017.247, 93.41436
1017.729, 93.62667
1018.211, 93.89163
1018.693, 94.92497
1019.175, 96.55938
1019.657, 97.67635
1020.139, 98.04695
1020.622, 98.08772
1021.104, 98.02758
1021.586, 98.08083
1022.068, 98.71810
1022.550, 99.87282
1023.032, 100.8141
1023.514, 101.5391
1023.996, 102.3672
1024.478, 103.3849
1024.961, 104.3842
1025.443, 105.1650
1025.925, 105.9884
1026.407, 107.4948
1026.889, 109.7166
1027.371, 111.8801
1027.853, 114.0430
1028.335, 115.7857
1028.818, 116.8624
1029.300, 117.9903
1029.782, 119.7411
1030.264, 121.9054
1030.746, 123.8609
1031.228, 125.5105
1031.710, 127.6091
1032.192, 130.2954
1032.674, 132.9918
1033.156, 135.3529
1033.639, 138.0848
1034.121, 141.8661
1034.603, 146.3731
1035.085, 150.7007
1035.567, 154.8141
1036.049, 158.9193
1036.531, 163.1112
1037.013, 167.1440
1037.496, 171.2645
1037.978, 174.7729
1038.460, 177.2253
1038.942, 178.5939
1039.424, 178.7864
1039.906, 177.7557
1040.388, 175.6774
1040.870, 172.4201
1041.353, 168.3191
1041.835, 163.2045
1042.317, 157.4913
1042.799, 151.0294
1043.281, 144.2711
1043.763, 138.6821
1044.245, 134.6013
1044.727, 130.6480
1045.209, 126.7891
1045.692, 123.0251
1046.174, 118.9215
1046.656, 115.3187
1047.138, 113.2004
1047.620, 112.0904
1048.102, 110.6269
1048.584, 108.5720
1049.066, 106.6662
1049.548, 104.9050
1050.031, 103.4429
1050.513, 102.3759
1050.995, 101.5782
1051.477, 101.0924
1051.959, 100.7583
1052.441, 100.1540
1052.923, 99.13187
1053.405, 98.31210
1053.888, 98.08440
1054.370, 97.74317
1054.852, 96.76962
1055.334, 95.80164
1055.816, 95.40568
1056.298, 95.43856
1056.780, 95.57537
1057.262, 95.81985
1057.745, 95.70084
1058.227, 94.65200
1058.709, 93.77477
1059.191, 93.67889
1059.673, 93.80905
1060.155, 93.62705
1060.637, 93.30098
1061.119, 93.30901
1061.601, 93.76717
1062.083, 94.17783
1062.566, 94.43059
1063.048, 94.52602
1063.530, 94.26802
1064.012, 94.02967
1064.494, 94.20602
1064.976, 94.62428
1065.458, 94.87289
1065.940, 94.87125
1066.423, 94.97121
1066.905, 95.25151
1067.387, 95.73714
1067.869, 96.71008
1068.351, 97.64401
1068.833, 97.96286
1069.315, 97.95715
1069.797, 98.20874
1070.280, 98.81915
1070.762, 99.47011
1071.244, 100.0831
1071.726, 100.6390
1072.208, 99.31400
1072.690, 100.2724
1073.172, 101.0425
1073.654, 101.6342
1074.136, 101.5134
1074.619, 102.3138
1075.101, 102.7442
1075.583, 103.1597
1076.065, 104.0883
1076.547, 104.0712
1077.029, 104.9918
1077.511, 106.4617
1077.993, 106.8173
1078.475, 107.3391
1078.958, 108.0217
1079.440, 108.4775
1079.922, 108.4007
1080.404, 108.4509
1080.886, 108.9787
1081.368, 109.7085
1081.850, 110.7868
1082.332, 111.7322
1082.814, 111.7733
1083.297, 111.0448
1083.779, 110.4816
1084.261, 110.3820
1084.743, 110.5063
1085.225, 110.9150
1085.707, 111.3236
1086.189, 111.5401
1086.671, 111.6601
1087.154, 111.7975
1087.636, 111.9523
1088.118, 112.0571
1088.600, 112.0699
1089.082, 112.1635
1089.564, 112.5620
1090.046, 112.8798
1090.528, 113.0023
1091.010, 112.8550
1091.493, 112.3687
1091.975, 111.5566
1092.457, 110.4412
1092.939, 109.0091
1093.421, 107.4670
1093.903, 105.6181
1094.385, 104.0279
1094.867, 103.3305
1095.349, 102.6653
1095.832, 101.2724
1096.314, 99.38613
1096.796, 97.38137
1097.278, 95.34395
1097.760, 93.80299
1098.242, 93.31954
1098.724, 92.80413
1099.206, 91.88602
1099.689, 90.82092
1100.171, 89.55957
1100.653, 88.39053
1101.135, 87.82169
1101.617, 87.81841
1102.099, 87.56749
1102.581, 86.60169
1103.063, 85.85554
1103.546, 85.79166
1104.028, 85.71424
1104.510, 85.22120
1104.992, 84.54860
1105.474, 83.93547
1105.956, 83.39957
1106.438, 82.90589
1106.920, 82.35353
1107.402, 82.08846
1107.885, 82.51777
1108.367, 82.78491
1108.849, 82.39757
1109.331, 81.87823
1109.813, 81.69678
1110.295, 81.75369
1110.777, 81.75997
1111.259, 81.74367
1111.741, 81.48146
1112.224, 80.57162
1112.706, 79.96207
1113.188, 80.07552
1113.670, 80.31283
1114.152, 80.28972
1114.634, 80.13988
1115.116, 80.19304
1115.598, 80.51058
1116.081, 80.27296
1116.563, 78.81393
1117.045, 77.95495
1117.527, 78.12104
1118.009, 78.55190
1118.491, 79.10554
1118.973, 79.54440
1119.455, 79.53516
1119.938, 79.12122
1120.420, 78.70735
1120.902, 78.27891
1121.384, 77.85835
1121.866, 77.27225
1122.348, 77.10226
1122.830, 77.75159
1123.312, 78.52144
1123.794, 78.76257
1124.276, 78.62605
1124.759, 78.58215
1125.241, 78.64445
1125.723, 78.73664
1126.205, 78.88614
1126.687, 78.98685
1127.169, 79.06560
1127.651, 78.88978
1128.133, 78.23734
1128.616, 77.39334
1129.098, 76.86712
1129.580, 76.64594
1130.062, 76.47435
1130.544, 76.35297
1131.026, 76.25163
1131.508, 76.14619
1131.990, 76.35615
1132.473, 76.71792
1132.955, 77.09632
1133.437, 77.28626
1133.919, 77.29789
1134.401, 76.59707
1134.883, 76.81621
1135.365, 76.66668
1135.847, 76.50203
1136.329, 76.85066
1136.812, 76.25336
1137.294, 76.59385
1137.776, 76.56003
1138.258, 76.69751
1138.740, 76.46406
1139.222, 76.34517
1139.704, 76.59737
1140.186, 76.64408
1140.668, 76.36792
1141.151, 76.51620
1141.633, 75.90604
1142.115, 75.96152
1142.597, 76.08353
1143.079, 76.04263
1143.561, 75.98724
1144.043, 76.01690
1144.525, 76.08425
1145.008, 76.12962
1145.490, 76.11759
1145.972, 75.93978
1146.454, 75.58807
1146.936, 75.27262
1147.418, 75.10627
1147.900, 75.10294
1148.382, 75.43320
1148.865, 75.80054
1149.347, 75.82558
1149.829, 75.64967
1150.311, 75.52909
1150.793, 75.50282
1151.275, 75.54053
1151.757, 75.68298
1152.239, 75.60064
1152.721, 74.72022
1153.203, 74.01032
1153.686, 74.34629
1154.168, 74.97013
1154.650, 75.14761
1155.132, 74.94189
1155.614, 74.56293
1156.096, 74.04576
1156.578, 73.88950
1157.060, 74.54919
1157.543, 75.13364
1158.025, 75.33945
1158.507, 75.46896
1158.989, 75.84953
1159.471, 76.15694
1159.953, 75.85088
1160.435, 75.02970
1160.917, 74.50724
1161.400, 74.41903
1161.882, 74.43340
1162.364, 74.54556
1162.846, 74.77346
1163.328, 75.38472
1163.810, 75.74641
1164.292, 75.20847
1164.774, 74.25881
1165.256, 73.92307
1165.739, 74.23166
1166.221, 74.56578
1166.703, 74.53852
1167.185, 74.95923
1167.667, 75.19147
1168.149, 75.24540
1168.631, 74.58690
1169.113, 74.84835
1169.595, 74.74112
1170.078, 74.61876
1170.560, 75.00969
1171.042, 74.45480
1171.524, 74.83760
1172.006, 74.84609
1172.488, 75.02589
1172.970, 74.83473
1173.452, 74.75815
1173.934, 75.05264
1174.417, 75.14165
1174.899, 74.90779
1175.381, 75.09849
1175.863, 74.53064
1176.345, 74.62843
1176.827, 75.01339
1177.309, 74.79818
1177.791, 74.99565
1178.274, 75.03593
1178.756, 74.36196
1179.238, 74.93018
1179.720, 74.96120
1180.202, 74.44061
1180.684, 74.96628
1181.166, 74.67008
1181.648, 74.70535
1182.130, 74.78788
1182.613, 74.91860
1183.095, 74.89285
1183.577, 74.61517
1184.059, 74.38171
1184.541, 74.32823
1185.023, 74.38400
1185.505, 74.67191
1185.987, 74.89704
1186.469, 74.73783
1186.952, 74.37997
1187.434, 74.12905
1187.916, 74.01946
1188.398, 74.00965
1188.880, 74.17946
1189.362, 74.30114
1189.844, 74.26949
1190.326, 74.29440
1190.809, 73.97672
1191.291, 74.39304
1191.773, 74.62092
1192.255, 74.67046
1192.737, 74.00757
1193.219, 74.26464
1193.701, 74.15303
1194.183, 74.02631
1194.666, 74.41282
1195.148, 73.85355
1195.630, 74.23196
1196.112, 74.23606
1196.594, 74.41148
1197.076, 74.21593
1197.558, 73.98242
1198.040, 73.93009
1198.522, 73.98328
1199.005, 74.01877
1199.487, 74.02465
1199.969, 73.87340
1200.451, 73.57757
1200.933, 73.55850
1201.415, 74.05473
1201.897, 74.53425
1202.379, 74.31361
1202.861, 73.80598
1203.344, 73.68928
1203.826, 73.74778
1204.308, 73.56683
1204.790, 73.23844
1205.272, 73.03841
1205.754, 73.04396
1206.236, 73.27341
1206.718, 73.81742
1207.201, 74.27296
1207.683, 74.43839
1208.165, 74.37392
1208.647, 74.03497
1209.129, 73.56200
1209.611, 72.87434
1210.093, 72.23826
1210.575, 72.27648
1211.057, 73.09171
1211.540, 73.66405
1212.022, 73.70750
1212.504, 73.72309
1212.986, 73.86288
1213.468, 73.84434
1213.950, 73.39968
1214.432, 72.97086
1214.914, 73.00161
1215.396, 73.31815
1215.879, 73.43496
1216.361, 73.32692
1216.843, 73.35917
1217.325, 73.56298
1217.807, 73.69661
1218.289, 73.72574
1218.771, 73.62099
1219.253, 73.35374
1219.736, 73.13248
1220.218, 73.21023
1220.700, 73.37782
1221.182, 73.04143
1221.664, 72.44218
1222.146, 72.47041
1222.628, 72.95522
1223.110, 72.63614
1223.593, 73.07719
1224.075, 73.32978
1224.557, 73.40403
1225.039, 72.76585
1225.521, 73.04763
1226.003, 72.96074
1226.485, 72.85872
1226.967, 73.26998
1227.449, 72.73542
1227.932, 73.13856
1228.414, 73.16737
1228.896, 73.36749
1229.378, 73.19666
1229.860, 73.14041
1230.342, 73.45522
1230.824, 73.56458
1231.306, 72.89587
1231.788, 73.06922
1232.271, 73.13342
1232.753, 72.44404
1233.235, 71.65101
1233.717, 71.67928
1234.199, 72.38586
1234.681, 72.81143
1235.163, 72.86964
1235.645, 73.13192
1236.128, 73.69571
1236.610, 73.82666
1237.092, 73.29607
1237.574, 72.92934
1238.056, 73.24977
1238.538, 73.69810
1239.020, 73.53995
1239.502, 72.96317
1239.984, 72.18313
1240.467, 71.45258
1240.949, 71.74355
1241.431, 72.72348
1241.913, 73.16429
1242.395, 72.87862
1242.877, 72.53087
1243.359, 72.44224
1243.841, 72.42395
1244.323, 72.30099
1244.806, 72.23733
1245.288, 72.51437
1245.770, 72.75803
1246.252, 72.49394
1246.734, 71.74435
1247.216, 72.19053
1247.698, 72.44825
1248.180, 72.52765
1248.662, 71.89461
1249.145, 72.18156
1249.627, 72.09980
1250.109, 72.00293
1250.591, 72.41933
1251.073, 71.88992
1251.555, 72.29818
1252.037, 72.33214
1252.519, 72.53741
1253.002, 72.37175
1253.484, 72.32065
1253.966, 72.64061
1254.448, 72.75510
1254.930, 72.54672
1255.412, 72.76288
1255.894, 72.22050
1256.376, 72.34375
1256.859, 72.75422
1257.341, 72.56448
1257.823, 73.03246
1258.305, 73.61321
1258.787, 73.34204
1259.269, 72.75552
1259.751, 72.45448
1260.233, 72.45361
1260.715, 72.84466
1261.198, 73.45216
1261.680, 73.64574
1262.162, 73.17867
1262.644, 72.77329
1263.126, 72.67158
1263.608, 72.63612
1264.090, 72.45484
1264.572, 72.50026
1265.054, 72.86450
1265.537, 73.26588
1266.019, 73.47885
1266.501, 73.51351
1266.983, 72.83572
1267.465, 73.07791
1267.947, 72.95141
1268.429, 72.80979
1268.911, 73.18144
1269.394, 72.81631
1269.876, 72.37365
1270.358, 71.66673
1270.840, 71.32500
1271.322, 72.01491
1271.804, 72.95476
1272.286, 72.85696
1272.768, 72.27264
1273.250, 72.02164
1273.733, 72.05980
1274.215, 72.43703
1274.697, 72.93050
1275.179, 72.95809
1275.661, 72.41856
1276.143, 71.94079
1276.625, 71.71165
1277.107, 71.69547
1277.589, 71.97116
1278.072, 72.33813
1278.554, 72.91603
1279.036, 73.33090
1279.518, 73.17574
1280.000, 72.77346
1280.482, 72.70515
1280.964, 72.92664
1281.446, 72.76286
1281.929, 72.09204
1282.411, 72.09189
1282.893, 72.86600
1283.375, 73.28323
1283.857, 73.06875
1284.339, 72.81425
1284.821, 72.86842
1285.303, 73.02942
1285.786, 73.11475
1286.268, 73.11089
##END=



