##NAMES=Natrojarosite
##RRUFFID=R050289
##IDEAL CHEMISTRY=NaFe^3+^_3_(S^6+^O_4_)_2_(OH)_6_
##LOCALITY=Bristol mine, Pioche, Lincoln County, Nevada, USA
##OWNER=RRUFF
##SOURCE=Marcus Origlieri
##DESCRIPTION=Mustard-colored massive
##STATUS=The identification of this mineral has been confirmed by X-ray diffraction and chemical analysis
##URL=rruff.info/R050289
##MEASURED CHEMISTRY=(Na_0.99_K_0.01_)_Î£=1_Fe^3+^_3.00_(S_1.00_O_4_)_2_(OH)_6_
92.04132, 0.0000000E+00
92.52344, 73.68600
93.00555, 73.34668
93.48767, 73.47042
93.96979, 75.68164
94.45190, 77.62598
94.93402, 78.88155
95.41614, 78.73781
95.89825, 77.81086
96.38037, 76.85941
96.86249, 75.86565
97.34460, 74.81434
97.82672, 73.81274
98.30884, 72.79355
98.79095, 71.74702
99.27307, 70.58916
99.75519, 69.29016
100.2373, 68.03046
100.7194, 66.88501
101.2015, 65.91375
101.6837, 65.11263
102.1658, 64.42429
102.6479, 63.79396
103.1300, 63.20704
103.6121, 62.72539
104.0942, 62.46054
104.5764, 62.31783
105.0585, 62.17809
105.5406, 61.96568
106.0227, 61.71581
106.5048, 61.56477
106.9869, 61.63648
107.4691, 61.58548
107.9512, 61.15014
108.4333, 60.45579
108.9154, 59.81663
109.3975, 59.49754
109.8796, 59.53321
110.3617, 59.64785
110.8439, 59.86874
111.3260, 60.13908
111.8081, 60.49187
112.2902, 60.89965
112.7723, 61.26160
113.2544, 61.40903
113.7366, 61.03748
114.2187, 61.04433
114.7008, 61.56165
115.1829, 62.34967
115.6650, 63.22409
116.1471, 64.12276
116.6293, 65.03998
117.1114, 65.99265
117.5935, 67.18345
118.0756, 68.05161
118.5577, 68.25235
119.0398, 68.01187
119.5220, 67.86754
120.0041, 68.05437
120.4862, 68.50776
120.9683, 69.04121
121.4504, 69.75961
121.9325, 70.38412
122.4147, 70.55605
122.8968, 70.22205
123.3789, 70.07928
123.8610, 70.56627
124.3431, 71.41108
124.8252, 72.45434
125.3074, 73.74617
125.7895, 75.08938
126.2716, 76.04269
126.7537, 76.38244
127.2358, 76.69463
127.7179, 77.06583
128.2001, 77.54716
128.6822, 78.21505
129.1643, 79.12410
129.6464, 80.26472
130.1285, 81.46545
130.6106, 82.82430
131.0928, 84.16269
131.5749, 85.29162
132.0570, 86.34177
132.5391, 87.60110
133.0212, 89.31756
133.5033, 91.55234
133.9855, 93.97692
134.4676, 96.62576
134.9497, 99.38966
135.4318, 102.3097
135.9139, 105.3446
136.3960, 108.3573
136.8782, 111.4046
137.3603, 114.7079
137.8424, 116.1491
138.3245, 115.3471
138.8066, 112.7165
139.2887, 108.3666
139.7709, 102.0808
140.2530, 95.05932
140.7351, 88.51089
141.2172, 82.39780
141.6993, 76.98067
142.1814, 72.44454
142.6636, 68.74911
143.1457, 65.76120
143.6278, 63.73477
144.1099, 62.20542
144.5920, 60.68170
145.0741, 59.16572
145.5563, 57.82732
146.0384, 56.85440
146.5205, 56.28241
147.0026, 55.78629
147.4847, 55.36211
147.9668, 54.96809
148.4490, 54.60748
148.9311, 54.27563
149.4132, 53.92250
149.8953, 53.45339
150.3774, 52.75161
150.8595, 52.17186
151.3417, 51.72639
151.8238, 51.39561
152.3059, 51.18026
152.7880, 51.07880
153.2701, 51.06382
153.7522, 51.07019
154.2344, 51.27427
154.7165, 51.28297
155.1986, 50.96609
155.6807, 50.47776
156.1628, 49.97769
156.6449, 49.53595
157.1271, 49.17638
157.6092, 49.01959
158.0913, 49.23458
158.5734, 49.41961
159.0555, 49.49449
159.5376, 49.45847
160.0198, 49.26997
160.5019, 48.81593
160.9840, 48.25114
161.4661, 48.10524
161.9482, 48.76418
162.4303, 49.42097
162.9125, 49.49226
163.3946, 48.99929
163.8767, 48.40400
164.3588, 47.84198
164.8409, 47.40090
165.3230, 47.23333
165.8052, 47.48222
166.2873, 47.91114
166.7694, 48.21695
167.2515, 48.37473
167.7336, 48.49604
168.2157, 48.66113
168.6979, 48.81855
169.1800, 48.89347
169.6621, 48.82379
170.1442, 48.67341
170.6263, 48.64051
171.1084, 48.85870
171.5906, 48.97673
172.0727, 48.82259
172.5548, 48.52594
173.0369, 48.26097
173.5190, 48.12863
174.0011, 48.12106
174.4833, 48.17382
174.9654, 48.40266
175.4475, 48.57799
175.9296, 48.56315
176.4117, 48.45994
176.8938, 48.46354
177.3760, 48.73556
177.8581, 49.28606
178.3402, 49.71274
178.8223, 50.02282
179.3044, 50.22142
179.7865, 50.26514
180.2687, 50.18666
180.7508, 50.06005
181.2329, 49.93612
181.7150, 49.81130
182.1971, 49.79040
182.6792, 49.83384
183.1614, 49.99252
183.6435, 50.41297
184.1256, 51.05419
184.6077, 51.59073
185.0898, 51.68128
185.5719, 51.28924
186.0540, 51.09203
186.5362, 51.20583
187.0183, 51.46048
187.5004, 51.71003
187.9825, 51.93908
188.4646, 52.18304
188.9467, 52.53951
189.4289, 52.95892
189.9110, 53.22173
190.3931, 53.07290
190.8752, 52.79942
191.3573, 52.88417
191.8394, 53.45355
192.3216, 54.12621
192.8037, 54.60772
193.2858, 54.96235
193.7679, 55.33191
194.2500, 55.78844
194.7321, 56.30854
195.2143, 56.79427
195.6964, 57.11111
196.1785, 57.62203
196.6606, 58.61532
197.1427, 59.92476
197.6248, 61.16847
198.1070, 61.98387
198.5891, 62.44658
199.0712, 63.32936
199.5533, 64.80206
200.0354, 66.57133
200.5175, 68.68845
200.9997, 71.00254
201.4818, 73.20705
201.9639, 75.00101
202.4460, 76.36914
202.9281, 77.95420
203.4102, 79.75462
203.8924, 81.78788
204.3745, 84.15353
204.8566, 86.78428
205.3387, 89.50723
205.8208, 92.22202
206.3029, 94.98808
206.7851, 97.25794
207.2672, 98.35696
207.7493, 99.64540
208.2314, 101.8702
208.7135, 104.8325
209.1956, 107.7308
209.6778, 109.7812
210.1599, 110.7899
210.6420, 112.4654
211.1241, 115.1463
211.6062, 118.0444
212.0883, 120.7860
212.5705, 123.3484
213.0526, 125.9104
213.5347, 128.6422
214.0168, 131.5661
214.4989, 134.4947
214.9810, 137.2373
215.4632, 140.1332
215.9453, 143.4220
216.4274, 147.1161
216.9095, 151.0656
217.3916, 155.2629
217.8737, 159.7032
218.3559, 163.6616
218.8380, 166.8013
219.3201, 169.7017
219.8022, 173.0338
220.2843, 176.8470
220.7664, 180.3606
221.2486, 183.0636
221.7307, 184.9297
222.2128, 185.8336
222.6949, 185.3848
223.1770, 184.1480
223.6591, 182.9452
224.1413, 181.9313
224.6234, 180.0441
225.1055, 176.2884
225.5876, 171.1043
226.0697, 165.0386
226.5518, 157.9448
227.0340, 150.2140
227.5161, 142.2549
227.9982, 133.8879
228.4803, 125.9185
228.9624, 118.8497
229.4445, 112.4874
229.9267, 106.5969
230.4088, 101.1578
230.8909, 96.16415
231.3730, 91.69288
231.8551, 87.82929
232.3372, 84.32087
232.8194, 80.98392
233.3015, 77.89485
233.7836, 75.16312
234.2657, 72.85806
234.7478, 70.89711
235.2299, 69.11697
235.7121, 67.55349
236.1942, 66.09975
236.6763, 64.68678
237.1584, 63.35860
237.6405, 62.16069
238.1227, 61.11107
238.6048, 60.18723
239.0869, 59.35118
239.5690, 58.68750
240.0511, 57.95549
240.5332, 56.90576
241.0154, 55.86263
241.4975, 55.21856
241.9796, 55.14582
242.4617, 55.39417
242.9438, 55.32731
243.4259, 54.66380
243.9081, 54.11435
244.3902, 53.90114
244.8723, 53.76057
245.3544, 53.40133
245.8365, 52.71411
246.3186, 51.87734
246.8007, 51.29898
247.2829, 51.22522
247.7650, 51.07317
248.2471, 50.73313
248.7292, 50.35050
249.2113, 50.09459
249.6934, 50.01480
250.1756, 49.98195
250.6577, 49.72968
251.1398, 48.88719
251.6219, 48.37626
252.1040, 48.44422
252.5861, 48.69812
253.0683, 48.76739
253.5504, 48.55131
254.0325, 48.24530
254.5146, 48.18281
254.9967, 48.64701
255.4788, 48.81958
255.9610, 48.42873
256.4431, 47.90659
256.9252, 47.66277
257.4073, 47.78363
257.8894, 48.01318
258.3716, 47.99247
258.8537, 47.54801
259.3358, 47.31804
259.8179, 47.32151
260.3000, 47.52569
260.7821, 48.04639
261.2643, 48.87157
261.7464, 49.59534
262.2285, 49.72259
262.7106, 49.07040
263.1927, 48.66578
263.6748, 48.59749
264.1570, 48.73569
264.6391, 48.99970
265.1212, 49.37401
265.6033, 49.84759
266.0854, 50.47075
266.5675, 51.24043
267.0497, 51.73409
267.5318, 51.64156
268.0139, 51.47608
268.4960, 51.64324
268.9781, 52.16101
269.4602, 52.82396
269.9424, 53.50931
270.4245, 54.21691
270.9066, 54.93407
271.3887, 55.64042
271.8708, 56.37453
272.3529, 57.23806
272.8351, 58.21071
273.3172, 59.02354
273.7993, 59.44256
274.2814, 59.58922
274.7635, 59.89400
275.2456, 60.37344
275.7278, 61.00051
276.2099, 61.81092
276.6920, 62.78503
277.1741, 63.77068
277.6562, 64.72557
278.1383, 65.61915
278.6204, 66.36816
279.1025, 66.85649
279.5847, 67.46580
280.0668, 68.59861
280.5489, 70.15195
281.0310, 71.46526
281.5131, 72.20469
281.9952, 72.69063
282.4774, 73.40723
282.9595, 74.39214
283.4416, 75.37630
283.9237, 76.10409
284.4058, 76.66676
284.8879, 77.50681
285.3701, 78.90254
285.8522, 80.36443
286.3343, 81.33806
286.8164, 81.84915
287.2985, 82.35856
287.7806, 83.08711
288.2628, 84.00517
288.7449, 85.03941
289.2270, 86.26688
289.7091, 87.45485
290.1912, 88.55745
290.6733, 89.51995
291.1555, 90.10234
291.6376, 90.11539
292.1197, 89.67464
292.6018, 89.00932
293.0839, 88.07310
293.5660, 87.04427
294.0482, 85.99034
294.5303, 84.93809
295.0124, 83.93262
295.4945, 83.08678
295.9766, 82.25671
296.4587, 81.12386
296.9409, 79.57763
297.4230, 78.10633
297.9051, 77.13640
298.3872, 76.32514
298.8693, 75.24936
299.3514, 73.72920
299.8336, 72.00168
300.3157, 70.36800
300.7978, 68.83945
301.2799, 67.27582
301.7620, 65.47701
302.2441, 63.69109
302.7263, 62.16407
303.2084, 60.96392
303.6905, 59.86993
304.1726, 58.58212
304.6547, 57.08495
305.1368, 55.85645
305.6190, 55.27489
306.1011, 54.79065
306.5832, 53.95250
307.0653, 52.74009
307.5474, 51.49125
308.0295, 50.46714
308.5117, 49.65566
308.9938, 48.88332
309.4759, 48.10103
309.9580, 47.40204
310.4401, 46.87021
310.9222, 46.47472
311.4044, 46.09678
311.8865, 45.62141
312.3686, 45.09447
312.8507, 44.72986
313.3328, 44.62590
313.8149, 44.52160
314.2971, 44.24302
314.7792, 43.86666
315.2613, 43.53646
315.7434, 43.35156
316.2255, 43.22905
316.7076, 42.97818
317.1898, 42.55285
317.6719, 42.11913
318.1540, 41.67303
318.6361, 41.28548
319.1182, 41.06240
319.6003, 41.06225
320.0825, 41.15656
320.5646, 41.19497
321.0467, 41.18117
321.5288, 41.08584
322.0109, 40.79493
322.4930, 40.48086
322.9752, 40.29850
323.4573, 40.27514
323.9394, 40.27063
324.4215, 40.09732
324.9036, 39.76264
325.3857, 39.62929
325.8679, 39.95708
326.3500, 40.30653
326.8321, 40.37932
327.3142, 40.19052
327.7963, 39.88676
328.2784, 39.46678
328.7606, 38.98491
329.2427, 38.71373
329.7248, 38.73329
330.2069, 38.86098
330.6890, 39.03127
331.1711, 39.21539
331.6533, 39.35027
332.1354, 39.39447
332.6175, 39.37840
333.0996, 39.34821
333.5817, 39.28533
334.0638, 39.26870
334.5460, 39.37809
335.0281, 39.54234
335.5102, 39.69346
335.9923, 39.82643
336.4744, 39.91472
336.9565, 39.89706
337.4387, 39.76423
337.9208, 39.68269
338.4029, 39.72169
338.8850, 39.83028
339.3671, 39.92451
339.8492, 39.98923
340.3314, 40.17416
340.8135, 40.74964
341.2956, 41.61852
341.7777, 42.08807
342.2598, 41.79577
342.7419, 41.41968
343.2241, 41.62090
343.7062, 42.28855
344.1883, 42.86767
344.6704, 42.95395
345.1525, 42.79089
345.6346, 42.96598
346.1168, 43.61933
346.5989, 44.25266
347.0810, 44.40493
347.5631, 44.29284
348.0452, 44.28196
348.5273, 44.47374
349.0095, 44.79737
349.4916, 45.23542
349.9737, 45.79089
350.4558, 46.24882
350.9379, 46.45985
351.4200, 46.53486
351.9022, 46.64395
352.3843, 46.77242
352.8664, 46.99593
353.3485, 47.41795
353.8306, 47.99029
354.3127, 48.53916
354.7949, 49.05603
355.2770, 49.46743
355.7591, 49.58838
356.2412, 49.41973
356.7233, 49.45054
357.2054, 50.06224
357.6876, 50.91657
358.1697, 51.45803
358.6518, 51.59127
359.1339, 51.58931
359.6160, 51.64843
360.0981, 51.76548
360.5803, 51.91824
361.0624, 52.19611
361.5445, 52.43958
362.0266, 52.54650
362.5087, 52.51165
362.9908, 52.29843
363.4730, 51.83549
363.9551, 51.20455
364.4372, 50.66667
364.9193, 50.29729
365.4014, 49.89167
365.8835, 49.35501
366.3657, 48.72640
366.8478, 48.04579
367.3299, 47.30534
367.8120, 46.61731
368.2941, 46.22425
368.7762, 46.24965
369.2584, 46.00984
369.7405, 45.13522
370.2226, 44.11621
370.7047, 43.49769
371.1868, 43.32226
371.6689, 43.15454
372.1511, 42.55778
372.6332, 41.50746
373.1153, 40.80947
373.5974, 40.69140
374.0795, 40.65721
374.5616, 40.53322
375.0438, 40.30285
375.5259, 39.91239
376.0080, 39.29808
376.4901, 38.58961
376.9722, 38.26243
377.4543, 38.64612
377.9365, 38.97772
378.4186, 39.20942
378.9007, 39.33831
379.3828, 39.31321
379.8649, 39.13319
380.3470, 38.93040
380.8292, 38.90417
381.3113, 39.16830
381.7934, 39.26228
382.2755, 39.04006
382.7576, 38.79809
383.2397, 38.69129
383.7219, 38.71907
384.2040, 38.81999
384.6861, 38.95345
385.1682, 39.11594
385.6503, 39.24425
386.1324, 39.32342
386.6146, 39.38225
387.0967, 39.36643
387.5788, 39.35211
388.0609, 39.48060
388.5430, 39.80943
389.0251, 40.17741
389.5073, 40.23140
389.9894, 39.75116
390.4715, 39.41425
390.9536, 39.18559
391.4357, 39.14060
391.9178, 39.44318
392.4000, 40.03405
392.8821, 40.59906
393.3642, 40.75770
393.8463, 40.48735
394.3284, 40.61695
394.8105, 41.67761
395.2927, 42.52998
395.7748, 42.66155
396.2569, 42.35540
396.7390, 42.08987
397.2211, 42.10026
397.7032, 42.29344
398.1854, 42.45111
398.6675, 42.52946
399.1496, 42.70938
399.6317, 43.24722
400.1138, 43.78212
400.5959, 43.98393
401.0780, 43.80311
401.5602, 43.56353
402.0423, 43.52044
402.5244, 43.66938
403.0065, 43.99549
403.4886, 44.63030
403.9707, 45.24751
404.4529, 45.58624
404.9350, 45.72521
405.4171, 45.88868
405.8992, 46.26536
406.3813, 46.67229
406.8634, 46.75886
407.3456, 46.48277
407.8277, 46.27964
408.3098, 46.41475
408.7919, 46.73449
409.2740, 46.99612
409.7561, 47.22310
410.2383, 47.29592
410.7204, 47.06684
411.2025, 46.62144
411.6846, 46.15536
412.1667, 45.65420
412.6488, 45.32267
413.1310, 45.53000
413.6131, 46.25700
414.0952, 46.86725
414.5773, 47.20689
415.0594, 47.41457
415.5415, 47.56132
416.0237, 47.67057
416.5058, 47.83781
416.9879, 48.12043
417.4700, 48.51559
417.9521, 49.00484
418.4342, 49.68639
418.9164, 50.32709
419.3985, 50.66918
419.8806, 50.99035
420.3627, 51.78483
420.8448, 53.20718
421.3269, 54.83486
421.8091, 56.01727
422.2912, 56.47224
422.7733, 57.28195
423.2554, 58.49363
423.7375, 59.97952
424.2196, 61.84898
424.7018, 63.94762
425.1839, 65.86227
425.6660, 67.26884
426.1481, 68.25572
426.6302, 69.47440
427.1123, 71.01475
427.5945, 72.69486
428.0766, 74.62022
428.5587, 76.60217
429.0408, 78.49033
429.5229, 80.22884
430.0050, 81.84914
430.4872, 83.33101
430.9693, 84.56318
431.4514, 86.09319
431.9335, 88.07886
432.4156, 90.27015
432.8977, 92.73557
433.3799, 95.34276
433.8620, 97.83749
434.3441, 100.0391
434.8262, 102.0186
435.3083, 103.9254
435.7904, 105.6722
436.2726, 107.5727
436.7547, 109.8995
437.2368, 112.3601
437.7189, 114.7305
438.2010, 116.9757
438.6831, 119.0588
439.1653, 120.9530
439.6474, 122.6562
440.1295, 124.2223
440.6116, 125.7672
441.0937, 126.9459
441.5758, 127.4654
442.0580, 127.4041
442.5401, 126.8422
443.0222, 125.6574
443.5043, 124.0803
443.9864, 122.2963
444.4685, 120.3151
444.9507, 118.1188
445.4328, 115.6377
445.9149, 112.9948
446.3970, 110.4944
446.8791, 108.1996
447.3612, 105.8562
447.8434, 103.2312
448.3255, 100.5959
448.8076, 98.32619
449.2897, 96.46341
449.7718, 94.73380
450.2539, 92.88908
450.7361, 90.91606
451.2182, 88.95301
451.7003, 87.18327
452.1824, 85.22681
452.6645, 82.94971
453.1466, 80.38228
453.6288, 77.52856
454.1109, 74.38152
454.5930, 71.15067
455.0751, 68.22787
455.5572, 65.73155
456.0393, 63.33459
456.5215, 60.98986
457.0036, 58.76693
457.4857, 56.68139
457.9678, 54.74856
458.4499, 52.96925
458.9320, 51.34507
459.4142, 49.87799
459.8963, 48.58715
460.3784, 47.63459
460.8605, 46.57230
461.3426, 45.12983
461.8247, 43.60572
462.3069, 42.24654
462.7890, 41.11468
463.2711, 40.22129
463.7532, 39.65618
464.2353, 39.39334
464.7174, 39.12643
465.1996, 38.86511
465.6817, 38.52226
466.1638, 37.95309
466.6459, 37.25620
467.1280, 36.68539
467.6101, 36.38055
468.0923, 36.18881
468.5744, 35.92088
469.0565, 35.59256
469.5386, 35.40617
470.0207, 35.49562
470.5028, 35.69793
470.9850, 35.75835
471.4671, 35.70803
471.9492, 35.44435
472.4313, 34.54276
472.9134, 33.64545
473.3955, 33.67146
473.8777, 34.58771
474.3598, 35.34248
474.8419, 35.08633
475.3240, 33.94173
475.8061, 33.12458
476.2882, 32.71489
476.7704, 32.47996
477.2525, 32.51816
477.7346, 32.64568
478.2167, 32.62062
478.6988, 32.38939
479.1809, 32.12507
479.6631, 32.06207
480.1452, 32.25816
480.6273, 32.36086
481.1094, 32.33033
481.5915, 32.24455
482.0736, 32.11276
482.5558, 31.94435
483.0379, 31.72758
483.5200, 31.44208
484.0021, 31.17625
484.4842, 31.14069
484.9663, 31.40951
485.4485, 31.20923
485.9306, 31.55666
486.4127, 31.74125
486.8948, 31.77176
487.3769, 31.18671
487.8590, 31.39653
488.3412, 31.28780
488.8233, 31.16600
489.3054, 31.48770
489.7875, 30.99218
490.2696, 31.30685
490.7517, 31.29810
491.2339, 31.43736
491.7160, 31.25611
492.1981, 31.17386
492.6802, 31.41223
493.1623, 31.13193
493.6444, 30.93618
494.1266, 30.76807
494.6087, 30.65587
495.0908, 30.61165
495.5729, 30.67451
496.0550, 30.84006
496.5371, 30.84047
497.0193, 30.48527
497.5014, 30.21221
497.9835, 30.23563
498.4656, 30.39354
498.9477, 30.46448
499.4298, 30.37363
499.9120, 30.17548
500.3941, 29.92221
500.8762, 29.54860
501.3583, 29.37615
501.8404, 29.60002
502.3225, 29.82726
502.8047, 29.96223
503.2868, 29.99212
503.7689, 29.88265
504.2510, 29.59119
504.7331, 29.26263
505.2152, 29.18382
505.6974, 29.39538
506.1795, 29.61079
506.6616, 29.86289
507.1437, 30.00720
507.6258, 29.86151
508.1079, 29.48495
508.5901, 29.20414
509.0722, 29.27109
509.5543, 29.47838
510.0364, 29.50835
510.5185, 29.36173
511.0006, 29.22003
511.4828, 29.16562
511.9649, 29.16984
512.4470, 29.16761
512.9291, 29.14334
513.4112, 29.16224
513.8933, 29.29371
514.3754, 29.44446
514.8575, 29.52933
515.3397, 29.53630
515.8218, 29.45551
516.3039, 29.25129
516.7860, 28.96605
517.2681, 28.90948
517.7502, 29.39157
518.2324, 29.71711
518.7145, 29.68105
519.1966, 29.54825
519.6787, 29.60821
520.1608, 29.88463
520.6429, 30.14334
521.1251, 30.11979
521.6072, 29.82525
522.0893, 29.67082
522.5714, 29.72508
523.0535, 29.81511
523.5356, 29.95201
524.0178, 30.05612
524.4999, 29.98552
524.9820, 29.68400
525.4641, 29.42584
525.9462, 29.52832
526.4283, 29.90497
526.9105, 30.15297
527.3926, 30.18264
527.8747, 30.18175
528.3568, 30.27677
528.8389, 30.46051
529.3210, 30.71145
529.8032, 31.14109
530.2853, 31.50773
530.7674, 31.64762
531.2495, 31.63574
531.7316, 31.60412
532.2137, 31.59056
532.6959, 31.59719
533.1780, 31.62251
533.6601, 31.65989
534.1422, 31.76266
534.6243, 32.02366
535.1064, 32.23915
535.5886, 32.25766
536.0707, 32.20217
536.5528, 32.29500
537.0349, 32.61870
537.5170, 33.00258
537.9991, 33.11543
538.4813, 32.85291
538.9634, 32.86240
539.4455, 33.37977
539.9276, 33.95123
540.4097, 34.38327
540.8918, 34.71138
541.3740, 35.00243
541.8561, 35.24058
542.3382, 35.54058
542.8203, 36.17766
543.3024, 37.08807
543.7845, 37.59278
544.2667, 37.36847
544.7488, 36.99950
545.2309, 37.16439
545.7130, 37.80178
546.1951, 38.42340
546.6772, 39.00532
547.1594, 39.50189
547.6415, 39.83281
548.1236, 40.05564
548.6057, 40.32817
549.0878, 40.71466
549.5699, 41.13281
550.0521, 41.44285
550.5342, 41.60033
551.0163, 41.77960
551.4984, 41.89372
551.9805, 42.11161
552.4626, 42.58786
552.9448, 43.21004
553.4269, 43.75463
553.9090, 44.10927
554.3911, 44.40598
554.8732, 44.94167
555.3553, 45.79474
555.8375, 46.34287
556.3196, 46.29018
556.8017, 46.15763
557.2838, 46.31886
557.7659, 46.67357
558.2480, 46.92680
558.7302, 46.88811
559.2123, 46.80656
559.6944, 46.99989
560.1765, 47.39109
560.6586, 47.60241
561.1407, 47.48168
561.6229, 47.27541
562.1050, 47.32311
562.5871, 47.68874
563.0692, 47.82068
563.5513, 47.57355
564.0334, 47.23127
564.5156, 46.89564
564.9977, 46.57756
565.4798, 46.28194
565.9619, 46.01094
566.4440, 45.74506
566.9261, 45.45927
567.4083, 45.16272
567.8904, 44.80762
568.3725, 44.30650
568.8546, 43.83627
569.3367, 43.54329
569.8188, 43.29902
570.3010, 42.88605
570.7831, 42.20609
571.2652, 41.41141
571.7473, 40.59644
572.2294, 39.78918
572.7115, 39.21339
573.1937, 38.95618
573.6758, 38.81844
574.1579, 38.76079
574.6400, 38.70438
575.1221, 38.32961
575.6042, 37.28441
576.0864, 36.28146
576.5685, 35.69044
577.0506, 35.37404
577.5327, 35.15477
578.0148, 34.97639
578.4969, 34.74759
578.9791, 34.34411
579.4612, 33.75102
579.9433, 33.36192
580.4254, 33.29366
580.9075, 33.30066
581.3896, 33.45425
581.8718, 33.60032
582.3539, 33.58838
582.8360, 33.38099
583.3181, 33.02265
583.8002, 32.41407
584.2823, 31.63202
584.7645, 31.31421
585.2466, 31.62354
585.7287, 31.93322
586.2108, 31.88005
586.6929, 31.66995
587.1750, 31.61922
587.6572, 31.79934
588.1393, 31.91926
588.6214, 31.82035
589.1035, 31.59844
589.5856, 31.33514
590.0677, 31.05616
590.5499, 30.86341
591.0320, 30.83301
591.5141, 30.92181
591.9962, 30.96991
592.4783, 30.89179
592.9604, 30.89566
593.4426, 31.08661
593.9247, 31.27480
594.4068, 31.30567
594.8889, 31.20855
595.3710, 31.12015
595.8531, 31.13011
596.3353, 31.20191
596.8174, 31.22702
597.2995, 31.17646
597.7816, 31.26123
598.2637, 31.65947
598.7458, 32.06537
599.2280, 32.18168
599.7101, 32.06173
600.1922, 31.99919
600.6743, 32.05467
601.1564, 32.23013
601.6385, 32.57169
602.1207, 33.03765
602.6028, 33.50379
603.0849, 33.92507
603.5670, 34.35124
604.0491, 34.83297
604.5313, 35.35477
605.0134, 36.03708
605.4955, 36.98817
605.9776, 37.95459
606.4597, 38.84562
606.9418, 39.71279
607.4240, 40.67482
607.9061, 41.74389
608.3882, 42.70275
608.8703, 43.20983
609.3524, 43.30949
609.8345, 43.63298
610.3167, 44.27285
610.7988, 44.91823
611.2809, 45.31079
611.7630, 45.66885
612.2451, 46.30985
612.7272, 47.29969
613.2094, 48.37525
613.6915, 49.49265
614.1736, 50.59022
614.6557, 51.46000
615.1378, 52.16800
615.6199, 53.18591
616.1021, 54.83951
616.5842, 56.88147
617.0663, 58.55746
617.5484, 59.27443
618.0305, 60.67796
618.5126, 63.05758
618.9948, 65.78424
619.4769, 68.75404
619.9590, 71.75733
620.4411, 74.50253
620.9232, 76.94006
621.4053, 78.73709
621.8875, 79.34563
622.3696, 78.77500
622.8517, 77.48699
623.3338, 75.61877
623.8159, 72.91833
624.2980, 68.76151
624.7802, 63.56512
625.2623, 58.65550
625.7444, 54.02046
626.2265, 49.91672
626.7086, 46.45337
627.1907, 43.57553
627.6729, 41.32240
628.1550, 39.64156
628.6371, 38.18635
629.1192, 36.62659
629.6013, 35.02022
630.0834, 33.90944
630.5656, 33.53637
631.0477, 33.26859
631.5298, 33.08797
632.0119, 32.91013
632.4940, 32.61922
632.9761, 32.25122
633.4583, 32.00139
633.9404, 32.04786
634.4225, 32.22664
634.9046, 32.30161
635.3867, 32.27409
635.8688, 32.13042
636.3510, 31.81896
636.8331, 31.50442
637.3152, 31.38682
637.7973, 31.48689
638.2794, 31.61644
638.7615, 31.84604
639.2437, 32.02433
639.7258, 32.03140
640.2079, 31.97303
640.6900, 32.02798
641.1721, 32.22635
641.6542, 32.40187
642.1364, 32.34052
642.6185, 32.07241
643.1006, 32.01519
643.5827, 32.26952
644.0648, 32.51235
644.5469, 32.62291
645.0291, 32.67526
645.5112, 32.78728
645.9933, 32.96187
646.4754, 32.92693
646.9575, 32.27382
647.4396, 31.55649
647.9218, 31.51087
648.4039, 31.97949
648.8860, 32.21445
649.3681, 31.90158
649.8502, 31.32986
650.3323, 30.92603
650.8145, 30.71908
651.2966, 30.55029
651.7787, 30.50454
652.2608, 30.39810
652.7429, 30.11051
653.2250, 29.76035
653.7072, 29.50585
654.1893, 29.38373
654.6714, 29.29612
655.1535, 29.20809
655.6356, 29.08102
656.1177, 28.71190
656.5999, 28.05237
657.0820, 27.53174
657.5641, 27.37539
658.0462, 27.44671
658.5283, 27.52241
659.0104, 27.61783
659.4926, 27.64760
659.9747, 27.52903
660.4568, 27.40814
660.9389, 27.40304
661.4210, 27.46202
661.9031, 27.46820
662.3853, 27.37623
662.8674, 27.23949
663.3495, 27.13095
663.8316, 27.05268
664.3137, 26.96629
664.7958, 26.87624
665.2780, 26.76963
665.7601, 26.59546
666.2422, 26.42276
666.7243, 26.34528
667.2064, 26.38264
667.6885, 26.42688
668.1707, 26.42451
668.6528, 26.40517
669.1349, 26.39557
669.6170, 26.39957
670.0991, 26.43936
670.5812, 26.53171
671.0634, 26.60635
671.5455, 26.52171
672.0276, 26.20292
672.5097, 26.01273
672.9918, 26.09102
673.4739, 26.14734
673.9561, 26.09461
674.4382, 25.97087
674.9203, 25.79788
675.4024, 25.58271
675.8845, 25.43827
676.3666, 25.49165
676.8488, 25.67153
677.3309, 25.86198
677.8130, 26.05348
678.2951, 26.12131
678.7772, 25.97551
679.2593, 25.73093
679.7415, 25.59873
680.2236, 25.62980
680.7057, 25.62042
681.1878, 25.51666
681.6699, 25.43081
682.1520, 25.40561
682.6342, 25.43371
683.1163, 25.50318
683.5984, 25.60942
684.0805, 25.74140
684.5626, 25.93014
685.0447, 26.14529
685.5269, 26.21821
686.0090, 26.13589
686.4911, 25.96282
686.9732, 25.65622
687.4553, 25.33768
687.9374, 25.22478
688.4196, 25.33443
688.9017, 25.43483
689.3838, 25.50689
689.8659, 25.54486
690.3480, 25.55029
690.8301, 25.51797
691.3123, 25.40122
691.7944, 25.19923
692.2765, 25.04991
692.7586, 25.16181
693.2407, 25.50290
693.7228, 25.58714
694.2050, 25.30044
694.6871, 25.06656
695.1692, 25.07105
695.6513, 25.17080
696.1334, 25.19939
696.6155, 25.15594
697.0977, 25.17185
697.5798, 25.38504
698.0619, 25.57799
698.5440, 25.58135
699.0261, 25.44635
699.5082, 25.23445
699.9904, 24.97988
700.4725, 24.82756
700.9546, 24.97024
701.4367, 25.37726
701.9188, 25.56472
702.4009, 25.39831
702.8831, 25.27871
703.3652, 25.41332
703.8473, 25.54961
704.3294, 25.46083
704.8115, 25.17703
705.2936, 24.94436
705.7758, 24.87278
706.2579, 24.87728
706.7400, 24.90186
707.2221, 24.94641
707.7042, 25.00949
708.1863, 25.09103
708.6685, 25.21209
709.1505, 25.41846
709.6326, 25.67112
710.1147, 25.64295
710.5969, 25.04565
711.0790, 24.69954
711.5611, 24.91076
712.0432, 25.21507
712.5253, 25.33945
713.0074, 25.30667
713.4896, 25.24435
713.9717, 25.17823
714.4538, 25.14241
714.9359, 25.24294
715.4180, 25.38239
715.9001, 25.26981
716.3823, 24.87772
716.8644, 24.57056
717.3465, 24.63501
717.8286, 24.95816
718.3107, 25.11560
718.7928, 24.95894
719.2750, 24.91736
719.7571, 25.15728
720.2392, 25.35385
720.7213, 25.32634
721.2034, 25.14168
721.6855, 24.93302
722.1677, 24.73794
722.6498, 24.55857
723.1319, 24.35823
723.6140, 24.18645
724.0961, 24.14792
724.5782, 24.24793
725.0604, 24.47211
725.5425, 24.85324
726.0246, 25.23112
726.5067, 25.25622
726.9888, 24.75936
727.4709, 24.42491
727.9531, 24.30609
728.4352, 24.28616
728.9173, 24.38099
729.3994, 24.52868
729.8815, 24.68930
730.3636, 24.84794
730.8458, 24.89528
731.3279, 24.69066
731.8100, 24.35888
732.2921, 24.04260
732.7742, 23.76919
733.2563, 23.70325
733.7385, 23.92522
734.2206, 24.23228
734.7027, 24.35810
735.1848, 24.28475
735.6669, 24.30213
736.1490, 24.54895
736.6312, 24.70768
737.1133, 24.68527
737.5954, 24.58684
738.0775, 24.49223
738.5596, 24.41070
739.0417, 24.32650
739.5239, 24.22720
740.0060, 24.12523
740.4881, 23.98630
740.9702, 23.85571
741.4523, 23.92182
741.9344, 24.22190
742.4166, 24.50940
742.8987, 24.57805
743.3808, 24.46420
743.8629, 24.34550
744.3450, 24.20113
744.8271, 24.09069
745.3093, 24.02800
745.7914, 23.98741
746.2735, 23.93035
746.7556, 23.89013
747.2377, 23.95604
747.7198, 24.18817
748.2020, 24.38898
748.6841, 24.36000
749.1662, 24.22103
749.6483, 24.20585
750.1304, 24.30639
750.6125, 24.31141
751.0947, 24.09900
751.5768, 23.82158
752.0589, 23.76039
752.5410, 23.96481
753.0231, 24.15878
753.5052, 24.42238
753.9874, 24.56321
754.4695, 24.39867
754.9516, 24.16539
755.4337, 24.13574
755.9158, 24.33320
756.3979, 24.52993
756.8801, 24.66411
757.3622, 24.71176
757.8443, 24.58618
758.3264, 24.36454
758.8085, 24.25546
759.2906, 24.30397
759.7728, 24.32590
760.2549, 24.11576
760.7370, 23.74150
761.2191, 23.65164
761.7012, 23.96379
762.1833, 24.24566
762.6655, 24.44565
763.1476, 24.57006
763.6297, 24.62164
764.1118, 24.60595
764.5939, 24.53604
765.0760, 24.40059
765.5582, 24.23992
766.0403, 23.97850
766.5224, 23.76514
767.0045, 23.82465
767.4866, 24.10217
767.9688, 24.37346
768.4509, 24.52873
768.9330, 24.53626
769.4151, 24.26294
769.8972, 23.68704
770.3793, 23.38626
770.8615, 23.43104
771.3436, 23.59833
771.8257, 23.88230
772.3078, 24.17008
772.7899, 24.27016
773.2720, 24.16429
773.7542, 24.12022
774.2363, 24.24707
774.7184, 24.37127
775.2005, 24.42708
775.6826, 24.41690
776.1647, 24.30772
776.6469, 24.12390
777.1290, 24.00452
777.6111, 24.09998
778.0932, 24.27096
778.5753, 24.11943
779.0574, 23.66451
779.5396, 23.48524
780.0217, 23.74171
780.5038, 24.11908
780.9859, 24.42661
781.4680, 24.64611
781.9501, 24.69440
782.4323, 24.39518
782.9144, 24.22045
783.3965, 24.36901
783.8786, 24.46965
784.3607, 24.17963
784.8428, 23.73102
785.3250, 23.59532
785.8071, 23.92292
786.2892, 24.27261
786.7713, 24.20320
787.2534, 23.93035
787.7355, 23.86773
788.2177, 24.00024
788.6998, 24.12076
789.1819, 24.15433
789.6640, 24.14387
790.1461, 24.12695
790.6282, 24.10409
791.1104, 24.21230
791.5925, 24.65333
792.0746, 24.88098
792.5567, 24.59463
793.0388, 24.25040
793.5209, 24.19477
794.0031, 24.35665
794.4852, 24.44271
794.9673, 24.32703
795.4494, 24.19539
795.9315, 24.15841
796.4136, 24.17567
796.8958, 24.22391
797.3779, 24.27902
797.8600, 24.26094
798.3421, 24.12511
798.8242, 23.96572
799.3063, 23.95185
799.7885, 24.08951
800.2706, 24.18149
800.7527, 24.20426
801.2348, 24.25287
801.7169, 24.39371
802.1990, 24.55313
802.6812, 24.62541
803.1633, 24.61157
803.6454, 24.58959
804.1275, 24.61259
804.6096, 24.57279
805.0917, 24.33177
805.5739, 24.07556
806.0560, 24.02167
806.5381, 24.15350
807.0202, 24.30383
807.5023, 24.39582
807.9844, 24.39993
808.4666, 24.18253
808.9487, 23.83373
809.4308, 23.77485
809.9129, 24.06008
810.3950, 24.23437
810.8771, 24.00375
811.3593, 23.58369
811.8414, 23.42003
812.3235, 23.59885
812.8056, 23.70801
813.2877, 23.71155
813.7698, 23.68818
814.2520, 23.60832
814.7341, 23.54512
815.2162, 23.60164
815.6983, 23.76938
816.1804, 23.89038
816.6625, 23.89074
817.1447, 23.83225
817.6268, 23.68202
818.1089, 23.53721
818.5910, 23.61407
819.0731, 23.89012
819.5552, 24.07094
820.0374, 23.94830
820.5195, 23.70423
821.0016, 23.75115
821.4837, 24.10024
821.9658, 24.32654
822.4479, 24.38323
822.9301, 24.37324
823.4122, 24.33912
823.8943, 24.27535
824.3764, 24.13735
824.8585, 23.87232
825.3406, 23.81530
825.8228, 24.27157
826.3049, 24.58080
826.7870, 24.32266
827.2691, 23.93580
827.7512, 23.95483
828.2333, 24.34664
828.7155, 24.60676
829.1976, 24.38287
829.6797, 24.06651
830.1618, 24.16527
830.6439, 24.49586
831.1260, 24.59011
831.6082, 24.41486
832.0903, 24.25915
832.5724, 24.29124
833.0545, 24.42682
833.5366, 24.50507
834.0187, 24.52008
834.5009, 24.52756
834.9830, 24.57015
835.4651, 24.51449
835.9472, 24.20952
836.4293, 23.86326
836.9114, 23.70092
837.3936, 23.71773
837.8757, 23.78359
838.3578, 23.95520
838.8399, 24.07625
839.3220, 24.03460
839.8041, 23.95440
840.2863, 23.94617
840.7684, 24.01762
841.2505, 24.15801
841.7326, 24.37745
842.2147, 24.55607
842.6968, 24.52169
843.1790, 24.33786
843.6611, 24.16000
844.1432, 24.00274
844.6253, 23.91738
845.1074, 23.93133
845.5895, 23.98872
846.0717, 24.01105
846.5538, 23.99763
847.0359, 24.05318
847.5180, 24.25832
848.0001, 24.37177
848.4822, 24.25650
848.9644, 24.11856
849.4465, 24.13365
849.9286, 24.24030
850.4107, 23.89662
850.8928, 24.31440
851.3749, 24.54218
851.8571, 24.59015
852.3392, 23.91983
852.8213, 24.17705
853.3034, 24.06255
853.7855, 23.93281
854.2676, 24.32058
854.7498, 23.75473
855.2319, 24.13429
855.7140, 24.13646
856.1961, 24.31135
856.6782, 24.11223
857.1603, 24.02863
857.6425, 24.31916
858.1246, 24.40253
858.6067, 24.16035
859.0888, 24.34622
859.5709, 23.76731
860.0530, 23.85951
860.5352, 24.24125
861.0173, 24.01789
861.4994, 24.21060
861.9815, 23.81773
862.4636, 23.70990
862.9457, 23.73366
863.4279, 23.90970
863.9100, 24.08576
864.3921, 24.29865
864.8742, 24.41758
865.3563, 24.26202
865.8384, 24.04215
866.3206, 24.04689
866.8027, 24.25549
867.2848, 24.42500
867.7669, 24.42421
868.2490, 24.29631
868.7311, 23.99430
869.2133, 23.62473
869.6954, 23.56983
870.1775, 23.82441
870.6596, 23.92656
871.1417, 23.65266
871.6238, 23.26160
872.1060, 23.11252
872.5881, 23.20439
873.0702, 23.30875
873.5523, 23.43903
874.0344, 23.55158
874.5165, 23.68322
874.9987, 23.74233
875.4808, 23.54583
875.9629, 23.21691
876.4450, 23.15040
876.9271, 23.55709
877.4092, 23.59146
877.8914, 23.85926
878.3735, 24.00110
878.8556, 24.02377
879.3377, 23.56828
879.8198, 23.73184
880.3019, 23.64830
880.7841, 23.55530
881.2662, 23.80800
881.7483, 23.42566
882.2304, 23.67430
882.7125, 23.67204
883.1946, 23.78563
883.6768, 23.65058
884.1589, 23.59325
884.6410, 23.78604
885.1231, 23.84142
885.6052, 23.68048
886.0873, 23.80560
886.5695, 23.42157
887.0516, 23.48564
887.5337, 23.74345
888.0158, 23.59854
888.4979, 23.73173
888.9800, 23.75997
889.4622, 23.30881
889.9443, 23.69330
890.4264, 23.71740
890.9085, 23.37145
891.3906, 23.72943
891.8727, 23.43600
892.3549, 23.37603
892.8370, 23.49193
893.3191, 23.42593
893.8012, 23.36798
894.2833, 23.29288
894.7654, 23.36865
895.2476, 23.47909
895.7297, 23.52922
896.2118, 23.54403
896.6939, 23.59014
897.1760, 23.66574
897.6581, 23.67993
898.1403, 23.55253
898.6224, 23.38156
899.1045, 23.30115
899.5866, 23.31493
900.0687, 23.51225
900.5508, 23.89039
901.0330, 24.04179
901.5151, 23.74152
901.9972, 23.30570
902.4793, 23.21542
902.9614, 23.47119
903.4435, 23.59996
903.9257, 23.54963
904.4078, 23.51431
904.8899, 23.58475
905.3720, 23.61418
905.8541, 23.41755
906.3362, 23.09604
906.8184, 22.97595
907.3005, 23.17334
907.7826, 23.29963
908.2647, 23.31009
908.7468, 23.23657
909.2289, 22.98155
909.7111, 22.71716
910.1932, 22.64268
910.6753, 22.78054
911.1574, 23.04932
911.6395, 23.56715
912.1216, 23.96502
912.6038, 23.84296
913.0859, 23.47448
913.5680, 23.18970
914.0501, 23.03542
914.5322, 22.99829
915.0143, 23.07098
915.4965, 23.20591
915.9786, 23.40085
916.4607, 23.60237
916.9428, 23.56976
917.4249, 23.32514
917.9070, 23.18381
918.3892, 23.22963
918.8713, 23.30334
919.3534, 23.26941
919.8355, 23.18513
920.3176, 23.25205
920.7997, 23.56412
921.2819, 23.66154
921.7640, 23.41205
922.2461, 23.19620
922.7282, 23.19858
923.2103, 23.27847
923.6924, 23.24019
924.1746, 23.09410
924.6567, 23.05747
925.1388, 23.25429
925.6209, 23.39825
926.1030, 23.38924
926.5851, 23.35815
927.0673, 23.39475
927.5494, 23.47315
928.0315, 23.54789
928.5136, 23.60919
928.9957, 23.61722
929.4778, 23.54461
929.9600, 23.41708
930.4421, 23.24835
930.9242, 23.04127
931.4063, 22.70527
931.8884, 22.31273
932.3705, 22.21598
932.8527, 22.65296
933.3348, 23.16565
933.8169, 23.04343
934.2990, 22.55499
934.7811, 22.47480
935.2632, 22.77981
935.7454, 23.05883
936.2275, 23.17724
936.7096, 23.20003
937.1917, 23.18350
937.6738, 23.13350
938.1559, 23.05989
938.6381, 22.95331
939.1202, 22.91439
939.6023, 22.97992
940.0844, 23.01673
940.5665, 22.92151
941.0486, 22.81129
941.5308, 22.90554
942.0129, 23.24348
942.4950, 23.34997
942.9771, 22.97903
943.4592, 22.74862
943.9413, 22.88450
944.4235, 23.04434
944.9056, 22.98066
945.3877, 22.79191
945.8698, 22.70162
946.3519, 22.75124
946.8340, 22.83707
947.3162, 23.04552
947.7983, 23.15457
948.2804, 22.88396
948.7625, 22.55979
949.2446, 22.62821
949.7267, 23.02747
950.2089, 23.31768
950.6910, 23.30413
951.1731, 23.13966
951.6552, 22.79658
952.1373, 22.47805
952.6194, 22.49082
953.1016, 22.73644
953.5837, 22.98322
954.0658, 23.14329
954.5479, 23.14614
955.0300, 22.88302
955.5121, 22.52827
955.9943, 22.42147
956.4763, 22.50482
956.9584, 22.53982
957.4406, 22.50723
957.9227, 22.53342
958.4048, 22.68126
958.8869, 22.86032
959.3690, 22.96223
959.8511, 22.98431
960.3333, 22.86706
960.8154, 22.57397
961.2975, 22.42815
961.7796, 22.51916
962.2617, 22.66176
962.7438, 22.75296
963.2260, 22.79630
963.7081, 22.79493
964.1902, 22.73922
964.6723, 22.68970
965.1544, 22.64487
965.6365, 22.60900
966.1187, 22.57972
966.6008, 22.56332
967.0829, 22.55912
967.5650, 22.57141
968.0471, 22.61388
968.5292, 22.69300
969.0114, 22.78703
969.4935, 22.95662
969.9756, 23.06626
970.4577, 23.05421
970.9398, 22.95339
971.4219, 22.76167
971.9041, 22.51086
972.3862, 22.31249
972.8683, 22.19308
973.3504, 22.15926
973.8325, 22.25629
974.3146, 22.40219
974.7968, 22.54835
975.2789, 22.67890
975.7610, 22.77664
976.2431, 22.83942
976.7252, 22.87520
977.2073, 22.85043
977.6895, 22.86935
978.1716, 23.17614
978.6537, 23.53878
979.1358, 23.48069
979.6179, 23.08732
980.1000, 22.83014
980.5822, 22.87623
981.0643, 22.96090
981.5464, 22.77821
982.0285, 22.48835
982.5106, 22.49332
982.9927, 22.73633
983.4749, 22.93590
983.9570, 23.05688
984.4391, 23.26069
984.9212, 23.64614
985.4033, 23.99225
985.8854, 23.92618
986.3676, 23.51752
986.8497, 23.39087
987.3318, 23.56797
987.8139, 23.77161
988.2960, 23.94386
988.7781, 24.16782
989.2603, 24.52020
989.7424, 24.92244
990.2245, 25.21167
990.7066, 25.37339
991.1887, 25.52681
991.6708, 25.60146
992.1530, 25.85283
992.6351, 26.41961
993.1172, 27.06215
993.5993, 27.57221
994.0814, 28.02583
994.5635, 28.65325
995.0457, 29.49137
995.5278, 30.39788
996.0099, 31.37411
996.4920, 32.42279
996.9741, 33.45509
997.4562, 34.63543
997.9384, 36.19207
998.4205, 38.02046
998.9026, 39.75430
999.3847, 41.41875
999.8668, 42.79094
1000.349, 43.31536
1000.831, 44.13597
1001.313, 46.09251
1001.795, 48.42692
1002.277, 50.23219
1002.760, 51.57207
1003.242, 53.19422
1003.724, 55.33139
1004.206, 57.75322
1004.688, 60.43015
1005.170, 63.28529
1005.652, 66.37070
1006.134, 69.55538
1006.616, 72.69527
1007.099, 75.75124
1007.581, 78.70156
1008.063, 81.53500
1008.545, 84.29910
1009.027, 87.56016
1009.509, 90.36863
1009.991, 91.95849
1010.473, 92.09374
1010.956, 90.42635
1011.438, 86.91528
1011.920, 81.75563
1012.402, 74.58772
1012.884, 67.00330
1013.366, 60.78394
1013.848, 55.63297
1014.330, 50.95388
1014.812, 46.77372
1015.295, 43.52477
1015.777, 41.28135
1016.259, 39.54831
1016.741, 37.90749
1017.223, 36.48580
1017.705, 35.57137
1018.187, 35.07137
1018.669, 34.68105
1019.151, 34.38114
1019.634, 34.33213
1020.116, 34.58486
1020.598, 34.76429
1021.080, 34.45949
1021.562, 33.84254
1022.044, 33.39294
1022.526, 33.09619
1023.008, 32.83889
1023.491, 32.60978
1023.973, 32.25782
1024.455, 31.70431
1024.937, 31.15818
1025.419, 30.87798
1025.901, 30.79230
1026.383, 30.60664
1026.865, 30.33052
1027.348, 29.73081
1027.830, 28.69942
1028.312, 27.85891
1028.794, 27.50294
1029.276, 27.42810
1029.758, 27.42847
1030.240, 27.46947
1030.722, 27.24981
1031.204, 26.69983
1031.687, 26.19062
1032.169, 25.71836
1032.651, 25.41170
1033.133, 25.38099
1033.615, 25.46205
1034.097, 25.44919
1034.579, 25.34740
1035.061, 25.23067
1035.543, 25.09133
1036.026, 24.96300
1036.508, 24.88983
1036.990, 24.74220
1037.472, 24.37161
1037.954, 23.99140
1038.436, 23.93754
1038.918, 24.19153
1039.400, 24.18189
1039.883, 23.62112
1040.365, 23.34099
1040.847, 23.64387
1041.329, 23.89578
1041.811, 23.71535
1042.293, 23.40413
1042.775, 23.41032
1043.257, 23.71993
1043.740, 23.77149
1044.222, 23.37716
1044.704, 23.01586
1045.186, 22.58558
1045.668, 22.33782
1046.150, 22.55315
1046.632, 22.90087
1047.114, 22.92975
1047.596, 22.66240
1048.078, 22.58319
1048.561, 22.92277
1049.043, 23.16416
1049.525, 23.22711
1050.007, 23.20268
1050.489, 23.06648
1050.971, 22.91171
1051.453, 22.85889
1051.935, 22.90061
1052.418, 22.91642
1052.900, 22.87157
1053.382, 22.82611
1053.864, 22.73020
1054.346, 22.70582
1054.828, 22.89942
1055.310, 23.14422
1055.792, 23.23002
1056.275, 23.16644
1056.757, 23.11902
1057.239, 23.14323
1057.721, 23.14647
1058.203, 23.10062
1058.685, 23.03077
1059.167, 22.93416
1059.649, 22.83261
1060.131, 22.71890
1060.614, 22.61779
1061.096, 22.64503
1061.578, 22.93815
1062.060, 23.07391
1062.542, 22.73564
1063.024, 22.39745
1063.506, 22.25818
1063.988, 22.31582
1064.470, 22.68108
1064.953, 23.23066
1065.435, 23.54031
1065.917, 23.44678
1066.399, 23.29333
1066.881, 23.15777
1067.363, 23.06814
1067.845, 23.06330
1068.327, 23.09620
1068.810, 23.11359
1069.292, 23.12159
1069.774, 23.13761
1070.256, 23.14300
1070.738, 23.29279
1071.220, 23.86733
1071.702, 24.35296
1072.184, 24.33185
1072.667, 24.16238
1073.149, 24.28794
1073.631, 24.58753
1074.113, 24.59722
1074.595, 24.16095
1075.077, 23.86905
1075.559, 24.10464
1076.041, 24.41517
1076.523, 24.57764
1077.005, 24.66797
1077.488, 24.74730
1077.970, 24.82658
1078.452, 24.91508
1078.934, 25.01477
1079.416, 25.08729
1079.898, 25.03657
1080.380, 25.05511
1080.862, 25.29174
1081.344, 25.59864
1081.827, 25.78775
1082.309, 25.96665
1082.791, 26.40829
1083.273, 27.13785
1083.755, 27.73718
1084.237, 27.95031
1084.719, 28.11255
1085.201, 28.31885
1085.684, 28.59894
1086.166, 29.04116
1086.648, 29.54000
1087.130, 29.88177
1087.612, 30.07767
1088.094, 30.45335
1088.576, 31.25159
1089.058, 31.99955
1089.541, 32.30059
1090.023, 32.68668
1090.505, 33.62495
1090.987, 34.81879
1091.469, 35.86345
1091.951, 36.75129
1092.433, 37.71834
1092.915, 38.84458
1093.397, 40.02046
1093.880, 41.17099
1094.362, 42.38914
1094.844, 43.69747
1095.326, 45.11344
1095.808, 46.65142
1096.290, 48.30543
1096.772, 50.12650
1097.254, 52.18767
1097.736, 54.05721
1098.219, 55.43829
1098.701, 56.77288
1099.183, 58.22799
1099.665, 59.76049
1100.147, 61.30978
1100.629, 62.90551
1101.111, 64.59795
1101.593, 66.39338
1102.076, 68.44838
1102.558, 71.25867
1103.040, 73.72250
1103.522, 75.29374
1104.004, 76.60136
1104.486, 77.92872
1104.968, 79.36551
1105.450, 81.15385
1105.932, 83.27792
1106.415, 84.85167
1106.897, 85.78366
1107.379, 86.02918
1107.861, 85.41385
1108.343, 84.29911
1108.825, 82.77126
1109.307, 80.90820
1109.789, 78.75372
1110.271, 76.33718
1110.754, 73.74566
1111.236, 71.09788
1111.718, 68.06474
1112.200, 64.21190
1112.682, 60.48107
1113.164, 57.05599
1113.646, 53.97167
1114.128, 51.35140
1114.611, 49.07605
1115.093, 46.77488
1115.575, 44.33097
1116.057, 42.18367
1116.539, 40.31855
1117.021, 38.77504
1117.503, 37.73798
1117.985, 36.81387
1118.468, 35.71851
1118.950, 34.58885
1119.432, 33.69294
1119.914, 33.04661
1120.396, 32.43755
1120.878, 31.81915
1121.360, 31.34226
1121.842, 31.06829
1122.324, 30.87156
1122.807, 30.76704
1123.289, 30.60485
1123.771, 30.15481
1124.253, 29.46376
1124.735, 28.90735
1125.217, 28.45360
1125.699, 28.27429
1126.181, 28.50558
1126.663, 28.58746
1127.146, 28.25306
1127.628, 27.91657
1128.110, 27.99236
1128.592, 28.30890
1129.074, 28.33167
1129.556, 28.01548
1130.038, 27.91279
1130.520, 28.06197
1131.003, 28.13425
1131.485, 28.03506
1131.967, 27.98794
1132.449, 28.14288
1132.931, 28.40566
1133.413, 28.62915
1133.895, 28.81894
1134.377, 29.03275
1134.859, 29.26846
1135.342, 29.40706
1135.824, 29.43417
1136.306, 29.42794
1136.788, 29.41955
1137.270, 29.47074
1137.752, 29.63866
1138.234, 29.93023
1138.716, 30.44509
1139.198, 31.09938
1139.681, 31.49959
1140.163, 31.66437
1140.645, 31.85208
1141.127, 32.13051
1141.609, 32.39629
1142.091, 32.56829
1142.573, 32.76408
1143.055, 33.17848
1143.538, 33.71574
1144.020, 34.23302
1144.502, 34.69494
1144.984, 34.96216
1145.466, 35.08606
1145.948, 35.35695
1146.430, 35.89658
1146.912, 36.46251
1147.395, 36.83664
1147.877, 37.13351
1148.359, 37.55239
1148.841, 37.92950
1149.323, 37.93314
1149.805, 37.73200
1150.287, 37.78831
1150.769, 38.15818
1151.251, 38.42104
1151.734, 38.33706
1152.216, 38.14183
1152.698, 37.95861
1153.180, 37.76138
1153.662, 37.55696
1154.144, 37.30859
1154.626, 36.95152
1155.108, 36.50922
1155.590, 36.06651
1156.073, 35.64289
1156.555, 35.24586
1157.037, 35.02279
1157.519, 34.63555
1158.001, 33.61903
1158.483, 32.70562
1158.965, 32.63544
1159.447, 32.96594
1159.930, 32.92841
1160.412, 32.46101
1160.894, 31.87158
1161.376, 31.12198
1161.858, 30.36669
1162.340, 29.56258
1162.822, 28.82949
1163.304, 28.20856
1163.786, 27.68687
1164.269, 27.26319
1164.751, 26.92509
1165.233, 26.61982
1165.715, 26.33174
1166.197, 26.17133
1166.679, 26.24485
1167.161, 26.12908
1167.643, 25.66554
1168.125, 25.19646
1168.608, 24.91926
1169.090, 24.76159
1169.572, 24.62976
1170.054, 24.51163
1170.536, 24.30264
1171.018, 23.99475
1171.500, 23.77254
1171.982, 23.65361
1172.465, 23.55490
1172.947, 23.45101
1173.429, 23.25459
1173.911, 22.86286
1174.393, 22.46669
1174.875, 22.57147
1175.357, 22.96013
1175.839, 22.63166
1176.322, 21.80762
1176.804, 21.53873
1177.286, 21.91204
1177.768, 22.28093
1178.250, 22.34837
1178.732, 22.28902
1179.214, 22.26756
1179.696, 22.21322
1180.178, 21.95173
1180.661, 21.64658
1181.143, 21.63041
1181.625, 21.76004
1182.107, 21.63010
1182.589, 21.22069
1183.071, 20.92004
1183.553, 20.94395
1184.035, 20.97821
1184.517, 20.78234
1185.000, 20.57705
1185.482, 20.51382
1185.964, 20.52612
1186.446, 20.51534
1186.928, 20.52351
1187.410, 20.74521
1187.892, 21.22291
1188.374, 21.35468
1188.857, 20.66056
1189.339, 20.11627
1189.821, 20.02997
1190.303, 20.01015
1190.785, 19.80066
1191.267, 19.61528
1191.749, 19.74601
1192.231, 20.09145
1192.714, 20.24907
1193.196, 20.15164
1193.678, 20.14215
1194.160, 20.31499
1194.642, 20.28496
1195.124, 19.86621
1195.606, 19.57180
1196.088, 19.74009
1196.570, 20.06927
1197.052, 20.13610
1197.535, 19.99675
1198.017, 19.94253
1198.499, 19.96925
1198.981, 19.87268
1199.463, 19.64744
1199.945, 19.51734
1200.427, 19.54056
1200.909, 19.52338
1201.392, 19.32056
1201.874, 19.10958
1202.356, 19.17652
1202.838, 19.39910
1203.320, 19.55080
1203.802, 19.63412
1204.284, 19.64286
1204.766, 19.59402
1205.249, 19.53185
1205.731, 19.47092
1206.213, 19.39495
1206.695, 19.25530
1207.177, 19.18940
1207.659, 19.44953
1208.141, 19.67800
1208.623, 19.47296
1209.105, 19.10983
1209.588, 18.93192
1210.070, 18.93033
1210.552, 18.94616
1211.034, 18.94698
1211.516, 18.96503
1211.998, 19.16131
1212.480, 19.14999
1212.962, 18.49301
1213.444, 18.00916
1213.927, 18.34309
1214.409, 18.89585
1214.891, 19.01475
1215.373, 18.79471
1215.855, 18.64382
1216.337, 18.52960
1216.819, 18.65915
1217.301, 19.12266
1217.784, 19.49811
1218.266, 19.72568
1218.748, 19.69649
1219.230, 19.30639
1219.712, 18.84167
1220.194, 18.66666
1220.676, 18.71664
1221.158, 18.83903
1221.641, 18.99855
1222.123, 18.97615
1222.605, 18.79763
1223.087, 18.63799
1223.569, 18.55020
1224.051, 18.57803
1224.533, 18.75320
1225.015, 18.90382
1225.497, 18.75265
1225.979, 18.58661
1226.462, 18.81799
1226.944, 19.18125
1227.426, 19.37390
1227.908, 19.39377
1228.390, 19.24971
1228.872, 18.98927
1229.354, 18.82869
1229.836, 18.85143
1230.319, 18.94963
1230.801, 19.23262
1231.283, 19.39258
1231.765, 19.21709
1232.247, 18.94880
1232.729, 18.73406
1233.211, 18.57930
1233.693, 18.47669
1234.176, 18.42704
1234.658, 18.45489
1235.140, 18.57827
1235.622, 18.74275
1236.104, 18.99312
1236.586, 19.10613
1237.068, 18.99849
1237.550, 18.80596
1238.032, 18.60285
1238.515, 18.47889
1238.997, 18.62391
1239.479, 18.95341
1239.961, 19.09491
1240.443, 19.10831
1240.925, 19.34380
1241.407, 19.73911
1241.889, 19.83268
1242.371, 19.52733
1242.854, 19.16406
1243.336, 18.94871
1243.818, 18.77054
1244.300, 18.44762
1244.782, 18.19311
1245.264, 18.26321
1245.746, 18.48411
1246.228, 18.71146
1246.711, 18.88947
1247.193, 18.93781
1247.675, 18.85667
1248.157, 18.78641
1248.639, 18.79987
1249.121, 18.74772
1249.603, 18.46803
1250.085, 18.30948
1250.568, 18.46863
1251.050, 18.67214
1251.532, 18.75060
1252.014, 18.75355
1252.496, 18.76692
1252.978, 18.78466
1253.460, 18.71324
1253.942, 18.53008
1254.424, 18.55185
1254.906, 18.80878
1255.389, 18.90626
1255.871, 18.73772
1256.353, 18.48650
1256.835, 18.26037
1257.317, 18.14354
1257.799, 18.30390
1258.281, 18.58395
1258.763, 18.75143
1259.246, 18.80039
1259.728, 18.62244
1260.210, 18.35196
1260.692, 18.34089
1261.174, 18.58233
1261.656, 18.69297
1262.138, 18.50387
1262.620, 18.27300
1263.103, 18.01520
1263.585, 17.88306
1264.067, 18.02540
1264.549, 18.23078
1265.031, 18.37938
1265.513, 18.48260
1265.995, 18.57882
1266.477, 18.65465
1266.959, 18.62973
1267.442, 18.46949
1267.924, 18.33588
1268.406, 18.20526
1268.888, 18.23431
1269.370, 18.47609
1269.852, 18.69882
1270.334, 18.78923
1270.816, 18.77584
1271.298, 18.67284
1271.781, 18.53246
1272.263, 18.47727
1272.745, 18.45973
1273.227, 18.31638
1273.709, 18.12769
1274.191, 18.12949
1274.673, 18.29613
1275.155, 18.42257
1275.638, 18.43962
1276.120, 18.40612
1276.602, 18.33051
1277.084, 18.25261
1277.566, 18.17047
1278.048, 18.11805
1278.530, 18.16787
1279.012, 18.21199
1279.495, 18.07603
1279.977, 17.87490
1280.459, 17.89006
1280.941, 18.12330
1281.423, 18.39923
1281.905, 18.80639
1282.387, 18.88122
1282.869, 18.51467
1283.351, 18.30537
1283.833, 18.45160
1284.316, 18.52456
1284.798, 18.21110
1285.280, 17.85514
1285.762, 17.87156
1286.244, 18.27039
1286.726, 0.0000000E+00
1287.208, 0.0000000E+00
1287.690, 0.0000000E+00
1288.173, 0.0000000E+00
1288.655, 0.0000000E+00
1289.137, 0.0000000E+00
1289.619, 0.0000000E+00
1290.101, 0.0000000E+00
1290.583, 0.0000000E+00
1291.065, 0.0000000E+00
1291.547, 0.0000000E+00
1292.030, 0.0000000E+00
1292.512, 0.0000000E+00
1292.994, 0.0000000E+00
1293.476, 0.0000000E+00
1293.958, 0.0000000E+00
1294.440, 0.0000000E+00
1294.922, 0.0000000E+00
1295.404, 0.0000000E+00
1295.886, 0.0000000E+00
1296.369, 0.0000000E+00
1296.851, 0.0000000E+00
1297.333, 0.0000000E+00
1297.815, 0.0000000E+00
1298.297, 0.0000000E+00
1298.779, 0.0000000E+00
1299.261, 0.0000000E+00
1299.743, 0.0000000E+00
1300.225, 0.0000000E+00
1300.708, 0.0000000E+00
1301.190, 0.0000000E+00
1301.672, 0.0000000E+00
1302.154, 0.0000000E+00
1302.636, 0.0000000E+00
1303.118, 0.0000000E+00
1303.600, 0.0000000E+00
1304.082, 0.0000000E+00
1304.565, 0.0000000E+00
1305.047, 0.0000000E+00
##END=



