##NAMES=Natroalunite
##RRUFFID=R060406
##IDEAL CHEMISTRY=NaAl_3_(S^6+^O_4_)_2_(OH)_6_
##LOCALITY=Sugar Loaf Butte, Arizona, USA
##OWNER=RRUFF
##SOURCE=American Museum of Natural History
##DESCRIPTION=Tan colored consolidated powder
##STATUS=The identification of this mineral has been confirmed only by X-ray diffraction
##URL=rruff.info/R060406
165.3335, 2013.533
165.8156, 2005.412
166.2977, 1997.931
166.7798, 1989.603
167.2620, 1981.305
167.7441, 1974.463
168.2262, 1969.769
168.7083, 1966.741
169.1904, 1964.166
169.6725, 1962.111
170.1547, 1960.250
170.6368, 1958.609
171.1189, 1957.106
171.6010, 1955.447
172.0831, 1953.476
172.5652, 1951.276
173.0474, 1949.000
173.5295, 1946.549
174.0116, 1944.216
174.4937, 1941.972
174.9758, 1939.814
175.4579, 1938.660
175.9401, 1940.250
176.4222, 1942.415
176.9043, 1942.599
177.3864, 1939.864
177.8685, 1936.208
178.3506, 1934.292
178.8328, 1934.652
179.3149, 1934.833
179.7970, 1933.251
180.2791, 1931.445
180.7612, 1931.167
181.2433, 1933.328
181.7255, 1936.225
182.2076, 1935.718
182.6897, 1928.565
183.1718, 1924.013
183.6539, 1925.477
184.1360, 1929.404
184.6181, 1932.287
185.1003, 1932.429
185.5824, 1930.430
186.0645, 1928.421
186.5466, 1926.528
187.0287, 1924.434
187.5108, 1921.712
187.9930, 1918.889
188.4751, 1916.618
188.9572, 1915.283
189.4393, 1914.782
189.9214, 1914.581
190.4035, 1915.645
190.8857, 1915.962
191.3678, 1914.293
191.8499, 1911.689
192.3320, 1910.180
192.8141, 1911.195
193.2962, 1914.182
193.7784, 1914.724
194.2605, 1910.823
194.7426, 1907.231
195.2247, 1905.691
195.7068, 1905.786
196.1889, 1906.268
196.6711, 1906.543
197.1532, 1906.504
197.6353, 1905.854
198.1174, 1904.068
198.5995, 1902.196
199.0816, 1900.403
199.5638, 1898.807
200.0459, 1898.357
200.5280, 1900.366
201.0101, 1903.721
201.4922, 1905.170
201.9743, 1903.861
202.4565, 1901.383
202.9386, 1898.493
203.4207, 1895.148
203.9028, 1892.857
204.3849, 1892.977
204.8670, 1894.577
205.3492, 1896.501
205.8313, 1899.032
206.3134, 1901.196
206.7955, 1901.713
207.2776, 1900.406
207.7597, 1898.271
208.2419, 1893.929
208.7240, 1889.660
209.2061, 1888.301
209.6882, 1891.543
210.1703, 1896.442
210.6524, 1897.312
211.1346, 1891.887
211.6167, 1888.291
212.0988, 1890.089
212.5809, 1894.294
213.0630, 1898.379
213.5451, 1901.401
214.0273, 1903.473
214.5094, 1904.644
214.9915, 1904.033
215.4736, 1904.143
215.9557, 1905.470
216.4378, 1907.613
216.9200, 1910.531
217.4021, 1914.251
217.8842, 1918.079
218.3663, 1919.952
218.8484, 1918.346
219.3305, 1916.832
219.8127, 1915.180
220.2948, 1914.081
220.7769, 1914.389
221.2590, 1916.495
221.7411, 1919.857
222.2232, 1922.880
222.7054, 1925.277
223.1875, 1927.638
223.6696, 1930.131
224.1517, 1932.563
224.6338, 1934.361
225.1159, 1935.262
225.5980, 1936.028
226.0802, 1938.928
226.5623, 1946.197
227.0444, 1953.004
227.5265, 1958.360
228.0086, 1963.251
228.4907, 1968.962
228.9729, 1976.059
229.4550, 1984.000
229.9371, 1991.250
230.4192, 1996.740
230.9013, 2003.238
231.3834, 2012.175
231.8656, 2022.139
232.3477, 2031.491
232.8298, 2039.827
233.3119, 2046.409
233.7940, 2049.397
234.2761, 2049.386
234.7583, 2045.750
235.2404, 2037.176
235.7225, 2025.026
236.2046, 2011.285
236.6867, 1996.194
237.1688, 1980.529
237.6510, 1965.341
238.1331, 1950.658
238.6152, 1936.292
239.0973, 1921.383
239.5794, 1906.768
240.0615, 1894.493
240.5437, 1885.347
241.0258, 1878.111
241.5079, 1871.492
241.9900, 1865.487
242.4721, 1859.238
242.9542, 1851.217
243.4364, 1842.680
243.9185, 1837.232
244.4006, 1836.600
244.8827, 1837.385
245.3648, 1836.346
245.8469, 1833.687
246.3290, 1830.403
246.8112, 1826.318
247.2933, 1821.931
247.7754, 1818.783
248.2575, 1817.470
248.7396, 1816.818
249.2217, 1815.970
249.7039, 1814.972
250.1860, 1813.989
250.6681, 1813.252
251.1502, 1812.623
251.6323, 1811.630
252.1144, 1810.386
252.5966, 1808.490
253.0787, 1805.128
253.5608, 1801.002
254.0429, 1797.687
254.5250, 1796.465
255.0071, 1796.785
255.4893, 1796.404
255.9714, 1794.677
256.4535, 1793.316
256.9356, 1793.198
257.4177, 1793.875
257.8998, 1794.706
258.3820, 1795.600
258.8641, 1796.278
259.3462, 1795.620
259.8283, 1792.753
260.3104, 1789.928
260.7925, 1788.083
261.2747, 1786.645
261.7568, 1784.826
262.2389, 1782.155
262.7210, 1778.979
263.2031, 1776.344
263.6852, 1774.796
264.1674, 1772.833
264.6495, 1768.867
265.1316, 1764.860
265.6137, 1763.192
266.0958, 1764.973
266.5779, 1768.804
267.0601, 1771.556
267.5422, 1773.539
268.0243, 1773.622
268.5064, 1770.842
268.9885, 1766.891
269.4706, 1763.076
269.9528, 1759.883
270.4349, 1757.261
270.9170, 1755.225
271.3991, 1754.366
271.8812, 1752.931
272.3633, 1750.170
272.8455, 1747.289
273.3276, 1744.999
273.8097, 1743.549
274.2918, 1743.037
274.7739, 1744.028
275.2560, 1748.693
275.7382, 1750.017
276.2202, 1745.315
276.7024, 1740.000
277.1845, 1737.733
277.6666, 1738.831
278.1487, 1740.920
278.6308, 1741.004
279.1129, 1738.089
279.5951, 1736.620
280.0772, 1737.763
280.5593, 1739.062
281.0414, 1739.795
281.5235, 1739.592
282.0056, 1737.819
282.4878, 1733.531
282.9699, 1726.006
283.4520, 1721.141
283.9341, 1720.779
284.4162, 1720.855
284.8983, 1720.108
285.3805, 1718.453
285.8626, 1716.037
286.3447, 1712.789
286.8268, 1708.766
287.3089, 1706.572
287.7910, 1707.883
288.2732, 1709.077
288.7553, 1708.859
289.2374, 1707.791
289.7195, 1707.186
290.2016, 1707.915
290.6837, 1709.566
291.1659, 1709.803
291.6480, 1706.739
292.1301, 1704.454
292.6122, 1704.862
293.0943, 1706.123
293.5764, 1705.327
294.0586, 1701.064
294.5407, 1694.814
295.0228, 1690.569
295.5049, 1689.339
295.9870, 1689.057
296.4691, 1690.393
296.9513, 1692.335
297.4334, 1694.140
297.9155, 1695.515
298.3976, 1695.959
298.8797, 1694.505
299.3618, 1689.367
299.8440, 1685.650
300.3261, 1683.918
300.8082, 1683.236
301.2903, 1683.062
301.7724, 1683.213
302.2545, 1683.506
302.7367, 1683.880
303.2188, 1684.707
303.7009, 1683.721
304.1830, 1678.464
304.6651, 1673.532
305.1472, 1672.429
305.6294, 1674.798
306.1115, 1677.436
306.5936, 1677.511
307.0757, 1674.823
307.5578, 1673.356
308.0399, 1674.368
308.5221, 1675.129
309.0042, 1674.442
309.4863, 1672.523
309.9684, 1669.984
310.4505, 1667.084
310.9326, 1664.003
311.4148, 1662.122
311.8969, 1662.617
312.3790, 1662.761
312.8611, 1661.215
313.3432, 1659.026
313.8253, 1658.173
314.3075, 1659.668
314.7896, 1662.312
315.2717, 1662.995
315.7538, 1660.213
316.2359, 1657.639
316.7180, 1655.315
317.2001, 1653.447
317.6823, 1652.383
318.1644, 1652.199
318.6465, 1652.497
319.1286, 1652.736
319.6107, 1653.068
320.0928, 1652.837
320.5750, 1652.024
321.0571, 1650.664
321.5392, 1648.340
322.0213, 1645.221
322.5034, 1642.340
322.9855, 1640.689
323.4677, 1640.330
323.9498, 1641.083
324.4319, 1644.046
324.9140, 1646.915
325.3961, 1648.963
325.8782, 1649.987
326.3604, 1649.604
326.8425, 1647.320
327.3246, 1643.412
327.8067, 1640.976
328.2888, 1640.564
328.7709, 1640.786
329.2531, 1642.074
329.7352, 1643.653
330.2173, 1644.314
330.6994, 1643.482
331.1815, 1641.502
331.6636, 1639.270
332.1458, 1636.054
332.6279, 1633.533
333.1100, 1631.421
333.5921, 1630.203
334.0742, 1630.559
334.5563, 1632.621
335.0385, 1635.744
335.5206, 1639.200
336.0027, 1644.087
336.4848, 1646.141
336.9669, 1643.057
337.4490, 1639.279
337.9312, 1637.526
338.4133, 1637.981
338.8954, 1639.527
339.3775, 1641.296
339.8596, 1643.401
340.3417, 1644.257
340.8239, 1642.781
341.3060, 1641.350
341.7881, 1641.204
342.2702, 1641.727
342.7523, 1641.508
343.2344, 1639.629
343.7166, 1636.462
344.1987, 1633.842
344.6808, 1632.889
345.1629, 1631.190
345.6450, 1627.774
346.1271, 1623.824
346.6093, 1620.661
347.0914, 1618.786
347.5735, 1617.727
348.0556, 1616.749
348.5377, 1616.584
349.0198, 1615.076
349.5020, 1611.683
349.9841, 1607.581
350.4662, 1603.180
350.9483, 1598.778
351.4304, 1594.955
351.9125, 1592.594
352.3947, 1592.139
352.8768, 1590.216
353.3589, 1584.151
353.8410, 1579.282
354.3231, 1577.764
354.8052, 1578.921
355.2874, 1581.327
355.7695, 1584.338
356.2516, 1587.480
356.7337, 1588.014
357.2158, 1583.610
357.6979, 1579.610
358.1800, 1576.584
358.6621, 1574.592
359.1443, 1573.953
359.6264, 1574.776
360.1085, 1576.207
360.5906, 1576.574
361.0727, 1575.181
361.5548, 1574.568
362.0370, 1576.137
362.5191, 1577.656
363.0012, 1577.474
363.4833, 1575.606
363.9654, 1573.509
364.4475, 1572.752
364.9297, 1573.437
365.4118, 1573.667
365.8939, 1572.799
366.3760, 1572.163
366.8581, 1572.163
367.3402, 1572.779
367.8224, 1573.999
368.3045, 1576.051
368.7866, 1578.498
369.2687, 1580.069
369.7508, 1580.656
370.2329, 1580.542
370.7151, 1579.190
371.1972, 1577.558
371.6793, 1576.622
372.1614, 1576.717
372.6435, 1577.239
373.1256, 1577.789
373.6078, 1578.452
374.0899, 1577.799
374.5720, 1572.912
375.0541, 1569.074
375.5362, 1571.104
376.0183, 1578.517
376.5005, 1585.779
376.9826, 1589.027
377.4647, 1589.178
377.9468, 1589.611
378.4289, 1590.598
378.9110, 1591.669
379.3932, 1593.007
379.8753, 1594.172
380.3574, 1594.161
380.8395, 1592.226
381.3216, 1589.373
381.8037, 1586.828
382.2859, 1584.598
382.7680, 1582.203
383.2501, 1579.898
383.7322, 1576.918
384.2143, 1571.991
384.6964, 1564.548
385.1786, 1557.211
385.6607, 1551.720
386.1428, 1547.550
386.6249, 1543.256
387.1070, 1538.494
387.5891, 1533.649
388.0713, 1528.831
388.5534, 1524.064
389.0355, 1520.519
389.5176, 1519.584
389.9997, 1519.265
390.4818, 1517.324
390.9640, 1513.732
391.4461, 1510.374
391.9282, 1508.815
392.4103, 1508.506
392.8924, 1506.520
393.3745, 1500.009
393.8567, 1495.052
394.3388, 1495.400
394.8209, 1498.824
395.3030, 1501.173
395.7851, 1500.948
396.2672, 1498.769
396.7494, 1495.459
397.2315, 1489.866
397.7136, 1485.989
398.1957, 1484.802
398.6778, 1484.812
399.1599, 1485.383
399.6420, 1486.131
400.1241, 1486.016
400.6063, 1483.983
401.0884, 1479.953
401.5705, 1476.542
402.0526, 1473.725
402.5347, 1471.467
403.0168, 1469.436
403.4990, 1468.039
403.9811, 1468.416
404.4632, 1471.160
404.9453, 1474.802
405.4274, 1475.571
405.9095, 1470.682
406.3917, 1467.615
406.8738, 1468.733
407.3559, 1470.034
407.8380, 1468.039
408.3201, 1462.770
408.8022, 1457.303
409.2844, 1454.813
409.7665, 1455.529
410.2486, 1455.665
410.7307, 1454.431
411.2128, 1453.437
411.6949, 1453.067
412.1771, 1453.254
412.6592, 1454.032
413.1413, 1455.569
413.6234, 1457.175
414.1055, 1457.163
414.5876, 1454.891
415.0698, 1452.957
415.5519, 1452.370
416.0340, 1452.084
416.5161, 1451.475
416.9982, 1450.449
417.4803, 1449.183
417.9625, 1447.391
418.4446, 1445.303
418.9267, 1444.618
419.4088, 1446.166
419.8909, 1447.853
420.3730, 1448.530
420.8552, 1448.355
421.3373, 1447.506
421.8194, 1445.705
422.3015, 1443.606
422.7836, 1442.023
423.2657, 1440.951
423.7479, 1439.900
424.2300, 1438.874
424.7121, 1437.570
425.1942, 1435.252
425.6763, 1431.528
426.1584, 1428.827
426.6406, 1428.929
427.1227, 1430.526
427.6048, 1431.338
428.0869, 1430.950
428.5690, 1430.434
429.0511, 1430.963
429.5333, 1432.497
430.0154, 1432.897
430.4975, 1431.000
430.9796, 1429.053
431.4617, 1428.605
431.9438, 1429.132
432.4260, 1429.211
432.9081, 1428.161
433.3902, 1426.306
433.8723, 1424.375
434.3544, 1421.996
434.8365, 1420.176
435.3187, 1419.630
435.8008, 1419.190
436.2829, 1417.844
436.7650, 1415.524
437.2471, 1412.747
437.7292, 1409.822
438.2114, 1406.694
438.6935, 1405.254
439.1756, 1407.781
439.6577, 1409.489
440.1398, 1408.532
440.6219, 1406.369
441.1040, 1405.107
441.5862, 1405.639
442.0683, 1407.005
442.5504, 1407.550
443.0325, 1407.246
443.5146, 1406.218
443.9967, 1403.316
444.4789, 1400.679
444.9610, 1399.529
445.4431, 1399.725
445.9252, 1400.400
446.4073, 1401.348
446.8894, 1402.227
447.3716, 1401.504
447.8537, 1398.511
448.3358, 1395.563
448.8179, 1393.390
449.3000, 1391.898
449.7821, 1391.219
450.2643, 1391.532
450.7464, 1391.908
451.2285, 1391.322
451.7106, 1390.021
452.1927, 1389.351
452.6748, 1389.796
453.1570, 1390.474
453.6391, 1390.610
454.1212, 1390.263
454.6033, 1389.478
455.0854, 1387.617
455.5675, 1385.805
456.0497, 1385.239
456.5318, 1385.759
457.0139, 1386.333
457.4960, 1386.560
457.9781, 1386.363
458.4602, 1385.427
458.9424, 1383.443
459.4245, 1381.526
459.9066, 1378.721
460.3887, 1376.733
460.8708, 1378.277
461.3529, 1383.266
461.8351, 1388.145
462.3172, 1389.517
462.7993, 1387.258
463.2814, 1385.049
463.7635, 1382.158
464.2456, 1380.140
464.7278, 1379.883
465.2099, 1380.553
465.6920, 1380.683
466.1741, 1379.752
466.6562, 1379.094
467.1383, 1381.625
467.6205, 1389.547
468.1026, 1393.816
468.5847, 1390.514
469.0668, 1386.733
469.5489, 1385.689
470.0310, 1386.859
470.5132, 1388.093
470.9953, 1387.924
471.4774, 1387.089
471.9595, 1387.755
472.4416, 1390.505
472.9237, 1392.589
473.4059, 1392.250
473.8880, 1391.266
474.3701, 1391.174
474.8522, 1392.149
475.3343, 1393.646
475.8164, 1395.542
476.2986, 1397.676
476.7807, 1399.662
477.2628, 1401.434
477.7449, 1403.123
478.2270, 1404.786
478.7091, 1406.436
479.1913, 1408.108
479.6734, 1409.385
480.1555, 1411.140
480.6376, 1413.953
481.1197, 1417.551
481.6018, 1421.678
482.0839, 1426.324
482.5660, 1430.586
483.0482, 1433.356
483.5303, 1434.671
484.0124, 1433.707
484.4945, 1429.835
484.9766, 1424.443
485.4587, 1417.720
485.9409, 1410.066
486.4230, 1402.093
486.9051, 1394.082
487.3872, 1386.163
487.8693, 1378.860
488.3514, 1372.649
488.8336, 1366.049
489.3157, 1357.728
489.7978, 1350.016
490.2799, 1344.635
490.7620, 1341.504
491.2441, 1339.401
491.7263, 1337.471
492.2084, 1335.771
492.6905, 1334.847
493.1726, 1335.579
493.6547, 1334.989
494.1368, 1329.648
494.6190, 1323.452
495.1011, 1320.754
495.5832, 1322.644
496.0653, 1325.322
496.5474, 1326.228
497.0295, 1325.651
497.5117, 1324.005
497.9938, 1320.907
498.4759, 1318.629
498.9580, 1319.902
499.4401, 1323.835
499.9222, 1325.563
500.4044, 1322.407
500.8865, 1319.445
501.3686, 1319.602
501.8507, 1321.800
502.3328, 1323.909
502.8149, 1325.211
503.2971, 1326.062
503.7792, 1327.006
504.2613, 1328.295
504.7434, 1328.709
505.2255, 1327.085
505.7076, 1325.840
506.1898, 1326.712
506.6719, 1328.792
507.1540, 1330.253
507.6361, 1330.160
508.1182, 1328.724
508.6003, 1326.391
509.0825, 1323.064
509.5646, 1319.083
510.0467, 1313.971
510.5288, 1308.655
511.0109, 1303.458
511.4930, 1298.459
511.9752, 1293.655
512.4573, 1288.542
512.9394, 1283.939
513.4215, 1282.452
513.9036, 1284.775
514.3857, 1285.729
514.8679, 1282.627
515.3500, 1277.605
515.8321, 1273.371
516.3142, 1270.004
516.7963, 1267.162
517.2784, 1265.131
517.7606, 1263.325
518.2427, 1260.372
518.7248, 1256.295
519.2069, 1253.533
519.6890, 1254.057
520.1711, 1257.087
520.6533, 1258.703
521.1354, 1258.080
521.6175, 1257.401
522.0996, 1257.489
522.5817, 1257.416
523.0638, 1255.828
523.5460, 1252.774
524.0281, 1249.892
524.5102, 1248.886
524.9923, 1249.687
525.4744, 1249.627
525.9565, 1247.387
526.4387, 1246.033
526.9208, 1247.186
527.4029, 1248.958
527.8850, 1249.297
528.3671, 1247.713
528.8492, 1245.402
529.3314, 1243.235
529.8135, 1241.291
530.2956, 1240.532
530.7777, 1241.758
531.2598, 1242.631
531.7419, 1241.122
532.2241, 1238.423
532.7062, 1236.366
533.1883, 1235.337
533.6704, 1234.899
534.1525, 1235.256
534.6346, 1235.931
535.1168, 1235.457
535.5989, 1233.375
536.0810, 1231.561
536.5631, 1232.272
537.0452, 1235.663
537.5273, 1236.918
538.0095, 1234.606
538.4916, 1231.965
538.9737, 1229.903
539.4558, 1228.357
539.9379, 1227.028
540.4200, 1225.853
540.9022, 1225.251
541.3843, 1226.077
541.8664, 1228.842
542.3485, 1230.158
542.8306, 1228.628
543.3127, 1227.106
543.7948, 1226.859
544.2769, 1227.084
544.7590, 1226.215
545.2411, 1223.486
545.7233, 1220.874
546.2054, 1221.497
546.6875, 1225.057
547.1696, 1226.986
547.6517, 1225.941
548.1339, 1224.373
548.6160, 1224.573
549.0981, 1225.915
549.5802, 1226.644
550.0623, 1225.569
550.5444, 1224.712
551.0266, 1225.752
551.5087, 1227.960
551.9908, 1229.736
552.4729, 1230.602
552.9550, 1230.870
553.4371, 1231.014
553.9193, 1231.230
554.4014, 1230.004
554.8835, 1225.620
555.3656, 1221.917
555.8477, 1220.510
556.3298, 1220.582
556.8120, 1221.073
557.2941, 1221.549
557.7762, 1221.756
558.2583, 1221.148
558.7404, 1219.561
559.2225, 1218.608
559.7047, 1219.065
560.1868, 1219.183
560.6689, 1217.658
561.1510, 1215.397
561.6331, 1214.054
562.1152, 1214.443
562.5974, 1214.958
563.0795, 1214.355
563.5616, 1212.672
564.0437, 1209.649
564.5258, 1204.853
565.0079, 1200.470
565.4901, 1198.817
565.9722, 1199.767
566.4543, 1199.596
566.9364, 1197.577
567.4185, 1195.299
567.9006, 1192.515
568.3828, 1190.172
568.8649, 1190.386
569.3470, 1193.360
569.8291, 1195.919
570.3112, 1193.934
570.7933, 1186.988
571.2755, 1183.016
571.7576, 1185.053
572.2397, 1186.309
572.7218, 1184.274
573.2039, 1181.065
573.6860, 1179.350
574.1682, 1179.738
574.6503, 1180.144
575.1324, 1178.272
575.6145, 1174.668
576.0966, 1171.629
576.5787, 1169.177
577.0609, 1167.792
577.5430, 1168.444
578.0251, 1170.197
578.5072, 1170.763
578.9893, 1169.674
579.4714, 1168.349
579.9536, 1167.612
580.4357, 1166.796
580.9178, 1164.863
581.3999, 1161.829
581.8820, 1158.638
582.3641, 1155.921
582.8463, 1153.738
583.3284, 1152.388
583.8105, 1152.335
584.2926, 1152.506
584.7747, 1153.260
585.2568, 1153.872
585.7390, 1153.755
586.2211, 1152.932
586.7032, 1151.802
587.1853, 1150.507
587.6674, 1149.211
588.1495, 1148.386
588.6317, 1148.067
589.1138, 1148.080
589.5959, 1148.853
590.0780, 1149.460
590.5601, 1148.668
591.0422, 1146.502
591.5244, 1144.513
592.0065, 1143.242
592.4886, 1142.288
592.9707, 1141.205
593.4528, 1140.115
593.9349, 1139.595
594.4171, 1139.955
594.8992, 1140.575
595.3813, 1140.339
595.8634, 1138.865
596.3455, 1137.629
596.8276, 1136.531
597.3098, 1135.728
597.7919, 1135.665
598.2740, 1135.839
598.7561, 1135.295
599.2382, 1133.610
599.7203, 1131.725
600.2025, 1131.026
600.6846, 1131.475
601.1667, 1131.689
601.6488, 1131.664
602.1309, 1131.143
602.6130, 1129.399
603.0952, 1127.110
603.5773, 1125.706
604.0594, 1125.561
604.5415, 1125.961
605.0236, 1127.270
605.5057, 1128.619
605.9879, 1128.473
606.4700, 1126.681
606.9521, 1124.369
607.4342, 1122.387
607.9163, 1120.744
608.3984, 1119.534
608.8806, 1119.100
609.3627, 1118.633
609.8448, 1118.076
610.3269, 1117.440
610.8090, 1116.520
611.2911, 1115.465
611.7733, 1114.919
612.2554, 1115.684
612.7375, 1116.932
613.2196, 1116.588
613.7017, 1114.509
614.1838, 1112.278
614.6660, 1110.147
615.1481, 1108.323
615.6302, 1107.129
616.1123, 1106.520
616.5944, 1105.983
617.0765, 1106.113
617.5587, 1105.634
618.0408, 1102.498
618.5229, 1098.240
619.0050, 1096.698
619.4871, 1099.149
619.9692, 1102.557
620.4514, 1102.611
620.9335, 1098.644
621.4156, 1096.396
621.8977, 1097.614
622.3798, 1098.531
622.8619, 1098.606
623.3441, 1097.676
623.8262, 1094.829
624.3083, 1089.980
624.7904, 1086.223
625.2725, 1087.549
625.7546, 1091.856
626.2367, 1092.879
626.7188, 1090.024
627.2009, 1087.398
627.6830, 1087.409
628.1652, 1088.775
628.6473, 1088.309
629.1294, 1085.175
629.6115, 1083.237
630.0936, 1083.884
630.5757, 1085.194
631.0579, 1086.024
631.5400, 1086.310
632.0221, 1086.217
632.5042, 1085.818
632.9863, 1085.298
633.4684, 1084.880
633.9506, 1084.405
634.4327, 1084.919
634.9148, 1087.845
635.3969, 1089.993
635.8790, 1088.546
636.3611, 1085.649
636.8433, 1085.237
637.3254, 1088.874
637.8075, 1093.198
638.2896, 1096.238
638.7717, 1098.120
639.2538, 1098.769
639.7360, 1098.228
640.2181, 1097.799
640.7002, 1098.502
641.1823, 1099.955
641.6644, 1100.601
642.1465, 1099.084
642.6287, 1098.647
643.1108, 1099.986
643.5929, 1101.850
644.0750, 1103.104
644.5571, 1104.146
645.0392, 1106.430
645.5214, 1110.991
646.0035, 1116.394
646.4856, 1119.866
646.9677, 1121.419
647.4498, 1124.079
647.9319, 1128.515
648.4141, 1133.837
648.8962, 1139.959
649.3783, 1146.446
649.8604, 1151.406
650.3425, 1153.544
650.8246, 1155.683
651.3068, 1160.203
651.7889, 1164.642
652.2710, 1165.895
652.7531, 1163.644
653.2352, 1159.425
653.7173, 1154.384
654.1995, 1148.436
654.6816, 1141.043
655.1637, 1131.703
655.6458, 1122.165
656.1279, 1112.298
656.6100, 1102.638
657.0922, 1093.214
657.5743, 1084.223
658.0564, 1076.298
658.5385, 1069.705
659.0206, 1064.182
659.5027, 1059.695
659.9849, 1056.085
660.4670, 1053.069
660.9491, 1050.619
661.4312, 1047.761
661.9133, 1043.149
662.3954, 1037.111
662.8776, 1034.411
663.3597, 1039.866
663.8418, 1042.349
664.3239, 1038.654
664.8060, 1033.210
665.2881, 1028.930
665.7703, 1026.343
666.2524, 1025.359
666.7345, 1026.415
667.2166, 1028.280
667.6987, 1028.745
668.1808, 1027.832
668.6630, 1026.196
669.1451, 1023.716
669.6272, 1021.205
670.1093, 1019.477
670.5914, 1018.489
671.0735, 1017.565
671.5557, 1016.705
672.0378, 1015.880
672.5199, 1015.154
673.0020, 1014.416
673.4841, 1013.617
673.9662, 1012.702
674.4484, 1011.446
674.9305, 1009.543
675.4126, 1007.371
675.8947, 1006.164
676.3768, 1006.003
676.8589, 1006.569
677.3411, 1008.773
677.8232, 1010.598
678.3053, 1010.159
678.7874, 1007.998
679.2695, 1006.059
679.7516, 1004.972
680.2338, 1003.977
680.7159, 1002.285
681.1980, 1000.527
681.6801, 999.9167
682.1622, 1000.531
682.6443, 1001.221
683.1265, 1001.083
683.6086, 1000.182
684.0907, 998.7773
684.5728, 996.5541
685.0549, 994.5046
685.5370, 991.7739
686.0192, 990.1417
686.5013, 991.5757
686.9834, 995.0073
687.4655, 997.3757
687.9476, 997.4548
688.4297, 996.2561
688.9119, 993.9924
689.3940, 991.2470
689.8761, 989.7136
690.3582, 989.6384
690.8403, 989.0522
691.3224, 986.0938
691.8046, 981.6533
692.2867, 980.0093
692.7688, 984.3857
693.2509, 986.3940
693.7330, 984.0941
694.2151, 980.9942
694.6973, 979.0798
695.1794, 978.0893
695.6615, 976.7391
696.1436, 974.1467
696.6257, 972.1703
697.1078, 973.8466
697.5900, 977.8997
698.0721, 979.7537
698.5542, 978.6754
699.0363, 976.4788
699.5184, 973.9628
700.0005, 971.5460
700.4827, 970.8149
700.9648, 974.1713
701.4469, 975.2460
701.9290, 971.0974
702.4111, 967.3361
702.8932, 968.1410
703.3754, 971.7748
703.8575, 974.3065
704.3396, 974.0890
704.8217, 972.6006
705.3038, 971.4905
705.7859, 970.6320
706.2681, 969.1143
706.7502, 966.6617
707.2323, 965.1618
707.7144, 966.1270
708.1965, 968.3254
708.6786, 968.8730
709.1607, 967.2602
709.6428, 965.5940
710.1249, 963.4781
710.6071, 961.8629
711.0892, 962.1798
711.5713, 963.1013
712.0534, 961.9542
712.5355, 957.9506
713.0176, 953.8456
713.4998, 952.9781
713.9819, 954.7711
714.4640, 956.2596
714.9461, 957.4796
715.4282, 957.8527
715.9103, 956.7687
716.3925, 955.1098
716.8746, 954.3298
717.3567, 954.5731
717.8388, 954.3351
718.3209, 953.3181
718.8030, 951.9802
719.2852, 950.0339
719.7673, 948.1219
720.2494, 947.2808
720.7315, 947.6166
721.2136, 948.0715
721.6957, 947.7520
722.1779, 946.7419
722.6600, 944.9915
723.1421, 942.2557
723.6242, 941.0609
724.1063, 943.1534
724.5884, 945.4118
725.0706, 943.8287
725.5527, 938.7922
726.0348, 935.7653
726.5169, 936.6431
726.9990, 937.5819
727.4811, 936.9215
727.9633, 935.9163
728.4454, 936.1320
728.9275, 937.5015
729.4096, 938.7460
729.8917, 939.0102
730.3738, 938.5748
730.8560, 938.0531
731.3381, 937.4572
731.8202, 936.2740
732.3023, 934.1182
732.7844, 932.1107
733.2665, 931.2626
733.7487, 931.2205
734.2308, 930.5773
734.7129, 928.8700
735.1950, 927.4532
735.6771, 926.6572
736.1592, 926.1994
736.6414, 926.1263
737.1235, 926.1716
737.6056, 925.7131
738.0877, 924.4510
738.5698, 923.0028
739.0519, 922.1973
739.5341, 921.9861
740.0162, 921.9838
740.4983, 922.2192
740.9804, 922.4606
741.4625, 922.7538
741.9446, 922.8431
742.4268, 922.1779
742.9089, 920.6374
743.3910, 919.0483
743.8731, 916.9181
744.3552, 915.3528
744.8373, 915.1553
745.3195, 915.7358
745.8016, 916.5330
746.2837, 917.2696
746.7658, 917.3638
747.2479, 915.8478
747.7300, 913.5430
748.2122, 913.0433
748.6943, 914.3889
749.1764, 914.9216
749.6585, 913.7351
750.1406, 911.9363
750.6227, 910.6361
751.1049, 909.8157
751.5870, 908.5756
752.0691, 905.9777
752.5512, 904.2578
753.0333, 904.9793
753.5154, 905.8055
753.9976, 904.3455
754.4797, 901.1581
754.9618, 898.5267
755.4439, 897.5605
755.9260, 897.7948
756.4081, 899.4556
756.8903, 901.9007
757.3724, 901.9495
757.8545, 899.0621
758.3366, 896.6320
758.8187, 896.9727
759.3008, 898.8634
759.7830, 899.1862
760.2651, 896.7816
760.7472, 895.5622
761.2293, 896.3107
761.7114, 897.2946
762.1935, 898.4156
762.6757, 899.0794
763.1578, 898.0897
763.6399, 895.2902
764.1220, 893.1119
764.6041, 894.1765
765.0862, 896.4119
765.5684, 896.6231
766.0505, 895.0750
766.5326, 893.1252
767.0147, 891.1561
767.4968, 889.7056
767.9789, 889.4386
768.4611, 890.3027
768.9432, 891.2103
769.4253, 892.6349
769.9074, 893.2648
770.3895, 892.3349
770.8716, 891.0697
771.3538, 890.3935
771.8359, 890.0793
772.3180, 889.2941
772.8001, 887.7861
773.2822, 885.7241
773.7643, 882.4822
774.2465, 879.1410
774.7286, 877.1844
775.2107, 876.7491
775.6928, 877.8061
776.1749, 880.4887
776.6570, 883.3447
777.1392, 883.1770
777.6213, 879.3864
778.1034, 876.9193
778.5855, 875.9092
779.0676, 876.0807
779.5497, 878.2263
780.0319, 880.9684
780.5140, 882.6111
780.9961, 883.1000
781.4782, 882.8758
781.9603, 881.8552
782.4424, 880.3474
782.9246, 878.0785
783.4067, 875.6251
783.8888, 873.8163
784.3709, 872.7843
784.8530, 872.1088
785.3351, 871.4649
785.8173, 870.9252
786.2994, 871.1052
786.7815, 872.0077
787.2636, 870.7213
787.7457, 865.7553
788.2278, 861.7714
788.7100, 862.8167
789.1921, 867.5607
789.6742, 870.7346
790.1563, 871.7921
790.6384, 872.4033
791.1205, 872.6223
791.6026, 872.4616
792.0847, 871.6615
792.5668, 870.5898
793.0490, 869.9436
793.5311, 869.9166
794.0132, 869.6629
794.4953, 868.1424
794.9774, 866.1051
795.4595, 865.0026
795.9417, 864.6898
796.4238, 864.2502
796.9059, 863.3889
797.3880, 862.0679
797.8701, 860.0630
798.3522, 857.4772
798.8344, 856.2847
799.3165, 856.9128
799.7986, 858.0757
800.2807, 861.1394
800.7628, 863.2372
801.2449, 861.7032
801.7271, 857.8461
802.2092, 855.2949
802.6913, 855.1722
803.1734, 855.7317
803.6555, 856.8741
804.1376, 857.7040
804.6198, 856.5696
805.1019, 854.2659
805.5840, 853.3635
806.0661, 854.9627
806.5482, 857.3743
807.0303, 858.4283
807.5125, 858.2441
807.9946, 857.9169
808.4767, 857.5530
808.9588, 856.3016
809.4409, 853.2605
809.9230, 850.2478
810.4052, 849.6357
810.8873, 851.4251
811.3694, 852.0234
811.8515, 850.9844
812.3336, 849.3760
812.8157, 846.1209
813.2979, 843.4309
813.7800, 843.8575
814.2621, 846.3585
814.7442, 847.7019
815.2263, 846.3418
815.7084, 844.4835
816.1906, 844.2999
816.6727, 845.1598
817.1548, 846.0687
817.6369, 846.8328
818.1190, 846.7297
818.6011, 845.3884
819.0833, 843.5042
819.5654, 841.9755
820.0475, 840.7838
820.5296, 840.5379
821.0117, 842.1622
821.4938, 842.7975
821.9760, 840.5615
822.4581, 838.0552
822.9402, 837.7794
823.4223, 839.2135
823.9044, 839.8214
824.3865, 838.6726
824.8687, 837.3279
825.3508, 836.0578
825.8329, 835.1214
826.3150, 835.2667
826.7971, 835.9521
827.2792, 835.6005
827.7614, 833.5002
828.2435, 830.9566
828.7256, 829.4922
829.2077, 828.9196
829.6898, 828.5087
830.1719, 828.2405
830.6541, 828.5841
831.1362, 829.9825
831.6183, 831.0137
832.1004, 829.7810
832.5825, 826.3341
833.0646, 823.8372
833.5468, 822.2852
834.0289, 821.7641
834.5110, 823.0005
834.9931, 824.5353
835.4752, 825.7795
835.9573, 826.5615
836.4395, 826.5654
836.9216, 825.5496
837.4037, 824.3123
837.8858, 822.9916
838.3679, 821.8746
838.8500, 821.3925
839.3322, 821.3533
839.8143, 821.1979
840.2964, 820.7500
840.7785, 820.3899
841.2606, 820.6236
841.7427, 821.2504
842.2249, 821.4616
842.7070, 821.2376
843.1891, 821.0223
843.6712, 821.0465
844.1533, 820.6523
844.6354, 819.1281
845.1176, 816.7404
845.5997, 814.8104
846.0818, 813.3474
846.5639, 812.3644
847.0460, 812.1705
847.5281, 812.1041
848.0103, 812.2313
848.4924, 812.1254
848.9745, 810.8480
849.4566, 808.2217
849.9387, 806.3557
850.4208, 806.9597
850.9030, 808.2413
851.3851, 808.3474
851.8672, 807.9881
852.3493, 809.3067
852.8314, 812.2103
853.3135, 813.3018
853.7957, 809.5789
854.2778, 803.7101
854.7599, 802.0780
855.2420, 804.5793
855.7241, 806.4168
856.2062, 807.0792
856.6884, 807.0777
857.1705, 806.4811
857.6526, 805.6468
858.1347, 805.2803
858.6168, 805.5746
859.0989, 805.4417
859.5811, 804.8205
860.0632, 803.8567
860.5453, 801.7817
861.0274, 799.9777
861.5095, 800.3840
861.9916, 802.3593
862.4738, 802.6814
862.9559, 799.1051
863.4380, 795.8015
863.9201, 795.3645
864.4022, 796.7587
864.8843, 800.2466
865.3665, 804.4078
865.8486, 804.9706
866.3307, 800.2413
866.8128, 794.1816
867.2949, 791.6066
867.7770, 791.8584
868.2592, 792.2104
868.7413, 792.6661
869.2234, 793.0123
869.7055, 793.2092
870.1876, 793.1791
870.6697, 792.7656
871.1519, 792.0821
871.6340, 791.7760
872.1161, 791.8818
872.5981, 792.2853
873.0803, 793.8202
873.5624, 794.7214
874.0445, 793.7908
874.5266, 791.9772
875.0087, 790.5034
875.4908, 789.5146
875.9730, 789.1033
876.4551, 790.2372
876.9372, 790.9409
877.4193, 789.5215
877.9014, 787.1935
878.3835, 785.3261
878.8657, 784.2592
879.3478, 784.2133
879.8299, 785.5982
880.3120, 786.9664
880.7941, 786.0469
881.2762, 783.4865
881.7584, 780.8640
882.2405, 778.4540
882.7226, 777.9276
883.2047, 780.1610
883.6868, 783.6469
884.1689, 786.4901
884.6511, 788.6841
885.1332, 789.8146
885.6153, 789.8448
886.0974, 788.8120
886.5795, 785.9718
887.0616, 783.0270
887.5438, 781.3586
888.0259, 780.5763
888.5080, 779.4661
888.9901, 777.7537
889.4722, 776.2908
889.9543, 775.1686
890.4365, 774.3398
890.9186, 774.3294
891.4007, 774.3076
891.8828, 772.6348
892.3649, 769.4236
892.8470, 767.4425
893.3292, 769.1170
893.8113, 771.5944
894.2934, 772.4366
894.7755, 772.0527
895.2576, 770.7279
895.7397, 768.8049
896.2219, 767.2465
896.7040, 766.5616
897.1861, 766.5609
897.6682, 767.3182
898.1503, 768.6412
898.6324, 768.8163
899.1146, 767.7560
899.5967, 766.9294
900.0788, 766.9481
900.5609, 766.6655
901.0430, 764.7068
901.5251, 761.5074
902.0073, 759.8056
902.4894, 760.0603
902.9715, 760.8701
903.4536, 762.8522
903.9357, 764.5778
904.4178, 766.1506
904.9000, 766.7321
905.3821, 764.2706
905.8642, 758.3716
906.3463, 754.9031
906.8284, 757.6446
907.3105, 760.2663
907.7927, 759.4652
908.2748, 757.3788
908.7569, 756.0953
909.2390, 755.7235
909.7211, 755.4979
910.2032, 755.0636
910.6854, 754.8082
911.1675, 755.5858
911.6496, 756.4916
912.1317, 755.7948
912.6138, 753.8569
913.0959, 752.0323
913.5781, 750.7734
914.0602, 750.1290
914.5423, 750.2496
915.0244, 750.8387
915.5065, 750.7645
915.9886, 750.0164
916.4708, 750.7209
916.9529, 753.5629
917.4350, 755.5173
917.9171, 754.7122
918.3992, 752.4828
918.8813, 751.2202
919.3635, 751.1474
919.8456, 750.2747
920.3277, 748.1275
920.8098, 745.9713
921.2919, 743.7611
921.7740, 741.9168
922.2562, 740.2592
922.7383, 739.2288
923.2204, 740.3829
923.7025, 745.2642
924.1846, 748.7784
924.6667, 748.8463
925.1489, 748.0430
925.6310, 747.9940
926.1131, 747.9906
926.5952, 746.6546
927.0773, 744.0067
927.5594, 741.6790
928.0416, 740.6173
928.5237, 740.1572
929.0058, 739.7020
929.4879, 739.4345
929.9700, 740.0421
930.4521, 741.1562
930.9343, 741.2260
931.4164, 739.6313
931.8985, 737.6476
932.3806, 736.9023
932.8627, 736.9128
933.3448, 735.6492
933.8270, 733.3530
934.3091, 733.1366
934.7912, 735.8114
935.2733, 738.0445
935.7554, 737.3118
936.2375, 734.9669
936.7197, 734.4830
937.2018, 736.4747
937.6839, 736.6930
938.1660, 734.4197
938.6481, 732.1218
939.1302, 730.1483
939.6124, 729.0375
940.0945, 729.9427
940.5766, 732.4899
941.0587, 733.1683
941.5408, 729.9081
942.0229, 728.0048
942.5051, 728.2924
942.9872, 729.3265
943.4693, 731.4209
943.9514, 733.2999
944.4335, 732.9324
944.9156, 730.1762
945.3978, 727.7697
945.8799, 726.6578
946.3620, 726.1073
946.8441, 726.0799
947.3262, 726.1940
947.8083, 725.9739
948.2905, 725.5696
948.7726, 725.6072
949.2547, 726.3278
949.7368, 726.7115
950.2189, 725.3508
950.7010, 723.5753
951.1832, 723.3713
951.6653, 724.1683
952.1474, 724.6203
952.6295, 724.4388
953.1116, 723.7994
953.5938, 722.7769
954.0759, 721.5895
954.5580, 720.5715
955.0400, 719.7062
955.5222, 718.9366
956.0043, 718.2528
956.4864, 717.4684
956.9685, 716.4737
957.4506, 715.8605
957.9327, 716.3479
958.4149, 717.5261
958.8970, 717.3821
959.3791, 715.3531
959.8612, 715.0342
960.3433, 717.3821
960.8254, 719.5870
961.3076, 720.5156
961.7897, 720.4446
962.2718, 719.7264
962.7539, 718.3657
963.2360, 716.2441
963.7181, 711.5966
964.2003, 708.9435
964.6824, 709.9572
965.1645, 711.6594
965.6466, 712.4630
966.1287, 712.9164
966.6108, 714.5364
967.0930, 717.7987
967.5751, 718.5456
968.0572, 712.9734
968.5393, 708.4219
969.0214, 708.6863
969.5035, 710.5226
969.9857, 711.1393
970.4678, 710.6703
970.9499, 710.4227
971.4320, 710.8947
971.9141, 710.8838
972.3962, 709.4197
972.8784, 707.4326
973.3605, 704.8515
973.8426, 702.7499
974.3247, 703.2666
974.8068, 706.0934
975.2889, 708.8052
975.7711, 710.1998
976.2532, 710.2621
976.7353, 707.7944
977.2174, 704.5867
977.6995, 704.3293
978.1816, 706.3560
978.6638, 707.7978
979.1459, 707.8973
979.6280, 707.6056
980.1101, 707.5273
980.5922, 708.0795
981.0743, 711.4111
981.5565, 716.5027
982.0386, 715.9027
982.5207, 709.2971
983.0028, 704.6707
983.4849, 705.2399
983.9670, 707.7546
984.4492, 708.9143
984.9313, 708.7372
985.4134, 706.8538
985.8955, 702.8163
986.3776, 700.6121
986.8597, 701.0343
987.3419, 701.7617
987.8240, 701.6702
988.3061, 701.3222
988.7882, 701.5845
989.2703, 702.4484
989.7524, 702.7678
990.2346, 702.5055
990.7167, 701.6848
991.1988, 699.1506
991.6809, 697.7285
992.1630, 699.9857
992.6451, 703.8660
993.1273, 705.6730
993.6094, 705.1452
994.0915, 704.5073
994.5736, 703.7001
995.0557, 702.9169
995.5378, 701.5062
996.0200, 700.8051
996.5021, 702.4934
996.9842, 705.3024
997.4663, 706.4996
997.9484, 705.4456
998.4305, 704.8698
998.9127, 706.2988
999.3948, 707.2709
999.8769, 706.1094
1000.359, 704.5167
1000.841, 703.7571
1001.323, 704.0106
1001.805, 705.6467
1002.287, 709.0919
1002.770, 711.4012
1003.252, 709.7048
1003.734, 707.7849
1004.216, 708.9349
1004.698, 711.2145
1005.180, 711.7743
1005.662, 710.7713
1006.144, 710.0858
1006.627, 710.4456
1007.109, 711.8836
1007.591, 714.9034
1008.073, 718.6058
1008.555, 721.6359
1009.037, 724.6354
1009.519, 729.4587
1010.001, 735.8807
1010.483, 741.2778
1010.966, 743.9543
1011.448, 746.2553
1011.930, 751.1426
1012.412, 757.5336
1012.894, 763.1849
1013.376, 768.4334
1013.858, 774.9789
1014.340, 783.0270
1014.823, 790.6840
1015.305, 796.6024
1015.787, 801.6058
1016.269, 806.5443
1016.751, 811.7648
1017.233, 818.6149
1017.715, 827.0154
1018.197, 836.0495
1018.679, 845.4658
1019.162, 855.8947
1019.644, 867.8682
1020.126, 881.1923
1020.608, 895.5341
1021.090, 910.8712
1021.572, 927.7418
1022.054, 946.2220
1022.536, 966.1581
1023.018, 987.9919
1023.501, 1007.479
1023.983, 1021.449
1024.465, 1029.113
1024.947, 1027.676
1025.429, 1016.875
1025.911, 999.7062
1026.393, 975.6527
1026.875, 947.3821
1027.358, 914.4444
1027.840, 881.6950
1028.322, 853.8215
1028.804, 830.1927
1029.286, 809.2366
1029.768, 791.0771
1030.250, 774.7914
1030.732, 760.3067
1031.214, 747.7207
1031.697, 737.0164
1032.179, 728.3580
1032.661, 722.1949
1033.143, 718.1627
1033.625, 714.3085
1034.107, 710.2213
1034.589, 707.4785
1035.071, 707.2865
1035.553, 706.2443
1036.036, 702.6004
1036.518, 698.2673
1037.000, 695.0750
1037.482, 692.8899
1037.964, 690.8819
1038.446, 688.6266
1038.928, 687.4249
1039.410, 688.3206
1039.893, 688.8573
1040.375, 688.2568
1040.857, 686.9023
1041.339, 684.3353
1041.821, 681.1168
1042.303, 680.5129
1042.785, 685.2240
1043.267, 687.3763
1043.750, 684.6433
1044.232, 681.8054
1044.714, 680.2656
1045.196, 679.5882
1045.678, 679.5129
1046.160, 679.9281
1046.642, 680.5074
1047.124, 681.7592
1047.606, 681.9426
1048.089, 679.8076
1048.571, 677.8105
1049.053, 677.3299
1049.535, 677.1396
1050.017, 675.7925
1050.499, 673.6022
1050.981, 672.0543
1051.463, 671.4913
1051.945, 671.3124
1052.428, 671.1317
1052.910, 671.6395
1053.392, 674.4080
1053.874, 677.0394
1054.356, 676.5383
1054.838, 673.7718
1055.320, 672.3723
1055.802, 673.6593
1056.285, 674.2698
1056.767, 671.4524
1057.249, 669.9050
1057.731, 674.2259
1058.213, 679.1027
1058.695, 678.2164
1059.177, 673.2272
1059.659, 670.5589
1060.141, 672.2525
1060.624, 673.5878
1061.106, 672.5430
1061.588, 671.1992
1062.070, 669.6703
1062.552, 669.1163
1063.034, 671.9234
1063.516, 676.4520
1063.998, 677.8470
1064.480, 674.3926
1064.963, 672.3271
1065.445, 675.6725
1065.927, 679.1300
1066.409, 679.8046
1066.891, 679.3717
1067.373, 679.1874
1067.855, 679.3944
1068.337, 679.8973
1068.820, 680.6835
1069.302, 681.5268
1069.784, 682.5193
1070.266, 683.3092
1070.748, 683.2111
1071.230, 683.2662
1071.712, 684.2285
1072.194, 686.1838
1072.677, 689.6410
1073.159, 694.6248
1073.641, 698.1869
1074.123, 697.8788
1074.605, 697.3250
1075.087, 698.5111
1075.569, 700.1218
1076.051, 701.1150
1076.533, 701.6152
1077.016, 702.1025
1077.498, 702.6376
1077.980, 702.7512
1078.462, 702.5667
1078.944, 701.4529
1079.426, 698.1599
1079.908, 694.7369
1080.390, 693.4807
1080.872, 692.9130
1081.354, 690.2709
1081.837, 685.4535
1082.319, 681.1331
1082.801, 678.4081
1083.283, 676.1512
1083.765, 673.9522
1084.247, 671.9259
1084.729, 670.1721
1085.211, 668.6335
1085.694, 666.9240
1086.176, 665.2722
1086.658, 664.9705
1087.140, 667.2400
1087.622, 668.6166
1088.104, 666.9514
1088.586, 664.7059
1089.068, 662.9639
1089.551, 661.8525
1090.033, 661.9017
1090.515, 662.6190
1090.997, 662.2916
1091.479, 660.1064
1091.961, 658.4955
1092.443, 658.7253
1092.925, 659.3344
1093.407, 660.5798
1093.890, 661.0098
1094.372, 658.4535
1094.854, 654.1216
1095.336, 651.0015
1095.818, 649.7367
1096.300, 649.4592
1096.782, 651.0974
1097.264, 652.0923
1097.746, 650.9105
1098.229, 649.2020
1098.711, 647.9607
1099.193, 647.2962
1099.675, 647.4118
1100.157, 648.3272
1100.639, 648.7569
1101.121, 647.7040
1101.603, 647.0866
1102.086, 648.1302
1102.568, 648.9946
1103.050, 648.0939
1103.532, 646.5587
1104.014, 646.2603
1104.496, 647.1427
1104.978, 647.1142
1105.460, 644.7571
1105.943, 643.2784
1106.425, 643.7079
1106.907, 644.4702
1107.389, 645.1407
1107.871, 645.5895
1108.353, 645.7840
1108.835, 645.6732
1109.317, 644.9466
1109.799, 642.9483
1110.281, 641.9125
1110.764, 643.2696
1111.246, 643.9222
1111.728, 642.0815
1112.210, 640.0389
1112.692, 639.8243
1113.174, 640.7462
1113.656, 640.9072
1114.138, 639.9780
1114.621, 639.7888
1115.103, 641.1326
1115.585, 641.9276
1116.067, 641.9441
1116.549, 641.1632
1117.031, 638.8199
1117.513, 636.2628
1117.995, 635.9432
1118.478, 637.9006
1118.960, 638.6030
1119.442, 637.2650
1119.924, 636.5392
1120.406, 636.7562
1120.888, 637.4564
1121.370, 638.8060
1121.852, 639.9725
1122.334, 639.8770
1122.817, 638.7867
1123.299, 638.1554
1123.781, 638.0546
1124.263, 638.1590
1124.745, 638.5899
1125.227, 638.6683
1125.709, 638.0116
1126.191, 637.5673
1126.673, 638.3125
1127.156, 639.4617
1127.638, 638.9259
1128.120, 636.6228
1128.602, 635.1801
1129.084, 634.6687
1129.566, 634.4733
1130.048, 634.5393
1130.530, 634.1944
1131.013, 632.9369
1131.495, 631.7047
1131.977, 632.0119
1132.459, 633.4869
1132.941, 634.4219
1133.423, 634.8173
1133.905, 634.1614
1134.387, 632.4998
1134.870, 631.8557
1135.352, 633.0276
1135.834, 635.1394
1136.316, 637.6318
1136.798, 639.7289
1137.280, 639.0391
1137.762, 636.6400
1138.244, 637.1142
1138.726, 639.7441
1139.208, 639.5093
1139.691, 635.6475
1140.173, 632.6140
1140.655, 633.2579
1141.137, 635.2013
1141.619, 635.8277
1142.101, 635.4355
1142.583, 633.9659
1143.065, 632.1104
1143.548, 631.5844
1144.030, 632.2296
1144.512, 632.3187
1144.994, 631.2508
1145.476, 630.9011
1145.958, 633.3559
1146.440, 636.4686
1146.922, 638.4276
1147.405, 639.4960
1147.887, 639.6859
1148.369, 639.3752
1148.851, 639.3556
1149.333, 639.6494
1149.815, 639.2333
1150.297, 637.1160
1150.779, 635.5938
1151.261, 636.5716
1151.744, 638.0217
1152.226, 638.3788
1152.708, 638.4164
1153.190, 639.6643
1153.672, 641.4645
1154.154, 641.1849
1154.636, 637.7377
1155.118, 635.7999
1155.600, 638.6202
1156.083, 640.6019
1156.565, 639.1412
1157.047, 636.8695
1157.529, 635.4640
1158.011, 634.5849
1158.493, 633.4121
1158.975, 631.9191
1159.457, 631.2882
1159.940, 632.6647
1160.422, 633.1264
1160.904, 631.5449
1161.386, 630.5961
1161.868, 632.0700
1162.350, 633.4766
1162.832, 632.3302
1163.314, 629.4388
1163.796, 627.1573
1164.279, 625.2691
1164.761, 625.4785
1165.243, 628.5732
1165.725, 630.9210
1166.207, 631.6166
1166.689, 632.2980
1167.171, 634.0527
1167.653, 635.8598
1168.135, 636.2472
1168.618, 635.4079
1169.100, 634.1889
1169.582, 632.6102
1170.064, 631.8963
1170.546, 632.1453
1171.028, 632.9332
1171.510, 634.1224
1171.992, 636.0688
1172.474, 639.3539
1172.957, 642.0687
1173.439, 639.5530
1173.921, 634.2039
1174.403, 633.5731
1174.885, 636.3905
1175.367, 637.9203
1175.849, 637.6885
1176.331, 637.9514
1176.814, 639.6688
1177.296, 641.3552
1177.778, 641.0456
1178.260, 640.9051
1178.742, 644.7751
1179.224, 649.3836
1179.706, 649.7366
1180.188, 647.4434
1180.671, 646.3458
1181.153, 647.0181
1181.635, 647.6824
1182.117, 647.5751
1182.599, 647.3601
1183.081, 647.5261
1183.563, 647.5406
1184.045, 646.3932
1184.527, 645.5167
1185.010, 646.9951
1185.492, 649.6921
1185.974, 650.5736
1186.456, 649.0880
1186.938, 648.5901
1187.420, 651.5704
1187.902, 652.6072
1188.384, 649.3715
1188.866, 645.8139
1189.349, 642.9036
1189.831, 641.2362
1190.313, 642.3036
1190.795, 644.9932
1191.277, 644.6056
1191.759, 639.9222
1192.241, 637.7942
1192.723, 639.2859
1193.206, 639.4208
1193.688, 636.8301
1194.170, 634.0886
1194.652, 632.6528
1195.134, 632.0753
1195.616, 631.9677
1196.098, 631.9550
1196.580, 629.9893
1197.063, 626.3724
1197.545, 624.0374
1198.027, 623.1572
1198.509, 623.1604
1198.991, 623.7994
1199.473, 624.3673
1199.955, 624.4221
1200.437, 623.8173
1200.919, 621.9153
1201.401, 619.5286
1201.884, 617.6931
1202.366, 616.6278
1202.848, 617.4110
1203.330, 619.2275
1203.812, 619.3083
1204.294, 617.0407
1204.776, 615.3077
1205.258, 616.3629
1205.741, 617.2606
1206.223, 615.5712
1206.705, 613.5814
1207.187, 613.1137
1207.669, 613.3254
1208.151, 613.2776
1208.633, 612.8522
1209.115, 611.9752
1209.598, 610.4530
1210.080, 609.5478
1210.562, 610.2661
1211.044, 610.3957
1211.526, 608.6806
1212.008, 607.3105
1212.490, 607.3293
1212.972, 608.2398
1213.454, 610.1319
1213.937, 612.2711
1214.419, 610.4276
1214.901, 602.8924
1215.383, 600.6120
1215.865, 604.6877
1216.347, 607.4541
1216.829, 607.0997
1217.311, 606.1487
1217.793, 606.0939
1218.276, 605.8948
1218.758, 603.8365
1219.240, 601.0105
1219.722, 600.7616
1220.204, 602.3898
1220.686, 603.6138
1221.168, 604.2568
1221.650, 604.3293
1222.133, 603.9759
1222.615, 603.9319
1223.097, 604.6476
1223.579, 605.4184
1224.061, 605.3654
1224.543, 605.3142
1225.025, 606.3279
1225.507, 607.5869
1225.990, 608.4195
1226.472, 608.5729
1226.954, 607.7211
1227.436, 605.8678
1227.918, 603.4536
1228.400, 599.7244
1228.882, 597.3430
1229.364, 597.4958
1229.846, 598.3650
1230.328, 600.5172
1230.811, 601.8092
1231.293, 599.7267
1231.775, 596.3513
1232.257, 595.8034
1232.739, 598.0549
1233.221, 598.7285
1233.703, 597.2286
1234.185, 596.8484
1234.668, 597.9777
1235.150, 599.7023
1235.632, 601.9424
1236.114, 602.6049
1236.596, 599.7734
1237.078, 595.8692
1237.560, 595.1812
1238.042, 596.8320
1238.525, 598.5557
1239.007, 599.9774
1239.489, 599.8002
1239.971, 598.1436
1240.453, 595.2604
1240.935, 591.6976
1241.417, 590.5778
1241.899, 594.5987
1242.381, 598.9172
1242.864, 599.8995
1243.346, 599.3539
1243.828, 598.0828
1244.310, 596.7002
1244.792, 595.8011
1245.274, 595.2819
1245.756, 594.9026
1246.238, 594.6194
1246.720, 594.0156
1247.203, 592.0110
1247.685, 591.3774
1248.167, 594.0175
1248.649, 595.3048
1249.131, 592.8287
1249.613, 590.2102
1250.095, 590.1973
1250.577, 591.8801
1251.059, 593.7246
1251.542, 595.6073
1252.024, 595.6998
1252.506, 594.0203
1252.988, 593.1835
1253.470, 593.4002
1253.952, 593.8356
1254.434, 594.2125
1254.916, 594.7265
1255.399, 595.5869
1255.881, 595.9641
1256.363, 594.2305
1256.845, 591.8803
1257.327, 590.8349
1257.809, 590.8331
1258.291, 592.4819
1258.773, 594.4149
1259.255, 593.0827
1259.738, 588.5404
1260.220, 586.0972
1260.702, 588.5196
1261.184, 590.7198
1261.666, 590.5526
1262.148, 590.5685
1262.630, 592.6696
1263.112, 594.3543
1263.594, 593.3160
1264.077, 591.1760
1264.559, 590.4036
1265.041, 590.7573
1265.523, 589.9894
1266.005, 587.6299
1266.487, 587.0854
1266.969, 588.6328
1267.451, 590.4916
1267.934, 592.2847
1268.416, 592.6536
1268.898, 590.7800
1269.380, 588.0233
1269.862, 585.4006
1270.344, 583.9266
1270.826, 586.6602
1271.308, 591.1633
1271.791, 592.8652
1272.273, 592.5306
1272.755, 592.3538
1273.237, 592.5779
1273.719, 592.3090
1274.201, 591.2230
1274.683, 589.9778
1275.165, 588.7101
1275.647, 587.5583
1276.130, 586.1776
1276.612, 585.3848
1277.094, 586.3826
1277.576, 587.5872
1278.058, 587.1146
1278.540, 585.6124
1279.022, 584.8754
1279.504, 584.9600
1279.986, 585.1917
1280.469, 585.5289
1280.951, 586.4141
1281.433, 587.9888
1281.915, 588.5278
1282.397, 587.4023
1282.879, 586.1870
1283.361, 586.1657
1283.843, 586.5374
1284.326, 586.3672
1284.808, 585.6068
##END=



