##NAMES=Natrolite
##RRUFFID=R040112
##IDEAL CHEMISTRY=Na_2_(Si_3_Al_2_)O_10_&#183;2H_2_O
##LOCALITY=Ice River Alkaline Complex, Moose Creek Valley, Yoho National Park, British Columbia, Canada
##OWNER=RRUFF
##SOURCE=National Museums of Canada
##DESCRIPTION=Colorless pseudohexagonal prism
##STATUS=The identification of this mineral has been confirmed by X-ray diffraction and chemical analysis
##URL=rruff.info/R040112
##MEASURED CHEMISTRY=Na_2.00_(Si_3.00_Al_2.00_)O_10_Â·2H_2_O
153.5188, 4584.999
154.0009, 4855.495
154.4830, 5165.003
154.9651, 5509.409
155.4472, 5889.041
155.9293, 6298.019
156.4115, 6748.834
156.8936, 7259.070
157.3757, 7818.178
157.8578, 8396.315
158.3399, 9008.518
158.8221, 9622.407
159.3042, 10223.57
159.7863, 10897.13
160.2684, 11470.11
160.7505, 11912.54
161.2326, 12222.42
161.7148, 12348.94
162.1969, 12227.12
162.6790, 11928.00
163.1611, 11523.31
163.6432, 10986.58
164.1253, 10387.64
164.6075, 9733.686
165.0896, 9023.906
165.5717, 8346.992
166.0538, 7734.535
166.5359, 7189.220
167.0180, 6712.400
167.5002, 6304.458
167.9823, 5960.446
168.4644, 5682.391
168.9465, 5473.463
169.4286, 5309.542
169.9107, 5178.018
170.3929, 5079.440
170.8750, 5011.614
171.3571, 5001.038
171.8392, 5009.685
172.3213, 5002.489
172.8034, 4979.592
173.2856, 4926.193
173.7677, 4821.147
174.2498, 4671.078
174.7319, 4501.191
175.2140, 4304.875
175.6961, 4103.230
176.1783, 3928.349
176.6604, 3787.437
177.1425, 3676.081
177.6246, 3589.841
178.1067, 3529.679
178.5888, 3496.394
179.0710, 3486.356
179.5531, 3504.083
180.0352, 3563.831
180.5173, 3679.062
180.9994, 3827.121
181.4815, 3967.587
181.9637, 4102.248
182.4458, 4247.931
182.9279, 4429.391
183.4100, 4637.649
183.8921, 4844.443
184.3742, 5058.095
184.8564, 5258.402
185.3385, 5403.906
185.8206, 5497.612
186.3027, 5515.168
186.7848, 5418.493
187.2669, 5215.313
187.7491, 4962.339
188.2312, 4653.946
188.7133, 4311.314
189.1954, 4002.099
189.6775, 3727.933
190.1596, 3489.218
190.6418, 3285.156
191.1239, 3116.650
191.6060, 2977.311
192.0881, 2865.402
192.5702, 2780.798
193.0524, 2724.679
193.5345, 2699.668
194.0166, 2696.411
194.4987, 2704.777
194.9808, 2725.270
195.4629, 2749.926
195.9451, 2770.965
196.4272, 2789.004
196.9093, 2825.863
197.3914, 2885.282
197.8735, 2958.728
198.3556, 3026.763
198.8378, 3085.924
199.3199, 3159.665
199.8020, 3259.798
200.2841, 3385.848
200.7662, 3532.971
201.2483, 3703.688
201.7305, 3892.751
202.2126, 4087.280
202.6947, 4286.327
203.1768, 4494.378
203.6589, 4724.704
204.1410, 4982.972
204.6232, 5212.782
205.1053, 5419.973
205.5874, 5590.772
206.0695, 5678.911
206.5516, 5679.992
207.0337, 5609.915
207.5159, 5466.008
207.9980, 5237.688
208.4801, 4996.718
208.9622, 4742.931
209.4443, 4483.432
209.9264, 4251.695
210.4086, 4047.201
210.8907, 3870.878
211.3728, 3726.261
211.8549, 3614.059
212.3370, 3527.796
212.8191, 3469.609
213.3013, 3437.659
213.7834, 3413.767
214.2655, 3400.805
214.7476, 3391.236
215.2297, 3376.182
215.7118, 3348.063
216.1940, 3336.219
216.6761, 3351.803
217.1582, 3393.037
217.6403, 3420.136
218.1224, 3434.887
218.6045, 3432.809
219.0867, 3405.827
219.5688, 3342.685
220.0509, 3282.134
220.5330, 3237.438
221.0151, 3208.774
221.4972, 3159.896
221.9794, 3086.652
222.4615, 2997.436
222.9436, 2898.736
223.4257, 2786.101
223.9078, 2671.760
224.3899, 2560.708
224.8721, 2452.131
225.3542, 2336.303
225.8363, 2201.760
226.3184, 2069.853
226.8005, 1964.902
227.2827, 1897.525
227.7648, 1838.416
228.2469, 1780.372
228.7290, 1722.734
229.2111, 1672.498
229.6932, 1629.662
230.1754, 1594.803
230.6575, 1567.945
231.1396, 1547.922
231.6217, 1538.541
232.1038, 1542.242
232.5859, 1561.091
233.0681, 1581.797
233.5502, 1602.875
234.0323, 1626.748
234.5144, 1657.802
234.9965, 1698.929
235.4786, 1742.012
235.9608, 1784.326
236.4429, 1824.061
236.9250, 1868.477
237.4071, 1915.807
237.8892, 1968.665
238.3713, 2032.625
238.8535, 2115.675
239.3356, 2197.062
239.8177, 2277.764
240.2998, 2371.958
240.7819, 2409.301
241.2640, 2376.238
241.7462, 2294.867
242.2283, 2199.754
242.7104, 2080.191
243.1925, 1964.428
243.6746, 1861.135
244.1567, 1770.748
244.6389, 1690.245
245.1210, 1619.719
245.6031, 1559.096
246.0852, 1509.631
246.5673, 1474.922
247.0494, 1445.307
247.5316, 1418.292
248.0137, 1395.250
248.4958, 1369.276
248.9779, 1336.266
249.4600, 1302.782
249.9421, 1282.730
250.4243, 1282.377
250.9064, 1283.895
251.3885, 1279.523
251.8706, 1264.543
252.3527, 1260.052
252.8348, 1269.654
253.3170, 1287.451
253.7991, 1302.449
254.2812, 1313.390
254.7633, 1323.635
255.2454, 1334.402
255.7275, 1345.750
256.2097, 1356.382
256.6918, 1363.335
257.1739, 1371.476
257.6560, 1391.558
258.1381, 1429.864
258.6202, 1467.274
259.1024, 1496.460
259.5845, 1514.945
260.0666, 1534.170
260.5487, 1554.067
261.0308, 1574.723
261.5129, 1597.537
261.9951, 1623.248
262.4772, 1648.861
262.9593, 1672.107
263.4414, 1691.761
263.9235, 1716.024
264.4056, 1746.152
264.8878, 1780.040
265.3699, 1814.083
265.8520, 1847.218
266.3341, 1884.367
266.8162, 1928.024
267.2983, 1978.208
267.7805, 2033.662
268.2626, 2097.410
268.7447, 2162.549
269.2268, 2217.160
269.7089, 2259.965
270.1910, 2296.581
270.6732, 2327.223
271.1553, 2350.535
271.6374, 2380.593
272.1195, 2419.186
272.6016, 2461.980
273.0837, 2502.712
273.5659, 2542.833
274.0480, 2574.712
274.5301, 2596.766
275.0122, 2608.955
275.4943, 2608.551
275.9764, 2596.904
276.4586, 2570.115
276.9407, 2517.573
277.4228, 2437.418
277.9049, 2353.819
278.3870, 2274.554
278.8691, 2199.722
279.3513, 2131.214
279.8334, 2068.691
280.3155, 2013.370
280.7976, 1966.609
281.2798, 1928.810
281.7619, 1899.297
282.2440, 1877.240
282.7261, 1863.040
283.2082, 1859.849
283.6903, 1867.869
284.1725, 1886.165
284.6546, 1915.852
285.1367, 1956.399
285.6188, 2000.804
286.1009, 2048.772
286.5830, 2098.776
287.0652, 2145.829
287.5473, 2190.125
288.0294, 2227.771
288.5115, 2255.463
288.9936, 2273.071
289.4757, 2278.662
289.9579, 2267.663
290.4400, 2245.260
290.9221, 2225.598
291.4042, 2208.973
291.8863, 2191.408
292.3684, 2165.438
292.8506, 2133.963
293.3327, 2109.318
293.8148, 2097.599
294.2969, 2093.643
294.7790, 2087.222
295.2611, 2078.304
295.7433, 2069.944
296.2254, 2056.650
296.7075, 2045.047
297.1896, 2054.121
297.6717, 2093.917
298.1538, 2153.221
298.6360, 2216.241
299.1181, 2283.639
299.6002, 2356.365
300.0823, 2435.040
300.5644, 2520.320
301.0465, 2613.070
301.5287, 2708.955
302.0108, 2817.972
302.4929, 2948.014
302.9750, 3099.994
303.4571, 3271.637
303.9392, 3490.664
304.4214, 3720.840
304.9035, 3924.107
305.3856, 4105.789
305.8677, 4227.006
306.3498, 4259.051
306.8319, 4201.963
307.3141, 4054.214
307.7962, 3753.920
308.2783, 3392.565
308.7604, 3049.197
309.2425, 2737.977
309.7246, 2466.388
310.2068, 2241.079
310.6889, 2058.782
311.1710, 1907.878
311.6531, 1791.570
312.1352, 1698.836
312.6173, 1623.352
313.0995, 1565.423
313.5816, 1523.160
314.0637, 1502.410
314.5458, 1496.190
315.0279, 1491.087
315.5100, 1479.296
315.9922, 1469.282
316.4743, 1465.530
316.9564, 1469.042
317.4385, 1476.805
317.9206, 1490.316
318.4027, 1506.920
318.8849, 1522.910
319.3670, 1529.509
319.8491, 1542.167
320.3312, 1568.761
320.8133, 1612.425
321.2954, 1654.933
321.7776, 1686.970
322.2597, 1718.597
322.7418, 1760.536
323.2239, 1810.845
323.7060, 1875.081
324.1881, 1959.321
324.6703, 2065.542
325.1524, 2168.058
325.6345, 2256.119
326.1166, 2343.446
326.5987, 2441.776
327.0808, 2548.965
327.5630, 2669.763
328.0451, 2810.896
328.5272, 2971.091
329.0093, 3125.202
329.4914, 3286.117
329.9735, 3425.909
330.4557, 3527.525
330.9378, 3600.574
331.4199, 3618.038
331.9020, 3573.507
332.3841, 3471.302
332.8662, 3326.140
333.3484, 3114.849
333.8305, 2897.886
334.3126, 2704.395
334.7947, 2538.127
335.2768, 2389.338
335.7589, 2256.765
336.2411, 2142.189
336.7232, 2047.897
337.2053, 1977.011
337.6874, 1919.364
338.1695, 1870.060
338.6516, 1829.396
339.1338, 1799.131
339.6159, 1781.618
340.0980, 1771.280
340.5801, 1758.673
341.0622, 1743.021
341.5443, 1731.029
342.0265, 1726.297
342.5086, 1728.122
342.9907, 1730.104
343.4728, 1732.529
343.9549, 1733.915
344.4370, 1731.708
344.9192, 1726.283
345.4013, 1720.964
345.8834, 1716.327
346.3655, 1712.852
346.8476, 1710.485
347.3297, 1709.036
347.8119, 1713.448
348.2940, 1730.701
348.7761, 1757.956
349.2582, 1785.822
349.7403, 1809.959
350.2225, 1835.891
350.7046, 1872.503
351.1867, 1919.252
351.6688, 1969.432
352.1509, 2021.191
352.6331, 2072.645
353.1152, 2119.585
353.5973, 2156.863
354.0794, 2197.383
354.5615, 2255.615
355.0436, 2327.205
355.5258, 2398.901
356.0079, 2463.602
356.4900, 2525.122
356.9721, 2588.091
357.4542, 2655.514
357.9363, 2716.603
358.4185, 2770.557
358.9006, 2813.536
359.3827, 2838.897
359.8648, 2845.448
360.3469, 2832.603
360.8290, 2798.438
361.3112, 2741.521
361.7933, 2671.360
362.2754, 2584.452
362.7575, 2487.895
363.2396, 2388.985
363.7217, 2276.394
364.2039, 2175.902
364.6860, 2096.522
365.1681, 2038.263
365.6502, 1985.899
366.1323, 1934.043
366.6144, 1889.229
367.0966, 1855.941
367.5787, 1841.024
368.0608, 1829.911
368.5429, 1824.941
369.0250, 1824.077
369.5071, 1817.443
369.9893, 1806.764
370.4714, 1788.466
370.9535, 1759.436
371.4356, 1713.223
371.9177, 1672.307
372.3998, 1641.117
372.8820, 1613.089
373.3641, 1572.540
373.8462, 1514.314
374.3283, 1457.131
374.8104, 1407.439
375.2925, 1364.563
375.7747, 1334.339
376.2568, 1320.125
376.7389, 1311.394
377.2210, 1292.410
377.7031, 1262.135
378.1852, 1236.831
378.6674, 1222.907
379.1495, 1217.809
379.6316, 1210.023
380.1137, 1199.380
380.5958, 1188.189
381.0779, 1177.898
381.5601, 1168.657
382.0422, 1162.107
382.5243, 1159.096
383.0064, 1158.087
383.4885, 1156.051
383.9706, 1153.302
384.4528, 1152.273
384.9349, 1156.793
385.4170, 1163.564
385.8991, 1166.577
386.3812, 1163.881
386.8633, 1160.920
387.3455, 1164.171
387.8276, 1171.110
388.3097, 1176.013
388.7918, 1174.157
389.2739, 1170.222
389.7560, 1166.801
390.2382, 1163.819
390.7203, 1164.723
391.2024, 1172.677
391.6845, 1185.058
392.1666, 1198.980
392.6487, 1218.921
393.1309, 1235.068
393.6130, 1240.212
394.0951, 1235.612
394.5772, 1235.645
395.0593, 1245.995
395.5414, 1260.847
396.0236, 1276.492
396.5057, 1293.525
396.9878, 1310.099
397.4699, 1325.399
397.9520, 1339.969
398.4341, 1355.258
398.9163, 1369.237
399.3984, 1386.029
399.8805, 1407.286
400.3626, 1433.971
400.8447, 1462.060
401.3268, 1490.138
401.8090, 1520.646
402.2911, 1557.515
402.7732, 1600.543
403.2553, 1649.924
403.7374, 1708.670
404.2195, 1775.801
404.7017, 1830.628
405.1838, 1868.296
405.6659, 1907.412
406.1480, 1967.292
406.6301, 2048.482
407.1122, 2128.247
407.5944, 2202.039
408.0765, 2272.867
408.5586, 2346.146
409.0407, 2422.153
409.5228, 2500.120
410.0049, 2585.450
410.4871, 2671.703
410.9692, 2741.799
411.4513, 2793.584
411.9334, 2831.362
412.4155, 2865.270
412.8976, 2890.631
413.3798, 2893.502
413.8619, 2856.453
414.3440, 2800.608
414.8261, 2745.068
415.3082, 2690.167
415.7903, 2636.178
416.2725, 2581.314
416.7546, 2527.741
417.2367, 2476.715
417.7188, 2429.431
418.2009, 2385.330
418.6830, 2341.013
419.1652, 2298.885
419.6473, 2269.524
420.1294, 2263.611
420.6115, 2265.761
421.0937, 2266.806
421.5758, 2260.536
422.0579, 2264.108
422.5400, 2280.233
423.0221, 2307.357
423.5042, 2343.439
423.9864, 2389.689
424.4685, 2442.748
424.9506, 2500.798
425.4327, 2562.219
425.9148, 2640.282
426.3969, 2737.605
426.8791, 2848.479
427.3612, 2965.022
427.8433, 3081.317
428.3254, 3220.959
428.8075, 3388.528
429.2896, 3581.087
429.7718, 3781.558
430.2539, 3986.781
430.7360, 4216.903
431.2181, 4482.926
431.7002, 4783.980
432.1823, 5104.218
432.6645, 5439.510
433.1466, 5806.825
433.6287, 6228.973
434.1108, 6700.365
434.5929, 7198.414
435.0750, 7696.580
435.5572, 8218.728
436.0393, 8798.745
436.5214, 9437.180
437.0035, 10148.51
437.4856, 10948.10
437.9677, 11819.48
438.4499, 12744.95
438.9320, 13757.76
439.4141, 14759.18
439.8962, 15800.68
440.3783, 16783.11
440.8604, 17481.51
441.3426, 17873.51
441.8247, 17884.18
442.3068, 17417.71
442.7889, 16401.23
443.2710, 15211.47
443.7531, 13789.54
444.2353, 12310.17
444.7174, 10941.80
445.1995, 9698.807
445.6816, 8599.547
446.1637, 7660.771
446.6458, 6882.314
447.1280, 6191.026
447.6101, 5596.858
448.0922, 5076.995
448.5743, 4626.889
449.0564, 4250.249
449.5385, 3924.458
450.0207, 3656.482
450.5028, 3432.751
450.9849, 3232.673
451.4670, 3059.460
451.9491, 2902.622
452.4312, 2757.382
452.9134, 2625.198
453.3955, 2514.781
453.8776, 2428.028
454.3597, 2351.808
454.8418, 2272.700
455.3239, 2193.277
455.8061, 2128.314
456.2882, 2083.166
456.7703, 2049.432
457.2524, 2017.126
457.7345, 1986.304
458.2166, 1956.420
458.6988, 1925.678
459.1809, 1896.742
459.6630, 1874.380
460.1451, 1859.809
460.6272, 1844.542
461.1093, 1818.388
461.5915, 1789.940
462.0736, 1770.449
462.5557, 1772.434
463.0378, 1775.327
463.5199, 1770.353
464.0020, 1758.746
464.4842, 1750.407
464.9663, 1745.955
465.4484, 1746.456
465.9305, 1753.281
466.4126, 1775.591
466.8947, 1787.764
467.3769, 1780.833
467.8590, 1767.664
468.3411, 1770.325
468.8232, 1797.108
469.3053, 1822.969
469.7874, 1838.702
470.2696, 1845.550
470.7517, 1870.298
471.2338, 1918.975
471.7159, 1966.782
472.1980, 1988.149
472.6801, 1983.867
473.1623, 1985.528
473.6444, 1997.596
474.1265, 2017.509
474.6086, 2041.503
475.0907, 2069.609
475.5728, 2102.038
476.0550, 2142.528
476.5371, 2186.314
477.0192, 2223.603
477.5013, 2254.128
477.9834, 2286.410
478.4655, 2333.108
478.9477, 2383.778
479.4298, 2423.598
479.9119, 2439.443
480.3940, 2455.162
480.8761, 2484.159
481.3582, 2522.861
481.8404, 2560.714
482.3225, 2596.911
482.8046, 2629.283
483.2867, 2657.240
483.7688, 2680.761
484.2509, 2699.708
484.7331, 2711.413
485.2152, 2719.805
485.6973, 2729.068
486.1794, 2742.949
486.6615, 2750.516
487.1436, 2745.106
487.6258, 2731.985
488.1079, 2739.048
488.5900, 2773.593
489.0721, 2808.076
489.5542, 2823.495
490.0363, 2819.656
490.5185, 2831.475
491.0006, 2863.143
491.4827, 2899.119
491.9648, 2917.582
492.4470, 2921.405
492.9291, 2926.188
493.4112, 2940.292
493.8933, 2955.427
494.3754, 2954.847
494.8575, 2941.177
495.3397, 2930.971
495.8218, 2931.291
496.3039, 2942.604
496.7860, 2968.503
497.2681, 3014.393
497.7502, 3056.553
498.2324, 3081.137
498.7145, 3094.995
499.1966, 3107.909
499.6787, 3112.258
500.1608, 3126.470
500.6429, 3160.645
501.1251, 3213.424
501.6072, 3261.698
502.0893, 3294.509
502.5714, 3331.334
503.0535, 3380.834
503.5356, 3442.954
504.0178, 3519.352
504.4999, 3618.975
504.9820, 3724.075
505.4641, 3804.868
505.9462, 3854.260
506.4283, 3915.381
506.9105, 4003.600
507.3926, 4111.816
507.8747, 4211.157
508.3568, 4301.494
508.8389, 4392.011
509.3210, 4490.616
509.8032, 4596.128
510.2853, 4708.503
510.7674, 4829.750
511.2495, 4949.183
511.7316, 5052.425
512.2137, 5146.350
512.6959, 5243.233
513.1780, 5348.655
513.6601, 5459.504
514.1422, 5579.580
514.6243, 5706.231
515.1064, 5822.040
515.5886, 5900.879
516.0707, 5980.724
516.5528, 6084.711
517.0349, 6226.888
517.5170, 6371.724
517.9991, 6511.007
518.4813, 6652.143
518.9634, 6803.335
519.4455, 6961.557
519.9276, 7134.357
520.4097, 7320.546
520.8918, 7519.999
521.3740, 7751.570
521.8561, 8012.133
522.3382, 8315.207
522.8203, 8672.641
523.3024, 9080.663
523.7845, 9529.262
524.2667, 10023.67
524.7488, 10548.34
525.2309, 11086.76
525.7130, 11651.83
526.1951, 12274.14
526.6772, 12964.48
527.1594, 13727.08
527.6415, 14564.23
528.1236, 15469.61
528.6057, 16439.25
529.0878, 17488.75
529.5699, 18580.81
530.0521, 19703.26
530.5342, 20900.01
531.0163, 21965.78
531.4984, 22931.87
531.9805, 23703.35
532.4626, 24185.39
532.9448, 24425.46
533.4269, 24291.84
533.9090, 23730.22
534.3911, 22780.13
534.8732, 21598.72
535.3553, 20084.10
535.8375, 18496.07
536.3196, 16932.39
536.8017, 15367.64
537.2838, 13941.11
537.7659, 12642.25
538.2480, 11472.67
538.7302, 10440.98
539.2123, 9534.272
539.6944, 8728.780
540.1765, 8021.442
540.6586, 7407.597
541.1407, 6875.309
541.6229, 6419.081
542.1050, 6010.000
542.5871, 5645.744
543.0692, 5312.393
543.5513, 4999.020
544.0334, 4707.761
544.5156, 4448.783
544.9977, 4235.936
545.4798, 4052.240
545.9619, 3887.513
546.4440, 3748.311
546.9261, 3615.132
547.4083, 3483.532
547.8904, 3356.304
548.3725, 3240.404
548.8546, 3135.957
549.3367, 3041.635
549.8188, 2959.715
550.3010, 2888.977
550.7831, 2813.229
551.2652, 2729.177
551.7473, 2650.835
552.2294, 2592.269
552.7115, 2551.119
553.1937, 2505.417
553.6758, 2452.155
554.1579, 2399.606
554.6400, 2360.576
555.1221, 2330.695
555.6042, 2297.969
556.0864, 2253.743
556.5685, 2208.684
557.0506, 2174.732
557.5327, 2149.326
558.0148, 2123.522
558.4969, 2094.004
558.9791, 2061.824
559.4612, 2024.846
559.9433, 1979.806
560.4254, 1946.751
560.9075, 1939.337
561.3896, 1940.044
561.8718, 1932.956
562.3539, 1910.892
562.8360, 1893.665
563.3181, 1886.236
563.8002, 1883.011
564.2823, 1868.354
564.7645, 1839.130
565.2466, 1813.284
565.7287, 1800.188
566.2108, 1796.570
566.6929, 1786.832
567.1750, 1770.939
567.6572, 1751.451
568.1393, 1725.364
568.6214, 1698.328
569.1035, 1683.872
569.5856, 1685.943
570.0677, 1692.500
570.5499, 1698.177
571.0320, 1700.784
571.5141, 1696.949
571.9962, 1676.996
572.4783, 1658.772
572.9604, 1649.160
573.4426, 1647.477
573.9247, 1649.469
574.4068, 1662.752
574.8889, 1671.884
575.3710, 1668.914
575.8531, 1649.951
576.3353, 1640.260
576.8174, 1643.941
577.2995, 1650.951
577.7816, 1652.531
578.2637, 1648.541
578.7458, 1639.182
579.2280, 1622.456
579.7101, 1604.089
580.1922, 1594.841
580.6743, 1593.534
581.1564, 1593.512
581.6385, 1591.313
582.1207, 1588.853
582.6028, 1587.251
583.0849, 1586.969
583.5670, 1591.430
584.0491, 1614.465
584.5313, 1635.508
585.0134, 1634.678
585.4955, 1599.035
585.9776, 1574.399
586.4597, 1581.365
586.9418, 1601.697
587.4240, 1614.659
587.9061, 1614.080
588.3882, 1614.830
588.8703, 1619.474
589.3524, 1626.193
589.8345, 1629.424
590.3167, 1628.485
590.7988, 1626.618
591.2809, 1624.765
591.7630, 1623.091
592.2451, 1621.430
592.7272, 1619.619
593.2094, 1621.842
593.6915, 1634.233
594.1736, 1652.599
594.6557, 1669.773
595.1378, 1684.800
595.6199, 1696.303
596.1021, 1704.691
596.5842, 1708.416
597.0663, 1705.253
597.5485, 1686.455
598.0306, 1669.150
598.5127, 1662.872
598.9948, 1663.721
599.4769, 1654.310
599.9590, 1625.419
600.4412, 1596.036
600.9233, 1572.446
601.4054, 1554.883
601.8875, 1537.389
602.3696, 1519.615
602.8517, 1503.066
603.3339, 1489.104
603.8160, 1477.625
604.2981, 1470.225
604.7802, 1468.347
605.2623, 1466.319
605.7444, 1455.991
606.2266, 1439.535
606.7087, 1423.007
607.1908, 1403.250
607.6729, 1389.497
608.1550, 1395.372
608.6371, 1414.369
609.1193, 1425.541
609.6014, 1414.306
610.0835, 1398.467
610.5656, 1384.545
611.0477, 1372.314
611.5298, 1368.038
612.0120, 1377.315
612.4941, 1389.067
612.9762, 1396.543
613.4583, 1399.863
613.9404, 1397.637
614.4225, 1387.841
614.9047, 1375.922
615.3868, 1369.193
615.8689, 1367.415
616.3510, 1368.608
616.8331, 1373.786
617.3152, 1379.529
617.7974, 1378.739
618.2795, 1373.389
618.7616, 1371.072
619.2437, 1377.449
619.7258, 1387.332
620.2079, 1398.652
620.6901, 1411.111
621.1722, 1419.728
621.6543, 1421.961
622.1364, 1420.358
622.6185, 1415.862
623.1006, 1405.062
623.5828, 1399.409
624.0649, 1401.404
624.5470, 1406.253
625.0291, 1408.046
625.5112, 1406.068
625.9933, 1404.659
626.4755, 1404.130
626.9576, 1405.227
627.4397, 1411.656
627.9218, 1422.399
628.4039, 1429.685
628.8860, 1423.727
629.3682, 1415.239
629.8503, 1420.956
630.3324, 1439.146
630.8145, 1456.419
631.2966, 1466.161
631.7787, 1471.187
632.2609, 1471.716
632.7430, 1465.231
633.2251, 1464.507
633.7072, 1479.148
634.1893, 1496.161
634.6714, 1504.572
635.1536, 1499.803
635.6357, 1496.547
636.1178, 1496.350
636.5999, 1497.642
637.0820, 1498.495
637.5641, 1499.019
638.0463, 1495.355
638.5284, 1482.933
639.0105, 1468.424
639.4926, 1468.211
639.9747, 1479.641
640.4568, 1487.370
640.9390, 1479.810
641.4211, 1465.801
641.9032, 1452.057
642.3853, 1439.130
642.8674, 1429.081
643.3495, 1425.397
643.8317, 1423.137
644.3138, 1418.777
644.7959, 1410.627
645.2780, 1402.679
645.7601, 1393.338
646.2422, 1385.611
646.7244, 1383.789
647.2065, 1389.209
647.6886, 1393.849
648.1707, 1396.598
648.6528, 1397.422
649.1349, 1397.167
649.6171, 1395.389
650.0992, 1389.061
650.5813, 1370.497
651.0634, 1350.506
651.5455, 1344.086
652.0276, 1349.069
652.5098, 1354.151
652.9919, 1352.416
653.4740, 1349.576
653.9561, 1349.616
654.4382, 1353.673
654.9203, 1355.980
655.4025, 1355.998
655.8846, 1353.926
656.3667, 1348.952
656.8488, 1338.087
657.3309, 1334.200
657.8130, 1340.005
658.2952, 1348.673
658.7773, 1348.965
659.2594, 1341.868
659.7415, 1339.695
660.2236, 1347.485
660.7057, 1358.633
661.1879, 1364.876
661.6700, 1366.807
662.1521, 1365.949
662.6342, 1358.226
663.1163, 1352.110
663.5984, 1354.557
664.0806, 1364.497
664.5627, 1372.375
665.0448, 1372.500
665.5269, 1373.073
666.0090, 1377.837
666.4911, 1387.396
666.9733, 1396.716
667.4554, 1406.694
667.9375, 1414.647
668.4196, 1416.845
668.9017, 1413.583
669.3839, 1414.422
669.8660, 1420.811
670.3481, 1428.484
670.8302, 1430.035
671.3123, 1429.315
671.7944, 1435.381
672.2766, 1455.593
672.7587, 1475.773
673.2408, 1486.764
673.7229, 1491.123
674.2050, 1494.106
674.6871, 1494.822
675.1693, 1496.813
675.6514, 1500.005
676.1335, 1504.970
676.6156, 1515.499
677.0977, 1534.117
677.5798, 1552.485
678.0620, 1566.465
678.5441, 1576.677
679.0262, 1589.062
679.5083, 1604.039
679.9904, 1615.931
680.4725, 1614.007
680.9547, 1607.740
681.4368, 1615.939
681.9189, 1642.018
682.4010, 1669.784
682.8831, 1690.405
683.3652, 1706.015
683.8474, 1717.733
684.3295, 1716.284
684.8116, 1726.189
685.2937, 1763.132
685.7758, 1807.949
686.2579, 1833.612
686.7401, 1830.149
687.2222, 1834.866
687.7043, 1855.245
688.1864, 1886.704
688.6685, 1922.242
689.1506, 1961.174
689.6328, 1992.072
690.1149, 2002.174
690.5970, 2006.574
691.0791, 2030.511
691.5612, 2070.646
692.0433, 2109.067
692.5255, 2135.016
693.0076, 2157.931
693.4897, 2182.672
693.9718, 2209.494
694.4539, 2240.473
694.9360, 2277.041
695.4182, 2316.676
695.9003, 2360.903
696.3824, 2413.497
696.8645, 2449.887
697.3466, 2465.889
697.8287, 2476.669
698.3109, 2498.318
698.7930, 2529.184
699.2751, 2561.300
699.7572, 2593.694
700.2393, 2624.444
700.7214, 2654.027
701.2036, 2679.945
701.6857, 2698.126
702.1678, 2711.103
702.6499, 2711.447
703.1320, 2689.154
703.6141, 2652.270
704.0963, 2621.071
704.5784, 2601.491
705.0605, 2579.835
705.5426, 2551.351
706.0247, 2518.597
706.5068, 2495.767
706.9890, 2484.359
707.4711, 2469.366
707.9532, 2441.184
708.4353, 2404.192
708.9174, 2369.168
709.3995, 2336.039
709.8817, 2305.499
710.3638, 2278.742
710.8459, 2254.589
711.3280, 2231.843
711.8101, 2209.824
712.2922, 2192.482
712.7744, 2182.936
713.2565, 2176.923
713.7386, 2171.572
714.2207, 2167.704
714.7028, 2161.854
715.1849, 2152.422
715.6671, 2143.690
716.1492, 2139.407
716.6313, 2139.674
717.1134, 2146.222
717.5955, 2160.467
718.0776, 2177.297
718.5598, 2190.384
719.0419, 2201.357
719.5240, 2213.209
720.0061, 2224.748
720.4882, 2240.299
720.9703, 2268.582
721.4525, 2302.005
721.9346, 2323.363
722.4167, 2320.303
722.8988, 2318.681
723.3809, 2325.443
723.8630, 2336.987
724.3452, 2337.677
724.8273, 2326.173
725.3094, 2313.860
725.7915, 2311.343
726.2736, 2310.018
726.7557, 2283.071
727.2379, 2233.399
727.7200, 2183.846
728.2021, 2157.303
728.6842, 2131.572
729.1663, 2083.808
729.6484, 2011.597
730.1306, 1946.608
730.6127, 1906.737
731.0948, 1869.231
731.5769, 1820.365
732.0590, 1755.208
732.5411, 1697.813
733.0233, 1649.808
733.5054, 1605.915
733.9875, 1560.846
734.4696, 1515.050
734.9517, 1473.110
735.4338, 1435.102
735.9160, 1402.045
736.3981, 1378.406
736.8802, 1359.310
737.3623, 1336.701
737.8444, 1303.130
738.3266, 1276.062
738.8087, 1265.968
739.2908, 1264.834
739.7729, 1261.350
740.2551, 1255.615
740.7372, 1246.233
741.2193, 1232.260
741.7014, 1215.213
742.1835, 1196.112
742.6656, 1174.969
743.1478, 1160.978
743.6299, 1159.564
744.1120, 1163.603
744.5941, 1162.949
745.0762, 1158.414
745.5583, 1152.496
746.0405, 1140.009
746.5226, 1132.516
747.0047, 1142.574
747.4868, 1165.823
747.9689, 1176.352
748.4510, 1161.240
748.9332, 1145.851
749.4153, 1138.899
749.8974, 1139.304
750.3795, 1132.130
750.8616, 1115.981
751.3438, 1103.209
751.8259, 1104.052
752.3080, 1113.547
752.7901, 1121.558
753.2722, 1127.638
753.7543, 1129.517
754.2365, 1120.218
754.7186, 1109.862
755.2007, 1107.675
755.6828, 1116.397
756.1649, 1122.797
756.6470, 1124.696
757.1292, 1123.683
757.6113, 1119.703
758.0934, 1111.088
758.5755, 1107.773
759.0576, 1110.978
759.5397, 1115.319
760.0219, 1114.165
760.5040, 1109.481
760.9861, 1108.075
761.4682, 1111.634
761.9503, 1115.071
762.4324, 1113.720
762.9146, 1110.248
763.3967, 1107.741
763.8788, 1106.766
764.3609, 1107.124
764.8430, 1112.347
765.3251, 1116.851
765.8073, 1112.730
766.2894, 1096.181
766.7715, 1086.974
767.2536, 1090.200
767.7357, 1097.510
768.2178, 1093.224
768.7000, 1080.278
769.1821, 1071.036
769.6642, 1070.011
770.1463, 1073.138
770.6284, 1080.137
771.1105, 1088.340
771.5927, 1092.590
772.0748, 1088.850
772.5569, 1083.688
773.0390, 1076.851
773.5211, 1070.032
774.0032, 1068.228
774.4854, 1072.905
774.9675, 1077.404
775.4496, 1080.876
775.9317, 1081.899
776.4138, 1074.479
776.8959, 1060.335
777.3781, 1048.445
777.8602, 1042.415
778.3423, 1041.562
778.8244, 1049.694
779.3065, 1063.655
779.7886, 1070.408
780.2708, 1057.217
780.7529, 1045.310
781.2350, 1040.971
781.7171, 1043.834
782.1992, 1052.399
782.6813, 1069.156
783.1635, 1081.409
783.6456, 1081.126
784.1277, 1071.556
784.6098, 1060.994
785.0919, 1049.981
785.5740, 1043.289
786.0562, 1048.655
786.5383, 1056.188
787.0204, 1055.293
787.5025, 1045.494
787.9846, 1042.568
788.4667, 1059.612
788.9489, 1075.250
789.4310, 1079.087
789.9131, 1070.080
790.3952, 1069.804
790.8773, 1080.254
791.3594, 1090.140
791.8416, 1089.701
792.3237, 1082.326
792.8058, 1075.771
793.2879, 1070.431
793.7700, 1068.579
794.2521, 1076.126
794.7343, 1084.886
795.2164, 1086.891
795.6985, 1078.761
796.1806, 1075.451
796.6627, 1080.054
797.1448, 1087.973
797.6270, 1097.909
798.1091, 1111.043
798.5912, 1114.638
799.0733, 1106.860
799.5554, 1099.192
800.0375, 1105.202
800.5197, 1118.625
801.0018, 1127.950
801.4839, 1131.494
801.9660, 1131.444
802.4481, 1123.747
802.9302, 1116.362
803.4124, 1117.064
803.8945, 1135.005
804.3766, 1142.064
804.8587, 1132.918
805.3408, 1119.899
805.8229, 1114.635
806.3051, 1117.069
806.7872, 1117.632
807.2693, 1115.173
807.7514, 1112.909
808.2335, 1116.027
808.7156, 1120.844
809.1978, 1120.904
809.6799, 1112.787
810.1620, 1106.939
810.6441, 1108.050
811.1262, 1113.358
811.6083, 1120.690
812.0905, 1133.879
812.5726, 1139.231
813.0547, 1133.764
813.5368, 1125.604
814.0189, 1125.595
814.5010, 1131.961
814.9832, 1133.167
815.4653, 1126.131
815.9474, 1119.828
816.4295, 1123.714
816.9116, 1132.688
817.3937, 1140.825
817.8759, 1148.344
818.3580, 1151.523
818.8401, 1147.793
819.3222, 1140.484
819.8043, 1130.436
820.2864, 1114.442
820.7686, 1112.773
821.2507, 1130.652
821.7328, 1152.807
822.2149, 1160.380
822.6970, 1156.397
823.1791, 1146.664
823.6613, 1129.592
824.1434, 1116.955
824.6255, 1121.094
825.1076, 1132.008
825.5897, 1138.523
826.0718, 1134.817
826.5540, 1132.198
827.0361, 1131.574
827.5182, 1131.027
828.0003, 1126.096
828.4824, 1116.957
828.9645, 1118.128
829.4467, 1134.184
829.9288, 1150.694
830.4109, 1147.835
830.8930, 1135.631
831.3751, 1130.540
831.8572, 1142.251
832.3394, 1148.903
832.8215, 1138.648
833.3036, 1121.706
833.7857, 1108.979
834.2678, 1100.012
834.7499, 1097.860
835.2321, 1104.618
835.7142, 1113.879
836.1963, 1116.676
836.6784, 1115.049
837.1605, 1116.891
837.6426, 1124.425
838.1248, 1132.160
838.6069, 1135.298
839.0890, 1136.559
839.5711, 1139.030
840.0532, 1145.356
840.5353, 1149.161
841.0175, 1150.000
841.4996, 1148.371
841.9817, 1144.690
842.4638, 1138.936
842.9459, 1130.311
843.4280, 1117.764
843.9102, 1107.442
844.3923, 1108.213
844.8744, 1115.051
845.3565, 1119.253
845.8386, 1117.594
846.3207, 1118.981
846.8029, 1134.288
847.2850, 1149.438
847.7671, 1151.391
848.2492, 1132.837
848.7313, 1120.662
849.2134, 1115.759
849.6956, 1115.200
850.1777, 1116.291
850.6598, 1119.275
851.1419, 1126.378
851.6240, 1138.499
852.1061, 1148.333
852.5883, 1151.054
853.0704, 1148.571
853.5525, 1141.214
854.0346, 1125.210
854.5167, 1117.358
854.9988, 1123.626
855.4810, 1131.445
855.9631, 1130.237
856.4452, 1119.759
856.9273, 1118.306
857.4094, 1126.889
857.8915, 1136.434
858.3737, 1138.306
858.8558, 1136.692
859.3379, 1136.801
859.8200, 1139.343
860.3021, 1142.064
860.7842, 1143.675
861.2664, 1145.640
861.7485, 1149.600
862.2306, 1156.307
862.7127, 1157.247
863.1948, 1151.741
863.6769, 1143.497
864.1591, 1131.163
864.6412, 1118.934
865.1233, 1117.722
865.6054, 1127.230
866.0875, 1139.129
866.5696, 1154.306
867.0518, 1165.483
867.5339, 1165.116
868.0160, 1152.099
868.4981, 1148.535
868.9802, 1160.619
869.4623, 1169.025
869.9445, 1161.946
870.4266, 1143.889
870.9087, 1135.677
871.3908, 1136.677
871.8729, 1141.023
872.3550, 1147.894
872.8372, 1154.327
873.3193, 1158.331
873.8014, 1159.823
874.2835, 1158.586
874.7656, 1151.093
875.2477, 1145.190
875.7299, 1144.397
876.2120, 1146.351
876.6941, 1139.639
877.1762, 1124.314
877.6583, 1113.104
878.1404, 1113.418
878.6226, 1118.949
879.1047, 1121.963
879.5869, 1123.450
880.0690, 1126.026
880.5511, 1134.102
881.0332, 1139.380
881.5153, 1136.627
881.9974, 1130.418
882.4796, 1132.043
882.9617, 1144.544
883.4438, 1146.075
883.9259, 1127.743
884.4080, 1103.830
884.8901, 1095.744
885.3723, 1099.975
885.8544, 1109.060
886.3365, 1125.801
886.8186, 1137.973
887.3007, 1136.321
887.7828, 1128.328
888.2650, 1124.536
888.7471, 1126.649
889.2292, 1128.898
889.7113, 1130.684
890.1934, 1132.818
890.6755, 1138.131
891.1577, 1144.721
891.6398, 1145.900
892.1219, 1139.404
892.6040, 1132.696
893.0861, 1133.037
893.5682, 1134.456
894.0504, 1130.309
894.5325, 1113.741
895.0146, 1107.977
895.4967, 1117.010
895.9788, 1129.451
896.4609, 1138.732
896.9431, 1143.846
897.4252, 1133.342
897.9073, 1106.374
898.3894, 1084.875
898.8715, 1088.719
899.3536, 1102.482
899.8358, 1114.473
900.3179, 1123.428
900.8000, 1130.015
901.2821, 1135.565
901.7642, 1137.070
902.2463, 1131.754
902.7285, 1120.873
903.2106, 1113.044
903.6927, 1108.258
904.1748, 1105.214
904.6569, 1102.557
905.1390, 1101.632
905.6212, 1105.095
906.1033, 1111.802
906.5854, 1116.980
907.0675, 1119.888
907.5496, 1120.033
908.0317, 1115.915
908.5139, 1109.547
908.9960, 1107.504
909.4781, 1109.819
909.9602, 1111.683
910.4423, 1110.483
910.9244, 1109.522
911.4066, 1114.326
911.8887, 1121.971
912.3708, 1127.132
912.8529, 1125.908
913.3350, 1124.636
913.8171, 1124.653
914.2993, 1125.052
914.7814, 1124.196
915.2635, 1121.839
915.7456, 1121.983
916.2277, 1125.715
916.7098, 1129.770
917.1920, 1130.338
917.6741, 1128.763
918.1562, 1127.078
918.6383, 1126.009
919.1204, 1123.751
919.6025, 1116.659
920.0847, 1110.775
920.5668, 1110.303
921.0489, 1115.889
921.5310, 1123.808
922.0131, 1134.716
922.4952, 1142.370
922.9774, 1139.699
923.4595, 1131.506
923.9416, 1122.781
924.4237, 1114.353
924.9058, 1111.511
925.3879, 1126.075
925.8701, 1136.361
926.3522, 1129.977
926.8343, 1110.199
927.3164, 1105.288
927.7985, 1116.767
928.2806, 1128.818
928.7628, 1134.401
929.2449, 1136.052
929.7270, 1136.175
930.2091, 1135.633
930.6912, 1136.775
931.1733, 1144.115
931.6555, 1149.061
932.1376, 1145.918
932.6197, 1140.122
933.1018, 1141.845
933.5839, 1152.613
934.0660, 1158.940
934.5482, 1157.380
935.0303, 1153.970
935.5124, 1157.771
935.9945, 1164.885
936.4766, 1168.354
936.9587, 1165.738
937.4409, 1161.863
937.9230, 1155.690
938.4051, 1150.838
938.8872, 1150.124
939.3693, 1154.019
939.8514, 1159.829
940.3336, 1167.759
940.8157, 1175.600
941.2978, 1184.981
941.7799, 1191.421
942.2620, 1184.770
942.7441, 1165.620
943.2263, 1152.201
943.7084, 1152.964
944.1905, 1160.258
944.6726, 1172.490
945.1547, 1188.570
945.6368, 1202.535
946.1190, 1214.653
946.6011, 1221.558
947.0832, 1218.447
947.5653, 1212.975
948.0474, 1218.798
948.5295, 1230.125
949.0117, 1233.483
949.4938, 1206.542
949.9759, 1194.526
950.4580, 1213.033
950.9401, 1244.708
951.4222, 1262.394
951.9044, 1265.869
952.3865, 1273.598
952.8686, 1288.696
953.3507, 1307.729
953.8328, 1331.603
954.3149, 1355.062
954.7971, 1369.706
955.2792, 1369.341
955.7613, 1376.986
956.2434, 1397.933
956.7255, 1425.421
957.2076, 1458.228
957.6898, 1496.082
958.1719, 1521.329
958.6540, 1534.431
959.1361, 1552.896
959.6182, 1599.444
960.1003, 1648.789
960.5825, 1672.409
961.0646, 1675.413
961.5467, 1693.054
962.0288, 1746.017
962.5109, 1792.187
962.9930, 1820.731
963.4752, 1836.423
963.9573, 1853.158
964.4394, 1868.392
964.9215, 1865.367
965.4036, 1830.383
965.8857, 1791.836
966.3679, 1777.022
966.8500, 1770.564
967.3321, 1751.484
967.8142, 1703.840
968.2963, 1667.201
968.7784, 1642.192
969.2606, 1627.857
969.7427, 1631.476
970.2248, 1645.490
970.7069, 1637.433
971.1890, 1605.243
971.6711, 1579.434
972.1533, 1580.926
972.6354, 1595.066
973.1175, 1615.852
973.5996, 1642.379
974.0817, 1663.280
974.5638, 1677.646
975.0460, 1689.863
975.5281, 1703.813
976.0102, 1715.009
976.4923, 1710.977
976.9744, 1696.009
977.4565, 1682.722
977.9387, 1679.345
978.4208, 1675.391
978.9029, 1666.756
979.3850, 1655.671
979.8671, 1644.434
980.3492, 1632.598
980.8314, 1625.346
981.3135, 1625.033
981.7956, 1621.090
982.2777, 1597.304
982.7598, 1564.478
983.2419, 1537.464
983.7241, 1518.645
984.2062, 1504.124
984.6883, 1495.325
985.1704, 1488.102
985.6525, 1479.993
986.1346, 1471.496
986.6168, 1469.662
987.0989, 1474.217
987.5810, 1476.590
988.0631, 1469.854
988.5452, 1460.339
989.0273, 1452.035
989.5095, 1445.796
989.9916, 1443.868
990.4737, 1444.849
990.9558, 1454.444
991.4379, 1477.823
991.9200, 1503.526
992.4022, 1510.187
992.8843, 1502.715
993.3664, 1502.881
993.8485, 1515.231
994.3306, 1531.868
994.8127, 1550.703
995.2949, 1569.196
995.7770, 1583.232
996.2591, 1590.758
996.7412, 1609.172
997.2233, 1641.010
997.7054, 1673.865
998.1876, 1699.246
998.6697, 1720.635
999.1518, 1745.703
999.6339, 1774.106
1000.116, 1804.667
1000.598, 1841.121
1001.080, 1874.970
1001.562, 1900.726
1002.044, 1923.482
1002.527, 1952.790
1003.009, 1988.627
1003.491, 2028.920
1003.973, 2073.425
1004.455, 2118.626
1004.937, 2166.333
1005.419, 2208.861
1005.901, 2234.174
1006.384, 2236.213
1006.866, 2237.984
1007.348, 2246.792
1007.830, 2249.293
1008.312, 2234.770
1008.794, 2207.078
1009.276, 2192.596
1009.758, 2188.875
1010.240, 2175.252
1010.723, 2129.023
1011.205, 2079.587
1011.687, 2046.319
1012.169, 2024.135
1012.651, 1997.532
1013.133, 1962.485
1013.615, 1932.959
1014.097, 1911.177
1014.580, 1895.030
1015.062, 1885.825
1015.544, 1879.207
1016.026, 1864.803
1016.508, 1838.593
1016.990, 1817.902
1017.472, 1812.789
1017.954, 1812.764
1018.436, 1813.708
1018.919, 1815.240
1019.401, 1803.798
1019.883, 1779.319
1020.365, 1766.151
1020.847, 1790.891
1021.329, 1823.196
1021.811, 1829.384
1022.293, 1819.556
1022.776, 1818.969
1023.258, 1838.359
1023.740, 1857.364
1024.222, 1873.226
1024.704, 1889.507
1025.186, 1906.329
1025.668, 1927.492
1026.150, 1966.377
1026.632, 2025.506
1027.115, 2094.806
1027.597, 2168.995
1028.079, 2250.728
1028.561, 2342.830
1029.043, 2444.754
1029.525, 2553.453
1030.007, 2665.901
1030.489, 2795.195
1030.972, 2950.228
1031.454, 3121.693
1031.936, 3299.669
1032.418, 3486.532
1032.900, 3684.321
1033.382, 3896.327
1033.864, 4119.676
1034.346, 4349.544
1034.828, 4594.602
1035.311, 4862.489
1035.793, 5153.348
1036.275, 5469.829
1036.757, 5815.085
1037.239, 6110.000
1037.721, 6324.960
1038.203, 6448.380
1038.685, 6462.340
1039.167, 6369.076
1039.650, 6189.830
1040.132, 5915.823
1040.614, 5595.895
1041.096, 5243.168
1041.578, 4870.403
1042.060, 4487.236
1042.542, 4110.646
1043.024, 3765.874
1043.507, 3456.562
1043.989, 3197.151
1044.471, 2997.041
1044.953, 2832.591
1045.435, 2686.924
1045.917, 2560.116
1046.399, 2447.661
1046.881, 2349.674
1047.364, 2259.886
1047.846, 2170.694
1048.328, 2091.362
1048.810, 2027.418
1049.292, 1979.703
1049.774, 1947.107
1050.256, 1933.838
1050.738, 1920.939
1051.220, 1905.196
1051.703, 1886.929
1052.185, 1863.474
1052.667, 1839.379
1053.149, 1821.844
1053.631, 1811.816
1054.113, 1811.030
1054.595, 1831.633
1055.077, 1848.049
1055.559, 1844.788
1056.042, 1825.511
1056.524, 1815.486
1057.006, 1813.769
1057.488, 1812.641
1057.970, 1809.783
1058.452, 1804.237
1058.934, 1795.284
1059.416, 1783.056
1059.899, 1768.006
1060.381, 1749.286
1060.863, 1729.605
1061.345, 1707.721
1061.827, 1690.969
1062.309, 1691.163
1062.791, 1698.985
1063.273, 1699.188
1063.755, 1690.752
1064.238, 1687.402
1064.720, 1698.607
1065.202, 1707.986
1065.684, 1710.134
1066.166, 1707.648
1066.648, 1706.709
1067.130, 1707.461
1067.612, 1710.156
1068.094, 1713.762
1068.577, 1722.097
1069.059, 1739.068
1069.541, 1761.036
1070.023, 1784.636
1070.505, 1810.059
1070.987, 1836.236
1071.469, 1863.502
1071.951, 1891.301
1072.434, 1922.059
1072.916, 1951.440
1073.398, 1973.328
1073.880, 1989.653
1074.362, 2007.014
1074.844, 2024.395
1075.326, 2048.417
1075.808, 2083.210
1076.291, 2119.555
1076.773, 2142.531
1077.255, 2156.932
1077.737, 2176.968
1078.219, 2204.801
1078.701, 2230.011
1079.183, 2243.489
1079.665, 2256.375
1080.147, 2274.659
1080.630, 2297.341
1081.112, 2320.717
1081.594, 2344.560
1082.076, 2361.921
1082.558, 2369.623
1083.040, 2370.938
1083.522, 2362.559
1084.004, 2352.349
1084.486, 2352.024
1084.969, 2369.057
1085.451, 2376.700
1085.933, 2372.549
1086.415, 2367.828
1086.897, 2375.418
1087.379, 2385.996
1087.861, 2377.425
1088.343, 2355.504
1088.826, 2345.936
1089.308, 2380.774
1089.790, 2397.795
1090.272, 2383.665
1090.754, 2350.085
1091.236, 2311.106
1091.718, 2268.128
1092.200, 2229.205
1092.682, 2196.527
1093.165, 2158.263
1093.647, 2101.481
1094.129, 2041.896
1094.611, 1990.771
1095.093, 1946.049
1095.575, 1886.883
1096.057, 1812.068
1096.539, 1753.708
1097.022, 1730.220
1097.504, 1717.292
1097.986, 1693.599
1098.468, 1663.575
1098.950, 1633.206
1099.432, 1601.826
1099.914, 1573.993
1100.396, 1550.823
1100.879, 1529.149
1101.361, 1505.923
1101.843, 1483.191
1102.325, 1463.145
1102.807, 1446.476
1103.289, 1435.918
1103.771, 1443.751
1104.253, 1441.029
1104.735, 1415.998
1105.218, 1387.420
1105.700, 1386.541
1106.182, 1406.285
1106.664, 1412.964
1107.146, 1402.809
1107.628, 1386.032
1108.110, 1359.086
1108.592, 1337.125
1109.074, 1332.290
1109.557, 1339.272
1110.039, 1336.518
1110.521, 1323.847
1111.003, 1313.746
1111.485, 1310.016
1111.967, 1309.749
1112.449, 1314.150
1112.931, 1318.305
1113.414, 1315.306
1113.896, 1301.775
1114.378, 1297.159
1114.860, 1303.517
1115.342, 1309.853
1115.824, 1310.365
1116.306, 1306.784
1116.788, 1300.857
1117.271, 1293.147
1117.753, 1284.799
1118.235, 1269.209
1118.717, 1265.042
1119.199, 1278.100
1119.681, 1293.526
1120.163, 1296.066
1120.645, 1289.229
1121.127, 1280.790
1121.609, 1271.927
1122.092, 1269.016
1122.574, 1281.112
1123.056, 1292.947
1123.538, 1301.461
1124.020, 1305.264
1124.502, 1299.246
1124.984, 1284.777
1125.466, 1273.408
1125.949, 1267.489
1126.431, 1263.864
1126.913, 1261.658
1127.395, 1259.878
1127.877, 1257.180
1128.359, 1253.954
1128.841, 1254.457
1129.323, 1258.932
1129.806, 1263.185
1130.288, 1266.625
1130.770, 1267.240
1131.252, 1261.606
1131.734, 1252.518
1132.216, 1242.657
1132.698, 1229.534
1133.180, 1228.465
1133.662, 1243.372
1134.145, 1253.738
1134.627, 1239.349
1135.109, 1217.149
1135.591, 1214.911
1136.073, 1226.647
1136.555, 1237.249
1137.037, 1240.388
1137.519, 1246.222
1138.001, 1257.917
1138.484, 1266.935
1138.966, 1260.726
1139.448, 1245.842
1139.930, 1239.235
1140.412, 1240.774
1140.894, 1240.874
1141.376, 1233.454
1141.858, 1226.419
1142.341, 1220.263
1142.823, 1217.196
1143.305, 1224.857
1143.787, 1239.758
1144.269, 1244.416
1144.751, 1234.791
1145.233, 1227.661
1145.715, 1236.144
1146.198, 1246.315
1146.680, 1251.056
1147.162, 1251.006
1147.644, 1248.180
1148.126, 1242.791
1148.608, 1237.883
1149.090, 1234.216
1149.572, 1231.636
1150.054, 1229.557
1150.536, 1228.898
1151.019, 1231.503
1151.501, 1237.921
1151.983, 1238.677
1152.465, 1233.614
1152.947, 1226.991
1153.429, 1218.210
1153.911, 1212.165
1154.393, 1216.644
1154.876, 1226.216
1155.358, 1230.890
1155.840, 1226.839
1156.322, 1228.761
1156.804, 1238.391
1157.286, 1245.941
1157.768, 1241.101
1158.250, 1231.350
1158.733, 1224.486
1159.215, 1220.853
1159.697, 1220.953
1160.179, 1229.275
1160.661, 1230.193
1161.143, 1219.195
1161.625, 1208.147
1162.107, 1213.981
1162.589, 1227.564
1163.072, 1232.994
1163.554, 1229.536
1164.036, 1227.191
1164.518, 1229.789
1165.000, 1231.065
1165.482, 1228.435
1165.964, 1225.547
1166.446, 1231.828
1166.928, 1242.342
1167.411, 1245.535
1167.893, 1238.421
1168.375, 1230.150
1168.857, 1220.329
1169.339, 1214.249
1169.821, 1214.858
1170.303, 1220.094
1170.785, 1224.735
1171.268, 1228.852
1171.750, 1233.294
1172.232, 1240.040
1172.714, 1242.517
1173.196, 1230.989
1173.678, 1221.436
1174.160, 1226.003
1174.642, 1241.415
1175.125, 1244.996
1175.607, 1238.465
1176.089, 1230.998
1176.571, 1223.002
1177.053, 1220.188
1177.535, 1228.422
1178.017, 1240.687
1178.499, 1252.543
1178.981, 1263.974
1179.464, 1263.178
1179.946, 1250.973
1180.428, 1241.502
1180.910, 1249.060
1181.392, 1255.839
1181.874, 1249.147
1182.356, 1237.205
1182.838, 1233.703
1183.320, 1239.061
1183.803, 1238.164
1184.285, 1229.621
1184.767, 1221.804
1185.249, 1220.248
1185.731, 1222.224
1186.213, 1226.823
1186.695, 1233.452
1187.177, 1242.490
1187.660, 1254.653
1188.142, 1256.066
1188.624, 1243.070
1189.106, 1230.509
1189.588, 1233.155
1190.070, 1240.292
1190.552, 1243.640
1191.034, 1243.243
1191.516, 1243.361
1191.999, 1244.323
1192.481, 1241.598
1192.963, 1232.624
1193.445, 1224.938
1193.927, 1227.197
1194.409, 1233.788
1194.891, 1240.052
1195.373, 1245.615
1195.855, 1247.164
1196.338, 1244.186
1196.820, 1241.666
1197.302, 1241.450
1197.784, 1242.706
1198.266, 1246.088
1198.748, 1249.590
1199.230, 1251.063
1199.712, 1250.803
1200.195, 1243.078
1200.677, 1225.766
1201.159, 1216.392
1201.641, 1230.546
1202.123, 1249.611
1202.605, 1252.694
1203.087, 1245.822
1203.569, 1238.417
1204.052, 1229.955
1204.534, 1226.203
1205.016, 1227.501
1205.498, 1231.318
1205.980, 1240.640
1206.462, 1247.725
1206.944, 1236.706
1207.426, 1217.666
1207.908, 1216.236
1208.391, 1245.954
1208.873, 1257.991
1209.355, 1248.014
1209.837, 1233.338
1210.319, 1226.231
1210.801, 1224.398
1211.283, 1227.542
1211.765, 1233.980
1212.247, 1238.056
1212.730, 1238.451
1213.212, 1239.944
1213.694, 1243.625
1214.176, 1245.459
1214.658, 1239.232
1215.140, 1230.682
1215.622, 1226.699
1216.104, 1226.760
1216.587, 1225.043
1217.069, 1218.986
1217.551, 1219.609
1218.033, 1230.180
1218.515, 1241.371
1218.997, 1242.374
1219.479, 1238.544
1219.961, 1235.234
1220.443, 1232.967
1220.926, 1230.932
1221.408, 1228.406
1221.890, 1229.316
1222.372, 1235.386
1222.854, 1242.328
1223.336, 1244.152
1223.818, 1244.512
1224.300, 1249.136
1224.782, 1258.713
1225.265, 1258.898
1225.747, 1246.390
1226.229, 1241.793
1226.711, 1255.081
1227.193, 1268.668
1227.675, 1255.837
1228.157, 1234.281
1228.639, 1225.723
1229.122, 1233.785
1229.604, 1241.308
1230.086, 1248.852
1230.568, 1252.325
1231.050, 1249.615
1231.532, 1243.291
1232.014, 1231.603
1232.496, 1220.686
1232.979, 1219.652
1233.461, 1230.542
1233.943, 1235.333
1234.425, 1233.328
1234.907, 1231.975
1235.389, 1235.940
1235.871, 1240.158
1236.353, 1239.164
1236.835, 1235.671
1237.318, 1232.670
1237.800, 1229.783
1238.282, 1232.231
1238.764, 1240.292
1239.246, 1247.639
1239.728, 1251.104
1240.210, 1251.832
1240.692, 1247.151
1241.175, 1242.242
1241.657, 1245.120
1242.139, 1258.114
1242.621, 1263.282
1243.103, 1260.609
1243.585, 1256.640
1244.067, 1252.684
1244.549, 1251.728
1245.031, 1261.248
1245.514, 1271.799
1245.996, 1268.558
1246.478, 1249.376
1246.960, 1244.732
1247.442, 1254.406
1247.924, 1263.759
1248.406, 1260.541
1248.888, 1257.419
1249.370, 1264.853
1249.853, 1274.453
1250.335, 1275.221
1250.817, 1267.394
1251.299, 1254.725
1251.781, 1238.191
1252.263, 1228.434
1252.745, 1236.940
1253.227, 1247.951
1253.710, 1253.819
1254.192, 1258.920
1254.674, 1271.478
1255.156, 1289.306
1255.638, 1294.856
1256.120, 1288.060
1256.602, 1280.991
1257.084, 1281.128
1257.567, 1280.831
1258.049, 1276.322
1258.531, 1271.760
1259.013, 1275.482
1259.495, 1284.032
1259.977, 1282.707
1260.459, 1271.530
1260.941, 1263.623
1261.423, 1271.825
1261.906, 1273.570
1262.388, 1259.499
1262.870, 1244.184
1263.352, 1254.083
1263.834, 1277.371
1264.316, 1285.997
1264.798, 1278.371
1265.280, 1269.914
1265.762, 1265.927
1266.245, 1259.224
1266.727, 1245.984
1267.209, 1235.418
1267.691, 1245.548
1268.173, 1264.374
1268.655, 1270.213
1269.137, 1262.214
1269.619, 1260.793
1270.102, 1271.934
1270.584, 1278.996
1271.066, 1277.530
1271.548, 1274.256
1272.030, 1279.066
1272.512, 1285.904
1272.994, 1287.612
1273.476, 1283.628
1273.958, 1277.840
1274.441, 1269.038
1274.923, 1266.144
1275.405, 1272.313
1275.887, 1279.472
1276.369, 1277.979
1276.851, 1274.377
1277.333, 1276.375
1277.815, 1282.551
1278.297, 1280.861
1278.780, 1270.752
1279.262, 1264.256
1279.744, 1263.667
1280.226, 1270.113
1280.708, 1295.427
1281.190, 1317.936
1281.672, 1318.825
1282.154, 1304.827
1282.637, 1298.953
1283.119, 1300.496
1283.601, 1302.809
1284.083, 1304.371
1284.565, 1307.409
1285.047, 1317.250
1285.529, 1324.234
1286.011, 1323.241
1286.494, 1316.733
1286.976, 1310.105
1287.458, 1304.005
1287.940, 1300.138
1288.422, 1298.483
1288.904, 1302.401
1289.386, 1322.449
1289.868, 1334.922
1290.350, 1329.060
1290.833, 1315.390
1291.315, 1313.686
1291.797, 1320.356
1292.279, 1330.897
1292.761, 1346.166
1293.243, 1348.056
1293.725, 1327.857
1294.207, 1314.471
1294.689, 1319.035
1295.172, 1330.613
1295.654, 1336.555
1296.136, 1337.855
1296.618, 1333.787
1297.100, 1323.521
1297.582, 1322.423
1298.064, 1332.097
1298.546, 1340.579
1299.029, 1344.074
1299.511, 1345.335
1299.993, 1350.053
1300.475, 1351.851
1300.957, 1339.846
1301.439, 1317.633
1301.921, 1308.831
1302.403, 1313.109
1302.885, 1322.272
1303.368, 1336.373
1303.850, 1344.798
1304.332, 1333.074
1304.814, 1320.144
1305.296, 1316.961
1305.778, 1322.059
1306.260, 1333.186
1306.742, 1348.158
1307.224, 1358.783
1307.707, 1362.939
1308.189, 1362.830
1308.671, 1356.111
1309.153, 1349.073
1309.635, 1343.032
1310.117, 1339.284
1310.599, 1341.910
1311.081, 1348.608
1311.564, 1355.176
1312.046, 1360.907
1312.528, 1364.727
1313.010, 1365.640
1313.492, 1367.488
1313.974, 1371.477
1314.456, 1377.133
1314.938, 1388.758
##END=



