##NAMES=Natrojarosite
##RRUFFID=R050471
##IDEAL CHEMISTRY=NaFe^3+^_3_(S^6+^O_4_)_2_(OH)_6_
##LOCALITY=Bristol mine, Pioche, Lincoln County, Nevada, USA
##OWNER=RRUFF
##SOURCE=Marcus Origlieri
##DESCRIPTION=Tan colored, fine-grained massive
##STATUS=The identification of this mineral has been confirmed by X-ray diffraction and chemical analysis
##URL=rruff.info/R050471
##MEASURED CHEMISTRY=(Na_0.60_K_0.30_Pb_0.10_)_Σ=1_(Fe^3+^_2.98_Al_0.02_)_Σ=3_((S_0.95_As_0.05_)_Σ=1_O_4_)_2_(OH)_6_
94.74744, 154.1557
95.22955, 153.2856
95.71167, 151.8238
96.19379, 150.3087
96.67590, 149.1791
97.15803, 147.7505
97.64014, 145.5858
98.12226, 143.1021
98.60438, 141.1017
99.08649, 140.0600
99.56861, 139.4053
100.0507, 138.2805
100.5328, 136.4796
101.0150, 134.2804
101.4971, 131.7142
101.9792, 128.7382
102.4613, 126.1089
102.9434, 124.2198
103.4255, 122.7065
103.9077, 121.3287
104.3898, 119.9881
104.8719, 118.7987
105.3540, 118.0824
105.8361, 118.3468
106.3182, 118.1623
106.8004, 116.8605
107.2825, 115.0896
107.7646, 113.6038
108.2467, 112.8716
108.7288, 112.8313
109.2109, 112.7266
109.6931, 112.4531
110.1752, 112.2130
110.6573, 111.9467
111.1394, 111.7340
111.6215, 111.7344
112.1037, 112.0666
112.5858, 112.7620
113.0679, 113.9209
113.5500, 115.7100
114.0321, 117.7820
114.5142, 119.7345
114.9964, 121.5057
115.4785, 123.6770
115.9606, 127.1920
116.4427, 131.9570
116.9248, 136.6220
117.4069, 140.7662
117.8891, 144.5983
118.3712, 148.7073
118.8533, 153.5188
119.3354, 158.0622
119.8175, 161.4841
120.2996, 163.8700
120.7818, 165.7878
121.2639, 167.6269
121.7460, 169.3940
122.2281, 170.8778
122.7102, 171.3629
123.1923, 172.0098
123.6745, 173.3671
124.1566, 175.5519
124.6387, 178.4192
125.1208, 181.8619
125.6029, 186.1822
126.0850, 190.4722
126.5672, 194.4611
127.0493, 198.4946
127.5314, 202.8094
128.0135, 207.5258
128.4956, 212.5668
128.9778, 217.8436
129.4599, 223.6502
129.9420, 229.3319
130.4241, 234.2149
130.9062, 239.0551
131.3883, 244.9520
131.8705, 252.5601
132.3526, 261.7200
132.8347, 271.5777
133.3168, 281.7932
133.7989, 292.8488
134.2810, 304.9481
134.7632, 318.1046
135.2453, 332.4568
135.7274, 348.9913
136.2095, 366.7502
136.6916, 382.4463
137.1737, 399.0183
137.6559, 411.6439
138.1380, 415.8306
138.6201, 411.3958
139.1022, 399.0838
139.5843, 375.1977
140.0664, 344.3024
140.5486, 312.0880
141.0307, 279.0875
141.5128, 246.5562
141.9949, 218.7482
142.4770, 196.5703
142.9591, 178.3579
143.4413, 163.4406
143.9234, 151.3593
144.4055, 141.2854
144.8876, 132.8618
145.3697, 126.1035
145.8518, 120.3276
146.3340, 116.3388
146.8161, 112.7232
147.2982, 108.9611
147.7803, 105.1726
148.2624, 101.8465
148.7445, 99.50667
149.2267, 98.45346
149.7088, 97.26041
150.1909, 95.88596
150.6730, 94.44155
151.1551, 92.89719
151.6372, 91.28790
152.1194, 89.79630
152.6015, 88.65240
153.0836, 88.03620
153.5657, 87.35188
154.0478, 86.62080
154.5300, 85.81135
155.0121, 84.81788
155.4942, 83.59629
155.9763, 82.39042
156.4584, 81.63674
156.9405, 81.35239
157.4227, 81.08534
157.9048, 80.69247
158.3869, 80.23342
158.8690, 79.83241
159.3511, 79.51926
159.8332, 79.28105
160.3154, 79.16659
160.7975, 79.19122
161.2796, 79.05036
161.7617, 78.41262
162.2438, 77.32462
162.7259, 76.45972
163.2081, 76.14818
163.6902, 75.98170
164.1723, 75.64224
164.6544, 75.09766
165.1365, 74.53687
165.6186, 74.16426
166.1008, 74.01649
166.5829, 73.90360
167.0650, 73.75361
167.5471, 73.65398
168.0292, 73.67879
168.5113, 73.84299
168.9935, 74.08691
169.4756, 74.31390
169.9577, 74.51270
170.4398, 74.71748
170.9219, 74.90244
171.4040, 75.10692
171.8862, 75.37326
172.3683, 75.71517
172.8504, 76.10046
173.3325, 76.45602
173.8146, 76.71988
174.2967, 77.02367
174.7789, 77.39616
175.2610, 77.80216
175.7431, 78.17985
176.2252, 78.50036
176.7073, 78.81032
177.1894, 79.26955
177.6716, 79.92211
178.1537, 80.64792
178.6358, 81.39473
179.1179, 82.20264
179.6000, 83.18860
180.0822, 84.44477
180.5643, 85.86548
181.0464, 87.10625
181.5285, 88.03064
182.0106, 89.02157
182.4927, 90.34333
182.9749, 91.92130
183.4570, 93.38755
183.9391, 94.43063
184.4212, 95.34970
184.9033, 96.72234
185.3854, 98.68214
185.8676, 100.8891
186.3497, 103.1326
186.8318, 105.4149
187.3139, 107.6541
187.7960, 109.7971
188.2781, 111.8851
188.7603, 113.8957
189.2424, 115.7525
189.7245, 117.7094
190.2066, 120.2700
190.6887, 123.7272
191.1708, 126.7201
191.6530, 128.1556
192.1351, 129.2059
192.6172, 130.8850
193.0993, 133.5724
193.5814, 136.9169
194.0635, 140.1274
194.5457, 142.7885
195.0278, 146.2063
195.5099, 151.3183
195.9920, 156.8816
196.4741, 161.5212
196.9562, 164.5764
197.4384, 166.7632
197.9205, 170.2334
198.4026, 176.1841
198.8847, 181.8608
199.3668, 186.5899
199.8489, 190.9752
200.3311, 195.7522
200.8132, 201.3023
201.2953, 207.4090
201.7774, 213.1473
202.2595, 217.8993
202.7417, 222.9807
203.2238, 228.6977
203.7059, 234.8080
204.1880, 241.0521
204.6701, 247.2740
205.1522, 253.4858
205.6344, 259.7188
206.1165, 266.2253
206.5986, 272.5515
207.0807, 278.5722
207.5628, 284.3507
208.0449, 290.0039
208.5271, 295.5788
209.0092, 301.0829
209.4913, 306.4428
209.9734, 311.2088
210.4555, 316.3728
210.9376, 322.4929
211.4198, 329.3055
211.9019, 336.0418
212.3840, 342.0117
212.8661, 347.8855
213.3482, 355.4203
213.8303, 365.2713
214.3125, 375.4947
214.7946, 384.7464
215.2767, 393.2916
215.7588, 402.3553
216.2409, 412.6541
216.7230, 423.7580
217.2052, 435.0427
217.6873, 446.8218
218.1694, 457.9477
218.6515, 467.4672
219.1336, 475.4492
219.6157, 482.7950
220.0979, 490.9856
220.5800, 497.7795
221.0621, 500.8949
221.5442, 499.8583
222.0263, 496.0092
222.5084, 490.7152
222.9906, 484.0494
223.4727, 474.8481
223.9548, 461.9495
224.4369, 446.6489
224.9190, 429.5099
225.4011, 410.4737
225.8833, 390.3563
226.3654, 369.4810
226.8475, 347.5507
227.3296, 326.7178
227.8117, 307.9772
228.2939, 290.1778
228.7760, 272.8004
229.2581, 255.6678
229.7402, 239.3233
230.2223, 224.4699
230.7044, 211.2016
231.1866, 199.0820
231.6687, 187.9493
232.1508, 177.9451
232.6329, 169.3869
233.1150, 162.2285
233.5971, 156.0446
234.0793, 150.2548
234.5614, 144.8408
235.0435, 139.9294
235.5256, 135.5500
236.0077, 131.5479
236.4898, 127.9071
236.9720, 124.6089
237.4541, 121.5521
237.9362, 118.6079
238.4183, 115.7836
238.9004, 113.1171
239.3825, 110.5705
239.8647, 108.1881
240.3468, 105.9904
240.8289, 103.9820
241.3110, 102.2081
241.7931, 100.7036
242.2752, 99.52399
242.7574, 98.53965
243.2395, 97.87691
243.7216, 97.28415
244.2037, 96.58920
244.6858, 95.78061
245.1679, 94.97785
245.6501, 94.33366
246.1322, 93.93430
246.6143, 93.31603
247.0964, 92.24330
247.5785, 91.15018
248.0606, 90.33975
248.5428, 89.82845
249.0249, 89.40781
249.5070, 88.86256
249.9891, 88.15351
250.4712, 87.67367
250.9533, 87.68847
251.4355, 87.71248
251.9176, 87.37133
252.3997, 86.67249
252.8818, 85.92768
253.3639, 85.40354
253.8461, 85.10693
254.3282, 84.73740
254.8103, 84.24482
255.2924, 83.72124
255.7745, 83.23750
256.2566, 82.79173
256.7387, 82.32681
257.2209, 81.76653
257.7030, 81.15340
258.1851, 80.70615
258.6672, 80.32525
259.1493, 80.18990
259.6314, 80.61935
260.1136, 81.53848
260.5957, 82.26733
261.0778, 82.35708
261.5599, 81.94930
262.0420, 81.61713
262.5241, 81.33082
263.0063, 81.15984
263.4884, 81.18452
263.9705, 81.38917
264.4526, 81.64324
264.9348, 81.90781
265.4169, 82.17287
265.8990, 82.42178
266.3811, 82.66235
266.8632, 82.87548
267.3453, 82.99645
267.8275, 83.04781
268.3096, 83.22546
268.7917, 83.68246
269.2738, 84.22898
269.7559, 84.57308
270.2380, 84.66439
270.7202, 84.80790
271.2023, 85.20521
271.6844, 85.83755
272.1665, 86.59422
272.6486, 87.48022
273.1307, 88.45779
273.6129, 89.43690
274.0950, 90.42514
274.5771, 91.55833
275.0592, 93.05529
275.5413, 94.83498
276.0234, 96.36002
276.5056, 97.31654
276.9877, 98.32784
277.4698, 100.0011
277.9519, 102.1976
278.4340, 104.2321
278.9161, 105.4153
279.3983, 106.0182
279.8804, 107.3544
280.3625, 109.8583
280.8446, 112.5544
281.3267, 114.9325
281.8088, 117.0250
282.2910, 118.9110
282.7731, 120.4993
283.2552, 121.9107
283.7373, 123.5697
284.2194, 125.6078
284.7015, 127.6513
285.1837, 129.5282
285.6658, 131.3096
286.1479, 133.0920
286.6300, 134.8631
287.1121, 136.7029
287.5942, 138.8510
288.0764, 141.5055
288.5585, 143.9990
289.0406, 145.8798
289.5227, 147.5695
290.0048, 149.5347
290.4869, 152.0118
290.9691, 154.6516
291.4512, 156.8684
291.9333, 158.5706
292.4154, 160.1275
292.8975, 161.4127
293.3796, 162.7225
293.8618, 164.3871
294.3439, 166.4895
294.8260, 168.5913
295.3081, 170.2595
295.7902, 171.5837
296.2723, 172.0363
296.7545, 170.5567
297.2366, 168.8374
297.7187, 168.0788
298.2008, 168.2718
298.6829, 168.2311
299.1650, 166.5928
299.6472, 163.1756
300.1293, 159.8503
300.6114, 157.2533
301.0935, 154.2674
301.5756, 150.2654
302.0577, 145.4063
302.5399, 140.2395
303.0220, 135.0656
303.5041, 129.9166
303.9862, 125.3319
304.4683, 121.7272
304.9504, 118.2469
305.4326, 114.4532
305.9147, 110.5609
306.3968, 106.9804
306.8789, 103.9780
307.3610, 101.4657
307.8431, 99.14491
308.3253, 97.13419
308.8074, 95.14179
309.2895, 92.94424
309.7716, 90.75652
310.2537, 88.86839
310.7358, 87.40443
311.2180, 86.25637
311.7001, 85.25790
312.1822, 84.58387
312.6643, 83.63550
313.1465, 81.86353
313.6286, 80.05318
314.1107, 78.93959
314.5928, 78.70266
315.0749, 78.75666
315.5570, 78.18227
316.0392, 76.69724
316.5213, 75.62062
317.0034, 75.59294
317.4855, 75.61342
317.9676, 75.04150
318.4497, 73.88799
318.9319, 72.69386
319.4140, 72.02084
319.8961, 71.92243
320.3782, 71.82743
320.8603, 71.90672
321.3424, 71.81509
321.8246, 71.24736
322.3067, 70.38548
322.7888, 69.67850
323.2709, 69.51807
323.7530, 69.80895
324.2351, 69.82450
324.7173, 69.24959
325.1994, 68.84188
325.6815, 68.93208
326.1636, 69.28764
326.6457, 69.60165
327.1278, 69.73655
327.6100, 69.71019
328.0921, 69.52663
328.5742, 69.04815
329.0563, 68.71450
329.5384, 68.80671
330.0205, 68.97191
330.5027, 68.81798
330.9848, 68.23551
331.4669, 67.63329
331.9490, 67.67270
332.4311, 68.55254
332.9132, 69.19934
333.3954, 69.20225
333.8775, 69.11530
334.3596, 69.21449
334.8417, 69.52221
335.3238, 69.91604
335.8059, 70.31589
336.2881, 70.72403
336.7702, 71.04417
337.2523, 71.13156
337.7344, 71.29514
338.2165, 71.66658
338.6986, 72.21703
339.1808, 72.88284
339.6629, 73.68532
340.1450, 74.55785
340.6271, 75.22321
341.1092, 75.52351
341.5913, 75.92058
342.0735, 76.61427
342.5556, 77.48320
343.0377, 78.36337
343.5198, 79.16439
344.0019, 80.04537
344.4840, 81.33793
344.9662, 83.18208
345.4483, 84.85830
345.9304, 85.94576
346.4125, 86.90339
346.8946, 87.98996
347.3767, 89.25687
347.8589, 90.71586
348.3410, 92.52718
348.8231, 94.68031
349.3052, 96.44779
349.7873, 97.51027
350.2694, 98.40102
350.7516, 99.60496
351.2337, 101.0126
351.7158, 102.1207
352.1979, 102.4496
352.6800, 102.2387
353.1621, 102.3158
353.6443, 102.8503
354.1264, 103.3115
354.6085, 103.4164
355.0906, 103.2468
355.5727, 102.8663
356.0548, 102.1674
356.5370, 101.4219
357.0191, 101.0571
357.5012, 101.1167
357.9833, 101.0985
358.4654, 100.7678
358.9475, 100.2630
359.4297, 99.74291
359.9118, 99.21548
360.3939, 98.69327
360.8760, 98.31040
361.3581, 97.98771
361.8402, 97.29550
362.3224, 96.08342
362.8045, 94.54471
363.2866, 92.80599
363.7687, 90.89462
364.2509, 89.04655
364.7330, 87.45547
365.2151, 85.94791
365.6972, 84.21516
366.1793, 82.20259
366.6614, 80.08712
367.1436, 77.88569
367.6257, 75.68147
368.1078, 73.74395
368.5899, 72.38213
369.0720, 71.05836
369.5541, 69.20550
370.0363, 66.92104
370.5184, 64.89457
371.0005, 63.50812
371.4826, 62.53343
371.9647, 61.43171
372.4468, 60.16979
372.9290, 58.89523
373.4111, 57.59930
373.8932, 56.34105
374.3753, 55.28524
374.8574, 54.49359
375.3395, 53.78919
375.8217, 52.92625
376.3038, 51.86946
376.7859, 50.99325
377.2680, 50.33205
377.7501, 49.86591
378.2322, 49.67843
378.7144, 49.72743
379.1965, 49.72318
379.6786, 49.43392
380.1607, 48.88749
380.6428, 48.43103
381.1249, 48.22087
381.6071, 47.92029
382.0892, 47.24076
382.5713, 46.40507
383.0534, 45.84574
383.5355, 45.75261
384.0176, 45.98119
384.4998, 46.23333
384.9819, 46.66574
385.4640, 46.84682
385.9461, 46.65932
386.4282, 46.28317
386.9103, 45.74406
387.3925, 45.11332
387.8746, 44.65767
388.3567, 44.70930
388.8388, 45.37311
389.3209, 45.78393
389.8030, 45.72255
390.2852, 45.67778
390.7673, 45.94594
391.2494, 46.36610
391.7315, 46.55408
392.2136, 46.26059
392.6957, 45.66548
393.1779, 45.46886
393.6600, 45.92789
394.1421, 46.45750
394.6242, 47.15643
395.1063, 47.81321
395.5884, 48.18541
396.0706, 48.23651
396.5527, 48.18028
397.0348, 48.27773
397.5169, 48.52903
397.9990, 48.93203
398.4811, 49.67290
398.9633, 50.39561
399.4454, 50.91597
399.9275, 51.29609
400.4096, 51.73562
400.8917, 52.40322
401.3738, 53.21706
401.8560, 53.79568
402.3381, 53.96581
402.8202, 54.23003
403.3023, 54.74784
403.7844, 55.42153
404.2665, 56.17950
404.7487, 57.00643
405.2308, 57.84995
405.7129, 58.59544
406.1950, 59.23321
406.6771, 60.04612
407.1592, 61.17644
407.6414, 62.40618
408.1235, 63.54363
408.6056, 64.61522
409.0877, 65.78524
409.5698, 67.21092
410.0519, 68.78596
410.5341, 70.21391
411.0162, 71.39913
411.4983, 72.75920
411.9804, 74.62146
412.4626, 76.81351
412.9447, 79.04182
413.4268, 81.21014
413.9089, 83.48913
414.3910, 86.05716
414.8731, 88.86332
415.3553, 91.65455
415.8374, 94.32877
416.3195, 96.99032
416.8016, 99.74782
417.2837, 102.5676
417.7658, 105.6595
418.2480, 109.2257
418.7301, 113.0126
419.2122, 116.6295
419.6943, 120.0618
420.1764, 123.8809
420.6585, 128.6271
421.1407, 134.2187
421.6228, 139.3775
422.1049, 143.6724
422.5870, 148.1051
423.0691, 153.0299
423.5512, 158.3659
424.0334, 163.9743
424.5155, 169.7673
424.9976, 175.8483
425.4797, 182.3642
425.9618, 189.4537
426.4439, 196.7539
426.9261, 204.5425
427.4082, 212.3516
427.8903, 219.7151
428.3724, 226.7444
428.8545, 233.9762
429.3366, 241.9146
429.8188, 250.5661
430.3009, 258.9706
430.7830, 267.2688
431.2651, 275.1890
431.7472, 282.7671
432.2293, 289.9042
432.7115, 296.3838
433.1936, 302.1279
433.6757, 307.2455
434.1578, 311.8633
434.6399, 315.9775
435.1220, 319.5514
435.6042, 322.4459
436.0863, 324.8520
436.5684, 326.8580
437.0505, 328.4342
437.5326, 329.4618
438.0147, 329.6937
438.4969, 329.3522
438.9790, 329.2557
439.4611, 329.5423
439.9432, 329.7231
440.4253, 329.9438
440.9074, 329.8001
441.3896, 328.7778
441.8717, 326.7229
442.3538, 324.0769
442.8359, 321.2057
443.3180, 318.0730
443.8001, 314.5546
444.2823, 310.4907
444.7644, 306.2498
445.2465, 302.1150
445.7286, 298.0587
446.2107, 294.1705
446.6928, 290.7634
447.1750, 287.3338
447.6571, 283.1456
448.1392, 278.3150
448.6213, 273.9089
449.1034, 270.5699
449.5855, 267.9892
450.0677, 265.4008
450.5498, 263.2277
451.0319, 260.2244
451.5140, 256.2021
451.9961, 251.1209
452.4782, 244.9010
452.9604, 237.5350
453.4425, 229.2052
453.9246, 220.0410
454.4067, 209.9970
454.8888, 199.5258
455.3709, 187.9130
455.8531, 176.7851
456.3352, 166.6777
456.8173, 157.4899
457.2994, 148.8640
457.7815, 140.6687
458.2636, 133.0577
458.7458, 126.3174
459.2279, 120.5310
459.7100, 115.5015
460.1921, 111.4833
460.6742, 107.8811
461.1564, 104.2306
461.6385, 100.6311
462.1206, 97.64458
462.6027, 95.86173
463.0848, 95.01269
463.5670, 93.62153
464.0491, 91.28017
464.5312, 89.24752
465.0133, 87.95940
465.4954, 87.16569
465.9775, 86.77791
466.4597, 86.81286
466.9418, 86.72963
467.4239, 85.78696
467.9060, 84.16451
468.3881, 83.12535
468.8702, 83.05177
469.3524, 83.19265
469.8345, 82.94787
470.3166, 82.41354
470.7987, 81.83267
471.2808, 81.11230
471.7629, 80.49055
472.2451, 80.35256
472.7272, 80.57395
473.2093, 80.51171
473.6914, 79.88322
474.1735, 78.86039
474.6556, 77.69915
475.1378, 76.31919
475.6199, 75.09026
476.1020, 74.26366
476.5841, 73.47440
477.0662, 72.32766
477.5483, 70.85073
478.0305, 69.40733
478.5126, 68.31687
478.9947, 67.50015
479.4768, 66.30374
479.9589, 64.27039
480.4410, 62.39181
480.9232, 60.91323
481.4053, 59.58534
481.8874, 58.12907
482.3695, 56.48492
482.8516, 54.85355
483.3337, 53.49128
483.8159, 52.43260
484.2980, 51.34509
484.7801, 50.07241
485.2622, 48.95928
485.7443, 48.23114
486.2264, 47.71489
486.7086, 47.11597
487.1907, 46.28739
487.6728, 45.41632
488.1549, 44.75520
488.6370, 44.31087
489.1191, 44.00718
489.6013, 43.99633
490.0834, 43.92445
490.5655, 43.41854
491.0476, 42.54224
491.5297, 41.73948
492.0118, 41.26421
492.4940, 40.91532
492.9761, 40.38549
493.4582, 39.68406
493.9403, 39.16404
494.4224, 39.08095
494.9045, 39.22587
495.3867, 39.01968
495.8688, 38.23066
496.3509, 37.72173
496.8330, 37.98125
497.3151, 38.45311
497.7972, 38.53865
498.2794, 38.18135
498.7615, 37.67090
499.2436, 37.24054
499.7257, 36.88831
500.2078, 36.55239
500.6899, 36.20778
501.1721, 35.90979
501.6542, 35.63078
502.1363, 35.42163
502.6184, 35.38737
503.1005, 35.53286
503.5826, 35.68083
504.0648, 35.56569
504.5469, 35.14174
505.0290, 34.91732
505.5111, 34.97263
505.9932, 35.14299
506.4753, 35.52925
506.9575, 35.93728
507.4396, 36.02728
507.9217, 35.61534
508.4038, 35.05018
508.8859, 34.69776
509.3680, 34.55862
509.8502, 34.68261
510.3323, 35.20632
510.8144, 35.79627
511.2965, 36.15432
511.7787, 36.30243
512.2607, 36.31017
512.7429, 36.11106
513.2250, 35.84454
513.7071, 35.53748
514.1892, 35.24381
514.6713, 35.20903
515.1534, 35.59171
515.6356, 36.14529
516.1177, 36.37037
516.5998, 36.05640
517.0819, 35.88293
517.5640, 35.86627
518.0461, 35.99633
518.5283, 36.34269
519.0104, 36.84023
519.4925, 37.32241
519.9746, 37.68716
520.4567, 37.93449
520.9388, 38.04509
521.4210, 37.88399
521.9031, 37.84026
522.3852, 38.04528
522.8673, 38.30180
523.3494, 38.40564
523.8315, 38.39050
524.3137, 38.51825
524.7958, 39.06457
525.2779, 39.90143
525.7600, 40.59159
526.2421, 41.13420
526.7242, 41.52405
527.2064, 41.62187
527.6885, 41.63527
528.1706, 41.82791
528.6527, 42.23528
529.1348, 42.72339
529.6169, 43.18358
530.0991, 43.69684
530.5812, 44.48177
531.0633, 45.55768
531.5454, 46.53881
532.0275, 47.10674
532.5096, 47.33599
532.9918, 47.73220
533.4739, 48.37936
533.9560, 49.05265
534.4381, 49.74276
534.9202, 50.41679
535.4024, 50.99831
535.8845, 51.49464
536.3666, 52.04137
536.8488, 52.76831
537.3309, 53.67619
537.8130, 54.69584
538.2951, 56.11067
538.7772, 57.25410
539.2593, 57.74105
539.7415, 58.01600
540.2236, 58.54436
540.7057, 59.44500
541.1878, 60.52087
541.6699, 61.61922
542.1520, 62.73132
542.6342, 63.81430
543.1163, 64.86229
543.5984, 65.88107
544.0805, 66.79313
544.5626, 67.68963
545.0447, 68.76456
545.5269, 70.12889
546.0090, 71.50645
546.4911, 72.79522
546.9732, 73.98054
547.4553, 74.94874
547.9374, 75.68241
548.4196, 76.47314
548.9017, 77.60130
549.3838, 79.07597
549.8659, 80.66203
550.3480, 82.67346
550.8301, 84.41283
551.3123, 85.47184
551.7944, 86.24441
552.2765, 87.22350
552.7586, 88.53244
553.2407, 89.94326
553.7228, 91.17003
554.2050, 92.19987
554.6871, 93.27443
555.1692, 94.34576
555.6513, 95.53756
556.1334, 97.04399
556.6155, 98.61445
557.0977, 99.91679
557.5798, 100.8441
558.0619, 101.6419
558.5440, 102.5079
559.0261, 103.4232
559.5082, 104.4061
559.9904, 105.5288
560.4725, 106.3779
560.9546, 106.5092
561.4367, 106.0621
561.9188, 105.8500
562.4009, 105.8947
562.8831, 106.1561
563.3652, 107.0461
563.8473, 107.9712
564.3294, 107.9586
564.8115, 106.8727
565.2936, 105.5437
565.7758, 104.8307
566.2579, 104.7343
566.7400, 104.2497
567.2221, 103.1443
567.7042, 101.9001
568.1863, 100.5890
568.6685, 99.18656
569.1506, 97.65714
569.6327, 96.00420
570.1148, 94.27361
570.5969, 92.47531
571.0790, 90.62988
571.5612, 88.92252
572.0433, 87.42522
572.5254, 85.85421
573.0075, 84.05744
573.4896, 82.10110
573.9717, 80.00073
574.4539, 77.66150
574.9360, 75.56316
575.4181, 74.19265
575.9002, 73.07908
576.3823, 71.51784
576.8644, 69.45325
577.3466, 67.32493
577.8287, 65.42681
578.3108, 63.73028
578.7929, 62.09602
579.2750, 60.58012
579.7571, 59.04960
580.2393, 57.47418
580.7214, 55.90896
581.2035, 54.36855
581.6856, 52.87700
582.1677, 51.44088
582.6498, 50.04311
583.1320, 48.74009
583.6141, 47.82449
584.0962, 47.45945
584.5783, 46.90324
585.0604, 45.17019
585.5425, 45.04447
586.0247, 44.64366
586.5068, 43.98492
586.9889, 42.19318
587.4710, 41.94186
587.9531, 41.12058
588.4352, 40.30845
588.9174, 40.37049
589.3995, 38.91764
589.8816, 39.03415
590.3637, 38.57148
590.8458, 38.42320
591.3279, 37.70129
591.8101, 37.20068
592.2922, 37.34175
592.7743, 37.18010
593.2564, 36.52349
593.7385, 36.59598
594.2206, 35.46009
594.7028, 35.44802
595.1849, 35.94016
595.6670, 35.48321
596.1491, 35.73592
596.6312, 35.76505
597.1133, 34.65827
597.5955, 35.61961
598.0776, 35.73501
598.5597, 35.59233
599.0418, 36.09349
599.5239, 36.62625
600.0060, 37.06557
600.4882, 37.23335
600.9703, 37.24030
601.4524, 37.32402
601.9345, 37.52436
602.4166, 37.91097
602.8987, 38.55458
603.3809, 39.44669
603.8630, 40.43197
604.3451, 41.27813
604.8272, 42.50332
605.3093, 44.39129
605.7914, 46.58537
606.2736, 48.75309
606.7557, 50.84918
607.2378, 53.05724
607.7199, 55.60163
608.2020, 58.37318
608.6841, 60.81985
609.1663, 62.93360
609.6484, 64.73544
610.1305, 65.91837
610.6126, 67.02229
611.0947, 68.50866
611.5768, 70.39078
612.0590, 72.39510
612.5411, 74.22906
613.0232, 76.26575
613.5053, 79.03127
613.9874, 82.41570
614.4695, 85.85873
614.9517, 89.11411
615.4338, 92.46909
615.9159, 96.40829
616.3980, 100.9149
616.8801, 106.1040
617.3622, 111.9948
617.8444, 118.5180
618.3265, 125.8924
618.8086, 133.8165
619.2907, 141.8725
619.7728, 149.9368
620.2549, 157.8562
620.7371, 165.7879
621.2192, 173.6704
621.7013, 180.2492
622.1834, 186.2825
622.6655, 189.1582
623.1476, 186.9635
623.6298, 180.6036
624.1119, 170.9881
624.5940, 157.3132
625.0761, 143.0916
625.5582, 129.4567
626.0403, 116.4968
626.5225, 104.2175
627.0046, 92.69780
627.4867, 82.58398
627.9688, 74.19358
628.4509, 67.43925
628.9330, 61.88774
629.4152, 57.82521
629.8973, 54.55910
630.3794, 52.27675
630.8615, 50.46049
631.3436, 48.95463
631.8257, 47.65779
632.3079, 46.37537
632.7900, 44.94189
633.2721, 43.65892
633.7542, 42.99662
634.2364, 42.90696
634.7185, 43.03468
635.2006, 43.41179
635.6827, 43.69212
636.1649, 43.45988
636.6470, 42.81240
637.1291, 42.53314
637.6112, 42.91762
638.0933, 43.31971
638.5754, 43.59816
639.0576, 43.74768
639.5397, 43.69609
640.0218, 43.47874
640.5039, 43.30946
640.9860, 43.38820
641.4681, 43.63515
641.9503, 43.62748
642.4324, 43.21472
642.9145, 42.92522
643.3966, 43.09894
643.8787, 43.24818
644.3608, 43.03878
644.8430, 42.49829
645.3251, 41.84669
645.8072, 41.08721
646.2893, 40.33240
646.7714, 39.68993
647.2535, 39.14818
647.7357, 38.69683
648.2178, 38.34243
648.6999, 37.99616
649.1820, 37.57980
649.6641, 37.09579
650.1462, 36.45663
650.6284, 35.34752
651.1105, 34.47938
651.5926, 34.29348
652.0747, 34.23620
652.5568, 33.67844
653.0389, 32.58747
653.5211, 31.50208
654.0032, 30.86089
654.4853, 30.54473
654.9674, 30.26484
655.4495, 30.03315
655.9316, 29.68399
656.4138, 29.06025
656.8959, 28.42322
657.3780, 28.18050
657.8601, 28.31783
658.3422, 28.35419
658.8243, 28.27064
659.3065, 28.02516
659.7886, 27.47067
660.2707, 26.77949
660.7528, 26.17933
661.2349, 25.75518
661.7170, 25.53306
662.1992, 25.59320
662.6813, 25.91776
663.1634, 26.08670
663.6455, 26.11028
664.1276, 25.95742
664.6097, 25.37047
665.0919, 24.76192
665.5740, 24.54411
666.0561, 24.72788
666.5382, 24.90573
667.0203, 24.89453
667.5024, 24.78707
667.9846, 24.61586
668.4667, 24.42692
668.9488, 24.40556
669.4309, 24.63242
669.9130, 24.87848
670.3951, 24.82559
670.8773, 24.42963
671.3594, 24.09587
671.8415, 23.83465
672.3236, 23.62675
672.8057, 23.46783
673.2878, 23.36122
673.7700, 23.34349
674.2521, 23.40576
674.7342, 23.43336
675.2163, 23.37153
675.6984, 23.20462
676.1805, 22.78236
676.6627, 22.12300
677.1448, 21.79360
677.6269, 22.07879
678.1090, 22.61281
678.5911, 22.91011
679.0732, 22.93587
679.5554, 22.88147
680.0375, 22.65353
680.5196, 22.45443
681.0017, 22.41445
681.4838, 22.42084
681.9659, 22.28572
682.4481, 21.99230
682.9302, 21.75784
683.4123, 21.84003
683.8944, 22.13742
684.3765, 22.21321
684.8586, 22.02139
685.3408, 21.87456
685.8229, 21.86592
686.3050, 21.96261
686.7871, 22.17917
687.2692, 22.51116
687.7513, 22.71819
688.2335, 22.73010
688.7156, 22.64526
689.1977, 22.48206
689.6798, 22.26922
690.1619, 22.02789
690.6440, 21.77194
691.1262, 21.53735
691.6083, 21.35172
692.0904, 21.22026
692.5725, 21.19697
693.0546, 21.32927
693.5367, 21.42764
694.0189, 21.35821
694.5010, 21.30781
694.9831, 21.54459
695.4652, 22.00778
695.9473, 22.20953
696.4294, 21.71292
696.9116, 21.20364
697.3937, 21.18220
697.8758, 21.47245
698.3579, 21.81528
698.8400, 22.12256
699.3221, 22.27145
699.8043, 22.11555
700.2864, 21.70550
700.7685, 21.43569
701.2506, 21.38772
701.7327, 21.30613
702.2148, 21.01980
702.6970, 20.78769
703.1791, 20.79774
703.6612, 21.01618
704.1433, 21.28717
704.6254, 21.62109
705.1075, 21.89665
705.5897, 22.00447
706.0718, 21.98211
706.5539, 21.86930
707.0360, 21.68449
707.5181, 21.55148
708.0002, 21.59455
708.4824, 21.74881
708.9645, 21.64914
709.4466, 20.92001
709.9287, 20.66235
710.4108, 21.49973
710.8929, 22.32076
711.3751, 22.39028
711.8572, 21.94894
712.3393, 21.71276
712.8214, 22.05515
713.3035, 22.36099
713.7856, 21.89531
714.2678, 21.05262
714.7499, 20.68957
715.2320, 20.90950
715.7141, 21.36711
716.1962, 21.90220
716.6783, 22.38029
717.1605, 22.35021
717.6426, 21.28515
718.1247, 20.74738
718.6068, 21.16368
719.0889, 21.63574
719.5710, 21.78740
720.0532, 21.71062
720.5353, 21.58569
721.0174, 21.45940
721.4995, 21.35390
721.9816, 21.28448
722.4637, 21.24878
722.9459, 21.28339
723.4280, 21.37487
723.9101, 21.34352
724.3922, 21.07776
724.8743, 20.71255
725.3564, 20.49622
725.8386, 20.44254
726.3207, 20.48860
726.8028, 20.81287
727.2849, 21.02774
727.7670, 20.92966
728.2491, 20.70163
728.7313, 20.54597
729.2134, 20.50502
729.6955, 20.54877
730.1776, 20.80944
730.6597, 21.05851
731.1418, 20.79042
731.6240, 20.11949
732.1061, 19.73722
732.5882, 19.89809
733.0704, 20.33661
733.5525, 20.78490
734.0346, 21.25654
734.5167, 21.41003
734.9988, 20.98508
735.4810, 20.57041
735.9631, 20.19523
736.4452, 19.90994
736.9273, 19.78660
737.4094, 19.80144
737.8915, 19.82372
738.3737, 19.75244
738.8558, 19.70521
739.3379, 19.84991
739.8200, 20.12692
740.3021, 20.41218
740.7842, 20.67807
741.2664, 20.70330
741.7485, 20.23457
742.2306, 19.44081
742.7127, 19.17373
743.1948, 19.85675
743.6769, 20.29756
744.1591, 20.30897
744.6412, 20.19922
745.1233, 20.06329
745.6054, 19.93668
746.0875, 19.87500
746.5696, 19.91061
747.0518, 19.94896
747.5339, 19.90597
748.0160, 19.82302
748.4981, 19.77787
748.9802, 19.76898
749.4623, 19.72761
749.9445, 19.61036
750.4266, 19.49152
750.9087, 19.54177
751.3908, 19.85734
751.8729, 19.87265
752.3550, 19.22624
752.8372, 18.75900
753.3193, 18.82842
753.8014, 19.14546
754.2835, 19.43341
754.7656, 19.65490
755.2477, 19.79800
755.7299, 19.81935
756.2120, 19.79350
756.6941, 19.75356
757.1762, 19.72806
757.6583, 19.82611
758.1404, 20.06354
758.6226, 20.23171
759.1047, 20.09768
759.5868, 19.72381
760.0689, 19.54485
760.5510, 19.63897
761.0331, 19.72208
761.5153, 19.69123
761.9974, 19.68752
762.4795, 19.80478
762.9616, 20.02890
763.4437, 20.33168
763.9258, 20.85732
764.4080, 21.19345
764.8901, 21.04965
765.3722, 20.66796
765.8543, 20.18688
766.3364, 19.72196
766.8185, 19.58373
767.3007, 19.95923
767.7828, 20.50864
768.2649, 20.58196
768.7470, 20.15491
769.2291, 19.90940
769.7112, 19.89863
770.1934, 20.00772
770.6755, 20.31089
771.1576, 20.61704
771.6397, 20.53415
772.1218, 19.97648
772.6039, 19.66888
773.0861, 19.94271
773.5682, 20.26156
774.0503, 20.38484
774.5324, 20.35663
775.0145, 20.18684
775.4966, 19.92259
775.9788, 19.76760
776.4609, 19.91508
776.9430, 20.26646
777.4251, 20.66512
777.9072, 21.10351
778.3893, 21.23096
778.8715, 20.87579
779.3536, 20.54443
779.8357, 20.74283
780.3178, 21.36087
780.7999, 21.64153
781.2820, 21.23919
781.7642, 21.00627
782.2463, 21.14364
782.7284, 21.31125
783.2105, 21.25207
783.6926, 21.06682
784.1747, 20.98586
784.6569, 21.09000
785.1390, 21.30159
785.6211, 21.60847
786.1032, 21.95230
786.5853, 22.25959
787.0674, 22.50844
787.5496, 22.55646
788.0317, 22.32057
788.5138, 22.01962
788.9959, 21.96711
789.4780, 22.17779
789.9601, 22.43432
790.4423, 22.79337
790.9244, 23.10694
791.4065, 23.27810
791.8886, 23.44144
792.3707, 23.71686
792.8528, 24.09156
793.3350, 24.46685
793.8171, 24.88126
794.2992, 25.19729
794.7813, 25.36248
795.2634, 25.36231
795.7455, 25.01710
796.2277, 24.43923
796.7098, 24.14846
797.1919, 24.47283
797.6740, 25.16512
798.1561, 25.85396
798.6382, 26.55454
799.1204, 26.75291
799.6025, 26.20912
800.0846, 25.77362
800.5667, 25.88140
801.0488, 26.33504
801.5309, 26.85044
802.0131, 27.48285
802.4952, 27.86331
802.9773, 27.79603
803.4594, 27.66085
803.9415, 27.59269
804.4236, 27.56286
804.9058, 27.51331
805.3879, 27.44739
805.8700, 27.43651
806.3521, 27.53608
806.8342, 27.70605
807.3163, 27.90628
807.7985, 28.12630
808.2806, 28.30226
808.7627, 28.42135
809.2448, 28.60196
809.7269, 28.95832
810.2090, 29.39297
810.6912, 29.59106
811.1733, 29.41584
811.6554, 29.33294
812.1375, 29.46790
812.6196, 29.55136
813.1017, 29.40381
813.5839, 29.18446
814.0660, 29.08734
814.5481, 29.13806
815.0302, 29.31984
815.5123, 29.78252
815.9944, 30.22426
816.4766, 30.38800
816.9587, 30.36150
817.4408, 30.24379
817.9229, 30.09699
818.4050, 30.10475
818.8871, 30.46431
819.3693, 31.00422
819.8514, 31.26089
820.3335, 31.22408
820.8156, 31.10491
821.2977, 30.88898
821.7798, 30.73606
822.2620, 30.75457
822.7441, 30.91319
823.2262, 31.13025
823.7083, 31.47158
824.1904, 31.71968
824.6725, 31.81892
825.1547, 31.88022
825.6368, 31.86967
826.1189, 31.89294
826.6010, 32.18401
827.0831, 32.74047
827.5652, 33.08857
828.0474, 32.71786
828.5295, 32.13685
829.0116, 31.86109
829.4937, 31.87854
829.9758, 32.26052
830.4579, 32.98499
830.9401, 33.68817
831.4222, 34.10973
831.9044, 34.25732
832.3865, 34.05545
832.8686, 33.35144
833.3507, 33.10259
833.8328, 33.57481
834.3149, 34.14620
834.7971, 34.47866
835.2792, 34.70018
835.7613, 35.12183
836.2434, 35.86100
836.7255, 36.13091
837.2076, 35.34027
837.6898, 34.57507
838.1719, 34.37694
838.6540, 34.49174
839.1361, 34.60284
839.6182, 34.65887
840.1003, 34.76904
840.5825, 35.01312
841.0646, 35.32875
841.5467, 35.70056
842.0288, 36.07196
842.5109, 36.20876
842.9930, 36.09206
843.4752, 35.98279
843.9573, 36.04292
844.4394, 36.19772
844.9215, 36.31244
845.4036, 36.42271
845.8857, 36.28340
846.3679, 35.66317
846.8500, 35.20565
847.3321, 35.36853
847.8142, 35.64960
848.2963, 35.42118
848.7784, 34.71523
849.2606, 34.29618
849.7427, 34.63588
850.2248, 34.87846
850.7069, 34.50859
851.1890, 34.00893
851.6711, 33.96926
852.1533, 34.26829
852.6354, 34.31020
853.1175, 33.77390
853.5996, 33.13608
854.0817, 32.99078
854.5638, 33.15489
855.0460, 33.17729
855.5281, 33.03263
856.0102, 32.77552
856.4923, 32.42563
856.9744, 31.96818
857.4565, 31.33006
857.9387, 30.53084
858.4208, 30.21579
858.9029, 30.59186
859.3850, 30.96842
859.8671, 31.44394
860.3492, 31.62585
860.8314, 31.00439
861.3135, 29.88590
861.7956, 29.09972
862.2777, 28.80387
862.7598, 28.65638
863.2419, 28.68969
863.7241, 28.72766
864.2062, 28.69966
864.6883, 28.57383
865.1704, 28.29100
865.6525, 27.84793
866.1346, 27.36126
866.6168, 26.81861
867.0989, 26.36649
867.5810, 26.35224
868.0631, 26.63279
868.5452, 26.72050
869.0273, 26.51997
869.5095, 26.16170
869.9916, 25.70835
870.4737, 25.26571
870.9558, 25.17514
871.4379, 25.55199
871.9200, 25.60746
872.4022, 25.22124
872.8843, 24.70560
873.3664, 24.01805
873.8485, 23.40838
874.3306, 23.36265
874.8127, 23.90523
875.2949, 24.17818
875.7770, 24.04503
876.2591, 23.74160
876.7412, 23.08267
877.2233, 22.48254
877.7054, 22.37269
878.1876, 22.63945
878.6697, 22.89913
879.1518, 23.02836
879.6339, 22.99227
880.1160, 22.67368
880.5981, 22.22994
881.0803, 21.84152
881.5624, 21.52785
882.0445, 21.28941
882.5266, 21.12704
883.0087, 21.04549
883.4908, 21.08056
883.9730, 21.17629
884.4551, 21.09293
884.9372, 20.82069
885.4193, 20.51087
885.9014, 20.13426
886.3835, 19.93758
886.8657, 20.14962
887.3478, 20.62237
887.8299, 20.96992
888.3120, 21.24960
888.7941, 21.24441
889.2762, 20.69674
889.7584, 20.17958
890.2405, 19.84809
890.7226, 19.63910
891.2047, 19.47460
891.6868, 19.35770
892.1689, 19.36056
892.6511, 19.63281
893.1332, 19.86164
893.6153, 19.85578
894.0974, 19.75139
894.5795, 19.68898
895.0616, 19.66264
895.5438, 19.61810
896.0259, 19.53249
896.5080, 19.37726
896.9901, 19.00297
897.4722, 18.57902
897.9543, 18.56335
898.4365, 18.89387
898.9186, 19.23803
899.4007, 19.50345
899.8828, 19.53030
900.3649, 19.11627
900.8470, 18.45714
901.3292, 18.32679
901.8113, 18.88869
902.2934, 19.13822
902.7755, 18.83624
903.2576, 18.60018
903.7397, 18.87304
904.2219, 19.28614
904.7040, 19.15990
905.1861, 18.37504
905.6682, 17.97070
906.1503, 18.27817
906.6324, 18.55110
907.1146, 18.62660
907.5967, 18.58470
908.0788, 18.41093
908.5609, 18.18526
909.0430, 18.10657
909.5251, 18.26206
910.0073, 18.46414
910.4894, 18.68258
910.9715, 18.83007
911.4536, 18.78301
911.9357, 18.60600
912.4178, 18.42962
912.9000, 18.28962
913.3821, 18.13566
913.8642, 17.85635
914.3463, 17.65534
914.8284, 18.10607
915.3105, 19.00445
915.7927, 19.36530
916.2748, 19.06686
916.7569, 18.66459
917.2390, 18.45198
917.7211, 18.34896
918.2032, 18.22851
918.6854, 18.09188
919.1675, 17.89474
919.6496, 17.55426
920.1317, 17.42967
920.6138, 17.73587
921.0959, 18.10647
921.5781, 18.25588
922.0602, 18.20349
922.5423, 18.02995
923.0244, 17.55229
923.5065, 17.29714
923.9886, 17.44654
924.4708, 17.63883
924.9529, 17.67237
925.4350, 17.68259
925.9171, 17.93959
926.3992, 18.42563
926.8813, 18.64607
927.3635, 18.07263
927.8456, 17.58174
928.3277, 17.85015
928.8098, 18.34000
929.2919, 18.45564
929.7740, 18.23827
930.2562, 17.97747
930.7383, 17.79215
931.2205, 17.68656
931.7026, 17.69738
932.1847, 17.77355
932.6668, 17.85546
933.1489, 17.92002
933.6310, 17.87124
934.1132, 17.69378
934.5953, 17.45749
935.0774, 17.19050
935.5595, 16.99555
936.0416, 17.22146
936.5237, 17.87510
937.0059, 18.07819
937.4880, 17.70458
937.9701, 17.39029
938.4522, 17.39656
938.9343, 17.54808
939.4164, 17.67097
939.8986, 17.75787
940.3807, 17.66009
940.8628, 17.18309
941.3449, 16.90987
941.8270, 17.06811
942.3091, 17.23681
942.7913, 17.11946
943.2734, 16.90375
943.7555, 16.90561
944.2376, 17.16762
944.7197, 17.41368
945.2018, 17.69142
945.6840, 17.82913
946.1661, 17.74983
946.6482, 17.51225
947.1303, 17.01505
947.6124, 16.41703
948.0945, 16.16546
948.5767, 16.47822
949.0588, 16.79716
949.5409, 16.65452
950.0230, 16.45826
950.5051, 16.71066
950.9872, 17.18468
951.4694, 17.42242
951.9515, 17.34402
952.4336, 17.14164
952.9157, 16.91230
953.3978, 16.72953
953.8799, 16.79837
954.3621, 16.97766
954.8442, 16.76533
955.3263, 16.21700
955.8084, 15.99473
956.2905, 16.36165
956.7726, 16.89481
957.2548, 17.13655
957.7369, 17.12579
958.2190, 17.03108
958.7011, 16.85163
959.1832, 16.54082
959.6653, 16.02413
960.1475, 15.73514
960.6296, 15.99135
961.1117, 16.49590
961.5938, 16.69606
962.0759, 16.55387
962.5580, 16.47447
963.0402, 16.44733
963.5223, 16.51409
964.0044, 16.79482
964.4865, 17.03851
964.9686, 17.02574
965.4507, 16.82637
965.9329, 16.64304
966.4150, 16.40249
966.8971, 16.37644
967.3792, 16.79202
967.8613, 17.17009
968.3434, 17.30181
968.8256, 17.33953
969.3077, 16.87473
969.7898, 17.71167
970.2719, 18.23999
970.7540, 18.47626
971.2361, 17.54578
971.7183, 18.12195
972.2004, 18.09429
972.6825, 18.04190
973.1646, 18.83008
973.6467, 18.06932
974.1288, 18.84415
974.6110, 19.00605
975.0931, 19.44844
975.5752, 19.28335
976.0573, 19.30590
976.5394, 19.93615
977.0215, 20.22989
977.5037, 19.99490
977.9858, 20.45513
978.4679, 19.67315
978.9500, 19.98124
979.4321, 20.75965
979.9142, 20.55515
980.3964, 21.02654
980.8785, 21.24048
981.3606, 20.79338
981.8427, 21.06607
982.3248, 21.48054
982.8069, 22.04382
983.2891, 22.65294
983.7712, 23.14103
984.2533, 23.53903
984.7354, 24.09941
985.2175, 24.82636
985.6996, 25.55984
986.1818, 26.26070
986.6639, 27.02282
987.1460, 27.91758
987.6281, 28.89415
988.1102, 29.78072
988.5923, 30.50347
989.0745, 31.79396
989.5566, 33.88516
990.0387, 35.84847
990.5208, 37.31529
991.0029, 38.74623
991.4850, 40.43270
991.9672, 42.41424
992.4493, 44.88781
992.9314, 48.04512
993.4135, 51.21630
993.8956, 54.40614
994.3777, 57.58387
994.8599, 60.58986
995.3420, 63.70835
995.8241, 67.14767
996.3062, 70.92564
996.7883, 75.22685
997.2704, 80.42959
997.7526, 85.49574
998.2347, 90.11340
998.7168, 94.78821
999.1989, 99.90820
999.6810, 105.1794
1000.163, 110.0316
1000.645, 114.5691
1001.127, 119.6487
1001.609, 125.6804
1002.092, 132.0977
1002.574, 138.3794
1003.056, 145.2453
1003.538, 153.4479
1004.020, 162.4854
1004.502, 171.8584
1004.984, 181.2682
1005.466, 189.6945
1005.949, 196.6223
1006.431, 202.2812
1006.913, 207.1203
1007.395, 210.5799
1007.877, 211.3855
1008.359, 210.3288
1008.841, 209.6453
1009.323, 209.8710
1009.805, 208.9129
1010.288, 205.7843
1010.770, 199.8920
1011.252, 189.9018
1011.734, 176.9466
1012.216, 162.4830
1012.698, 147.1274
1013.180, 131.2602
1013.662, 115.2008
1014.145, 100.8123
1014.627, 90.22112
1015.109, 82.38641
1015.591, 75.50254
1016.073, 69.65582
1016.555, 65.40585
1017.037, 62.64632
1017.519, 60.20285
1018.001, 57.49874
1018.484, 54.77314
1018.966, 52.17600
1019.448, 49.90028
1019.930, 48.87640
1020.412, 48.96695
1020.894, 48.90231
1021.376, 48.46172
1021.858, 47.73621
1022.341, 46.75562
1022.823, 45.66066
1023.305, 44.66657
1023.787, 43.76149
1024.269, 42.81098
1024.751, 41.81023
1025.233, 40.75847
1025.715, 39.62396
1026.198, 38.73048
1026.680, 38.38659
1027.162, 38.09898
1027.644, 36.83535
1028.126, 34.56142
1028.608, 32.91336
1029.090, 32.00578
1029.572, 31.21444
1030.054, 30.41068
1030.536, 29.71201
1031.019, 29.23216
1031.501, 28.85775
1031.983, 28.32114
1032.465, 27.58755
1032.947, 26.97795
1033.429, 26.49739
1033.911, 26.13528
1034.393, 25.96660
1034.876, 25.77929
1035.358, 25.44218
1035.840, 24.96165
1036.322, 24.30423
1036.804, 23.34169
1037.286, 22.83065
1037.768, 23.12064
1038.250, 23.21795
1038.733, 22.61327
1039.215, 22.12319
1039.697, 22.57077
1040.179, 23.49732
1040.661, 23.68380
1041.143, 22.84820
1041.625, 22.32336
1042.107, 22.31163
1042.589, 22.33313
1043.072, 22.38765
1043.554, 22.35819
1044.036, 22.04341
1044.518, 21.60651
1045.000, 21.45342
1045.482, 21.66228
1045.964, 21.89187
1046.446, 22.35636
1046.928, 22.51997
1047.411, 21.94301
1047.893, 21.30226
1048.375, 21.09238
1048.857, 21.20391
1049.339, 21.34928
1049.821, 21.51080
1050.303, 21.65551
1050.785, 21.84323
1051.268, 21.92771
1051.750, 21.71859
1052.232, 21.51913
1052.714, 21.65146
1053.196, 21.95919
1053.678, 22.03632
1054.160, 21.77340
1054.642, 21.63801
1055.125, 21.73120
1055.607, 21.97888
1056.089, 22.55893
1056.571, 23.09737
1057.053, 23.25577
1057.535, 23.14530
1058.017, 23.04766
1058.499, 23.02057
1058.981, 22.91367
1059.464, 22.32304
1059.946, 22.10959
1060.428, 23.08733
1060.910, 24.17013
1061.392, 24.28433
1061.874, 23.83997
1062.356, 23.85711
1062.838, 24.55487
1063.320, 25.11631
1063.803, 25.17143
1064.285, 25.13246
1064.767, 25.11188
1065.249, 25.13633
1065.731, 25.14877
1066.213, 25.24835
1066.695, 25.67939
1067.177, 26.48036
1067.660, 27.19748
1068.142, 27.76408
1068.624, 28.05807
1069.106, 27.65848
1069.588, 27.29788
1070.070, 27.72958
1070.552, 28.59985
1071.034, 29.17291
1071.516, 29.32829
1071.999, 29.58134
1072.481, 30.17999
1072.963, 30.87734
1073.445, 31.85633
1073.927, 32.60833
1074.409, 32.43813
1074.891, 31.87511
1075.373, 31.78025
1075.855, 32.28716
1076.338, 33.00729
1076.820, 33.79487
1077.302, 34.75480
1077.784, 36.11843
1078.266, 37.48934
1078.748, 38.62429
1079.230, 39.52390
1079.713, 40.02547
1080.195, 40.25018
1080.677, 40.95577
1081.159, 42.74915
1081.641, 44.36274
1082.123, 44.69505
1082.605, 45.14386
1083.087, 46.86108
1083.569, 49.23572
1084.052, 51.51080
1084.534, 53.56541
1085.016, 55.44226
1085.498, 57.02276
1085.980, 58.82172
1086.462, 61.19030
1086.944, 63.72479
1087.426, 66.04543
1087.908, 68.47137
1088.391, 71.41922
1088.873, 74.83957
1089.355, 78.35332
1089.837, 81.84982
1090.319, 85.47769
1090.801, 89.13583
1091.283, 93.15466
1091.765, 98.01853
1092.248, 103.0962
1092.730, 107.6813
1093.212, 111.9496
1093.694, 116.5636
1094.176, 121.6672
1094.658, 127.0244
1095.140, 132.5560
1095.622, 138.2810
1096.104, 144.5405
1096.587, 150.7305
1097.069, 156.1748
1097.551, 161.2041
1098.033, 166.7689
1098.515, 173.0797
1098.997, 178.4209
1099.479, 181.6848
1099.961, 184.7455
1100.443, 188.1565
1100.926, 191.6889
1101.408, 195.6306
1101.890, 199.3281
1102.372, 201.6509
1102.854, 202.5260
1103.336, 203.1722
1103.818, 203.8153
1104.300, 204.2957
1104.783, 204.4939
1105.265, 204.6164
1105.747, 205.0364
1106.229, 205.2734
1106.711, 205.0146
1107.193, 204.0991
1107.675, 201.7036
1108.157, 197.2965
1108.640, 192.2133
1109.122, 186.5621
1109.604, 180.3288
1110.086, 173.5992
1110.568, 166.1862
1111.050, 157.4836
1111.532, 147.9363
1112.014, 139.1197
1112.496, 131.3951
1112.979, 123.5906
1113.461, 115.1772
1113.943, 107.3789
1114.425, 100.7607
1114.907, 94.58801
1115.389, 88.02966
1115.871, 81.66059
1116.353, 76.88642
1116.835, 74.01781
1117.318, 70.90027
1117.800, 67.35429
1118.282, 63.85976
1118.764, 60.11111
1119.246, 57.01854
1119.728, 55.35615
1120.210, 54.38111
1120.692, 52.97358
1121.175, 51.14128
1121.657, 49.52927
1122.139, 48.14274
1122.621, 46.93825
1123.103, 45.49488
1123.585, 44.55927
1124.067, 43.44406
1124.549, 42.16660
1125.031, 39.85150
1125.514, 39.17030
1125.996, 38.01743
1126.478, 36.96900
1126.960, 36.89077
1127.442, 35.39285
1127.924, 35.56010
1128.406, 35.24369
1128.888, 35.33733
1129.370, 34.95284
1129.853, 34.88567
1130.335, 35.55564
1130.817, 36.01862
1131.299, 36.08213
1131.781, 36.97047
1132.263, 36.74585
1132.745, 37.74092
1133.227, 39.33576
1133.710, 40.07920
1134.192, 40.70094
1134.674, 41.15130
1135.156, 41.24664
1135.638, 41.46918
1136.120, 41.82472
1136.602, 42.40882
1137.084, 43.20735
1137.567, 43.92014
1138.049, 44.43504
1138.531, 45.08158
1139.013, 46.22573
1139.495, 47.57253
1139.977, 48.52150
1140.459, 49.20745
1140.941, 49.95415
1141.423, 50.81370
1141.906, 51.93589
1142.388, 53.31151
1142.870, 54.65047
1143.352, 55.78147
1143.834, 56.81208
1144.316, 57.78542
1144.798, 58.80730
1145.280, 60.14653
1145.762, 61.61997
1146.245, 62.75539
1146.727, 63.64775
1147.209, 64.89973
1147.691, 66.74866
1148.173, 68.59338
1148.655, 69.90989
1149.137, 71.12233
1149.619, 72.91113
1150.102, 74.54613
1150.584, 74.94910
1151.066, 74.58831
1151.548, 74.60410
1152.030, 75.14897
1152.512, 75.35242
1152.994, 74.75882
1153.476, 73.90702
1153.958, 72.86362
1154.441, 71.86829
1154.923, 71.15940
1155.405, 70.53055
1155.887, 69.80348
1156.369, 68.91855
1156.851, 67.75272
1157.333, 66.20946
1157.815, 64.65658
1158.297, 63.10395
1158.780, 61.65625
1159.262, 60.76815
1159.744, 59.57883
1160.226, 57.09064
1160.708, 54.03201
1161.190, 51.80016
1161.672, 50.48257
1162.154, 49.06326
1162.637, 47.47401
1163.119, 45.89625
1163.601, 44.23806
1164.083, 42.78246
1164.565, 41.69538
1165.047, 40.77837
1165.529, 39.83578
1166.011, 38.87999
1166.494, 37.95040
1166.976, 37.01991
1167.458, 36.26369
1167.940, 35.73262
1168.422, 35.12609
1168.904, 34.37873
1169.386, 33.46920
1169.868, 32.34547
1170.350, 31.23798
1170.833, 30.58548
1171.315, 30.28487
1171.797, 29.68665
1172.279, 28.83356
1172.761, 28.19871
1173.243, 27.82947
1173.725, 27.64638
1174.207, 27.60608
1174.689, 27.40677
1175.172, 26.74972
1175.654, 25.84614
1176.136, 24.92527
1176.618, 24.09496
1177.100, 23.62255
1177.582, 23.46605
1178.064, 23.53504
1178.547, 23.75586
1179.029, 23.98020
1179.511, 24.14947
1179.993, 24.07695
1180.475, 23.48993
1180.957, 22.70124
1181.439, 21.84472
1181.921, 21.09805
1182.403, 20.67274
1182.885, 20.53601
1183.368, 20.72865
1183.850, 21.18003
1184.332, 21.19739
1184.814, 20.13463
1185.296, 19.25317
1185.778, 19.20958
1186.260, 19.33842
1186.742, 19.28891
1187.225, 19.16347
1187.707, 19.15461
1188.189, 19.18649
1188.671, 18.92354
1189.153, 18.17878
1189.635, 17.74670
1190.117, 17.91412
1190.599, 18.03866
1191.082, 18.09366
1191.564, 17.97814
1192.046, 17.53290
1192.528, 17.00706
1193.010, 16.73917
1193.492, 16.70749
1193.974, 16.73787
1194.456, 16.85118
1194.938, 16.93275
1195.421, 16.99572
1195.903, 16.89563
1196.385, 16.56927
1196.867, 16.19471
1197.349, 15.87953
1197.831, 15.70562
1198.313, 15.91668
1198.795, 16.38500
1199.277, 16.45655
1199.760, 16.20284
1200.242, 15.96405
1200.724, 15.79173
1201.206, 15.68039
1201.688, 15.62316
1202.170, 15.57026
1202.652, 15.48390
1203.134, 15.37337
1203.617, 15.21354
1204.099, 15.06502
1204.581, 15.03410
1205.063, 15.07298
1205.545, 15.08354
1206.027, 15.06403
1206.509, 14.58381
1206.991, 15.23869
1207.474, 15.58484
1207.956, 15.63905
1208.438, 14.52654
1208.920, 14.92061
1209.402, 14.71091
1209.884, 14.47645
1210.366, 15.08258
1210.848, 14.13975
1211.330, 14.73255
1211.813, 14.71225
1212.295, 14.97260
1212.777, 14.62545
1213.259, 14.46594
1213.741, 14.91413
1214.223, 15.02582
1214.705, 14.60875
1215.187, 14.88693
1215.669, 13.92289
1216.152, 14.04882
1216.634, 14.64516
1217.116, 14.25863
1217.598, 14.54792
1218.080, 14.57983
1218.562, 13.44197
1219.044, 14.33844
1219.526, 14.35513
1220.009, 13.46837
1220.491, 14.29514
1220.973, 13.53540
1221.455, 13.53287
1221.937, 13.63091
1222.419, 13.89662
1222.901, 14.21987
1223.383, 14.26975
1223.865, 14.07473
1224.348, 13.91819
1224.830, 13.89330
1225.312, 13.84162
1225.794, 13.59793
1226.276, 13.39986
1226.758, 13.50998
1227.240, 13.66244
1227.722, 13.65452
1228.204, 13.51940
1228.687, 13.20426
1229.169, 12.82939
1229.651, 12.79198
1230.133, 13.25440
1230.615, 13.52047
1231.097, 13.26140
1231.579, 13.10233
1232.061, 13.24353
1232.544, 13.41340
1233.026, 13.55017
1233.508, 13.58149
1233.990, 13.38293
1234.472, 13.02892
1234.954, 12.84029
1235.436, 12.84261
1235.918, 12.82699
1236.401, 12.78578
1236.883, 12.83767
1237.365, 13.01490
1237.847, 13.05411
1238.329, 12.80425
1238.811, 12.59416
1239.293, 12.87845
1239.775, 13.32302
1240.257, 13.10075
1240.740, 12.55503
1241.222, 12.54830
1241.704, 12.91920
1242.186, 13.14391
1242.668, 13.10465
1243.150, 12.80884
1243.632, 12.22850
1244.114, 11.81680
1244.596, 12.05511
1245.079, 12.32927
1245.561, 12.14666
1246.043, 11.93641
1246.525, 12.14686
1247.007, 12.52737
1247.489, 12.61818
1247.971, 12.45375
1248.453, 12.55940
1248.936, 13.31272
1249.418, 13.48428
1249.900, 12.52278
1250.382, 12.06477
1250.864, 12.68294
1251.346, 13.33969
1251.828, 13.47602
1252.310, 13.29284
1252.792, 13.01785
1253.275, 12.69174
1253.757, 12.47978
1254.239, 12.37745
1254.721, 12.30008
1255.203, 12.26219
1255.685, 12.50119
1256.167, 13.01215
1256.649, 13.29499
1257.131, 13.08894
1257.614, 12.79141
1258.096, 12.75270
1258.578, 12.88436
1259.060, 13.32590
1259.542, 13.67388
1260.024, 13.20664
1260.506, 12.38580
1260.988, 12.08042
1261.471, 12.28696
1261.953, 12.39621
1262.435, 12.23301
1262.917, 12.04500
1263.399, 11.81593
1263.881, 11.68276
1264.363, 11.80651
1264.845, 11.87801
1265.328, 11.63497
1265.810, 11.39057
1266.292, 11.54328
1266.774, 11.97134
1267.256, 12.18319
1267.738, 12.15913
1268.220, 12.08562
1268.702, 11.95718
1269.184, 12.03912
1269.667, 12.36563
1270.149, 12.39003
1270.631, 11.86557
1271.113, 11.33389
1271.595, 11.34190
1272.077, 11.54749
1272.559, 11.34909
1273.041, 11.08927
1273.523, 11.41827
1274.006, 11.99765
1274.488, 12.18031
1274.970, 12.00302
1275.452, 11.84626
1275.934, 11.81283
1276.416, 11.88845
1276.898, 12.33457
1277.380, 12.48393
1277.863, 11.75476
1278.345, 11.18941
1278.827, 11.58197
1279.309, 12.03650
1279.791, 11.71676
1280.273, 11.02435
1280.755, 10.88144
1281.237, 11.27952
1281.719, 11.47186
1282.202, 11.44481
1282.684, 11.42004
1283.166, 11.41841
1283.648, 11.21637
1284.130, 10.76240
1284.612, 10.64104
1285.094, 11.29580
1285.576, 12.08705
##END=



