##NAMES=Nenadkevichite
##RRUFFID=R070610
##IDEAL CHEMISTRY=(Na,[box])_8_Nb^5+^_4_(Si_4_O_12_)_2_(O,OH)_4_&#183;8H_2_O
##LOCALITY=Desourdy Quarry, Mount Saint Hilaire, Rouville County, Quebec, Canada
##OWNER=RRUFF
##SOURCE=James Shigley
##DESCRIPTION=Cluster of pale-pink translucent tabular pseudohexagonal crystals, associated with analcime
##STATUS=The identification of this mineral has been confirmed only by single crystal X-ray diffraction.
##URL=rruff.info/R070610
115.5352, 2055.684
116.0173, 2215.871
116.4994, 2361.129
116.9815, 2506.990
117.4637, 2667.890
117.9458, 2849.974
118.4279, 3047.649
118.9100, 3259.558
119.3921, 3483.920
119.8742, 3717.972
120.3564, 3941.299
120.8385, 4174.711
121.3206, 4457.476
121.8027, 4876.788
122.2848, 5328.776
122.7669, 5675.020
123.2491, 5873.523
123.7312, 6049.446
124.2133, 6351.107
124.6954, 6754.647
125.1775, 7142.403
125.6596, 7425.878
126.1417, 7641.021
126.6239, 7870.249
127.1060, 8128.589
127.5881, 8411.426
128.0702, 8709.929
128.5523, 9025.461
129.0345, 9349.921
129.5166, 9681.200
129.9987, 10017.50
130.4808, 10334.11
130.9629, 10615.73
131.4450, 10872.28
131.9271, 11130.92
132.4093, 11389.27
132.8914, 11666.32
133.3735, 12002.63
133.8556, 12401.73
134.3377, 12792.81
134.8198, 13161.53
135.3020, 13513.79
135.7841, 13772.26
136.2662, 13904.60
136.7483, 13969.35
137.2304, 14098.75
137.7125, 14300.46
138.1947, 14549.60
138.6768, 14853.77
139.1589, 15253.26
139.6410, 15575.49
140.1231, 15769.24
140.6052, 15858.27
141.0874, 16039.23
141.5695, 16335.04
142.0516, 16694.35
142.5337, 17071.74
143.0158, 17479.41
143.4979, 17878.30
143.9801, 18148.87
144.4622, 18359.74
144.9443, 18593.94
145.4264, 18853.29
145.9085, 19133.20
146.3906, 19424.90
146.8728, 19747.91
147.3549, 20062.38
147.8370, 20352.76
148.3191, 20595.52
148.8012, 20865.28
149.2833, 21182.97
149.7655, 21528.48
150.2476, 21851.70
150.7297, 22124.77
151.2118, 22397.31
151.6939, 22688.69
152.1760, 23037.42
152.6582, 23355.35
153.1403, 23623.08
153.6224, 23849.13
154.1045, 24083.96
154.5866, 24332.59
155.0687, 24593.65
155.5508, 24869.10
156.0330, 25183.93
156.5151, 25486.45
156.9972, 25760.11
157.4793, 26004.35
157.9614, 26246.83
158.4435, 26491.16
158.9257, 26741.03
159.4078, 27001.56
159.8899, 27298.20
160.3720, 27586.07
160.8541, 27847.97
161.3362, 28081.85
161.8184, 28291.67
162.3005, 28477.42
162.7826, 28640.45
163.2647, 28783.08
163.7468, 28918.09
164.2289, 29027.05
164.7111, 29096.83
165.1932, 29128.06
165.6753, 29117.88
166.1574, 29067.36
166.6395, 28975.17
167.1216, 28838.00
167.6038, 28644.36
168.0859, 28407.81
168.5680, 28144.62
169.0501, 27852.26
169.5322, 27540.35
170.0143, 27207.71
170.4965, 26859.54
170.9786, 26512.20
171.4607, 26181.48
171.9428, 25857.50
172.4249, 25527.93
172.9070, 25177.38
173.3892, 24824.73
173.8713, 24494.50
174.3534, 24189.49
174.8355, 23890.48
175.3176, 23571.17
175.7997, 23242.56
176.2819, 22938.13
176.7640, 22679.23
177.2461, 22450.55
177.7282, 22236.97
178.2103, 22038.10
178.6924, 21843.19
179.1745, 21625.95
179.6567, 21393.54
180.1388, 21185.24
180.6209, 21037.18
181.1030, 20929.09
181.5851, 20795.21
182.0672, 20620.11
182.5494, 20440.68
183.0315, 20318.82
183.5136, 20250.64
183.9957, 20201.39
184.4778, 20147.68
184.9599, 20092.39
185.4421, 20047.89
185.9242, 20016.62
186.4063, 19996.43
186.8884, 19984.24
187.3705, 19980.30
187.8526, 19980.57
188.3348, 19977.67
188.8169, 19973.30
189.2990, 19983.36
189.7811, 20009.39
190.2632, 20052.89
190.7453, 20120.02
191.2275, 20210.87
191.7096, 20324.25
192.1917, 20461.97
192.6738, 20626.14
193.1559, 20800.68
193.6380, 20982.53
194.1202, 21171.09
194.6023, 21367.53
195.0844, 21568.90
195.5665, 21782.77
196.0486, 22016.23
196.5307, 22268.35
197.0129, 22547.40
197.4950, 22865.82
197.9771, 23224.54
198.4592, 23568.69
198.9413, 23890.19
199.4234, 24209.47
199.9055, 24561.83
200.3877, 24949.50
200.8698, 25361.00
201.3519, 25795.00
201.8340, 26257.75
202.3161, 26700.25
202.7982, 27113.38
203.2804, 27510.86
203.7625, 27933.79
204.2446, 28395.11
204.7267, 28841.40
205.2088, 29231.94
205.6909, 29547.05
206.1731, 29893.46
206.6552, 30295.46
207.1373, 30731.54
207.6194, 31113.89
208.1015, 31421.06
208.5836, 31714.71
209.0658, 32046.25
209.5479, 32432.08
210.0300, 32784.33
210.5121, 33087.51
210.9942, 33344.70
211.4763, 33602.12
211.9585, 33877.11
212.4406, 34125.68
212.9227, 34301.77
213.4048, 34388.25
213.8869, 34455.76
214.3690, 34521.61
214.8512, 34584.68
215.3333, 34615.01
215.8154, 34629.15
216.2975, 34589.29
216.7796, 34446.26
217.2617, 34163.75
217.7439, 33854.99
218.2260, 33537.16
218.7081, 33212.20
219.1902, 32887.76
219.6723, 32565.96
220.1544, 32243.00
220.6366, 31904.40
221.1187, 31539.68
221.6008, 31183.88
222.0829, 30842.33
222.5650, 30504.23
223.0471, 30220.79
223.5293, 30003.50
224.0114, 29831.80
224.4935, 29665.18
224.9756, 29496.29
225.4577, 29347.38
225.9398, 29226.68
226.4220, 29129.44
226.9041, 29073.11
227.3862, 29059.30
227.8683, 29086.18
228.3504, 29151.76
228.8325, 29264.54
229.3147, 29403.09
229.7968, 29551.60
230.2789, 29688.39
230.7610, 29887.60
231.2431, 30169.61
231.7252, 30512.13
232.2074, 30851.66
232.6895, 31195.32
233.1716, 31530.88
233.6537, 31848.79
234.1358, 32119.03
234.6179, 32429.94
235.1001, 32805.67
235.5822, 33227.58
236.0643, 33621.10
236.5464, 33965.18
237.0285, 34308.28
237.5106, 34683.93
237.9928, 35111.58
238.4749, 35520.11
238.9570, 35893.00
239.4391, 36237.23
239.9212, 36601.65
240.4033, 37011.76
240.8855, 37411.68
241.3676, 37769.70
241.8497, 38095.69
242.3318, 38350.15
242.8139, 38509.94
243.2960, 38583.54
243.7782, 38674.35
244.2603, 38823.88
244.7424, 38943.90
245.2245, 38962.53
245.7066, 38846.61
246.1887, 38693.20
246.6708, 38513.32
247.1530, 38306.75
247.6351, 38066.89
248.1172, 37790.06
248.5993, 37483.73
249.0814, 37154.61
249.5635, 36812.00
250.0457, 36431.85
250.5278, 36005.16
251.0099, 35531.56
251.4920, 35031.59
251.9741, 34510.82
252.4562, 33964.33
252.9384, 33382.14
253.4205, 32733.75
253.9026, 32110.55
254.3847, 31544.54
254.8668, 31035.00
255.3489, 30488.72
255.8311, 29884.53
256.3132, 29260.38
256.7953, 28670.25
257.2774, 28131.15
257.7595, 27572.64
258.2416, 26983.57
258.7238, 26353.61
259.2059, 25734.61
259.6880, 25110.14
260.1701, 24509.37
260.6522, 23961.84
261.1343, 23488.75
261.6165, 23025.10
262.0986, 22547.67
262.5807, 22050.99
263.0628, 21616.00
263.5449, 21243.62
264.0270, 20927.15
264.5092, 20661.28
264.9913, 20466.45
265.4734, 20268.05
265.9555, 20036.47
266.4376, 19770.44
266.9197, 19537.36
267.4019, 19339.81
267.8840, 19174.21
268.3661, 19040.13
268.8482, 18939.57
269.3303, 18863.66
269.8124, 18817.33
270.2946, 18803.06
270.7767, 18771.61
271.2588, 18713.11
271.7409, 18651.38
272.2230, 18621.52
272.7051, 18626.44
273.1873, 18647.98
273.6694, 18683.91
274.1515, 18735.04
274.6336, 18780.54
275.1157, 18819.96
275.5978, 18855.39
276.0800, 18888.69
276.5621, 18919.77
277.0442, 18950.62
277.5263, 18977.84
278.0084, 19001.90
278.4905, 19045.74
278.9726, 19112.67
279.4547, 19192.67
279.9369, 19286.26
280.4190, 19397.14
280.9011, 19466.16
281.3832, 19446.74
281.8653, 19347.13
282.3474, 19290.39
282.8296, 19290.94
283.3117, 19296.48
283.7938, 19222.28
284.2759, 19068.96
284.7580, 18913.85
285.2401, 18801.63
285.7223, 18722.27
286.2044, 18607.63
286.6865, 18452.99
287.1686, 18279.80
287.6507, 18121.53
288.1328, 17975.70
288.6150, 17822.38
289.0971, 17650.26
289.5792, 17462.68
290.0613, 17268.53
290.5434, 17066.61
291.0255, 16868.73
291.5077, 16689.29
291.9898, 16525.56
292.4719, 16367.28
292.9540, 16213.45
293.4361, 16059.33
293.9182, 15895.01
294.4004, 15717.79
294.8825, 15534.62
295.3646, 15348.72
295.8467, 15161.55
296.3288, 14980.64
296.8109, 14805.94
297.2931, 14641.53
297.7752, 14502.61
298.2573, 14392.54
298.7394, 14289.45
299.2215, 14173.85
299.7036, 14048.75
300.1858, 13925.53
300.6679, 13807.13
301.1500, 13693.74
301.6321, 13583.47
302.1142, 13476.84
302.5963, 13373.47
303.0785, 13278.61
303.5606, 13186.19
304.0427, 13086.21
304.5248, 12978.19
305.0069, 12857.79
305.4890, 12717.25
305.9712, 12553.10
306.4533, 12390.36
306.9354, 12246.49
307.4175, 12113.31
307.8996, 11980.81
308.3817, 11849.29
308.8639, 11713.38
309.3460, 11565.37
309.8281, 11404.38
310.3102, 11252.64
310.7923, 11141.56
311.2744, 11042.18
311.7566, 10918.17
312.2387, 10713.91
312.7208, 10515.81
313.2029, 10379.43
313.6850, 10307.29
314.1671, 10236.57
314.6493, 10147.11
315.1314, 10042.87
315.6135, 9929.185
316.0956, 9778.865
316.5777, 9645.595
317.0598, 9561.882
317.5420, 9527.542
318.0241, 9477.461
318.5062, 9371.800
318.9883, 9252.792
319.4704, 9155.889
319.9525, 9114.335
320.4347, 9069.294
320.9168, 8997.755
321.3989, 8901.650
321.8810, 8828.545
322.3631, 8808.718
322.8452, 8801.566
323.3273, 8778.177
323.8094, 8715.792
324.2916, 8659.172
324.7737, 8614.409
325.2558, 8580.902
325.7379, 8549.898
326.2200, 8523.006
326.7021, 8497.355
327.1843, 8470.908
327.6664, 8438.600
328.1485, 8412.443
328.6306, 8397.851
329.1127, 8391.770
329.5948, 8374.751
330.0770, 8336.078
330.5591, 8298.002
331.0412, 8274.630
331.5233, 8274.429
332.0054, 8270.769
332.4875, 8263.525
332.9697, 8251.899
333.4518, 8231.501
333.9339, 8198.045
334.4160, 8163.362
334.8981, 8131.454
335.3802, 8098.745
335.8624, 8082.820
336.3445, 8089.871
336.8266, 8109.874
337.3087, 8119.316
337.7908, 8116.672
338.2729, 8108.275
338.7551, 8093.853
339.2372, 8072.696
339.7193, 8063.055
340.2014, 8070.497
340.6835, 8081.643
341.1656, 8065.295
341.6478, 8018.966
342.1299, 7985.204
342.6120, 7994.665
343.0941, 8039.762
343.5762, 8064.981
344.0583, 8066.603
344.5405, 8058.811
345.0226, 8069.043
345.5047, 8092.646
345.9868, 8093.250
346.4689, 8031.840
346.9510, 7937.422
347.4332, 7883.693
347.9153, 7873.602
348.3974, 7883.379
348.8795, 7892.506
349.3616, 7902.413
349.8438, 7917.353
350.3259, 7940.698
350.8080, 7969.073
351.2901, 8000.750
351.7722, 8035.435
352.2543, 8066.655
352.7365, 8085.787
353.2186, 8098.273
353.7007, 8112.661
354.1828, 8132.659
354.6649, 8154.989
355.1470, 8177.725
355.6292, 8200.854
356.1113, 8225.102
356.5934, 8250.338
357.0755, 8277.154
357.5576, 8305.822
358.0397, 8331.265
358.5219, 8364.707
359.0040, 8417.707
359.4861, 8485.297
359.9682, 8545.727
360.4503, 8590.892
360.9324, 8626.206
361.4146, 8653.863
361.8967, 8662.326
362.3788, 8681.174
362.8609, 8726.279
363.3430, 8787.891
363.8251, 8838.776
364.3073, 8852.748
364.7894, 8871.712
365.2715, 8915.881
365.7536, 9011.763
366.2357, 9086.308
366.7178, 9126.313
367.2000, 9144.496
367.6820, 9163.042
368.1642, 9182.146
368.6463, 9201.361
369.1284, 9220.839
369.6105, 9240.807
370.0926, 9259.828
370.5747, 9281.472
371.0569, 9299.383
371.5390, 9303.905
372.0211, 9287.549
372.5032, 9275.440
372.9853, 9279.884
373.4674, 9301.280
373.9496, 9294.161
374.4317, 9251.923
374.9138, 9193.928
375.3959, 9136.406
375.8780, 9077.657
376.3601, 9030.561
376.8423, 9002.450
377.3244, 8986.777
377.8065, 8953.648
378.2886, 8900.072
378.7707, 8847.355
379.2528, 8818.761
379.7350, 8809.806
380.2171, 8788.595
380.6992, 8744.667
381.1813, 8691.870
381.6634, 8651.702
382.1455, 8624.281
382.6277, 8606.826
383.1098, 8606.835
383.5919, 8614.577
384.0740, 8608.111
384.5561, 8579.259
385.0382, 8550.936
385.5204, 8551.401
386.0025, 8573.174
386.4846, 8594.904
386.9667, 8600.121
387.4488, 8602.807
387.9309, 8618.671
388.4131, 8651.553
388.8952, 8683.082
389.3773, 8706.107
389.8594, 8719.394
390.3415, 8721.313
390.8236, 8691.549
391.3058, 8666.391
391.7879, 8668.771
392.2700, 8700.743
392.7521, 8727.860
393.2342, 8740.561
393.7163, 8742.733
394.1985, 8737.640
394.6806, 8714.932
395.1627, 8696.793
395.6448, 8695.898
396.1269, 8709.511
396.6090, 8702.668
397.0912, 8651.865
397.5733, 8594.952
398.0554, 8551.968
398.5375, 8531.489
399.0196, 8512.279
399.5017, 8498.316
399.9839, 8484.688
400.4660, 8454.117
400.9481, 8393.705
401.4302, 8337.806
401.9123, 8304.517
402.3944, 8302.654
402.8766, 8289.470
403.3587, 8264.817
403.8408, 8229.813
404.3229, 8181.146
404.8050, 8115.165
405.2871, 8059.671
405.7693, 8029.281
406.2514, 8021.054
406.7335, 8007.738
407.2156, 7989.936
407.6977, 7964.604
408.1798, 7923.649
408.6620, 7869.902
409.1441, 7820.019
409.6262, 7770.808
410.1083, 7733.948
410.5904, 7746.750
411.0725, 7805.237
411.5547, 7850.699
412.0368, 7824.549
412.5189, 7758.084
413.0010, 7707.030
413.4831, 7692.284
413.9652, 7680.413
414.4473, 7626.472
414.9294, 7548.288
415.4116, 7497.095
415.8937, 7525.052
416.3758, 7575.076
416.8579, 7604.226
417.3400, 7602.132
417.8221, 7593.309
418.3043, 7581.632
418.7864, 7571.166
419.2685, 7567.973
419.7506, 7570.815
420.2327, 7583.808
420.7148, 7613.453
421.1970, 7663.343
421.6791, 7702.455
422.1612, 7720.124
422.6433, 7729.140
423.1254, 7739.854
423.6075, 7741.643
424.0897, 7760.002
424.5718, 7804.573
425.0539, 7870.672
425.5360, 7925.859
426.0181, 7962.552
426.5002, 7998.986
426.9824, 8047.991
427.4645, 8115.166
427.9466, 8171.671
428.4287, 8211.689
428.9108, 8244.427
429.3929, 8290.628
429.8751, 8351.635
430.3572, 8415.632
430.8393, 8477.622
431.3214, 8537.827
431.8035, 8595.310
432.2856, 8650.320
432.7678, 8703.944
433.2499, 8754.304
433.7320, 8803.515
434.2141, 8861.411
434.6962, 8939.691
435.1783, 9022.755
435.6605, 9083.276
436.1426, 9122.968
436.6247, 9162.504
437.1068, 9220.019
437.5889, 9285.235
438.0710, 9344.763
438.5532, 9391.653
439.0353, 9436.736
439.5174, 9481.419
439.9995, 9528.875
440.4816, 9588.140
440.9637, 9680.744
441.4459, 9772.388
441.9280, 9837.742
442.4101, 9857.702
442.8922, 9902.045
443.3743, 10007.36
443.8564, 10139.96
444.3386, 10253.36
444.8207, 10330.95
445.3028, 10402.42
445.7849, 10470.73
446.2670, 10535.23
446.7491, 10607.64
447.2313, 10691.83
447.7134, 10780.74
448.1955, 10867.26
448.6776, 10948.32
449.1597, 11038.14
449.6418, 11140.80
450.1240, 11251.65
450.6061, 11352.14
451.0882, 11439.72
451.5703, 11527.95
452.0524, 11632.10
452.5345, 11749.07
453.0167, 11834.57
453.4988, 11884.23
453.9809, 11908.14
454.4630, 11914.78
454.9451, 11905.23
455.4272, 11884.72
455.9094, 11851.45
456.3915, 11810.23
456.8736, 11771.29
457.3557, 11734.26
457.8378, 11684.12
458.3199, 11611.05
458.8020, 11519.19
459.2841, 11410.41
459.7663, 11271.09
460.2484, 11137.01
460.7305, 11033.77
461.2126, 10954.31
461.6947, 10876.45
462.1768, 10782.02
462.6590, 10695.97
463.1411, 10633.72
463.6232, 10609.83
464.1053, 10573.40
464.5874, 10497.39
465.0695, 10410.95
465.5517, 10351.78
466.0338, 10322.71
466.5159, 10318.54
466.9980, 10349.78
467.4801, 10414.30
467.9622, 10445.16
468.4444, 10415.42
468.9265, 10394.95
469.4086, 10445.38
469.8907, 10586.24
470.3728, 10692.77
470.8549, 10744.72
471.3371, 10766.96
471.8192, 10810.30
472.3013, 10874.98
472.7834, 10951.12
473.2655, 11033.32
473.7477, 11122.90
474.2298, 11227.61
474.7119, 11348.10
475.1940, 11472.02
475.6761, 11585.22
476.1582, 11692.38
476.6404, 11803.80
477.1225, 11928.32
477.6046, 12054.48
478.0867, 12171.11
478.5688, 12279.56
479.0509, 12384.04
479.5331, 12466.77
480.0152, 12558.56
480.4973, 12688.31
480.9794, 12885.26
481.4615, 13068.57
481.9436, 13210.55
482.4258, 13324.81
482.9079, 13436.04
483.3900, 13559.35
483.8721, 13668.57
484.3542, 13752.16
484.8363, 13805.71
485.3185, 13874.83
485.8006, 13979.41
486.2827, 14077.79
486.7648, 14133.16
487.2469, 14128.97
487.7290, 14140.02
488.2112, 14181.89
488.6933, 14239.98
489.1754, 14275.58
489.6575, 14288.66
490.1396, 14282.96
490.6217, 14264.66
491.1039, 14230.49
491.5860, 14162.27
492.0681, 14056.26
492.5502, 13932.78
493.0323, 13801.05
493.5144, 13667.59
493.9966, 13547.54
494.4787, 13453.53
494.9608, 13369.39
495.4429, 13282.59
495.9250, 13193.12
496.4071, 13105.44
496.8893, 13023.61
497.3714, 12941.95
497.8535, 12856.19
498.3356, 12760.49
498.8177, 12668.60
499.2998, 12592.62
499.7820, 12520.36
500.2641, 12431.65
500.7462, 12284.01
501.2283, 12160.17
501.7104, 12089.18
502.1925, 12074.52
502.6746, 12033.09
503.1567, 11952.04
503.6389, 11860.87
504.1210, 11783.02
504.6031, 11722.14
505.0852, 11655.84
505.5673, 11580.26
506.0494, 11500.02
506.5316, 11423.42
507.0137, 11350.88
507.4958, 11278.21
507.9779, 11208.04
508.4600, 11136.71
508.9421, 11051.10
509.4243, 10949.94
509.9064, 10844.17
510.3885, 10742.12
510.8706, 10641.66
511.3527, 10538.33
511.8348, 10423.33
512.3170, 10314.27
512.7991, 10231.87
513.2812, 10167.50
513.7633, 10093.99
514.2454, 9991.542
514.7275, 9882.441
515.2097, 9778.200
515.6918, 9680.684
516.1739, 9586.193
516.6560, 9494.661
517.1381, 9405.344
517.6202, 9317.227
518.1024, 9221.586
518.5845, 9142.299
519.0666, 9094.893
519.5487, 9069.757
520.0308, 8998.796
520.5129, 8859.859
520.9951, 8729.896
521.4772, 8666.445
521.9593, 8670.977
522.4414, 8636.298
522.9235, 8550.962
523.4056, 8446.616
523.8878, 8364.823
524.3699, 8302.429
524.8520, 8239.781
525.3341, 8162.875
525.8162, 8087.295
526.2983, 8035.325
526.7805, 8004.908
527.2626, 7981.380
527.7447, 7963.167
528.2268, 7942.845
528.7089, 7912.577
529.1910, 7867.814
529.6732, 7820.057
530.1553, 7767.126
530.6374, 7714.853
531.1195, 7671.332
531.6016, 7644.152
532.0837, 7620.078
532.5659, 7595.415
533.0480, 7569.843
533.5301, 7551.404
534.0122, 7549.288
534.4943, 7541.899
534.9764, 7511.746
535.4586, 7450.420
535.9407, 7404.552
536.4228, 7381.267
536.9049, 7367.430
537.3870, 7335.580
537.8691, 7286.366
538.3513, 7247.658
538.8334, 7232.188
539.3155, 7234.489
539.7976, 7249.561
540.2797, 7276.544
540.7618, 7294.668
541.2440, 7282.392
541.7261, 7253.744
542.2082, 7225.425
542.6903, 7197.975
543.1724, 7178.318
543.6545, 7181.915
544.1367, 7194.449
544.6188, 7189.965
545.1009, 7127.419
545.5830, 7078.283
546.0651, 7077.377
546.5472, 7129.711
547.0294, 7156.444
547.5115, 7141.305
547.9936, 7114.158
548.4757, 7092.624
548.9578, 7078.013
549.4399, 7065.071
549.9221, 7052.873
550.4042, 7042.779
550.8863, 7037.646
551.3684, 7037.619
551.8505, 7040.110
552.3326, 7044.568
552.8148, 7050.747
553.2969, 7061.085
553.7790, 7075.329
554.2611, 7081.798
554.7432, 7062.418
555.2253, 7032.055
555.7075, 7012.296
556.1896, 7006.992
556.6717, 7013.767
557.1538, 7039.793
557.6359, 7075.327
558.1180, 7103.949
558.6002, 7124.611
559.0823, 7133.151
559.5644, 7124.309
560.0465, 7098.107
560.5286, 7073.501
561.0107, 7048.204
561.4929, 7028.564
561.9750, 7018.548
562.4571, 7020.986
562.9392, 7026.740
563.4213, 7038.694
563.9034, 7050.253
564.3856, 7048.306
564.8677, 7031.629
565.3498, 7020.253
565.8319, 7021.824
566.3140, 7032.063
566.7961, 7039.141
567.2783, 7043.550
567.7604, 7052.625
568.2425, 7085.229
568.7246, 7120.331
569.2067, 7125.756
569.6888, 7091.406
570.1709, 7054.018
570.6530, 7026.392
571.1351, 7013.185
571.6172, 7020.361
572.0994, 7085.226
572.5815, 7133.590
573.0636, 7131.727
573.5457, 7088.841
574.0278, 7071.570
574.5099, 7104.813
574.9921, 7136.298
575.4742, 7141.000
575.9563, 7110.483
576.4384, 7098.048
576.9205, 7110.655
577.4026, 7127.915
577.8848, 7124.663
578.3669, 7101.412
578.8490, 7077.708
579.3311, 7053.920
579.8132, 7037.367
580.2953, 7049.247
580.7775, 7083.334
581.2596, 7109.783
581.7417, 7097.741
582.2238, 7077.716
582.7059, 7085.525
583.1880, 7124.616
583.6702, 7156.842
584.1523, 7156.501
584.6344, 7143.767
585.1165, 7136.329
585.5986, 7147.844
586.0807, 7151.983
586.5629, 7137.970
587.0450, 7116.043
587.5271, 7106.425
588.0092, 7112.805
588.4913, 7125.200
588.9734, 7143.865
589.4556, 7167.641
589.9377, 7181.057
590.4198, 7183.570
590.9019, 7178.570
591.3840, 7157.372
591.8661, 7128.296
592.3483, 7133.680
592.8304, 7185.868
593.3125, 7244.097
593.7946, 7264.205
594.2767, 7257.038
594.7589, 7244.655
595.2410, 7222.088
595.7231, 7209.530
596.2052, 7224.543
596.6873, 7262.615
597.1694, 7298.849
597.6516, 7289.291
598.1337, 7258.216
598.6158, 7337.200
599.0979, 7389.994
599.5800, 7418.002
600.0621, 7346.990
600.5443, 7403.848
601.0264, 7409.459
601.5085, 7412.967
601.9906, 7487.816
602.4727, 7431.209
602.9548, 7504.926
603.4370, 7526.626
603.9191, 7566.039
604.4012, 7608.911
604.8833, 7637.093
605.3654, 7654.466
605.8475, 7663.530
606.3297, 7664.728
606.8118, 7670.659
607.2939, 7696.331
607.7760, 7727.196
608.2581, 7748.836
608.7402, 7752.069
609.2224, 7759.140
609.7045, 7779.744
610.1866, 7806.944
610.6687, 7828.878
611.1508, 7837.012
611.6329, 7852.580
612.1151, 7883.403
612.5972, 7925.712
613.0793, 7951.931
613.5614, 7956.118
614.0435, 7966.774
614.5256, 8008.348
615.0078, 8074.305
615.4899, 8122.195
615.9720, 8149.860
616.4541, 8161.995
616.9362, 8141.808
617.4183, 8112.295
617.9005, 8119.058
618.3826, 8193.035
618.8647, 8275.835
619.3468, 8333.609
619.8289, 8370.795
620.3110, 8396.102
620.7932, 8393.724
621.2753, 8398.148
621.7574, 8425.856
622.2395, 8477.498
622.7216, 8520.286
623.2037, 8548.825
623.6859, 8575.439
624.1680, 8605.927
624.6501, 8639.255
625.1322, 8684.818
625.6143, 8745.309
626.0964, 8811.638
626.5786, 8877.770
627.0607, 8941.068
627.5428, 8986.896
628.0249, 8999.572
628.5070, 9009.384
628.9891, 9052.576
629.4713, 9123.254
629.9534, 9202.667
630.4355, 9295.933
630.9176, 9383.923
631.3997, 9443.165
631.8818, 9470.017
632.3640, 9523.924
632.8461, 9646.868
633.3282, 9778.607
633.8103, 9880.752
634.2924, 9945.913
634.7745, 9994.976
635.2567, 10012.24
635.7388, 10032.47
636.2209, 10118.06
636.7030, 10272.33
637.1851, 10414.58
637.6672, 10522.33
638.1494, 10607.21
638.6315, 10675.23
639.1136, 10733.68
639.5957, 10814.70
640.0778, 10957.38
640.5599, 11120.04
641.0421, 11261.38
641.5242, 11378.92
642.0063, 11496.20
642.4884, 11625.66
642.9705, 11757.60
643.4526, 11887.42
643.9348, 12003.43
644.4169, 12133.40
644.8990, 12285.63
645.3811, 12445.44
645.8632, 12587.63
646.3453, 12711.49
646.8275, 12824.89
647.3096, 12921.86
647.7917, 13016.94
648.2738, 13153.97
648.7559, 13329.15
649.2380, 13506.73
649.7202, 13655.36
650.2023, 13796.36
650.6844, 13961.55
651.1665, 14152.63
651.6486, 14344.59
652.1307, 14524.53
652.6129, 14700.33
653.0950, 14879.35
653.5771, 15064.28
654.0592, 15250.28
654.5413, 15437.35
655.0234, 15622.21
655.5056, 15796.04
655.9877, 15945.43
656.4698, 16118.78
656.9519, 16334.37
657.4340, 16577.20
657.9161, 16804.32
658.3983, 17016.57
658.8804, 17218.75
659.3624, 17409.08
659.8445, 17594.86
660.3267, 17790.43
660.8088, 17995.96
661.2909, 18203.80
661.7730, 18396.82
662.2551, 18596.20
662.7372, 18825.32
663.2194, 19098.22
663.7015, 19376.00
664.1836, 19658.35
664.6657, 19936.37
665.1478, 20200.02
665.6299, 20445.12
666.1121, 20681.17
666.5942, 20901.94
667.0763, 21119.97
667.5584, 21382.64
668.0405, 21692.82
668.5226, 21999.04
669.0048, 22275.22
669.4869, 22534.21
669.9690, 22786.99
670.4511, 23038.09
670.9332, 23312.79
671.4153, 23646.86
671.8975, 24002.03
672.3796, 24348.56
672.8617, 24683.75
673.3438, 25010.13
673.8259, 25314.91
674.3080, 25619.58
674.7902, 25939.98
675.2723, 26278.25
675.7544, 26633.60
676.2365, 27007.39
676.7186, 27394.30
677.2007, 27773.15
677.6829, 28145.34
678.1650, 28526.70
678.6471, 28922.04
679.1292, 29330.79
679.6113, 29747.42
680.0934, 30172.92
680.5756, 30589.29
681.0577, 30980.10
681.5398, 31364.49
682.0219, 31767.26
682.5040, 32188.69
682.9861, 32627.71
683.4683, 33097.45
683.9504, 33578.99
684.4325, 34066.10
684.9146, 34563.41
685.3967, 35050.66
685.8788, 35530.76
686.3610, 36008.11
686.8431, 36486.18
687.3252, 36967.94
687.8073, 37462.34
688.2894, 37967.75
688.7715, 38492.98
689.2537, 39052.22
689.7358, 39634.99
690.2179, 40192.93
690.7000, 40692.95
691.1821, 41171.86
691.6642, 41654.54
692.1464, 42142.30
692.6285, 42640.72
693.1106, 43164.05
693.5927, 43682.86
694.0748, 44179.89
694.5569, 44656.62
695.0391, 45110.87
695.5212, 45551.30
696.0033, 45957.52
696.4854, 46298.52
696.9675, 46575.51
697.4496, 46868.04
697.9318, 47188.92
698.4139, 47519.11
698.8960, 47856.55
699.3781, 48183.46
699.8602, 48457.44
700.3423, 48652.65
700.8245, 48802.03
701.3066, 48926.09
701.7887, 49021.70
702.2708, 49081.52
702.7529, 49076.76
703.2350, 49063.64
703.7172, 49076.75
704.1993, 49108.98
704.6814, 49051.99
705.1635, 48882.74
705.6456, 48687.39
706.1277, 48527.13
706.6099, 48393.65
707.0920, 48182.84
707.5741, 47889.07
708.0562, 47573.69
708.5383, 47309.79
709.0204, 47061.00
709.5026, 46775.71
709.9847, 46442.46
710.4668, 46082.56
710.9489, 45696.34
711.4310, 45294.06
711.9131, 44881.72
712.3953, 44457.45
712.8774, 44032.90
713.3595, 43616.53
713.8416, 43193.65
714.3237, 42730.30
714.8058, 42214.46
715.2880, 41707.48
715.7701, 41233.15
716.2522, 40775.04
716.7343, 40279.34
717.2164, 39752.97
717.6985, 39225.57
718.1807, 38714.81
718.6628, 38218.44
719.1449, 37744.26
719.6270, 37286.95
720.1091, 36841.96
720.5912, 36433.14
721.0734, 36011.57
721.5555, 35543.18
722.0376, 35003.57
722.5197, 34490.55
723.0018, 34006.21
723.4839, 33552.38
723.9661, 33132.74
724.4482, 32751.39
724.9303, 32365.36
725.4124, 31963.47
725.8945, 31555.82
726.3766, 31153.20
726.8588, 30754.92
727.3409, 30351.30
727.8230, 29943.37
728.3051, 29534.01
728.7872, 29114.25
729.2693, 28693.43
729.7515, 28301.44
730.2336, 27958.52
730.7157, 27624.02
731.1978, 27290.01
731.6799, 26958.62
732.1620, 26618.41
732.6442, 26265.63
733.1263, 25923.33
733.6084, 25613.05
734.0905, 25324.87
734.5726, 25018.93
735.0547, 24693.27
735.5369, 24383.34
736.0190, 24131.00
736.5011, 23896.11
736.9832, 23635.89
737.4653, 23334.66
737.9474, 23036.24
738.4296, 22746.21
738.9117, 22467.18
739.3938, 22204.24
739.8759, 21956.11
740.3580, 21722.62
740.8401, 21506.33
741.3223, 21297.73
741.8044, 21081.36
742.2865, 20857.72
742.7686, 20631.32
743.2507, 20404.46
743.7328, 20182.16
744.2150, 19974.64
744.6971, 19778.04
745.1792, 19585.71
745.6613, 19397.60
746.1434, 19207.40
746.6255, 19005.87
747.1077, 18797.53
747.5898, 18614.57
748.0719, 18476.01
748.5540, 18337.86
749.0361, 18185.42
749.5182, 18019.91
750.0003, 17828.64
750.4824, 17608.87
750.9645, 17404.80
751.4467, 17274.51
751.9288, 17180.25
752.4109, 17040.24
752.8930, 16843.88
753.3751, 16660.03
753.8572, 16551.13
754.3394, 16466.18
754.8215, 16362.32
755.3036, 16227.20
755.7857, 16079.83
756.2678, 15904.22
756.7499, 15732.98
757.2321, 15613.39
757.7142, 15556.81
758.1963, 15478.30
758.6784, 15363.23
759.1605, 15230.25
759.6426, 15104.26
760.1248, 14986.81
760.6069, 14881.02
761.0890, 14802.15
761.5711, 14720.84
762.0532, 14609.32
762.5353, 14478.28
763.0175, 14355.81
763.4996, 14242.41
763.9817, 14146.52
764.4638, 14073.68
764.9459, 14019.80
765.4280, 13968.78
765.9102, 13924.81
766.3923, 13865.21
766.8744, 13769.37
767.3565, 13649.75
767.8386, 13541.50
768.3207, 13444.71
768.8029, 13372.82
769.2850, 13375.13
769.7671, 13381.08
770.2492, 13315.47
770.7313, 13162.04
771.2134, 13021.93
771.6956, 12919.83
772.1777, 12842.15
772.6598, 12783.88
773.1419, 12756.08
773.6240, 12709.64
774.1061, 12640.55
774.5883, 12563.71
775.0704, 12492.61
775.5525, 12426.45
776.0346, 12364.35
776.5167, 12308.81
776.9988, 12246.46
777.4810, 12154.44
777.9631, 12051.63
778.4452, 11961.39
778.9273, 11894.70
779.4094, 11836.17
779.8915, 11785.76
780.3737, 11740.94
780.8558, 11700.20
781.3379, 11670.50
781.8200, 11619.84
782.3021, 11532.88
782.7842, 11431.97
783.2664, 11374.80
783.7485, 11353.45
784.2306, 11321.38
784.7127, 11253.17
785.1948, 11167.68
785.6769, 11067.87
786.1591, 10961.49
786.6412, 10873.95
787.1233, 10832.79
787.6054, 10792.47
788.0875, 10738.19
788.5696, 10670.80
789.0518, 10590.31
789.5339, 10492.07
790.0160, 10400.65
790.4981, 10331.95
790.9802, 10281.72
791.4623, 10243.93
791.9445, 10217.06
792.4266, 10173.15
792.9087, 10066.46
793.3908, 9950.402
793.8729, 9884.649
794.3550, 9884.496
794.8372, 9858.285
795.3193, 9751.909
795.8014, 9638.938
796.2835, 9565.044
796.7656, 9541.921
797.2477, 9508.837
797.7299, 9463.682
798.2120, 9414.045
798.6941, 9371.030
799.1762, 9329.908
799.6583, 9271.428
800.1404, 9187.898
800.6226, 9109.422
801.1047, 9061.041
801.5868, 9028.796
802.0689, 8996.924
802.5510, 8971.019
803.0331, 8930.856
803.5153, 8862.989
803.9974, 8788.842
804.4795, 8741.395
804.9616, 8726.273
805.4437, 8691.980
805.9258, 8623.683
806.4080, 8546.561
806.8901, 8493.654
807.3722, 8463.346
807.8543, 8452.223
808.3364, 8474.697
808.8185, 8496.496
809.3007, 8366.106
809.7828, 8434.425
810.2649, 8460.151
810.7470, 8445.579
811.2291, 8270.010
811.7112, 8302.338
812.1934, 8251.341
812.6755, 8196.938
813.1576, 8258.523
813.6397, 8106.369
814.1218, 8166.114
814.6039, 8141.277
815.0861, 8155.141
815.5682, 8034.188
816.0503, 7950.811
816.5324, 7935.567
817.0145, 7940.391
817.4966, 7955.619
817.9788, 7976.559
818.4609, 7965.724
818.9430, 7914.682
819.4251, 7848.498
819.9072, 7771.517
820.3893, 7688.549
820.8715, 7628.827
821.3536, 7591.170
821.8357, 7546.486
822.3178, 7452.462
822.7999, 7355.420
823.2820, 7313.050
823.7642, 7326.228
824.2463, 7329.893
824.7284, 7284.292
825.2105, 7239.120
825.6926, 7221.075
826.1747, 7233.482
826.6569, 7235.739
827.1390, 7227.234
827.6211, 7209.559
828.1032, 7177.753
828.5853, 7137.817
829.0674, 7106.506
829.5496, 7084.889
830.0317, 7073.947
830.5138, 7082.727
830.9959, 7097.347
831.4780, 7108.287
831.9601, 7116.819
832.4423, 7110.208
832.9244, 7080.815
833.4065, 7045.356
833.8886, 7014.313
834.3707, 6987.688
834.8528, 6972.055
835.3350, 6970.716
835.8171, 6964.565
836.2992, 6927.964
836.7813, 6875.907
837.2634, 6830.808
837.7455, 6796.236
838.2277, 6771.955
838.7097, 6761.909
839.1918, 6760.018
839.6740, 6761.594
840.1561, 6771.484
840.6382, 6771.745
841.1203, 6758.406
841.6024, 6742.418
842.0845, 6736.459
842.5667, 6739.138
843.0488, 6742.450
843.5309, 6745.007
844.0130, 6748.048
844.4951, 6752.058
844.9772, 6757.474
845.4594, 6764.892
845.9415, 6774.185
846.4236, 6786.165
846.9057, 6801.075
847.3878, 6818.682
847.8699, 6839.920
848.3521, 6865.855
848.8342, 6887.188
849.3163, 6901.040
849.7984, 6915.191
850.2805, 6940.429
850.7626, 6973.946
851.2448, 7008.834
851.7269, 7037.078
852.2090, 7077.008
852.6911, 7145.394
853.1732, 7228.294
853.6553, 7303.664
854.1375, 7361.884
854.6196, 7431.416
855.1017, 7518.742
855.5838, 7611.569
856.0659, 7683.555
856.5480, 7739.358
857.0302, 7812.445
857.5123, 7914.908
857.9944, 8029.269
858.4765, 8124.124
858.9586, 8224.462
859.4407, 8372.468
859.9229, 8627.649
860.4050, 8869.567
860.8871, 9095.835
861.3692, 9293.037
861.8513, 9423.903
862.3334, 9478.467
862.8156, 9572.830
863.2977, 9734.808
863.7798, 9942.619
864.2619, 10179.57
864.7440, 10439.21
865.2261, 10710.29
865.7083, 11021.64
866.1904, 11301.22
866.6725, 11491.40
867.1546, 11641.15
867.6367, 11847.80
868.1188, 12136.86
868.6010, 12424.64
869.0831, 12700.09
869.5652, 12964.93
870.0473, 13225.85
870.5294, 13485.08
871.0115, 13758.20
871.4937, 14067.41
871.9758, 14364.91
872.4579, 14603.68
872.9400, 14804.41
873.4221, 15008.17
873.9042, 15224.45
874.3864, 15445.42
874.8685, 15685.10
875.3506, 15916.76
875.8327, 16074.03
876.3148, 16158.99
876.7969, 16249.78
877.2791, 16382.95
877.7612, 16499.17
878.2433, 16517.40
878.7254, 16470.23
879.2075, 16417.34
879.6896, 16384.98
880.1718, 16341.87
880.6539, 16302.18
881.1360, 16238.40
881.6181, 16097.74
882.1002, 15868.18
882.5823, 15628.19
883.0645, 15394.51
883.5466, 15158.97
884.0287, 14922.33
884.5108, 14676.76
884.9929, 14403.87
885.4750, 14069.22
885.9572, 13746.40
886.4393, 13484.13
886.9214, 13252.72
887.4035, 13003.31
887.8856, 12722.32
888.3677, 12450.58
888.8499, 12188.70
889.3320, 11937.57
889.8141, 11700.48
890.2962, 11477.34
890.7783, 11271.51
891.2604, 11086.88
891.7426, 10916.86
892.2247, 10757.96
892.7068, 10609.07
893.1889, 10466.36
893.6710, 10326.78
894.1531, 10194.76
894.6353, 10061.52
895.1174, 9945.111
895.5995, 9877.213
896.0816, 9853.909
896.5637, 9825.507
897.0458, 9781.904
897.5280, 9734.671
898.0101, 9683.132
898.4922, 9640.226
898.9743, 9625.373
899.4564, 9666.738
899.9385, 9696.532
900.4207, 9698.684
900.9028, 9694.910
901.3849, 9711.704
901.8670, 9750.948
902.3491, 9775.656
902.8312, 9780.244
903.3134, 9777.110
903.7955, 9773.664
904.2776, 9773.333
904.7597, 9783.222
905.2418, 9810.771
905.7239, 9830.854
906.2061, 9819.737
906.6882, 9809.981
907.1703, 9833.781
907.6524, 9905.030
908.1345, 9934.563
908.6166, 9914.677
909.0988, 9878.379
909.5809, 9853.623
910.0630, 9837.171
910.5451, 9823.970
911.0272, 9813.119
911.5093, 9848.146
911.9915, 9815.562
912.4736, 9781.762
912.9557, 9746.907
913.4378, 9701.456
913.9199, 9674.584
914.4020, 9643.263
914.8842, 9613.798
915.3663, 9595.653
915.8484, 9562.739
916.3305, 9548.720
916.8126, 9530.147
917.2947, 9516.775
917.7769, 9498.905
918.2590, 9485.225
918.7411, 9480.312
919.2232, 9473.863
919.7053, 9463.780
920.1874, 9463.423
920.6696, 9351.197
921.1517, 9306.012
921.6338, 9269.676
922.1159, 9241.557
922.5980, 9219.556
923.0801, 9188.189
923.5623, 9123.315
924.0444, 9058.756
924.5265, 9016.746
925.0086, 8997.638
925.4907, 8978.349
925.9728, 8963.764
926.4550, 8935.881
926.9371, 8881.293
927.4192, 8811.518
927.9013, 8766.065
928.3834, 8741.342
928.8655, 8714.713
929.3476, 8667.071
929.8297, 8620.756
930.3118, 8598.619
930.7939, 8591.659
931.2761, 8558.892
931.7582, 8476.298
932.2403, 8414.569
932.7224, 8397.673
933.2045, 8404.824
933.6866, 8383.933
934.1688, 8340.788
934.6509, 8305.754
935.1330, 8301.048
935.6151, 8294.058
936.0972, 8254.865
936.5793, 8197.935
937.0615, 8152.412
937.5436, 8126.043
938.0257, 8102.699
938.5078, 8080.943
938.9899, 8061.308
939.4720, 8046.355
939.9542, 8034.699
940.4363, 8020.030
940.9184, 8000.794
941.4005, 7979.244
941.8826, 7953.069
942.3647, 7927.854
942.8469, 7910.912
943.3290, 7920.934
943.8111, 7906.361
944.2932, 7856.724
944.7753, 7799.494
945.2574, 7763.276
945.7396, 7744.171
946.2217, 7724.284
946.7038, 7702.737
947.1859, 7668.721
947.6680, 7592.990
948.1501, 7514.731
948.6323, 7472.123
949.1144, 7483.766
949.5965, 7473.360
950.0786, 7434.485
950.5607, 7383.519
951.0428, 7326.110
951.5250, 7264.502
952.0071, 7216.512
952.4892, 7181.278
952.9713, 7136.461
953.4534, 7053.465
953.9355, 6966.713
954.4177, 6904.497
954.8998, 6867.066
955.3819, 6816.507
955.8640, 6745.016
956.3461, 6675.378
956.8282, 6616.781
957.3104, 6565.953
957.7925, 6520.255
958.2746, 6475.966
958.7567, 6414.847
959.2388, 6306.764
959.7209, 6199.435
960.2031, 6120.249
960.6852, 6062.819
961.1673, 6007.822
961.6494, 5960.225
962.1315, 5900.974
962.6136, 5824.896
963.0958, 5738.662
963.5779, 5647.442
964.0600, 5557.251
964.5421, 5487.960
965.0242, 5457.735
965.5063, 5426.378
965.9885, 5361.186
966.4706, 5286.600
966.9527, 5236.467
967.4348, 5228.811
967.9169, 5196.222
968.3990, 5130.090
968.8812, 5055.624
969.3633, 4998.397
969.8454, 4954.230
970.3275, 4912.406
970.8096, 4872.352
971.2917, 4833.445
971.7739, 4795.466
972.2560, 4759.278
972.7381, 4725.026
973.2202, 4692.848
973.7023, 4662.096
974.1844, 4631.818
974.6666, 4605.934
975.1487, 4590.507
975.6308, 4579.483
976.1129, 4560.854
976.5950, 4535.423
977.0771, 4510.753
977.5593, 4489.320
978.0414, 4470.317
978.5235, 4452.734
979.0056, 4437.354
979.4877, 4429.505
979.9698, 4429.867
980.4520, 4430.250
980.9341, 4429.769
981.4162, 4424.717
981.8983, 4398.588
982.3804, 4365.051
982.8625, 4353.784
983.3447, 4407.614
983.8268, 4441.776
984.3089, 4435.020
984.7910, 4408.052
985.2731, 4389.419
985.7552, 4379.021
986.2374, 4369.533
986.7195, 4359.483
987.2016, 4351.108
987.6837, 4348.818
988.1658, 4348.458
988.6479, 4344.342
989.1301, 4331.521
989.6122, 4326.328
990.0943, 4329.419
990.5764, 4340.361
991.0585, 4366.384
991.5406, 4402.988
992.0228, 4409.579
992.5049, 4386.402
992.9870, 4366.073
993.4691, 4375.396
993.9512, 4392.835
994.4333, 4406.295
994.9155, 4414.275
995.3976, 4410.244
995.8797, 4386.147
996.3618, 4369.832
996.8439, 4372.725
997.3260, 4389.076
997.8082, 4410.341
998.2903, 4433.637
998.7724, 4449.623
999.2545, 4441.015
999.7366, 4438.234
1000.219, 4462.641
1000.701, 4498.754
1001.183, 4518.872
1001.665, 4518.529
1002.147, 4522.222
1002.629, 4535.219
1003.111, 4546.619
1003.594, 4533.341
1004.076, 4511.617
1004.558, 4511.874
1005.040, 4546.864
1005.522, 4577.361
1006.004, 4588.092
1006.486, 4592.454
1006.968, 4597.652
1007.451, 4603.736
1007.933, 4608.413
1008.415, 4611.557
1008.897, 4615.101
1009.379, 4620.387
1009.861, 4626.797
1010.343, 4635.143
1010.825, 4644.735
1011.307, 4649.669
1011.790, 4642.120
1012.272, 4641.196
1012.754, 4654.545
1013.236, 4675.852
1013.718, 4690.041
1014.200, 4697.237
1014.682, 4698.068
1015.164, 4688.733
1015.646, 4679.152
1016.129, 4671.592
1016.611, 4669.158
1017.093, 4677.813
1017.575, 4704.461
1018.057, 4721.677
1018.539, 4726.803
1019.021, 4725.154
1019.503, 4719.839
1019.985, 4713.035
1020.468, 4708.948
1020.950, 4708.257
1021.432, 4709.050
1021.914, 4708.246
1022.396, 4711.358
1022.878, 4723.873
1023.360, 4744.987
1023.842, 4751.739
1024.325, 4743.697
1024.807, 4737.617
1025.289, 4746.670
1025.771, 4760.313
1026.253, 4768.624
1026.735, 4772.219
1027.217, 4773.599
1027.699, 4766.946
1028.182, 4767.748
1028.664, 4778.810
1029.146, 4797.955
1029.628, 4826.729
1030.110, 4861.077
1030.592, 4880.517
1031.074, 4875.508
1031.556, 4871.010
1032.038, 4880.444
1032.521, 4899.807
1033.003, 4927.721
1033.485, 4969.823
1033.967, 4995.469
1034.449, 5002.485
1034.931, 5003.332
1035.413, 5000.023
1035.895, 5000.761
1036.377, 5026.067
1036.860, 5072.665
1037.342, 5109.124
1037.824, 5105.817
1038.306, 5110.157
1038.788, 5139.245
1039.270, 5185.194
1039.752, 5222.137
1040.234, 5250.537
1040.717, 5280.228
1041.199, 5318.966
1041.681, 5351.123
1042.163, 5350.607
1042.645, 5339.571
1043.127, 5351.479
1043.609, 5409.780
1044.091, 5450.447
1044.573, 5468.161
1045.056, 5480.054
1045.538, 5502.213
1046.020, 5532.162
1046.502, 5566.203
1046.984, 5603.869
1047.466, 5639.007
1047.948, 5666.486
1048.430, 5693.186
1048.912, 5727.546
1049.395, 5765.468
1049.877, 5773.024
1050.359, 5749.442
1050.841, 5730.136
1051.323, 5737.336
1051.805, 5747.296
1052.287, 5729.261
1052.769, 5696.501
1053.252, 5674.537
1053.734, 5674.455
1054.216, 5678.967
1054.698, 5695.909
1055.180, 5701.129
1055.662, 5649.397
1056.144, 5562.166
1056.626, 5513.051
1057.109, 5512.708
1057.591, 5512.414
1058.073, 5476.521
1058.555, 5439.980
1059.037, 5430.347
1059.519, 5444.849
1060.001, 5428.012
1060.483, 5377.984
1060.965, 5326.558
1061.448, 5287.105
1061.930, 5257.247
1062.412, 5239.088
1062.894, 5227.483
1063.376, 5210.173
1063.858, 5183.206
1064.340, 5150.845
1064.822, 5108.885
1065.304, 5069.048
1065.786, 5051.518
1066.269, 5049.093
1066.751, 5035.962
1067.233, 5007.076
1067.715, 4978.448
1068.197, 4964.033
1068.679, 4948.609
1069.161, 4920.674
1069.643, 4880.353
1070.126, 4844.587
1070.608, 4812.408
1071.090, 4793.919
1071.572, 4808.770
1072.054, 4827.513
1072.536, 4810.947
1073.018, 4772.874
1073.500, 4747.314
1073.983, 4756.870
1074.465, 4753.751
1074.947, 4728.429
1075.429, 4697.686
1075.911, 4686.489
1076.393, 4687.831
1076.875, 4677.553
1077.357, 4649.637
1077.839, 4631.885
1078.322, 4656.953
1078.804, 4679.844
1079.286, 4669.295
1079.768, 4628.002
1080.250, 4609.626
1080.732, 4614.382
1081.214, 4618.480
1081.696, 4604.909
1082.178, 4588.696
1082.661, 4583.299
1083.143, 4585.947
1083.625, 4589.602
1084.107, 4584.913
1084.589, 4601.097
1085.071, 4648.425
1085.553, 4699.505
1086.035, 4707.114
1086.518, 4695.558
1087.000, 4730.905
1087.482, 4827.938
1087.964, 4889.259
1088.446, 4823.594
1088.928, 4763.296
1089.410, 4780.435
1089.892, 4858.519
1090.375, 4895.076
1090.857, 4892.872
1091.339, 4884.999
1091.821, 4878.202
1092.303, 4882.189
1092.785, 4912.848
1093.267, 4956.819
1093.749, 4988.804
1094.231, 5004.899
1094.714, 5016.854
1095.196, 5023.668
1095.678, 5033.606
1096.160, 5057.301
1096.642, 5089.034
1097.124, 5120.153
1097.606, 5149.863
1098.088, 5183.029
1098.570, 5224.295
1099.053, 5263.764
1099.535, 5297.638
1100.017, 5327.479
1100.499, 5356.094
1100.981, 5385.282
1101.463, 5423.544
1101.945, 5481.661
1102.427, 5538.634
1102.910, 5588.810
1103.392, 5628.793
1103.874, 5649.794
1104.356, 5646.412
1104.838, 5669.617
1105.320, 5722.676
1105.802, 5786.289
1106.284, 5858.283
1106.766, 5923.395
1107.249, 5962.386
1107.731, 5976.765
1108.213, 6000.302
1108.695, 6031.528
1109.177, 6082.368
1109.659, 6165.123
1110.141, 6254.356
1110.623, 6312.935
1111.105, 6343.917
1111.588, 6350.282
1112.070, 6313.443
1112.552, 6300.585
1113.034, 6341.535
1113.516, 6392.741
1113.998, 6426.463
1114.480, 6443.908
1114.962, 6456.638
1115.445, 6464.793
1115.927, 6469.820
1116.409, 6463.379
1116.891, 6463.171
1117.373, 6480.799
1117.855, 6511.506
1118.337, 6550.852
1118.819, 6603.158
1119.302, 6619.207
1119.784, 6582.719
1120.266, 6536.138
1120.748, 6528.154
1121.230, 6532.187
1121.712, 6515.922
1122.194, 6467.284
1122.676, 6440.717
1123.158, 6446.929
1123.641, 6446.450
1124.123, 6414.992
1124.605, 6366.215
1125.087, 6329.231
1125.569, 6298.528
1126.051, 6258.324
1126.533, 6179.159
1127.015, 6125.306
1127.497, 6119.740
1127.980, 6122.074
1128.462, 6074.656
1128.944, 5990.774
1129.426, 5940.717
1129.908, 5931.864
1130.390, 5916.464
1130.872, 5865.044
1131.354, 5798.524
1131.837, 5718.970
1132.319, 5634.550
1132.801, 5589.804
1133.283, 5584.556
1133.765, 5573.569
1134.247, 5540.043
1134.729, 5498.385
1135.211, 5462.434
1135.693, 5425.876
1136.176, 5378.703
1136.658, 5311.270
1137.140, 5267.385
1137.622, 5251.890
1138.104, 5237.721
1138.586, 5205.216
1139.068, 5161.529
1139.550, 5110.949
1140.032, 5056.958
1140.515, 5015.626
1140.997, 5003.910
1141.479, 4981.153
1141.961, 4937.969
1142.443, 4886.873
1142.925, 4843.188
1143.407, 4806.827
1143.889, 4780.866
1144.372, 4767.378
1144.854, 4750.768
1145.336, 4717.076
1145.818, 4688.243
1146.300, 4678.463
1146.782, 4681.271
1147.264, 4658.640
1147.746, 4616.301
1148.229, 4587.711
1148.711, 4595.898
1149.193, 4611.063
1149.675, 4629.141
1150.157, 4639.299
1150.639, 4625.789
1151.121, 4585.621
1151.603, 4555.723
1152.085, 4537.412
1152.568, 4526.674
1153.050, 4522.473
1153.532, 4522.241
1154.014, 4530.771
1154.496, 4542.887
1154.978, 4529.865
1155.460, 4484.172
1155.942, 4447.499
1156.424, 4429.792
1156.906, 4424.135
1157.389, 4432.386
1157.871, 4442.632
1158.353, 4436.446
1158.835, 4403.605
1159.317, 4388.676
1159.799, 4402.294
1160.281, 4409.412
1160.763, 4382.896
1161.246, 4343.127
1161.728, 4338.741
1162.210, 4357.268
1162.692, 4365.871
1163.174, 4344.798
1163.656, 4323.312
1164.138, 4301.949
1164.620, 4285.808
1165.103, 4283.332
1165.585, 4290.227
1166.067, 4291.253
1166.549, 4285.730
1167.031, 4281.977
1167.513, 4288.125
1167.995, 4292.105
1168.477, 4291.076
1168.959, 4284.183
1169.442, 4262.183
1169.924, 4229.655
1170.406, 4220.080
1170.888, 4248.369
1171.370, 4274.303
1171.852, 4243.906
1172.334, 4177.315
1172.816, 4231.167
1173.298, 4268.987
1173.781, 4291.430
1174.263, 4266.198
1174.745, 4291.792
1175.227, 4290.489
1175.709, 4283.613
1176.191, 4303.032
1176.673, 4260.750
1177.155, 4270.355
1177.638, 4252.688
1178.120, 4240.720
1178.602, 4201.717
1179.084, 4233.422
1179.566, 4241.219
1180.048, 4253.667
1180.530, 4283.912
1181.012, 4325.395
1181.495, 4332.550
1181.977, 4295.355
1182.459, 4255.068
1182.941, 4217.218
1183.423, 4189.916
1183.905, 4189.242
1184.387, 4202.650
1184.869, 4214.793
1185.351, 4224.000
1185.833, 4224.232
1186.316, 4212.908
1186.798, 4199.670
1187.280, 4186.720
1187.762, 4176.979
1188.244, 4175.662
1188.726, 4181.990
1189.208, 4194.235
1189.690, 4229.819
1190.173, 4239.621
1190.655, 4207.504
1191.137, 4177.188
1191.619, 4201.495
1192.101, 4254.463
1192.583, 4266.920
1193.065, 4241.695
1193.547, 4212.088
1194.030, 4178.621
1194.512, 4161.493
1194.994, 4170.469
1195.476, 4189.582
1195.958, 4191.334
1196.440, 4181.305
1196.922, 4178.773
1197.404, 4187.906
1197.886, 4190.287
1198.369, 4161.632
1198.851, 4143.861
1199.333, 4162.456
1199.815, 4200.760
1200.297, 4193.601
1200.779, 4152.276
1201.261, 4126.230
1201.743, 4137.827
1202.225, 4153.976
1202.708, 4163.405
1203.190, 4168.253
1203.672, 4168.440
1204.154, 4164.539
1204.636, 4168.931
1205.118, 4179.550
1205.600, 4178.776
1206.082, 4133.459
1206.565, 4100.584
1207.047, 4123.695
1207.529, 4166.002
1208.011, 4180.123
1208.493, 4167.001
1208.975, 4156.130
1209.457, 4149.788
1209.939, 4146.667
1210.422, 4145.148
1210.904, 4147.146
1211.386, 4155.110
1211.868, 4167.231
1212.350, 4181.919
1212.832, 4198.771
1213.314, 4200.519
1213.796, 4179.167
1214.278, 4159.810
1214.760, 4166.820
1215.243, 4181.125
1215.725, 4186.334
1216.207, 4182.786
1216.689, 4182.219
1217.171, 4184.648
1217.653, 4186.120
1218.135, 4182.825
1218.617, 4181.365
1219.100, 4192.574
1219.582, 4205.342
1220.064, 4204.554
1220.546, 4186.450
1221.028, 4174.995
1221.510, 4170.217
1221.992, 4171.875
1222.474, 4188.741
1222.957, 4203.408
1223.439, 4200.243
1223.921, 4184.776
1224.403, 4171.305
1224.885, 4159.821
1225.367, 4152.149
1225.849, 4149.033
1226.331, 4145.250
1226.813, 4131.658
1227.296, 4119.075
1227.778, 4119.510
1228.260, 4130.774
1228.742, 4134.920
1229.224, 4131.229
1229.706, 4124.109
1230.188, 4112.428
1230.670, 4105.519
1231.152, 4112.077
1231.635, 4128.806
1232.117, 4158.489
1232.599, 4201.693
1233.081, 4217.628
1233.563, 4204.267
1234.045, 4184.984
1234.527, 4167.252
1235.009, 4151.720
1235.492, 4131.930
1235.974, 4118.371
1236.456, 4131.323
1236.938, 4181.492
1237.420, 4200.899
1237.902, 4187.047
1238.384, 4169.410
1238.866, 4170.637
1239.349, 4174.305
1239.831, 4157.232
1240.313, 4133.716
1240.795, 4139.733
1241.277, 4188.427
1241.759, 4199.043
1242.241, 4161.480
1242.723, 4125.591
1243.205, 4143.453
1243.688, 4175.433
1244.170, 4189.102
1244.652, 4185.389
1245.134, 4177.506
1245.616, 4163.448
1246.098, 4161.571
1246.580, 4177.679
1247.062, 4194.420
1247.544, 4196.198
1248.026, 4190.014
1248.509, 4180.041
1248.991, 4167.248
1249.473, 4154.756
1249.955, 4141.274
1250.437, 4148.898
1250.919, 4196.245
1251.401, 4237.929
1251.883, 4218.843
1252.366, 4181.262
1252.848, 4175.875
1253.330, 4206.904
1253.812, 4206.266
1254.294, 4173.023
1254.776, 4156.813
1255.258, 4201.028
1255.740, 4247.703
1256.223, 4253.425
1256.705, 4234.090
1257.187, 4210.586
1257.669, 4181.128
1258.151, 4164.726
1258.633, 4161.832
1259.115, 4164.980
1259.597, 4174.996
1260.079, 4183.481
1260.562, 4185.865
1261.044, 4182.438
1261.526, 4170.229
1262.008, 4148.944
1262.490, 4147.269
1262.972, 4168.350
1263.454, 4188.654
1263.936, 4193.973
1264.418, 4190.694
1264.901, 4174.183
1265.383, 4155.110
1265.865, 4163.109
1266.347, 4194.855
1266.829, 4213.221
1267.311, 4210.521
1267.793, 4200.269
1268.275, 4181.702
1268.758, 4168.222
1269.240, 4168.515
1269.722, 4178.915
##END=



