##NAMES=Nepheline
##RRUFFID=R090059
##IDEAL CHEMISTRY=Na_3_K(Al_4_Si_4_O_16_)
##LOCALITY=Lajuar Madan, Sar-e-Sang District, Badakhshan, Afghanistan
##OWNER=RRUFF
##SOURCE=Dudley Blauwet
##DESCRIPTION=Colorless blocky crystals coated with colorless sodalite with electric blue inclusions, on a marble matrix
##STATUS=The identification of this mineral has been confirmed only by single crystal X-ray diffraction.
##URL=rruff.info/R090059
92.07813, 40.00738
92.56024, 40.17642
93.04236, 40.00788
93.52448, 39.60703
94.00659, 39.36311
94.48871, 39.75047
94.97083, 40.47314
95.45294, 40.68040
95.93506, 40.15184
96.41718, 39.32275
96.89929, 38.90037
97.38141, 38.89075
97.86353, 39.10665
98.34564, 39.72628
98.82776, 40.69120
99.30988, 40.77654
99.79199, 39.41251
100.2741, 37.15350
100.7562, 36.31106
101.2383, 37.32930
101.7205, 38.52750
102.2026, 38.09187
102.6847, 35.38214
103.1668, 33.53670
103.6489, 33.33929
104.1310, 34.82436
104.6132, 36.51625
105.0953, 38.80364
105.5774, 40.91479
106.0595, 41.84632
106.5416, 41.21993
107.0237, 39.97585
107.5059, 37.98084
107.9880, 34.38403
108.4701, 32.78313
108.9522, 34.67469
109.4343, 38.26933
109.9164, 40.35248
110.3986, 38.88675
110.8807, 37.58718
111.3628, 37.67963
111.8449, 40.67999
112.3270, 42.63829
112.8091, 42.51804
113.2913, 41.07556
113.7734, 40.44181
114.2555, 40.88396
114.7376, 42.26778
115.2197, 44.53926
115.7018, 48.63110
116.1840, 52.54753
116.6661, 55.49766
117.1482, 57.69248
117.6303, 60.21730
118.1124, 63.21495
118.5945, 66.87186
119.0767, 71.30985
119.5588, 76.96275
120.0409, 83.11749
120.5230, 89.52554
121.0051, 96.14735
121.4872, 102.8735
121.9694, 108.6755
122.4515, 114.6601
122.9336, 122.3967
123.4157, 133.2016
123.8978, 145.5837
124.3799, 158.1394
124.8621, 170.7740
125.3442, 184.1214
125.8263, 198.9058
126.3084, 214.8492
126.7905, 231.3425
127.2726, 248.3548
127.7548, 265.5252
128.2369, 282.2824
128.7190, 298.6676
129.2011, 314.3063
129.6832, 329.2064
130.1653, 343.0923
130.6474, 355.1451
131.1296, 363.3237
131.6117, 368.8952
132.0938, 376.7174
132.5759, 387.5838
133.0580, 400.5301
133.5401, 413.5216
134.0223, 426.5888
134.5044, 440.5540
134.9865, 455.6959
135.4686, 472.1916
135.9507, 490.6772
136.4328, 511.8124
136.9150, 535.0469
137.3971, 558.1869
137.8792, 581.3380
138.3613, 604.4724
138.8434, 628.1021
139.3255, 652.4980
139.8077, 674.8365
140.2898, 694.2189
140.7719, 710.8965
141.2540, 729.2948
141.7361, 750.4117
142.2182, 771.2676
142.7004, 788.7703
143.1825, 801.6495
143.6646, 813.9373
144.1467, 826.0626
144.6288, 838.1681
145.1109, 850.3707
145.5931, 862.6468
146.0752, 875.1208
146.5573, 888.0551
147.0394, 900.4553
147.5215, 914.6907
148.0036, 931.4496
148.4858, 951.8494
148.9679, 971.2931
149.4500, 988.6582
149.9321, 1005.486
150.4142, 1023.670
150.8963, 1043.096
151.3785, 1064.336
151.8606, 1087.406
152.3427, 1113.262
152.8248, 1139.573
153.3069, 1167.135
153.7890, 1195.138
154.2712, 1218.382
154.7533, 1232.649
155.2354, 1244.024
155.7175, 1252.379
156.1996, 1256.034
156.6817, 1259.640
157.1639, 1264.707
157.6460, 1270.185
158.1281, 1273.687
158.6102, 1272.802
159.0923, 1271.252
159.5744, 1271.216
160.0566, 1275.936
160.5387, 1277.621
161.0208, 1272.010
161.5029, 1261.412
161.9850, 1252.512
162.4671, 1248.493
162.9493, 1246.424
163.4314, 1244.400
163.9135, 1242.258
164.3956, 1239.749
164.8777, 1236.137
165.3598, 1231.815
165.8420, 1228.456
166.3241, 1227.272
166.8062, 1227.151
167.2883, 1227.089
167.7704, 1226.458
168.2525, 1226.094
168.7346, 1226.278
169.2168, 1227.031
169.6989, 1228.641
170.1810, 1232.833
170.6631, 1237.497
171.1452, 1240.085
171.6273, 1238.252
172.1095, 1235.196
172.5916, 1233.391
173.0737, 1232.770
173.5558, 1232.531
174.0379, 1232.152
174.5201, 1231.772
175.0022, 1231.596
175.4843, 1231.493
175.9664, 1231.743
176.4485, 1233.254
176.9306, 1235.997
177.4128, 1237.913
177.8949, 1235.307
178.3770, 1230.465
178.8591, 1228.431
179.3412, 1234.223
179.8233, 1243.031
180.3055, 1246.772
180.7876, 1245.275
181.2697, 1242.407
181.7518, 1240.973
182.2339, 1241.093
182.7160, 1243.138
183.1982, 1248.386
183.6803, 1255.524
184.1624, 1261.281
184.6445, 1265.385
185.1266, 1269.786
185.6087, 1276.890
186.0909, 1286.402
186.5730, 1296.362
187.0551, 1306.339
187.5372, 1316.154
188.0193, 1325.157
188.5014, 1333.033
188.9836, 1341.258
189.4657, 1352.317
189.9478, 1365.895
190.4299, 1379.817
190.9120, 1392.718
191.3941, 1404.831
191.8763, 1418.266
192.3584, 1433.429
192.8405, 1448.587
193.3226, 1460.848
193.8047, 1470.137
194.2868, 1480.829
194.7690, 1495.959
195.2511, 1515.082
195.7332, 1532.706
196.2153, 1548.404
196.6974, 1563.361
197.1795, 1579.207
197.6617, 1596.152
198.1438, 1612.534
198.6259, 1627.409
199.1080, 1640.739
199.5901, 1653.998
200.0722, 1666.921
200.5544, 1680.172
201.0365, 1695.524
201.5186, 1713.634
202.0007, 1730.090
202.4828, 1742.495
202.9649, 1750.599
203.4471, 1758.027
203.9292, 1765.056
204.4113, 1771.249
204.8934, 1776.071
205.3755, 1779.668
205.8576, 1781.081
206.3398, 1779.489
206.8219, 1774.520
207.3040, 1769.087
207.7861, 1763.547
208.2682, 1757.354
208.7503, 1749.564
209.2325, 1740.466
209.7146, 1729.222
210.1967, 1715.107
210.6788, 1697.589
211.1609, 1679.858
211.6430, 1661.948
212.1252, 1643.791
212.6073, 1625.368
213.0894, 1606.547
213.5715, 1588.026
214.0536, 1569.990
214.5357, 1552.117
215.0179, 1535.818
215.5000, 1521.377
215.9821, 1508.191
216.4642, 1494.773
216.9463, 1480.755
217.4284, 1467.491
217.9105, 1455.577
218.3927, 1445.578
218.8748, 1435.311
219.3569, 1424.295
219.8390, 1413.283
220.3211, 1403.915
220.8032, 1397.078
221.2854, 1390.146
221.7675, 1381.686
222.2496, 1370.958
222.7317, 1361.314
223.2138, 1353.192
223.6959, 1345.947
224.1781, 1337.976
224.6602, 1329.203
225.1423, 1319.903
225.6244, 1310.102
226.1065, 1298.834
226.5886, 1289.727
227.0708, 1284.134
227.5529, 1279.955
228.0350, 1272.491
228.5171, 1259.362
228.9992, 1246.800
229.4813, 1237.447
229.9635, 1232.780
230.4456, 1226.792
230.9277, 1219.103
231.4098, 1210.374
231.8919, 1201.645
232.3740, 1192.812
232.8562, 1184.276
233.3383, 1176.398
233.8204, 1169.788
234.3025, 1161.711
234.7846, 1151.135
235.2667, 1139.645
235.7489, 1130.401
236.2310, 1124.474
236.7131, 1119.105
237.1952, 1113.486
237.6773, 1107.909
238.1594, 1101.212
238.6416, 1092.494
239.1237, 1083.212
239.6058, 1075.763
240.0879, 1070.684
240.5700, 1066.465
241.0521, 1062.838
241.5343, 1060.122
242.0164, 1056.648
242.4985, 1051.953
242.9806, 1046.793
243.4627, 1042.218
243.9448, 1038.134
244.4270, 1034.748
244.9091, 1032.147
245.3912, 1030.373
245.8733, 1029.070
246.3554, 1028.478
246.8375, 1028.124
247.3197, 1027.395
247.8018, 1026.193
248.2839, 1024.759
248.7660, 1022.936
249.2481, 1020.545
249.7302, 1019.333
250.2124, 1019.966
250.6945, 1021.181
251.1766, 1021.314
251.6587, 1019.107
252.1408, 1018.363
252.6229, 1020.382
253.1051, 1025.439
253.5872, 1029.508
254.0693, 1032.257
254.5514, 1034.486
255.0335, 1036.907
255.5156, 1039.231
255.9978, 1042.311
256.4799, 1046.358
256.9620, 1051.379
257.4441, 1056.944
257.9262, 1063.421
258.4083, 1069.926
258.8904, 1075.557
259.3726, 1080.121
259.8547, 1084.353
260.3368, 1088.212
260.8189, 1091.776
261.3010, 1095.617
261.7831, 1099.906
262.2653, 1104.196
262.7474, 1108.095
263.2295, 1111.620
263.7116, 1114.895
264.1937, 1118.287
264.6758, 1121.507
265.1580, 1122.917
265.6401, 1122.079
266.1222, 1120.256
266.6043, 1118.214
267.0864, 1115.877
267.5685, 1113.782
268.0507, 1112.811
268.5328, 1111.922
269.0149, 1106.617
269.4970, 1095.225
269.9791, 1083.250
270.4612, 1073.837
270.9434, 1067.633
271.4255, 1061.154
271.9076, 1053.966
272.3897, 1046.429
272.8718, 1039.317
273.3539, 1032.539
273.8361, 1026.415
274.3182, 1021.548
274.8003, 1018.297
275.2824, 1013.240
275.7645, 1005.465
276.2466, 996.7933
276.7288, 991.1894
277.2109, 989.2714
277.6930, 987.3883
278.1751, 983.5851
278.6572, 977.6950
279.1393, 973.0361
279.6215, 969.5999
280.1036, 967.4384
280.5857, 967.3185
281.0678, 969.5673
281.5499, 970.8305
282.0320, 969.3212
282.5142, 965.3001
282.9963, 962.2097
283.4784, 960.1254
283.9605, 958.7486
284.4426, 958.0646
284.9247, 958.0980
285.4069, 957.4404
285.8890, 954.9518
286.3711, 951.3300
286.8532, 950.2865
287.3353, 952.1501
287.8174, 954.7492
288.2996, 956.0109
288.7817, 955.9981
289.2638, 955.1516
289.7459, 952.9399
290.2280, 950.3069
290.7101, 950.2839
291.1923, 953.0172
291.6744, 956.0236
292.1565, 957.2582
292.6386, 956.9453
293.1207, 956.0730
293.6028, 954.4291
294.0850, 952.8093
294.5671, 953.0974
295.0492, 955.1653
295.5313, 957.0421
296.0134, 957.3399
296.4955, 956.3123
296.9777, 954.4259
297.4598, 951.3781
297.9419, 948.3615
298.4240, 947.2147
298.9061, 947.7371
299.3882, 948.8640
299.8704, 950.2424
300.3525, 951.7520
300.8346, 953.1696
301.3167, 954.4581
301.7988, 955.7480
302.2809, 957.3932
302.7631, 959.2109
303.2452, 960.6860
303.7273, 961.3906
304.2094, 961.6629
304.6915, 962.0186
305.1736, 962.5215
305.6558, 962.7072
306.1379, 960.9001
306.6200, 958.5535
307.1021, 958.4025
307.5842, 964.5582
308.0663, 971.5590
308.5485, 973.5586
309.0306, 970.6444
309.5127, 967.6428
309.9948, 968.2258
310.4769, 970.5660
310.9590, 972.3389
311.4412, 972.5071
311.9233, 972.1456
312.4054, 971.6432
312.8875, 971.1096
313.3696, 971.1523
313.8517, 972.3149
314.3339, 974.1002
314.8160, 976.1401
315.2981, 978.5289
315.7802, 980.8860
316.2623, 983.4183
316.7444, 985.8445
317.2266, 987.4164
317.7087, 986.8069
318.1908, 985.9325
318.6729, 985.9584
319.1550, 987.1816
319.6371, 988.9926
320.1193, 991.6006
320.6014, 994.5810
321.0835, 997.2813
321.5656, 998.9706
322.0477, 1000.747
322.5298, 1003.222
323.0120, 1006.640
323.4941, 1009.614
323.9762, 1011.262
324.4583, 1012.531
324.9404, 1014.445
325.4225, 1017.771
325.9047, 1021.182
326.3868, 1023.873
326.8689, 1025.801
327.3510, 1029.343
327.8331, 1036.864
328.3152, 1044.778
328.7974, 1050.599
329.2795, 1051.955
329.7616, 1054.010
330.2437, 1056.859
330.7258, 1060.576
331.2079, 1065.786
331.6901, 1073.547
332.1722, 1081.731
332.6543, 1089.383
333.1364, 1096.419
333.6185, 1102.813
334.1006, 1107.733
334.5828, 1112.213
335.0649, 1118.687
335.5470, 1128.162
336.0291, 1137.939
336.5112, 1146.958
336.9933, 1155.155
337.4755, 1163.076
337.9576, 1170.253
338.4397, 1177.610
338.9218, 1186.698
339.4039, 1197.881
339.8860, 1209.278
340.3681, 1220.510
340.8503, 1231.604
341.3324, 1241.321
341.8145, 1249.445
342.2966, 1257.126
342.7787, 1265.375
343.2608, 1274.088
343.7430, 1284.283
344.2251, 1296.681
344.7072, 1310.247
345.1893, 1321.682
345.6714, 1331.036
346.1535, 1338.887
346.6357, 1344.957
347.1178, 1349.613
347.5999, 1355.620
348.0820, 1364.130
348.5641, 1372.163
349.0462, 1374.235
349.5284, 1371.014
350.0105, 1367.675
350.4926, 1369.477
350.9747, 1372.765
351.4568, 1368.174
351.9389, 1354.750
352.4211, 1339.333
352.9032, 1329.558
353.3853, 1323.390
353.8674, 1315.852
354.3495, 1302.856
354.8316, 1288.841
355.3138, 1279.596
355.7959, 1274.738
356.2780, 1270.210
356.7601, 1262.974
357.2422, 1254.437
357.7243, 1246.181
358.2065, 1238.084
358.6886, 1231.371
359.1707, 1227.275
359.6528, 1225.338
360.1349, 1224.185
360.6170, 1222.961
361.0992, 1222.376
361.5813, 1223.059
362.0634, 1225.362
362.5455, 1228.001
363.0276, 1230.416
363.5097, 1232.836
363.9919, 1235.606
364.4740, 1239.013
364.9561, 1242.601
365.4382, 1245.633
365.9203, 1247.895
366.4024, 1252.318
366.8846, 1261.232
367.3667, 1271.625
367.8488, 1281.059
368.3309, 1288.674
368.8130, 1295.990
369.2951, 1302.641
369.7773, 1308.958
370.2594, 1316.821
370.7415, 1327.084
371.2236, 1338.183
371.7057, 1349.437
372.1878, 1360.102
372.6700, 1372.490
373.1521, 1387.109
373.6342, 1403.134
374.1163, 1418.972
374.5984, 1434.460
375.0805, 1449.775
375.5627, 1464.819
376.0448, 1479.527
376.5269, 1495.220
377.0090, 1511.653
377.4911, 1529.681
377.9732, 1551.184
378.4554, 1576.682
378.9375, 1601.360
379.4196, 1623.942
379.9017, 1645.180
380.3838, 1669.062
380.8659, 1695.663
381.3481, 1722.802
381.8302, 1747.605
382.3123, 1770.763
382.7944, 1797.081
383.2765, 1827.305
383.7586, 1860.895
384.2408, 1900.222
384.7229, 1943.788
385.2050, 1984.619
385.6871, 2016.211
386.1692, 2042.808
386.6513, 2073.738
387.1335, 2109.081
387.6156, 2146.252
388.0977, 2182.230
388.5798, 2217.910
389.0619, 2255.583
389.5440, 2296.506
390.0262, 2338.757
390.5083, 2380.999
390.9904, 2423.648
391.4725, 2466.915
391.9546, 2512.740
392.4367, 2558.105
392.9189, 2600.714
393.4010, 2639.080
393.8831, 2676.634
394.3652, 2716.050
394.8473, 2755.197
395.3294, 2790.835
395.8116, 2821.332
396.2937, 2848.198
396.7758, 2871.801
397.2579, 2892.102
397.7400, 2910.094
398.2221, 2926.402
398.7043, 2940.091
399.1864, 2950.323
399.6685, 2955.452
400.1506, 2958.902
400.6327, 2961.583
401.1148, 2963.042
401.5970, 2960.915
402.0791, 2953.060
402.5612, 2944.142
403.0433, 2936.062
403.5254, 2928.841
404.0075, 2922.482
404.4897, 2916.943
404.9718, 2912.404
405.4539, 2909.337
405.9360, 2908.243
406.4181, 2907.226
406.9002, 2905.862
407.3824, 2904.161
407.8645, 2901.586
408.3466, 2897.674
408.8287, 2894.585
409.3108, 2895.047
409.7929, 2898.807
410.2751, 2901.293
410.7572, 2902.305
411.2393, 2900.779
411.7214, 2894.063
412.2035, 2882.461
412.6856, 2869.203
413.1678, 2856.192
413.6499, 2842.802
414.1320, 2827.637
414.6141, 2810.494
415.0962, 2792.019
415.5783, 2773.824
416.0605, 2754.579
416.5426, 2731.305
417.0247, 2701.186
417.5068, 2668.181
417.9889, 2635.870
418.4710, 2603.888
418.9532, 2569.586
419.4353, 2529.652
419.9174, 2488.165
420.3995, 2449.075
420.8816, 2413.411
421.3637, 2377.989
421.8459, 2341.526
422.3280, 2304.572
422.8101, 2267.448
423.2922, 2230.105
423.7743, 2193.051
424.2564, 2156.462
424.7386, 2120.445
425.2207, 2085.700
425.7028, 2053.746
426.1849, 2022.468
426.6670, 1990.480
427.1491, 1956.505
427.6313, 1924.029
428.1134, 1893.567
428.5955, 1864.877
429.0776, 1837.364
429.5597, 1810.625
430.0418, 1785.272
430.5240, 1761.489
431.0061, 1739.473
431.4882, 1717.489
431.9703, 1695.457
432.4524, 1673.899
432.9345, 1653.113
433.4167, 1633.130
433.8988, 1614.770
434.3809, 1598.606
434.8630, 1584.254
435.3451, 1571.367
435.8272, 1559.904
436.3094, 1548.776
436.7915, 1536.823
437.2736, 1524.654
437.7557, 1513.829
438.2378, 1504.389
438.7199, 1496.492
439.2020, 1491.342
439.6841, 1487.820
440.1663, 1483.626
440.6484, 1477.941
441.1305, 1471.070
441.6126, 1461.915
442.0947, 1451.114
442.5768, 1442.862
443.0590, 1441.450
443.5411, 1442.216
444.0232, 1441.357
444.5053, 1437.016
444.9874, 1433.497
445.4695, 1432.473
445.9517, 1433.112
446.4338, 1434.073
446.9159, 1435.519
447.3980, 1436.853
447.8801, 1438.002
448.3622, 1438.990
448.8444, 1439.383
449.3265, 1438.398
449.8086, 1437.520
450.2907, 1437.751
450.7728, 1439.562
451.2549, 1441.306
451.7371, 1442.076
452.2192, 1443.248
452.7013, 1448.477
453.1834, 1458.884
453.6655, 1469.060
454.1476, 1476.432
454.6298, 1481.323
455.1119, 1487.834
455.5940, 1496.058
456.0761, 1505.090
456.5582, 1513.715
457.0403, 1522.186
457.5225, 1531.981
458.0046, 1543.611
458.4867, 1555.864
458.9688, 1565.746
459.4509, 1574.157
459.9330, 1584.419
460.4152, 1600.698
460.8973, 1618.876
461.3794, 1633.190
461.8615, 1643.444
462.3436, 1654.177
462.8257, 1670.505
463.3079, 1688.272
463.7900, 1702.787
464.2721, 1711.212
464.7542, 1718.196
465.2363, 1726.774
465.7184, 1735.504
466.2006, 1740.281
466.6827, 1740.839
467.1648, 1736.635
467.6469, 1727.076
468.1290, 1711.464
468.6111, 1693.144
469.0933, 1672.057
469.5754, 1648.319
470.0575, 1621.337
470.5396, 1588.850
471.0217, 1557.773
471.5038, 1528.614
471.9860, 1501.277
472.4681, 1474.902
472.9502, 1449.269
473.4323, 1425.215
473.9144, 1403.175
474.3965, 1383.057
474.8787, 1365.738
475.3608, 1351.435
475.8429, 1339.042
476.3250, 1327.767
476.8071, 1317.577
477.2892, 1308.409
477.7714, 1300.674
478.2535, 1293.482
478.7356, 1285.294
479.2177, 1276.411
479.6998, 1268.335
480.1819, 1262.064
480.6641, 1256.861
481.1462, 1252.088
481.6283, 1247.673
482.1104, 1243.733
482.5925, 1241.318
483.0746, 1239.021
483.5568, 1235.372
484.0389, 1227.061
484.5210, 1220.576
485.0031, 1218.757
485.4852, 1220.314
485.9673, 1221.147
486.4495, 1219.772
486.9316, 1218.393
487.4137, 1217.720
487.8958, 1217.844
488.3779, 1218.238
488.8600, 1219.630
489.3422, 1220.493
489.8243, 1219.084
490.3064, 1214.402
490.7885, 1210.945
491.2706, 1209.469
491.7527, 1209.389
492.2349, 1209.094
492.7170, 1208.502
493.1991, 1208.732
493.6812, 1211.245
494.1633, 1215.165
494.6454, 1216.702
495.1276, 1215.781
495.6097, 1213.990
496.0918, 1212.814
496.5739, 1211.839
497.0560, 1210.166
497.5381, 1207.342
498.0203, 1204.279
498.5024, 1201.151
498.9845, 1198.393
499.4666, 1196.887
499.9487, 1198.148
500.4308, 1199.905
500.9130, 1200.897
501.3951, 1201.061
501.8772, 1201.086
502.3593, 1201.645
502.8414, 1201.827
503.3235, 1200.967
503.8057, 1197.000
504.2878, 1194.943
504.7699, 1196.041
505.2520, 1198.688
505.7341, 1200.234
506.2162, 1200.369
506.6984, 1199.889
507.1805, 1198.466
507.6626, 1196.377
508.1447, 1196.664
508.6268, 1199.837
509.1089, 1203.440
509.5911, 1206.037
510.0732, 1207.620
510.5553, 1207.979
511.0374, 1206.966
511.5195, 1205.270
512.0016, 1203.119
512.4838, 1200.903
512.9659, 1200.020
513.4480, 1201.898
513.9301, 1204.429
514.4122, 1205.161
514.8943, 1204.414
515.3765, 1203.516
515.8586, 1203.161
516.3407, 1202.982
516.8228, 1202.558
517.3049, 1201.677
517.7870, 1201.419
518.2692, 1202.493
518.7513, 1204.200
519.2334, 1205.866
519.7155, 1208.334
520.1976, 1209.598
520.6797, 1209.040
521.1619, 1207.178
521.6440, 1205.247
522.1261, 1202.313
522.6082, 1201.053
523.0903, 1202.849
523.5724, 1207.776
524.0546, 1212.236
524.5367, 1216.396
525.0188, 1219.511
525.5009, 1220.389
525.9830, 1219.265
526.4651, 1218.904
526.9473, 1219.801
527.4294, 1221.267
527.9115, 1222.181
528.3936, 1222.771
528.8757, 1223.843
529.3578, 1225.706
529.8400, 1228.225
530.3221, 1231.215
530.8042, 1234.673
531.2863, 1238.852
531.7684, 1245.377
532.2505, 1251.654
532.7327, 1255.224
533.2148, 1254.604
533.6969, 1255.057
534.1790, 1258.439
534.6611, 1263.420
535.1432, 1268.462
535.6254, 1274.209
536.1075, 1279.120
536.5896, 1282.484
537.0717, 1284.941
537.5538, 1288.290
538.0359, 1292.148
538.5181, 1297.947
539.0002, 1307.127
539.4823, 1319.558
539.9644, 1329.727
540.4465, 1337.263
540.9286, 1344.427
541.4108, 1353.050
541.8929, 1363.085
542.3750, 1374.093
542.8571, 1386.124
543.3392, 1398.663
543.8214, 1411.413
544.3035, 1424.234
544.7856, 1437.234
545.2677, 1450.882
545.7498, 1464.364
546.2319, 1476.920
546.7141, 1488.621
547.1962, 1499.951
547.6783, 1512.919
548.1604, 1524.120
548.6425, 1531.787
549.1246, 1535.122
549.6068, 1536.512
550.0889, 1537.207
550.5710, 1535.429
551.0531, 1529.468
551.5352, 1518.710
552.0173, 1504.868
552.4995, 1487.644
552.9816, 1467.925
553.4637, 1447.725
553.9458, 1426.930
554.4279, 1406.443
554.9100, 1386.086
555.3922, 1366.371
555.8743, 1349.357
556.3564, 1335.186
556.8385, 1322.848
557.3206, 1311.612
557.8027, 1301.731
558.2849, 1293.713
558.7670, 1287.923
559.2491, 1282.598
559.7312, 1275.484
560.2133, 1268.313
560.6954, 1263.476
561.1776, 1263.473
561.6597, 1264.221
562.1418, 1264.870
562.6239, 1265.271
563.1060, 1264.954
563.5881, 1262.805
564.0703, 1260.973
564.5524, 1260.207
565.0345, 1260.617
565.5166, 1260.786
565.9987, 1260.732
566.4808, 1260.420
566.9630, 1259.566
567.4451, 1258.069
567.9272, 1257.642
568.4093, 1258.619
568.8914, 1260.167
569.3735, 1261.321
569.8557, 1262.074
570.3378, 1262.395
570.8199, 1262.069
571.3020, 1261.528
571.7841, 1261.304
572.2662, 1261.339
572.7484, 1261.424
573.2305, 1260.245
573.7126, 1259.957
574.1947, 1262.904
574.6768, 1269.446
575.1589, 1274.589
575.6411, 1275.755
576.1232, 1275.502
576.6053, 1275.543
577.0874, 1276.070
577.5695, 1276.819
578.0516, 1278.151
578.5338, 1279.447
579.0159, 1279.549
579.4980, 1277.845
579.9801, 1277.241
580.4622, 1278.802
580.9443, 1281.648
581.4265, 1282.930
581.9086, 1282.658
582.3907, 1282.120
582.8728, 1281.954
583.3549, 1282.069
583.8370, 1282.464
584.3192, 1283.124
584.8013, 1283.351
585.2834, 1281.953
585.7655, 1280.160
586.2476, 1279.385
586.7297, 1280.123
587.2118, 1281.283
587.6939, 1282.989
588.1760, 1284.645
588.6581, 1285.488
589.1403, 1284.707
589.6224, 1283.871
590.1045, 1283.130
590.5866, 1282.489
591.0687, 1281.999
591.5508, 1281.725
592.0330, 1281.443
592.5151, 1281.030
592.9972, 1280.514
593.4793, 1280.215
593.9614, 1280.161
594.4435, 1280.179
594.9257, 1280.164
595.4078, 1280.131
595.8899, 1280.173
596.3720, 1280.353
596.8541, 1280.353
597.3362, 1279.187
597.8184, 1277.834
598.3005, 1277.845
598.7826, 1280.791
599.2647, 1283.772
599.7468, 1285.137
600.2289, 1285.569
600.7111, 1286.583
601.1932, 1289.396
601.6753, 1291.866
602.1574, 1293.464
602.6395, 1294.183
603.1216, 1294.175
603.6038, 1293.065
604.0859, 1291.842
604.5680, 1290.834
605.0501, 1289.988
605.5322, 1290.077
606.0143, 1291.148
606.4965, 1292.901
606.9786, 1295.493
607.4607, 1298.553
607.9428, 1300.881
608.4249, 1302.195
608.9070, 1302.926
609.3892, 1303.203
609.8713, 1303.288
610.3534, 1303.665
610.8355, 1304.285
611.3176, 1305.498
611.7997, 1308.530
612.2819, 1312.525
612.7640, 1314.401
613.2461, 1311.385
613.7282, 1308.224
614.2103, 1306.494
614.6924, 1306.289
615.1746, 1305.872
615.6567, 1304.983
616.1388, 1304.355
616.6209, 1304.603
617.1030, 1305.756
617.5851, 1306.918
618.0673, 1308.164
618.5494, 1308.941
619.0315, 1308.082
619.5136, 1306.194
619.9957, 1304.987
620.4778, 1304.966
620.9600, 1305.631
621.4421, 1306.874
621.9242, 1308.431
622.4063, 1309.742
622.8884, 1310.523
623.3705, 1311.069
623.8527, 1310.934
624.3348, 1310.383
624.8169, 1311.318
625.2990, 1316.159
625.7811, 1320.045
626.2632, 1320.784
626.7454, 1318.059
627.2275, 1317.224
627.7096, 1319.016
628.1917, 1320.791
628.6738, 1319.951
629.1559, 1316.827
629.6381, 1315.188
630.1202, 1315.519
630.6023, 1316.668
631.0844, 1317.504
631.5665, 1318.188
632.0486, 1319.082
632.5308, 1320.524
633.0129, 1321.802
633.4950, 1321.934
633.9771, 1321.591
634.4592, 1322.066
634.9413, 1324.493
635.4235, 1326.998
635.9056, 1329.093
636.3877, 1330.770
636.8698, 1332.220
637.3519, 1333.596
637.8340, 1334.374
638.3162, 1333.867
638.7983, 1332.122
639.2804, 1332.831
639.7625, 1336.454
640.2446, 1339.886
640.7267, 1340.132
641.2089, 1338.083
641.6910, 1336.531
642.1731, 1335.736
642.6552, 1335.635
643.1373, 1336.725
643.6194, 1338.311
644.1016, 1339.506
644.5837, 1340.236
645.0658, 1340.260
645.5479, 1338.807
646.0300, 1336.747
646.5121, 1335.515
646.9943, 1334.938
647.4764, 1335.766
647.9585, 1338.804
648.4406, 1343.276
648.9227, 1346.646
649.4048, 1348.986
649.8870, 1349.698
650.3691, 1347.420
650.8512, 1343.403
651.3333, 1343.632
651.8154, 1348.034
652.2975, 1352.782
652.7797, 1355.303
653.2618, 1356.408
653.7439, 1357.052
654.2260, 1357.291
654.7081, 1357.926
655.1902, 1360.671
655.6724, 1363.302
656.1545, 1363.726
656.6366, 1359.885
657.1187, 1357.186
657.6008, 1356.981
658.0829, 1357.926
658.5651, 1358.638
659.0472, 1358.761
659.5293, 1359.707
660.0114, 1362.019
660.4935, 1364.804
660.9756, 1365.897
661.4578, 1365.402
661.9399, 1365.673
662.4220, 1367.949
662.9041, 1371.069
663.3862, 1373.337
663.8683, 1374.890
664.3505, 1376.326
664.8326, 1378.003
665.3147, 1379.641
665.7968, 1381.007
666.2789, 1382.114
666.7610, 1383.250
667.2432, 1383.970
667.7253, 1385.224
668.2074, 1387.505
668.6895, 1390.999
669.1716, 1394.670
669.6537, 1398.577
670.1359, 1402.576
670.6180, 1406.946
671.1001, 1411.589
671.5822, 1414.499
672.0643, 1415.288
672.5464, 1415.291
673.0286, 1415.358
673.5107, 1415.901
673.9928, 1417.990
674.4749, 1422.724
674.9570, 1427.471
675.4391, 1430.371
675.9213, 1432.062
676.4034, 1433.580
676.8855, 1433.899
677.3676, 1435.552
677.8497, 1440.178
678.3318, 1446.505
678.8140, 1451.134
679.2961, 1453.936
679.7782, 1455.270
680.2603, 1454.761
680.7424, 1452.969
681.2245, 1452.260
681.7067, 1452.642
682.1888, 1453.919
682.6709, 1457.775
683.1530, 1461.753
683.6351, 1460.766
684.1172, 1454.947
684.5994, 1449.558
685.0815, 1448.267
685.5636, 1448.504
686.0457, 1448.464
686.5278, 1447.933
687.0099, 1447.031
687.4921, 1444.906
687.9742, 1443.054
688.4563, 1442.611
688.9384, 1444.046
689.4205, 1445.556
689.9026, 1447.348
690.3848, 1448.643
690.8669, 1447.778
691.3490, 1445.098
691.8311, 1443.857
692.3132, 1445.243
692.7953, 1447.120
693.2775, 1446.985
693.7596, 1445.442
694.2417, 1443.737
694.7238, 1441.778
695.2059, 1440.377
695.6880, 1440.268
696.1702, 1441.019
696.6523, 1441.386
697.1344, 1439.923
697.6165, 1439.729
698.0986, 1442.119
698.5807, 1446.434
699.0629, 1448.888
699.5450, 1449.237
700.0271, 1448.963
700.5092, 1448.593
700.9913, 1448.197
701.4734, 1448.380
701.9556, 1449.045
702.4377, 1448.838
702.9198, 1445.138
703.4019, 1441.070
703.8840, 1440.137
704.3661, 1442.717
704.8483, 1445.733
705.3304, 1448.689
705.8125, 1451.189
706.2946, 1452.893
706.7767, 1453.573
707.2589, 1454.191
707.7410, 1454.828
708.2231, 1455.294
708.7052, 1455.206
709.1873, 1454.535
709.6694, 1454.551
710.1516, 1455.401
710.6337, 1456.878
711.1158, 1459.445
711.5979, 1462.379
712.0800, 1463.898
712.5621, 1462.984
713.0443, 1461.804
713.5264, 1462.042
714.0085, 1462.866
714.4906, 1463.037
714.9727, 1461.449
715.4548, 1460.142
715.9370, 1459.046
716.4191, 1458.536
716.9012, 1459.863
717.3833, 1463.934
717.8654, 1466.360
718.3475, 1465.310
718.8297, 1462.351
719.3118, 1461.904
719.7939, 1463.583
720.2760, 1464.777
720.7581, 1463.113
721.2402, 1460.934
721.7224, 1461.194
722.2045, 1463.338
722.6866, 1464.810
723.1687, 1464.021
723.6508, 1462.758
724.1329, 1461.500
724.6151, 1460.289
725.0972, 1460.332
725.5793, 1462.600
726.0614, 1464.479
726.5435, 1464.368
727.0256, 1462.387
727.5078, 1461.261
727.9899, 1461.006
728.4720, 1461.346
728.9541, 1462.839
729.4362, 1464.531
729.9183, 1464.054
730.4005, 1461.076
730.8826, 1459.185
731.3647, 1461.839
731.8468, 1465.711
732.3289, 1467.962
732.8110, 1467.242
733.2932, 1467.384
733.7753, 1469.495
734.2574, 1471.750
734.7395, 1472.442
735.2216, 1471.224
735.7037, 1470.669
736.1859, 1471.119
736.6680, 1471.744
737.1501, 1471.095
737.6322, 1469.733
738.1143, 1469.624
738.5964, 1471.624
739.0786, 1473.646
739.5607, 1473.436
740.0428, 1472.343
740.5249, 1472.232
741.0070, 1475.013
741.4891, 1477.098
741.9713, 1477.097
742.4534, 1476.327
742.9355, 1476.775
743.4176, 1478.893
743.8997, 1480.777
744.3818, 1482.072
744.8640, 1482.909
745.3461, 1483.643
745.8282, 1484.198
746.3103, 1483.984
746.7924, 1481.717
747.2745, 1479.884
747.7567, 1482.047
748.2388, 1486.719
748.7209, 1490.152
749.2030, 1489.912
749.6851, 1489.312
750.1672, 1489.651
750.6494, 1490.610
751.1315, 1490.801
751.6136, 1489.711
752.0957, 1489.066
752.5778, 1489.580
753.0599, 1490.922
753.5421, 1491.961
754.0242, 1492.678
754.5063, 1492.933
754.9884, 1491.877
755.4705, 1490.769
755.9526, 1491.797
756.4348, 1494.480
756.9169, 1496.213
757.3990, 1493.931
757.8811, 1492.062
758.3632, 1493.419
758.8453, 1498.103
759.3275, 1500.848
759.8096, 1500.544
760.2917, 1500.213
760.7738, 1501.395
761.2559, 1503.890
761.7380, 1505.603
762.2202, 1506.482
762.7023, 1508.270
763.1844, 1514.917
763.6665, 1522.038
764.1486, 1522.004
764.6307, 1514.648
765.1129, 1508.080
765.5950, 1506.360
766.0771, 1506.842
766.5592, 1508.234
767.0413, 1510.747
767.5234, 1512.570
768.0056, 1513.569
768.4877, 1514.088
768.9698, 1513.979
769.4519, 1513.272
769.9340, 1514.372
770.4161, 1517.512
770.8983, 1520.403
771.3804, 1520.349
771.8625, 1518.992
772.3446, 1519.110
772.8267, 1521.228
773.3088, 1522.850
773.7910, 1521.747
774.2731, 1520.298
774.7552, 1520.474
775.2373, 1523.297
775.7194, 1525.268
776.2015, 1526.059
776.6837, 1526.455
777.1658, 1526.940
777.6479, 1527.523
778.1300, 1529.072
778.6121, 1531.837
779.0942, 1534.218
779.5764, 1533.916
780.0585, 1532.464
780.5406, 1532.349
781.0227, 1534.407
781.5048, 1536.266
781.9869, 1535.896
782.4691, 1535.373
782.9512, 1536.791
783.4332, 1542.216
783.9153, 1545.274
784.3975, 1545.148
784.8796, 1543.856
785.3617, 1543.185
785.8438, 1543.168
786.3259, 1544.544
786.8080, 1547.663
787.2902, 1550.781
787.7723, 1552.203
788.2544, 1552.419
788.7365, 1551.914
789.2186, 1550.290
789.7007, 1549.336
790.1829, 1550.182
790.6650, 1551.764
791.1471, 1552.951
791.6292, 1553.479
792.1113, 1554.258
792.5934, 1555.416
793.0756, 1556.701
793.5577, 1557.510
794.0398, 1558.064
794.5219, 1560.067
795.0040, 1564.234
795.4861, 1568.138
795.9683, 1569.084
796.4504, 1568.581
796.9325, 1568.723
797.4146, 1570.917
797.8967, 1572.058
798.3788, 1569.978
798.8610, 1567.302
799.3431, 1566.965
799.8252, 1570.072
800.3073, 1571.195
800.7894, 1569.148
801.2715, 1566.877
801.7537, 1569.089
802.2358, 1574.429
802.7179, 1578.167
803.2000, 1579.097
803.6821, 1578.907
804.1642, 1578.614
804.6464, 1578.083
805.1285, 1577.038
805.6106, 1573.664
806.0927, 1572.905
806.5748, 1576.996
807.0569, 1582.174
807.5391, 1584.324
808.0212, 1582.966
808.5033, 1582.297
808.9854, 1582.790
809.4675, 1583.973
809.9496, 1586.124
810.4318, 1588.405
810.9139, 1588.538
811.3960, 1585.187
811.8781, 1582.583
812.3602, 1583.830
812.8423, 1586.735
813.3245, 1588.944
813.8066, 1589.401
814.2887, 1590.596
814.7708, 1593.181
815.2529, 1595.548
815.7350, 1595.580
816.2172, 1593.404
816.6993, 1591.472
817.1814, 1589.962
817.6635, 1589.533
818.1456, 1592.076
818.6277, 1595.676
819.1099, 1597.488
819.5920, 1596.245
820.0741, 1595.288
820.5562, 1596.327
821.0383, 1597.777
821.5204, 1598.239
822.0026, 1597.285
822.4847, 1596.496
822.9668, 1595.802
823.4489, 1595.483
823.9310, 1595.902
824.4131, 1596.926
824.8953, 1598.274
825.3774, 1599.932
825.8595, 1601.378
826.3416, 1602.062
826.8237, 1602.394
827.3058, 1602.747
827.7880, 1603.187
828.2701, 1603.586
828.7522, 1603.628
829.2343, 1603.988
829.7164, 1605.404
830.1985, 1608.023
830.6807, 1609.778
831.1628, 1610.588
831.6449, 1611.044
832.1270, 1611.506
832.6091, 1612.045
833.0912, 1612.799
833.5734, 1613.784
834.0555, 1614.747
834.5376, 1615.443
835.0197, 1616.126
835.5018, 1617.125
835.9839, 1618.600
836.4661, 1618.960
836.9482, 1617.738
837.4303, 1616.461
837.9124, 1615.865
838.3945, 1616.033
838.8766, 1618.083
839.3588, 1621.924
839.8409, 1624.784
840.3230, 1623.266
840.8051, 1620.922
841.2872, 1621.538
841.7693, 1625.308
842.2515, 1626.959
842.7336, 1622.988
843.2157, 1619.563
843.6978, 1619.156
844.1799, 1621.514
844.6620, 1623.401
845.1442, 1624.770
845.6263, 1625.925
846.1084, 1627.281
846.5905, 1628.379
847.0726, 1627.828
847.5547, 1626.124
848.0369, 1625.629
848.5190, 1629.350
849.0011, 1632.673
849.4832, 1632.974
849.9653, 1630.891
850.4474, 1630.010
850.9296, 1630.652
851.4117, 1631.577
851.8938, 1632.404
852.3759, 1633.237
852.8580, 1634.498
853.3401, 1636.058
853.8223, 1637.236
854.3044, 1637.624
854.7865, 1637.631
855.2686, 1637.104
855.7507, 1636.434
856.2328, 1636.582
856.7150, 1638.511
857.1971, 1640.177
857.6792, 1641.252
858.1613, 1641.916
858.6434, 1642.370
859.1255, 1642.623
859.6077, 1643.243
860.0898, 1644.378
860.5719, 1645.869
861.0540, 1647.966
861.5361, 1650.152
862.0182, 1651.577
862.5004, 1651.058
862.9825, 1651.013
863.4646, 1652.372
863.9467, 1654.247
864.4288, 1655.932
864.9109, 1657.669
865.3931, 1657.745
865.8752, 1655.625
866.3573, 1653.212
866.8394, 1653.381
867.3215, 1654.870
867.8036, 1654.518
868.2858, 1651.196
868.7679, 1649.157
869.2500, 1652.464
869.7321, 1656.915
870.2142, 1658.543
870.6964, 1655.996
871.1785, 1655.107
871.6606, 1656.290
872.1427, 1658.130
872.6248, 1659.380
873.1069, 1660.276
873.5891, 1662.300
874.0712, 1665.465
874.5533, 1667.668
875.0354, 1666.418
875.5175, 1664.289
875.9996, 1663.078
876.4818, 1662.935
876.9639, 1663.720
877.4460, 1665.833
877.9281, 1668.115
878.4102, 1670.306
878.8923, 1672.272
879.3745, 1672.885
879.8566, 1672.221
880.3387, 1671.588
880.8208, 1672.067
881.3029, 1672.714
881.7850, 1672.183
882.2672, 1670.951
882.7493, 1670.635
883.2314, 1673.028
883.7135, 1674.828
884.1956, 1674.750
884.6777, 1673.836
885.1599, 1675.274
885.6420, 1679.282
886.1241, 1682.259
886.6062, 1683.074
887.0883, 1682.513
887.5704, 1679.924
888.0526, 1677.074
888.5347, 1677.509
889.0168, 1686.068
889.4989, 1692.548
889.9810, 1691.723
890.4631, 1688.320
890.9453, 1687.772
891.4274, 1691.025
891.9095, 1692.741
892.3916, 1692.219
892.8737, 1691.196
893.3558, 1692.241
893.8380, 1694.184
894.3201, 1694.364
894.8022, 1692.168
895.2843, 1690.142
895.7664, 1689.892
896.2485, 1690.111
896.7307, 1689.713
897.2128, 1688.461
897.6949, 1687.921
898.1770, 1688.035
898.6591, 1689.039
899.1412, 1691.937
899.6234, 1695.721
900.1055, 1697.056
900.5876, 1696.203
901.0697, 1695.689
901.5518, 1697.961
902.0339, 1700.185
902.5161, 1699.437
902.9982, 1696.493
903.4803, 1698.389
903.9624, 1708.710
904.4445, 1715.159
904.9266, 1712.550
905.4088, 1704.979
905.8909, 1702.105
906.3730, 1703.250
906.8551, 1705.675
907.3372, 1709.117
907.8193, 1712.346
908.3015, 1714.987
908.7836, 1716.737
909.2657, 1716.969
909.7478, 1714.398
910.2299, 1712.717
910.7120, 1712.589
911.1942, 1712.736
911.6763, 1710.795
912.1584, 1707.455
912.6405, 1706.588
913.1226, 1709.051
913.6047, 1711.945
914.0869, 1713.227
914.5690, 1713.716
915.0511, 1714.036
915.5332, 1714.124
916.0153, 1714.777
916.4974, 1716.249
916.9796, 1717.887
917.4617, 1719.326
917.9438, 1720.590
918.4259, 1721.992
918.9080, 1723.486
919.3901, 1724.606
919.8723, 1724.821
920.3544, 1724.710
920.8365, 1724.352
921.3186, 1723.956
921.8007, 1724.696
922.2828, 1728.502
922.7650, 1730.456
923.2471, 1728.858
923.7292, 1725.137
924.2113, 1722.256
924.6934, 1720.348
925.1755, 1720.342
925.6577, 1723.244
926.1398, 1726.692
926.6219, 1729.611
927.1040, 1731.442
927.5861, 1731.364
928.0682, 1725.956
928.5504, 1723.743
929.0325, 1726.316
929.5146, 1729.872
929.9967, 1729.936
930.4788, 1727.110
930.9609, 1726.303
931.4431, 1727.974
931.9252, 1730.278
932.4073, 1731.954
932.8894, 1733.502
933.3715, 1735.618
933.8536, 1738.439
934.3358, 1740.249
934.8179, 1740.658
935.3000, 1740.575
935.7821, 1740.064
936.2642, 1739.457
936.7463, 1740.666
937.2285, 1743.359
937.7106, 1745.116
938.1927, 1743.047
938.6748, 1741.127
939.1569, 1742.589
939.6390, 1746.349
940.1212, 1750.015
940.6033, 1753.373
941.0854, 1756.496
941.5675, 1759.510
942.0496, 1762.080
942.5317, 1763.364
943.0139, 1763.650
943.4960, 1764.265
943.9781, 1765.453
944.4602, 1766.999
944.9423, 1768.593
945.4244, 1770.575
945.9066, 1773.164
946.3887, 1776.255
946.8708, 1781.228
947.3529, 1789.586
947.8350, 1796.471
948.3171, 1797.310
948.7993, 1794.296
949.2814, 1796.381
949.7635, 1802.983
950.2456, 1810.050
950.7277, 1814.998
951.2098, 1819.808
951.6920, 1825.353
952.1741, 1831.701
952.6562, 1839.023
953.1383, 1848.111
953.6204, 1855.735
954.1025, 1860.699
954.5847, 1864.936
955.0668, 1871.877
955.5489, 1880.797
956.0310, 1889.748
956.5131, 1897.892
956.9952, 1906.791
957.4774, 1917.323
957.9595, 1928.941
958.4416, 1941.430
958.9237, 1955.141
959.4058, 1968.006
959.8879, 1979.798
960.3701, 1991.326
960.8522, 2002.949
961.3343, 2014.899
961.8164, 2027.355
962.2985, 2040.338
962.7806, 2053.375
963.2628, 2067.278
963.7449, 2079.993
964.2270, 2089.950
964.7091, 2098.374
965.1912, 2109.507
965.6733, 2123.922
966.1555, 2135.007
966.6376, 2140.581
967.1197, 2143.441
967.6018, 2147.358
968.0839, 2151.105
968.5660, 2152.595
969.0482, 2151.038
969.5303, 2147.823
970.0124, 2142.198
970.4945, 2136.117
970.9766, 2130.574
971.4587, 2125.575
971.9409, 2122.750
972.4230, 2122.159
972.9051, 2122.124
973.3872, 2121.371
973.8693, 2120.517
974.3514, 2119.217
974.8336, 2117.964
975.3157, 2120.058
975.7978, 2129.536
976.2799, 2136.787
976.7620, 2138.404
977.2441, 2137.577
977.7263, 2141.925
978.2084, 2150.787
978.6905, 2160.555
979.1726, 2170.536
979.6547, 2180.284
980.1368, 2190.258
980.6190, 2199.450
981.1010, 2206.332
981.5831, 2209.069
982.0652, 2214.627
982.5474, 2223.335
983.0295, 2233.911
983.5116, 2246.295
983.9937, 2259.547
984.4758, 2270.784
984.9579, 2280.098
985.4401, 2288.444
985.9222, 2295.382
986.4043, 2302.394
986.8864, 2311.391
987.3685, 2320.900
987.8506, 2326.250
988.3328, 2326.788
988.8149, 2327.395
989.2970, 2329.871
989.7791, 2331.177
990.2612, 2326.109
990.7433, 2317.397
991.2255, 2309.771
991.7076, 2305.675
992.1897, 2298.808
992.6718, 2286.152
993.1539, 2271.962
993.6360, 2258.362
994.1182, 2245.360
994.6003, 2234.999
995.0824, 2227.112
995.5645, 2217.004
996.0466, 2198.965
996.5287, 2179.362
997.0109, 2163.657
997.4930, 2151.194
997.9751, 2138.661
998.4572, 2125.365
998.9393, 2112.429
999.4214, 2100.307
999.9036, 2088.233
1000.386, 2074.300
1000.868, 2059.513
1001.350, 2047.697
1001.832, 2040.182
1002.314, 2032.759
1002.796, 2022.591
1003.278, 2011.912
1003.760, 2002.387
1004.243, 1993.937
1004.725, 1987.330
1005.207, 1982.962
1005.689, 1977.699
1006.171, 1968.107
1006.653, 1957.733
1007.135, 1953.359
1007.617, 1952.786
1008.100, 1950.039
1008.582, 1940.198
1009.064, 1931.470
1009.546, 1925.633
1010.028, 1921.457
1010.510, 1917.736
1010.992, 1914.418
1011.474, 1910.010
1011.956, 1904.209
1012.439, 1898.956
1012.921, 1896.097
1013.403, 1894.440
1013.885, 1893.004
1014.367, 1891.742
1014.849, 1891.220
1015.331, 1892.146
1015.813, 1892.168
1016.296, 1890.154
1016.778, 1886.935
1017.260, 1884.143
1017.742, 1881.776
1018.224, 1879.744
1018.706, 1877.775
1019.188, 1876.474
1019.670, 1876.318
1020.152, 1876.771
1020.635, 1877.231
1021.117, 1877.560
1021.599, 1878.760
1022.081, 1880.945
1022.563, 1882.692
1023.045, 1882.748
1023.527, 1881.814
1024.009, 1880.820
1024.492, 1879.672
1024.974, 1877.424
1025.456, 1871.648
1025.938, 1868.355
1026.420, 1869.581
1026.902, 1873.016
1027.384, 1874.179
1027.866, 1873.610
1028.349, 1873.560
1028.831, 1874.718
1029.313, 1875.753
1029.795, 1875.240
1030.277, 1874.710
1030.759, 1875.616
1031.241, 1878.117
1031.723, 1880.143
1032.205, 1881.747
1032.688, 1882.643
1033.170, 1882.332
1033.652, 1881.502
1034.134, 1880.432
1034.616, 1879.699
1035.098, 1880.727
1035.580, 1887.332
1036.062, 1890.871
1036.544, 1888.894
1037.027, 1885.233
1037.509, 1885.098
1037.991, 1887.757
1038.473, 1888.070
1038.955, 1885.573
1039.437, 1881.760
1039.919, 1876.558
1040.401, 1871.433
1040.884, 1867.134
1041.366, 1863.808
1041.848, 1861.846
1042.330, 1861.551
1042.812, 1861.573
1043.294, 1861.775
1043.776, 1861.639
1044.258, 1859.576
1044.740, 1856.897
1045.223, 1856.093
1045.705, 1858.881
1046.187, 1860.437
1046.669, 1859.592
1047.151, 1857.659
1047.633, 1854.711
1048.115, 1851.157
1048.597, 1851.014
1049.079, 1853.920
1049.562, 1856.987
1050.044, 1858.022
1050.526, 1859.145
1051.008, 1862.464
1051.490, 1866.496
1051.972, 1868.017
1052.454, 1866.246
1052.936, 1864.551
1053.419, 1863.037
1053.901, 1862.679
1054.383, 1866.131
1054.865, 1870.564
1055.347, 1871.743
1055.829, 1869.318
1056.311, 1867.108
1056.793, 1865.765
1057.276, 1865.446
1057.758, 1866.755
1058.240, 1868.774
1058.722, 1868.096
1059.204, 1865.642
1059.686, 1865.745
1060.168, 1870.963
1060.650, 1875.526
1061.132, 1875.281
1061.615, 1873.167
1062.097, 1871.729
1062.579, 1870.997
1063.061, 1871.311
1063.543, 1872.745
1064.025, 1874.299
1064.507, 1875.359
1064.989, 1876.166
1065.471, 1876.838
1065.954, 1877.495
1066.436, 1878.446
1066.918, 1880.235
1067.400, 1881.652
1067.882, 1882.655
1068.364, 1883.228
1068.846, 1882.754
1069.328, 1881.872
1069.811, 1882.822
1070.293, 1885.690
1070.775, 1888.599
1071.257, 1890.739
1071.739, 1892.455
1072.221, 1894.009
1072.703, 1895.271
1073.185, 1895.514
1073.667, 1894.760
1074.150, 1894.823
1074.632, 1896.211
1075.114, 1898.481
1075.596, 1901.802
1076.078, 1905.434
1076.560, 1908.263
1077.042, 1909.718
1077.524, 1913.621
1078.006, 1920.956
1078.489, 1927.244
1078.971, 1929.567
1079.453, 1929.725
1079.935, 1930.254
1080.417, 1931.458
1080.899, 1934.090
1081.381, 1939.465
1081.863, 1944.799
1082.345, 1949.117
1082.828, 1953.992
1083.310, 1961.240
1083.792, 1970.496
1084.274, 1979.299
1084.756, 1987.571
1085.238, 1995.572
1085.720, 2004.148
1086.202, 2011.808
1086.685, 2019.156
1087.167, 2024.572
1087.649, 2023.346
1088.131, 2014.686
1088.613, 2006.970
1089.095, 2001.784
1089.577, 1996.651
1090.059, 1987.719
1090.542, 1978.289
1091.024, 1971.802
1091.506, 1968.780
1091.988, 1967.689
1092.470, 1969.462
1092.952, 1970.069
1093.434, 1967.397
1093.916, 1963.695
1094.398, 1963.898
1094.880, 1966.377
1095.363, 1967.241
1095.845, 1964.149
1096.327, 1962.942
1096.809, 1967.120
1097.291, 1970.986
1097.773, 1970.545
1098.255, 1966.537
1098.737, 1964.582
1099.220, 1964.439
1099.702, 1964.538
1100.184, 1964.458
1100.666, 1963.969
1101.148, 1963.105
1101.630, 1961.700
1102.112, 1959.612
1102.594, 1956.850
1103.077, 1953.177
1103.559, 1948.475
1104.041, 1944.368
1104.523, 1942.721
1105.005, 1941.814
1105.487, 1939.434
1105.969, 1936.136
1106.451, 1935.502
1106.933, 1939.384
1107.416, 1940.787
1107.898, 1938.029
1108.380, 1933.616
1108.862, 1930.341
1109.344, 1927.812
1109.826, 1925.123
1110.308, 1922.109
1110.790, 1920.378
1111.272, 1920.708
1111.755, 1922.000
1112.237, 1924.819
1112.719, 1927.583
1113.201, 1925.127
1113.683, 1919.065
1114.165, 1914.636
1114.647, 1913.639
1115.129, 1913.533
1115.612, 1912.691
1116.094, 1912.923
1116.576, 1916.234
1117.058, 1922.230
1117.540, 1923.850
1118.022, 1921.314
1118.504, 1917.429
1118.986, 1911.823
1119.469, 1907.576
1119.951, 1908.039
1120.433, 1910.557
1120.915, 1911.172
1121.397, 1909.186
1121.879, 1908.148
1122.361, 1908.247
1122.843, 1908.192
1123.325, 1906.714
1123.807, 1904.826
1124.290, 1903.468
1124.772, 1902.635
1125.254, 1902.227
1125.736, 1902.370
1126.218, 1902.652
1126.700, 1903.176
1127.182, 1903.399
1127.664, 1902.060
1128.147, 1900.258
1128.629, 1899.875
1129.111, 1900.997
1129.593, 1902.680
1130.075, 1905.998
1130.557, 1907.778
1131.039, 1906.916
1131.521, 1904.551
1132.004, 1902.115
1132.486, 1900.033
1132.968, 1899.682
1133.450, 1901.535
1133.932, 1903.605
1134.414, 1906.289
1134.896, 1907.538
1135.378, 1905.886
1135.860, 1902.236
1136.343, 1900.148
1136.825, 1899.540
1137.307, 1900.115
1137.789, 1902.151
1138.271, 1904.324
1138.753, 1906.679
1139.235, 1907.978
1139.717, 1906.636
1140.199, 1902.557
1140.682, 1901.737
1141.164, 1904.121
1141.646, 1906.591
1142.128, 1907.388
1142.610, 1907.704
1143.092, 1908.662
1143.574, 1908.741
1144.056, 1908.831
1144.539, 1909.003
1145.021, 1908.531
1145.503, 1908.628
1145.985, 1908.413
1146.467, 1906.686
1146.949, 1904.762
1147.431, 1904.489
1147.913, 1905.198
1148.396, 1904.755
1148.878, 1901.755
1149.360, 1900.787
1149.842, 1902.777
1150.324, 1904.844
1150.806, 1903.014
1151.288, 1899.866
1151.770, 1899.403
1152.252, 1901.512
1152.734, 1903.470
1153.217, 1905.107
1153.699, 1905.706
1154.181, 1904.912
1154.663, 1903.446
1155.145, 1901.507
1155.627, 1899.924
1156.109, 1901.322
1156.591, 1906.072
1157.074, 1908.670
1157.556, 1905.004
1158.038, 1901.625
1158.520, 1900.217
1159.002, 1900.271
1159.484, 1901.075
1159.966, 1902.381
1160.448, 1903.613
1160.931, 1904.821
1161.413, 1904.942
1161.895, 1901.544
1162.377, 1899.186
1162.859, 1900.505
1163.341, 1904.272
1163.823, 1905.642
1164.305, 1904.991
1164.787, 1904.070
1165.270, 1903.398
1165.752, 1902.744
1166.234, 1901.565
1166.716, 1900.810
1167.198, 1901.423
1167.680, 1903.232
1168.162, 1903.551
1168.644, 1902.542
1169.126, 1901.611
1169.609, 1901.340
1170.091, 1901.422
1170.573, 1901.634
1171.055, 1902.150
1171.537, 1903.125
1172.019, 1904.584
1172.501, 1906.513
1172.983, 1908.832
1173.466, 1909.891
1173.948, 1906.044
1174.430, 1903.240
1174.912, 1908.049
1175.394, 1915.502
1175.876, 1916.953
1176.358, 1910.873
1176.840, 1908.765
1177.323, 1911.264
1177.805, 1913.209
1178.287, 1909.811
1178.769, 1905.053
1179.251, 1901.181
1179.733, 1898.867
1180.215, 1899.668
1180.697, 1904.677
1181.179, 1907.055
1181.661, 1905.918
1182.144, 1904.269
1182.626, 1905.016
1183.108, 1906.362
1183.590, 1906.078
1184.072, 1904.713
1184.554, 1905.490
1185.036, 1909.685
1185.518, 1910.470
1186.001, 1906.106
1186.483, 1901.733
1186.965, 1903.579
1187.447, 1907.902
1187.929, 1910.969
1188.411, 1912.525
1188.893, 1914.059
1189.375, 1916.256
1189.858, 1915.925
1190.340, 1911.658
1190.822, 1907.117
1191.304, 1906.308
1191.786, 1908.099
1192.268, 1912.223
1192.750, 1918.653
1193.232, 1921.359
1193.714, 1919.230
1194.197, 1916.128
1194.679, 1912.599
1195.161, 1910.070
1195.643, 1911.559
1196.125, 1914.783
1196.607, 1916.736
1197.089, 1916.827
1197.571, 1915.874
1198.053, 1913.171
1198.536, 1911.885
1199.018, 1913.631
1199.500, 1916.469
1199.982, 1918.005
1200.464, 1918.377
1200.946, 1917.729
1201.428, 1915.961
1201.910, 1913.542
1202.393, 1910.116
1202.875, 1907.299
1203.357, 1905.711
1203.839, 1905.399
1204.321, 1907.304
1204.803, 1910.264
1205.285, 1912.193
1205.767, 1911.973
1206.250, 1912.714
1206.732, 1914.925
1207.214, 1916.656
1207.696, 1916.385
1208.178, 1915.334
1208.660, 1915.502
1209.142, 1916.517
1209.624, 1917.740
1210.106, 1919.484
1210.589, 1920.287
1211.071, 1919.854
1211.553, 1919.413
1212.035, 1919.968
1212.517, 1920.886
1212.999, 1921.292
1213.481, 1921.222
1213.963, 1920.726
1214.445, 1919.095
1214.928, 1918.364
1215.410, 1918.589
1215.892, 1919.591
1216.374, 1922.108
1216.856, 1924.757
1217.338, 1925.224
1217.820, 1924.001
1218.302, 1922.235
1218.785, 1918.262
1219.267, 1918.000
1219.749, 1922.754
1220.231, 1927.056
1220.713, 1925.268
1221.195, 1921.156
1221.677, 1919.914
1222.159, 1921.019
1222.641, 1922.819
1223.124, 1926.316
1223.606, 1927.159
1224.088, 1924.596
1224.570, 1921.734
1225.052, 1921.018
1225.534, 1921.842
1226.016, 1924.594
1226.498, 1928.259
1226.980, 1929.195
1227.463, 1925.557
1227.945, 1924.008
1228.427, 1925.554
1228.909, 1926.725
1229.391, 1922.834
1229.873, 1917.880
1230.355, 1916.963
1230.837, 1919.152
1231.320, 1920.208
1231.802, 1919.314
1232.284, 1919.578
1232.766, 1921.602
1233.248, 1923.126
1233.730, 1920.969
1234.212, 1918.116
1234.694, 1917.812
1235.177, 1919.590
1235.659, 1921.011
1236.141, 1922.221
1236.623, 1921.601
1237.105, 1918.622
1237.587, 1916.536
1238.069, 1919.780
1238.551, 1923.978
1239.033, 1924.551
1239.516, 1922.619
1239.998, 1923.328
1240.480, 1926.940
1240.962, 1930.838
1241.444, 1934.793
1241.926, 1937.346
1242.408, 1936.003
1242.890, 1933.930
1243.372, 1933.604
1243.855, 1934.512
1244.337, 1935.150
1244.819, 1935.539
1245.301, 1934.553
1245.783, 1931.943
1246.265, 1929.953
1246.747, 1931.738
1247.229, 1933.512
1247.712, 1932.173
1248.194, 1932.572
1248.676, 1931.913
1249.158, 1929.941
1249.640, 1929.493
1250.122, 1926.569
1250.604, 1924.152
1251.086, 1924.872
1251.568, 1925.970
1252.051, 1925.801
1252.533, 1925.105
1253.015, 1925.615
1253.497, 1927.120
1253.979, 1928.770
1254.461, 1930.402
1254.943, 1931.781
1255.425, 1932.701
1255.907, 1933.308
1256.390, 1933.489
1256.872, 1933.581
1257.354, 1934.608
1257.836, 1936.131
1258.318, 1936.539
1258.800, 1935.591
1259.282, 1934.733
1259.764, 1934.725
1260.247, 1934.886
1260.729, 1935.344
1261.211, 1935.475
1261.693, 1933.194
1262.175, 1930.029
1262.657, 1929.824
1263.139, 1933.117
1263.621, 1935.243
1264.104, 1934.154
1264.586, 1933.759
1265.068, 1935.343
1265.550, 1937.146
1266.032, 1936.087
1266.514, 1933.721
1266.996, 1931.870
1267.478, 1930.855
1267.960, 1933.502
1268.443, 1942.411
1268.925, 1946.636
1269.407, 1942.706
1269.889, 1936.398
1270.371, 1933.899
1270.853, 1933.507
1271.335, 1933.413
1271.817, 1933.506
1272.299, 1934.271
1272.782, 1935.838
1273.264, 1937.202
1273.746, 1938.095
1274.228, 1939.008
1274.710, 1941.101
1275.192, 1942.883
1275.674, 1942.793
1276.156, 1941.204
1276.639, 1939.723
1277.121, 1938.357
1277.603, 1937.009
1278.085, 1935.607
1278.567, 1934.990
1279.049, 1936.355
1279.531, 1938.226
1280.013, 1940.317
1280.495, 1941.933
1280.978, 1940.597
1281.460, 1936.866
1281.942, 1934.241
1282.424, 1933.305
1282.906, 1933.091
1283.388, 1933.632
1283.870, 1934.030
1284.352, 1933.542
1284.834, 1933.177
1285.317, 1935.790
1285.799, 1939.979
1286.281, 1941.664
1286.763, 1940.346
1287.245, 1938.995
1287.727, 1938.359
1288.209, 1938.307
1288.691, 1939.139
1289.173, 1939.880
1289.656, 1938.612
1290.138, 1938.955
1290.620, 1938.675
1291.102, 1937.506
1291.584, 1937.605
1292.066, 1935.883
1292.548, 1933.906
1293.030, 1931.674
1293.513, 1930.441
1293.995, 1932.635
1294.477, 1935.772
1294.959, 1937.235
1295.441, 1937.075
1295.923, 1937.176
1296.405, 1937.611
1296.887, 1937.563
1297.370, 1936.872
1297.852, 1936.209
1298.334, 1935.789
1298.816, 1936.188
1299.298, 1938.403
1299.780, 1940.723
1300.262, 1941.019
1300.744, 1939.530
1301.226, 1939.094
1301.708, 1939.922
1302.191, 1940.749
1302.673, 1940.489
1303.155, 1939.601
1303.637, 1937.139
1304.119, 1932.251
##END=



