##NAMES=Nepheline
##RRUFFID=R040025
##IDEAL CHEMISTRY=Na_3_K(Al_4_Si_4_O_16_)
##LOCALITY=Bancroft, Ontario, Canada
##OWNER=RRUFF
##SOURCE=University of Arizona Mineral Museum
##DESCRIPTION=White massive
##STATUS=The identification of this mineral has been confirmed by X-ray diffraction and chemical analysis
##URL=rruff.info/R040025
##MEASURED CHEMISTRY=(Na_0.77_K_0.23_)_Î£=1_Al_1.00_Si_1.00_O_4_
115.7232, 111.3253
116.2053, 111.8157
116.6874, 112.1839
117.1695, 112.3748
117.6517, 112.2829
118.1338, 112.5481
118.6159, 113.4180
119.0980, 114.4761
119.5801, 115.3363
120.0622, 115.9012
120.5444, 116.4491
121.0265, 117.5718
121.5086, 119.3353
121.9907, 120.5163
122.4728, 120.2543
122.9549, 119.1102
123.4371, 118.5170
123.9192, 118.9750
124.4013, 119.9891
124.8834, 120.9111
125.3655, 121.7324
125.8476, 122.6245
126.3298, 123.8309
126.8119, 125.3888
127.2940, 126.7166
127.7761, 127.7145
128.2582, 128.3712
128.7403, 128.5038
129.2225, 128.0608
129.7046, 127.4393
130.1867, 127.4045
130.6688, 128.5844
131.1509, 129.1350
131.6330, 128.3776
132.1152, 127.1801
132.5973, 126.4113
133.0794, 126.5049
133.5615, 127.1756
134.0436, 127.2252
134.5257, 125.4388
135.0079, 124.3172
135.4900, 124.6362
135.9721, 125.8258
136.4542, 126.8849
136.9363, 127.1450
137.4184, 126.6630
137.9006, 126.4536
138.3827, 126.6016
138.8648, 126.8721
139.3469, 127.1363
139.8290, 127.4061
140.3111, 127.7946
140.7933, 128.3911
141.2754, 129.2113
141.7575, 130.1715
142.2396, 131.2924
142.7217, 132.5392
143.2038, 133.8555
143.6860, 135.2299
144.1681, 136.7315
144.6502, 138.5580
145.1323, 140.5645
145.6144, 142.4346
146.0965, 143.9128
146.5787, 145.1331
147.0608, 146.4864
147.5429, 147.8061
148.0250, 149.5745
148.5071, 152.2870
148.9892, 155.6502
149.4714, 158.8729
149.9535, 161.2833
150.4356, 162.8261
150.9177, 164.2914
151.3998, 165.3758
151.8819, 166.6199
152.3641, 168.4468
152.8462, 170.7445
153.3283, 172.9653
153.8104, 174.4443
154.2925, 174.8334
154.7746, 175.4055
155.2568, 176.6091
155.7389, 177.6481
156.2210, 178.0163
156.7031, 177.6180
157.1852, 176.6917
157.6673, 175.5662
158.1495, 173.8286
158.6316, 172.6590
159.1137, 172.3294
159.5958, 172.4233
160.0779, 172.6207
160.5600, 172.8251
161.0422, 172.9222
161.5243, 172.6224
162.0064, 171.7849
162.4885, 170.9514
162.9706, 170.2196
163.4527, 169.5724
163.9349, 168.9482
164.4170, 168.2727
164.8991, 167.7006
165.3812, 167.5598
165.8633, 168.0160
166.3454, 168.3660
166.8276, 168.1336
167.3097, 167.3891
167.7918, 166.6451
168.2739, 166.0490
168.7560, 165.5959
169.2381, 165.2469
169.7203, 164.9871
170.2024, 164.8782
170.6845, 164.9471
171.1666, 165.1725
171.6487, 165.7075
172.1308, 166.9077
172.6130, 168.2960
173.0951, 169.5682
173.5772, 170.6467
174.0593, 171.5008
174.5414, 171.9884
175.0235, 171.7590
175.5057, 171.9125
175.9878, 172.7462
176.4699, 173.9568
176.9520, 175.2572
177.4341, 176.5090
177.9162, 177.8193
178.3984, 179.5622
178.8805, 182.2316
179.3626, 184.7264
179.8447, 186.8526
180.3268, 188.7582
180.8089, 190.6081
181.2911, 192.4726
181.7732, 194.3938
182.2553, 196.6542
182.7374, 199.6082
183.2195, 202.5208
183.7016, 205.1456
184.1838, 207.6393
184.6659, 210.2914
185.1480, 213.2969
185.6301, 216.6316
186.1122, 219.9968
186.5943, 223.4152
187.0764, 226.8135
187.5586, 230.1246
188.0407, 233.3723
188.5228, 236.6707
189.0049, 240.0893
189.4870, 243.6057
189.9691, 247.1337
190.4513, 250.6707
190.9334, 254.2146
191.4155, 257.7691
191.8976, 261.3197
192.3797, 264.8921
192.8618, 268.5230
193.3440, 272.1656
193.8261, 275.6814
194.3082, 279.0848
194.7903, 282.3270
195.2724, 285.2388
195.7545, 287.7549
196.2367, 290.3414
196.7188, 293.5870
197.2009, 297.0403
197.6830, 300.0990
198.1651, 302.6586
198.6472, 304.6737
199.1294, 305.9473
199.6115, 306.1928
200.0936, 306.3905
200.5757, 307.2869
201.0578, 308.3510
201.5399, 308.9474
202.0221, 308.8705
202.5042, 308.0614
202.9863, 306.2679
203.4684, 303.0580
203.9505, 299.4912
204.4326, 295.9420
204.9148, 292.3041
205.3969, 288.4609
205.8790, 284.3784
206.3611, 279.9986
206.8432, 274.9042
207.3253, 268.4549
207.8075, 261.9730
208.2896, 255.8725
208.7717, 249.9288
209.2538, 243.7031
209.7359, 236.9160
210.2180, 229.6416
210.7002, 222.8282
211.1823, 216.7263
211.6644, 210.8597
212.1465, 205.0886
212.6286, 199.4986
213.1107, 194.2458
213.5929, 189.4357
214.0750, 185.0498
214.5571, 180.9886
215.0392, 177.3070
215.5213, 173.8221
216.0034, 170.5330
216.4856, 167.4186
216.9677, 164.4235
217.4498, 161.4331
217.9319, 158.5253
218.4140, 156.5683
218.8961, 156.6901
219.3783, 156.4164
219.8604, 154.4832
220.3425, 151.2901
220.8246, 148.0642
221.3067, 145.4657
221.7888, 143.5515
222.2710, 142.3148
222.7531, 142.3217
223.2352, 142.3801
223.7173, 141.9196
224.1994, 140.9900
224.6815, 139.8597
225.1637, 138.6102
225.6458, 137.3043
226.1279, 136.1708
226.6100, 135.5295
227.0921, 134.7462
227.5742, 133.2280
228.0564, 131.0560
228.5385, 129.0149
229.0206, 127.6143
229.5027, 126.6101
229.9848, 125.4607
230.4669, 124.0844
230.9491, 122.6168
231.4312, 121.0879
231.9133, 119.4926
232.3954, 118.1081
232.8775, 117.2972
233.3596, 116.6703
233.8418, 115.7316
234.3239, 114.3728
234.8060, 112.7582
235.2881, 110.8899
235.7702, 108.7019
236.2523, 106.8872
236.7345, 106.1174
237.2166, 105.6602
237.6987, 104.8542
238.1808, 103.5114
238.6629, 102.0481
239.1451, 100.9878
239.6272, 100.3942
240.1093, 99.85451
240.5914, 99.33900
241.0735, 98.78548
241.5556, 98.11552
242.0378, 97.30390
242.5199, 96.48380
243.0020, 95.80257
243.4841, 95.26472
243.9662, 94.87157
244.4483, 94.75719
244.9305, 94.69441
245.4126, 94.56528
245.8947, 94.33719
246.3768, 94.00443
246.8589, 93.50734
247.3410, 92.73037
247.8231, 92.15839
248.3053, 91.93104
248.7874, 91.83424
249.2695, 91.84379
249.7516, 91.91117
250.2337, 91.86282
250.7158, 91.38882
251.1980, 90.19959
251.6801, 89.38480
252.1622, 89.11927
252.6443, 89.06027
253.1264, 89.05537
253.6085, 89.06480
254.0907, 89.09663
254.5728, 89.13612
255.0549, 89.10113
255.5370, 89.34856
256.0191, 90.20183
256.5013, 91.02656
256.9834, 91.42056
257.4655, 91.39101
257.9476, 91.23293
258.4297, 91.24635
258.9118, 91.41941
259.3940, 91.84095
259.8761, 92.71366
260.3582, 93.60258
260.8403, 94.22424
261.3224, 94.61662
261.8045, 95.08503
262.2867, 96.00046
262.7688, 97.55096
263.2509, 98.16203
263.7330, 97.31334
264.2151, 96.22978
264.6972, 95.43850
265.1794, 94.93217
265.6615, 94.44824
266.1436, 93.78767
266.6257, 92.94437
267.1078, 91.96658
267.5899, 90.86362
268.0721, 89.64468
268.5542, 88.15188
269.0363, 86.52020
269.5184, 85.12394
270.0005, 84.28098
270.4826, 83.93079
270.9648, 83.20958
271.4469, 81.89478
271.9290, 80.53236
272.4111, 79.19797
272.8932, 77.96564
273.3753, 77.01551
273.8575, 76.50832
274.3396, 76.32661
274.8217, 75.84988
275.3038, 74.78381
275.7859, 73.82382
276.2680, 73.32409
276.7502, 73.08217
277.2323, 72.61631
277.7144, 71.64394
278.1965, 70.41869
278.6786, 69.75290
279.1607, 69.94717
279.6428, 70.02374
280.1249, 69.58424
280.6071, 68.86429
281.0892, 68.25567
281.5713, 67.87476
282.0534, 67.32413
282.5355, 67.70556
283.0176, 67.85474
283.4998, 67.78415
283.9819, 66.83563
284.4640, 67.02081
284.9461, 66.75166
285.4282, 66.46387
285.9103, 66.80860
286.3925, 65.98776
286.8746, 66.32246
287.3567, 66.19592
287.8388, 66.28046
288.3209, 65.90788
288.8030, 65.67649
289.2852, 65.90236
289.7673, 65.87505
290.2494, 65.44984
290.7315, 65.54781
291.2136, 64.71104
291.6957, 64.98283
292.1779, 65.44909
292.6600, 65.73402
293.1421, 65.78352
293.6242, 65.67194
294.1063, 65.35571
294.5884, 64.90102
295.0706, 64.65978
295.5527, 64.83906
296.0348, 65.12502
296.5169, 65.26957
296.9990, 65.26858
297.4811, 65.17382
297.9633, 64.96079
298.4454, 64.68786
298.9275, 64.52560
299.4096, 64.47721
299.8917, 64.54248
300.3738, 64.83388
300.8560, 65.30167
301.3381, 65.57604
301.8202, 65.41683
302.3023, 65.01102
302.7844, 64.73874
303.2665, 64.59126
303.7487, 64.59386
304.2308, 64.87589
304.7129, 65.34628
305.1950, 65.67010
305.6771, 65.69830
306.1592, 65.59039
306.6414, 65.59785
307.1235, 65.73866
307.6056, 65.82081
308.0877, 65.59395
308.5698, 65.25704
309.0519, 65.33537
309.5341, 66.05152
310.0162, 66.91569
310.4983, 67.29812
310.9804, 67.28212
311.4625, 67.40840
311.9446, 68.08897
312.4268, 68.93342
312.9089, 69.29016
313.3910, 69.02635
313.8731, 68.62840
314.3552, 68.39540
314.8373, 68.33974
315.3195, 68.54750
315.8016, 69.21944
316.2837, 70.05740
316.7658, 70.79173
317.2479, 71.41920
317.7300, 71.87790
318.2122, 72.08035
318.6943, 72.08766
319.1764, 72.07059
319.6585, 72.04560
320.1406, 71.99415
320.6227, 71.82446
321.1049, 71.57199
321.5870, 71.51494
322.0691, 71.85247
322.5512, 72.39259
323.0333, 72.76844
323.5154, 72.93339
323.9976, 73.08466
324.4797, 73.20875
324.9618, 73.38634
325.4439, 73.89499
325.9260, 74.88686
326.4081, 76.09779
326.8903, 77.30248
327.3724, 78.51604
327.8545, 79.42395
328.3366, 79.63942
328.8187, 79.54782
329.3008, 79.77583
329.7830, 80.43124
330.2651, 81.35159
330.7472, 82.51409
331.2293, 83.85958
331.7114, 85.05990
332.1935, 86.01283
332.6757, 86.81864
333.1578, 87.41019
333.6399, 87.79151
334.1220, 88.58331
334.6041, 90.45867
335.0862, 93.06901
335.5684, 95.00797
336.0505, 95.80119
336.5326, 96.35951
337.0147, 97.18190
337.4968, 98.25063
337.9789, 99.49920
338.4611, 100.9349
338.9432, 102.5012
339.4253, 104.1195
339.9074, 105.8767
340.3895, 107.4532
340.8716, 108.5346
341.3538, 109.3681
341.8359, 110.4414
342.3180, 111.8977
342.8001, 113.6293
343.2822, 115.7086
343.7643, 118.2478
344.2465, 120.1057
344.7286, 120.4584
345.2107, 120.3336
345.6928, 121.1304
346.1749, 123.0301
346.6570, 124.6212
347.1392, 124.4583
347.6213, 122.4572
348.1034, 121.1551
348.5855, 121.4904
349.0676, 121.7333
349.5497, 120.6293
350.0319, 118.3452
350.5140, 115.8310
350.9961, 113.5556
351.4782, 111.5347
351.9603, 109.8458
352.4424, 108.5620
352.9246, 107.4443
353.4067, 106.7032
353.8888, 106.0322
354.3709, 104.7552
354.8530, 102.5527
355.3351, 100.0047
355.8173, 98.23319
356.2994, 97.51653
356.7815, 96.91416
357.2636, 96.27950
357.7457, 95.76315
358.2278, 95.55338
358.7100, 95.66767
359.1921, 95.92007
359.6742, 96.10103
360.1563, 96.17615
360.6384, 96.42728
361.1205, 96.95340
361.6027, 97.54456
362.0848, 98.04697
362.5669, 98.50471
363.0490, 99.10839
363.5311, 100.0094
364.0132, 101.1534
364.4954, 102.0790
364.9775, 102.3866
365.4596, 102.9570
365.9417, 103.9218
366.4238, 105.2633
366.9059, 107.0690
367.3881, 109.3781
367.8702, 111.8607
368.3523, 113.8195
368.8344, 114.6017
369.3165, 115.9228
369.7986, 118.1789
370.2808, 120.6551
370.7629, 122.6955
371.2450, 124.2943
371.7271, 126.0552
372.2092, 128.6866
372.6913, 132.4130
373.1735, 135.6682
373.6556, 137.9364
374.1377, 140.2722
374.6198, 142.8901
375.1019, 145.8769
375.5840, 149.3318
376.0662, 153.3702
376.5483, 157.8398
377.0304, 161.9031
377.5125, 165.0102
377.9946, 168.5025
378.4767, 172.7312
378.9589, 177.3160
379.4410, 181.8055
379.9231, 186.0647
380.4052, 190.4261
380.8873, 195.5602
381.3694, 201.8167
381.8516, 207.6475
382.3337, 212.3451
382.8158, 217.0821
383.2979, 222.6190
383.7800, 228.8429
384.2621, 235.0098
384.7443, 240.3680
385.2264, 244.9993
385.7085, 250.2122
386.1906, 256.2463
386.6727, 262.5790
387.1548, 269.1037
387.6370, 275.7125
388.1191, 282.1385
388.6012, 288.2071
389.0833, 294.2411
389.5654, 300.7881
390.0475, 307.9091
390.5297, 315.2627
391.0118, 323.3404
391.4939, 331.2733
391.9760, 338.2438
392.4581, 344.1317
392.9402, 349.5986
393.4224, 354.9153
393.9045, 360.1714
394.3866, 366.0396
394.8687, 372.9994
395.3508, 379.9327
395.8329, 386.1425
396.3151, 391.6591
396.7972, 396.4503
397.2793, 400.5840
397.7614, 403.9444
398.2435, 406.2363
398.7256, 407.3963
399.2078, 408.2176
399.6899, 409.1413
400.1720, 409.9767
400.6541, 410.3663
401.1362, 410.2040
401.6183, 409.7671
402.1004, 409.4955
402.5826, 409.1002
403.0647, 407.4985
403.5468, 404.0412
404.0289, 400.1647
404.5110, 398.1158
404.9931, 398.0274
405.4753, 397.6388
405.9574, 396.4998
406.4395, 394.9138
406.9216, 393.0226
407.4037, 390.8833
407.8858, 388.9054
408.3680, 387.6050
408.8501, 386.8144
409.3322, 384.6397
409.8143, 380.2524
410.2964, 375.6172
410.7785, 371.6356
411.2607, 367.8354
411.7428, 363.3270
412.2249, 357.7679
412.7070, 351.3995
413.1891, 344.6908
413.6712, 337.6852
414.1534, 330.2207
414.6355, 322.1015
415.1176, 313.6925
415.5997, 305.3369
416.0818, 297.0229
416.5639, 288.4278
417.0461, 279.1480
417.5282, 269.1782
418.0103, 260.1294
418.4924, 252.8954
418.9745, 245.6672
419.4566, 237.9137
419.9388, 229.9593
420.4209, 222.2044
420.9030, 214.8931
421.3851, 207.8915
421.8672, 200.9604
422.3493, 193.8682
422.8315, 187.4127
423.3136, 181.8071
423.7957, 176.6419
424.2778, 171.8432
424.7599, 167.2899
425.2420, 162.7089
425.7242, 157.7517
426.2063, 152.4788
426.6884, 147.6492
427.1705, 143.2297
427.6526, 139.3654
428.1347, 136.3764
428.6169, 133.8190
429.0990, 130.9930
429.5811, 127.5325
430.0632, 124.0435
430.5453, 121.4480
431.0274, 119.7693
431.5096, 117.8052
431.9917, 114.9751
432.4738, 111.9698
432.9559, 109.5134
433.4380, 107.6005
433.9201, 105.8050
434.4023, 103.8406
434.8844, 101.8906
435.3665, 100.3418
435.8486, 99.25144
436.3307, 98.30849
436.8128, 97.33337
437.2950, 96.32877
437.7771, 95.31940
438.2592, 94.25888
438.7413, 93.23806
439.2234, 92.47877
439.7055, 91.79964
440.1877, 90.61397
440.6698, 88.60772
441.1519, 86.47430
441.6340, 85.39400
442.1161, 85.84280
442.5982, 85.98215
443.0804, 85.33604
443.5625, 84.64627
444.0446, 84.49403
444.5267, 84.86271
445.0088, 85.39719
445.4909, 85.85889
445.9731, 86.23828
446.4552, 86.44774
446.9373, 86.22517
447.4194, 86.14839
447.9015, 86.33327
448.3836, 86.69151
448.8658, 87.13509
449.3479, 87.63155
449.8300, 88.18251
450.3121, 88.77560
450.7942, 89.38621
451.2763, 90.13271
451.7585, 91.60393
452.2406, 92.65076
452.7227, 92.28789
453.2048, 91.13954
453.6869, 90.66572
454.1690, 91.88611
454.6512, 94.11079
455.1333, 95.50853
455.6154, 95.73620
456.0975, 96.15742
456.5796, 97.52109
457.0617, 99.06055
457.5439, 100.1249
458.0260, 100.6208
458.5081, 101.1681
458.9902, 102.2157
459.4723, 103.6878
459.9544, 105.3681
460.4366, 107.3051
460.9187, 109.2680
461.4008, 111.2223
461.8829, 113.0728
462.3650, 114.5297
462.8471, 115.5258
463.3293, 116.1418
463.8114, 116.4962
464.2935, 116.5358
464.7756, 116.0161
465.2577, 114.7879
465.7398, 113.1195
466.2220, 111.5291
466.7041, 110.1917
467.1862, 108.2030
467.6683, 104.8822
468.1504, 101.2833
468.6325, 98.42097
469.1147, 96.19808
469.5968, 93.77481
470.0789, 90.50945
470.5610, 86.54395
471.0431, 82.89184
471.5252, 79.38438
472.0074, 76.39518
472.4895, 74.14045
472.9716, 72.32861
473.4537, 70.77779
473.9358, 69.40353
474.4179, 68.07005
474.9001, 66.60152
475.3822, 64.97466
475.8643, 63.47129
476.3464, 62.00154
476.8285, 60.78328
477.3106, 59.94170
477.7928, 59.38340
478.2749, 59.00356
478.7570, 58.79768
479.2391, 58.59293
479.7212, 58.05268
480.2033, 57.12334
480.6855, 56.30072
481.1676, 55.70647
481.6497, 55.24261
482.1318, 54.87981
482.6139, 54.59194
483.0960, 54.21559
483.5782, 53.56307
484.0603, 52.81929
484.5424, 52.33773
485.0245, 52.14197
485.5066, 51.79828
485.9887, 50.93207
486.4709, 49.83852
486.9530, 49.29649
487.4351, 49.51839
487.9172, 49.77895
488.3993, 49.86658
488.8814, 49.83498
489.3636, 49.76832
489.8457, 49.67887
490.3278, 49.48265
490.8099, 49.06359
491.2920, 48.40653
491.7741, 47.96364
492.2563, 47.78850
492.7384, 47.72761
493.2205, 47.89539
493.7026, 48.09670
494.1847, 47.99316
494.6668, 47.47496
495.1490, 46.86492
495.6311, 46.74767
496.1132, 47.40944
496.5953, 47.63506
497.0774, 47.05233
497.5595, 46.37520
498.0417, 45.81078
498.5238, 45.37550
499.0059, 45.04475
499.4880, 44.80011
499.9701, 44.65917
500.4522, 44.68701
500.9344, 44.91221
501.4165, 45.13286
501.8986, 45.39252
502.3807, 45.52936
502.8628, 45.35707
503.3449, 44.88607
503.8271, 44.40239
504.3092, 43.98096
504.7913, 43.65522
505.2734, 43.51259
505.7555, 43.55631
506.2376, 43.63044
506.7198, 43.65332
507.2019, 43.63887
507.6840, 43.64107
508.1661, 43.73283
508.6482, 43.70549
509.1303, 43.34109
509.6125, 42.91314
510.0946, 42.80097
510.5767, 43.03214
511.0588, 43.26823
511.5409, 43.17762
512.0230, 42.76339
512.5051, 42.52842
512.9872, 42.80504
513.4694, 42.86517
513.9515, 42.24031
514.4336, 41.48014
514.9157, 41.32354
515.3978, 41.94043
515.8799, 42.70654
516.3621, 42.78952
516.8442, 42.11129
517.3263, 41.57338
517.8084, 41.25114
518.2905, 40.98233
518.7726, 40.64338
519.2548, 40.31298
519.7369, 40.12807
520.2190, 40.14766
520.7011, 40.29140
521.1832, 40.52612
521.6653, 40.83166
522.1475, 41.00847
522.6296, 40.91370
523.1117, 40.87157
523.5938, 41.52227
524.0759, 42.72015
524.5580, 43.17121
525.0402, 41.88081
525.5223, 40.46258
526.0044, 40.24435
526.4865, 40.87346
526.9686, 41.20633
527.4507, 40.72912
527.9329, 39.84910
528.4150, 39.31640
528.8971, 39.26310
529.3792, 39.28931
529.8613, 39.35239
530.3434, 39.52645
530.8256, 39.97932
531.3077, 40.57726
531.7898, 41.00653
532.2719, 41.07351
532.7540, 40.89483
533.2361, 40.80415
533.7183, 40.92524
534.2004, 40.77985
534.6825, 39.84990
535.1646, 38.97309
535.6467, 38.77472
536.1288, 39.14132
536.6110, 39.40503
537.0931, 38.96002
537.5752, 38.26713
538.0573, 38.30413
538.5394, 39.10974
539.0215, 39.79490
539.5037, 40.04199
539.9858, 39.91164
540.4679, 39.43540
540.9500, 38.52499
541.4321, 37.81117
541.9142, 37.49704
542.3964, 37.44353
542.8785, 37.61681
543.3606, 37.95247
543.8427, 38.21019
544.3248, 38.22314
544.8069, 38.06591
545.2891, 38.01603
545.7712, 38.26728
546.2533, 38.35621
546.7354, 38.07771
547.2175, 37.78138
547.6996, 37.77555
548.1818, 38.02718
548.6639, 38.26989
549.1460, 38.30275
549.6281, 38.15652
550.1102, 37.95217
550.5923, 37.67752
551.0745, 37.37419
551.5566, 36.87921
552.0387, 36.47145
552.5208, 36.42802
553.0029, 36.76136
553.4850, 37.15308
553.9672, 37.51061
554.4493, 37.77671
554.9314, 37.81014
555.4135, 37.60327
555.8956, 37.37014
556.3777, 37.22341
556.8599, 37.13219
557.3420, 37.00179
557.8241, 36.75948
558.3062, 36.65108
558.7883, 36.85236
559.2704, 37.11980
559.7526, 37.30032
560.2347, 37.34148
560.7168, 37.12309
561.1989, 36.50816
561.6810, 35.65525
562.1631, 35.32658
562.6453, 35.94445
563.1274, 36.37202
563.6095, 36.32285
564.0916, 36.18922
564.5737, 36.33653
565.0558, 36.71416
565.5380, 36.90542
566.0201, 36.46265
566.5022, 35.69540
566.9843, 35.49252
567.4664, 35.95520
567.9485, 36.31599
568.4307, 36.21095
568.9128, 35.91998
569.3949, 35.82590
569.8770, 35.93998
570.3591, 35.66277
570.8412, 36.16839
571.3234, 36.44177
571.8055, 36.49541
572.2876, 35.67109
572.7697, 35.98046
573.2518, 35.83551
573.7339, 35.67192
574.2161, 36.14084
574.6982, 35.44423
575.1803, 35.90313
575.6624, 35.90077
576.1445, 36.10952
576.6266, 35.86113
577.1088, 35.75393
577.5909, 36.10402
578.0730, 36.20091
578.5551, 35.89990
579.0372, 36.12207
579.5193, 35.40948
580.0015, 35.51714
580.4836, 35.97873
580.9657, 35.70070
581.4478, 35.93122
581.9299, 35.96807
582.4120, 35.12469
582.8942, 35.81210
583.3763, 35.83749
583.8584, 35.18314
584.3405, 35.81810
584.8226, 35.25746
585.3047, 35.12358
585.7869, 35.31085
586.2690, 35.16333
586.7511, 35.54366
587.2332, 35.37000
587.7153, 35.70462
588.1974, 35.79781
588.6796, 35.19761
589.1617, 34.30285
589.6438, 33.74694
590.1259, 33.76219
590.6080, 34.07966
591.0901, 34.38519
591.5723, 34.69551
592.0544, 34.79142
592.5365, 34.37169
593.0186, 34.18290
593.5007, 34.92858
593.9828, 35.98655
594.4650, 36.35817
594.9471, 35.66644
595.4292, 34.81318
595.9113, 34.41205
596.3934, 34.36760
596.8755, 34.55501
597.3577, 34.96773
597.8398, 35.26137
598.3219, 35.11401
598.8040, 34.61643
599.2861, 34.39440
599.7682, 34.69879
600.2504, 34.90166
600.7325, 34.83220
601.2146, 34.66823
601.6967, 34.54482
602.1788, 34.49432
602.6609, 34.52560
603.1431, 34.66733
603.6252, 34.87502
604.1073, 34.92481
604.5894, 34.71926
605.0715, 34.61140
605.5536, 34.76213
606.0358, 34.98964
606.5179, 35.26134
607.0000, 35.53214
607.4821, 35.55554
607.9642, 34.90696
608.4464, 34.14691
608.9285, 34.06612
609.4106, 34.55470
609.8927, 34.92533
610.3748, 34.89799
610.8569, 34.70063
611.3391, 34.68229
611.8212, 34.92599
612.3033, 35.01608
612.7854, 34.85572
613.2675, 34.65230
613.7496, 34.42572
614.2318, 34.23953
614.7139, 34.22383
615.1960, 34.41570
615.6781, 34.63036
616.1602, 34.59816
616.6423, 34.30659
617.1245, 34.02904
617.6066, 33.68534
618.0887, 33.50594
618.5708, 33.77046
619.0529, 34.20350
619.5350, 34.39441
620.0172, 34.21104
620.4993, 34.08012
620.9814, 34.44764
621.4635, 34.93690
621.9456, 34.80254
622.4277, 34.03963
622.9099, 33.46925
623.3920, 33.65899
623.8741, 34.39221
624.3562, 34.90979
624.8383, 35.20928
625.3204, 35.27132
625.8026, 34.91217
626.2847, 34.48307
626.7668, 34.15392
627.2489, 33.95256
627.7310, 33.89206
628.2131, 34.00295
628.6953, 34.18100
629.1774, 34.26899
629.6595, 34.26788
630.1416, 34.09143
630.6237, 33.58807
631.1058, 33.12853
631.5880, 33.08121
632.0701, 33.34448
632.5522, 33.63438
633.0343, 33.94129
633.5164, 34.22752
633.9985, 34.54924
634.4807, 34.81166
634.9628, 34.80093
635.4449, 34.50593
635.9270, 34.21325
636.4091, 34.19600
636.8912, 34.42414
637.3734, 34.57512
637.8555, 34.52747
638.3376, 34.60246
638.8197, 35.06720
639.3018, 35.49494
639.7839, 35.46682
640.2661, 35.03487
640.7482, 34.67136
641.2303, 34.76830
641.7124, 35.01867
642.1945, 34.86337
642.6766, 34.34666
643.1588, 33.99080
643.6409, 33.99130
644.1230, 34.13416
644.6051, 34.16317
645.0872, 34.05926
645.5693, 33.99482
646.0515, 34.02433
646.5336, 34.03188
647.0157, 33.86806
647.4978, 33.70041
647.9799, 33.82749
648.4620, 34.28360
648.9442, 34.71978
649.4263, 34.73089
649.9084, 34.37620
650.3905, 34.23436
650.8726, 34.37989
651.3547, 34.53661
651.8369, 34.54083
652.3190, 34.55896
652.8011, 34.85913
653.2832, 35.45454
653.7653, 35.77949
654.2474, 35.40961
654.7296, 34.84327
655.2117, 34.52114
655.6938, 34.41066
656.1759, 34.34830
656.6580, 34.26944
657.1401, 34.22685
657.6223, 34.29768
658.1044, 34.49055
658.5865, 34.74538
659.0686, 35.27758
659.5507, 35.62143
660.0328, 35.46061
660.5150, 35.15112
660.9971, 35.17162
661.4792, 35.60353
661.9613, 35.96716
662.4434, 35.68615
662.9255, 35.10674
663.4077, 35.12661
663.8898, 35.77010
664.3719, 36.26420
664.8540, 36.18213
665.3361, 35.89676
665.8182, 36.09320
666.3004, 36.97181
666.7825, 37.62732
667.2646, 37.87867
667.7467, 38.07796
668.2288, 38.41037
668.7109, 38.80673
669.1931, 39.15874
669.6752, 39.42650
670.1573, 39.59326
670.6394, 39.56476
671.1215, 39.36914
671.6036, 39.40302
672.0858, 39.71866
672.5679, 40.10127
673.0500, 40.44375
673.5321, 40.80930
674.0142, 41.33113
674.4963, 42.05289
674.9785, 42.61842
675.4606, 42.87708
675.9427, 42.97783
676.4248, 42.88583
676.9069, 42.74500
677.3890, 42.97997
677.8712, 43.75275
678.3533, 44.55486
678.8354, 44.54985
679.3175, 43.60182
679.7996, 43.19762
680.2817, 43.78333
680.7639, 44.23774
681.2460, 44.08711
681.7281, 43.66495
682.2102, 43.34392
682.6923, 43.17739
683.1744, 42.92841
683.6566, 42.39953
684.1387, 41.76144
684.6208, 41.11331
685.1029, 40.52551
685.5850, 40.34446
686.0671, 40.76691
686.5493, 41.27738
687.0314, 41.04974
687.5135, 39.90027
687.9956, 39.00874
688.4777, 38.36639
688.9598, 38.00572
689.4420, 38.18079
689.9241, 38.51213
690.4062, 38.55214
690.8883, 38.23005
691.3704, 37.87414
691.8525, 37.69703
692.3347, 37.66294
692.8168, 37.79049
693.2989, 38.05552
693.7810, 38.08731
694.2631, 37.69670
694.7452, 37.15909
695.2274, 36.84539
695.7095, 36.78267
696.1916, 36.80273
696.6737, 37.16654
697.1558, 37.29646
697.6379, 36.74746
698.1201, 36.01323
698.6022, 35.72100
699.0843, 35.93853
699.5664, 36.17890
700.0485, 35.99617
700.5306, 35.56197
701.0128, 35.28005
701.4949, 35.14714
701.9770, 35.31770
702.4591, 35.97839
702.9412, 36.68779
703.4233, 36.88105
703.9055, 36.52253
704.3876, 36.30773
704.8697, 36.57550
705.3518, 36.59177
705.8339, 35.71735
706.3160, 34.67591
706.7982, 34.36757
707.2803, 34.84859
707.7624, 35.50137
708.2445, 35.86994
708.7266, 36.01671
709.2087, 36.14362
709.6909, 36.27325
710.1730, 36.06794
710.6550, 35.17256
711.1371, 34.38260
711.6193, 34.67875
712.1014, 35.82464
712.5835, 36.41584
713.0656, 35.89886
713.5477, 35.39535
714.0298, 35.38318
714.5120, 35.50702
714.9941, 35.32167
715.4762, 34.85561
715.9583, 34.51128
716.4404, 34.58073
716.9225, 34.86436
717.4047, 34.84507
717.8868, 34.47105
718.3689, 34.31749
718.8510, 34.60363
719.3331, 34.88188
719.8152, 34.80874
720.2974, 34.48699
720.7795, 34.15192
721.2616, 33.77666
721.7437, 33.48140
722.2258, 33.22636
722.7079, 33.12999
723.1901, 33.41008
723.6722, 33.96148
724.1543, 34.47945
724.6364, 34.81069
725.1185, 34.93656
725.6006, 34.72811
726.0828, 34.14286
726.5649, 33.88514
727.0470, 34.16351
727.5291, 34.39629
728.0112, 34.16915
728.4933, 33.76535
728.9755, 33.69501
729.4576, 34.09554
729.9397, 34.22977
730.4218, 33.48927
730.9039, 32.75659
731.3860, 32.87074
731.8682, 33.51529
732.3503, 33.91763
732.8324, 33.81060
733.3145, 33.54768
733.7966, 33.56748
734.2787, 33.84990
734.7609, 34.08440
735.2430, 34.27892
735.7251, 34.40404
736.2072, 34.48151
736.6893, 34.45154
737.1714, 34.16539
737.6536, 33.63991
738.1357, 33.33660
738.6178, 33.62193
739.0999, 33.85667
739.5820, 33.56266
740.0641, 33.06189
740.5463, 32.84718
741.0284, 32.98604
741.5105, 33.15642
741.9926, 33.06875
742.4747, 32.84067
742.9568, 32.90957
743.4390, 33.34484
743.9211, 33.63001
744.4032, 33.57628
744.8853, 33.48973
745.3674, 33.74279
745.8495, 34.17585
746.3317, 34.22716
746.8138, 33.50641
747.2959, 32.96626
747.7780, 33.03570
748.2601, 33.31878
748.7422, 33.50026
749.2244, 33.54822
749.7065, 33.51252
750.1886, 33.41667
750.6707, 33.28156
751.1528, 32.78470
751.6349, 33.30854
752.1171, 33.60014
752.5992, 33.67199
753.0813, 32.86589
753.5634, 33.19348
754.0455, 33.06674
754.5276, 32.92136
755.0098, 33.40852
755.4919, 32.73011
755.9740, 33.20723
756.4561, 33.22309
756.9382, 33.45005
757.4203, 33.21988
757.9025, 33.13091
758.3846, 33.49921
758.8667, 33.61432
759.3488, 33.33152
759.8309, 33.28909
760.3130, 33.35366
760.7952, 33.14280
761.2773, 33.06797
761.7594, 33.30199
762.2415, 33.57579
762.7236, 33.61023
763.2057, 33.41057
763.6879, 33.22281
764.1700, 33.11969
764.6521, 32.92969
765.1342, 32.46358
765.6163, 32.02806
766.0984, 31.83607
766.5806, 31.90259
767.0627, 32.22379
767.5448, 32.86230
768.0269, 33.49462
768.5090, 33.69987
768.9911, 33.56890
769.4733, 33.36443
769.9554, 33.11589
770.4375, 32.96892
770.9196, 33.03061
771.4017, 33.20377
771.8839, 33.25522
772.3660, 33.07328
772.8481, 33.09258
773.3302, 33.56657
773.8123, 33.94075
774.2944, 33.92764
774.7766, 33.76468
775.2587, 33.77691
775.7408, 34.00768
776.2229, 34.17470
776.7050, 33.96215
777.1871, 33.70030
777.6693, 33.85537
778.1514, 34.30194
778.6335, 34.69287
779.1156, 34.92636
779.5977, 34.90654
780.0798, 34.48788
780.5620, 33.76104
781.0441, 33.33416
781.5262, 33.34820
782.0083, 33.32529
782.4904, 32.97996
782.9725, 32.80762
783.4547, 33.34597
783.9368, 34.26111
784.4189, 34.67342
784.9010, 34.16529
785.3831, 33.75262
785.8652, 34.15467
786.3474, 34.71697
786.8295, 34.68016
787.3116, 34.16455
787.7937, 33.70714
788.2758, 33.54652
788.7579, 33.53369
789.2401, 33.46559
789.7222, 33.34690
790.2043, 33.26767
790.6864, 33.20481
791.1685, 33.29738
791.6506, 33.73455
792.1328, 34.19346
792.6149, 34.12642
793.0970, 33.52630
793.5791, 33.43476
794.0612, 34.62972
794.5433, 35.43970
795.0255, 35.03147
795.5076, 34.21074
795.9897, 33.62749
796.4718, 33.41006
796.9539, 33.59408
797.4360, 34.31537
797.9182, 35.07476
798.4003, 35.08728
798.8824, 34.53429
799.3645, 34.13090
799.8466, 33.96433
800.3287, 33.86128
800.8109, 33.73098
801.2930, 33.57550
801.7751, 33.37478
802.2572, 33.03014
802.7393, 32.97292
803.2214, 33.59067
803.7036, 34.04436
804.1857, 33.98754
804.6678, 33.72225
805.1499, 33.54812
805.6320, 33.50519
806.1141, 33.55273
806.5963, 33.77008
807.0784, 33.97561
807.5605, 34.04156
808.0426, 33.97736
808.5247, 33.72012
809.0068, 33.30787
809.4890, 33.02280
809.9711, 33.08493
810.4532, 33.39048
810.9353, 33.64444
811.4174, 33.81686
811.8995, 34.22455
812.3817, 35.08801
812.8638, 35.77298
813.3459, 35.81886
813.8280, 35.48997
814.3101, 35.37288
814.7922, 35.55339
815.2744, 35.58163
815.7565, 35.23274
816.2386, 34.89351
816.7207, 34.79008
817.2028, 34.80511
817.6849, 34.84224
818.1671, 34.83923
818.6492, 34.59698
819.1313, 33.71567
819.6134, 32.79496
820.0955, 33.04918
820.5776, 34.19374
821.0598, 34.92292
821.5419, 34.96770
822.0240, 34.77768
822.5061, 34.66115
822.9882, 34.60066
823.4703, 34.53792
823.9525, 34.46286
824.4346, 34.40788
824.9167, 34.25806
825.3988, 34.27369
825.8809, 34.73338
826.3630, 35.32616
826.8452, 35.68609
827.3273, 35.77242
827.8094, 35.54479
828.2915, 34.50941
828.7736, 33.63098
829.2557, 33.85917
829.7379, 34.61804
830.2200, 34.91279
830.7021, 34.60927
831.1842, 34.31094
831.6663, 34.51608
832.1484, 34.92671
832.6306, 34.69140
833.1127, 33.87077
833.5948, 34.01641
834.0769, 35.60122
834.5590, 36.76208
835.0411, 36.17619
835.5233, 34.56890
836.0054, 33.67095
836.4875, 33.74602
836.9696, 33.77594
837.4517, 33.66633
837.9338, 33.62755
838.4160, 33.69755
838.8981, 33.89252
839.3802, 34.36578
839.8623, 35.05223
840.3444, 35.41964
840.8265, 34.95354
841.3087, 34.36230
841.7908, 34.26254
842.2729, 34.43200
842.7550, 34.44891
843.2371, 34.30679
843.7192, 34.39243
844.2014, 34.97817
844.6835, 35.67339
845.1656, 35.66139
845.6477, 34.93535
846.1298, 34.45583
846.6119, 34.29076
847.0941, 34.26225
847.5762, 34.38086
848.0583, 34.48124
848.5404, 34.25134
849.0225, 33.61705
849.5046, 33.39125
849.9868, 33.93723
850.4689, 34.39767
850.9510, 34.57182
851.4331, 34.59629
851.9152, 34.55361
852.3973, 34.46780
852.8795, 34.34954
853.3616, 34.17710
853.8437, 34.06091
854.3258, 34.16558
854.8079, 34.33498
855.2900, 34.31971
855.7722, 34.15071
856.2543, 34.01130
856.7364, 33.97526
857.2185, 33.99193
857.7006, 34.02762
858.1827, 34.06031
858.6649, 33.88954
859.1470, 33.46707
859.6291, 33.12938
860.1112, 32.93505
860.5933, 32.90440
861.0754, 33.14746
861.5576, 33.57524
862.0397, 33.72325
862.5218, 33.44226
863.0039, 33.13992
863.4860, 32.65913
863.9681, 32.34346
864.4503, 32.58906
864.9324, 33.01448
865.4145, 32.93945
865.8966, 32.24794
866.3787, 31.78860
866.8608, 32.22663
867.3430, 32.95725
867.8251, 33.57096
868.3072, 33.99132
868.7893, 33.96808
869.2714, 33.54160
869.7535, 33.20945
870.2357, 33.34425
870.7178, 33.67207
871.1999, 33.56506
871.6820, 33.04065
872.1641, 32.72414
872.6462, 32.66507
873.1284, 32.82984
873.6105, 33.32800
874.0926, 33.82846
874.5747, 33.77296
875.0568, 33.07243
875.5389, 32.60134
876.0211, 32.61215
876.5032, 32.51926
876.9853, 31.94694
877.4674, 31.48895
877.9495, 31.79912
878.4316, 32.59994
878.9138, 32.98060
879.3959, 32.54361
879.8780, 32.11086
880.3601, 32.27828
880.8422, 32.50696
881.3243, 32.14982
881.8065, 31.45574
882.2886, 31.02679
882.7707, 31.04592
883.2528, 31.26575
883.7349, 31.47098
884.2170, 31.70247
884.6992, 32.18557
885.1813, 32.84603
885.6634, 32.98549
886.1455, 32.44531
886.6276, 31.87200
887.1097, 31.71878
887.5919, 31.83832
888.0740, 31.85712
888.5561, 31.73833
889.0382, 31.66439
889.5203, 31.70299
890.0024, 31.66931
890.4846, 31.26487
890.9667, 30.92514
891.4488, 31.27526
891.9309, 32.23946
892.4130, 32.77850
892.8951, 32.43987
893.3773, 32.05644
893.8594, 31.85783
894.3415, 31.73124
894.8236, 31.61376
895.3057, 31.48154
895.7878, 31.32629
896.2700, 31.14740
896.7521, 30.87445
897.2342, 30.25354
897.7163, 29.63578
898.1984, 29.58269
898.6805, 29.95253
899.1627, 30.34888
899.6448, 30.65376
900.1269, 30.83688
900.6090, 30.85067
901.0911, 30.77802
901.5732, 30.87736
902.0554, 31.15448
902.5375, 31.20720
903.0196, 30.93920
903.5017, 30.73523
903.9838, 30.80597
904.4659, 31.01036
904.9481, 31.13522
905.4302, 31.17743
905.9123, 31.16621
906.3944, 30.96202
906.8765, 30.90885
907.3586, 31.29206
907.8408, 31.62782
908.3229, 31.58088
908.8050, 31.21943
909.2871, 30.69498
909.7692, 29.88491
910.2513, 29.41686
910.7335, 29.87173
911.2156, 30.40746
911.6977, 30.37874
912.1798, 30.02691
912.6619, 29.75586
913.1440, 29.65673
913.6262, 29.63361
914.1083, 29.64651
914.5904, 29.65983
915.0725, 29.63889
915.5546, 29.57908
916.0367, 29.45357
916.5189, 29.27062
917.0010, 29.05462
917.4831, 28.81175
917.9652, 28.68655
918.4473, 28.93289
918.9294, 29.50920
919.4116, 29.97329
919.8937, 30.31054
920.3758, 30.65738
920.8579, 31.13173
921.3400, 31.36294
921.8221, 30.93861
922.3043, 30.07455
922.7864, 29.59212
923.2685, 29.65606
923.7506, 29.73886
924.2327, 29.96353
924.7148, 30.05840
925.1970, 29.87765
925.6791, 29.56077
926.1612, 29.16442
926.6433, 28.72779
927.1254, 28.57423
927.6075, 29.07700
928.0897, 29.48319
928.5718, 29.34748
929.0539, 29.14326
929.5360, 29.30784
930.0181, 29.73525
930.5002, 30.16595
930.9824, 30.51011
931.4645, 30.67891
931.9466, 30.41458
932.4287, 30.08056
932.9108, 30.21204
933.3929, 30.61762
933.8751, 30.82857
934.3572, 30.78761
934.8393, 30.75315
935.3214, 30.89305
935.8035, 31.11499
936.2856, 31.30095
936.7678, 31.43705
937.2499, 31.34875
937.7320, 31.02059
938.2141, 30.91178
938.6962, 31.22776
939.1783, 31.55845
939.6605, 31.43662
940.1426, 30.96375
940.6247, 30.76387
941.1068, 30.90208
941.5889, 31.12410
942.0710, 31.46308
942.5532, 31.79663
943.0353, 32.08670
943.5174, 32.32288
943.9995, 32.44845
944.4816, 32.44262
944.9637, 32.57886
945.4459, 32.93755
945.9280, 33.34236
946.4101, 33.74620
946.8922, 34.18908
947.3743, 34.75179
947.8564, 35.36531
948.3386, 35.87995
948.8207, 36.24879
949.3028, 36.57333
949.7849, 36.78320
950.2670, 37.08416
950.7491, 37.59458
951.2313, 38.31310
951.7134, 39.36101
952.1955, 40.63275
952.6776, 41.66637
953.1597, 42.11776
953.6418, 42.63005
954.1240, 44.10979
954.6061, 46.03176
955.0882, 47.43131
955.5703, 48.37201
956.0524, 49.31590
956.5345, 50.41874
957.0166, 51.65857
957.4987, 53.01561
957.9808, 54.49426
958.4630, 56.18366
958.9451, 58.06046
959.4272, 59.82433
959.9093, 61.42589
960.3914, 63.11961
960.8735, 65.04739
961.3557, 67.05007
961.8378, 68.89549
962.3199, 70.59329
962.8020, 72.21294
963.2841, 73.73279
963.7662, 75.29036
964.2484, 76.94074
964.7305, 78.59711
965.2126, 80.40774
965.6947, 82.07641
966.1768, 82.90639
966.6589, 82.80496
967.1411, 82.21535
967.6232, 80.45086
968.1053, 79.13917
968.5874, 79.05315
969.0695, 79.18934
969.5516, 78.78822
970.0338, 77.95565
970.5159, 77.14053
970.9980, 76.54152
971.4801, 75.57514
971.9622, 73.21436
972.4443, 71.39695
972.9265, 71.85818
973.4086, 73.11742
973.8907, 73.27516
974.3728, 72.28023
974.8549, 71.25130
975.3370, 70.54366
975.8192, 70.27859
976.3013, 70.91438
976.7834, 71.74570
977.2655, 71.75404
977.7476, 71.36559
978.2297, 71.73108
978.7119, 73.04683
979.1940, 74.36592
979.6761, 74.95780
980.1582, 75.25845
980.6403, 75.72859
981.1224, 76.44723
981.6046, 77.73710
982.0867, 79.50692
982.5688, 81.16767
983.0509, 82.48594
983.5330, 83.72368
984.0151, 85.19067
984.4973, 86.78373
984.9794, 88.31649
985.4615, 89.73898
985.9436, 90.17323
986.4257, 89.44143
986.9078, 89.16798
987.3900, 90.30191
987.8721, 91.99799
988.3542, 92.99316
988.8363, 93.29971
989.3184, 93.20211
989.8005, 92.62883
990.2827, 92.03588
990.7648, 91.65993
991.2469, 90.83349
991.7290, 88.93522
992.2111, 86.48681
992.6932, 84.67649
993.1754, 83.73061
993.6575, 82.15649
994.1396, 79.33064
994.6217, 77.01580
995.1038, 76.01559
995.5859, 75.20874
996.0681, 73.90936
996.5502, 72.14554
997.0323, 69.89804
997.5144, 66.85884
997.9965, 64.29222
998.4786, 62.70507
998.9608, 61.05427
999.4429, 58.86884
999.9250, 56.58978
1000.407, 54.56553
1000.889, 52.79462
1001.371, 51.19050
1001.853, 49.71797
1002.336, 48.42422
1002.818, 47.43238
1003.300, 46.49095
1003.782, 45.50466
1004.264, 44.45293
1004.746, 43.22472
1005.228, 41.91192
1005.710, 40.89439
1006.193, 40.37694
1006.675, 39.97984
1007.157, 39.54865
1007.639, 39.07269
1008.121, 38.49389
1008.603, 37.88369
1009.085, 37.34271
1009.567, 36.90018
1010.049, 36.60506
1010.532, 36.56833
1011.014, 36.43756
1011.496, 35.64289
1011.978, 34.70179
1012.460, 34.45459
1012.942, 34.68111
1013.424, 34.73306
1013.906, 34.44628
1014.388, 34.05124
1014.871, 33.70618
1015.353, 33.37264
1015.835, 32.96869
1016.317, 32.54167
1016.799, 32.17196
1017.281, 31.89143
1017.763, 31.85727
1018.245, 32.09517
1018.728, 32.27572
1019.210, 32.07254
1019.692, 31.68858
1020.174, 31.61304
1020.656, 31.75426
1021.138, 31.61066
1021.620, 31.16720
1022.102, 30.79287
1022.584, 30.63131
1023.067, 30.45722
1023.549, 29.96410
1024.031, 29.39805
1024.513, 29.74879
1024.995, 30.98324
1025.477, 31.57663
1025.959, 31.36289
1026.441, 31.01219
1026.924, 30.78905
1027.406, 30.61061
1027.888, 30.35007
1028.370, 30.07485
1028.852, 30.19514
1029.334, 30.77433
1029.816, 31.32120
1030.298, 31.84674
1030.781, 32.07349
1031.263, 31.78048
1031.745, 31.37299
1032.227, 31.36412
1032.709, 31.70057
1033.191, 31.89648
1033.673, 31.84302
1034.155, 32.04691
1034.637, 32.69187
1035.120, 33.27024
1035.602, 33.60511
1036.084, 33.69251
1036.566, 33.49718
1037.048, 33.03333
1037.530, 32.48887
1038.012, 31.55318
1038.494, 31.26464
1038.976, 32.21368
1039.459, 32.98086
1039.941, 32.86208
1040.423, 32.30190
1040.905, 31.81593
1041.387, 31.40285
1041.869, 30.98901
1042.351, 30.50358
1042.833, 30.13585
1043.316, 29.96391
1043.798, 29.82697
1044.280, 29.78790
1044.762, 29.66396
1045.244, 29.07947
1045.726, 28.08883
1046.208, 27.60255
1046.690, 28.22245
1047.172, 28.47815
1047.655, 27.92745
1048.137, 27.37500
1048.619, 27.13327
1049.101, 27.11737
1049.583, 27.34621
1050.065, 27.75901
1050.547, 27.83187
1051.029, 27.17042
1051.511, 26.70342
1051.994, 26.59692
1052.476, 26.67242
1052.958, 26.98910
1053.440, 27.34187
1053.922, 27.48351
1054.404, 27.42449
1054.886, 27.36036
1055.368, 27.38918
1055.851, 27.29961
1056.333, 26.85053
1056.815, 26.49091
1057.297, 26.61680
1057.779, 26.85957
1058.261, 26.72376
1058.743, 26.25830
1059.225, 25.92237
1059.708, 25.79218
1060.190, 25.88305
1060.672, 26.52062
1061.154, 27.01531
1061.636, 26.81160
1062.118, 26.37392
1062.600, 26.24150
1063.082, 26.40583
1063.564, 26.57716
1064.047, 26.70546
1064.529, 26.75974
1065.011, 26.67078
1065.493, 26.57171
1065.975, 26.43183
1066.457, 26.40107
1066.939, 26.81004
1067.421, 27.47842
1067.903, 27.72712
1068.386, 27.25592
1068.868, 26.84998
1069.350, 27.01157
1069.832, 27.11785
1070.314, 26.53419
1070.796, 25.91156
1071.278, 26.07211
1071.760, 26.81899
1072.243, 27.39797
1072.725, 27.59315
1073.207, 27.67551
1073.689, 27.91739
1074.171, 27.89400
1074.653, 26.99508
1075.135, 26.00487
1075.617, 25.68801
1076.099, 25.96818
1076.582, 26.57610
1077.064, 27.47164
1077.546, 28.08911
1078.028, 28.03868
1078.510, 27.81794
1078.992, 27.66667
1079.474, 27.50097
1079.956, 27.08136
1080.438, 26.62951
1080.921, 26.69462
1081.403, 27.37899
1081.885, 27.88891
1082.367, 27.77488
1082.849, 27.53844
1083.331, 27.34919
1083.813, 27.22063
1084.295, 27.16184
1084.777, 27.17065
1085.260, 27.31510
1085.742, 27.57114
1086.224, 27.60189
1086.706, 27.02247
1087.188, 26.58064
1087.670, 26.76079
1088.152, 27.06101
1088.634, 27.20623
1089.117, 27.15590
1089.599, 26.79104
1090.081, 26.17930
1090.563, 25.74502
1091.045, 25.64371
1091.527, 25.72342
1092.009, 26.16188
1092.491, 26.49862
1092.974, 26.28814
1093.456, 25.89515
1093.938, 25.73832
1094.420, 25.84893
1094.902, 26.13593
1095.384, 26.68532
1095.866, 27.03001
1096.348, 26.98903
1096.830, 26.70967
1097.313, 25.95044
1097.795, 25.24461
1098.277, 25.32361
1098.759, 25.89566
1099.241, 25.96955
1099.723, 25.22017
1100.205, 24.72907
1100.687, 25.05468
1101.169, 25.40660
1101.652, 25.48112
1102.134, 25.43432
1102.616, 25.27836
1103.098, 25.14715
1103.580, 25.36584
1104.062, 26.00540
1104.544, 26.33587
1105.026, 26.11674
1105.509, 25.66453
1105.991, 24.72823
1106.473, 23.94362
1106.955, 23.85283
1107.437, 24.09244
1107.919, 24.09947
1108.401, 23.84562
1108.883, 23.67797
1109.365, 23.56044
1109.848, 23.66552
1110.330, 24.42345
1110.812, 24.92543
1111.294, 24.44390
1111.776, 23.72203
1112.258, 23.64962
1112.740, 24.11292
1113.222, 24.29659
1113.704, 23.93827
1114.187, 23.77452
1114.669, 23.94708
1115.151, 24.18022
1115.633, 24.74708
1116.115, 25.02002
1116.597, 24.05535
1117.079, 22.49958
1117.561, 22.21714
1118.044, 23.67136
1118.526, 24.38721
1119.008, 23.79276
1119.490, 23.45313
1119.972, 23.86143
1120.454, 24.27009
1120.936, 24.21836
1121.418, 23.90667
1121.901, 23.67829
1122.383, 23.53652
1122.865, 23.19304
1123.347, 22.30291
1123.829, 22.16251
1124.311, 23.27239
1124.793, 24.30394
1125.275, 24.69161
1125.757, 24.70583
1126.240, 24.64856
1126.722, 24.49357
1127.204, 24.00989
1127.686, 22.99509
1128.168, 22.74692
1128.650, 23.57201
1129.132, 24.02529
1129.614, 23.57051
1130.096, 22.98400
1130.579, 22.91073
1131.061, 23.12417
1131.543, 23.04941
1132.025, 22.68070
1132.507, 22.55204
1132.989, 22.67735
1133.471, 22.82775
1133.953, 22.96323
1134.436, 23.06699
1134.918, 23.13461
1135.400, 23.12611
1135.882, 22.95306
1136.364, 22.67576
1136.846, 22.52416
1137.328, 22.50399
1137.810, 22.69043
1138.292, 23.08132
1138.775, 23.65008
1139.257, 24.37549
1139.739, 24.74683
1140.221, 24.22648
1140.703, 23.26748
1141.185, 22.68659
1141.667, 22.42108
1142.149, 22.30872
1142.631, 22.33812
1143.114, 22.55228
1143.596, 22.93094
1144.078, 23.34312
1144.560, 23.73441
1145.042, 23.91041
1145.524, 23.43516
1146.006, 22.75820
1146.488, 22.56773
1146.971, 22.72141
1147.453, 23.01019
1147.935, 23.33310
1148.417, 23.56842
1148.899, 23.66481
1149.381, 23.52881
1149.863, 22.87314
1150.345, 22.26658
1150.828, 22.26456
1151.310, 22.56102
1151.792, 22.95012
1152.274, 23.30491
1152.756, 23.41774
1153.238, 23.30078
1153.720, 23.21298
1154.202, 23.25461
1154.684, 23.36182
1155.167, 23.61279
1155.649, 23.79034
1156.131, 23.74784
1156.613, 23.56396
1157.095, 23.24128
1157.577, 22.87313
1158.059, 22.67177
1158.541, 22.68607
1159.023, 22.76577
1159.506, 23.08756
1159.988, 23.16921
1160.470, 22.48361
1160.952, 21.94134
1161.434, 22.24163
1161.916, 22.94949
1162.398, 23.46597
1162.880, 23.77568
1163.363, 24.01788
1163.845, 24.44239
1164.327, 24.31861
1164.809, 23.23506
1165.291, 22.29710
1165.773, 21.80600
1166.255, 21.62943
1166.737, 21.63342
1167.219, 21.90470
1167.702, 22.81520
1168.184, 24.54384
1168.666, 24.82636
1169.148, 23.23166
1169.630, 22.30212
1170.112, 22.57635
1170.594, 22.93081
1171.076, 22.77793
1171.558, 22.52874
1172.041, 22.74355
1172.523, 23.22561
1173.005, 23.15800
1173.487, 22.59717
1173.969, 22.26309
1174.451, 22.18892
1174.933, 22.13791
1175.415, 22.04834
1175.898, 22.07675
1176.380, 22.33387
1176.862, 22.74927
1177.344, 23.47831
1177.826, 24.15663
1178.308, 23.65972
1178.790, 22.49165
1179.272, 21.97883
1179.755, 22.15277
1180.237, 22.30854
1180.719, 22.19670
1181.201, 22.14934
1181.683, 22.47293
1182.165, 22.85673
1182.647, 23.09871
1183.129, 23.15279
1183.611, 22.75884
1184.094, 22.25009
1184.576, 22.23650
1185.058, 22.68326
1185.540, 23.03408
1186.022, 23.07208
1186.504, 23.14626
1186.986, 23.62226
1187.468, 23.89586
1187.950, 23.51532
1188.433, 22.96354
1188.915, 22.54860
1189.397, 22.28937
1189.879, 22.16669
1190.361, 22.17843
1190.843, 22.30023
1191.325, 22.93329
1191.807, 23.00393
1192.290, 21.90782
1192.772, 21.07985
1193.254, 21.03835
1193.736, 21.38197
1194.218, 21.90454
1194.700, 22.45220
1195.182, 22.58692
1195.664, 22.25887
1196.146, 22.16832
1196.629, 22.38426
1197.111, 22.40838
1197.593, 22.10221
1198.075, 22.07440
1198.557, 22.67156
1199.039, 23.27198
1199.521, 23.15514
1200.003, 22.59983
1200.485, 22.28834
1200.968, 22.22324
1201.450, 22.54273
1201.932, 23.15625
1202.414, 23.66531
1202.896, 23.93024
1203.378, 23.62294
1203.860, 22.54670
1204.342, 21.51920
1204.825, 21.52575
1205.307, 21.96212
1205.789, 22.06108
1206.271, 22.03505
1206.753, 22.27725
1207.235, 22.63933
1207.717, 22.66591
1208.199, 22.33370
1208.682, 22.14079
1209.164, 22.30625
1209.646, 22.63304
1210.128, 23.41101
1210.610, 23.85156
1211.092, 23.15008
1211.574, 22.19651
1212.056, 21.76411
1212.538, 21.76767
1213.021, 21.95621
1213.503, 22.32300
1213.985, 22.57064
1214.467, 22.46836
1214.949, 22.61804
1215.431, 23.40880
1215.913, 23.82724
1216.395, 23.32602
1216.877, 22.60759
1217.360, 22.24177
1217.842, 22.19680
1218.324, 22.42063
1218.806, 22.91733
1219.288, 23.51487
1219.770, 24.24703
1220.252, 24.33514
1220.734, 23.65308
1221.217, 22.82615
1221.699, 22.11669
1222.181, 21.80570
1222.663, 22.26049
1223.145, 23.00910
1223.627, 23.12990
1224.109, 22.88378
1224.591, 22.84114
1225.073, 22.97760
1225.556, 23.22603
1226.038, 23.50281
1226.520, 23.53142
1227.002, 23.20893
1227.484, 23.00553
1227.966, 23.48149
1228.448, 23.89802
1228.930, 23.54420
1229.412, 23.08979
1229.895, 23.31663
1230.377, 23.70512
1230.859, 23.26151
1231.341, 22.20748
1231.823, 21.93196
1232.305, 23.00086
1232.787, 23.61398
1233.269, 22.96402
1233.752, 22.71857
1234.234, 23.61108
1234.716, 24.35408
1235.198, 24.20763
1235.680, 23.67855
1236.162, 23.38535
1236.644, 23.26711
1237.126, 22.98672
1237.609, 22.50076
1238.091, 22.30777
1238.573, 22.42568
1239.055, 22.77839
1239.537, 23.34974
1240.019, 23.69785
1240.501, 23.57325
1240.983, 23.32888
1241.465, 23.36653
1241.948, 23.57232
1242.430, 23.80369
1242.912, 23.99957
1243.394, 24.05911
1243.876, 23.96030
1244.358, 23.57551
1244.840, 22.98719
1245.322, 22.57267
1245.804, 22.48525
1246.287, 22.61466
1246.769, 23.08892
1247.251, 23.50764
1247.733, 23.58606
1248.215, 23.58223
1248.697, 23.76621
1249.179, 23.95538
1249.661, 23.86238
1250.144, 23.50680
1250.626, 23.09197
1251.108, 22.45510
1251.590, 22.31921
1252.072, 22.90324
1252.554, 23.51500
1253.036, 24.10929
1253.518, 24.47855
1254.000, 24.46597
1254.483, 24.35173
1254.965, 24.52243
1255.447, 24.76688
1255.929, 24.22824
1256.411, 23.09816
1256.893, 22.88428
1257.375, 23.45525
1257.857, 23.79536
1258.339, 23.74867
1258.822, 23.72649
1259.304, 23.90623
1259.786, 23.98435
1260.268, 23.60244
1260.750, 23.18962
1261.232, 23.19048
1261.714, 23.36787
1262.196, 23.59766
1262.679, 23.75558
1263.161, 23.55514
1263.643, 23.16225
1264.125, 23.19981
1264.607, 23.86173
1265.089, 24.29398
1265.571, 24.19736
1266.053, 24.07880
1266.536, 23.92898
1267.018, 23.90088
1267.500, 24.10002
1267.982, 24.37285
1268.464, 24.58697
1268.946, 24.76695
1269.428, 25.00660
1269.910, 25.29208
1270.392, 25.24895
1270.875, 24.89156
1271.357, 24.61266
1271.839, 24.46372
1272.321, 24.49258
1272.803, 24.69037
1273.285, 24.72386
1273.767, 24.30844
1274.249, 23.88690
1274.731, 23.96172
##END=



