##NAMES=Neptunite
##RRUFFID=R060746
##IDEAL CHEMISTRY=KNa_2_LiFe^2+^_2_Ti^4+^_2_Si_8_O_24_
##LOCALITY=San Benito Mountains, San Benito County, California, USA
##OWNER=RRUFF
##SOURCE=California Institute of Technology
##DESCRIPTION=Deep red-black fragment of a prismatic single crystal
##STATUS=The identification of this mineral has been confirmed by X-ray diffraction and chemical analysis
##URL=rruff.info/R060746
##MEASURED CHEMISTRY=K_1.00_Na_2.00_Li_1.00_(Fe^2+^_1.48_Mg_0.36_Mn_0.16_)_Î£=2_Ti_2.00_Si_8.00_O_24_
123.938, 832.740
124.420, 940.435
124.902, 1069.242
125.385, 1216.177
125.867, 1371.455
126.349, 1541.995
126.831, 1708.260
127.313, 1850.173
127.795, 1966.111
128.277, 2058.182
128.760, 2130.036
129.242, 2181.528
129.724, 2205.188
130.206, 2182.919
130.688, 2137.675
131.170, 2093.425
131.652, 2056.953
132.134, 2012.581
132.616, 1937.715
133.098, 1825.457
133.581, 1715.407
134.063, 1620.581
134.545, 1534.597
135.027, 1452.236
135.509, 1370.919
135.991, 1295.709
136.473, 1233.360
136.955, 1181.574
137.438, 1150.381
137.920, 1146.611
138.402, 1160.361
138.884, 1183.842
139.366, 1214.195
139.848, 1251.861
140.330, 1297.836
140.812, 1349.734
141.294, 1415.681
141.777, 1496.317
142.259, 1588.872
142.741, 1691.903
143.223, 1805.055
143.705, 1925.931
144.187, 2047.424
144.669, 2166.206
145.151, 2289.992
145.633, 2415.876
146.116, 2547.783
146.598, 2692.201
147.080, 2852.952
147.562, 3027.651
148.044, 3203.575
148.526, 3394.823
149.008, 3570.773
149.490, 3738.256
149.973, 3885.627
150.455, 4000.258
150.937, 4075.667
151.419, 4110.077
151.901, 4079.817
152.383, 3950.510
152.865, 3789.349
153.347, 3587.119
153.829, 3363.033
154.312, 3145.849
154.794, 2952.095
155.276, 2782.008
155.758, 2625.130
156.240, 2473.665
156.722, 2342.154
157.204, 2234.777
157.686, 2150.286
158.169, 2084.232
158.651, 2033.626
159.133, 1998.433
159.615, 1981.922
160.097, 1989.370
160.579, 2005.994
161.061, 2028.666
161.543, 2056.477
162.025, 2088.314
162.508, 2123.414
162.990, 2162.029
163.472, 2205.334
163.954, 2256.139
164.436, 2307.860
164.918, 2358.689
165.400, 2408.050
165.883, 2456.304
166.365, 2503.255
166.847, 2548.700
167.329, 2592.624
167.811, 2636.731
168.293, 2677.953
168.775, 2719.115
169.257, 2757.556
169.739, 2784.296
170.221, 2794.212
170.704, 2785.442
171.186, 2752.864
171.668, 2680.385
172.150, 2601.037
172.632, 2529.436
173.114, 2466.693
173.596, 2411.562
174.078, 2362.179
174.561, 2320.269
175.043, 2292.901
175.525, 2286.709
176.007, 2288.625
176.489, 2291.420
176.971, 2295.070
177.453, 2302.231
177.935, 2315.206
178.417, 2334.010
178.900, 2353.867
179.382, 2373.591
179.864, 2395.402
180.346, 2423.122
180.828, 2455.864
181.310, 2487.091
181.792, 2516.397
182.274, 2539.507
182.757, 2542.370
183.239, 2510.479
183.721, 2469.559
184.203, 2439.937
184.685, 2420.287
185.167, 2393.620
185.649, 2346.552
186.131, 2282.518
186.613, 2224.327
187.096, 2169.710
187.578, 2122.589
188.060, 2085.499
188.542, 2058.395
189.024, 2042.191
189.506, 2037.523
189.988, 2045.751
190.470, 2064.643
190.952, 2099.116
191.435, 2139.923
191.917, 2176.142
192.399, 2209.393
192.881, 2256.853
193.363, 2328.717
193.845, 2423.535
194.327, 2529.149
194.809, 2651.819
195.292, 2778.231
195.774, 2898.058
196.256, 3011.994
196.738, 3126.308
197.220, 3242.627
197.702, 3362.638
198.184, 3487.886
198.666, 3617.920
199.148, 3754.198
199.631, 3904.895
200.113, 4067.088
200.595, 4215.826
201.077, 4340.472
201.559, 4442.044
202.041, 4533.563
202.523, 4627.095
203.005, 4688.911
203.488, 4692.937
203.970, 4643.269
204.452, 4564.617
204.934, 4464.272
205.416, 4339.142
205.898, 4190.144
206.380, 4012.399
206.862, 3822.333
207.344, 3617.197
207.827, 3403.457
208.309, 3212.171
208.791, 3058.050
209.273, 2929.463
209.755, 2804.704
210.237, 2682.484
210.719, 2569.953
211.201, 2471.085
211.684, 2385.559
212.166, 2310.360
212.648, 2246.149
213.130, 2191.289
213.612, 2141.574
214.094, 2096.478
214.576, 2058.582
215.058, 2033.325
215.540, 2016.557
216.023, 1995.526
216.505, 1964.152
216.987, 1933.200
217.469, 1916.911
217.951, 1915.056
218.433, 1915.782
218.915, 1917.123
219.397, 1917.565
219.880, 1912.550
220.362, 1899.162
220.844, 1885.479
221.326, 1881.871
221.808, 1887.185
222.290, 1893.306
222.772, 1900.118
223.254, 1905.505
223.736, 1902.787
224.219, 1888.279
224.701, 1877.493
225.183, 1891.115
225.665, 1925.137
226.147, 1955.194
226.629, 1975.209
227.111, 1988.705
227.593, 1996.105
228.076, 1996.224
228.558, 2003.056
229.040, 2031.375
229.522, 2078.293
230.004, 2126.203
230.486, 2177.354
230.968, 2225.824
231.450, 2265.135
231.932, 2295.028
232.415, 2321.019
232.897, 2345.876
233.379, 2369.806
233.861, 2394.044
234.343, 2426.032
234.825, 2452.578
235.307, 2461.920
235.789, 2455.559
236.271, 2444.818
236.754, 2435.906
237.236, 2427.678
237.718, 2416.284
238.200, 2403.370
238.682, 2385.861
239.164, 2356.072
239.646, 2318.784
240.128, 2291.068
240.611, 2282.441
241.093, 2287.626
241.575, 2290.295
242.057, 2284.600
242.539, 2285.604
243.021, 2302.632
243.503, 2330.011
243.985, 2355.996
244.467, 2376.024
244.950, 2393.146
245.432, 2414.229
245.914, 2441.062
246.396, 2467.039
246.878, 2494.226
247.360, 2518.915
247.842, 2537.775
248.324, 2550.105
248.807, 2552.302
249.289, 2538.125
249.771, 2504.342
250.253, 2461.361
250.735, 2405.728
251.217, 2343.167
251.699, 2278.137
252.181, 2211.516
252.663, 2143.756
253.146, 2075.764
253.628, 2007.826
254.110, 1937.856
254.592, 1855.350
255.074, 1778.556
255.556, 1721.401
256.038, 1683.361
256.520, 1654.402
257.003, 1626.791
257.485, 1600.608
257.967, 1574.895
258.449, 1543.484
258.931, 1518.375
259.413, 1506.574
259.895, 1505.584
260.377, 1509.119
260.859, 1513.391
261.342, 1518.303
261.824, 1522.739
262.306, 1522.494
262.788, 1526.582
263.270, 1537.242
263.752, 1553.404
264.234, 1573.611
264.716, 1597.165
265.198, 1623.706
265.681, 1651.735
266.163, 1681.347
266.645, 1712.832
267.127, 1743.851
267.609, 1777.786
268.091, 1819.302
268.573, 1869.470
269.056, 1923.767
269.538, 1972.683
270.020, 2006.637
270.502, 2054.969
270.984, 2127.594
271.466, 2205.458
271.948, 2273.542
272.430, 2331.269
272.912, 2390.261
273.395, 2464.219
273.877, 2557.209
274.359, 2648.990
274.841, 2739.271
275.323, 2828.656
275.805, 2918.249
276.287, 3007.070
276.769, 3091.626
277.251, 3165.733
277.734, 3231.002
278.216, 3311.396
278.698, 3421.873
279.180, 3528.671
279.662, 3620.687
280.144, 3701.029
280.626, 3774.741
281.108, 3843.173
281.591, 3907.998
282.073, 3976.640
282.555, 4055.880
283.037, 4120.963
283.519, 4166.830
284.001, 4194.000
284.483, 4202.034
284.965, 4191.127
285.447, 4159.657
285.930, 4103.737
286.412, 4022.721
286.894, 3925.407
287.376, 3797.690
287.858, 3666.115
288.340, 3551.628
288.822, 3456.672
289.304, 3374.298
289.786, 3300.384
290.269, 3234.794
290.751, 3177.193
291.233, 3123.824
291.715, 3085.328
292.197, 3078.030
292.679, 3097.403
293.161, 3112.387
293.643, 3100.645
294.125, 3079.640
294.608, 3084.397
295.090, 3122.422
295.572, 3157.446
296.054, 3151.328
296.536, 3115.536
297.018, 3100.667
297.500, 3133.018
297.983, 3173.505
298.465, 3192.779
298.947, 3191.427
299.429, 3176.821
299.911, 3147.913
300.393, 3111.313
300.875, 3090.182
301.357, 3085.318
301.839, 3092.805
302.322, 3107.859
302.804, 3134.677
303.286, 3181.010
303.768, 3250.063
304.250, 3339.567
304.732, 3445.612
305.214, 3564.696
305.696, 3709.120
306.178, 3894.877
306.661, 4097.766
307.143, 4301.224
307.625, 4500.491
308.107, 4690.209
308.589, 4867.138
309.071, 5034.270
309.553, 5170.459
310.035, 5288.208
310.517, 5369.424
311.000, 5409.295
311.482, 5405.357
311.964, 5353.967
312.446, 5251.461
312.928, 5099.514
313.410, 4913.261
313.892, 4658.722
314.374, 4405.270
314.857, 4157.828
315.339, 3920.873
315.821, 3695.571
316.303, 3482.030
316.785, 3287.994
317.267, 3130.206
317.749, 3014.719
318.231, 2922.469
318.714, 2861.563
319.196, 2813.567
319.678, 2767.273
320.160, 2720.666
320.642, 2678.033
321.124, 2643.271
321.606, 2616.557
322.088, 2595.258
322.570, 2582.443
323.052, 2571.743
323.535, 2559.636
324.017, 2546.430
324.499, 2533.272
324.981, 2526.096
325.463, 2518.075
325.945, 2487.919
326.427, 2427.204
326.909, 2376.979
327.392, 2367.430
327.874, 2381.752
328.356, 2394.807
328.838, 2401.092
329.320, 2407.104
329.802, 2417.405
330.284, 2431.881
330.766, 2448.712
331.249, 2464.892
331.731, 2486.335
332.213, 2524.145
332.695, 2580.261
333.177, 2640.352
333.659, 2699.292
334.141, 2760.111
334.623, 2828.979
335.105, 2906.814
335.588, 2986.662
336.070, 3059.583
336.552, 3122.916
337.034, 3201.142
337.516, 3302.594
337.998, 3410.815
338.480, 3521.648
338.962, 3631.566
339.444, 3734.104
339.927, 3825.580
340.409, 3905.608
340.891, 3972.604
341.373, 4018.497
341.855, 4059.956
342.337, 4114.111
342.819, 4158.127
343.301, 4166.595
343.784, 4130.956
344.266, 4062.448
344.748, 3979.626
345.230, 3885.490
345.712, 3766.882
346.194, 3601.846
346.676, 3430.459
347.158, 3268.249
347.641, 3117.650
348.123, 2979.159
348.605, 2854.711
349.087, 2742.796
349.569, 2634.165
350.051, 2522.126
350.533, 2426.042
351.015, 2354.148
351.497, 2300.681
351.979, 2258.193
352.462, 2225.140
352.944, 2200.001
353.426, 2182.964
353.908, 2174.276
354.390, 2164.884
354.872, 2149.262
355.354, 2134.120
355.836, 2127.715
356.319, 2130.944
356.801, 2136.463
357.283, 2141.722
357.765, 2146.677
358.247, 2152.453
358.729, 2159.833
359.211, 2163.896
359.693, 2162.429
360.176, 2154.448
360.658, 2129.617
361.140, 2073.296
361.622, 2012.525
362.104, 1962.013
362.586, 1921.314
363.068, 1887.095
363.550, 1858.335
364.032, 1833.090
364.515, 1803.977
364.997, 1768.786
365.479, 1732.450
365.961, 1695.493
366.443, 1657.490
366.925, 1615.906
367.407, 1571.185
367.889, 1527.687
368.371, 1490.235
368.854, 1458.457
369.336, 1435.319
369.818, 1430.108
370.300, 1424.439
370.782, 1407.566
371.264, 1384.990
371.746, 1369.632
372.228, 1370.212
372.711, 1381.987
373.193, 1392.424
373.675, 1402.583
374.157, 1408.450
374.639, 1400.305
375.121, 1391.748
375.603, 1395.697
376.085, 1415.147
376.568, 1440.697
377.050, 1464.108
377.532, 1486.628
378.014, 1515.486
378.496, 1553.111
378.978, 1594.775
379.460, 1639.703
379.942, 1686.351
380.424, 1726.082
380.906, 1747.994
381.389, 1768.128
381.871, 1802.070
382.353, 1848.648
382.835, 1898.124
383.317, 1946.354
383.799, 1992.366
384.281, 2032.272
384.763, 2062.138
385.246, 2092.281
385.728, 2130.960
386.210, 2167.908
386.692, 2192.679
387.174, 2202.424
387.656, 2198.917
388.138, 2184.112
388.620, 2157.792
389.103, 2120.175
389.585, 2060.161
390.067, 2000.530
390.549, 1951.600
391.031, 1909.493
391.513, 1864.240
391.995, 1808.399
392.477, 1748.990
392.959, 1704.645
393.442, 1678.691
393.924, 1659.116
394.406, 1648.136
394.888, 1638.931
395.370, 1625.593
395.852, 1607.259
396.334, 1589.506
396.816, 1574.141
397.298, 1562.449
397.781, 1562.114
398.263, 1578.170
398.745, 1593.527
399.227, 1590.270
399.709, 1574.349
400.191, 1565.891
400.673, 1569.236
401.155, 1579.938
401.638, 1598.319
402.120, 1622.099
402.602, 1643.253
403.084, 1658.056
403.566, 1669.601
404.048, 1684.752
404.530, 1706.710
405.012, 1725.881
405.495, 1743.719
405.977, 1757.400
406.459, 1761.726
406.941, 1758.440
407.423, 1757.358
407.905, 1768.744
408.387, 1791.371
408.869, 1797.951
409.351, 1772.868
409.833, 1750.367
410.316, 1739.349
410.798, 1733.899
411.280, 1726.641
411.762, 1715.011
412.244, 1702.454
412.726, 1695.483
413.208, 1694.745
413.690, 1685.325
414.173, 1656.321
414.655, 1628.947
415.137, 1622.086
415.619, 1631.129
416.101, 1636.479
416.583, 1627.265
417.065, 1611.879
417.547, 1602.049
418.030, 1597.445
418.512, 1588.534
418.994, 1568.013
419.476, 1542.250
419.958, 1528.807
420.440, 1534.546
420.922, 1536.450
421.404, 1526.716
421.886, 1511.828
422.369, 1497.808
422.851, 1486.076
423.333, 1476.726
423.815, 1470.495
424.297, 1467.824
424.779, 1459.903
425.261, 1446.363
425.743, 1427.808
426.225, 1398.212
426.708, 1365.708
427.190, 1343.242
427.672, 1336.249
428.154, 1332.874
428.636, 1312.763
429.118, 1273.076
429.600, 1236.196
430.082, 1205.801
430.565, 1178.172
431.047, 1151.841
431.529, 1126.299
432.011, 1099.888
432.493, 1068.985
432.975, 1038.042
433.457, 1014.305
433.939, 997.706
434.422, 981.834
434.904, 962.365
435.386, 942.827
435.868, 932.114
436.350, 933.842
436.832, 934.150
437.314, 930.445
437.796, 923.141
438.278, 910.462
438.760, 893.295
439.243, 877.996
439.725, 871.002
440.207, 872.194
440.689, 869.268
441.171, 852.072
441.653, 842.442
442.135, 850.070
442.617, 865.068
443.100, 876.549
443.582, 880.806
444.064, 880.274
444.546, 875.996
445.028, 867.411
445.510, 865.449
445.992, 877.323
446.474, 887.662
446.957, 883.962
447.439, 871.326
447.921, 863.561
448.403, 870.667
448.885, 879.743
449.367, 875.213
449.849, 859.338
450.331, 845.875
450.813, 840.036
451.296, 838.721
451.778, 837.084
452.260, 835.134
452.742, 832.896
453.224, 830.076
453.706, 827.219
454.188, 823.957
454.670, 820.901
455.152, 820.073
455.635, 823.098
456.117, 828.815
456.599, 832.361
457.081, 832.829
457.563, 832.462
458.045, 830.429
458.527, 828.543
459.009, 826.493
459.492, 825.093
459.974, 828.621
460.456, 843.764
460.938, 867.307
461.420, 886.315
461.902, 900.799
462.384, 909.951
462.866, 909.242
463.349, 903.963
463.831, 904.203
464.313, 912.846
464.795, 922.761
465.277, 927.765
465.759, 932.371
466.241, 946.320
466.723, 971.537
467.205, 997.599
467.688, 1013.448
468.170, 1018.056
468.652, 1027.646
469.134, 1046.348
469.616, 1064.732
470.098, 1080.329
470.580, 1093.945
471.062, 1104.089
471.544, 1110.757
472.027, 1122.187
472.509, 1153.404
472.991, 1207.128
473.473, 1254.092
473.955, 1286.291
474.437, 1319.201
474.919, 1359.996
475.401, 1407.676
475.884, 1460.307
476.366, 1520.189
476.848, 1580.926
477.330, 1634.789
477.812, 1683.089
478.294, 1732.248
478.776, 1784.894
479.258, 1837.345
479.741, 1885.583
480.223, 1929.128
480.705, 1968.983
481.187, 2005.319
481.669, 2037.791
482.151, 2068.569
482.633, 2095.482
483.115, 2111.882
483.597, 2113.926
484.079, 2109.710
484.562, 2118.497
485.044, 2147.201
485.526, 2169.365
486.008, 2184.424
486.490, 2190.485
486.972, 2183.130
487.454, 2165.020
487.936, 2144.826
488.419, 2127.007
488.901, 2109.755
489.383, 2091.798
489.865, 2072.986
490.347, 2048.711
490.829, 2018.245
491.311, 1980.161
491.793, 1928.059
492.276, 1858.121
492.758, 1796.675
493.240, 1750.710
493.722, 1712.726
494.204, 1680.058
494.686, 1650.727
495.168, 1620.448
495.650, 1586.593
496.132, 1550.485
496.615, 1515.077
497.097, 1478.844
497.579, 1447.090
498.061, 1418.085
498.543, 1395.154
499.025, 1384.856
499.507, 1383.860
499.989, 1378.680
500.471, 1357.516
500.954, 1329.251
501.436, 1310.464
501.918, 1301.311
502.400, 1295.408
502.882, 1289.765
503.364, 1286.611
503.846, 1291.205
504.328, 1305.197
504.810, 1316.719
505.293, 1319.631
505.775, 1322.281
506.257, 1330.452
506.739, 1344.528
507.221, 1364.559
507.703, 1391.380
508.185, 1421.123
508.668, 1442.174
509.150, 1451.679
509.632, 1458.123
510.114, 1463.296
510.596, 1464.942
511.078, 1460.456
511.560, 1450.791
512.042, 1439.786
512.524, 1428.068
513.006, 1417.528
513.489, 1414.599
513.971, 1419.076
514.453, 1413.966
514.935, 1390.223
515.417, 1357.697
515.899, 1330.007
516.381, 1306.215
516.864, 1290.324
517.346, 1288.397
517.828, 1289.706
518.310, 1286.882
518.792, 1280.853
519.274, 1275.952
519.756, 1274.583
520.238, 1274.913
520.720, 1272.245
521.203, 1264.237
521.685, 1259.911
522.167, 1259.008
522.649, 1263.156
523.131, 1278.837
523.613, 1300.815
524.095, 1314.098
524.577, 1308.651
525.059, 1295.531
525.542, 1287.448
526.024, 1283.583
526.506, 1277.789
526.988, 1266.808
527.470, 1257.877
527.952, 1261.942
528.434, 1283.104
528.916, 1294.486
529.398, 1282.079
529.881, 1274.517
530.363, 1289.835
530.845, 1317.955
531.327, 1340.380
531.809, 1349.888
532.291, 1355.858
532.773, 1371.864
533.255, 1398.584
533.737, 1429.444
534.220, 1468.842
534.702, 1505.875
535.184, 1532.830
535.666, 1553.912
536.148, 1576.585
536.630, 1602.087
537.112, 1630.713
537.594, 1667.938
538.077, 1707.332
538.559, 1733.446
539.041, 1743.152
539.523, 1749.371
540.005, 1764.535
540.487, 1788.354
540.969, 1804.636
541.451, 1801.679
541.933, 1805.900
542.416, 1821.091
542.898, 1845.842
543.380, 1881.417
543.862, 1926.655
544.344, 1973.038
544.826, 2011.148
545.308, 2043.865
545.791, 2085.273
546.273, 2137.961
546.755, 2186.638
547.237, 2225.595
547.719, 2254.931
548.201, 2274.348
548.683, 2280.504
549.165, 2289.602
549.647, 2314.239
550.130, 2337.731
550.612, 2345.447
551.094, 2337.485
551.576, 2319.731
552.058, 2295.219
552.540, 2264.493
553.022, 2227.815
553.504, 2182.502
553.987, 2138.505
554.469, 2097.959
554.951, 2057.672
555.433, 2019.442
555.915, 1980.523
556.397, 1932.812
556.879, 1867.862
557.361, 1798.649
557.843, 1737.668
558.326, 1684.148
558.808, 1635.271
559.290, 1590.699
559.772, 1549.738
560.254, 1512.710
560.736, 1480.257
561.218, 1445.068
561.700, 1403.210
562.182, 1363.475
562.665, 1326.438
563.147, 1293.973
563.629, 1269.948
564.111, 1254.678
564.593, 1240.230
565.075, 1217.493
565.557, 1187.878
566.039, 1160.472
566.521, 1135.548
567.004, 1112.339
567.486, 1089.637
567.968, 1069.028
568.450, 1053.111
568.932, 1042.718
569.414, 1034.407
569.896, 1025.596
570.378, 1019.616
570.860, 1022.123
571.343, 1030.894
571.825, 1036.465
572.307, 1032.712
572.789, 1025.055
573.271, 1029.096
573.753, 1050.845
574.235, 1064.978
574.718, 1061.167
575.200, 1056.908
575.682, 1064.255
576.164, 1079.170
576.646, 1089.171
577.128, 1085.915
577.610, 1082.253
578.092, 1090.828
578.574, 1107.266
579.057, 1119.938
579.539, 1126.052
580.021, 1131.868
580.503, 1143.562
580.985, 1161.097
581.467, 1179.648
581.949, 1203.259
582.431, 1222.817
582.914, 1233.068
583.396, 1240.987
583.878, 1253.626
584.360, 1271.452
584.842, 1289.195
585.324, 1301.346
585.806, 1310.900
586.288, 1326.633
586.770, 1348.473
587.253, 1364.638
587.735, 1371.603
588.217, 1368.386
588.699, 1351.217
589.181, 1313.981
589.663, 1284.975
590.145, 1269.745
590.627, 1257.634
591.109, 1248.376
591.592, 1237.009
592.074, 1214.995
592.556, 1179.142
593.038, 1137.465
593.520, 1098.955
594.002, 1063.591
594.484, 1033.373
594.966, 1010.920
595.448, 986.654
595.931, 951.566
596.413, 912.196
596.895, 883.683
597.377, 870.105
597.859, 857.544
598.341, 844.913
598.823, 829.474
599.305, 804.411
599.787, 773.458
600.270, 750.348
600.752, 743.821
601.234, 746.764
601.716, 741.463
602.198, 725.018
602.680, 714.868
603.162, 718.949
603.644, 722.360
604.127, 712.578
604.609, 694.682
605.091, 682.238
605.573, 681.157
606.055, 681.454
606.537, 675.515
607.019, 667.913
607.501, 666.102
607.984, 670.987
608.466, 678.851
608.948, 687.475
609.430, 695.591
609.912, 695.749
610.394, 684.288
610.876, 672.463
611.358, 657.328
611.841, 646.399
612.323, 646.918
612.805, 657.024
613.287, 666.924
613.769, 673.369
614.251, 677.184
614.733, 678.408
615.215, 677.643
615.697, 676.119
616.180, 674.179
616.662, 672.652
617.144, 672.633
617.626, 674.112
618.108, 673.778
618.590, 668.513
619.072, 665.966
619.554, 669.618
620.036, 674.951
620.519, 678.537
621.001, 679.870
621.483, 679.486
621.965, 674.121
622.447, 669.491
622.929, 674.729
623.411, 687.942
623.893, 700.944
624.375, 711.278
624.858, 717.388
625.340, 715.984
625.822, 705.153
626.304, 702.063
626.786, 717.584
627.268, 728.116
627.750, 726.424
628.232, 718.409
628.714, 707.391
629.197, 694.910
629.679, 689.772
630.161, 702.136
630.643, 723.835
631.125, 743.493
631.607, 760.377
632.089, 769.205
632.571, 766.329
633.054, 760.745
633.536, 766.807
634.018, 788.240
634.500, 804.463
634.982, 814.697
635.464, 820.855
635.946, 816.794
636.428, 812.200
636.911, 820.915
637.393, 845.616
637.875, 871.094
638.357, 882.977
638.839, 888.816
639.321, 904.878
639.803, 930.796
640.285, 954.409
640.768, 970.192
641.250, 981.941
641.732, 995.427
642.214, 1009.691
642.696, 1029.562
643.178, 1059.978
643.660, 1090.010
644.142, 1118.566
644.624, 1143.437
645.107, 1159.329
645.589, 1165.165
646.071, 1173.613
646.553, 1199.241
647.035, 1232.365
647.517, 1252.169
647.999, 1259.356
648.481, 1270.735
648.963, 1294.025
649.446, 1324.762
649.928, 1355.781
650.410, 1387.351
650.892, 1417.781
651.374, 1445.027
651.856, 1473.589
652.338, 1510.771
652.820, 1547.165
653.302, 1568.387
653.785, 1570.914
654.267, 1574.071
654.749, 1597.411
655.231, 1627.523
655.713, 1644.374
656.195, 1647.276
656.677, 1637.312
657.159, 1614.005
657.641, 1582.966
658.124, 1553.312
658.606, 1525.949
659.088, 1495.173
659.570, 1459.468
660.052, 1422.172
660.534, 1381.697
661.016, 1341.479
661.498, 1306.723
661.981, 1278.491
662.463, 1248.428
662.945, 1203.876
663.427, 1159.735
663.909, 1139.752
664.391, 1139.234
664.873, 1136.059
665.355, 1121.447
665.838, 1102.858
666.320, 1090.225
666.802, 1083.691
667.284, 1082.460
667.766, 1090.130
668.248, 1097.726
668.730, 1101.585
669.212, 1104.709
669.695, 1109.842
670.177, 1117.296
670.659, 1126.733
671.141, 1138.342
671.623, 1151.642
672.105, 1165.890
672.587, 1181.546
673.069, 1199.615
673.551, 1220.353
674.034, 1244.933
674.516, 1276.289
674.998, 1313.575
675.480, 1339.039
675.962, 1346.996
676.444, 1357.408
676.926, 1378.619
677.408, 1403.015
677.890, 1421.807
678.373, 1435.290
678.855, 1452.756
679.337, 1474.542
679.819, 1502.808
680.301, 1543.710
680.783, 1589.766
681.265, 1629.425
681.747, 1660.967
682.229, 1692.253
682.712, 1729.216
683.194, 1772.581
683.676, 1825.763
684.158, 1890.335
684.640, 1955.793
685.122, 2018.744
685.604, 2083.007
686.086, 2149.448
686.568, 2219.239
687.051, 2301.449
687.533, 2409.302
688.015, 2513.530
688.497, 2599.708
688.979, 2683.240
689.461, 2779.102
689.943, 2887.285
690.425, 2997.359
690.908, 3103.929
691.390, 3209.387
691.872, 3319.377
692.354, 3432.939
692.836, 3539.112
693.318, 3634.466
693.800, 3736.051
694.282, 3860.853
694.765, 4001.333
695.247, 4123.849
695.729, 4230.027
696.211, 4313.390
696.693, 4382.917
697.175, 4420.836
697.657, 4419.329
698.139, 4377.774
698.622, 4293.595
699.104, 4161.890
699.586, 4003.443
700.068, 3829.668
700.550, 3643.118
701.032, 3443.376
701.514, 3233.160
701.996, 3026.870
702.478, 2831.850
702.961, 2647.918
703.443, 2475.487
703.925, 2311.880
704.407, 2165.522
704.889, 2032.948
705.371, 1923.982
705.853, 1852.775
706.335, 1802.863
706.817, 1753.532
707.300, 1701.825
707.782, 1659.052
708.264, 1629.729
708.746, 1609.942
709.228, 1599.760
709.710, 1596.129
710.192, 1594.292
710.674, 1592.521
711.156, 1590.552
711.639, 1586.112
712.121, 1581.110
712.603, 1586.479
713.085, 1602.928
713.567, 1625.070
714.049, 1654.817
714.531, 1683.562
715.013, 1699.734
715.495, 1702.253
715.978, 1709.237
716.460, 1740.909
716.942, 1751.187
717.424, 1715.406
717.906, 1662.609
718.388, 1620.668
718.870, 1589.517
719.352, 1551.053
719.835, 1492.399
720.317, 1426.396
720.799, 1366.307
721.281, 1311.743
721.763, 1260.772
722.245, 1213.255
722.727, 1171.511
723.209, 1138.221
723.692, 1110.779
724.174, 1079.650
724.656, 1041.569
725.138, 1008.817
725.620, 983.354
726.102, 962.026
726.584, 940.559
727.066, 922.428
727.549, 915.853
728.031, 926.109
728.513, 933.871
728.995, 929.695
729.477, 921.495
729.959, 916.031
730.441, 912.354
730.923, 905.449
731.405, 893.643
731.888, 884.208
732.370, 888.801
732.852, 904.169
733.334, 912.258
733.816, 912.592
734.298, 908.964
734.780, 900.630
735.262, 893.498
735.744, 896.301
736.227, 910.534
736.709, 920.338
737.191, 921.735
737.673, 924.003
738.155, 931.440
738.637, 938.680
739.119, 939.176
739.601, 934.210
740.083, 932.437
740.566, 938.482
741.048, 948.266
741.530, 959.560
742.012, 971.557
742.494, 982.870
742.976, 993.267
743.458, 1004.088
743.940, 1017.192
744.422, 1027.775
744.905, 1018.693
745.387, 984.926
745.869, 975.526
746.351, 1001.398
746.833, 1037.063
747.315, 1073.761
747.797, 1108.273
748.279, 1133.588
748.762, 1148.371
749.244, 1159.125
749.726, 1161.564
750.208, 1165.362
750.690, 1179.348
751.172, 1196.160
751.654, 1204.732
752.136, 1202.674
752.619, 1196.514
753.101, 1188.801
753.583, 1181.414
754.065, 1177.641
754.547, 1176.835
755.029, 1176.922
755.511, 1177.309
755.993, 1176.638
756.476, 1172.980
756.958, 1167.500
757.440, 1166.863
757.922, 1170.446
758.404, 1181.393
758.886, 1205.801
759.368, 1230.803
759.850, 1241.820
760.332, 1246.111
760.815, 1265.104
761.297, 1312.755
761.779, 1351.000
762.261, 1360.309
762.743, 1366.314
763.225, 1389.835
763.707, 1424.517
764.189, 1455.756
764.671, 1478.308
765.154, 1492.276
765.636, 1492.551
766.118, 1486.234
766.600, 1490.732
767.082, 1504.223
767.564, 1511.313
768.046, 1506.610
768.528, 1493.111
769.010, 1473.411
769.493, 1447.827
769.975, 1425.156
770.457, 1405.430
770.939, 1388.369
771.421, 1373.665
771.903, 1362.050
772.385, 1356.638
772.867, 1355.273
773.349, 1348.442
773.832, 1326.386
774.314, 1311.770
774.796, 1320.304
775.278, 1330.464
775.760, 1325.576
776.242, 1307.365
776.724, 1281.652
777.206, 1249.870
777.689, 1223.371
778.171, 1218.463
778.653, 1224.769
779.135, 1220.506
779.617, 1206.037
780.099, 1190.723
780.581, 1178.022
781.063, 1168.311
781.545, 1162.039
782.028, 1159.206
782.510, 1160.699
782.992, 1167.861
783.474, 1175.391
783.956, 1182.094
784.438, 1188.560
784.920, 1196.297
785.403, 1204.626
785.885, 1209.391
786.367, 1205.333
786.849, 1204.717
787.331, 1207.326
787.813, 1216.313
788.295, 1241.304
788.777, 1273.247
789.259, 1290.184
789.742, 1282.085
790.224, 1276.104
790.706, 1297.709
791.188, 1332.850
791.670, 1361.389
792.152, 1383.980
792.634, 1407.600
793.116, 1434.680
793.598, 1461.952
794.081, 1484.888
794.563, 1504.746
795.045, 1530.211
795.527, 1561.976
796.009, 1594.241
796.491, 1625.117
796.973, 1657.085
797.455, 1691.721
797.938, 1729.098
798.420, 1769.909
798.902, 1810.287
799.384, 1859.949
799.866, 1920.337
800.348, 1988.981
800.830, 2069.351
801.312, 2155.136
801.794, 2232.294
802.277, 2295.310
802.759, 2369.466
803.241, 2463.655
803.723, 2576.854
804.205, 2718.412
804.687, 2875.475
805.169, 3018.979
805.651, 3145.441
806.133, 3289.151
806.616, 3478.068
807.098, 3705.866
807.580, 3958.840
808.062, 4238.804
808.544, 4542.496
809.026, 4868.708
809.508, 5240.600
809.990, 5670.162
810.472, 6159.794
810.955, 6711.493
811.437, 7327.262
811.919, 7990.366
812.401, 8679.075
812.883, 9443.437
813.365, 10295.870
813.847, 11244.620
814.330, 12304.590
814.812, 13481.750
815.294, 14724.290
815.776, 16026.960
816.258, 17386.051
816.740, 18810.650
817.222, 20280.961
817.704, 21817.971
818.186, 23394.650
818.669, 24922.840
819.151, 26390.250
819.633, 27739.631
820.115, 28952.301
820.597, 30002.561
821.079, 30881.590
821.561, 31571.410
822.043, 32028.480
822.526, 32229.619
823.008, 32198.801
823.490, 31926.721
823.972, 31436.279
824.454, 30893.090
824.936, 30294.631
825.418, 29692.449
825.900, 29099.551
826.382, 28524.070
826.865, 27972.529
827.347, 27446.570
827.829, 26952.801
828.311, 26490.910
828.793, 26064.891
829.275, 25703.160
829.757, 25348.260
830.239, 24967.760
830.721, 24571.480
831.204, 24185.689
831.686, 23840.391
832.168, 23407.539
832.650, 22857.311
833.132, 22209.789
833.614, 21443.289
834.096, 20605.221
834.578, 19770.279
835.060, 18941.221
835.543, 18056.650
836.025, 17041.070
836.507, 15994.650
836.989, 15009.810
837.471, 14068.440
837.953, 13120.440
838.435, 12170.280
838.917, 11275.780
839.400, 10476.430
839.882, 9736.761
840.364, 8998.092
840.846, 8268.906
841.328, 7636.045
841.810, 7104.566
842.292, 6609.620
842.774, 6129.500
843.256, 5682.525
843.739, 5294.059
844.221, 4963.929
844.703, 4668.515
845.185, 4420.925
845.667, 4181.590
846.149, 3939.819
846.631, 3710.876
847.114, 3502.012
847.596, 3314.428
848.078, 3152.632
848.560, 3021.036
849.042, 2904.205
849.524, 2807.937
850.006, 2716.444
850.488, 2617.251
850.970, 2520.270
851.453, 2439.764
851.935, 2376.851
852.417, 2319.052
852.899, 2257.151
853.381, 2201.912
853.863, 2165.824
854.345, 2139.097
854.827, 2110.415
855.309, 2078.243
855.792, 2042.351
856.274, 2002.008
856.756, 1967.099
857.238, 1955.173
857.720, 1956.761
858.202, 1947.306
858.684, 1926.423
859.166, 1897.544
859.648, 1861.564
860.131, 1824.753
860.613, 1793.723
861.095, 1767.185
861.577, 1738.333
862.059, 1705.800
862.541, 1680.433
863.023, 1665.506
863.505, 1652.433
863.987, 1636.108
864.470, 1617.919
864.952, 1601.508
865.434, 1588.994
865.916, 1570.950
866.398, 1542.361
866.880, 1515.202
867.362, 1490.911
867.844, 1470.888
868.327, 1456.704
868.809, 1448.155
869.291, 1443.280
869.773, 1447.807
870.255, 1447.682
870.737, 1438.184
871.219, 1423.781
871.701, 1402.910
872.183, 1381.202
872.666, 1371.598
873.148, 1378.220
873.630, 1377.827
874.112, 1344.389
874.594, 1308.592
875.076, 1305.647
875.558, 1318.100
876.041, 1314.250
876.523, 1290.636
877.005, 1264.663
877.487, 1246.899
877.969, 1233.930
878.451, 1220.828
878.933, 1208.809
879.415, 1202.663
879.897, 1201.822
880.380, 1199.525
880.862, 1192.963
881.344, 1186.667
881.826, 1186.492
882.308, 1191.426
882.790, 1194.548
883.272, 1195.386
883.754, 1203.163
884.237, 1220.244
884.719, 1242.940
885.201, 1270.845
885.683, 1299.735
886.165, 1317.267
886.647, 1316.837
887.129, 1329.812
887.611, 1363.980
888.093, 1396.784
888.576, 1421.834
889.058, 1440.951
889.540, 1455.939
890.022, 1466.751
890.504, 1473.843
890.986, 1479.165
891.468, 1478.003
891.950, 1471.327
892.432, 1456.461
892.915, 1424.426
893.397, 1385.701
893.879, 1359.988
894.361, 1351.595
894.843, 1343.179
895.325, 1325.804
895.807, 1310.724
896.289, 1307.735
896.771, 1307.865
897.254, 1299.062
897.736, 1282.883
898.218, 1269.944
898.700, 1264.711
899.182, 1264.904
899.664, 1272.773
900.146, 1282.122
900.628, 1282.636
901.110, 1278.947
901.593, 1285.826
902.075, 1305.786
902.557, 1321.993
903.039, 1318.586
903.521, 1305.733
904.003, 1297.421
904.485, 1293.868
904.968, 1298.699
905.450, 1310.377
905.932, 1316.641
906.414, 1310.840
906.896, 1298.939
907.378, 1291.050
907.860, 1285.116
908.342, 1266.714
908.824, 1236.050
909.307, 1206.388
909.789, 1181.485
910.271, 1154.140
910.753, 1117.200
911.235, 1075.936
911.717, 1047.635
912.199, 1034.651
912.681, 1018.516
913.164, 997.475
913.646, 976.961
914.128, 960.391
914.610, 943.119
915.092, 917.660
915.574, 884.545
916.056, 862.300
916.538, 852.247
917.020, 850.638
917.503, 864.529
917.985, 877.193
918.467, 878.065
918.949, 871.744
919.431, 866.252
919.913, 860.548
920.395, 860.474
920.877, 875.394
921.359, 883.961
921.842, 872.410
922.324, 859.377
922.806, 859.534
923.288, 871.410
923.770, 888.011
924.252, 910.459
924.734, 931.046
925.216, 947.155
925.698, 961.124
926.181, 971.387
926.663, 981.899
927.145, 998.248
927.627, 1020.408
928.109, 1042.769
928.591, 1058.905
929.073, 1081.314
929.555, 1118.138
930.037, 1163.911
930.520, 1166.519
931.002, 1246.097
931.484, 1306.993
931.966, 1350.207
932.448, 1322.778
932.930, 1386.565
933.412, 1413.809
933.894, 1439.540
934.377, 1516.171
934.859, 1499.016
935.341, 1574.840
935.823, 1613.544
936.305, 1643.662
936.787, 1659.534
937.269, 1691.582
937.751, 1725.042
938.234, 1727.617
938.716, 1709.640
939.198, 1704.957
939.680, 1718.353
940.162, 1726.297
940.644, 1712.182
941.126, 1687.299
941.608, 1641.466
942.091, 1602.610
942.573, 1574.030
943.055, 1606.057
943.537, 1623.372
944.019, 1626.766
944.501, 1574.543
944.983, 1594.138
945.465, 1584.951
945.947, 1574.585
946.430, 1588.440
946.912, 1575.266
947.394, 1576.152
947.876, 1575.654
948.358, 1566.827
948.840, 1553.957
949.322, 1542.226
949.804, 1531.536
950.286, 1521.163
950.769, 1511.205
951.251, 1500.817
951.733, 1490.028
952.215, 1477.827
952.697, 1463.146
953.179, 1447.993
953.661, 1435.994
954.143, 1427.352
954.625, 1419.012
955.108, 1411.326
955.590, 1402.064
956.072, 1388.670
956.554, 1378.578
957.036, 1378.740
957.518, 1384.846
958.000, 1385.538
958.482, 1380.503
958.964, 1371.180
959.447, 1356.082
959.929, 1340.297
960.411, 1328.528
960.893, 1311.601
961.375, 1274.814
961.857, 1226.064
962.339, 1203.060
962.821, 1223.228
963.304, 1231.774
963.786, 1221.890
964.268, 1210.079
964.750, 1202.779
965.232, 1195.601
965.714, 1179.573
966.196, 1156.490
966.678, 1150.409
967.161, 1173.454
967.643, 1194.560
968.125, 1218.718
968.607, 1234.057
969.089, 1224.023
969.571, 1208.981
970.053, 1218.838
970.535, 1254.372
971.018, 1280.553
971.500, 1284.818
971.982, 1293.826
972.464, 1318.616
972.946, 1341.942
973.428, 1352.566
973.910, 1355.754
974.392, 1359.842
974.874, 1365.569
975.357, 1372.034
975.839, 1384.020
976.321, 1389.923
976.803, 1383.767
977.285, 1373.114
977.767, 1358.606
978.249, 1345.133
978.731, 1343.645
979.213, 1357.853
979.696, 1365.445
980.178, 1350.642
980.660, 1341.485
981.142, 1353.907
981.624, 1371.821
982.106, 1380.320
982.588, 1382.943
983.070, 1391.909
983.552, 1410.956
984.035, 1429.313
984.517, 1441.901
984.999, 1455.164
985.481, 1465.964
985.963, 1483.787
986.445, 1526.833
986.927, 1584.707
987.409, 1622.705
987.891, 1628.008
988.374, 1630.300
988.856, 1639.033
989.338, 1649.721
989.820, 1663.796
990.302, 1675.583
990.784, 1676.567
991.266, 1669.539
991.748, 1692.283
992.231, 1707.800
992.713, 1716.478
993.195, 1697.834
993.677, 1714.470
994.159, 1716.970
994.641, 1718.887
995.123, 1740.490
995.605, 1725.819
996.088, 1747.110
996.570, 1754.045
997.052, 1757.655
997.534, 1781.507
998.016, 1801.360
998.498, 1809.661
998.980, 1814.120
999.462, 1827.127
999.945, 1847.667
1000.427, 1861.533
1000.909, 1860.754
1001.391, 1858.686
1001.873, 1860.593
1002.355, 1864.568
1002.837, 1869.369
1003.319, 1875.214
1003.801, 1886.910
1004.284, 1901.821
1004.766, 1902.192
1005.248, 1871.359
1005.730, 1845.141
1006.212, 1845.203
1006.694, 1851.456
1007.176, 1844.812
1007.658, 1836.486
1008.140, 1846.605
1008.623, 1875.399
1009.105, 1901.975
1009.587, 1913.764
1010.069, 1930.389
1010.551, 1962.239
1011.033, 2000.744
1011.515, 2040.849
1011.997, 2082.449
1012.479, 2126.742
1012.962, 2173.614
1013.444, 2220.672
1013.926, 2275.809
1014.408, 2315.694
1014.890, 2316.711
1015.372, 2312.806
1015.854, 2337.636
1016.336, 2369.200
1016.819, 2373.897
1017.301, 2348.078
1017.783, 2309.412
1018.265, 2258.595
1018.747, 2204.137
1019.229, 2152.802
1019.711, 2095.270
1020.193, 2024.387
1020.675, 1943.350
1021.158, 1852.085
1021.640, 1753.233
1022.122, 1666.339
1022.604, 1606.140
1023.086, 1543.605
1023.568, 1456.267
1024.050, 1378.521
1024.532, 1336.537
1025.015, 1314.959
1025.497, 1293.046
1025.979, 1268.757
1026.461, 1247.677
1026.943, 1223.551
1027.425, 1214.721
1027.907, 1243.575
1028.389, 1269.142
1028.871, 1255.374
1029.354, 1232.842
1029.836, 1245.583
1030.318, 1292.914
1030.800, 1331.766
1031.282, 1351.896
1031.764, 1367.990
1032.246, 1383.764
1032.728, 1394.382
1033.210, 1390.442
1033.693, 1384.840
1034.175, 1396.521
1034.657, 1423.467
1035.139, 1439.878
1035.621, 1442.343
1036.103, 1436.078
1036.585, 1416.933
1037.067, 1394.569
1037.550, 1371.299
1038.032, 1348.002
1038.514, 1325.418
1038.996, 1303.589
1039.478, 1281.965
1039.960, 1260.701
1040.442, 1239.367
1040.924, 1215.146
1041.406, 1194.873
1041.889, 1180.279
1042.371, 1171.299
1042.853, 1171.693
1043.335, 1177.858
1043.817, 1170.313
1044.299, 1135.802
1044.781, 1121.032
1045.263, 1138.499
1045.745, 1149.950
1046.228, 1139.191
1046.710, 1125.383
1047.192, 1127.592
1047.674, 1139.892
1048.156, 1141.046
1048.638, 1129.142
1049.120, 1112.534
1049.602, 1087.284
1050.085, 1071.301
1050.567, 1073.304
1051.049, 1075.368
1051.531, 1061.715
1052.013, 1039.474
1052.495, 1027.321
1052.977, 1026.176
1053.459, 1024.266
1053.942, 1020.968
1054.424, 1021.405
1054.906, 1027.061
1055.388, 1034.844
1055.870, 1042.450
1056.352, 1051.598
1056.834, 1067.505
1057.316, 1089.173
1057.798, 1100.380
1058.281, 1101.436
1058.763, 1110.706
1059.245, 1131.827
1059.727, 1150.072
1060.209, 1156.717
1060.691, 1157.148
1061.173, 1159.538
1061.655, 1162.306
1062.137, 1158.296
1062.620, 1148.833
1063.102, 1141.567
1063.584, 1136.906
1064.066, 1128.568
1064.548, 1113.570
1065.030, 1092.490
1065.512, 1063.348
1065.994, 1031.078
1066.477, 1004.094
1066.959, 982.687
1067.441, 972.317
1067.923, 968.500
1068.405, 949.713
1068.887, 909.842
1069.369, 875.146
1069.851, 871.486
1070.333, 876.882
1070.816, 866.189
1071.298, 845.931
1071.780, 818.167
1072.262, 791.177
1072.744, 787.005
1073.226, 807.031
1073.708, 818.189
1074.190, 793.846
1074.672, 770.625
1075.155, 781.253
1075.637, 800.623
1076.119, 803.392
1076.601, 799.076
1077.083, 807.736
1077.565, 828.625
1078.047, 840.599
1078.530, 832.425
1079.012, 824.309
1079.494, 821.006
1079.976, 824.324
1080.458, 839.954
1080.940, 859.231
1081.422, 874.664
1081.904, 885.305
1082.386, 889.932
1082.869, 885.241
1083.351, 885.064
1083.833, 895.560
1084.315, 905.569
1084.797, 913.219
1085.279, 917.668
1085.761, 912.873
1086.243, 905.992
1086.725, 914.552
1087.208, 942.054
1087.690, 963.353
1088.172, 974.853
1088.654, 987.793
1089.136, 1005.607
1089.618, 1021.806
1090.100, 1032.820
1090.582, 1040.114
1091.065, 1045.553
1091.547, 1049.241
1092.029, 1053.848
1092.511, 1060.096
1092.993, 1063.600
1093.475, 1064.712
1093.957, 1058.169
1094.439, 1041.540
1094.922, 1017.136
1095.404, 986.293
1095.886, 951.315
1096.368, 919.403
1096.850, 890.223
1097.332, 862.301
1097.814, 835.339
1098.296, 806.235
1098.778, 774.378
1099.260, 742.886
1099.743, 713.474
1100.225, 688.694
1100.707, 674.620
1101.189, 666.755
1101.671, 656.370
1102.153, 643.399
1102.635, 626.968
1103.117, 608.439
1103.600, 593.798
1104.082, 586.062
1104.564, 579.675
1105.046, 568.552
1105.528, 557.854
1106.010, 553.129
1106.492, 551.709
1106.974, 550.929
1107.457, 550.152
1107.939, 548.449
1108.421, 545.716
1108.903, 545.155
1109.385, 550.517
1109.867, 555.159
1110.349, 556.658
1110.831, 556.032
1111.313, 552.797
1111.796, 548.595
1112.278, 544.516
1112.760, 541.146
1113.242, 542.079
1113.724, 551.354
1114.206, 558.334
1114.688, 563.777
1115.170, 564.566
1115.652, 553.361
1116.135, 544.743
1116.617, 552.473
1117.099, 571.263
1117.581, 585.599
1118.063, 593.898
1118.545, 609.586
1119.027, 635.887
1119.509, 655.469
1119.992, 663.585
1120.474, 671.815
1120.956, 687.485
1121.438, 704.051
1121.920, 711.214
1122.402, 711.025
1122.884, 710.407
1123.366, 710.494
1123.849, 724.118
1124.331, 750.138
1124.813, 768.284
1125.295, 771.324
1125.777, 767.495
1126.259, 763.358
1126.741, 756.987
1127.223, 741.672
1127.705, 724.668
1128.188, 722.053
1128.670, 726.790
1129.152, 718.366
1129.634, 697.856
1130.116, 688.171
1130.598, 701.114
1131.080, 715.969
1131.562, 718.526
1132.044, 718.796
1132.527, 722.277
1133.009, 728.232
1133.491, 739.075
1133.973, 750.493
1134.455, 752.760
1134.937, 743.926
1135.419, 736.326
1135.901, 733.837
1136.384, 730.480
1136.866, 726.397
1137.348, 719.675
1137.830, 707.282
1138.312, 693.873
1138.794, 684.716
1139.276, 679.034
1139.758, 673.453
1140.240, 669.760
1140.723, 657.112
1141.205, 631.458
1141.687, 615.193
1142.169, 615.006
1142.651, 620.968
1143.133, 627.676
1143.615, 630.122
1144.097, 616.762
1144.579, 592.556
1145.062, 579.817
1145.544, 576.837
1146.026, 576.256
1146.508, 576.338
1146.990, 574.821
1147.472, 570.721
1147.954, 562.949
1148.436, 548.315
1148.919, 534.342
1149.401, 530.256
1149.883, 531.259
1150.365, 532.472
1150.847, 533.494
1151.329, 536.204
1151.811, 539.190
1152.293, 535.008
1152.776, 518.277
1153.258, 506.365
1153.740, 509.175
1154.222, 514.304
1154.704, 518.267
1155.186, 520.463
1155.668, 521.352
1156.150, 519.937
1156.632, 512.543
1157.115, 498.816
1157.597, 491.603
1158.079, 491.903
1158.561, 497.456
1159.043, 513.031
1159.525, 518.733
1160.007, 503.361
1160.489, 487.933
1160.971, 493.268
1161.454, 510.350
1161.936, 516.426
1162.418, 512.438
1162.900, 505.662
1163.382, 497.182
1163.864, 496.567
1164.346, 503.853
1164.828, 503.143
1165.311, 486.936
1165.793, 473.262
1166.275, 485.316
1166.757, 503.254
1167.239, 500.509
1167.721, 489.171
1168.203, 486.168
1168.685, 487.758
1169.167, 481.638
1169.650, 467.865
1170.132, 460.701
1170.614, 468.125
1171.096, 474.874
1171.578, 475.168
1172.060, 474.269
1172.542, 473.018
1173.024, 472.894
1173.506, 477.510
1173.989, 483.051
1174.471, 481.079
1174.953, 471.085
1175.435, 465.061
1175.917, 463.220
1176.399, 465.413
1176.881, 472.925
1177.363, 478.047
1177.846, 477.359
1178.328, 476.267
1178.810, 480.226
1179.292, 485.560
1179.774, 484.367
1180.256, 477.812
1180.738, 466.466
1181.220, 454.046
1181.703, 456.842
1182.185, 472.775
1182.667, 479.524
1183.149, 468.171
1183.631, 456.004
1184.113, 455.714
1184.595, 460.318
1185.077, 471.203
1185.559, 477.814
1186.042, 463.350
1186.524, 442.498
1187.006, 439.149
1187.488, 452.078
1187.970, 461.003
1188.452, 463.611
1188.934, 459.886
1189.416, 441.294
1189.898, 431.063
1190.381, 437.635
1190.863, 446.491
1191.345, 449.438
1191.827, 449.456
1192.309, 450.541
1192.791, 452.780
1193.273, 458.691
1193.755, 467.618
1194.238, 463.575
1194.720, 447.468
1195.202, 439.533
1195.684, 444.359
1196.166, 449.524
1196.648, 447.226
1197.130, 442.529
1197.612, 437.465
1198.094, 436.457
1198.577, 450.433
1199.059, 467.420
1199.541, 470.425
1200.023, 463.628
1200.505, 458.286
1200.987, 456.705
1201.469, 457.380
1201.951, 466.550
1202.433, 465.654
1202.916, 436.682
1203.398, 417.270
1203.880, 427.911
1204.362, 441.310
1204.844, 435.589
1205.326, 421.786
1205.808, 422.950
1206.290, 437.775
1206.773, 440.922
1207.255, 432.239
1207.737, 423.243
1208.219, 415.468
1208.701, 414.873
1209.183, 423.031
1209.665, 431.359
1210.147, 433.050
1210.630, 434.097
1211.112, 444.119
1211.594, 455.976
1212.076, 461.269
1212.558, 461.398
1213.040, 455.505
1213.522, 447.571
1214.004, 447.492
1214.486, 456.934
1214.969, 461.911
1215.451, 455.975
1215.933, 448.958
1216.415, 439.079
1216.897, 433.198
1217.379, 435.469
1217.861, 440.329
1218.343, 445.723
1218.825, 447.568
1219.308, 434.157
1219.790, 407.674
1220.272, 404.889
1220.754, 424.531
1221.236, 437.108
1221.718, 439.892
1222.200, 440.840
1222.682, 442.875
1223.165, 447.676
1223.647, 458.222
1224.129, 463.725
1224.611, 444.731
1225.093, 422.771
1225.575, 423.777
1226.057, 433.218
1226.539, 430.915
1227.021, 421.627
1227.504, 418.990
1227.986, 425.272
1228.468, 438.438
1228.950, 476.023
1229.432, 488.611
1229.914, 458.534
1230.396, 434.186
1230.878, 429.643
1231.360, 435.263
1231.843, 446.401
1232.325, 457.253
1232.807, 456.741
1233.289, 447.639
1233.771, 441.666
1234.253, 438.321
1234.735, 436.776
1235.217, 435.741
1235.700, 429.637
1236.182, 418.370
1236.664, 409.962
1237.146, 408.850
1237.628, 410.751
1238.110, 415.187
1238.592, 418.584
1239.074, 417.372
1239.557, 415.518
1240.039, 416.859
1240.521, 419.662
1241.003, 421.380
1241.485, 421.754
1241.967, 418.645
1242.449, 409.639
1242.931, 406.310
1243.413, 409.336
1243.896, 414.953
1244.378, 422.620
1244.860, 428.353
1245.342, 429.928
1245.824, 430.907
1246.306, 435.830
1246.788, 441.469
1247.270, 442.819
1247.752, 441.082
1248.235, 437.382
1248.717, 432.444
1249.199, 425.770
1249.681, 418.895
1250.163, 416.730
1250.645, 420.902
1251.127, 426.157
1251.609, 437.593
1252.092, 439.615
1252.574, 419.300
1253.056, 406.073
1253.538, 414.520
1254.020, 427.493
1254.502, 429.823
1254.984, 426.025
1255.466, 425.889
1255.948, 428.963
1256.431, 433.678
1256.913, 438.877
1257.395, 440.303
1257.877, 437.152
1258.359, 423.776
1258.841, 402.225
1259.323, 396.138
1259.805, 419.369
1260.287, 458.190
1260.770, 539.691
1261.252, 588.899
1261.734, 536.705
1262.216, 461.403
1262.698, 415.979
1263.180, 399.010
1263.662, 410.947
1264.144, 445.039
1264.627, 452.659
1265.109, 429.372
1265.591, 413.506
1266.073, 405.821
1266.555, 409.624
1267.037, 424.671
1267.519, 437.874
1268.001, 442.870
1268.484, 440.471
1268.966, 426.792
1269.448, 415.432
1269.930, 426.970
1270.412, 441.984
1270.894, 441.489
1271.376, 432.270
1271.858, 419.670
1272.340, 408.058
1272.823, 405.459
##END=



