##NAMES=Nesquehonite
##RRUFFID=R050639
##IDEAL CHEMISTRY=MgCO_3_&#183;3H_2_O
##LOCALITY=Nesquehoning, Pennsylvania, USA
##OWNER=RRUFF
##SOURCE=University of Arizona Mineral Museum
##DESCRIPTION=White to colorless bladed crystals
##STATUS=The identification of this mineral has been confirmed by X-ray diffraction and chemical analysis
##URL=rruff.info/R050639
##MEASURED CHEMISTRY=Mg_1.00_(HCO_3_)(OH)Â·2H_2_O ; C and H not measured but estimated by difference and charge balance
92.02539, 1412.965
92.50751, 1421.500
92.98962, 1435.771
93.47174, 1436.065
93.95386, 1433.163
94.43597, 1426.711
94.91809, 1418.912
95.40021, 1410.529
95.88232, 1398.464
96.36444, 1381.988
96.84656, 1362.991
97.32867, 1342.899
97.81078, 1321.980
98.29290, 1300.131
98.77502, 1276.068
99.25713, 1247.231
99.73925, 1221.784
100.2214, 1200.129
100.7035, 1180.667
101.1856, 1162.898
101.6677, 1146.459
102.1498, 1131.092
102.6320, 1116.498
103.1141, 1102.370
103.5962, 1089.763
104.0783, 1079.229
104.5604, 1069.747
105.0425, 1060.693
105.5247, 1052.059
106.0068, 1042.754
106.4889, 1030.257
106.9710, 1014.226
107.4531, 998.0396
107.9352, 983.1347
108.4173, 969.2947
108.8995, 955.2352
109.3816, 939.8633
109.8637, 924.5246
110.3458, 910.7855
110.8279, 898.9727
111.3100, 887.8250
111.7922, 875.6961
112.2743, 862.2341
112.7564, 849.0749
113.2385, 836.1552
113.7206, 823.9119
114.2027, 812.8802
114.6849, 803.4199
115.1670, 795.1115
115.6491, 786.7298
116.1312, 778.7767
116.6133, 769.9443
117.0954, 759.5037
117.5776, 748.0992
118.0597, 736.6686
118.5418, 725.8234
119.0239, 715.5466
119.5060, 705.1660
119.9881, 694.4748
120.4703, 683.8636
120.9524, 673.2697
121.4345, 662.8266
121.9166, 652.9149
122.3987, 644.0865
122.8808, 636.5711
123.3630, 628.4745
123.8451, 619.2475
124.3272, 609.6946
124.8093, 600.6110
125.2914, 592.0757
125.7735, 584.0661
126.2557, 576.8235
126.7378, 570.2001
127.2199, 563.7195
127.7020, 557.2535
128.1841, 550.8185
128.6662, 544.6172
129.1483, 538.8810
129.6305, 533.1015
130.1126, 526.7082
130.5947, 519.7662
131.0768, 512.9920
131.5589, 506.8061
132.0410, 501.1558
132.5232, 496.5670
133.0053, 494.2331
133.4874, 492.2163
133.9695, 489.6133
134.4516, 486.2231
134.9337, 482.3852
135.4159, 478.5480
135.8980, 474.5692
136.3801, 470.8549
136.8622, 467.4498
137.3443, 464.2441
137.8264, 461.2220
138.3086, 458.3625
138.7907, 455.5635
139.2728, 452.6100
139.7549, 448.7465
140.2370, 445.5942
140.7191, 443.6665
141.2013, 442.4556
141.6834, 441.2845
142.1655, 439.8558
142.6476, 438.1306
143.1297, 435.9608
143.6118, 433.1138
144.0939, 430.1860
144.5761, 427.0733
145.0582, 423.9419
145.5403, 421.6444
146.0224, 421.2531
146.5045, 421.9170
146.9866, 421.0726
147.4688, 417.5773
147.9509, 413.4081
148.4330, 410.4760
148.9151, 408.9316
149.3972, 407.6624
149.8793, 405.5827
150.3615, 403.4310
150.8436, 402.3146
151.3257, 403.2801
151.8078, 405.2075
152.2899, 405.3968
152.7720, 402.8666
153.2542, 400.2388
153.7363, 398.4228
154.2184, 397.2441
154.7005, 396.4594
155.1826, 396.0130
155.6647, 395.8595
156.1469, 395.5330
156.6290, 394.4842
157.1111, 393.8234
157.5932, 393.9081
158.0753, 394.6184
158.5574, 395.7116
159.0396, 397.0739
159.5217, 398.8089
160.0038, 399.8071
160.4859, 399.2231
160.9680, 398.7650
161.4501, 399.3265
161.9323, 400.7980
162.4144, 402.4107
162.8965, 403.3870
163.3786, 403.5961
163.8607, 403.5587
164.3428, 402.9073
164.8250, 402.2817
165.3071, 402.3856
165.7892, 403.2767
166.2713, 404.0831
166.7534, 403.6616
167.2355, 401.8261
167.7177, 400.0670
168.1998, 398.5847
168.6819, 397.2386
169.1640, 395.8456
169.6461, 394.3567
170.1282, 392.8713
170.6104, 391.4623
171.0925, 390.1202
171.5746, 389.0038
172.0567, 388.1197
172.5388, 387.5056
173.0209, 387.3228
173.5031, 387.7847
173.9852, 388.4545
174.4673, 388.7225
174.9494, 388.6654
175.4315, 389.0681
175.9136, 390.8760
176.3958, 394.0247
176.8779, 396.4134
177.3600, 396.6778
177.8421, 397.0111
178.3242, 398.9865
178.8063, 402.5262
179.2885, 406.1177
179.7706, 408.1290
180.2527, 408.2076
180.7348, 408.2194
181.2169, 408.8270
181.6990, 409.0161
182.1812, 408.1735
182.6633, 406.2269
183.1454, 403.5698
183.6275, 400.6680
184.1096, 397.2786
184.5917, 394.1714
185.0738, 391.6267
185.5560, 389.1280
186.0381, 386.4555
186.5202, 383.5052
187.0023, 380.1439
187.4844, 376.1312
187.9665, 370.6981
188.4487, 365.8012
188.9308, 361.4617
189.4129, 357.6466
189.8950, 354.3556
190.3771, 351.6011
190.8592, 349.3225
191.3414, 347.4560
191.8235, 346.1250
192.3056, 344.9892
192.7877, 344.2534
193.2698, 343.6359
193.7519, 342.7246
194.2341, 341.3456
194.7162, 339.7171
195.1983, 338.2198
195.6804, 336.7579
196.1625, 335.6040
196.6446, 335.0152
197.1268, 334.7932
197.6089, 334.5616
198.0910, 334.3304
198.5731, 333.7982
199.0552, 332.4435
199.5373, 330.1502
200.0195, 327.8060
200.5016, 325.8035
200.9837, 324.1196
201.4658, 322.6586
201.9479, 321.3948
202.4300, 320.3692
202.9122, 319.7830
203.3943, 319.7118
203.8764, 319.3161
204.3585, 317.5862
204.8406, 314.5306
205.3227, 312.1048
205.8048, 311.2003
206.2870, 310.8310
206.7691, 310.3961
207.2512, 309.8221
207.7333, 309.1419
208.2154, 308.3638
208.6975, 307.4657
209.1797, 306.5993
209.6618, 305.5144
210.1439, 304.6594
210.6260, 304.4827
211.1081, 304.9975
211.5902, 305.6324
212.0724, 305.5858
212.5545, 304.5642
213.0366, 303.7458
213.5187, 303.2717
214.0008, 302.9643
214.4829, 302.8199
214.9651, 302.7947
215.4472, 302.7117
215.9293, 302.2338
216.4114, 300.8835
216.8935, 300.1632
217.3756, 300.3931
217.8578, 300.9075
218.3399, 301.4449
218.8220, 301.8636
219.3041, 301.9418
219.7862, 301.2820
220.2683, 299.2590
220.7505, 297.6953
221.2326, 296.9889
221.7147, 296.4370
222.1968, 295.5150
222.6789, 294.0942
223.1610, 292.3584
223.6432, 290.5595
224.1253, 288.6043
224.6074, 286.7950
225.0895, 285.0754
225.5716, 283.5245
226.0537, 282.4673
226.5358, 281.9373
227.0180, 281.2460
227.5001, 279.3798
227.9822, 275.9941
228.4643, 272.3966
228.9464, 268.3198
229.4285, 264.2244
229.9107, 260.6732
230.3928, 257.7999
230.8749, 255.3026
231.3570, 252.9202
231.8391, 250.6834
232.3212, 248.2772
232.8034, 245.3851
233.2855, 242.4087
233.7676, 239.9933
234.2497, 238.3425
234.7318, 236.7343
235.2139, 234.1199
235.6961, 230.6465
236.1782, 227.5295
236.6603, 225.2038
237.1424, 223.3805
237.6245, 221.6840
238.1066, 220.1215
238.5888, 218.4672
239.0709, 216.2104
239.5530, 213.5940
240.0351, 211.4550
240.5172, 210.5755
240.9993, 210.2559
241.4815, 209.0964
241.9636, 206.7729
242.4457, 204.2093
242.9278, 201.9404
243.4099, 199.9277
243.8920, 198.1594
244.3742, 196.8936
244.8563, 195.8355
245.3384, 194.2062
245.8205, 191.6963
246.3026, 189.3211
246.7847, 187.6808
247.2668, 186.5360
247.7490, 185.5627
248.2311, 184.7376
248.7132, 183.9336
249.1953, 182.7507
249.6774, 180.9387
250.1595, 179.2661
250.6417, 178.3506
251.1238, 177.6768
251.6059, 176.5045
252.0880, 174.3272
252.5701, 171.6628
253.0522, 169.8425
253.5344, 169.3053
254.0165, 168.8013
254.4986, 167.9077
254.9807, 166.8553
255.4628, 165.8914
255.9449, 165.1336
256.4271, 164.4971
256.9092, 163.7070
257.3913, 162.3974
257.8734, 161.6875
258.3555, 162.3281
258.8376, 163.3030
259.3198, 163.5346
259.8019, 162.5917
260.2840, 161.1440
260.7661, 160.6958
261.2482, 162.1372
261.7303, 162.8708
262.2125, 162.3260
262.6946, 161.2402
263.1767, 160.1219
263.6588, 159.1522
264.1409, 158.3615
264.6230, 157.8611
265.1052, 158.0359
265.5873, 157.7178
266.0694, 156.3771
266.5515, 154.9233
267.0336, 154.0642
267.5157, 153.9401
267.9979, 154.1571
268.4800, 154.1256
268.9621, 153.6429
269.4442, 153.3562
269.9263, 153.3652
270.4084, 153.4568
270.8906, 153.6003
271.3727, 153.7353
271.8548, 153.6855
272.3369, 153.1958
272.8190, 152.0687
273.3011, 151.1704
273.7833, 150.6184
274.2654, 150.1508
274.7475, 149.6941
275.2296, 149.2025
275.7117, 148.5855
276.1938, 147.7132
276.6760, 146.4830
277.1581, 145.6504
277.6402, 145.3367
278.1223, 145.2032
278.6044, 145.2497
279.0865, 145.3676
279.5686, 145.2726
280.0508, 144.6787
280.5329, 143.5653
281.0150, 142.9917
281.4971, 143.5542
281.9792, 143.9356
282.4613, 143.3166
282.9435, 142.0993
283.4256, 141.3193
283.9077, 141.7019
284.3898, 143.0809
284.8719, 143.9446
285.3540, 144.4613
285.8362, 144.3833
286.3183, 143.2821
286.8004, 141.5715
287.2825, 139.9085
287.7646, 138.5966
288.2467, 137.6593
288.7289, 137.1993
289.2110, 137.6792
289.6931, 138.0264
290.1752, 138.0107
290.6573, 137.7847
291.1394, 137.5394
291.6216, 137.3449
292.1037, 137.2001
292.5858, 137.0913
293.0679, 136.8984
293.5500, 136.9795
294.0321, 137.7398
294.5143, 138.6337
294.9964, 139.0157
295.4785, 138.7148
295.9606, 138.0667
296.4427, 137.5210
296.9248, 137.1114
297.4070, 136.7171
297.8891, 136.0764
298.3712, 135.6030
298.8533, 135.7744
299.3354, 136.6279
299.8175, 137.7065
300.2997, 138.6476
300.7818, 139.4615
301.2639, 139.6196
301.7460, 138.2584
302.2281, 136.9277
302.7102, 136.9635
303.1924, 138.2405
303.6745, 139.3545
304.1566, 139.1640
304.6387, 137.7295
305.1208, 136.7754
305.6029, 136.3403
306.0851, 136.2800
306.5672, 136.7353
307.0493, 137.5491
307.5314, 138.2444
308.0135, 138.5301
308.4956, 138.5081
308.9778, 138.6354
309.4599, 139.4544
309.9420, 139.7477
310.4241, 138.6731
310.9062, 136.8361
311.3883, 135.4235
311.8705, 134.9433
312.3526, 135.0766
312.8347, 135.2138
313.3168, 135.5522
313.7989, 135.4648
314.2810, 134.4452
314.7632, 133.0624
315.2453, 131.9872
315.7274, 131.3959
316.2095, 131.2836
316.6916, 131.8111
317.1737, 133.2539
317.6559, 134.0746
318.1380, 133.6432
318.6201, 132.8400
319.1022, 132.5109
319.5843, 132.7515
320.0664, 133.0677
320.5485, 132.9627
321.0306, 132.3939
321.5128, 132.1321
321.9949, 132.4351
322.4770, 132.8161
322.9591, 132.9379
323.4412, 132.8355
323.9233, 132.7791
324.4055, 132.9804
324.8876, 133.3761
325.3697, 133.5090
325.8518, 133.0561
326.3339, 132.7308
326.8160, 132.8439
327.2982, 133.2792
327.7803, 133.8102
328.2624, 134.3583
328.7445, 134.8790
329.2266, 135.2387
329.7087, 135.3524
330.1909, 135.4855
330.6730, 135.6282
331.1551, 135.8368
331.6372, 136.3004
332.1193, 137.0811
332.6014, 137.7883
333.0836, 137.7959
333.5657, 136.7297
334.0478, 136.0674
334.5299, 136.1380
335.0120, 136.4465
335.4941, 136.6393
335.9763, 136.6561
336.4584, 136.5640
336.9405, 136.4413
337.4226, 136.2932
337.9047, 135.8836
338.3868, 134.8138
338.8690, 133.8803
339.3511, 133.5905
339.8332, 133.8042
340.3153, 134.0462
340.7974, 134.0148
341.2795, 133.7612
341.7617, 133.6100
342.2438, 133.7267
342.7259, 133.7374
343.2080, 133.6278
343.6901, 133.3444
344.1722, 132.7173
344.6544, 131.6674
345.1365, 130.4756
345.6186, 129.7399
346.1007, 130.0544
346.5828, 129.9233
347.0649, 128.9349
347.5471, 127.7353
348.0292, 127.0058
348.5113, 126.8263
348.9934, 126.6062
349.4755, 125.5618
349.9576, 123.2888
350.4398, 121.9005
350.9219, 122.0280
351.4040, 122.3169
351.8861, 121.9878
352.3682, 121.1707
352.8503, 120.5050
353.3325, 120.5248
353.8146, 121.1586
354.2967, 121.2577
354.7788, 120.3812
355.2609, 119.4774
355.7430, 118.6138
356.2252, 117.8763
356.7073, 117.4246
357.1894, 117.3418
357.6715, 117.4267
358.1536, 117.1594
358.6357, 116.2410
359.1179, 115.4067
359.5999, 114.5543
360.0821, 113.8683
360.5642, 113.6658
361.0463, 113.9252
361.5284, 114.1500
362.0105, 113.6036
362.4926, 111.8785
362.9748, 110.9836
363.4569, 111.6917
363.9390, 112.4517
364.4211, 112.6773
364.9032, 112.3843
365.3853, 111.7626
365.8675, 110.8609
366.3496, 109.7640
366.8317, 109.2995
367.3138, 109.7838
367.7959, 110.5657
368.2780, 111.9680
368.7602, 113.4059
369.2423, 114.0775
369.7244, 113.6103
370.2065, 112.5726
370.6886, 112.0249
371.1707, 111.9762
371.6529, 112.4402
372.1350, 114.2100
372.6171, 115.8935
373.0992, 116.4575
373.5813, 115.8206
374.0634, 114.8045
374.5456, 114.0755
375.0277, 113.6204
375.5098, 113.7785
375.9919, 115.1701
376.4740, 116.5214
376.9561, 117.3198
377.4383, 117.6310
377.9204, 117.6060
378.4025, 117.1457
378.8846, 116.5150
379.3667, 116.5250
379.8488, 117.4258
380.3310, 118.3234
380.8131, 118.6893
381.2952, 118.9415
381.7773, 119.5685
382.2594, 120.7588
382.7415, 122.0393
383.2237, 122.8014
383.7058, 123.0508
384.1879, 123.5354
384.6700, 124.6478
385.1521, 125.8320
385.6342, 126.5083
386.1164, 126.7122
386.5985, 127.0422
387.0806, 128.0375
387.5627, 129.3716
388.0448, 130.2247
388.5269, 130.4338
389.0091, 130.4857
389.4912, 130.8739
389.9733, 131.3707
390.4554, 131.4176
390.9375, 130.6004
391.4196, 129.5699
391.9018, 128.8963
392.3839, 128.5502
392.8660, 128.3087
393.3481, 128.1561
393.8302, 127.9725
394.3123, 127.5547
394.7945, 126.9203
395.2766, 126.0500
395.7587, 124.7557
396.2408, 123.2653
396.7229, 122.0155
397.2050, 121.1097
397.6872, 120.2718
398.1693, 119.1516
398.6514, 117.7149
399.1335, 116.4824
399.6156, 115.8079
400.0977, 115.0652
400.5798, 113.5834
401.0620, 111.5439
401.5441, 109.8380
402.0262, 109.0859
402.5083, 109.0503
402.9904, 108.5498
403.4725, 107.1479
403.9547, 105.8951
404.4368, 105.0599
404.9189, 104.4532
405.4010, 103.8160
405.8831, 103.0760
406.3652, 102.3873
406.8474, 101.9816
407.3295, 101.9385
407.8116, 101.9857
408.2937, 102.0804
408.7758, 102.2884
409.2579, 102.8915
409.7401, 103.6820
410.2222, 104.0464
410.7043, 103.4733
411.1864, 102.0998
411.6685, 101.1191
412.1506, 100.7315
412.6328, 100.5345
413.1149, 100.6054
413.5970, 100.7717
414.0791, 100.8752
414.5612, 100.8574
415.0433, 100.7212
415.5255, 100.5248
416.0076, 100.3803
416.4897, 99.77370
416.9718, 97.94547
417.4539, 96.27063
417.9360, 95.33788
418.4182, 95.13789
418.9003, 95.47224
419.3824, 96.49422
419.8645, 97.90192
420.3466, 98.24509
420.8287, 97.00249
421.3109, 95.76542
421.7930, 95.16295
422.2751, 94.91735
422.7572, 94.79936
423.2393, 94.78737
423.7214, 94.69926
424.2036, 94.17876
424.6857, 93.25786
425.1678, 92.76497
425.6499, 93.02747
426.1320, 93.61113
426.6141, 94.26426
427.0963, 94.94113
427.5784, 95.24067
428.0605, 94.68285
428.5426, 93.77168
429.0247, 93.26030
429.5068, 93.19210
429.9890, 93.38252
430.4711, 93.80431
430.9532, 94.39069
431.4353, 94.90012
431.9174, 95.32301
432.3995, 95.68295
432.8817, 96.14796
433.3638, 96.54237
433.8459, 96.36373
434.3280, 95.39000
434.8101, 94.23995
435.2922, 93.84148
435.7744, 94.48377
436.2565, 94.69370
436.7386, 94.27729
437.2207, 93.52944
437.7028, 92.31968
438.1849, 90.88481
438.6671, 90.02670
439.1492, 90.36923
439.6313, 91.64577
440.1134, 92.28158
440.5955, 91.67156
441.0776, 91.15812
441.5598, 91.14873
442.0418, 91.17146
442.5240, 90.58413
443.0061, 89.29296
443.4882, 87.92493
443.9703, 87.34201
444.4524, 87.74020
444.9345, 88.00027
445.4167, 88.08396
445.8988, 88.06399
446.3809, 87.77773
446.8630, 87.42374
447.3451, 87.41779
447.8272, 88.07320
448.3094, 89.03162
448.7915, 89.31639
449.2736, 88.63757
449.7557, 88.11117
450.2378, 88.30782
450.7199, 88.55315
451.2021, 88.17748
451.6842, 87.16756
452.1663, 86.40983
452.6484, 86.93662
453.1305, 88.38125
453.6126, 89.09348
454.0948, 88.85578
454.5769, 88.15652
455.0590, 86.78333
455.5411, 85.23958
456.0232, 84.53040
456.5053, 85.32634
456.9875, 86.40018
457.4696, 86.64121
457.9517, 86.23546
458.4338, 86.09871
458.9159, 86.64455
459.3980, 87.36387
459.8802, 87.30458
460.3623, 86.33681
460.8444, 85.97722
461.3265, 87.20885
461.8086, 88.67411
462.2907, 88.95517
462.7729, 88.14417
463.2550, 87.45895
463.7371, 87.77100
464.2192, 88.86778
464.7013, 89.52908
465.1834, 89.58105
465.6656, 89.45457
466.1477, 89.11353
466.6298, 88.67110
467.1119, 88.16645
467.5940, 87.64314
468.0761, 87.28580
468.5583, 87.35799
469.0404, 87.95866
469.5225, 88.35317
470.0046, 88.32661
470.4867, 88.31368
470.9688, 88.64222
471.4510, 89.02890
471.9331, 88.92461
472.4152, 88.02222
472.8973, 86.81606
473.3794, 86.25481
473.8615, 86.45380
474.3437, 86.81300
474.8258, 87.55741
475.3079, 88.15407
475.7900, 88.28340
476.2721, 87.95190
476.7542, 87.32558
477.2364, 86.18465
477.7185, 84.88544
478.2006, 84.28149
478.6827, 84.45532
479.1648, 84.88563
479.6469, 85.55064
480.1291, 86.19132
480.6112, 86.28922
481.0933, 85.57209
481.5754, 85.01700
482.0575, 85.42817
482.5396, 86.26602
483.0217, 86.41985
483.5038, 85.64423
483.9860, 84.73011
484.4681, 84.45459
484.9502, 84.85117
485.4323, 85.00581
485.9144, 84.70930
486.3965, 84.40860
486.8787, 84.34309
487.3608, 84.39608
487.8429, 84.32052
488.3250, 84.01734
488.8071, 83.63226
489.2892, 83.42937
489.7714, 83.48457
490.2535, 83.53895
490.7356, 83.38618
491.2177, 83.42124
491.6998, 84.28004
492.1819, 85.50000
492.6641, 85.89842
493.1462, 84.58712
493.6283, 82.26005
494.1104, 80.95790
494.5925, 80.94291
495.0746, 81.25032
495.5568, 82.19823
496.0389, 83.01270
496.5210, 82.92619
497.0031, 81.97600
497.4852, 81.17011
497.9673, 81.47002
498.4495, 82.43713
498.9316, 82.83885
499.4137, 82.56162
499.8958, 82.04823
500.3779, 81.39890
500.8600, 80.72559
501.3422, 80.25099
501.8243, 80.01254
502.3064, 79.91219
502.7885, 80.09912
503.2706, 80.34073
503.7527, 80.16908
504.2349, 79.47948
504.7170, 78.60152
505.1991, 77.82108
505.6812, 77.13535
506.1633, 76.62715
506.6454, 76.34962
507.1276, 76.16826
507.6097, 76.02754
508.0918, 75.95249
508.5739, 75.95951
509.0560, 76.05930
509.5381, 76.32278
510.0203, 76.94039
510.5024, 78.16922
510.9845, 78.87067
511.4666, 78.71738
511.9487, 78.35648
512.4308, 78.05059
512.9130, 77.71811
513.3951, 77.12155
513.8772, 76.08668
514.3593, 74.88735
514.8414, 73.97343
515.3235, 73.33723
515.8057, 73.05025
516.2878, 73.44973
516.7699, 73.88592
517.2520, 73.74134
517.7341, 73.09277
518.2162, 72.52695
518.6984, 72.34512
519.1805, 72.34629
519.6626, 72.34801
520.1447, 72.33161
520.6268, 72.07816
521.1089, 71.35121
521.5911, 70.47908
522.0732, 70.30474
522.5553, 71.07008
523.0374, 71.67413
523.5195, 71.97581
524.0016, 72.01308
524.4838, 71.68633
524.9659, 71.08186
525.4480, 70.49138
525.9301, 70.09910
526.4122, 69.93394
526.8943, 70.17818
527.3765, 71.46072
527.8586, 72.23796
528.3407, 72.23174
528.8228, 71.80798
529.3049, 71.04711
529.7870, 70.09466
530.2692, 69.39052
530.7513, 69.40127
531.2334, 70.00265
531.7155, 70.47094
532.1976, 70.78867
532.6797, 71.01004
533.1619, 71.14417
533.6440, 71.19803
534.1261, 71.15293
534.6082, 70.99459
535.0903, 70.82861
535.5724, 70.64348
536.0546, 70.51485
536.5367, 70.64108
537.0188, 71.05969
537.5009, 71.57476
537.9830, 72.16541
538.4651, 72.72346
538.9473, 72.71213
539.4294, 71.42405
539.9115, 70.50854
540.3936, 70.71613
540.8757, 71.40789
541.3578, 71.83981
541.8400, 71.84989
542.3221, 71.66068
542.8042, 71.49862
543.2863, 71.36652
543.7684, 71.08048
544.2505, 70.21996
544.7326, 69.72791
545.2147, 70.08065
545.6968, 70.74094
546.1790, 71.10065
546.6611, 71.01436
547.1432, 70.81853
547.6253, 70.95377
548.1074, 71.36811
548.5895, 71.37343
549.0717, 70.68421
549.5538, 70.14402
550.0359, 70.33993
550.5180, 70.98941
551.0001, 71.81216
551.4822, 73.01627
551.9644, 73.76116
552.4465, 73.03020
552.9286, 71.55980
553.4107, 70.99001
553.8928, 71.65446
554.3749, 72.51495
554.8571, 72.64001
555.3392, 72.05014
555.8213, 71.61211
556.3034, 71.09966
556.7855, 70.98404
557.2676, 71.81740
557.7498, 72.90633
558.2319, 73.35284
558.7140, 72.99369
559.1961, 72.43134
559.6782, 72.40062
560.1603, 72.91526
560.6425, 72.77818
561.1246, 71.32237
561.6067, 70.19627
562.0888, 70.14341
562.5709, 70.53123
563.0530, 70.62172
563.5352, 70.23167
564.0173, 69.78671
564.4994, 69.62981
564.9815, 69.70892
565.4636, 69.84871
565.9457, 70.02539
566.4279, 70.32934
566.9100, 71.00301
567.3921, 71.81454
567.8742, 71.98447
568.3563, 71.08984
568.8384, 70.26508
569.3206, 69.89877
569.8027, 69.80954
570.2848, 69.83652
570.7669, 69.92476
571.2490, 69.98279
571.7311, 69.92197
572.2133, 69.75746
572.6954, 69.65666
573.1775, 69.58501
573.6596, 69.63473
574.1417, 69.93879
574.6238, 70.28220
575.1060, 70.53319
575.5881, 70.64739
576.0702, 70.56155
576.5523, 70.09922
577.0344, 69.40508
577.5165, 69.08620
577.9987, 69.25862
578.4808, 69.28884
578.9629, 68.77117
579.4450, 68.05907
579.9271, 67.69748
580.4092, 67.75993
580.8914, 67.70350
581.3735, 67.18713
581.8556, 66.53401
582.3377, 65.99232
582.8198, 65.62737
583.3019, 65.64846
583.7841, 66.23402
584.2662, 67.14606
584.7483, 67.73827
585.2304, 67.96537
585.7125, 67.91289
586.1946, 67.27586
586.6768, 66.64571
587.1589, 66.49578
587.6410, 66.67008
588.1231, 66.63778
588.6052, 66.03182
589.0873, 65.23075
589.5695, 65.18372
590.0516, 66.06160
590.5337, 66.43658
591.0158, 65.86162
591.4979, 64.89242
591.9800, 63.69627
592.4622, 62.44277
592.9443, 61.86975
593.4264, 62.68528
593.9085, 63.82918
594.3906, 64.47017
594.8727, 64.73972
595.3549, 65.02017
595.8370, 65.43645
596.3191, 65.82037
596.8012, 65.99043
597.2833, 65.96095
597.7654, 65.58715
598.2476, 64.32193
598.7297, 63.39603
599.2118, 63.38191
599.6939, 63.84069
600.1760, 64.23344
600.6581, 64.39193
601.1403, 64.42869
601.6224, 64.43160
602.1045, 64.40559
602.5866, 64.49849
603.0687, 64.80770
603.5508, 65.01739
604.0330, 64.75623
604.5151, 64.39755
604.9972, 64.49087
605.4793, 65.20860
605.9614, 65.81371
606.4435, 65.91354
606.9257, 65.69543
607.4078, 65.36159
607.8899, 64.95174
608.3720, 64.52740
608.8541, 64.10163
609.3362, 63.73705
609.8184, 63.63211
610.3005, 63.87558
610.7826, 64.27162
611.2647, 64.90042
611.7468, 65.60534
612.2289, 66.54469
612.7111, 67.47572
613.1932, 67.76442
613.6753, 66.93806
614.1574, 65.63879
614.6395, 65.01913
615.1216, 65.10085
615.6038, 65.61972
616.0859, 66.86940
616.5680, 68.05502
617.0501, 68.47091
617.5322, 68.27741
618.0143, 67.94723
618.4965, 67.16420
618.9786, 66.72694
619.4607, 67.36978
619.9428, 68.63205
620.4249, 69.66846
620.9070, 70.27593
621.3892, 70.72305
621.8713, 71.22093
622.3534, 71.77786
622.8355, 72.85530
623.3176, 75.21299
623.7997, 77.11473
624.2819, 78.17689
624.7640, 78.76343
625.2461, 78.93818
625.7282, 78.85813
626.2103, 79.15636
626.6924, 80.57207
627.1745, 82.61732
627.6566, 83.94005
628.1387, 84.46701
628.6208, 85.36918
629.1030, 87.24014
629.5851, 89.51754
630.0672, 91.30576
630.5493, 92.55295
631.0314, 94.18272
631.5135, 96.33546
631.9957, 98.90954
632.4778, 102.0889
632.9599, 105.6089
633.4420, 108.7495
633.9241, 111.2664
634.4063, 114.1276
634.8884, 118.8366
635.3705, 125.6720
635.8526, 132.2322
636.3347, 138.7031
636.8168, 144.5496
637.2990, 149.9281
637.7811, 154.4908
638.2632, 158.0492
638.7453, 160.5961
639.2274, 161.2581
639.7095, 159.1294
640.1917, 154.8305
640.6738, 149.0053
641.1559, 141.7966
641.6380, 134.2617
642.1201, 126.7512
642.6022, 119.6448
643.0844, 113.7632
643.5665, 109.4476
644.0486, 105.8417
644.5307, 102.9271
645.0128, 100.7384
645.4949, 99.51801
645.9771, 98.98968
646.4592, 98.70649
646.9413, 98.48184
647.4234, 98.24039
647.9055, 97.87667
648.3876, 97.39162
648.8698, 96.81760
649.3519, 96.09031
649.8340, 95.42576
650.3161, 94.85509
650.7982, 94.47404
651.2803, 94.57542
651.7625, 95.50328
652.2446, 96.07069
652.7267, 95.77697
653.2088, 94.91158
653.6909, 93.56432
654.1730, 91.90176
654.6552, 90.38573
655.1373, 89.27970
655.6194, 88.59023
656.1015, 88.38609
656.5836, 88.89724
657.0657, 89.30139
657.5479, 89.67578
658.0300, 89.81248
658.5121, 89.30198
658.9942, 88.53621
659.4763, 88.37527
659.9584, 89.29166
660.4406, 90.24438
660.9227, 90.02061
661.4048, 89.13935
661.8869, 89.01434
662.3690, 89.86130
662.8511, 90.94418
663.3333, 91.77657
663.8154, 92.42223
664.2975, 93.14079
664.7796, 93.83430
665.2617, 94.74625
665.7438, 96.34471
666.2260, 97.76906
666.7081, 98.20821
667.1902, 97.98040
667.6723, 98.06792
668.1544, 99.05360
668.6365, 100.2531
669.1187, 100.5699
669.6008, 100.0362
670.0829, 99.34891
670.5650, 98.53174
671.0471, 97.76971
671.5292, 97.24837
672.0114, 96.89595
672.4935, 96.47350
672.9756, 96.13978
673.4577, 95.45281
673.9398, 94.03675
674.4219, 92.38236
674.9041, 90.89781
675.3862, 89.63319
675.8683, 88.48309
676.3504, 87.36799
676.8325, 86.37095
677.3146, 85.72756
677.7968, 85.52095
678.2789, 85.24932
678.7610, 84.67688
679.2431, 84.27501
679.7252, 84.50138
680.2073, 85.05469
680.6895, 85.35079
681.1716, 85.32173
681.6537, 84.90229
682.1358, 83.45341
682.6179, 81.87839
683.1000, 81.67501
683.5822, 82.83476
684.0643, 84.18629
684.5464, 85.03492
685.0285, 85.36143
685.5106, 85.05495
685.9927, 83.76841
686.4749, 82.66703
686.9570, 81.80909
687.4391, 81.13677
687.9212, 80.66166
688.4033, 80.35074
688.8854, 80.16051
689.3676, 80.09419
689.8497, 80.07719
690.3318, 79.94093
690.8139, 79.83511
691.2960, 80.26902
691.7781, 81.25987
692.2603, 81.85202
692.7424, 81.35625
693.2245, 80.27809
693.7066, 79.96706
694.1887, 80.99888
694.6708, 81.64795
695.1530, 82.12288
695.6351, 82.03239
696.1172, 80.52330
696.5993, 78.50544
697.0814, 77.59988
697.5635, 78.40616
698.0457, 79.72499
698.5278, 80.55205
699.0099, 80.91387
699.4920, 80.84470
699.9741, 80.33189
700.4562, 79.62405
700.9384, 78.77300
701.4205, 77.90633
701.9026, 77.31070
702.3847, 77.09909
702.8668, 76.87419
703.3489, 76.57119
703.8311, 76.31696
704.3132, 76.40313
704.7953, 76.50021
705.2774, 75.92014
705.7595, 74.50448
706.2416, 73.15667
706.7238, 73.04198
707.2059, 73.85074
707.6880, 74.24483
708.1701, 74.18874
708.6522, 73.78871
709.1343, 72.92675
709.6164, 71.93196
710.0985, 71.38251
710.5806, 71.37316
711.0627, 71.08492
711.5449, 70.11938
712.0270, 69.23360
712.5091, 68.65824
712.9912, 68.44284
713.4733, 68.81686
713.9554, 69.73363
714.4376, 70.54203
714.9197, 70.57919
715.4018, 70.02469
715.8839, 69.48406
716.3660, 68.90929
716.8481, 68.77335
717.3303, 69.47649
717.8124, 70.32922
718.2945, 70.36707
718.7766, 69.67664
719.2587, 69.57934
719.7408, 70.79201
720.2230, 71.90115
720.7051, 72.32841
721.1872, 72.36562
721.6693, 72.26644
722.1514, 72.13425
722.6335, 72.07908
723.1157, 72.15853
723.5978, 72.41967
724.0799, 73.05445
724.5620, 74.11144
725.0441, 75.06239
725.5262, 75.73159
726.0084, 76.40861
726.4905, 77.47285
726.9726, 78.75621
727.4547, 79.54157
727.9368, 79.17725
728.4189, 79.28403
728.9011, 81.08554
729.3832, 83.03069
729.8653, 83.26577
730.3474, 82.19740
730.8295, 81.63157
731.3116, 82.57582
731.7938, 84.44498
732.2759, 86.40781
732.7580, 88.46663
733.2401, 90.23307
733.7222, 91.80598
734.2043, 92.71903
734.6865, 92.35207
735.1686, 91.27599
735.6507, 90.83897
736.1328, 91.36153
736.6149, 91.41820
737.0970, 90.71842
737.5792, 89.45953
738.0613, 87.39451
738.5434, 84.96169
739.0255, 82.82043
739.5076, 81.21439
739.9897, 80.27036
740.4719, 80.55074
740.9540, 81.75454
741.4361, 81.60722
741.9182, 79.90310
742.4003, 77.80431
742.8824, 75.29824
743.3646, 73.10056
743.8467, 72.41701
744.3288, 73.25556
744.8109, 73.76305
745.2930, 73.50480
745.7751, 73.22356
746.2573, 73.03101
746.7394, 73.08645
747.2215, 73.90888
747.7036, 75.30503
748.1857, 76.04927
748.6678, 74.94404
749.1500, 73.02764
749.6321, 72.87595
750.1142, 74.48759
750.5963, 75.48768
751.0784, 75.29925
751.5605, 74.71532
752.0427, 74.13087
752.5248, 73.67304
753.0069, 74.04064
753.4890, 76.55238
753.9711, 77.77394
754.4532, 75.99710
754.9354, 73.92036
755.4175, 73.46453
755.8996, 74.30409
756.3817, 75.31205
756.8638, 76.02402
757.3459, 76.69004
757.8281, 77.71506
758.3102, 78.94902
758.7923, 79.82943
759.2744, 80.32376
759.7565, 80.40536
760.2386, 79.93696
760.7208, 79.27402
761.2029, 79.03725
761.6850, 79.34111
762.1671, 79.61466
762.6492, 80.16748
763.1313, 80.32313
763.6135, 79.59447
764.0956, 78.52592
764.5777, 77.54936
765.0598, 76.81369
765.5419, 76.55972
766.0240, 77.27636
766.5062, 78.26571
766.9883, 78.60814
767.4704, 78.36040
767.9525, 77.55807
768.4346, 76.17893
768.9167, 75.10836
769.3989, 75.25990
769.8810, 76.34054
770.3631, 76.50198
770.8452, 74.82846
771.3273, 73.90466
771.8094, 74.47372
772.2916, 75.25018
772.7737, 75.74493
773.2558, 75.90207
773.7379, 75.62244
774.2200, 74.76540
774.7021, 73.95940
775.1843, 73.68847
775.6664, 73.67368
776.1485, 73.64697
776.6306, 73.53020
777.1127, 73.06657
777.5948, 72.12736
778.0770, 71.15777
778.5591, 70.87035
779.0412, 71.30264
779.5233, 71.60343
780.0054, 71.76575
780.4875, 71.80462
780.9697, 71.51608
781.4518, 71.26719
781.9339, 71.49265
782.4160, 72.15151
782.8981, 72.69339
783.3802, 73.06752
783.8624, 73.20151
784.3445, 72.68008
784.8266, 72.10517
785.3087, 72.41026
785.7908, 73.54069
786.2729, 74.60588
786.7551, 74.99812
787.2372, 75.05098
787.7193, 75.47365
788.2014, 76.25820
788.6835, 76.80396
789.1656, 76.95852
789.6478, 77.18848
790.1299, 77.83231
790.6120, 78.70113
791.0941, 79.21152
791.5762, 78.85519
792.0583, 79.68111
792.5404, 83.33938
793.0225, 86.51881
793.5046, 87.01289
793.9868, 86.42140
794.4689, 87.09718
794.9510, 89.44408
795.4331, 91.88754
795.9152, 93.06164
796.3973, 93.73134
796.8795, 95.17758
797.3616, 97.27452
797.8437, 99.33719
798.3258, 101.1965
798.8079, 103.1439
799.2900, 105.4454
799.7722, 108.0547
800.2543, 110.6393
800.7364, 113.2126
801.2185, 115.7497
801.7006, 118.1740
802.1827, 120.6292
802.6649, 123.0187
803.1470, 125.5162
803.6291, 128.4751
804.1112, 132.0430
804.5933, 135.6042
805.0754, 138.9770
805.5576, 142.0636
806.0397, 144.5650
806.5218, 146.7169
807.0039, 149.3070
807.4860, 152.5223
807.9681, 155.4034
808.4503, 156.7748
808.9324, 156.9130
809.4145, 157.2406
809.8966, 157.7708
810.3787, 158.4238
810.8608, 159.2039
811.3430, 160.0515
811.8251, 160.9296
812.3072, 161.8313
812.7893, 162.7137
813.2714, 163.2822
813.7535, 164.2604
814.2357, 165.3760
814.7178, 167.2710
815.1999, 170.8969
815.6820, 175.5203
816.1641, 179.6898
816.6462, 182.8865
817.1284, 185.7150
817.6105, 188.8284
818.0926, 191.8663
818.5747, 194.1302
819.0568, 195.6390
819.5389, 196.5776
820.0211, 196.9844
820.5032, 197.2383
820.9853, 197.7947
821.4674, 198.6191
821.9495, 199.2120
822.4316, 199.7718
822.9138, 199.6627
823.3959, 198.3504
823.8780, 196.7456
824.3601, 195.3239
824.8422, 194.0928
825.3243, 193.0973
825.8065, 192.5172
826.2886, 191.7570
826.7707, 190.4986
827.2528, 189.0354
827.7349, 187.4348
828.2170, 185.8844
828.6992, 184.8365
829.1813, 184.4067
829.6634, 183.9718
830.1455, 182.5340
830.6276, 180.6217
831.1097, 180.2576
831.5919, 181.4132
832.0740, 182.3637
832.5561, 182.6274
833.0382, 182.5114
833.5203, 182.2324
834.0024, 181.8336
834.4846, 181.6542
834.9667, 182.0588
835.4488, 182.0750
835.9309, 181.4958
836.4130, 180.7090
836.8951, 179.8122
837.3773, 178.8741
837.8594, 178.0202
838.3415, 177.3026
838.8236, 176.4593
839.3057, 175.3144
839.7878, 174.0126
840.2700, 172.9126
840.7521, 171.7176
841.2342, 169.6160
841.7163, 166.4994
842.1984, 163.2610
842.6805, 160.7580
843.1627, 158.7501
843.6448, 156.4698
844.1269, 153.9130
844.6090, 151.7589
845.0911, 150.2903
845.5732, 148.6840
846.0554, 146.2942
846.5375, 143.4147
847.0196, 140.8862
847.5017, 138.7966
847.9838, 136.8924
848.4659, 135.6374
848.9481, 134.0159
849.4302, 131.2031
849.9123, 128.0514
850.3944, 125.5193
850.8765, 123.7415
851.3586, 122.3867
851.8408, 121.5693
852.3229, 120.8207
852.8050, 119.7187
853.2871, 118.4130
853.7692, 117.0814
854.2513, 115.8042
854.7335, 114.7417
855.2156, 114.0280
855.6977, 113.4336
856.1798, 112.4383
856.6619, 111.0658
857.1440, 110.1888
857.6262, 109.9502
858.1083, 109.6861
858.5904, 109.0880
859.0725, 108.3620
859.5546, 107.7680
860.0367, 107.3072
860.5189, 106.9908
861.0010, 107.2295
861.4831, 107.0504
861.9652, 105.9796
862.4473, 104.7150
862.9294, 103.6914
863.4116, 102.9246
863.8937, 102.3512
864.3758, 101.9923
864.8579, 101.6638
865.3400, 101.0941
865.8221, 100.6108
866.3043, 100.8884
866.7864, 101.5483
867.2685, 101.4422
867.7506, 100.2399
868.2327, 98.84736
868.7148, 98.20069
869.1970, 98.11701
869.6791, 97.96445
870.1612, 97.74309
870.6433, 97.87009
871.1254, 98.56597
871.6075, 98.94605
872.0897, 98.16377
872.5718, 96.70044
873.0539, 96.16575
873.5360, 97.20780
874.0181, 97.69193
874.5002, 97.11803
874.9823, 96.55267
875.4644, 96.67068
875.9465, 96.77668
876.4286, 95.71313
876.9108, 93.51661
877.3929, 92.21938
877.8750, 93.53590
878.3571, 94.74313
878.8392, 94.03645
879.3214, 92.57278
879.8035, 91.72937
880.2856, 91.51264
880.7677, 91.25656
881.2498, 90.63583
881.7319, 89.76609
882.2141, 88.49119
882.6962, 87.12558
883.1783, 86.85050
883.6604, 87.58989
884.1425, 88.05605
884.6246, 87.78366
885.1068, 87.16050
885.5889, 86.55289
886.0710, 85.99696
886.5531, 85.84133
887.0352, 86.29678
887.5173, 86.52949
887.9995, 86.32510
888.4816, 86.03442
888.9637, 85.91086
889.4458, 85.83578
889.9279, 85.60964
890.4100, 85.28239
890.8922, 84.57893
891.3743, 82.54061
891.8564, 81.18260
892.3385, 82.19321
892.8206, 83.88490
893.3027, 84.27720
893.7849, 83.31786
894.2670, 82.20520
894.7491, 81.45912
895.2312, 80.93729
895.7133, 80.63528
896.1954, 80.41048
896.6776, 79.92503
897.1597, 79.27307
897.6418, 78.94982
898.1239, 79.16426
898.6060, 79.56936
899.0881, 79.74512
899.5703, 79.73441
900.0524, 79.73060
900.5345, 79.72658
901.0166, 79.93641
901.4987, 80.50001
901.9808, 80.91727
902.4630, 80.71597
902.9451, 80.10891
903.4272, 79.85054
903.9093, 80.09310
904.3914, 80.32559
904.8735, 80.33244
905.3557, 80.60522
905.8378, 81.45879
906.3199, 82.56080
906.8020, 83.73023
907.2841, 84.89880
907.7662, 85.46110
908.2484, 84.32774
908.7305, 83.76331
909.2126, 85.32185
909.6947, 87.33390
910.1768, 88.16251
910.6589, 88.10345
911.1411, 88.29893
911.6232, 89.17744
912.1053, 90.21255
912.5874, 90.96391
913.0695, 91.58553
913.5516, 92.45103
914.0338, 93.38282
914.5159, 93.75510
914.9980, 93.46431
915.4801, 93.09832
915.9622, 93.16125
916.4443, 93.30634
916.9265, 92.53273
917.4086, 90.84355
917.8907, 89.76331
918.3728, 89.49812
918.8549, 89.24092
919.3370, 88.65070
919.8192, 87.83457
920.3013, 86.88639
920.7834, 85.78938
921.2655, 84.99570
921.7476, 84.56929
922.2297, 84.33646
922.7119, 84.40035
923.1940, 84.52872
923.6761, 84.41288
924.1582, 84.31223
924.6403, 84.84388
925.1224, 86.24273
925.6046, 87.45991
926.0867, 88.15654
926.5688, 88.69735
927.0509, 89.10439
927.5330, 89.56734
928.0151, 90.49464
928.4973, 91.73144
928.9794, 92.44747
929.4615, 92.02946
929.9436, 91.55360
930.4257, 92.15379
930.9078, 93.16785
931.3900, 93.60131
931.8721, 93.53956
932.3542, 93.50346
932.8363, 93.67081
933.3184, 93.84380
933.8005, 93.75973
934.2827, 93.61059
934.7648, 94.17258
935.2469, 95.29662
935.7290, 95.38989
936.2111, 94.15876
936.6932, 92.82172
937.1754, 92.08341
937.6575, 91.68575
938.1396, 91.15726
938.6217, 90.47923
939.1038, 89.89857
939.5859, 89.43882
940.0681, 89.03043
940.5502, 88.81807
941.0323, 88.41875
941.5144, 87.45014
941.9965, 86.02589
942.4786, 84.59340
942.9608, 82.99177
943.4429, 81.70522
943.9250, 80.67097
944.4071, 80.05028
944.8892, 80.34465
945.3713, 80.80489
945.8535, 80.58720
946.3356, 79.66714
946.8177, 78.55198
947.2998, 77.01315
947.7819, 75.90545
948.2640, 76.06821
948.7462, 76.49892
949.2283, 76.22868
949.7104, 75.47794
950.1925, 74.81228
950.6746, 74.42016
951.1567, 74.31730
951.6389, 74.80494
952.1210, 75.33069
952.6031, 75.08321
953.0852, 74.35717
953.5673, 73.72961
954.0494, 73.30632
954.5316, 73.04594
955.0137, 72.92551
955.4958, 72.94899
955.9779, 73.29697
956.4600, 73.81212
956.9421, 73.67616
957.4242, 72.90000
957.9063, 71.74676
958.3884, 70.21708
958.8705, 69.07681
959.3527, 69.01337
959.8348, 69.66210
960.3169, 70.02713
960.7990, 70.14424
961.2811, 69.67233
961.7632, 68.22373
962.2454, 67.27392
962.7275, 67.51428
963.2096, 68.30223
963.6917, 69.17325
964.1738, 70.04427
964.6559, 69.96455
965.1381, 68.17379
965.6202, 66.66065
966.1023, 65.17647
966.5844, 64.32268
967.0665, 64.87141
967.5486, 65.91918
968.0308, 66.29960
968.5129, 65.93452
968.9950, 65.34747
969.4771, 64.12267
969.9592, 63.38890
970.4413, 64.25851
970.9235, 65.11163
971.4056, 64.20108
971.8877, 62.37937
972.3698, 61.72248
972.8519, 62.78991
973.3340, 63.52689
973.8162, 62.28429
974.2983, 60.74938
974.7804, 60.12256
975.2625, 60.18158
975.7446, 60.85131
976.2267, 61.86344
976.7089, 62.51672
977.1910, 62.46455
977.6731, 62.28918
978.1552, 62.77155
978.6373, 63.42677
979.1194, 63.35264
979.6016, 62.71642
980.0837, 61.94075
980.5658, 61.19758
981.0479, 60.96997
981.5300, 61.64300
982.0121, 62.62778
982.4943, 62.71185
982.9764, 62.13056
983.4585, 62.50145
983.9406, 63.81215
984.4227, 63.97227
984.9048, 62.20677
985.3870, 60.74858
985.8691, 61.82239
986.3512, 64.42622
986.8333, 65.01604
987.3154, 63.18966
987.7975, 62.87221
988.2797, 64.73485
988.7618, 66.20296
989.2439, 66.21052
989.7260, 65.48788
990.2081, 64.75290
990.6902, 64.04379
991.1724, 63.72499
991.6545, 64.01389
992.1366, 64.19450
992.6187, 64.25069
993.1008, 64.13774
993.5829, 63.46734
994.0651, 62.86934
994.5472, 63.52599
995.0293, 65.47369
995.5114, 66.35373
995.9935, 65.32706
996.4756, 64.41289
996.9578, 63.67081
997.4399, 63.31239
997.9220, 63.74429
998.4041, 64.50333
998.8862, 64.82233
999.3683, 64.60629
999.8505, 64.55148
1000.333, 64.80466
1000.815, 65.27895
1001.297, 66.26279
1001.779, 67.16781
1002.261, 67.30434
1002.743, 67.04318
1003.225, 67.25693
1003.707, 68.16581
1004.190, 68.92600
1004.672, 68.80914
1005.154, 68.75229
1005.636, 69.61093
1006.118, 70.72363
1006.600, 71.35521
1007.082, 71.49930
1007.564, 71.39262
1008.046, 71.11803
1008.529, 70.82695
1009.011, 70.45940
1009.493, 70.29526
1009.975, 70.82810
1010.457, 71.70842
1010.939, 72.29008
1011.421, 72.55675
1011.903, 73.00225
1012.385, 73.88144
1012.868, 74.48498
1013.350, 73.60494
1013.832, 74.03191
1014.314, 72.18746
1014.796, 73.10009
1015.278, 72.91489
1015.760, 71.46955
1016.242, 70.41111
1016.725, 70.74635
1017.207, 71.43212
1017.689, 70.82369
1018.171, 69.32293
1018.653, 68.28721
1019.135, 67.71947
1019.617, 67.58279
1020.099, 67.85164
1020.581, 68.15954
1021.064, 68.24837
1021.546, 68.27432
1022.028, 68.70021
1022.510, 69.43118
1022.992, 69.08290
1023.474, 67.61684
1023.956, 66.96603
1024.438, 67.67421
1024.921, 68.70245
1025.403, 69.25389
1025.885, 69.65074
1026.367, 70.76189
1026.849, 72.66248
1027.331, 73.95713
1027.813, 74.56548
1028.295, 74.98670
1028.777, 75.24718
1029.260, 75.76890
1029.742, 77.00972
1030.224, 78.60129
1030.706, 79.37324
1031.188, 79.03065
1031.670, 79.50837
1032.152, 81.03742
1032.634, 82.69997
1033.116, 84.16544
1033.599, 85.86747
1034.081, 88.32705
1034.563, 91.20471
1035.045, 93.38517
1035.527, 94.47973
1036.009, 96.28701
1036.491, 99.33339
1036.973, 102.0880
1037.456, 104.0867
1037.938, 106.0650
1038.420, 107.2409
1038.902, 108.6206
1039.384, 109.4143
1039.866, 109.6676
1040.348, 109.1842
1040.830, 107.5889
1041.313, 105.7999
1041.795, 104.0820
1042.277, 102.2249
1042.759, 100.0455
1043.241, 97.59652
1043.723, 95.02369
1044.205, 92.11579
1044.687, 89.65617
1045.169, 87.57068
1045.651, 86.07458
1046.134, 85.73890
1046.616, 85.57751
1047.098, 84.73746
1047.580, 83.42678
1048.062, 82.29037
1048.544, 81.35764
1049.026, 80.68628
1049.508, 80.38289
1049.991, 80.21908
1050.473, 80.18992
1050.955, 80.20647
1051.437, 80.25291
1051.919, 80.27880
1052.401, 80.13471
1052.883, 79.73202
1053.365, 79.47320
1053.848, 79.51250
1054.330, 79.62207
1054.812, 79.81951
1055.294, 79.95994
1055.776, 79.82507
1056.258, 79.55412
1056.740, 79.52676
1057.222, 79.85857
1057.704, 80.10246
1058.187, 80.25675
1058.669, 80.13957
1059.151, 79.50021
1059.633, 78.70595
1060.115, 77.93494
1060.597, 77.30150
1061.079, 77.03883
1061.561, 77.22868
1062.043, 77.34943
1062.526, 77.22014
1063.008, 76.98817
1063.490, 76.30059
1063.972, 75.91074
1064.454, 76.80881
1064.936, 78.41543
1065.418, 79.49976
1065.900, 79.80891
1066.383, 79.88526
1066.865, 79.76814
1067.347, 79.68673
1067.829, 79.92673
1068.311, 80.08543
1068.793, 79.45436
1069.275, 78.61481
1069.757, 78.82323
1070.240, 80.26863
1070.722, 81.51079
1071.204, 81.98280
1071.686, 82.07956
1072.168, 81.52589
1072.650, 81.10925
1073.132, 81.57278
1073.614, 82.60281
1074.096, 83.54446
1074.578, 84.32057
1075.061, 85.46029
1075.543, 87.54256
1076.025, 89.45834
1076.507, 90.51525
1076.989, 91.35255
1077.471, 92.27563
1077.953, 93.43358
1078.435, 95.06210
1078.918, 97.12381
1079.400, 99.17153
1079.882, 100.9413
1080.364, 102.8988
1080.846, 105.2124
1081.328, 107.8641
1081.810, 110.8548
1082.292, 114.1796
1082.774, 117.7797
1083.257, 121.6986
1083.739, 126.1617
1084.221, 131.3249
1084.703, 136.8396
1085.185, 142.6832
1085.667, 148.6523
1086.149, 154.1884
1086.631, 160.0654
1087.114, 167.4573
1087.596, 176.0600
1088.078, 184.6774
1088.560, 193.1157
1089.042, 200.8430
1089.524, 206.8354
1090.006, 213.1232
1090.488, 220.8179
1090.970, 229.3971
1091.453, 238.4053
1091.935, 247.7661
1092.417, 257.3340
1092.899, 267.1417
1093.381, 276.9042
1093.863, 285.7596
1094.345, 295.5166
1094.827, 307.8886
1095.309, 320.6110
1095.792, 331.9546
1096.274, 342.0842
1096.756, 351.9509
1097.238, 361.6790
1097.720, 369.5833
1098.202, 376.4752
1098.684, 379.6069
1099.166, 377.5332
1099.649, 371.9762
1100.131, 363.9688
1100.613, 353.3550
1101.095, 338.8782
1101.577, 320.8356
1102.059, 303.3125
1102.541, 287.2417
1103.023, 271.9382
1103.505, 256.4225
1103.988, 242.4775
1104.470, 231.4189
1104.952, 222.2576
1105.434, 213.5118
1105.916, 205.4684
1106.398, 200.1887
1106.880, 199.0994
1107.362, 198.1484
1107.844, 196.2913
1108.327, 194.9900
1108.809, 195.1436
1109.291, 195.7763
1109.773, 196.0185
1110.255, 196.0167
1110.737, 196.3974
1111.219, 197.4882
1111.701, 197.8511
1112.184, 197.6317
1112.666, 196.3302
1113.148, 193.7448
1113.630, 190.1356
1114.112, 185.2664
1114.594, 179.6630
1115.076, 174.2060
1115.558, 168.9248
1116.041, 163.6821
1116.523, 158.6079
1117.005, 153.3648
1117.487, 147.7418
1117.969, 142.1843
1118.451, 136.7671
1118.933, 131.6482
1119.415, 126.9880
1119.897, 122.8160
1120.380, 119.2699
1120.862, 116.8683
1121.344, 113.7158
1121.826, 108.9786
1122.308, 105.1815
1122.790, 103.5828
1123.272, 102.5785
1123.754, 100.7260
1124.236, 98.22083
1124.719, 95.68993
1125.201, 93.06813
1125.683, 90.68166
1126.165, 88.45519
1126.647, 86.85461
1127.129, 86.21096
1127.611, 85.43534
1128.093, 83.69930
1128.576, 81.57417
1129.058, 80.13548
1129.540, 79.35860
1130.022, 78.54857
1130.504, 77.69446
1130.986, 77.02900
1131.468, 76.61678
1131.950, 76.08293
1132.432, 75.22549
1132.915, 74.30228
1133.397, 73.59972
1133.879, 73.12560
1134.361, 72.94949
1134.843, 73.05008
1135.325, 73.36746
1135.807, 73.84349
1136.289, 73.42236
1136.771, 71.78897
1137.254, 70.35780
1137.736, 70.31429
1138.218, 70.95097
1138.700, 71.02182
1139.182, 70.69364
1139.664, 70.36192
1140.146, 70.14368
1140.628, 70.69804
1141.111, 71.96335
1141.593, 72.65454
1142.075, 72.08716
1142.557, 71.30537
1143.039, 71.67075
1143.521, 71.22500
1144.003, 72.19027
1144.485, 71.48735
1144.968, 71.71363
1145.450, 72.64471
1145.932, 73.09142
1146.414, 72.69970
1146.896, 72.05468
1147.378, 71.56572
1147.860, 70.99381
1148.342, 69.66470
1148.824, 68.49729
1149.307, 69.10584
1149.789, 70.43479
1150.271, 70.35952
1150.753, 68.87696
1151.235, 67.65463
1151.717, 67.36476
1152.199, 67.44191
1152.681, 68.08527
1153.163, 68.37936
1153.646, 67.42166
1154.128, 66.04420
1154.610, 65.07558
1155.092, 64.44054
1155.574, 63.72398
1156.056, 62.83679
1156.538, 62.18398
1157.020, 61.98675
1157.503, 61.88812
1157.985, 61.44202
1158.467, 61.44375
1158.949, 62.95540
1159.431, 64.81448
1159.913, 65.43084
1160.395, 64.88751
1160.877, 64.40597
1161.359, 63.91801
1161.842, 63.77375
1162.324, 64.31217
1162.806, 64.67246
1163.288, 64.51868
1163.770, 64.25085
1164.252, 64.14449
1164.734, 64.14574
1165.216, 64.10561
1165.698, 63.99601
1166.181, 64.24902
1166.663, 64.93806
1167.145, 65.80234
1167.627, 67.00501
1168.109, 67.63041
1168.591, 67.17271
1169.073, 66.12295
1169.555, 64.84539
1170.037, 63.71422
1170.520, 64.43984
1171.002, 66.95568
1171.484, 68.66012
1171.966, 69.44310
1172.448, 69.78970
1172.930, 69.84425
1173.412, 70.28481
1173.894, 71.58396
1174.377, 73.33616
1174.859, 75.11328
1175.341, 76.80073
1175.823, 77.65314
1176.305, 80.10088
1176.787, 80.57956
1177.269, 84.48119
1177.751, 87.89378
1178.234, 90.12176
1178.716, 92.08305
1179.198, 94.42768
1179.680, 96.94876
1180.162, 99.40670
1180.644, 101.9235
1181.126, 104.5993
1181.608, 107.4880
1182.090, 110.8776
1182.573, 114.5297
1183.055, 117.5058
1183.537, 119.3743
1184.019, 121.0585
1184.501, 123.4103
1184.983, 125.2296
1185.465, 125.9611
1185.947, 125.7648
1186.429, 124.5813
1186.912, 122.6758
1187.394, 120.3544
1187.876, 117.6802
1188.358, 115.0978
1188.840, 113.3532
1189.322, 110.6196
1189.804, 105.8788
1190.286, 101.2221
1190.769, 97.42323
1191.251, 93.95908
1191.733, 90.43633
1192.215, 86.94826
1192.697, 83.72038
1193.179, 80.78437
1193.661, 77.86335
1194.143, 74.76223
1194.625, 72.55002
1195.108, 71.61898
1195.590, 70.56563
1196.072, 68.65229
1196.554, 66.62630
1197.036, 65.33748
1197.518, 64.64129
1198.000, 64.20962
1198.482, 63.99372
1198.964, 63.43635
1199.447, 62.58759
1199.929, 61.99610
1200.411, 61.80149
1200.893, 62.10445
1201.375, 62.98575
1201.857, 63.74497
1202.339, 63.25940
1202.821, 62.42227
1203.304, 62.80750
1203.786, 63.83348
1204.268, 64.44548
1204.750, 64.77259
1205.232, 65.41418
1205.714, 66.49583
1206.196, 67.79519
1206.678, 69.37971
1207.161, 70.56452
1207.643, 70.50937
1208.125, 70.37237
1208.607, 70.85713
1209.089, 71.76694
1209.571, 72.94766
1210.053, 74.32266
1210.535, 75.74184
1211.017, 77.16409
1211.500, 78.99680
1211.982, 82.10044
1212.464, 84.39992
1212.946, 85.30350
1213.428, 85.73769
1213.910, 85.52446
1214.392, 85.61307
1214.874, 87.08321
1215.356, 89.45146
1215.839, 91.25301
1216.321, 92.43982
1216.803, 93.43240
1217.285, 94.13924
1217.767, 95.32063
1218.249, 97.14298
1218.731, 99.09129
1219.213, 100.9578
1219.696, 102.4368
1220.178, 103.1068
1220.660, 103.3413
1221.142, 103.9991
1221.624, 104.9633
1222.106, 105.8557
1222.588, 106.6827
1223.070, 107.4097
1223.552, 108.1471
1224.035, 109.5420
1224.517, 111.9025
1224.999, 113.9297
1225.481, 114.2591
1225.963, 114.0685
1226.445, 114.4381
1226.927, 114.8258
1227.409, 114.4162
1227.891, 113.7315
1228.374, 113.6659
1228.856, 114.2752
1229.338, 115.1731
1229.820, 116.5979
1230.302, 117.1738
1230.784, 116.1503
1231.266, 114.8336
1231.748, 113.1762
1232.231, 111.8684
1232.713, 111.7908
1233.195, 111.9027
1233.677, 110.5730
1234.159, 108.0191
1234.641, 106.1697
1235.123, 105.0894
1235.605, 104.4389
1236.088, 104.2728
1236.570, 104.2162
1237.052, 104.2217
1237.534, 103.7254
1238.016, 102.2805
1238.498, 100.8184
1238.980, 100.8244
1239.462, 101.6274
1239.944, 101.3054
1240.427, 100.2790
1240.909, 99.74358
1241.391, 99.70082
1241.873, 99.86716
1242.355, 100.0909
1242.837, 99.99759
1243.319, 99.30754
1243.801, 98.86039
1244.283, 99.68979
1244.766, 100.5344
1245.248, 100.3209
1245.730, 99.74944
1246.212, 99.53469
1246.694, 99.48794
1247.176, 98.87560
1247.658, 97.81078
1248.140, 98.08974
1248.622, 101.2927
1249.105, 103.0297
1249.587, 102.1175
1250.069, 101.2669
1250.551, 101.3224
1251.033, 101.1271
1251.515, 99.77894
1251.997, 98.07999
1252.479, 97.23083
1252.962, 97.10217
1253.444, 97.04053
1253.926, 97.04015
1254.408, 96.88834
1254.890, 96.55167
1255.372, 95.51525
1255.854, 93.76885
1256.336, 92.61821
1256.818, 92.83827
1257.301, 93.32211
1257.783, 92.93053
1258.265, 92.02757
1258.747, 90.87268
1259.229, 89.70513
1259.711, 88.86255
1260.193, 88.26187
1260.675, 87.74871
1261.157, 87.25809
1261.640, 86.70670
1262.122, 86.09996
1262.604, 85.27631
1263.086, 83.65961
1263.568, 82.55608
1264.050, 82.60860
1264.532, 83.04737
1265.014, 83.79301
1265.497, 84.32899
1265.979, 83.99121
1266.461, 82.95925
1266.943, 81.92902
1267.425, 80.84907
1267.907, 80.19865
1268.389, 79.99619
1268.871, 80.05506
1269.354, 80.34521
1269.836, 80.80897
1270.318, 81.42915
1270.800, 81.69896
1271.282, 80.97331
1271.764, 81.52293
1272.246, 80.55686
1272.728, 81.65237
1273.210, 81.90740
1273.693, 81.83463
1274.175, 82.73181
1274.657, 84.30191
1275.139, 85.17580
1275.621, 84.99617
1276.103, 84.56940
1276.585, 83.94096
1277.067, 83.60511
1277.549, 83.79279
1278.032, 84.22029
1278.514, 84.71853
1278.996, 85.44353
1279.478, 86.72346
1279.960, 88.18118
1280.442, 89.08652
1280.924, 89.44961
1281.406, 89.44454
1281.889, 88.88671
1282.371, 89.69812
1282.853, 92.12157
1283.335, 93.64009
1283.817, 93.56018
1284.299, 93.21871
1284.781, 93.44731
1285.263, 94.15214
1285.745, 95.22999
1286.228, 96.68254
##END=



