##NAMES=Nickelskutterudite
##RRUFFID=R100196
##IDEAL CHEMISTRY=(Ni^4+^,Co^3+^,Fe^3+^)As_3_
##LOCALITY=Alhambra mine, Burro Mountains, Grant County, New Mexico, USA
##OWNER=RRUFF
##SOURCE=Ron Gibbs
##DESCRIPTION=Silver dodecahedral crystals, dissolved out of calcite
##STATUS=The identification of this mineral is confirmed by single-crystal X-ray diffraction and chemical analysis.
##URL=rruff.info/R100196
##MEASURED CHEMISTRY=(Ni_0.62_Co_0.28_Fe_0.12_)_Σ=1.02_(As_2.95_S_0.05_)_Σ=3.00_
166.7276, 73.88287
167.2097, 74.72022
167.6918, 78.33740
168.1739, 84.28340
168.6560, 89.08492
169.1381, 89.24010
169.6203, 87.47644
170.1024, 86.51047
170.5845, 89.02010
171.0666, 92.54591
171.5487, 95.43446
172.0309, 97.66147
172.5130, 98.46712
172.9951, 95.97764
173.4772, 91.94604
173.9593, 89.09933
174.4414, 89.75659
174.9236, 91.43171
175.4057, 91.02264
175.8878, 88.49280
176.3699, 86.29366
176.8520, 86.75631
177.3341, 89.05413
177.8163, 91.41590
178.2984, 93.42521
178.7805, 94.92544
179.2626, 95.49802
179.7447, 95.08061
180.2268, 94.35616
180.7090, 93.50405
181.1911, 92.78239
181.6732, 93.04350
182.1553, 95.73550
182.6374, 99.53425
183.1195, 101.3440
183.6017, 100.9083
184.0838, 99.72624
184.5659, 99.48437
185.0480, 100.0274
185.5301, 100.5675
186.0123, 100.9287
186.4944, 101.0137
186.9765, 100.2216
187.4586, 98.28381
187.9407, 96.36526
188.4228, 96.05537
188.9050, 97.26582
189.3871, 99.21953
189.8692, 101.8248
190.3513, 104.9172
190.8334, 107.9263
191.3155, 110.9963
191.7977, 113.4990
192.2798, 114.1358
192.7619, 112.9172
193.2440, 111.4541
193.7261, 110.1663
194.2082, 109.1406
194.6904, 109.5800
195.1725, 111.8855
195.6546, 115.0062
196.1367, 116.8977
196.6188, 117.5047
197.1009, 117.8373
197.5831, 118.6617
198.0652, 119.9809
198.5473, 120.0605
199.0294, 118.3787
199.5115, 116.0194
199.9937, 115.4408
200.4758, 116.9200
200.9579, 118.4147
201.4400, 118.7837
201.9221, 117.9620
202.4042, 116.8266
202.8864, 115.1500
203.3685, 113.4580
203.8506, 113.2869
204.3327, 115.0440
204.8148, 116.6674
205.2969, 116.7125
205.7791, 114.8176
206.2612, 114.1034
206.7433, 115.1387
207.2254, 117.1551
207.7075, 118.0808
208.1896, 117.5658
208.6718, 116.9889
209.1539, 117.2250
209.6360, 118.5255
210.1181, 119.4326
210.6002, 120.0824
211.0823, 120.1881
211.5645, 118.6779
212.0466, 114.9191
212.5287, 111.0305
213.0108, 107.9733
213.4929, 105.6007
213.9750, 104.6692
214.4572, 105.7968
214.9393, 108.1571
215.4214, 109.2037
215.9035, 108.3356
216.3856, 107.3809
216.8678, 107.6585
217.3499, 110.1236
217.8320, 110.5270
218.3141, 107.7711
218.7962, 103.0884
219.2783, 100.4720
219.7605, 100.7229
220.2426, 101.6125
220.7247, 102.0292
221.2068, 101.8826
221.6889, 101.4718
222.1710, 100.5808
222.6532, 99.48790
223.1353, 99.19556
223.6174, 100.2249
224.0995, 101.1823
224.5816, 101.2794
225.0637, 100.0080
225.5459, 99.17583
226.0280, 98.89941
226.5101, 99.08193
226.9922, 99.47877
227.4743, 100.2585
227.9564, 100.9928
228.4386, 101.4205
228.9207, 101.2272
229.4028, 101.4875
229.8849, 102.3876
230.3670, 103.7066
230.8492, 104.9036
231.3313, 106.1168
231.8134, 106.9838
232.2955, 107.4118
232.7776, 107.6297
233.2597, 106.7288
233.7419, 103.8489
234.2240, 100.0838
234.7061, 98.50184
235.1882, 100.2570
235.6703, 102.4283
236.1524, 103.7143
236.6346, 103.3595
237.1167, 103.9219
237.5988, 105.9918
238.0809, 108.7653
238.5630, 110.3035
239.0451, 109.8196
239.5273, 109.2627
240.0094, 109.4756
240.4915, 110.9017
240.9736, 111.9030
241.4557, 112.1956
241.9378, 112.1920
242.4200, 112.8006
242.9021, 114.4575
243.3842, 116.0550
243.8663, 117.1365
244.3484, 117.4607
244.8306, 117.9700
245.3127, 118.5769
245.7948, 119.4076
246.2769, 120.9188
246.7590, 124.1799
247.2411, 126.2583
247.7233, 125.6337
248.2054, 120.9592
248.6875, 118.8367
249.1696, 120.8490
249.6517, 124.3691
250.1338, 124.8942
250.6160, 120.6064
251.0981, 116.6007
251.5802, 114.7198
252.0623, 115.5578
252.5444, 115.2537
253.0265, 112.9806
253.5087, 110.2470
253.9908, 109.4759
254.4729, 111.9961
254.9550, 113.7431
255.4371, 113.2129
255.9192, 109.9720
256.4014, 108.1179
256.8835, 108.2536
257.3656, 109.1796
257.8477, 109.4949
258.3298, 109.1379
258.8120, 108.2687
259.2941, 106.6683
259.7762, 104.2353
260.2583, 102.8012
260.7404, 102.7687
261.2225, 103.2154
261.7047, 103.1956
262.1868, 102.6634
262.6689, 101.7388
263.1510, 100.2348
263.6331, 98.19500
264.1152, 96.79902
264.5974, 96.12068
265.0795, 95.99063
265.5616, 96.32164
266.0437, 97.23079
266.5258, 98.27187
267.0079, 99.54796
267.4901, 100.9639
267.9722, 101.4727
268.4543, 100.8194
268.9364, 99.78594
269.4185, 99.05348
269.9006, 98.76686
270.3828, 98.08651
270.8649, 96.58867
271.3470, 94.62065
271.8291, 93.96939
272.3112, 95.03413
272.7933, 96.34729
273.2755, 96.74917
273.7576, 96.07087
274.2397, 95.66616
274.7218, 95.74741
275.2039, 96.17021
275.6860, 96.61039
276.1682, 97.17464
276.6503, 97.37101
277.1324, 96.63562
277.6145, 94.86073
278.0966, 93.72585
278.5787, 93.43900
279.0609, 93.76940
279.5430, 94.50237
280.0251, 95.80265
280.5072, 96.47558
280.9893, 95.15719
281.4715, 91.87765
281.9536, 90.90730
282.4357, 92.98139
282.9178, 96.33327
283.3999, 98.03494
283.8820, 98.02991
284.3642, 97.37400
284.8463, 96.22806
285.3284, 94.67128
285.8105, 93.68740
286.2926, 93.28649
286.7747, 93.40916
287.2569, 94.31314
287.7390, 95.95170
288.2211, 97.11550
288.7032, 97.20557
289.1853, 96.40075
289.6674, 95.35445
290.1496, 94.00022
290.6317, 92.80579
291.1138, 92.41352
291.5959, 92.72430
292.0780, 93.04389
292.5602, 93.08288
293.0423, 93.00138
293.5244, 93.22791
294.0065, 93.77072
294.4886, 94.43629
294.9707, 95.40585
295.4529, 96.44013
295.9350, 96.57365
296.4171, 95.13843
296.8992, 93.06932
297.3813, 91.87046
297.8634, 91.52644
298.3456, 91.86414
298.8277, 93.54078
299.3098, 95.76952
299.7919, 96.67142
300.2740, 95.47887
300.7561, 93.47318
301.2383, 92.14042
301.7204, 91.40494
302.2025, 91.02196
302.6846, 90.98719
303.1667, 91.15659
303.6488, 91.40220
304.1310, 91.81196
304.6131, 91.95131
305.0952, 90.55983
305.5773, 88.41903
306.0594, 87.64322
306.5415, 91.32908
307.0237, 95.95789
307.5058, 97.31180
307.9879, 94.54785
308.4700, 91.57288
308.9521, 91.94707
309.4343, 94.09234
309.9164, 95.23192
310.3985, 92.88554
310.8806, 89.95743
311.3627, 88.96656
311.8448, 90.03850
312.3270, 90.86165
312.8091, 88.99269
313.2912, 86.43068
313.7733, 85.53699
314.2554, 89.14192
314.7375, 92.90347
315.2197, 94.44369
315.7018, 93.97154
316.1839, 93.27270
316.6660, 92.89027
317.1481, 92.75992
317.6302, 92.84747
318.1124, 93.41602
318.5945, 93.86003
319.0766, 94.00308
319.5587, 93.86555
320.0408, 93.52603
320.5229, 92.35088
321.0051, 91.44104
321.4872, 91.56059
321.9693, 93.78394
322.4514, 95.22849
322.9335, 94.80112
323.4156, 93.24630
323.8978, 91.99846
324.3799, 91.45167
324.8620, 91.12322
325.3441, 90.83990
325.8262, 90.55427
326.3083, 90.43618
326.7905, 90.59701
327.2726, 90.90121
327.7547, 91.17919
328.2368, 91.80746
328.7189, 92.00912
329.2010, 91.32755
329.6832, 89.60676
330.1653, 88.83235
330.6474, 89.99104
331.1295, 91.38581
331.6116, 91.56361
332.0938, 89.22583
332.5759, 87.75920
333.0580, 87.92326
333.5401, 89.45399
334.0222, 90.40795
334.5043, 90.82625
334.9865, 90.62597
335.4686, 89.50323
335.9507, 86.61462
336.4328, 85.19967
336.9149, 85.95602
337.3970, 88.02962
337.8792, 89.08439
338.3613, 88.86079
338.8434, 88.40468
339.3255, 88.26488
339.8076, 88.55293
340.2898, 88.15430
340.7719, 86.77065
341.2540, 85.20983
341.7361, 84.71616
342.2182, 85.38612
342.7003, 86.28072
343.1825, 87.09981
343.6646, 87.87284
344.1467, 88.93855
344.6288, 90.44839
345.1109, 91.53251
345.5930, 90.92445
346.0752, 88.82327
346.5573, 87.17508
347.0394, 86.44201
347.5215, 86.43914
348.0036, 86.89230
348.4857, 87.79107
348.9679, 88.77127
349.4500, 89.97867
349.9321, 91.08784
350.4142, 90.82838
350.8963, 88.46445
351.3784, 86.07986
351.8606, 87.27247
352.3427, 91.06737
352.8248, 93.88436
353.3069, 92.52671
353.7890, 89.42087
354.2711, 87.93584
354.7533, 88.45106
355.2354, 89.47596
355.7175, 90.11245
356.1996, 90.34636
356.6817, 90.15254
357.1638, 88.82508
357.6460, 87.57105
358.1281, 87.55962
358.6102, 88.69195
359.0923, 89.62162
359.5744, 89.27072
360.0565, 88.48003
360.5387, 88.08819
361.0208, 88.76781
361.5029, 89.33678
361.9850, 89.22820
362.4671, 88.58559
362.9492, 87.84450
363.4314, 86.98293
363.9135, 86.19004
364.3956, 85.49574
364.8777, 84.68082
365.3598, 84.50719
365.8419, 85.96361
366.3241, 87.97482
366.8062, 88.91634
367.2883, 87.24757
367.7704, 85.75583
368.2526, 85.28438
368.7347, 86.06018
369.2168, 86.65266
369.6989, 86.69477
370.1810, 86.75574
370.6631, 87.37195
371.1453, 89.64151
371.6274, 90.79227
372.1095, 89.99516
372.5916, 87.63343
373.0737, 86.27269
373.5558, 86.09866
374.0380, 86.62827
374.5201, 87.86536
375.0022, 90.38892
375.4843, 91.56804
375.9664, 90.92363
376.4485, 89.23959
376.9307, 87.97427
377.4128, 87.16232
377.8949, 86.66798
378.3770, 86.48111
378.8591, 86.59290
379.3412, 86.89541
379.8234, 87.43230
380.3055, 87.99660
380.7876, 88.34616
381.2697, 88.49245
381.7518, 88.55882
382.2339, 88.48962
382.7161, 88.42942
383.1982, 88.78480
383.6803, 89.54124
384.1624, 90.36169
384.6445, 91.43581
385.1266, 92.36765
385.6088, 91.90274
386.0909, 89.49489
386.5730, 86.80277
387.0551, 85.66344
387.5372, 85.82161
388.0193, 86.54174
388.5015, 88.25209
388.9836, 89.89657
389.4657, 89.97938
389.9478, 88.36843
390.4299, 87.00790
390.9120, 87.87145
391.3942, 89.55349
391.8763, 90.30001
392.3584, 88.42915
392.8405, 86.50874
393.3226, 85.79603
393.8047, 86.14326
394.2869, 86.87479
394.7690, 88.47507
395.2511, 89.86917
395.7332, 90.30694
396.2154, 89.15237
396.6975, 88.13247
397.1796, 87.50738
397.6617, 87.25309
398.1438, 87.32430
398.6259, 87.91834
399.1081, 88.63461
399.5902, 89.67106
400.0723, 91.26498
400.5544, 91.45529
401.0365, 88.69939
401.5186, 85.68059
402.0008, 84.70692
402.4829, 87.01896
402.9650, 89.01430
403.4471, 90.27547
403.9292, 90.92709
404.4113, 91.46632
404.8935, 91.91595
405.3756, 92.21086
405.8577, 92.33132
406.3398, 92.28567
406.8219, 91.93217
407.3040, 91.13060
407.7862, 90.28818
408.2683, 90.08787
408.7504, 90.55290
409.2325, 90.91433
409.7146, 90.85215
410.1967, 90.50469
410.6789, 90.42593
411.1610, 90.63482
411.6431, 90.65136
412.1252, 89.54815
412.6073, 87.88535
413.0894, 87.52316
413.5716, 89.34245
414.0537, 91.43465
414.5358, 91.04641
415.0179, 88.85825
415.5000, 87.08043
415.9821, 87.25977
416.4643, 88.28822
416.9464, 89.23927
417.4285, 90.06221
417.9106, 90.34377
418.3927, 89.07021
418.8748, 87.34971
419.3570, 86.51955
419.8391, 88.23725
420.3212, 89.75390
420.8033, 89.53240
421.2854, 87.98145
421.7675, 87.02975
422.2497, 88.03849
422.7318, 89.22646
423.2139, 89.57664
423.6960, 88.44840
424.1781, 87.64446
424.6602, 87.31358
425.1424, 87.43336
425.6245, 88.00290
426.1066, 89.63606
426.5887, 90.93595
427.0709, 91.74303
427.5530, 92.05669
428.0351, 91.24081
428.5172, 88.34612
428.9993, 85.60688
429.4814, 84.78010
429.9636, 86.41169
430.4457, 87.95564
430.9278, 89.45644
431.4099, 90.50999
431.8920, 89.79053
432.3741, 86.99128
432.8563, 84.76140
433.3384, 84.60230
433.8205, 86.18111
434.3026, 87.15064
434.7847, 87.44084
435.2668, 87.72018
435.7490, 89.04054
436.2311, 91.00347
436.7132, 92.08649
437.1953, 91.63296
437.6774, 90.48454
438.1595, 89.47726
438.6417, 88.67393
439.1238, 88.33534
439.6059, 89.34653
440.0880, 90.53112
440.5701, 90.40060
441.0522, 88.59379
441.5344, 86.89780
442.0165, 86.20948
442.4986, 86.34766
442.9807, 87.10027
443.4628, 89.65096
443.9449, 91.57521
444.4271, 91.22889
444.9092, 89.11662
445.3913, 88.14529
445.8734, 90.36089
446.3555, 92.89042
446.8376, 94.29180
447.3198, 93.92786
447.8019, 93.48147
448.2840, 93.18182
448.7661, 92.75073
449.2482, 91.73008
449.7303, 89.54036
450.2125, 87.76635
450.6946, 86.79864
451.1767, 86.58688
451.6588, 86.38358
452.1409, 86.08253
452.6230, 86.03173
453.1052, 86.52647
453.5873, 87.60456
454.0694, 88.83464
454.5515, 90.25008
455.0337, 91.66109
455.5158, 93.02145
455.9979, 94.27946
456.4800, 94.45789
456.9621, 92.08868
457.4442, 88.66064
457.9264, 88.28895
458.4085, 90.85269
458.8906, 93.11420
459.3727, 91.30811
459.8548, 87.73169
460.3369, 86.33372
460.8191, 88.72224
461.3012, 91.60715
461.7833, 92.32180
462.2654, 91.57985
462.7475, 90.86562
463.2296, 91.06320
463.7118, 91.26234
464.1939, 90.92925
464.6760, 90.02318
465.1581, 89.01177
465.6402, 87.61204
466.1223, 86.42274
466.6045, 85.88596
467.0866, 86.10134
467.5687, 86.92372
468.0508, 88.99657
468.5329, 91.60757
469.0150, 93.19147
469.4972, 93.40164
469.9793, 93.06161
470.4614, 92.15693
470.9435, 90.61327
471.4256, 90.14082
471.9077, 91.11364
472.3899, 92.41376
472.8720, 92.98924
473.3541, 92.77107
473.8362, 92.81961
474.3183, 93.45591
474.8004, 94.15822
475.2826, 93.60255
475.7647, 91.89507
476.2468, 90.54819
476.7289, 90.80315
477.2110, 91.87077
477.6931, 91.89869
478.1753, 90.87593
478.6574, 89.67966
479.1395, 88.56683
479.6216, 87.87111
480.1037, 88.32473
480.5858, 91.06348
481.0680, 93.20773
481.5501, 91.93746
482.0322, 88.65821
482.5143, 86.30733
482.9964, 86.26176
483.4786, 87.20980
483.9607, 88.97921
484.4428, 91.63596
484.9249, 93.42899
485.4070, 93.31001
485.8892, 92.64087
486.3713, 92.37878
486.8534, 92.91857
487.3355, 93.33871
487.8176, 93.79018
488.2997, 94.05103
488.7819, 93.47046
489.2640, 91.36397
489.7461, 89.98594
490.2282, 90.26753
490.7103, 92.09747
491.1924, 93.67896
491.6746, 95.13107
492.1567, 95.88915
492.6388, 94.76175
493.1209, 92.08578
493.6030, 91.23206
494.0851, 93.08738
494.5673, 95.63210
495.0494, 95.74605
495.5315, 93.98934
496.0136, 92.38178
496.4957, 91.99051
496.9778, 92.16129
497.4600, 92.38136
497.9421, 92.59652
498.4242, 92.37053
498.9063, 90.39664
499.3884, 88.46034
499.8705, 88.35757
500.3527, 91.40691
500.8348, 93.88272
501.3169, 94.49507
501.7990, 93.71221
502.2811, 92.17590
502.7632, 87.87363
503.2454, 85.12621
503.7275, 85.73815
504.2096, 89.29655
504.6917, 91.22380
505.1738, 90.29796
505.6559, 89.37699
506.1381, 90.36536
506.6202, 94.35297
507.1023, 95.47486
507.5844, 92.79611
508.0665, 88.94186
508.5486, 87.70741
509.0308, 89.15928
509.5129, 90.17286
509.9950, 89.70246
510.4771, 88.53399
510.9592, 88.45482
511.4413, 89.36450
511.9235, 90.29514
512.4056, 90.53979
512.8877, 90.45228
513.3698, 90.53123
513.8519, 90.81289
514.3340, 91.26469
514.8162, 92.49886
515.2983, 93.65749
515.7804, 93.62717
516.2625, 90.49581
516.7446, 88.13799
517.2267, 89.08501
517.7089, 91.99874
518.1910, 93.58263
518.6731, 91.62512
519.1552, 89.64537
519.6373, 89.07471
520.1194, 90.11282
520.6016, 90.43270
521.0837, 89.61783
521.5658, 88.54640
522.0479, 87.73762
522.5300, 87.06409
523.0121, 87.22902
523.4943, 88.53268
523.9764, 90.35262
524.4585, 91.54237
524.9406, 92.06737
525.4227, 92.71366
525.9048, 94.19229
526.3870, 95.76897
526.8691, 95.07989
527.3513, 92.28714
527.8334, 89.88432
528.3155, 90.16059
528.7976, 91.74870
529.2797, 92.76830
529.7618, 93.00584
530.2440, 92.58736
530.7261, 90.78377
531.2082, 88.63107
531.6903, 87.48713
532.1724, 88.48022
532.6545, 89.80218
533.1367, 91.37343
533.6188, 92.90424
534.1009, 93.43832
534.5830, 91.91800
535.0651, 90.23134
535.5472, 88.77083
536.0294, 87.38156
536.5115, 87.46268
536.9936, 90.00215
537.4757, 92.63301
537.9578, 93.03832
538.4399, 90.68989
538.9221, 89.65317
539.4042, 90.71291
539.8863, 92.58780
540.3684, 92.94352
540.8505, 91.89070
541.3326, 90.75161
541.8148, 90.13525
542.2969, 89.72527
542.7790, 88.60619
543.2611, 86.94640
543.7432, 86.03112
544.2253, 86.90675
544.7075, 88.87449
545.1896, 91.65629
545.6717, 95.56262
546.1538, 98.26744
546.6359, 98.03251
547.1180, 96.25921
547.6002, 94.43404
548.0823, 91.99335
548.5644, 90.57182
549.0465, 91.04648
549.5286, 92.77576
550.0107, 93.92301
550.4929, 94.37777
550.9750, 94.40961
551.4571, 94.05753
551.9392, 93.31686
552.4213, 92.26620
552.9034, 90.69128
553.3856, 89.45132
553.8677, 89.56377
554.3498, 90.87533
554.8319, 91.44224
555.3140, 90.95882
555.7961, 90.12019
556.2783, 89.61703
556.7604, 89.47520
557.2425, 89.83105
557.7246, 91.29886
558.2067, 92.69866
558.6888, 92.56531
559.1710, 91.31804
559.6531, 90.37339
560.1352, 90.46459
560.6173, 91.03899
561.0994, 91.96104
561.5815, 93.30466
562.0637, 94.20741
562.5458, 94.16688
563.0279, 93.83708
563.5100, 93.70183
563.9921, 93.91698
564.4742, 94.09975
564.9564, 94.47050
565.4385, 94.62715
565.9206, 93.67294
566.4027, 91.32403
566.8848, 89.26768
567.3669, 87.80179
567.8491, 87.07719
568.3312, 88.20817
568.8133, 91.10259
569.2954, 93.44896
569.7775, 92.90861
570.2596, 91.03355
570.7418, 91.06983
571.2239, 93.27846
571.7060, 95.01591
572.1881, 93.64355
572.6702, 90.99325
573.1523, 89.00252
573.6345, 87.99707
574.1166, 88.03066
574.5987, 90.33638
575.0808, 93.45768
575.5629, 95.00501
576.0450, 92.44862
576.5272, 90.66894
577.0093, 90.97440
577.4914, 92.97131
577.9735, 94.05770
578.4556, 93.95124
578.9377, 93.49492
579.4199, 92.88944
579.9020, 92.12805
580.3841, 92.37227
580.8662, 93.81461
581.3483, 95.23256
581.8304, 95.11791
582.3126, 93.91252
582.7947, 93.22027
583.2768, 93.47457
583.7589, 93.89365
584.2410, 93.64672
584.7231, 92.95168
585.2053, 92.24018
585.6874, 91.95220
586.1696, 91.45371
586.6517, 89.75730
587.1338, 87.34947
587.6159, 86.38332
588.0980, 89.08798
588.5801, 91.86159
589.0623, 93.03260
589.5444, 92.30089
590.0265, 91.94833
590.5086, 92.23925
590.9907, 92.57299
591.4728, 92.31887
591.9550, 91.26646
592.4371, 91.12706
592.9192, 92.24849
593.4013, 93.78743
593.8834, 94.61951
594.3655, 94.79137
594.8477, 94.56206
595.3298, 93.92801
595.8119, 93.05196
596.2940, 91.75999
596.7761, 90.33318
597.2582, 89.67339
597.7404, 91.11181
598.2225, 92.83041
598.7046, 93.56571
599.1867, 93.24133
599.6688, 92.66771
600.1509, 91.98973
600.6331, 91.20308
601.1152, 90.17329
601.5973, 88.17480
602.0794, 87.72790
602.5615, 89.76618
603.0436, 92.46577
603.5258, 93.64666
604.0079, 92.99392
604.4900, 92.58457
604.9721, 92.92760
605.4542, 93.42527
605.9363, 92.65554
606.4185, 90.77135
606.9006, 89.04121
607.3827, 87.83459
607.8648, 87.27467
608.3469, 88.01274
608.8290, 89.80151
609.3112, 91.20837
609.7933, 90.98035
610.2754, 90.33964
610.7575, 90.18914
611.2396, 90.67263
611.7217, 91.31966
612.2039, 92.28530
612.6860, 93.17905
613.1681, 93.74397
613.6502, 94.47107
614.1323, 93.87649
614.6144, 90.99374
615.0966, 87.62675
615.5787, 86.46102
616.0608, 87.80312
616.5429, 89.53633
617.0250, 91.36077
617.5071, 93.06863
617.9893, 94.29597
618.4714, 95.00874
618.9535, 94.92251
619.4356, 93.07933
619.9177, 90.80350
620.3998, 90.01419
620.8820, 90.56516
621.3641, 90.95081
621.8462, 89.48677
622.3283, 88.11742
622.8104, 88.56193
623.2925, 91.67317
623.7747, 93.96780
624.2568, 94.66479
624.7389, 94.37069
625.2210, 93.46854
625.7031, 91.35136
626.1852, 89.94866
626.6674, 89.41109
627.1495, 89.58630
627.6316, 90.54826
628.1137, 92.35479
628.5958, 93.44920
629.0779, 93.06739
629.5601, 92.08045
630.0422, 92.42922
630.5243, 93.81430
631.0064, 94.83098
631.4885, 94.20399
631.9706, 93.18394
632.4528, 93.09145
632.9349, 93.86897
633.4170, 94.38477
633.8991, 93.53360
634.3812, 92.73048
634.8633, 93.03742
635.3455, 95.26082
635.8276, 96.26228
636.3097, 95.12081
636.7918, 93.51942
637.2739, 93.01980
637.7560, 94.11864
638.2382, 94.09615
638.7203, 92.22401
639.2024, 90.14977
639.6845, 91.04142
640.1666, 94.44212
640.6487, 96.48307
641.1309, 95.42882
641.6130, 93.28293
642.0951, 92.81219
642.5772, 93.54607
643.0594, 94.18470
643.5415, 94.11076
644.0236, 93.73606
644.5057, 92.92046
644.9879, 91.81206
645.4700, 91.65192
645.9521, 94.40018
646.4342, 96.61085
646.9163, 96.46739
647.3984, 93.39681
647.8806, 92.02668
648.3627, 93.09766
648.8448, 94.46313
649.3269, 94.15457
649.8090, 92.17454
650.2911, 91.04333
650.7733, 91.02132
651.2554, 91.47791
651.7375, 91.82686
652.2196, 92.06041
652.7017, 92.17237
653.1838, 92.18794
653.6660, 92.02445
654.1481, 91.24904
654.6302, 90.30799
655.1123, 89.98363
655.5944, 91.22164
656.0765, 92.39185
656.5587, 92.82681
657.0408, 92.72312
657.5229, 93.11547
658.0050, 94.51748
658.4871, 95.51862
658.9692, 95.55089
659.4514, 94.69637
659.9335, 93.74950
660.4156, 92.66605
660.8977, 91.87276
661.3798, 91.87193
661.8619, 92.38969
662.3441, 92.70927
662.8262, 92.78825
663.3083, 92.74784
663.7904, 92.49076
664.2725, 92.26119
664.7546, 92.39671
665.2368, 93.18071
665.7189, 93.74131
666.2010, 93.62672
666.6831, 93.21548
667.1652, 92.92907
667.6473, 92.70722
668.1295, 92.77974
668.6116, 93.39192
669.0937, 94.14001
669.5758, 94.03307
670.0579, 92.92756
670.5400, 92.40891
671.0222, 93.20128
671.5043, 94.58183
671.9864, 95.17884
672.4685, 95.04275
672.9506, 94.42701
673.4327, 92.68443
673.9149, 91.10069
674.3970, 91.15324
674.8791, 92.62434
675.3612, 93.78147
675.8433, 93.62954
676.3254, 93.25459
676.8076, 93.13505
677.2897, 93.28277
677.7718, 93.96507
678.2539, 95.99657
678.7360, 97.42393
679.2181, 96.29344
679.7003, 92.13737
680.1824, 90.87315
680.6645, 93.16988
681.1466, 96.27238
681.6287, 97.04424
682.1108, 96.21030
682.5930, 95.70810
683.0751, 95.90646
683.5572, 96.54728
684.0393, 98.25379
684.5214, 100.0164
685.0035, 100.4062
685.4857, 97.23716
685.9678, 94.63999
686.4499, 93.90779
686.9320, 94.43917
687.4141, 94.89133
687.8962, 95.42175
688.3784, 95.52171
688.8605, 94.85978
689.3426, 93.77970
689.8247, 93.65394
690.3068, 94.52846
690.7889, 95.10059
691.2711, 94.22430
691.7532, 92.85486
692.2353, 93.39531
692.7174, 95.48961
693.1995, 96.92700
693.6816, 95.59884
694.1638, 93.66209
694.6459, 92.70602
695.1280, 92.88853
695.6101, 93.32710
696.0922, 94.37729
696.5743, 95.13673
697.0565, 94.99665
697.5386, 93.56007
698.0207, 92.91443
698.5028, 93.19814
698.9849, 93.98119
699.4670, 95.04542
699.9492, 96.33897
700.4313, 97.37340
700.9135, 98.11845
701.3956, 98.41331
701.8777, 97.56755
702.3598, 96.26478
702.8419, 95.78283
703.3240, 97.01534
703.8062, 98.00794
704.2883, 97.68849
704.7704, 96.51338
705.2525, 95.15618
705.7346, 92.47030
706.2167, 91.29298
706.6989, 92.52051
707.1810, 95.13889
707.6631, 97.03697
708.1452, 98.19347
708.6273, 98.52705
709.1094, 97.75541
709.5916, 96.39560
710.0737, 95.50503
710.5558, 95.07128
711.0379, 94.98679
711.5200, 95.59480
712.0021, 96.22637
712.4843, 96.16129
712.9664, 95.53256
713.4485, 95.08044
713.9306, 94.91524
714.4127, 95.14196
714.8948, 96.12143
715.3770, 97.87621
715.8591, 98.66837
716.3412, 98.21099
716.8233, 97.35728
717.3054, 96.44698
717.7875, 95.48991
718.2697, 94.94550
718.7518, 94.82217
719.2339, 94.94570
719.7160, 95.35239
720.1981, 95.83842
720.6802, 96.04508
721.1624, 95.90639
721.6445, 95.73726
722.1266, 95.57019
722.6087, 95.54533
723.0908, 95.80823
723.5729, 96.55740
724.0551, 97.24854
724.5372, 98.04433
725.0193, 98.60221
725.5014, 98.40665
725.9835, 97.24364
726.4656, 96.73099
726.9478, 97.19897
727.4299, 97.90510
727.9120, 97.65349
728.3941, 96.74316
728.8762, 96.12385
729.3583, 96.07943
729.8405, 96.36061
730.3226, 96.88516
730.8047, 97.57038
731.2868, 98.26238
731.7689, 100.0250
732.2510, 100.4991
732.7332, 98.00181
733.2153, 94.11784
733.6974, 91.90198
734.1795, 91.58956
734.6616, 92.49775
735.1437, 94.90422
735.6259, 98.01804
736.1080, 99.87765
736.5901, 100.5310
737.0722, 100.3957
737.5543, 99.33644
738.0364, 97.84823
738.5186, 96.13027
739.0007, 94.40844
739.4828, 93.43090
739.9649, 93.81782
740.4470, 94.73940
740.9291, 96.21470
741.4113, 98.11225
741.8934, 99.07825
742.3755, 98.87388
742.8576, 98.12074
743.3397, 96.67952
743.8218, 94.79099
744.3040, 94.83754
744.7861, 96.87038
745.2682, 98.78238
745.7503, 98.77005
746.2324, 97.86938
746.7145, 97.80972
747.1967, 98.59883
747.6788, 99.31413
748.1609, 99.60812
748.6430, 99.52912
749.1251, 98.94433
749.6072, 97.63979
750.0894, 96.95105
750.5715, 97.03869
751.0536, 97.58019
751.5357, 98.73116
752.0178, 100.6819
752.4999, 100.6220
752.9821, 98.26974
753.4642, 95.75072
753.9463, 95.05314
754.4284, 95.65723
754.9105, 96.84358
755.3926, 98.65356
755.8748, 99.73508
756.3569, 98.43814
756.8390, 96.48965
757.3211, 95.42539
757.8032, 95.81590
758.2853, 96.45634
758.7675, 97.54155
759.2496, 98.55901
759.7318, 99.00456
760.2139, 98.79695
760.6960, 98.60428
761.1781, 98.47571
761.6602, 98.38691
762.1423, 98.44025
762.6245, 98.50066
763.1066, 98.18446
763.5887, 97.30827
764.0708, 96.39859
764.5529, 95.54744
765.0350, 94.99283
765.5172, 95.01695
765.9993, 96.11125
766.4814, 97.23670
766.9635, 98.46884
767.4456, 99.59089
767.9277, 100.4233
768.4099, 101.0519
768.8920, 100.6009
769.3741, 98.50887
769.8562, 96.34083
770.3383, 96.98897
770.8204, 99.42448
771.3026, 100.7859
771.7847, 99.69051
772.2668, 98.22630
772.7489, 97.68436
773.2310, 97.73457
773.7131, 97.86230
774.1953, 98.41345
774.6774, 98.39841
775.1595, 97.32967
775.6416, 95.88269
776.1237, 95.27084
776.6058, 95.54124
777.0880, 96.40018
777.5701, 98.03130
778.0522, 99.73376
778.5343, 99.99694
779.0164, 99.31522
779.4985, 99.17708
779.9807, 101.2029
780.4628, 102.6992
780.9449, 101.2061
781.4270, 98.08084
781.9091, 96.12072
782.3912, 97.17287
782.8734, 97.81051
783.3555, 97.33648
783.8376, 96.27200
784.3197, 95.90381
784.8018, 96.26607
785.2839, 97.02399
785.7661, 98.49971
786.2482, 99.69419
786.7303, 98.03545
787.2124, 94.61842
787.6945, 92.51591
788.1766, 94.40444
788.6588, 96.71847
789.1409, 98.04053
789.6230, 98.39259
790.1051, 97.81443
790.5872, 95.05427
791.0693, 93.41942
791.5515, 93.92619
792.0336, 95.80038
792.5157, 96.64825
792.9978, 96.46296
793.4799, 96.82896
793.9620, 98.59318
794.4442, 100.9250
794.9263, 103.0876
795.4084, 104.8552
795.8905, 105.6357
796.3726, 104.6275
796.8547, 103.1388
797.3369, 101.2342
797.8190, 99.24868
798.3011, 98.25624
798.7832, 98.85314
799.2653, 99.23802
799.7474, 98.89324
800.2296, 98.11097
800.7117, 97.44854
801.1938, 96.96962
801.6759, 97.45009
802.1580, 100.0973
802.6401, 102.9134
803.1223, 103.4161
803.6044, 102.2160
804.0865, 100.9069
804.5686, 100.0969
805.0507, 99.25679
805.5328, 97.57613
806.0150, 95.78405
806.4971, 96.19440
806.9792, 99.89821
807.4613, 102.2114
807.9434, 101.4464
808.4255, 98.94881
808.9077, 97.49704
809.3898, 96.99919
809.8719, 97.05544
810.3540, 97.69348
810.8361, 98.59771
811.3182, 99.83057
811.8004, 101.1221
812.2825, 101.8642
812.7646, 101.2776
813.2467, 100.8797
813.7288, 100.9762
814.2109, 101.4318
814.6931, 102.1251
815.1752, 103.1891
815.6573, 103.1560
816.1394, 101.0779
816.6215, 98.54955
817.1037, 98.53605
817.5858, 100.2588
818.0679, 101.6651
818.5500, 101.7772
819.0322, 101.4776
819.5143, 100.7935
819.9964, 100.0536
820.4785, 100.0547
820.9606, 101.7260
821.4427, 102.3571
821.9249, 101.1199
822.4070, 99.06337
822.8891, 98.44358
823.3712, 99.13634
823.8533, 99.77435
824.3354, 99.94876
824.8176, 99.96810
825.2997, 100.0335
825.7818, 100.2208
826.2639, 100.6566
826.7460, 101.8643
827.2281, 102.7472
827.7103, 103.1250
828.1924, 103.0203
828.6745, 102.2706
829.1566, 100.5584
829.6387, 99.52527
830.1208, 99.49197
830.6030, 100.0367
831.0851, 100.7637
831.5672, 101.5399
832.0493, 101.9558
832.5314, 101.7737
833.0135, 101.5393
833.4957, 101.4691
833.9778, 101.6263
834.4599, 102.0890
834.9420, 104.1118
835.4241, 104.4797
835.9063, 102.2957
836.3884, 99.53347
836.8705, 98.81374
837.3526, 100.0615
837.8347, 100.1698
838.3168, 98.46967
838.7990, 97.21146
839.2811, 100.1220
839.7632, 104.3794
840.2453, 105.6549
840.7274, 101.9453
841.2095, 99.29745
841.6917, 101.0111
842.1738, 103.7070
842.6559, 104.7654
843.1380, 103.7768
843.6201, 102.3513
844.1022, 100.1885
844.5844, 98.62453
845.0665, 99.57452
845.5486, 102.0543
846.0307, 103.4123
846.5128, 103.4103
846.9949, 102.5967
847.4771, 100.2970
847.9592, 98.08223
848.4413, 97.19001
848.9234, 97.95010
849.4055, 99.24183
849.8876, 101.5850
850.3698, 103.5089
850.8519, 103.9012
851.3340, 102.9209
851.8161, 102.6556
852.2982, 103.0994
852.7803, 103.5410
853.2625, 103.2746
853.7446, 102.8575
854.2267, 102.9536
854.7088, 103.5427
855.1909, 104.0307
855.6730, 104.5958
856.1552, 104.5801
856.6373, 103.3459
857.1194, 101.1877
857.6015, 100.6728
858.0836, 102.0123
858.5657, 103.3911
859.0479, 104.0128
859.5300, 104.0911
860.0121, 103.8829
860.4942, 103.4598
860.9763, 103.0705
861.4584, 102.9852
861.9406, 102.8215
862.4227, 102.0698
862.9048, 101.0867
863.3869, 101.1525
863.8690, 102.9006
864.3511, 104.1022
864.8333, 104.1387
865.3154, 103.4796
865.7975, 103.0503
866.2796, 102.8012
866.7617, 102.5068
867.2438, 102.0485
867.7260, 101.5809
868.2081, 101.1043
868.6902, 100.7251
869.1723, 100.5972
869.6544, 100.8791
870.1365, 101.2591
870.6187, 101.7734
871.1008, 102.3204
871.5829, 102.9203
872.0650, 103.5383
872.5471, 103.2039
873.0292, 101.5473
873.5114, 100.0985
873.9935, 100.9335
874.4756, 102.6872
874.9577, 103.5346
875.4399, 102.7584
875.9220, 102.2655
876.4041, 103.1848
876.8862, 103.9831
877.3683, 103.3281
877.8505, 100.7145
878.3326, 100.6706
878.8147, 103.6129
879.2968, 106.0745
879.7789, 103.8780
880.2610, 99.69180
880.7432, 97.89697
881.2253, 98.73502
881.7074, 100.1525
882.1895, 102.4388
882.6716, 103.8963
883.1537, 103.0475
883.6359, 100.0913
884.1180, 98.65785
884.6001, 99.11266
885.0822, 99.50105
885.5643, 98.61082
886.0464, 97.16441
886.5286, 97.04577
887.0107, 97.98093
887.4928, 98.84535
887.9749, 98.81222
888.4570, 98.77256
888.9391, 99.49004
889.4213, 100.5644
889.9034, 100.5984
890.3855, 98.74864
890.8676, 97.91991
891.3497, 99.10124
891.8318, 101.0070
892.3140, 100.7635
892.7961, 99.03992
893.2782, 98.65958
893.7603, 101.1256
894.2424, 103.5941
894.7245, 104.0579
895.2067, 103.2434
895.6888, 102.0046
896.1709, 99.60645
896.6530, 98.27706
897.1351, 98.29209
897.6172, 98.96230
898.0994, 99.91956
898.5815, 101.0233
899.0636, 100.8152
899.5457, 99.06214
900.0278, 97.82595
900.5099, 99.74306
900.9921, 102.3324
901.4742, 103.0430
901.9563, 101.2390
902.4384, 100.4360
902.9205, 101.9082
903.4026, 103.1443
903.8848, 102.8236
904.3669, 101.1623
904.8490, 99.71912
905.3311, 98.52264
905.8132, 98.10490
906.2953, 99.67786
906.7775, 101.4967
907.2596, 101.5748
907.7417, 100.3751
908.2238, 99.59444
908.7059, 100.1782
909.1880, 100.6470
909.6702, 100.6588
910.1523, 100.3964
910.6344, 100.4312
911.1165, 100.7462
911.5986, 100.3504
912.0807, 98.63487
912.5629, 96.95914
913.0450, 97.16109
913.5271, 98.32616
914.0092, 99.07425
914.4913, 98.60770
914.9734, 98.45822
915.4556, 99.06039
915.9377, 99.86702
916.4198, 100.4224
916.9019, 100.7198
917.3840, 100.7967
917.8661, 100.6175
918.3483, 100.5778
918.8304, 101.5262
919.3125, 102.5480
919.7946, 102.2359
920.2767, 100.4396
920.7589, 99.14989
921.2410, 99.32570
921.7231, 99.78329
922.2052, 100.1163
922.6873, 100.3300
923.1694, 100.5320
923.6516, 100.7288
924.1337, 100.5972
924.6158, 99.54331
925.0979, 98.44700
925.5800, 98.74548
926.0621, 99.93389
926.5443, 100.7570
927.0264, 100.2338
927.5085, 99.99158
927.9906, 100.3499
928.4727, 101.1583
928.9548, 102.4003
929.4370, 104.1163
929.9191, 104.9784
930.4012, 104.6639
930.8833, 103.8229
931.3654, 102.5480
931.8475, 101.4738
932.3297, 101.8431
932.8118, 104.7386
933.2939, 105.8562
933.7761, 102.2835
934.2582, 98.54818
934.7403, 97.42841
935.2224, 98.98394
935.7045, 100.1769
936.1866, 101.0120
936.6688, 101.6022
937.1509, 102.2995
937.6330, 102.6138
938.1151, 101.5491
938.5972, 99.43582
939.0793, 98.03222
939.5615, 98.61256
940.0436, 99.04503
940.5257, 98.68648
941.0078, 97.89388
941.4899, 97.60184
941.9720, 97.80067
942.4542, 98.28812
942.9363, 99.15416
943.4184, 99.93166
943.9005, 100.3942
944.3826, 100.3399
944.8647, 99.35759
945.3469, 95.94057
945.8290, 94.40710
946.3111, 95.71802
946.7932, 98.07976
947.2753, 100.2694
947.7574, 102.2744
948.2396, 103.3560
948.7217, 103.4974
949.2038, 102.8707
949.6859, 100.7394
950.1680, 98.55431
950.6501, 97.82232
951.1323, 98.52952
951.6144, 98.81893
952.0965, 97.75575
952.5786, 97.52459
953.0607, 99.21346
953.5428, 101.9052
954.0250, 102.7353
954.5071, 101.9580
954.9892, 101.0496
955.4713, 100.5238
955.9534, 100.1544
956.4355, 99.60861
956.9177, 99.17655
957.3998, 99.30576
957.8819, 100.4953
958.3640, 101.3724
958.8461, 101.8390
959.3282, 102.1391
959.8104, 102.5960
960.2925, 103.0977
960.7746, 103.2889
961.2567, 103.1378
961.7388, 102.5650
962.2209, 100.9392
962.7031, 99.35762
963.1852, 98.51392
963.6673, 98.43970
964.1494, 98.98877
964.6315, 100.3340
965.1136, 101.6980
965.5958, 102.8397
966.0779, 103.7611
966.5600, 104.4916
967.0421, 105.0187
967.5242, 105.3004
968.0063, 105.5637
968.4885, 105.2502
968.9706, 103.8096
969.4527, 101.8502
969.9348, 99.87486
970.4169, 97.57748
970.8990, 97.10166
971.3812, 98.80344
971.8633, 100.9911
972.3454, 102.3841
972.8275, 102.9773
973.3096, 102.3498
973.7917, 100.5079
974.2739, 99.39935
974.7560, 100.4979
975.2381, 101.6185
975.7202, 101.8742
976.2023, 101.4672
976.6844, 101.4266
977.1666, 101.7488
977.6487, 102.1484
978.1308, 102.7379
978.6129, 102.9919
979.0950, 101.6959
979.5771, 99.86626
980.0593, 99.16016
980.5414, 102.0416
981.0235, 102.9378
981.5056, 100.7842
981.9877, 97.84779
982.4698, 96.16247
982.9520, 95.66794
983.4341, 96.31343
983.9162, 98.07529
984.3983, 99.65884
984.8804, 100.3275
985.3625, 100.3083
985.8447, 99.25965
986.3268, 97.34062
986.8089, 96.90874
987.2910, 98.39727
987.7731, 100.2237
988.2552, 102.0315
988.7374, 103.6826
989.2195, 105.1870
989.7016, 106.2786
990.1837, 106.1061
990.6658, 103.5452
991.1479, 101.3520
991.6301, 100.9627
992.1122, 101.3132
992.5944, 101.2945
993.0765, 100.7209
993.5586, 101.0543
994.0407, 102.4793
994.5228, 103.4334
995.0049, 101.6964
995.4871, 99.29187
995.9692, 99.62252
996.4513, 102.2233
996.9334, 103.0756
997.4155, 98.02770
997.8976, 94.74931
998.3798, 95.59464
998.8619, 98.95787
999.3440, 101.1687
999.8261, 102.3245
1000.308, 103.3849
1000.790, 104.7869
1001.272, 105.5268
1001.755, 104.3335
1002.237, 102.2757
1002.719, 100.3136
1003.201, 98.08475
1003.683, 97.92223
1004.165, 100.7650
1004.647, 103.3085
1005.129, 102.8340
1005.612, 100.5350
1006.094, 99.94719
1006.576, 100.7798
1007.058, 101.6233
1007.540, 101.2239
1008.022, 101.2797
1008.504, 103.4313
1008.986, 106.1406
1009.468, 106.4667
1009.951, 104.0028
1010.433, 102.5813
1010.915, 102.9628
1011.397, 103.5990
1011.879, 102.4217
1012.361, 100.6472
1012.843, 99.78760
1013.325, 100.1484
1013.807, 100.7990
1014.290, 102.2162
1014.772, 102.8957
1015.254, 101.7321
1015.736, 99.43161
1016.218, 99.04868
1016.700, 100.3074
1017.182, 101.6179
1017.664, 102.2717
1018.147, 102.7595
1018.629, 103.7359
1019.111, 104.5983
1019.593, 104.3135
1020.075, 102.1326
1020.557, 101.1905
1021.039, 101.8639
1021.521, 102.7955
1022.003, 102.4462
1022.486, 101.5693
1022.968, 101.7223
1023.450, 102.8669
1023.932, 103.5510
1024.414, 102.9382
1024.896, 102.0222
1025.378, 100.8191
1025.860, 99.70454
1026.343, 100.1090
1026.825, 101.8812
1027.307, 102.9460
1027.789, 102.5834
1028.271, 101.8601
1028.753, 101.1871
1029.235, 100.9753
1029.717, 101.9123
1030.199, 104.7677
1030.682, 106.1930
1031.164, 105.8161
1031.646, 105.0794
1032.128, 105.0050
1032.610, 105.1817
1033.092, 104.2990
1033.574, 102.6748
1034.056, 101.5055
1034.539, 101.4437
1035.021, 101.7970
1035.503, 102.6077
1035.985, 103.5493
1036.467, 104.4174
1036.949, 105.2319
1037.431, 104.4670
1037.913, 101.7473
1038.396, 99.62733
1038.878, 101.1611
1039.360, 103.8084
1039.842, 105.4705
1040.324, 105.9010
1040.806, 105.0853
1041.288, 102.2727
1041.770, 100.1041
1042.252, 99.52739
1042.734, 99.88857
1043.217, 99.88298
1043.699, 99.69233
1044.181, 99.80864
1044.663, 100.4828
1045.145, 101.2441
1045.627, 102.1285
1046.109, 102.8472
1046.591, 103.1686
1047.074, 103.0833
1047.556, 102.7331
1048.038, 102.1140
1048.520, 101.7363
1049.002, 102.3350
1049.484, 102.9743
1049.966, 102.3717
1050.448, 101.1621
1050.931, 101.3159
1051.413, 104.3139
1051.895, 105.5744
1052.377, 104.1195
1052.859, 101.9857
1053.341, 101.6773
1053.823, 102.5603
1054.305, 103.4217
1054.787, 104.1200
1055.270, 104.2226
1055.752, 102.7516
1056.234, 101.4995
1056.716, 101.3390
1057.198, 101.9542
1057.680, 101.9949
1058.162, 101.5255
1058.644, 101.6290
1059.126, 102.8667
1059.609, 104.2431
1060.091, 105.1222
1060.573, 105.4955
1061.055, 105.0941
1061.537, 103.3284
1062.019, 103.4477
1062.501, 106.0868
1062.983, 108.2813
1063.466, 107.6236
1063.948, 105.4511
1064.430, 103.9842
1064.912, 103.1167
1065.394, 102.5265
1065.876, 101.7859
1066.358, 101.8449
1066.840, 103.3929
1067.323, 105.1219
1067.805, 105.3061
1068.287, 104.1495
1068.769, 102.9242
1069.251, 101.7365
1069.733, 101.0060
1070.215, 101.0412
1070.697, 101.6263
1071.179, 102.9020
1071.661, 104.6411
1072.144, 106.0224
1072.626, 107.0783
1073.108, 107.3660
1073.590, 106.5661
1074.072, 105.5720
1074.554, 105.7461
1075.036, 106.3047
1075.518, 106.0427
1076.001, 104.3831
1076.483, 103.7887
1076.965, 105.0591
1077.447, 106.0920
1077.929, 105.6403
1078.411, 104.2671
1078.893, 103.5655
1079.375, 103.3575
1079.858, 103.0517
1080.340, 101.9150
1080.822, 101.3300
1081.304, 102.0985
1081.786, 103.4035
1082.268, 104.6460
1082.750, 105.8199
1083.232, 106.6386
1083.714, 107.1036
1084.197, 107.4268
1084.679, 107.7339
1085.161, 107.9862
1085.643, 108.5257
1086.125, 108.9573
1086.607, 108.0029
1087.089, 105.0781
1087.571, 102.8120
1088.054, 101.6189
1088.536, 101.0560
1089.018, 100.6296
1089.500, 100.4852
1089.982, 101.0017
1090.464, 102.2260
1090.946, 103.1132
1091.428, 103.0411
1091.911, 103.3077
1092.393, 104.4329
1092.875, 106.0213
1093.357, 107.6395
1093.839, 108.9225
1094.321, 108.4553
1094.803, 105.0568
1095.285, 102.4466
1095.767, 103.5904
1096.250, 105.0449
1096.732, 104.1337
1097.214, 101.0792
1097.696, 100.5382
1098.178, 102.4113
1098.660, 104.6265
1099.142, 106.9386
1099.624, 108.2281
1100.106, 106.3781
1100.589, 103.4375
1101.071, 102.8743
1101.553, 106.0603
1102.035, 107.1154
1102.517, 105.5625
1102.999, 103.9473
1103.481, 105.0967
1103.963, 106.9971
1104.446, 106.7551
1104.928, 104.7931
1105.410, 103.1875
1105.892, 102.1221
1106.374, 102.0567
1106.856, 103.4209
1107.338, 105.1058
1107.820, 105.5064
1108.302, 105.0825
1108.785, 105.0098
1109.267, 105.4218
1109.749, 105.6736
1110.231, 105.5860
1110.713, 105.1119
1111.195, 103.9322
1111.677, 102.5636
1112.159, 102.6906
1112.641, 104.0491
1113.124, 104.9894
1113.606, 105.0682
1114.088, 104.8285
1114.570, 104.4067
1115.052, 104.0030
1115.534, 103.7515
1116.016, 103.6539
1116.498, 103.6926
1116.981, 103.8560
1117.463, 104.6317
1117.945, 106.8826
1118.427, 108.7965
1118.909, 107.9571
1119.391, 105.8874
1119.873, 104.8542
1120.355, 105.7573
1120.838, 105.4704
1121.320, 103.6320
1121.802, 102.1571
1122.284, 102.6021
1122.766, 104.0903
1123.248, 105.7804
1123.730, 107.3995
1124.212, 108.2551
1124.694, 108.0338
1125.177, 106.9714
1125.659, 104.5884
1126.141, 102.3633
1126.623, 102.3341
1127.105, 103.5849
1127.587, 103.4414
1128.069, 101.9972
1128.551, 101.0587
1129.033, 101.8636
1129.516, 102.7621
1129.998, 103.3907
1130.480, 103.7447
1130.962, 103.5499
1131.444, 103.0177
1131.926, 103.4372
1132.408, 105.0341
1132.890, 106.4678
1133.373, 107.4493
1133.855, 107.4120
1134.337, 105.5577
1134.819, 102.5884
1135.301, 100.5620
1135.783, 99.51725
1136.265, 100.6058
1136.747, 104.7889
1137.229, 108.4759
1137.712, 107.9538
1138.194, 106.0304
1138.676, 105.3870
1139.158, 106.1063
1139.640, 105.2251
1140.122, 102.4110
1140.604, 101.3502
1141.086, 104.4961
1141.569, 108.2852
1142.051, 108.7631
1142.533, 107.4066
1143.015, 106.1068
1143.497, 105.0156
1143.979, 104.5037
1144.461, 104.6198
1144.943, 105.1617
1145.426, 106.4291
1145.908, 107.6842
1146.390, 107.2536
1146.872, 105.9540
1147.354, 105.4938
1147.836, 107.5864
1148.318, 108.5671
1148.800, 108.0285
1149.282, 107.1308
1149.765, 106.8625
1150.247, 106.9530
1150.729, 106.7332
1151.211, 106.2947
1151.693, 106.0663
1152.175, 105.9786
1152.657, 106.5914
1153.139, 108.5107
1153.621, 110.3113
1154.104, 110.0790
1154.586, 108.3396
1155.068, 106.6623
1155.550, 105.1719
1156.032, 104.0949
1156.514, 103.8991
1156.996, 103.6380
1157.478, 102.6504
1157.961, 101.7485
1158.443, 102.8425
1158.925, 105.4648
1159.407, 106.9452
1159.889, 106.8892
1160.371, 106.3333
1160.853, 104.9773
1161.335, 104.3211
1161.818, 105.7368
1162.300, 108.1557
1162.782, 108.0138
1163.264, 105.5991
1163.746, 104.6591
1164.228, 106.2663
1164.710, 107.8257
1165.192, 107.4283
1165.674, 106.2581
1166.156, 104.7607
1166.639, 103.2006
1167.121, 103.5446
1167.603, 105.7793
1168.085, 107.5265
1168.567, 107.8499
1169.049, 108.0330
1169.531, 109.8286
1170.013, 111.5828
1170.496, 111.3103
1170.978, 108.9752
1171.460, 107.5616
1171.942, 107.1112
1172.424, 106.6601
1172.906, 105.6313
1173.388, 104.6965
1173.870, 104.9321
1174.353, 105.4763
1174.835, 104.8862
1175.317, 102.5446
1175.799, 102.5749
1176.281, 105.3095
1176.763, 107.7731
1177.245, 108.3720
1177.727, 107.7716
1178.209, 105.7732
1178.692, 103.4388
1179.174, 102.7157
1179.656, 104.6575
1180.138, 105.8356
1180.620, 106.1963
1181.102, 106.1105
1181.584, 105.5284
1182.066, 104.8960
1182.548, 104.8368
1183.031, 105.1673
1183.513, 105.4653
1183.995, 105.7457
1184.477, 105.7168
1184.959, 105.2368
1185.441, 104.9593
1185.923, 105.7096
1186.405, 106.8426
1186.888, 107.5337
1187.370, 107.8220
1187.852, 107.9112
1188.334, 107.8402
1188.816, 107.5068
1189.298, 106.7697
1189.780, 106.2150
1190.262, 106.8480
1190.745, 107.8248
1191.227, 107.7430
1191.709, 106.7334
1192.191, 105.9159
1192.673, 105.8744
1193.155, 105.1435
1193.637, 103.1101
1194.119, 101.4753
1194.601, 102.8317
1195.084, 105.6385
1195.566, 107.6570
1196.048, 108.7054
1196.530, 108.9122
1197.012, 107.5362
1197.494, 107.1224
1197.976, 108.6426
1198.458, 110.1091
1198.941, 107.3775
1199.423, 103.2483
1199.905, 103.3442
1200.387, 108.0946
1200.869, 110.6686
1201.351, 108.2964
1201.833, 106.7890
1202.315, 107.9801
1202.797, 109.7886
1203.280, 108.0673
1203.762, 104.9187
1204.244, 104.3401
1204.726, 107.0682
1205.208, 109.0198
1205.690, 109.4142
1206.172, 109.1715
1206.654, 108.4657
1207.136, 107.4342
1207.619, 105.7682
1208.101, 104.1549
1208.583, 104.0951
1209.065, 106.1523
1209.547, 107.2218
1210.029, 106.3965
1210.511, 105.6023
1210.993, 105.4202
1211.476, 105.8051
1211.958, 107.1567
1212.440, 108.8405
1212.922, 109.6188
1213.404, 109.0809
1213.886, 108.5336
1214.368, 108.0445
1214.850, 107.8061
1215.333, 108.0171
1215.815, 108.3486
1216.297, 108.2127
1216.779, 107.7525
1217.261, 107.1264
1217.743, 106.1592
1218.225, 106.0288
1218.707, 107.2619
1219.189, 108.0858
1219.672, 107.4974
1220.154, 106.2423
1220.636, 105.6724
1221.118, 105.4451
1221.600, 104.7975
1222.082, 102.9878
1222.564, 102.8156
1223.046, 104.7327
1223.528, 107.3085
1224.011, 110.4578
1224.493, 113.0415
1224.975, 112.3189
1225.457, 109.8832
1225.939, 108.5842
1226.421, 109.7959
1226.903, 109.9378
1227.385, 108.5032
1227.868, 107.7547
1228.350, 109.5689
1228.832, 112.1047
1229.314, 112.4720
1229.796, 111.5649
1230.278, 110.8715
1230.760, 110.7438
1231.242, 110.6809
1231.724, 110.7461
1232.207, 110.5560
1232.689, 109.5056
1233.171, 108.4785
1233.653, 108.9752
1234.135, 110.1598
1234.617, 110.5895
1235.099, 109.8772
1235.581, 109.1243
1236.063, 108.3212
1236.546, 107.5888
1237.028, 106.8447
1237.510, 106.3877
1237.992, 106.9400
1238.474, 107.8354
1238.956, 107.7887
1239.438, 106.2001
1239.920, 106.2683
1240.403, 108.1256
1240.885, 109.7754
1241.367, 109.4248
1241.849, 108.8401
1242.331, 110.1634
1242.813, 111.9234
1243.295, 111.7132
1243.777, 108.8723
1244.260, 107.6848
1244.742, 108.1341
1245.224, 109.0760
1245.706, 110.4480
1246.188, 111.3688
1246.670, 111.1700
1247.152, 110.1602
1247.634, 108.6073
1248.116, 106.3483
1248.599, 105.9448
1249.081, 107.2877
1249.563, 108.5733
1250.045, 108.4767
1250.527, 108.3141
1251.009, 109.2442
1251.491, 110.0973
1251.973, 109.2066
1252.455, 106.7252
1252.938, 106.9924
1253.420, 109.6643
1253.902, 111.7196
1254.384, 110.5779
1254.866, 109.7391
1255.348, 111.5236
1255.830, 113.0881
1256.313, 111.0348
1256.795, 106.2980
1257.277, 104.9594
1257.759, 106.5820
1258.241, 108.6311
1258.723, 110.9979
1259.205, 112.0547
1259.687, 111.0564
1260.169, 109.5152
1260.651, 108.3821
1261.134, 107.8397
1261.616, 109.1356
1262.098, 111.6123
1262.580, 113.0217
1263.062, 111.2050
1263.544, 110.3452
1264.026, 111.1327
1264.508, 112.1333
1264.991, 112.0168
1265.473, 111.3594
1265.955, 111.4063
1266.437, 111.8376
1266.919, 111.7762
1267.401, 110.5658
1267.883, 109.6012
1268.365, 108.8736
1268.848, 108.4973
1269.330, 108.9376
1269.812, 109.4903
1270.294, 109.2609
1270.776, 108.4385
1271.258, 107.3064
1271.740, 105.2588
1272.222, 105.3444
1272.704, 107.8748
1273.187, 110.0003
1273.669, 108.7996
1274.151, 107.2661
1274.633, 108.2474
1275.115, 110.5556
1275.597, 112.3627
1276.079, 113.6699
1276.561, 113.9149
1277.043, 113.1291
1277.526, 112.2632
1278.008, 112.1373
1278.490, 111.8359
1278.972, 110.2172
1279.454, 108.6251
1279.936, 108.5297
1280.418, 109.8760
1280.900, 111.2851
1281.383, 112.6423
1281.865, 113.2621
1282.347, 112.5310
1282.829, 111.3419
1283.311, 108.9351
1283.793, 107.4404
1284.275, 109.5025
1284.757, 113.7321
1285.240, 113.6027
1285.722, 110.4718
1286.204, 108.7926
1286.686, 111.7054
1287.168, 113.5325
1287.650, 113.3547
1288.132, 112.7120
1288.614, 112.4957
1289.096, 112.6459
1289.578, 113.6340
1290.061, 114.7550
1290.543, 114.3943
1291.025, 110.5670
1291.507, 109.5461
1291.989, 112.0325
1292.471, 113.9759
1292.953, 112.1781
1293.435, 109.7628
1293.918, 111.1864
1294.400, 114.0732
1294.882, 114.7050
1295.364, 112.6356
1295.846, 111.4063
1296.328, 111.0305
1296.810, 110.8503
1297.292, 110.4942
1297.775, 110.3226
1298.257, 111.1851
1298.739, 111.8718
1299.221, 110.9048
1299.703, 108.6214
1300.185, 109.0157
1300.667, 111.5940
1301.149, 113.3721
1301.631, 112.9527
1302.114, 112.2330
1302.596, 111.8850
##END=



