##NAMES=Nickeline
##RRUFFID=R060906
##IDEAL CHEMISTRY=NiAs
##LOCALITY=Moose Horn mine, Timiskaming district, Ontario, Canada
##OWNER=RRUFF
##SOURCE=Royal Ontario Museum
##DESCRIPTION=Massive metallic lustered tarnished to dull copper color
##STATUS=The identification of this mineral has been confirmed by X-ray diffraction and chemical analysis
##URL=rruff.info/R060906
##MEASURED CHEMISTRY=Ni_1.00_(As_0.98_Sb_0.02_)_Î£=1_ ; trace amounts of Co and Fe
152.3785, 1314.821
152.8606, 1325.170
153.3427, 1325.156
153.8248, 1327.029
154.3069, 1336.210
154.7890, 1364.093
155.2712, 1383.723
155.7533, 1389.800
156.2354, 1384.466
156.7175, 1375.287
157.1996, 1357.756
157.6817, 1340.333
158.1639, 1327.985
158.6460, 1320.162
159.1281, 1318.992
159.6102, 1329.355
160.0923, 1349.625
160.5744, 1365.398
161.0566, 1367.369
161.5387, 1364.253
162.0208, 1363.896
162.5029, 1370.793
162.9850, 1379.157
163.4671, 1388.313
163.9493, 1398.309
164.4314, 1403.212
164.9135, 1395.424
165.3956, 1381.858
165.8777, 1371.655
166.3598, 1368.495
166.8420, 1370.023
167.3241, 1377.330
167.8062, 1392.500
168.2883, 1402.987
168.7704, 1396.568
169.2525, 1379.722
169.7346, 1365.346
170.2168, 1359.335
170.6989, 1359.311
171.1810, 1364.616
171.6631, 1377.683
172.1452, 1389.564
172.6273, 1392.854
173.1095, 1388.716
173.5916, 1381.133
174.0737, 1370.815
174.5558, 1358.874
175.0379, 1346.008
175.5201, 1329.082
176.0022, 1315.890
176.4843, 1318.586
176.9664, 1335.166
177.4485, 1352.846
177.9306, 1363.496
178.4128, 1368.373
178.8949, 1369.914
179.3770, 1366.454
179.8591, 1361.778
180.3412, 1363.158
180.8233, 1370.502
181.3055, 1377.040
181.7876, 1373.948
182.2697, 1364.512
182.7518, 1359.370
183.2339, 1364.568
183.7160, 1376.007
184.1982, 1384.233
184.6803, 1388.949
185.1624, 1393.027
185.6445, 1404.347
186.1266, 1420.204
186.6087, 1425.292
187.0908, 1403.554
187.5730, 1363.863
188.0551, 1341.384
188.5372, 1337.596
189.0193, 1345.837
189.5014, 1361.765
189.9835, 1384.927
190.4657, 1403.350
190.9478, 1409.524
191.4299, 1404.986
191.9120, 1400.501
192.3941, 1397.029
192.8762, 1392.728
193.3584, 1381.717
193.8405, 1363.533
194.3226, 1349.815
194.8047, 1349.057
195.2868, 1360.788
195.7689, 1373.754
196.2511, 1389.417
196.7332, 1403.352
197.2153, 1402.881
197.6974, 1386.235
198.1795, 1367.290
198.6616, 1354.436
199.1438, 1347.741
199.6259, 1343.744
200.1080, 1341.417
200.5901, 1341.812
201.0722, 1350.376
201.5543, 1369.401
202.0364, 1388.104
202.5186, 1396.792
203.0007, 1393.787
203.4828, 1393.610
203.9649, 1400.025
204.4470, 1411.131
204.9291, 1415.570
205.4113, 1411.198
205.8934, 1405.568
206.3755, 1406.000
206.8576, 1414.030
207.3397, 1420.909
207.8218, 1425.291
208.3040, 1427.156
208.7861, 1425.530
209.2682, 1419.058
209.7503, 1411.695
210.2324, 1408.035
210.7145, 1409.591
211.1967, 1409.910
211.6788, 1406.880
212.1609, 1400.448
212.6430, 1396.698
213.1251, 1397.038
213.6072, 1398.323
214.0894, 1396.206
214.5715, 1388.781
215.0536, 1383.086
215.5357, 1382.203
216.0178, 1387.047
216.4999, 1386.789
216.9820, 1378.694
217.4642, 1368.090
217.9463, 1363.101
218.4284, 1366.840
218.9105, 1369.064
219.3926, 1364.719
219.8747, 1350.814
220.3569, 1346.583
220.8390, 1356.166
221.3211, 1372.474
221.8032, 1384.448
222.2853, 1391.749
222.7674, 1395.217
223.2496, 1394.203
223.7317, 1386.600
224.2138, 1382.121
224.6959, 1382.144
225.1780, 1384.578
225.6601, 1385.844
226.1423, 1387.610
226.6244, 1385.298
227.1065, 1374.821
227.5886, 1347.276
228.0707, 1335.767
228.5528, 1347.646
229.0350, 1373.126
229.5171, 1387.683
229.9992, 1385.449
230.4813, 1381.701
230.9634, 1383.432
231.4455, 1395.043
231.9276, 1402.177
232.4098, 1403.360
232.8919, 1400.289
233.3740, 1397.994
233.8561, 1397.068
234.3382, 1396.058
234.8203, 1394.286
235.3025, 1391.626
235.7846, 1388.198
236.2667, 1381.847
236.7488, 1374.814
237.2309, 1376.238
237.7130, 1392.984
238.1952, 1408.807
238.6773, 1415.341
239.1594, 1409.932
239.6415, 1400.181
240.1236, 1381.326
240.6057, 1357.945
241.0879, 1350.539
241.5700, 1370.107
242.0521, 1391.150
242.5342, 1398.105
243.0163, 1378.717
243.4984, 1371.415
243.9806, 1384.639
244.4627, 1412.611
244.9448, 1427.446
245.4269, 1423.893
245.9090, 1413.728
246.3911, 1402.937
246.8732, 1389.078
247.3554, 1379.589
247.8375, 1374.996
248.3196, 1375.168
248.8017, 1380.586
249.2838, 1396.674
249.7659, 1410.704
250.2481, 1413.684
250.7302, 1397.890
251.2123, 1388.536
251.6944, 1389.948
252.1765, 1400.057
252.6586, 1407.979
253.1408, 1415.354
253.6229, 1418.474
254.1050, 1413.240
254.5871, 1392.856
255.0692, 1380.730
255.5513, 1380.684
256.0334, 1391.105
256.5156, 1404.409
256.9977, 1427.941
257.4798, 1443.668
257.9619, 1434.736
258.4440, 1383.383
258.9261, 1354.196
259.4083, 1361.564
259.8904, 1398.017
260.3725, 1417.535
260.8546, 1412.885
261.3367, 1403.001
261.8188, 1401.460
262.3010, 1411.664
262.7831, 1420.779
263.2652, 1429.632
263.7473, 1436.491
264.2294, 1429.296
264.7115, 1399.468
265.1937, 1371.327
265.6758, 1365.863
266.1579, 1392.099
266.6400, 1407.859
267.1221, 1404.402
267.6042, 1386.540
268.0864, 1378.339
268.5685, 1382.430
269.0506, 1390.448
269.5327, 1396.701
270.0148, 1400.767
270.4969, 1405.439
270.9791, 1412.348
271.4612, 1419.963
271.9433, 1420.368
272.4254, 1411.455
272.9075, 1401.231
273.3896, 1394.598
273.8718, 1391.459
274.3539, 1393.595
274.8360, 1403.571
275.3181, 1418.083
275.8002, 1424.840
276.2823, 1422.398
276.7645, 1417.268
277.2466, 1412.579
277.7287, 1407.976
278.2108, 1407.943
278.6929, 1414.235
279.1750, 1424.550
279.6572, 1432.095
280.1393, 1436.490
280.6214, 1439.959
281.1035, 1446.181
281.5856, 1455.307
282.0677, 1455.066
282.5499, 1441.862
283.0320, 1420.628
283.5141, 1401.914
283.9962, 1385.520
284.4783, 1373.566
284.9604, 1369.945
285.4425, 1374.018
285.9247, 1373.158
286.4068, 1363.397
286.8889, 1351.987
287.3710, 1356.477
287.8531, 1377.222
288.3352, 1397.309
288.8174, 1404.060
289.2995, 1399.778
289.7816, 1399.061
290.2637, 1403.871
290.7458, 1411.932
291.2279, 1422.086
291.7101, 1433.904
292.1922, 1440.455
292.6743, 1431.921
293.1564, 1413.768
293.6385, 1406.770
294.1206, 1415.386
294.6028, 1428.891
295.0849, 1432.708
295.5670, 1427.871
296.0491, 1420.775
296.5312, 1412.693
297.0133, 1405.234
297.4955, 1403.007
297.9776, 1407.274
298.4597, 1413.675
298.9418, 1416.133
299.4239, 1415.982
299.9060, 1418.063
300.3882, 1427.443
300.8703, 1440.049
301.3524, 1449.332
301.8345, 1454.816
302.3166, 1456.760
302.7987, 1453.311
303.2809, 1446.232
303.7630, 1439.969
304.2451, 1438.117
304.7272, 1437.578
305.2093, 1433.403
305.6914, 1424.726
306.1736, 1418.251
306.6557, 1421.748
307.1378, 1431.052
307.6199, 1438.415
308.1020, 1436.661
308.5841, 1434.015
309.0663, 1438.150
309.5484, 1449.561
310.0305, 1463.147
310.5126, 1482.521
310.9947, 1500.581
311.4768, 1507.373
311.9590, 1486.511
312.4411, 1462.928
312.9232, 1454.118
313.4053, 1459.835
313.8874, 1465.515
314.3695, 1462.014
314.8517, 1455.380
315.3337, 1451.867
315.8159, 1459.692
316.2980, 1465.395
316.7801, 1461.845
317.2622, 1449.922
317.7443, 1437.884
318.2264, 1426.378
318.7086, 1417.574
319.1907, 1413.169
319.6728, 1410.940
320.1549, 1415.909
320.6370, 1436.969
321.1191, 1469.486
321.6013, 1490.203
322.0834, 1485.242
322.5655, 1471.820
323.0476, 1459.519
323.5297, 1446.700
324.0118, 1438.904
324.4940, 1437.527
324.9761, 1441.865
325.4582, 1449.595
325.9403, 1470.051
326.4224, 1486.343
326.9045, 1490.694
327.3867, 1471.143
327.8688, 1457.733
328.3509, 1453.786
328.8330, 1456.236
329.3151, 1458.233
329.7972, 1457.553
330.2794, 1458.787
330.7615, 1464.352
331.2436, 1478.090
331.7257, 1485.881
332.2078, 1484.956
332.6899, 1479.489
333.1721, 1476.337
333.6542, 1477.412
334.1363, 1477.654
334.6184, 1474.539
335.1005, 1466.894
335.5826, 1465.262
336.0648, 1472.840
336.5469, 1482.950
337.0290, 1486.545
337.5111, 1480.423
337.9932, 1477.265
338.4753, 1481.687
338.9575, 1493.003
339.4396, 1499.222
339.9217, 1499.470
340.4038, 1496.503
340.8859, 1490.445
341.3680, 1480.103
341.8502, 1479.252
342.3323, 1495.922
342.8144, 1522.949
343.2965, 1527.887
343.7786, 1507.412
344.2607, 1486.614
344.7429, 1490.613
345.2250, 1516.721
345.7071, 1532.524
346.1892, 1530.935
346.6713, 1518.534
347.1534, 1505.377
347.6355, 1491.715
348.1176, 1482.460
348.5998, 1484.328
349.0819, 1493.404
349.5640, 1496.991
350.0461, 1491.936
350.5282, 1485.081
351.0103, 1486.292
351.4925, 1493.781
351.9746, 1500.609
352.4567, 1501.100
352.9388, 1499.008
353.4209, 1499.648
353.9030, 1503.478
354.3852, 1509.954
354.8673, 1523.609
355.3494, 1539.483
355.8315, 1547.631
356.3136, 1539.620
356.7957, 1524.645
357.2779, 1507.186
357.7600, 1487.292
358.2421, 1474.458
358.7242, 1477.500
359.2063, 1489.646
359.6884, 1502.950
360.1706, 1524.021
360.6527, 1537.297
361.1348, 1528.988
361.6169, 1501.789
362.0990, 1481.609
362.5811, 1483.051
363.0633, 1492.334
363.5454, 1499.485
364.0275, 1500.953
364.5096, 1501.700
364.9917, 1503.375
365.4738, 1505.350
365.9560, 1505.347
366.4381, 1505.070
366.9202, 1501.118
367.4023, 1490.770
367.8844, 1462.610
368.3665, 1447.255
368.8487, 1453.744
369.3308, 1472.887
369.8129, 1487.577
370.2950, 1497.266
370.7771, 1503.089
371.2592, 1504.089
371.7414, 1498.126
372.2235, 1496.852
372.7056, 1503.133
373.1877, 1511.780
373.6698, 1515.887
374.1519, 1512.922
374.6341, 1511.540
375.1162, 1515.298
375.5983, 1523.627
376.0804, 1524.403
376.5625, 1516.120
377.0446, 1503.545
377.5267, 1488.001
378.0089, 1467.830
378.4910, 1459.401
378.9731, 1468.642
379.4552, 1489.251
379.9373, 1503.432
380.4194, 1511.208
380.9016, 1514.089
381.3837, 1508.892
381.8658, 1498.022
382.3479, 1497.699
382.8300, 1512.127
383.3121, 1531.154
383.7943, 1539.480
384.2764, 1538.375
384.7585, 1534.947
385.2406, 1533.446
385.7227, 1531.983
386.2048, 1524.891
386.6870, 1510.993
387.1691, 1500.280
387.6512, 1504.265
388.1333, 1518.097
388.6154, 1532.614
389.0975, 1548.784
389.5797, 1560.607
390.0618, 1558.989
390.5439, 1545.257
391.0260, 1534.375
391.5081, 1539.736
391.9902, 1550.292
392.4724, 1555.251
392.9545, 1548.280
393.4366, 1539.481
393.9187, 1531.251
394.4008, 1524.410
394.8829, 1521.134
395.3651, 1525.728
395.8472, 1531.567
396.3293, 1535.327
396.8114, 1536.641
397.2935, 1535.708
397.7756, 1529.597
398.2578, 1521.720
398.7399, 1517.766
399.2220, 1521.826
399.7041, 1526.151
400.1862, 1530.316
400.6683, 1535.434
401.1505, 1532.395
401.6326, 1511.366
402.1147, 1490.210
402.5968, 1487.022
403.0789, 1511.333
403.5610, 1533.187
404.0432, 1548.555
404.5253, 1557.687
405.0074, 1561.275
405.4895, 1557.757
405.9716, 1552.482
406.4537, 1549.279
406.9359, 1548.432
407.4180, 1545.539
407.9001, 1539.339
408.3822, 1532.159
408.8643, 1528.120
409.3464, 1527.227
409.8285, 1528.712
410.3106, 1536.231
410.7928, 1546.351
411.2749, 1543.108
411.7570, 1524.070
412.2391, 1505.365
412.7212, 1509.358
413.2033, 1528.580
413.6855, 1540.085
414.1676, 1524.533
414.6497, 1504.621
415.1318, 1513.745
415.6139, 1548.599
416.0960, 1581.205
416.5782, 1592.047
417.0603, 1590.912
417.5424, 1588.758
418.0245, 1588.592
418.5066, 1587.067
418.9887, 1583.167
419.4709, 1576.512
419.9530, 1566.083
420.4351, 1543.414
420.9172, 1523.229
421.3993, 1514.699
421.8814, 1521.555
422.3636, 1528.373
422.8457, 1528.985
423.3278, 1528.889
423.8099, 1534.183
424.2920, 1560.545
424.7741, 1576.271
425.2563, 1568.375
425.7384, 1537.563
426.2205, 1524.798
426.7026, 1539.751
427.1847, 1562.448
427.6668, 1581.325
428.1490, 1597.984
428.6311, 1606.266
429.1132, 1602.999
429.5953, 1592.558
430.0774, 1586.584
430.5595, 1586.239
431.0417, 1585.770
431.5238, 1581.646
432.0059, 1573.908
432.4880, 1570.735
432.9701, 1573.250
433.4522, 1576.575
433.9344, 1572.539
434.4165, 1562.444
434.8986, 1557.586
435.3807, 1562.777
435.8628, 1574.507
436.3449, 1588.953
436.8271, 1605.537
437.3092, 1616.702
437.7913, 1610.733
438.2734, 1597.121
438.7555, 1591.878
439.2376, 1600.768
439.7197, 1611.138
440.2018, 1611.681
440.6840, 1605.638
441.1661, 1600.162
441.6482, 1599.688
442.1303, 1600.086
442.6124, 1597.731
443.0945, 1591.866
443.5767, 1589.270
444.0588, 1592.478
444.5409, 1600.059
445.0230, 1610.682
445.5051, 1638.411
445.9872, 1653.493
446.4694, 1640.964
446.9515, 1606.969
447.4336, 1588.254
447.9157, 1598.460
448.3978, 1611.874
448.8799, 1617.632
449.3621, 1613.374
449.8442, 1606.909
450.3263, 1596.638
450.8084, 1585.484
451.2905, 1578.205
451.7726, 1575.658
452.2548, 1574.063
452.7369, 1571.188
453.2190, 1567.891
453.7011, 1573.157
454.1832, 1588.739
454.6653, 1604.307
455.1475, 1610.068
455.6296, 1607.233
456.1117, 1604.223
456.5938, 1601.690
457.0759, 1601.147
457.5580, 1609.118
458.0402, 1622.980
458.5223, 1630.044
459.0044, 1615.555
459.4865, 1593.609
459.9686, 1582.478
460.4507, 1583.808
460.9329, 1590.789
461.4150, 1602.997
461.8971, 1616.373
462.3792, 1625.871
462.8613, 1627.056
463.3434, 1626.360
463.8256, 1627.331
464.3077, 1629.124
464.7898, 1627.933
465.2719, 1619.364
465.7540, 1609.891
466.2361, 1601.973
466.7183, 1592.179
467.2004, 1591.661
467.6825, 1608.656
468.1646, 1632.460
468.6467, 1649.308
469.1288, 1657.326
469.6110, 1660.671
470.0930, 1658.195
470.5752, 1650.457
471.0573, 1649.898
471.5394, 1661.415
472.0215, 1669.667
472.5036, 1657.893
472.9857, 1623.390
473.4679, 1606.348
473.9500, 1614.435
474.4321, 1635.617
474.9142, 1650.598
475.3963, 1659.584
475.8784, 1664.838
476.3606, 1666.464
476.8427, 1665.388
477.3248, 1664.173
477.8069, 1662.908
478.2890, 1659.030
478.7711, 1644.760
479.2533, 1627.916
479.7354, 1621.453
480.2175, 1636.575
480.6996, 1651.625
481.1817, 1647.934
481.6638, 1631.842
482.1460, 1619.996
482.6281, 1620.630
483.1102, 1626.352
483.5923, 1634.411
484.0744, 1645.285
484.5565, 1654.268
485.0387, 1660.762
485.5208, 1664.582
486.0029, 1665.372
486.4850, 1656.994
486.9671, 1654.170
487.4492, 1663.061
487.9314, 1679.479
488.4135, 1682.567
488.8956, 1665.363
489.3777, 1648.366
489.8598, 1643.166
490.3419, 1652.119
490.8241, 1653.908
491.3062, 1646.282
491.7883, 1636.979
492.2704, 1638.478
492.7525, 1649.777
493.2346, 1655.127
493.7168, 1646.249
494.1989, 1631.430
494.6810, 1627.879
495.1631, 1634.493
495.6452, 1641.671
496.1273, 1638.233
496.6095, 1632.925
497.0916, 1640.365
497.5737, 1665.390
498.0558, 1689.035
498.5379, 1699.568
499.0201, 1699.961
499.5022, 1694.373
499.9843, 1673.017
500.4664, 1656.678
500.9485, 1658.949
501.4306, 1677.446
501.9127, 1687.818
502.3948, 1681.558
502.8770, 1668.931
503.3591, 1654.018
503.8412, 1629.298
504.3233, 1618.287
504.8054, 1628.025
505.2875, 1647.205
505.7697, 1659.293
506.2518, 1662.536
506.7339, 1663.666
507.2160, 1664.072
507.6981, 1663.771
508.1802, 1662.410
508.6624, 1659.671
509.1445, 1657.978
509.6266, 1661.739
510.1087, 1668.880
510.5908, 1667.827
511.0729, 1655.463
511.5551, 1641.927
512.0372, 1641.815
512.5193, 1650.589
513.0014, 1656.207
513.4835, 1647.627
513.9656, 1637.927
514.4478, 1638.410
514.9299, 1648.356
515.4120, 1661.996
515.8941, 1680.173
516.3762, 1698.589
516.8583, 1715.290
517.3405, 1735.100
517.8226, 1742.012
518.3047, 1720.945
518.7868, 1687.943
519.2689, 1667.373
519.7510, 1665.419
520.2332, 1669.666
520.7153, 1681.238
521.1974, 1698.839
521.6795, 1706.968
522.1616, 1702.694
522.6437, 1694.882
523.1259, 1688.411
523.6080, 1683.247
524.0901, 1679.396
524.5722, 1676.577
525.0543, 1675.830
525.5364, 1679.763
526.0186, 1687.632
526.5007, 1694.613
526.9828, 1698.891
527.4649, 1701.290
527.9470, 1701.747
528.4291, 1700.787
528.9113, 1701.827
529.3934, 1713.038
529.8755, 1724.070
530.3576, 1722.440
530.8397, 1702.950
531.3218, 1686.224
531.8040, 1685.983
532.2861, 1692.758
532.7682, 1695.105
533.2503, 1683.994
533.7324, 1675.411
534.2145, 1672.677
534.6967, 1675.443
535.1788, 1681.318
535.6609, 1694.833
536.1430, 1705.666
536.6251, 1708.531
537.1072, 1701.759
537.5894, 1696.465
538.0715, 1692.905
538.5536, 1690.343
539.0357, 1687.224
539.5178, 1683.567
539.9999, 1684.271
540.4821, 1693.255
540.9642, 1703.310
541.4463, 1696.525
541.9284, 1676.080
542.4105, 1661.574
542.8926, 1666.847
543.3748, 1683.254
543.8569, 1703.367
544.3390, 1726.726
544.8211, 1743.716
545.3032, 1744.853
545.7853, 1738.321
546.2675, 1732.216
546.7495, 1727.456
547.2316, 1724.899
547.7137, 1726.641
548.1959, 1730.727
548.6780, 1732.620
549.1601, 1729.262
549.6422, 1726.753
550.1243, 1727.623
550.6064, 1732.060
551.0886, 1731.140
551.5707, 1721.214
552.0528, 1712.745
552.5349, 1714.054
553.0170, 1725.537
553.4991, 1741.372
553.9813, 1764.245
554.4634, 1783.454
554.9455, 1777.930
555.4276, 1751.854
555.9097, 1728.753
556.3918, 1717.846
556.8740, 1714.963
557.3561, 1718.287
557.8382, 1726.362
558.3203, 1730.947
558.8024, 1720.501
559.2845, 1708.593
559.7667, 1707.752
560.2488, 1722.828
560.7309, 1735.992
561.2130, 1741.109
561.6951, 1741.406
562.1772, 1740.467
562.6594, 1737.705
563.1415, 1734.740
563.6236, 1729.952
564.1057, 1725.084
564.5878, 1726.800
565.0699, 1738.144
565.5521, 1748.928
566.0342, 1755.644
566.5163, 1758.234
566.9984, 1755.514
567.4805, 1746.614
567.9626, 1737.097
568.4448, 1730.792
568.9269, 1727.965
569.4090, 1730.020
569.8911, 1738.272
570.3732, 1748.456
570.8553, 1759.120
571.3375, 1768.080
571.8196, 1770.095
572.3017, 1754.710
572.7838, 1738.901
573.2659, 1733.308
573.7480, 1737.188
574.2302, 1741.946
574.7123, 1747.851
575.1944, 1751.649
575.6765, 1750.589
576.1586, 1740.387
576.6407, 1736.597
577.1229, 1742.485
577.6050, 1752.033
578.0871, 1759.567
578.5692, 1766.057
579.0513, 1766.580
579.5334, 1758.002
580.0156, 1745.127
580.4977, 1743.074
580.9798, 1751.549
581.4619, 1754.246
581.9440, 1732.791
582.4261, 1702.031
582.9083, 1696.517
583.3904, 1715.997
583.8725, 1740.283
584.3546, 1759.933
584.8367, 1773.735
585.3188, 1779.556
585.8010, 1773.929
586.2831, 1767.565
586.7652, 1764.695
587.2473, 1763.959
587.7294, 1763.338
588.2115, 1760.632
588.6937, 1760.286
589.1758, 1765.741
589.6579, 1774.879
590.1400, 1775.667
590.6221, 1764.003
591.1042, 1752.129
591.5864, 1744.222
592.0685, 1740.188
592.5506, 1748.383
593.0327, 1771.523
593.5148, 1793.781
593.9969, 1796.790
594.4791, 1785.212
594.9612, 1775.543
595.4433, 1771.319
595.9254, 1768.762
596.4075, 1759.345
596.8896, 1748.770
597.3718, 1749.150
597.8539, 1787.191
598.3360, 1818.000
598.8181, 1807.318
599.3002, 1761.465
599.7823, 1733.149
600.2645, 1747.493
600.7466, 1770.667
601.2287, 1787.862
601.7108, 1798.218
602.1929, 1806.016
602.6750, 1812.107
603.1572, 1814.409
603.6393, 1808.008
604.1214, 1791.080
604.6035, 1784.291
605.0856, 1793.745
605.5677, 1809.091
606.0499, 1811.860
606.5320, 1803.650
607.0141, 1793.873
607.4962, 1781.869
607.9783, 1773.644
608.4604, 1781.704
608.9425, 1802.962
609.4246, 1818.505
609.9067, 1813.525
610.3889, 1802.210
610.8710, 1793.336
611.3531, 1787.314
611.8352, 1786.749
612.3173, 1797.913
612.7994, 1811.409
613.2816, 1818.995
613.7637, 1817.626
614.2458, 1816.013
614.7279, 1814.088
615.2100, 1812.816
615.6921, 1816.550
616.1743, 1826.721
616.6564, 1827.879
617.1385, 1806.496
617.6206, 1776.589
618.1027, 1781.611
618.5848, 1818.226
619.0670, 1850.779
619.5491, 1849.341
620.0312, 1833.659
620.5133, 1826.701
620.9954, 1831.365
621.4775, 1837.137
621.9597, 1839.043
622.4418, 1839.043
622.9239, 1839.113
623.4060, 1845.028
623.8881, 1843.230
624.3702, 1822.810
624.8524, 1797.228
625.3345, 1789.369
625.8166, 1807.678
626.2987, 1824.339
626.7808, 1833.602
627.2629, 1836.437
627.7451, 1834.738
628.2272, 1828.151
628.7093, 1823.685
629.1914, 1829.929
629.6735, 1840.720
630.1556, 1837.326
630.6378, 1819.508
631.1199, 1805.532
631.6020, 1815.358
632.0841, 1833.508
632.5662, 1842.495
633.0483, 1834.850
633.5305, 1827.950
634.0126, 1827.595
634.4947, 1831.936
634.9768, 1838.937
635.4589, 1859.503
635.9410, 1866.962
636.4232, 1851.095
636.9053, 1821.680
637.3874, 1809.593
637.8695, 1818.049
638.3516, 1831.851
638.8337, 1848.284
639.3159, 1864.982
639.7980, 1870.747
640.2801, 1865.606
640.7622, 1858.392
641.2443, 1854.680
641.7264, 1853.554
642.2086, 1855.183
642.6907, 1860.454
643.1728, 1861.530
643.6549, 1846.981
644.1370, 1829.032
644.6191, 1819.984
645.1013, 1830.661
645.5834, 1840.449
646.0655, 1848.286
646.5476, 1853.023
647.0297, 1850.802
647.5118, 1833.965
647.9940, 1827.905
648.4761, 1843.390
648.9582, 1872.642
649.4403, 1883.369
649.9224, 1874.536
650.4045, 1863.216
650.8867, 1858.961
651.3688, 1859.144
651.8509, 1857.002
652.3330, 1852.539
652.8151, 1851.070
653.2972, 1862.255
653.7794, 1875.240
654.2615, 1877.820
654.7436, 1863.173
655.2257, 1852.903
655.7078, 1857.707
656.1899, 1868.354
656.6721, 1874.459
657.1542, 1874.907
657.6363, 1871.313
658.1184, 1859.317
658.6005, 1846.295
659.0826, 1852.344
659.5648, 1880.618
660.0469, 1901.083
660.5290, 1899.967
661.0111, 1886.604
661.4932, 1887.317
661.9753, 1899.299
662.4575, 1903.530
662.9396, 1875.686
663.4217, 1842.089
663.9038, 1831.304
664.3859, 1845.203
664.8680, 1860.597
665.3502, 1870.709
665.8323, 1876.718
666.3144, 1878.951
666.7965, 1874.414
667.2786, 1872.220
667.7607, 1873.097
668.2429, 1875.521
668.7250, 1878.191
669.2071, 1881.286
669.6892, 1882.482
670.1713, 1880.453
670.6534, 1877.941
671.1355, 1879.586
671.6176, 1885.121
672.0997, 1893.610
672.5818, 1912.629
673.0640, 1927.225
673.5461, 1912.762
674.0282, 1878.238
674.5103, 1855.865
674.9924, 1872.721
675.4745, 1894.675
675.9567, 1904.684
676.4388, 1901.067
676.9209, 1896.796
677.4030, 1892.714
677.8851, 1888.148
678.3672, 1882.968
678.8494, 1877.341
679.3315, 1867.240
679.8136, 1849.254
680.2957, 1837.729
680.7778, 1858.742
681.2599, 1901.741
681.7421, 1921.653
682.2242, 1905.465
682.7063, 1880.673
683.1884, 1870.603
683.6705, 1871.609
684.1526, 1877.391
684.6348, 1890.848
685.1169, 1903.098
685.5990, 1913.106
686.0811, 1919.621
686.5632, 1918.450
687.0453, 1902.107
687.5275, 1889.216
688.0096, 1885.223
688.4917, 1888.874
688.9738, 1892.000
689.4559, 1894.362
689.9380, 1897.676
690.4202, 1904.613
690.9023, 1913.250
691.3844, 1917.346
691.8665, 1916.760
692.3486, 1913.303
692.8307, 1903.488
693.3129, 1893.985
693.7950, 1893.862
694.2771, 1907.988
694.7592, 1916.361
695.2413, 1902.590
695.7234, 1885.108
696.2056, 1882.875
696.6877, 1911.082
697.1698, 1926.028
697.6519, 1919.950
698.1340, 1906.355
698.6161, 1910.050
699.0983, 1932.155
699.5804, 1942.888
700.0625, 1929.894
700.5446, 1909.364
701.0267, 1912.468
701.5089, 1931.932
701.9910, 1943.548
702.4731, 1925.982
702.9552, 1904.191
703.4373, 1895.091
703.9194, 1897.331
704.4016, 1901.594
704.8837, 1907.710
705.3658, 1913.035
705.8479, 1916.427
706.3300, 1917.776
706.8121, 1919.224
707.2943, 1921.535
707.7764, 1922.127
708.2585, 1918.219
708.7406, 1910.378
709.2227, 1905.690
709.7048, 1904.732
710.1870, 1903.046
710.6691, 1892.359
711.1512, 1879.552
711.6333, 1876.326
712.1154, 1888.292
712.5975, 1898.762
713.0797, 1895.875
713.5618, 1888.308
714.0439, 1885.966
714.5260, 1896.699
715.0081, 1904.446
715.4902, 1907.411
715.9724, 1907.432
716.4545, 1906.965
716.9366, 1905.560
717.4187, 1906.633
717.9008, 1911.835
718.3829, 1919.006
718.8651, 1925.790
719.3472, 1931.237
719.8293, 1931.686
720.3114, 1918.354
720.7935, 1904.584
721.2756, 1901.640
721.7578, 1908.414
722.2399, 1918.843
722.7220, 1942.211
723.2041, 1958.134
723.6862, 1952.289
724.1683, 1923.813
724.6505, 1915.598
725.1326, 1937.671
725.6147, 1958.396
726.0968, 1953.694
726.5789, 1926.038
727.0610, 1914.320
727.5432, 1919.944
728.0253, 1929.777
728.5074, 1933.462
728.9895, 1933.255
729.4716, 1931.850
729.9537, 1929.167
730.4359, 1928.031
730.9180, 1935.344
731.4001, 1942.048
731.8822, 1939.694
732.3643, 1910.589
732.8464, 1895.585
733.3285, 1900.153
733.8106, 1914.146
734.2927, 1924.516
734.7748, 1930.952
735.2570, 1936.517
735.7391, 1943.047
736.2212, 1946.330
736.7033, 1931.921
737.1854, 1907.666
737.6675, 1897.694
738.1497, 1928.787
738.6318, 1960.133
739.1139, 1960.765
739.5960, 1939.857
740.0781, 1921.831
740.5602, 1911.596
741.0424, 1906.961
741.5245, 1908.160
742.0066, 1914.525
742.4887, 1922.721
742.9708, 1933.664
743.4529, 1942.606
743.9351, 1944.816
744.4172, 1943.524
744.8993, 1954.459
745.3814, 1976.327
745.8635, 1992.881
746.3456, 1990.985
746.8278, 1979.755
747.3099, 1964.711
747.7920, 1946.277
748.2741, 1936.138
748.7562, 1920.227
749.2383, 1943.197
749.7205, 1956.861
750.2026, 1961.716
750.6847, 1931.384
751.1668, 1946.489
751.6489, 1943.385
752.1310, 1939.534
752.6132, 1961.034
753.0953, 1935.820
753.5774, 1956.918
754.0595, 1959.529
754.5416, 1970.601
755.0237, 1963.352
755.5059, 1961.761
755.9880, 1961.041
756.4701, 1955.939
756.9522, 1965.902
757.4343, 1980.602
757.9164, 1987.115
758.3986, 1978.771
758.8807, 1974.614
759.3628, 1977.554
759.8449, 1983.382
760.3270, 1983.700
760.8091, 1978.942
761.2913, 1980.778
761.7734, 1996.560
762.2555, 2011.397
762.7376, 2000.051
763.2197, 1972.982
763.7018, 1953.674
764.1840, 1958.828
764.6661, 1966.582
765.1482, 1966.550
765.6303, 1961.853
766.1124, 1962.009
766.5945, 1972.939
767.0767, 1979.286
767.5588, 1976.075
768.0409, 1966.111
768.5230, 1958.800
769.0051, 1954.132
769.4872, 1953.323
769.9694, 1959.660
770.4515, 1968.504
770.9336, 1972.723
771.4157, 1972.768
771.8978, 1970.719
772.3799, 1964.726
772.8621, 1959.618
773.3442, 1956.680
773.8263, 1956.277
774.3084, 1963.556
774.7905, 1987.664
775.2726, 2005.557
775.7548, 2005.010
776.2369, 1987.557
776.7190, 1976.408
777.2011, 1971.573
777.6832, 1971.907
778.1653, 1983.156
778.6475, 1996.341
779.1296, 1993.332
779.6117, 1973.697
780.0938, 1957.619
780.5759, 1958.094
781.0580, 1965.118
781.5402, 1973.879
782.0223, 1985.832
782.5044, 1989.445
782.9865, 1976.699
783.4686, 1967.002
783.9507, 1980.912
784.4329, 2018.389
784.9150, 2026.692
785.3971, 2001.680
785.8792, 1969.033
786.3613, 1945.206
786.8434, 1932.285
787.3256, 1937.499
787.8077, 1965.487
788.2898, 1990.652
788.7719, 2001.331
789.2540, 2002.845
789.7361, 1998.249
790.2183, 1978.885
790.7004, 1974.372
791.1825, 1991.974
791.6646, 2013.613
792.1467, 2016.803
792.6288, 2003.238
793.1110, 2002.610
793.5930, 2021.588
794.0751, 2039.635
794.5573, 2029.362
795.0394, 2004.658
795.5215, 1986.779
796.0036, 1980.305
796.4857, 1982.583
796.9678, 2001.220
797.4500, 2024.193
797.9321, 2037.565
798.4142, 2038.872
798.8963, 2034.501
799.3784, 2021.225
799.8605, 2008.358
800.3427, 2014.659
800.8248, 2035.802
801.3069, 2043.328
801.7890, 2026.140
802.2711, 2005.148
802.7532, 2003.964
803.2354, 2012.527
803.7175, 2015.406
804.1996, 1999.458
804.6817, 1987.194
805.1638, 1983.392
805.6459, 1986.068
806.1281, 1994.767
806.6102, 2013.651
807.0923, 2023.505
807.5744, 2020.326
808.0565, 2008.547
808.5386, 1989.543
809.0208, 1967.320
809.5029, 1958.438
809.9850, 1976.012
810.4671, 1996.717
810.9492, 1999.723
811.4313, 1993.816
811.9135, 1994.418
812.3956, 2016.907
812.8777, 2031.097
813.3598, 2030.225
813.8419, 2020.274
814.3240, 2012.542
814.8062, 2007.136
815.2883, 2003.753
815.7704, 2003.089
816.2525, 2003.120
816.7346, 1997.383
817.2167, 1989.600
817.6989, 1989.562
818.1810, 2011.301
818.6631, 2031.327
819.1452, 2037.404
819.6273, 2033.945
820.1094, 2031.137
820.5916, 2030.095
821.0737, 2029.481
821.5558, 2030.316
822.0379, 2030.419
822.5200, 2020.527
823.0021, 2002.066
823.4843, 1995.303
823.9664, 2014.793
824.4485, 2038.681
824.9306, 2036.496
825.4127, 2018.808
825.8948, 2009.662
826.3770, 2030.946
826.8591, 2047.466
827.3412, 2041.575
827.8233, 2024.829
828.3054, 2023.435
828.7875, 2044.523
829.2697, 2055.614
829.7518, 2046.129
830.2339, 2026.267
830.7160, 2013.915
831.1981, 2008.672
831.6802, 2008.822
832.1624, 2018.368
832.6445, 2027.612
833.1266, 2028.825
833.6087, 2024.811
834.0908, 2021.519
834.5729, 2024.574
835.0551, 2022.115
835.5372, 2008.322
836.0193, 1990.611
836.5014, 1986.495
836.9835, 1996.208
837.4656, 2012.079
837.9478, 2037.303
838.4299, 2057.837
838.9120, 2046.219
839.3941, 2015.285
839.8762, 1993.712
840.3583, 2000.955
840.8405, 2010.637
841.3226, 2011.089
841.8047, 2008.371
842.2868, 2015.974
842.7689, 2041.551
843.2510, 2056.347
843.7332, 2053.148
844.2153, 2039.615
844.6974, 2029.613
845.1795, 2022.110
845.6616, 2011.943
846.1437, 1992.303
846.6259, 1978.157
847.1080, 1982.459
847.5901, 1999.936
848.0722, 2022.018
848.5543, 2068.525
849.0364, 2087.714
849.5186, 2060.014
850.0007, 2015.313
850.4828, 2008.630
850.9649, 2041.436
851.4470, 2057.571
851.9291, 2040.528
852.4113, 2014.913
852.8934, 2010.420
853.3755, 2019.531
853.8576, 2029.599
854.3397, 2042.408
854.8218, 2046.159
855.3040, 2027.389
855.7860, 2001.684
856.2681, 1990.518
856.7502, 2000.832
857.2324, 2001.668
857.7145, 1986.125
858.1966, 1969.995
858.6787, 1980.766
859.1608, 2009.105
859.6429, 2025.463
860.1251, 2020.454
860.6072, 2011.572
861.0893, 2009.264
861.5714, 2010.294
862.0535, 2011.129
862.5356, 2009.901
863.0178, 2010.972
863.4999, 2016.196
863.9820, 2021.225
864.4641, 2020.417
864.9462, 2014.316
865.4283, 2010.477
865.9105, 2009.538
866.3926, 2011.895
866.8747, 2022.224
867.3568, 2034.060
867.8389, 2038.815
868.3210, 2033.672
868.8032, 2027.527
869.2853, 2018.648
869.7674, 2012.932
870.2495, 2016.790
870.7316, 2034.212
871.2137, 2033.752
871.6959, 2012.533
872.1780, 1990.810
872.6601, 1987.442
873.1422, 1995.250
873.6243, 2003.941
874.1064, 2012.552
874.5886, 2016.187
875.0707, 2007.558
875.5528, 1996.880
876.0349, 1989.351
876.5170, 1984.582
876.9991, 1988.479
877.4813, 2003.970
877.9634, 2019.610
878.4455, 2029.244
878.9276, 2033.354
879.4097, 2031.699
879.8918, 2025.021
880.3740, 2019.607
880.8561, 2020.104
881.3382, 2022.719
881.8203, 2025.377
882.3024, 2027.938
882.7845, 2030.340
883.2667, 2033.625
883.7488, 2034.745
884.2309, 2031.584
884.7130, 2025.742
885.1951, 2022.958
885.6772, 2023.291
886.1594, 2027.193
886.6415, 2042.604
887.1236, 2055.272
887.6057, 2044.788
888.0878, 2020.532
888.5699, 2009.921
889.0521, 2036.654
889.5342, 2057.016
890.0163, 2060.371
890.4984, 2053.543
890.9805, 2051.948
891.4626, 2055.606
891.9448, 2062.960
892.4269, 2076.481
892.9090, 2087.341
893.3911, 2080.555
893.8732, 2063.667
894.3553, 2050.639
894.8375, 2044.053
895.3196, 2044.343
895.8017, 2060.038
896.2838, 2077.501
896.7659, 2079.017
897.2480, 2061.445
897.7302, 2048.826
898.2123, 2044.760
898.6944, 2044.390
899.1765, 2045.296
899.6586, 2044.999
900.1407, 2036.437
900.6229, 2013.803
901.1050, 2000.861
901.5871, 2016.402
902.0692, 2039.731
902.5513, 2054.822
903.0334, 2061.542
903.5156, 2057.409
903.9977, 2039.054
904.4798, 2022.264
904.9619, 2027.636
905.4440, 2043.112
905.9261, 2036.517
906.4083, 2006.703
906.8904, 1983.432
907.3725, 1987.588
907.8546, 2000.865
908.3367, 2014.145
908.8188, 2027.057
909.3010, 2034.485
909.7831, 2035.538
910.2652, 2033.822
910.7473, 2028.394
911.2294, 2022.584
911.7115, 2031.304
912.1937, 2050.560
912.6758, 2059.670
913.1579, 2033.574
913.6400, 2007.167
914.1221, 2000.094
914.6042, 2009.328
915.0864, 2021.058
915.5685, 2038.488
916.0506, 2048.827
916.5327, 2046.049
917.0148, 2038.722
917.4969, 2049.298
917.9790, 2071.752
918.4611, 2081.639
918.9432, 2064.180
919.4254, 2044.181
919.9075, 2038.677
920.3896, 2040.889
920.8717, 2040.634
921.3538, 2029.049
921.8359, 2031.116
922.3181, 2053.738
922.8002, 2079.272
923.2823, 2086.248
923.7644, 2077.470
924.2465, 2064.624
924.7286, 2048.337
925.2108, 2035.884
925.6929, 2030.345
926.1750, 2032.762
926.6571, 2048.806
927.1392, 2087.697
927.6213, 2098.338
928.1035, 2067.457
928.5856, 2032.927
929.0677, 2016.171
929.5498, 2015.584
930.0319, 2024.193
930.5140, 2041.222
930.9962, 2058.754
931.4783, 2078.048
931.9604, 2090.459
932.4425, 2085.482
932.9246, 2066.121
933.4067, 2054.604
933.8889, 2055.327
934.3710, 2058.452
934.8531, 2063.053
935.3352, 2066.780
935.8173, 2061.438
936.2994, 2048.847
936.7816, 2038.238
937.2637, 2033.226
937.7458, 2030.989
938.2279, 2027.977
938.7100, 2026.792
939.1921, 2032.329
939.6743, 2053.098
940.1564, 2064.460
940.6385, 2061.363
941.1206, 2054.914
941.6027, 2062.429
942.0848, 2079.242
942.5670, 2083.617
943.0491, 2071.628
943.5312, 2056.667
944.0133, 2043.336
944.4954, 2034.986
944.9775, 2036.408
945.4597, 2051.651
945.9418, 2058.859
946.4239, 2054.660
946.9060, 2049.957
947.3881, 2051.172
947.8702, 2057.152
948.3524, 2065.431
948.8345, 2075.189
949.3166, 2080.681
949.7987, 2072.030
950.2808, 2064.282
950.7629, 2066.383
951.2451, 2077.563
951.7272, 2093.977
952.2093, 2123.869
952.6914, 2134.990
953.1735, 2113.133
953.6556, 2077.891
954.1378, 2067.408
954.6199, 2075.784
955.1020, 2087.196
955.5841, 2101.204
956.0662, 2107.743
956.5483, 2092.594
957.0305, 2071.820
957.5126, 2064.668
957.9947, 2076.970
958.4768, 2087.330
958.9589, 2095.631
959.4410, 2101.231
959.9232, 2099.683
960.4053, 2095.989
960.8874, 2105.650
961.3695, 2129.653
961.8516, 2141.689
962.3337, 2115.996
962.8159, 2086.016
963.2980, 2067.475
963.7801, 2060.369
964.2622, 2066.279
964.7443, 2088.060
965.2264, 2105.291
965.7086, 2107.747
966.1907, 2101.204
966.6728, 2091.800
967.1549, 2081.048
967.6370, 2073.020
968.1191, 2068.158
968.6013, 2067.677
969.0834, 2073.392
969.5655, 2082.623
970.0476, 2094.978
970.5297, 2111.448
971.0118, 2111.223
971.4940, 2088.015
971.9761, 2064.705
972.4582, 2068.652
972.9403, 2085.389
973.4224, 2096.579
973.9045, 2097.913
974.3867, 2099.995
974.8688, 2106.500
975.3509, 2112.196
975.8330, 2113.561
976.3151, 2111.143
976.7972, 2112.646
977.2794, 2117.822
977.7615, 2122.963
978.2436, 2128.899
978.7257, 2131.006
979.2078, 2117.423
979.6899, 2095.738
980.1720, 2093.587
980.6541, 2134.426
981.1362, 2159.297
981.6183, 2154.967
982.1005, 2134.876
982.5826, 2117.440
983.0647, 2104.395
983.5468, 2106.037
984.0289, 2129.322
984.5110, 2150.871
984.9932, 2154.977
985.4753, 2149.904
985.9574, 2142.266
986.4395, 2130.695
986.9216, 2125.329
987.4037, 2127.576
987.8859, 2131.412
988.3680, 2132.607
988.8501, 2132.034
989.3322, 2132.413
989.8143, 2133.263
990.2964, 2131.278
990.7786, 2118.862
991.2607, 2109.681
991.7428, 2111.398
992.2249, 2120.278
992.7070, 2128.343
993.1891, 2136.341
993.6713, 2135.633
994.1534, 2122.033
994.6355, 2104.066
995.1176, 2085.999
995.5997, 2073.231
996.0818, 2075.862
996.5640, 2106.453
997.0461, 2128.465
997.5282, 2134.304
998.0103, 2132.532
998.4924, 2127.604
998.9745, 2119.740
999.4567, 2112.903
999.9388, 2107.207
1000.421, 2107.387
1000.903, 2124.339
1001.385, 2142.237
1001.867, 2145.649
1002.349, 2136.775
1002.831, 2134.754
1003.314, 2147.132
1003.796, 2150.915
1004.278, 2136.365
1004.760, 2116.400
1005.242, 2120.618
1005.724, 2140.702
1006.206, 2150.376
1006.688, 2135.036
1007.171, 2125.382
1007.653, 2146.324
1008.135, 2173.251
1008.617, 2183.028
1009.099, 2171.872
1009.581, 2159.174
1010.063, 2143.708
1010.545, 2133.852
1011.027, 2142.001
1011.510, 2156.021
1011.992, 2157.323
1012.474, 2147.399
1012.956, 2139.406
1013.438, 2136.481
1013.920, 2137.744
1014.402, 2143.858
1014.884, 2153.077
1015.367, 2164.631
1015.849, 2177.270
1016.331, 2176.720
1016.813, 2153.638
1017.295, 2134.495
1017.777, 2152.821
1018.259, 2181.207
1018.741, 2188.630
1019.223, 2162.904
1019.706, 2144.508
1020.188, 2134.151
1020.670, 2129.662
1021.152, 2129.202
1021.634, 2133.524
1022.116, 2150.442
1022.598, 2176.188
1023.080, 2190.435
1023.563, 2167.973
1024.045, 2148.820
1024.527, 2150.490
1025.009, 2165.118
1025.491, 2179.100
1025.973, 2192.794
1026.455, 2199.170
1026.937, 2195.711
1027.419, 2189.023
1027.901, 2184.731
1028.384, 2182.336
1028.866, 2180.397
1029.348, 2176.933
1029.830, 2182.801
1030.312, 2203.543
1030.794, 2224.653
1031.276, 2242.978
1031.758, 2254.594
1032.241, 2232.407
1032.723, 2184.027
1033.205, 2147.545
1033.687, 2148.368
1034.169, 2161.127
1034.651, 2182.840
1035.133, 2205.060
1035.615, 2210.256
1036.098, 2192.635
1036.580, 2187.351
1037.062, 2200.012
1037.544, 2218.016
1038.026, 2235.516
1038.508, 2245.627
1038.990, 2231.778
1039.472, 2188.808
1039.954, 2167.855
1040.437, 2199.652
1040.919, 2227.473
1041.401, 2228.152
1041.883, 2209.432
1042.365, 2199.053
1042.847, 2196.206
1043.329, 2195.750
1043.811, 2196.623
1044.293, 2197.725
1044.776, 2198.912
1045.258, 2199.742
1045.740, 2199.145
1046.222, 2195.527
1046.704, 2196.852
1047.186, 2204.381
1047.668, 2212.135
1048.150, 2216.059
1048.633, 2216.151
1049.115, 2207.064
1049.597, 2190.871
1050.079, 2188.425
1050.561, 2234.070
1051.043, 2257.723
1051.525, 2230.194
1052.007, 2178.669
1052.490, 2173.715
1052.972, 2207.516
1053.454, 2238.264
1053.936, 2257.272
1054.418, 2261.899
1054.900, 2232.582
1055.382, 2199.398
1055.864, 2196.064
1056.346, 2231.079
1056.828, 2240.017
1057.311, 2218.087
1057.793, 2197.715
1058.275, 2205.960
1058.757, 2225.097
1059.239, 2229.016
1059.721, 2221.542
1060.203, 2214.698
1060.685, 2210.836
1061.168, 2210.853
1061.650, 2217.798
1062.132, 2224.838
1062.614, 2219.367
1063.096, 2204.833
1063.578, 2198.599
1064.060, 2203.449
1064.542, 2207.677
1065.025, 2200.050
1065.507, 2192.258
1065.989, 2196.864
1066.471, 2210.733
1066.953, 2203.709
1067.435, 2172.124
1067.917, 2152.094
1068.399, 2161.270
1068.881, 2181.103
1069.364, 2189.661
1069.846, 2192.170
1070.328, 2197.115
1070.810, 2208.876
1071.292, 2218.813
1071.774, 2226.988
1072.256, 2232.597
1072.738, 2236.974
1073.220, 2238.052
1073.703, 2221.894
1074.185, 2191.985
1074.667, 2174.202
1075.149, 2197.824
1075.631, 2218.499
1076.113, 2210.261
1076.595, 2190.307
1077.077, 2192.863
1077.559, 2218.482
1078.042, 2243.641
1078.524, 2266.093
1079.006, 2276.856
1079.488, 2257.328
1079.970, 2228.546
1080.452, 2209.405
1080.934, 2203.512
1081.416, 2201.619
1081.899, 2202.847
1082.381, 2211.661
1082.863, 2236.226
1083.345, 2262.231
1083.827, 2253.898
1084.309, 2226.274
1084.791, 2212.816
1085.273, 2235.607
1085.755, 2255.866
1086.238, 2269.877
1086.720, 2275.442
1087.202, 2266.018
1087.684, 2244.332
1088.166, 2237.314
1088.648, 2244.418
1089.130, 2247.869
1089.612, 2229.014
1090.094, 2210.828
1090.577, 2210.277
1091.059, 2220.010
1091.541, 2220.104
1092.023, 2208.644
1092.505, 2200.448
1092.987, 2196.834
1093.469, 2202.692
1093.951, 2236.755
1094.434, 2275.029
1094.916, 2288.060
1095.398, 2269.823
1095.880, 2252.427
1096.362, 2235.696
1096.844, 2225.847
1097.326, 2227.322
1097.808, 2234.595
1098.291, 2233.325
1098.773, 2228.404
1099.255, 2233.158
1099.737, 2260.327
1100.219, 2280.376
1100.701, 2284.732
1101.183, 2280.338
1101.665, 2267.947
1102.147, 2248.639
1102.630, 2244.681
1103.112, 2254.715
1103.594, 2264.069
1104.076, 2266.465
1104.558, 2262.516
1105.040, 2243.129
1105.522, 2220.430
1106.004, 2222.931
1106.486, 2257.394
1106.969, 2269.338
1107.451, 2250.022
1107.933, 2225.637
1108.415, 2222.399
1108.897, 2227.512
1109.379, 2226.805
1109.861, 2219.367
1110.343, 2218.944
1110.826, 2231.521
1111.308, 2235.957
1111.790, 2221.606
1112.272, 2203.445
1112.754, 2212.187
1113.236, 2235.408
1113.718, 2247.267
1114.200, 2237.469
1114.682, 2229.914
1115.165, 2229.686
1115.647, 2233.262
1116.129, 2241.387
1116.611, 2251.535
1117.093, 2248.347
1117.575, 2234.734
1118.057, 2225.050
1118.539, 2237.704
1119.021, 2242.375
1119.504, 2208.061
1119.986, 2171.080
1120.468, 2177.615
1120.950, 2231.984
1121.432, 2257.078
1121.914, 2248.934
1122.396, 2239.385
1122.878, 2260.203
1123.361, 2282.263
1123.843, 2280.591
1124.325, 2259.840
1124.807, 2244.351
1125.289, 2234.842
1125.771, 2228.518
1126.253, 2224.140
1126.735, 2225.896
1127.218, 2246.955
1127.700, 2272.332
1128.182, 2282.803
1128.664, 2275.096
1129.146, 2261.052
1129.628, 2235.721
1130.110, 2219.914
1130.592, 2224.044
1131.074, 2237.589
1131.557, 2241.281
1132.039, 2237.459
1132.521, 2229.287
1133.003, 2209.711
1133.485, 2209.128
1133.967, 2252.073
1134.449, 2291.722
1134.931, 2296.610
1135.413, 2274.950
1135.896, 2269.230
1136.378, 2276.522
1136.860, 2283.030
1137.342, 2286.612
1137.824, 2282.499
1138.306, 2257.818
1138.788, 2231.965
1139.270, 2229.093
1139.752, 2249.304
1140.235, 2248.426
1140.717, 2225.116
1141.199, 2207.219
1141.681, 2221.948
1142.163, 2241.696
1142.645, 2247.452
1143.127, 2243.613
1143.609, 2243.848
1144.092, 2248.694
1144.574, 2255.432
1145.056, 2265.211
1145.538, 2268.004
1146.020, 2243.138
1146.502, 2214.020
1146.984, 2206.019
1147.466, 2221.267
1147.948, 2235.702
1148.431, 2250.656
1148.913, 2257.748
1149.395, 2252.365
1149.877, 2242.849
1150.359, 2238.677
1150.841, 2239.308
1151.323, 2243.738
1151.805, 2251.514
1152.287, 2266.865
1152.770, 2298.355
1153.252, 2316.149
1153.734, 2298.013
1154.216, 2262.377
1154.698, 2248.113
1155.180, 2251.099
1155.662, 2262.855
1156.144, 2295.439
1156.627, 2308.437
1157.109, 2287.358
1157.591, 2263.337
1158.073, 2264.602
1158.555, 2283.082
1159.037, 2285.706
1159.519, 2275.123
1160.001, 2265.524
1160.484, 2266.917
1160.966, 2265.781
1161.448, 2255.375
1161.930, 2243.681
1162.412, 2242.221
1162.894, 2248.868
1163.376, 2246.123
1163.858, 2233.405
1164.340, 2227.184
1164.823, 2247.222
1165.305, 2265.446
1165.787, 2263.825
1166.269, 2253.535
1166.751, 2261.023
1167.233, 2284.681
1167.715, 2294.644
1168.197, 2284.815
1168.679, 2272.517
1169.162, 2274.863
1169.644, 2276.017
1170.126, 2255.498
1170.608, 2222.347
1171.090, 2227.918
1171.572, 2273.155
1172.054, 2305.703
1172.536, 2308.760
1173.019, 2299.143
1173.501, 2282.509
1173.983, 2267.016
1174.465, 2261.968
1174.947, 2267.736
1175.429, 2274.804
1175.911, 2283.690
1176.393, 2287.403
1176.875, 2279.385
1177.358, 2270.482
1177.840, 2272.492
1178.322, 2280.911
1178.804, 2290.668
1179.286, 2304.581
1179.768, 2304.767
1180.250, 2288.594
1180.732, 2274.915
1181.214, 2277.154
1181.697, 2287.679
1182.179, 2303.878
1182.661, 2320.002
1183.143, 2322.740
1183.625, 2303.069
1184.107, 2284.855
1184.589, 2266.365
1185.071, 2259.126
1185.554, 2281.306
1186.036, 2315.385
1186.518, 2343.215
1187.000, 2361.475
1187.482, 2358.422
1187.964, 2314.895
1188.446, 2288.769
1188.928, 2288.437
1189.411, 2299.215
1189.893, 2310.897
1190.375, 2319.458
1190.857, 2313.615
1191.339, 2295.296
1191.821, 2288.254
1192.303, 2304.543
1192.785, 2317.833
1193.267, 2322.642
1193.750, 2323.803
1194.232, 2331.508
1194.714, 2339.246
1195.196, 2332.506
1195.678, 2308.964
1196.160, 2291.268
1196.642, 2279.048
1197.124, 2284.301
1197.606, 2318.299
1198.089, 2359.146
1198.571, 2361.455
1199.053, 2340.492
1199.535, 2325.618
1200.017, 2323.085
1200.499, 2325.488
1200.981, 2333.806
1201.463, 2342.526
1201.945, 2350.546
1202.428, 2356.118
1202.910, 2352.129
1203.392, 2342.743
1203.874, 2338.385
1204.356, 2345.407
1204.838, 2346.227
1205.320, 2332.538
1205.802, 2320.719
1206.285, 2319.561
1206.767, 2326.895
1207.249, 2343.150
1207.731, 2362.429
1208.213, 2367.536
1208.695, 2337.638
1209.177, 2322.041
1209.659, 2335.400
1210.141, 2351.592
1210.624, 2351.231
1211.106, 2339.085
1211.588, 2325.937
1212.070, 2314.309
1212.552, 2312.262
1213.034, 2337.855
1213.516, 2351.109
1213.998, 2341.021
1214.480, 2327.506
1214.963, 2330.168
1215.445, 2343.475
1215.927, 2350.712
1216.409, 2352.136
1216.891, 2350.887
1217.373, 2345.342
1217.855, 2341.305
1218.337, 2338.961
1218.820, 2339.605
1219.302, 2346.473
1219.784, 2357.141
1220.266, 2364.396
1220.748, 2368.424
1221.230, 2372.437
1221.712, 2385.313
1222.194, 2385.900
1222.677, 2365.072
1223.159, 2339.857
1223.641, 2334.180
1224.123, 2341.702
1224.605, 2346.879
1225.087, 2348.807
1225.569, 2353.745
1226.051, 2370.040
1226.533, 2380.983
1227.016, 2381.899
1227.498, 2378.148
1227.980, 2377.607
1228.462, 2378.926
1228.944, 2378.794
1229.426, 2376.871
1229.908, 2376.788
1230.390, 2380.642
1230.872, 2384.945
1231.355, 2388.837
1231.837, 2392.809
1232.319, 2399.843
1232.801, 2406.766
1233.283, 2405.960
1233.765, 2395.624
1234.247, 2387.557
1234.729, 2380.272
1235.212, 2384.502
1235.694, 2408.743
1236.176, 2437.120
1236.658, 2439.831
1237.140, 2426.896
1237.622, 2414.125
1238.104, 2403.983
1238.586, 2399.297
1239.068, 2401.610
1239.551, 2405.627
1240.033, 2410.948
1240.515, 2414.335
1240.997, 2406.380
1241.479, 2394.351
1241.961, 2391.146
1242.443, 2402.210
1242.925, 2408.131
1243.407, 2406.633
1243.890, 2404.985
1244.372, 2407.692
1244.854, 2409.730
1245.336, 2400.343
1245.818, 2386.228
1246.300, 2377.825
1246.782, 2378.465
1247.264, 2379.116
1247.747, 2379.057
1248.229, 2382.006
1248.711, 2390.663
1249.193, 2401.996
1249.675, 2417.646
1250.157, 2431.369
1250.639, 2431.137
1251.121, 2410.346
1251.604, 2406.443
1252.086, 2422.329
1252.568, 2433.205
1253.050, 2420.082
1253.532, 2402.728
1254.014, 2400.691
1254.496, 2407.714
1254.978, 2416.755
1255.460, 2430.244
1255.943, 2421.584
1256.425, 2389.086
1256.907, 2373.618
1257.389, 2418.169
1257.871, 2465.989
1258.353, 2470.890
1258.835, 2452.402
1259.317, 2436.772
1259.799, 2423.921
1260.281, 2419.878
1260.764, 2424.214
1261.246, 2426.967
1261.728, 2418.527
1262.210, 2411.082
1262.692, 2415.900
1263.174, 2422.500
1263.656, 2415.802
1264.138, 2396.403
1264.621, 2400.388
1265.103, 2425.230
1265.585, 2443.214
1266.067, 2432.327
1266.549, 2418.838
1267.031, 2411.315
1267.513, 2407.786
##END=



