##NAMES=Nickelskutterudite
##RRUFFID=R100194
##IDEAL CHEMISTRY=(Ni^4+^,Co^3+^,Fe^3+^)As_3_
##LOCALITY=Schneeberg, Saxony, Germany
##OWNER=RRUFF
##SOURCE=University of Arizona Mineral Museum
##DESCRIPTION=Silver euhedral twinned crystals, roughly dodecahedral
##STATUS=The identification of this mineral is confirmed by single-crystal X-ray diffraction and chemical analysis.
##URL=rruff.info/R100194
##MEASURED CHEMISTRY=(Ni_0.69_Co_0.26_Fe_0.06_)_Σ=1.01_(As_2.95_S_0.04_Bi_0.01_)_Σ=3.00_ ; Dark Band ; (Ni_0.86_Co_0.14_Fe_0.01_)_Σ=1.01_(As_2.99_S_0.01_)_Σ=3.00_  Light Band
149.3713, 17.00209
149.8535, 19.78157
150.3356, 22.40384
150.8177, 23.80572
151.2998, 23.11872
151.7819, 23.08450
152.2640, 24.28291
152.7462, 26.07896
153.2283, 27.31474
153.7104, 27.61515
154.1925, 27.59752
154.6746, 27.38276
155.1567, 26.48714
155.6389, 26.27265
156.1210, 27.63009
156.6031, 29.83749
157.0852, 31.13238
157.5673, 30.51217
158.0495, 29.35328
158.5316, 28.32675
159.0137, 27.73536
159.4958, 27.02265
159.9779, 25.38010
160.4600, 23.33941
160.9422, 22.63677
161.4243, 25.06386
161.9064, 28.33143
162.3885, 30.87084
162.8706, 31.63304
163.3527, 32.43628
163.8349, 34.66408
164.3170, 37.86009
164.7991, 39.84314
165.2812, 38.18744
165.7633, 35.45996
166.2454, 34.00863
166.7276, 35.97216
167.2097, 38.11373
167.6918, 38.40749
168.1739, 37.03121
168.6560, 35.49591
169.1381, 34.08102
169.6203, 33.16449
170.1024, 32.99215
170.5845, 35.25081
171.0666, 37.57135
171.5487, 37.58055
172.0309, 35.45840
172.5130, 33.35765
172.9951, 32.74155
173.4772, 33.11279
173.9593, 33.70785
174.4414, 34.82359
174.9236, 35.70533
175.4057, 35.08165
175.8878, 32.93084
176.3699, 31.09380
176.8520, 31.62317
177.3341, 33.60939
177.8163, 35.08232
178.2984, 34.87349
178.7805, 33.77251
179.2626, 32.78532
179.7447, 31.92257
180.2268, 31.38715
180.7090, 31.44400
181.1911, 32.01094
181.6732, 32.85585
182.1553, 34.48412
182.6374, 36.23851
183.1195, 36.37986
183.6017, 34.65845
184.0838, 32.58156
184.5659, 31.97390
185.0480, 32.59227
185.5301, 33.18839
186.0123, 33.02465
186.4944, 32.35849
186.9765, 31.99628
187.4586, 31.97860
187.9407, 32.19488
188.4228, 32.53936
188.9050, 33.00202
189.3871, 33.50883
189.8692, 33.88509
190.3513, 34.21935
190.8334, 35.27659
191.3155, 37.42154
191.7977, 39.42787
192.2798, 38.68301
192.7619, 35.19592
193.2440, 32.39455
193.7261, 32.52155
194.2082, 35.28936
194.6904, 37.36592
195.1725, 38.54794
195.6546, 39.06903
196.1367, 39.32207
196.6188, 39.32568
197.1009, 38.90789
197.5831, 37.70910
198.0652, 35.72400
198.5473, 34.28631
199.0294, 33.42415
199.5115, 33.19337
199.9937, 34.13334
200.4758, 36.50570
200.9579, 38.32682
201.4400, 38.01141
201.9221, 35.32310
202.4042, 33.95117
202.8864, 34.45677
203.3685, 36.02510
203.8506, 36.70348
204.3327, 36.30214
204.8148, 35.76408
205.2969, 35.39481
205.7791, 35.08270
206.2612, 35.86829
206.7433, 38.20986
207.2254, 41.37683
207.7075, 43.52531
208.1896, 44.53364
208.6718, 44.90001
209.1539, 44.82782
209.6360, 44.26396
210.1181, 43.53890
210.6002, 42.64331
211.0823, 41.61425
211.5645, 40.40574
212.0466, 38.70414
212.5287, 37.55671
213.0108, 37.89941
213.4929, 40.49115
213.9750, 41.51527
214.4572, 40.28136
214.9393, 37.55112
215.4214, 35.53083
215.9035, 34.42986
216.3856, 33.59709
216.8678, 32.65539
217.3499, 31.41740
217.8320, 30.65650
218.3141, 30.52894
218.7962, 30.86734
219.2783, 31.12004
219.7605, 31.10606
220.2426, 31.32900
220.7247, 32.37358
221.2068, 35.21904
221.6889, 35.92736
222.1710, 33.40957
222.6532, 28.86173
223.1353, 26.17550
223.6174, 26.06222
224.0995, 26.57232
224.5816, 26.69082
225.0637, 26.05051
225.5459, 26.03814
226.0280, 27.15371
226.5101, 28.82552
226.9922, 29.10176
227.4743, 26.96280
227.9564, 25.03736
228.4386, 24.73734
228.9207, 27.03687
229.4028, 28.56412
229.8849, 28.89833
230.3670, 28.52081
230.8492, 28.96073
231.3313, 31.20496
231.8134, 32.77113
232.2955, 32.23532
232.7776, 27.93401
233.2597, 25.50421
233.7419, 25.73545
234.2240, 27.64540
234.7061, 28.61639
235.1882, 28.02447
235.6703, 27.44654
236.1524, 27.64996
236.6346, 29.30959
237.1167, 30.12758
237.5988, 29.55243
238.0809, 28.33769
238.5630, 28.32200
239.0451, 30.21479
239.5273, 32.24440
240.0094, 33.72221
240.4915, 34.54259
240.9736, 35.05242
241.4557, 35.04698
241.9378, 34.82387
242.4200, 35.01385
242.9021, 35.79680
243.3842, 36.72303
243.8663, 37.75020
244.3484, 39.21124
244.8306, 39.66077
245.3127, 38.33636
245.7948, 36.39945
246.2769, 36.16999
246.7590, 38.82197
247.2411, 41.17768
247.7233, 41.92898
248.2054, 40.35691
248.6875, 39.94482
249.1696, 41.29473
249.6517, 43.40120
250.1338, 44.72986
250.6160, 45.44286
251.0981, 45.05576
251.5802, 43.02407
252.0623, 38.72673
252.5444, 35.99358
253.0265, 35.38025
253.5087, 35.89356
253.9908, 36.24594
254.4729, 36.61867
254.9550, 36.44145
255.4371, 35.20502
255.9192, 32.60906
256.4014, 31.66113
256.8835, 33.36612
257.3656, 35.72321
257.8477, 36.10307
258.3298, 33.32155
258.8120, 31.26038
259.2941, 31.24610
259.7762, 33.48194
260.2583, 34.17290
260.7404, 32.72363
261.2225, 30.47580
261.7047, 28.73114
262.1868, 27.45236
262.6689, 26.83035
263.1510, 27.27072
263.6331, 28.70980
264.1152, 28.68494
264.5974, 26.54047
265.0795, 23.94181
265.5616, 22.57044
266.0437, 22.73289
266.5258, 23.07688
267.0079, 23.54460
267.4901, 24.05227
267.9722, 23.68858
268.4543, 22.10633
268.9364, 20.34070
269.4185, 19.12244
269.9006, 18.40824
270.3828, 18.50820
270.8649, 19.80588
271.3470, 21.92647
271.8291, 23.05538
272.3112, 22.97679
272.7933, 22.49953
273.2755, 22.15618
273.7576, 21.95243
274.2397, 21.83324
274.7218, 21.81044
275.2039, 21.85858
275.6860, 21.89568
276.1682, 21.91143
276.6503, 21.95629
277.1324, 22.10532
277.6145, 22.37606
278.0966, 22.51803
278.5787, 22.53168
279.0609, 22.38721
279.5430, 21.82254
280.0251, 20.70921
280.5072, 19.99480
280.9893, 20.57060
281.4715, 22.42131
281.9536, 23.12843
282.4357, 22.25132
282.9178, 20.86065
283.3999, 21.03277
283.8820, 22.86762
284.3642, 24.45588
284.8463, 24.74305
285.3284, 23.84796
285.8105, 23.09595
286.2926, 22.44721
286.7747, 22.08024
287.2569, 22.50047
287.7390, 23.66633
288.2211, 24.47634
288.7032, 24.31862
289.1853, 23.41329
289.6674, 22.72691
290.1496, 22.27107
290.6317, 21.93259
291.1138, 21.51186
291.5959, 21.05303
292.0780, 20.89104
292.5602, 21.32689
293.0423, 22.06112
293.5244, 22.35858
294.0065, 22.21169
294.4886, 21.74822
294.9707, 20.64698
295.4529, 19.21962
295.9350, 18.65472
296.4171, 19.50757
296.8992, 21.14624
297.3813, 22.84414
297.8634, 24.53125
298.3456, 25.44695
298.8277, 24.35661
299.3098, 22.08837
299.7919, 20.51210
300.2740, 20.21276
300.7561, 20.41935
301.2383, 20.00943
301.7204, 19.16130
302.2025, 18.71988
302.6846, 19.71330
303.1667, 21.30451
303.6488, 22.24739
304.1310, 22.28816
304.6131, 21.83905
305.0952, 20.79203
305.5773, 19.50004
306.0594, 18.91889
306.5415, 20.15717
307.0237, 22.05650
307.5058, 23.56287
307.9879, 24.61195
308.4700, 24.94398
308.9521, 23.84672
309.4343, 21.94777
309.9164, 20.33338
310.3985, 19.27768
310.8806, 18.80342
311.3627, 19.07843
311.8448, 20.11642
312.3270, 21.29571
312.8091, 22.47904
313.2912, 23.52127
313.7733, 24.25102
314.2554, 24.88910
314.7375, 24.95731
315.2197, 23.72562
315.7018, 21.39052
316.1839, 19.67161
316.6660, 19.57040
317.1481, 20.29343
317.6302, 21.24227
318.1124, 23.05665
318.5945, 24.10588
319.0766, 23.26068
319.5587, 21.07386
320.0408, 19.45485
320.5229, 19.37630
321.0051, 19.76687
321.4872, 20.05457
321.9693, 20.13443
322.4514, 20.13404
322.9335, 20.04423
323.4156, 19.89377
323.8978, 19.73804
324.3799, 18.97137
324.8620, 18.73497
325.3441, 19.88533
325.8262, 23.54938
326.3083, 25.18152
326.7905, 22.39142
327.2726, 18.04085
327.7547, 15.68663
328.2368, 17.60800
328.7189, 19.25788
329.2010, 19.48403
329.6832, 18.06027
330.1653, 17.74658
330.6474, 19.74217
331.1295, 21.98368
331.6116, 22.75199
332.0938, 20.88457
332.5759, 19.39144
333.0580, 18.75440
333.5401, 18.84927
334.0222, 18.78021
334.5043, 18.41473
334.9865, 18.06698
335.4686, 18.00805
335.9507, 18.55729
336.4328, 18.41868
336.9149, 17.05703
337.3970, 15.18568
337.8792, 14.91243
338.3613, 16.78000
338.8434, 18.69317
339.3255, 19.60447
339.8076, 19.32387
340.2898, 19.65314
340.7719, 20.88738
341.2540, 22.23064
341.7361, 22.41832
342.2182, 21.34503
342.7003, 20.07537
343.1825, 18.75919
343.6646, 17.50005
344.1467, 17.30685
344.6288, 18.36869
345.1109, 19.53176
345.5930, 19.50742
346.0752, 18.40891
346.5573, 17.34149
347.0394, 16.38622
347.5215, 15.77627
348.0036, 16.47850
348.4857, 18.44642
348.9679, 19.93220
349.4500, 19.07162
349.9321, 16.67118
350.4142, 15.09481
350.8963, 14.78653
351.3784, 15.17201
351.8606, 15.82977
352.3427, 16.64190
352.8248, 17.18263
353.3069, 16.95831
353.7890, 16.41055
354.2711, 16.16027
354.7533, 16.28027
355.2354, 16.46727
355.7175, 16.40742
356.1996, 16.24258
356.6817, 16.22017
357.1638, 16.60148
357.6460, 17.05006
358.1281, 17.42672
358.6102, 17.70662
359.0923, 17.64869
359.5744, 16.62987
360.0565, 15.42022
360.5387, 14.78504
361.0208, 15.30152
361.5029, 15.97334
361.9850, 16.54733
362.4671, 16.96247
362.9492, 17.01641
363.4314, 15.93739
363.9135, 14.98810
364.3956, 14.98712
364.8777, 16.58759
365.3598, 17.83608
365.8419, 18.07797
366.3241, 17.77668
366.8062, 17.62275
367.2883, 18.13142
367.7704, 18.39260
368.2526, 17.85717
368.7347, 16.18578
369.2168, 15.69736
369.6989, 18.04213
370.1810, 20.57595
370.6631, 21.04602
371.1453, 17.27509
371.6274, 14.69621
372.1095, 14.32737
372.5916, 15.80330
373.0737, 16.76832
373.5558, 17.39305
374.0380, 17.26958
374.5201, 15.69633
375.0022, 11.49905
375.4843, 10.07605
375.9664, 12.70971
376.4485, 17.22838
376.9307, 19.15910
377.4128, 17.89304
377.8949, 16.56170
378.3770, 16.58154
378.8591, 17.85427
379.3412, 18.41356
379.8234, 18.21455
380.3055, 17.44459
380.7876, 15.88739
381.2697, 13.61940
381.7518, 12.32150
382.2339, 12.79705
382.7161, 14.23821
383.1982, 14.68873
383.6803, 14.17696
384.1624, 13.63457
384.6445, 13.79977
385.1266, 14.46218
385.6088, 15.19739
386.0909, 16.04803
386.5730, 16.62125
387.0551, 16.04956
387.5372, 14.75012
388.0193, 13.91172
388.5015, 14.51520
388.9836, 15.71251
389.4657, 16.73367
389.9478, 17.54325
390.4299, 17.97599
390.9120, 17.50272
391.3942, 16.71705
391.8763, 16.36525
392.3584, 17.44095
392.8405, 18.30710
393.3226, 17.69220
393.8047, 15.98428
394.2869, 14.95920
394.7690, 16.14072
395.2511, 17.65226
395.7332, 18.29941
396.2154, 17.49747
396.6975, 16.66327
397.1796, 15.94241
397.6617, 15.39245
398.1438, 15.11237
398.6259, 15.66715
399.1081, 15.95169
399.5902, 15.39729
400.0723, 13.74822
400.5544, 13.06505
401.0365, 14.31672
401.5186, 15.81468
402.0008, 16.08903
402.4829, 14.21245
402.9650, 12.87294
403.4471, 12.42927
403.9292, 12.74339
404.4113, 13.30748
404.8935, 14.27445
405.3756, 15.14803
405.8577, 15.72349
406.3398, 16.01443
406.8219, 15.75580
407.3040, 14.71409
407.7862, 13.56272
408.2683, 13.32695
408.7504, 14.02887
409.2325, 14.93483
409.7146, 16.11654
410.1967, 17.23821
410.6789, 16.98614
411.1610, 15.31562
411.6431, 13.45051
412.1252, 12.23361
412.6073, 11.65221
413.0894, 11.83403
413.5716, 13.05752
414.0537, 14.47709
414.5358, 15.04624
415.0179, 14.92935
415.5000, 14.68206
415.9821, 14.52417
416.4643, 14.43390
416.9464, 14.45787
417.4285, 14.61458
417.9106, 14.61930
418.3927, 13.80891
418.8748, 12.90032
419.3570, 12.75739
419.8391, 15.17054
420.3212, 16.95328
420.8033, 16.06169
421.2854, 13.13675
421.7675, 11.18747
422.2497, 11.65264
422.7318, 12.94289
423.2139, 14.37271
423.6960, 16.33882
424.1781, 17.39172
424.6602, 16.66434
425.1424, 15.11535
425.6245, 14.13654
426.1066, 13.81501
426.5887, 13.98803
427.0709, 14.78077
427.5530, 16.19264
428.0351, 17.47242
428.5172, 19.03754
428.9993, 19.91409
429.4814, 19.03418
429.9636, 15.59132
430.4457, 13.61547
430.9278, 13.81962
431.4099, 15.28424
431.8920, 16.12103
432.3741, 16.31385
432.8563, 16.04409
433.3384, 15.06002
433.8205, 13.55876
434.3026, 13.05090
434.7847, 13.62519
435.2668, 14.44795
435.7490, 14.56053
436.2311, 14.18789
436.7132, 14.22538
437.1953, 15.28453
437.6774, 16.32702
438.1595, 15.48210
438.6417, 13.21905
439.1238, 11.48091
439.6059, 11.92281
440.0880, 13.23800
440.5701, 14.00803
441.0522, 14.00486
441.5344, 14.00008
442.0165, 14.73782
442.4986, 15.67262
442.9807, 16.13122
443.4628, 15.06453
443.9449, 14.28990
444.4271, 14.94297
444.9092, 16.69942
445.3913, 17.68533
445.8734, 17.06654
446.3555, 15.83051
446.8376, 14.28873
447.3198, 11.53364
447.8019, 10.37835
448.2840, 12.04204
448.7661, 14.83405
449.2482, 16.35980
449.7303, 15.69935
450.2125, 15.35137
450.6946, 16.17080
451.1767, 17.99563
451.6588, 18.12982
452.1409, 15.81462
452.6230, 13.57194
453.1052, 13.64749
453.5873, 16.31618
454.0694, 17.48088
454.5515, 16.51648
455.0337, 14.57465
455.5158, 13.45803
455.9979, 13.12564
456.4800, 13.11704
456.9621, 13.24123
457.4442, 13.54908
457.9264, 14.46822
458.4085, 15.95677
458.8906, 16.93709
459.3727, 15.76151
459.8548, 13.67823
460.3369, 12.86324
460.8191, 14.25759
461.3012, 15.85853
461.7833, 16.12463
462.2654, 15.40650
462.7475, 14.43606
463.2296, 12.65292
463.7118, 11.41537
464.1939, 11.95985
464.6760, 14.38815
465.1581, 16.02660
465.6402, 15.40112
466.1223, 14.05937
466.6045, 13.09096
467.0866, 12.59965
467.5687, 12.54443
468.0508, 13.22673
468.5329, 14.31097
469.0150, 15.05713
469.4972, 15.28252
469.9793, 15.43653
470.4614, 15.67902
470.9435, 16.02480
471.4256, 16.15627
471.9077, 16.04499
472.3899, 15.77711
472.8720, 15.23352
473.3541, 14.32602
473.8362, 14.30548
474.3183, 15.65324
474.8004, 17.47795
475.2826, 17.95728
475.7647, 17.16468
476.2468, 16.13944
476.7289, 15.28366
477.2110, 14.59084
477.6931, 14.13357
478.1753, 13.90791
478.6574, 13.64666
479.1395, 12.88864
479.6216, 12.02133
480.1037, 11.64065
480.5858, 12.03388
481.0680, 12.69536
481.5501, 13.48204
482.0322, 14.27623
482.5143, 14.82325
482.9964, 14.89647
483.4786, 14.81030
483.9607, 14.72360
484.4428, 14.65703
484.9249, 14.44147
485.4070, 13.70232
485.8892, 13.01835
486.3713, 12.83026
486.8534, 13.99414
487.3355, 14.35698
487.8176, 13.28121
488.2997, 11.57211
488.7819, 11.00422
489.2640, 12.06378
489.7461, 13.16763
490.2282, 13.77030
490.7103, 13.91653
491.1924, 14.40741
491.6746, 15.38403
492.1567, 16.13822
492.6388, 15.95977
493.1209, 14.93042
493.6030, 13.68964
494.0851, 12.14877
494.5673, 10.86649
495.0494, 10.88242
495.5315, 11.91502
496.0136, 12.94617
496.4957, 13.67084
496.9778, 14.04898
497.4600, 13.81497
497.9421, 13.05397
498.4242, 12.56836
498.9063, 13.21143
499.3884, 14.12551
499.8705, 14.50023
500.3527, 13.87271
500.8348, 13.45728
501.3169, 13.96581
501.7990, 14.87057
502.2811, 15.43146
502.7632, 15.47116
503.2454, 15.19702
503.7275, 14.42571
504.2096, 13.24204
504.6917, 12.53077
505.1738, 12.38745
505.6559, 12.59269
506.1381, 13.21478
506.6202, 14.59351
507.1023, 14.80867
507.5844, 13.37087
508.0665, 11.65028
508.5486, 11.85437
509.0308, 14.04444
509.5129, 15.47244
509.9950, 15.16621
510.4771, 13.93553
510.9592, 13.39384
511.4413, 13.51790
511.9235, 14.03794
512.4056, 15.33130
512.8877, 16.70645
513.3698, 17.00393
513.8519, 16.08307
514.3340, 14.94096
514.8162, 14.11656
515.2983, 13.55881
515.7804, 13.18806
516.2625, 12.66731
516.7446, 12.73129
517.2267, 14.61063
517.7089, 17.32619
518.1910, 18.44289
518.6731, 15.52772
519.1552, 12.72670
519.6373, 11.68164
520.1194, 12.58940
520.6016, 13.05554
521.0837, 12.73255
521.5658, 12.35001
522.0479, 12.54595
522.5300, 13.65085
523.0121, 14.04814
523.4943, 13.40514
523.9764, 12.31099
524.4585, 11.75198
524.9406, 11.74048
525.4227, 12.08484
525.9048, 12.88710
526.3870, 13.91517
526.8691, 14.68053
527.3513, 15.18086
527.8334, 15.35480
528.3155, 14.99667
528.7976, 14.34724
529.2797, 13.70061
529.7618, 13.06120
530.2440, 12.60531
530.7261, 12.44217
531.2082, 12.54466
531.6903, 12.88027
532.1724, 13.63531
532.6545, 14.41511
533.1367, 15.30357
533.6188, 16.15987
534.1009, 16.52022
534.5830, 15.62533
535.0651, 14.88817
535.5472, 14.91672
536.0294, 15.90468
536.5115, 16.25845
536.9936, 15.87356
537.4757, 15.00204
537.9578, 13.52678
538.4399, 11.12595
538.9221, 10.34702
539.4042, 11.98857
539.8863, 14.40420
540.3684, 14.17735
540.8505, 11.57867
541.3326, 9.889673
541.8148, 11.10962
542.2969, 13.65921
542.7790, 14.77221
543.2611, 14.56615
543.7432, 14.03905
544.2253, 13.88905
544.7075, 13.74948
545.1896, 13.04067
545.6717, 11.48882
546.1538, 10.49195
546.6359, 11.26168
547.1180, 12.72147
547.6002, 13.71869
548.0823, 13.54634
548.5644, 13.39814
549.0465, 13.40818
549.5286, 13.59302
550.0107, 14.03944
550.4929, 15.17624
550.9750, 15.91409
551.4571, 15.74053
551.9392, 14.64742
552.4213, 14.20582
552.9034, 14.63653
553.3856, 15.02050
553.8677, 14.25778
554.3498, 12.51618
554.8319, 12.07167
555.3140, 13.41936
555.7961, 15.09739
556.2783, 14.89169
556.7604, 13.43280
557.2425, 12.53520
557.7246, 13.37622
558.2067, 14.53562
558.6888, 14.52886
559.1710, 13.64796
559.6531, 12.87611
560.1352, 12.52736
560.6173, 12.56710
561.0994, 13.08029
561.5815, 14.12891
562.0637, 15.13177
562.5458, 16.31809
563.0279, 17.18637
563.5100, 17.39792
563.9921, 16.76690
564.4742, 15.68837
564.9564, 13.59723
565.4385, 11.51143
565.9206, 11.55397
566.4027, 14.29896
566.8848, 16.25180
567.3669, 16.20062
567.8491, 14.75244
568.3312, 13.65444
568.8133, 12.91070
569.2954, 12.57201
569.7775, 13.20237
570.2596, 14.11596
570.7418, 13.71806
571.2239, 11.86354
571.7060, 10.35688
572.1881, 10.84645
572.6702, 12.30140
573.1523, 13.65708
573.6345, 14.88393
574.1166, 15.52808
574.5987, 14.90583
575.0808, 13.68652
575.5629, 12.97187
576.0450, 13.77869
576.5272, 14.15595
577.0093, 13.36821
577.4914, 11.70981
577.9735, 11.23227
578.4556, 12.48266
578.9377, 13.79266
579.4199, 14.31190
579.9020, 14.01769
580.3841, 13.92580
580.8662, 14.10898
581.3483, 14.11381
581.8304, 13.15334
582.3126, 11.58969
582.7947, 10.69496
583.2768, 10.75049
583.7589, 11.39026
584.2410, 12.81029
584.7231, 14.48131
585.2053, 15.35556
585.6874, 14.33504
586.1696, 13.00721
586.6517, 12.02751
587.1338, 11.41050
587.6159, 11.17254
588.0980, 11.47666
588.5801, 12.02039
589.0623, 12.74598
589.5444, 13.69642
590.0265, 14.52623
590.5086, 15.38800
590.9907, 15.93455
591.4728, 15.88237
591.9550, 15.19429
592.4371, 13.95297
592.9192, 11.85511
593.4013, 9.966404
593.8834, 10.36228
594.3655, 12.63762
594.8477, 14.17080
595.3298, 13.69620
595.8119, 12.58729
596.2940, 12.77806
596.7761, 13.93292
597.2582, 14.93043
597.7404, 15.10923
598.2225, 14.97101
598.7046, 14.93743
599.1867, 15.02360
599.6688, 14.69519
600.1509, 12.99483
600.6331, 11.40314
601.1152, 10.94855
601.5973, 12.32806
602.0794, 13.20162
602.5615, 13.19886
603.0436, 13.03774
603.5258, 13.80624
604.0079, 15.91526
604.4900, 16.56826
604.9721, 14.87147
605.4542, 12.14995
605.9363, 11.07894
606.4185, 11.52488
606.9006, 12.23825
607.3827, 12.82996
607.8648, 13.24441
608.3469, 13.25750
608.8290, 12.94540
609.3112, 12.73568
609.7933, 12.88741
610.2754, 13.23310
610.7575, 13.71594
611.2396, 14.35399
611.7217, 14.84871
612.2039, 15.05478
612.6860, 15.11785
613.1681, 15.13707
613.6502, 14.94698
614.1323, 15.09016
614.6144, 16.10205
615.0966, 16.98228
615.5787, 15.78301
616.0608, 11.95438
616.5429, 9.745907
617.0250, 10.60214
617.5071, 13.12770
617.9893, 14.16483
618.4714, 13.87571
618.9535, 13.50209
619.4356, 14.08614
619.9177, 14.74095
620.3998, 14.08561
620.8820, 12.25490
621.3641, 10.57673
621.8462, 9.101768
622.3283, 8.520184
622.8104, 9.809205
623.2925, 13.90901
623.7747, 16.51861
624.2568, 15.67923
624.7389, 13.77102
625.2210, 12.69593
625.7031, 12.85049
626.1852, 12.97799
626.6674, 13.01434
627.1495, 12.99294
627.6316, 12.90648
628.1137, 12.74375
628.5958, 12.82326
629.0779, 13.36098
629.5601, 14.05103
630.0422, 14.22489
630.5243, 13.97838
631.0064, 13.77148
631.4885, 14.05828
631.9706, 14.36816
632.4528, 14.17809
632.9349, 13.52000
633.4170, 12.90930
633.8991, 12.64181
634.3812, 12.43888
634.8633, 12.11708
635.3455, 11.60092
635.8276, 11.14355
636.3097, 10.53543
636.7918, 10.18516
637.2739, 10.58232
637.7560, 12.05105
638.2382, 12.89441
638.7203, 12.83466
639.2024, 12.37097
639.6845, 12.08206
640.1666, 12.00232
640.6487, 12.51284
641.1309, 14.19082
641.6130, 15.86314
642.0951, 15.46782
642.5772, 13.65871
643.0594, 12.29314
643.5415, 13.30015
644.0236, 14.12285
644.5057, 12.27950
644.9879, 8.213062
645.4700, 6.448307
645.9521, 10.42834
646.4342, 14.76803
646.9163, 17.26007
647.3984, 17.79645
647.8806, 17.15858
648.3627, 14.75290
648.8448, 12.27718
649.3269, 11.43940
649.8090, 12.23501
650.2911, 11.41850
650.7733, 8.330464
651.2554, 5.418027
651.7375, 6.225332
652.2196, 9.445482
652.7017, 11.82865
653.1838, 12.15819
653.6660, 12.01314
654.1481, 12.53894
654.6302, 13.44663
655.1123, 14.23458
655.5944, 14.95472
656.0765, 15.29008
656.5587, 14.95209
657.0408, 14.09089
657.5229, 13.38844
658.0050, 12.79707
658.4871, 12.48688
658.9692, 12.66907
659.4514, 13.25833
659.9335, 13.10013
660.4156, 12.06766
660.8977, 11.33023
661.3798, 12.24571
661.8619, 14.05887
662.3441, 14.64102
662.8262, 13.84719
663.3083, 12.73803
663.7904, 11.81737
664.2725, 11.20162
664.7546, 11.11280
665.2368, 11.86376
665.7189, 12.39931
666.2010, 12.19581
666.6831, 11.67383
667.1652, 11.29011
667.6473, 10.75482
668.1295, 10.93320
668.6116, 12.32211
669.0937, 14.13732
669.5758, 14.52479
670.0579, 13.25050
670.5400, 12.96747
671.0222, 15.02484
671.5043, 17.92974
671.9864, 18.48258
672.4685, 17.01585
672.9506, 15.17308
673.4327, 13.39632
673.9149, 12.01226
674.3970, 11.32699
674.8791, 11.31409
675.3612, 11.73907
675.8433, 13.15947
676.3254, 14.44714
676.8076, 14.89340
677.2897, 14.28652
677.7718, 13.97560
678.2539, 14.02656
678.7360, 14.28503
679.2181, 14.69377
679.7003, 15.26869
680.1824, 15.81190
680.6645, 16.32897
681.1466, 16.75685
681.6287, 17.12573
682.1108, 17.35195
682.5930, 17.16179
683.0751, 16.44369
683.5572, 15.49704
684.0393, 14.25761
684.5214, 13.03531
685.0035, 12.26461
685.4857, 12.17633
685.9678, 12.44697
686.4499, 13.53127
686.9320, 14.84844
687.4141, 15.06163
687.8962, 13.23608
688.3784, 12.09941
688.8605, 12.44610
689.3426, 13.82221
689.8247, 14.68319
690.3068, 15.02016
690.7889, 15.27920
691.2711, 15.95049
691.7532, 16.56856
692.2353, 15.81940
692.7174, 13.94842
693.1995, 12.45783
693.6816, 12.77502
694.1638, 13.44466
694.6459, 13.14653
695.1280, 11.72119
695.6101, 11.02221
696.0922, 12.33678
696.5743, 13.80583
697.0565, 14.33229
697.5386, 13.53199
698.0207, 13.57786
698.5028, 14.92690
698.9849, 16.15408
699.4670, 15.43390
699.9492, 13.04932
700.4313, 12.21781
700.9135, 13.52852
701.3956, 15.17802
701.8777, 15.13158
702.3598, 14.09906
702.8419, 13.23004
703.3240, 12.66882
703.8062, 12.67917
704.2883, 14.32497
704.7704, 16.36314
705.2525, 16.94955
705.7346, 13.82136
706.2167, 11.76374
706.6989, 11.62138
707.1810, 12.64593
707.6631, 13.15745
708.1452, 13.03816
708.6273, 13.09449
709.1094, 13.72122
709.5916, 14.52289
710.0737, 14.34650
710.5558, 13.41025
711.0379, 12.83449
711.5200, 14.02658
712.0021, 15.23849
712.4843, 14.38943
712.9664, 11.94742
713.4485, 10.45332
713.9306, 11.60761
714.4127, 13.25330
714.8948, 14.47085
715.3770, 15.24613
715.8591, 16.05395
716.3412, 17.11293
716.8233, 17.77298
717.3054, 17.55349
717.7875, 16.48687
718.2697, 15.29243
718.7518, 13.91818
719.2339, 12.98805
719.7160, 13.24204
720.1981, 14.21075
720.6802, 15.26513
721.1624, 16.34702
721.6445, 17.18432
722.1266, 17.80558
722.6087, 17.98911
723.0908, 17.43932
723.5729, 15.41953
724.0551, 14.11123
724.5372, 13.75320
725.0193, 13.99780
725.5014, 14.70532
725.9835, 16.07562
726.4656, 16.65749
726.9478, 16.23416
727.4299, 15.17479
727.9120, 13.34999
728.3941, 11.25980
728.8762, 10.77833
729.3583, 13.09225
729.8405, 15.70547
730.3226, 16.58537
730.8047, 16.34747
731.2868, 15.98331
731.7689, 15.81232
732.2510, 15.53029
732.7332, 14.92301
733.2153, 14.19223
733.6974, 13.70773
734.1795, 13.43816
734.6616, 13.55309
735.1437, 14.22661
735.6259, 15.19138
736.1080, 15.85596
736.5901, 16.20864
737.0722, 16.13277
737.5543, 15.02727
738.0364, 13.88148
738.5186, 13.99126
739.0007, 15.08932
739.4828, 16.22107
739.9649, 17.44573
740.4470, 18.16187
740.9291, 17.81300
741.4113, 16.48930
741.8934, 15.68004
742.3755, 15.55077
742.8576, 15.64187
743.3397, 15.78620
743.8218, 15.99004
744.3040, 16.37878
744.7861, 16.95721
745.2682, 17.41144
745.7503, 17.76683
746.2324, 17.75534
746.7145, 16.57177
747.1967, 14.30076
747.6788, 12.55352
748.1609, 12.58331
748.6430, 13.16167
749.1251, 13.37636
749.6072, 12.92740
750.0894, 13.43054
750.5715, 15.79125
751.0536, 17.97047
751.5357, 18.46662
752.0178, 17.09222
752.4999, 16.43540
752.9821, 16.56375
753.4642, 16.95990
753.9463, 17.39508
754.4284, 17.68414
754.9105, 17.41431
755.3926, 16.50474
755.8748, 15.31216
756.3569, 13.49048
756.8390, 11.82249
757.3211, 10.96520
757.8032, 11.06370
758.2853, 12.05402
758.7675, 14.82884
759.2496, 17.54025
759.7318, 18.28825
760.2139, 16.72362
760.6960, 15.84405
761.1781, 15.95278
761.6602, 16.55501
762.1423, 17.44160
762.6245, 18.32061
763.1066, 18.30716
763.5887, 16.89214
764.0708, 15.65921
764.5529, 16.29609
765.0350, 17.50826
765.5172, 17.76010
765.9993, 15.27832
766.4814, 13.78739
766.9635, 13.93514
767.4456, 14.80779
767.9277, 15.17451
768.4099, 14.91521
768.8920, 15.01811
769.3741, 15.73913
769.8562, 16.62726
770.3383, 17.07326
770.8204, 17.15472
771.3026, 17.12496
771.7847, 17.26906
772.2668, 16.93276
772.7489, 14.71624
773.2310, 11.97374
773.7131, 10.85366
774.1953, 13.73534
774.6774, 15.76032
775.1595, 16.09138
775.6416, 15.48750
776.1237, 15.36004
776.6058, 15.79859
777.0880, 15.97892
777.5701, 15.58794
778.0522, 15.06010
778.5343, 15.22712
779.0164, 15.87396
779.4985, 16.39211
779.9807, 16.69938
780.4628, 16.59496
780.9449, 15.30737
781.4270, 13.59043
781.9091, 12.98582
782.3912, 15.17633
782.8734, 16.77424
783.3555, 17.16758
783.8376, 16.75430
784.3197, 16.52994
784.8018, 16.52729
785.2839, 16.24819
785.7661, 15.36435
786.2482, 14.37753
786.7303, 14.03711
787.2124, 14.29170
787.6945, 14.98398
788.1766, 16.60708
788.6588, 18.08227
789.1409, 19.17935
789.6230, 19.72640
790.1051, 19.17900
790.5872, 16.17628
791.0693, 14.21593
791.5515, 14.36258
792.0336, 15.81200
792.5157, 16.09625
792.9978, 15.20794
793.4799, 14.76967
793.9620, 15.70394
794.4442, 17.03037
794.9263, 17.11756
795.4084, 16.39296
795.8905, 16.05052
796.3726, 17.55979
796.8547, 18.58506
797.3369, 17.43978
797.8190, 14.95913
798.3011, 14.13396
798.7832, 16.02493
799.2653, 17.50797
799.7474, 17.70712
800.2296, 17.09522
800.7117, 17.02732
801.1938, 17.44686
801.6759, 17.73703
802.1580, 17.60556
802.6401, 17.25282
803.1223, 16.58468
803.6044, 15.86920
804.0865, 15.81013
804.5686, 17.81206
805.0507, 19.24539
805.5328, 18.74877
806.0150, 17.10349
806.4971, 16.36017
806.9792, 16.80355
807.4613, 17.23576
807.9434, 17.31513
808.4255, 17.19802
808.9077, 17.22198
809.3898, 17.36842
809.8719, 17.55822
810.3540, 17.84324
810.8361, 18.06531
811.3182, 18.21929
811.8004, 18.20929
812.2825, 17.81411
812.7646, 16.43826
813.2467, 15.32099
813.7288, 14.63045
814.2109, 14.36178
814.6931, 14.63643
815.1752, 15.53795
815.6573, 16.21770
816.1394, 16.36656
816.6215, 16.28403
817.1037, 16.55008
817.5858, 16.99473
818.0679, 17.17334
818.5500, 16.53875
819.0322, 15.98448
819.5143, 15.91693
819.9964, 16.24388
820.4785, 16.84054
820.9606, 18.09392
821.4427, 18.84824
821.9249, 18.91087
822.4070, 18.40303
822.8891, 17.17760
823.3712, 15.37333
823.8533, 14.66788
824.3354, 15.97600
824.8176, 17.61871
825.2997, 17.30127
825.7818, 16.06264
826.2639, 15.68848
826.7460, 18.06362
827.2281, 19.79931
827.7103, 19.87098
828.1924, 19.01693
828.6745, 17.99852
829.1566, 16.58554
829.6387, 16.12055
830.1208, 17.10246
830.6030, 18.39047
831.0851, 17.90512
831.5672, 16.29211
832.0493, 15.39383
832.5314, 15.94558
833.0135, 16.67549
833.4957, 16.66839
833.9778, 16.36343
834.4599, 16.27565
834.9420, 16.67607
835.4241, 17.11222
835.9063, 17.85213
836.3884, 18.30290
836.8705, 17.35643
837.3526, 15.08011
837.8347, 14.12723
838.3168, 14.98150
838.7990, 16.26268
839.2811, 16.43904
839.7632, 16.17017
840.2453, 16.53148
840.7274, 18.14030
841.2095, 18.97167
841.6917, 17.05820
842.1738, 15.02614
842.6559, 15.13095
843.1380, 18.48413
843.6201, 19.77035
844.1022, 18.51012
844.5844, 16.83386
845.0665, 17.01495
845.5486, 18.33061
846.0307, 18.54284
846.5128, 17.42134
846.9949, 16.72550
847.4771, 18.29021
847.9592, 20.27887
848.4413, 21.30287
848.9234, 21.06761
849.4055, 20.47545
849.8876, 19.32903
850.3698, 18.22182
850.8519, 17.53662
851.3340, 17.23619
851.8161, 16.92646
852.2982, 16.60677
852.7803, 16.20954
853.2625, 15.25359
853.7446, 14.48116
854.2267, 14.94141
854.7088, 16.54392
855.1909, 17.80252
855.6730, 18.10830
856.1552, 18.07317
856.6373, 17.83229
857.1194, 17.43186
857.6015, 17.39313
858.0836, 17.83245
858.5657, 17.71948
859.0479, 16.08187
859.5300, 13.91223
860.0121, 13.28124
860.4942, 13.83804
860.9763, 14.37130
861.4584, 14.51597
861.9406, 14.24444
862.4227, 12.99281
862.9048, 11.27974
863.3869, 10.88777
863.8690, 12.34589
864.3511, 13.86334
864.8333, 15.18751
865.3154, 16.15096
865.7975, 16.28791
866.2796, 15.74908
866.7617, 15.16298
867.2438, 14.56008
867.7260, 14.29512
868.2081, 14.74502
868.6902, 15.67540
869.1723, 16.71999
869.6544, 18.78666
870.1365, 19.44168
870.6187, 17.79083
871.1008, 15.55771
871.5829, 15.28000
872.0650, 16.85396
872.5471, 18.18462
873.0292, 18.95643
873.5114, 19.43818
873.9935, 20.06199
874.4756, 20.49014
874.9577, 20.15189
875.4399, 18.55444
875.9220, 17.42725
876.4041, 17.63499
876.8862, 18.10024
877.3683, 18.17156
877.8505, 17.80635
878.3326, 17.16232
878.8147, 16.14000
879.2968, 15.56661
879.7789, 16.74041
880.2610, 18.60012
880.7432, 19.41487
881.2253, 19.08811
881.7074, 18.41021
882.1895, 17.41324
882.6716, 16.47399
883.1537, 15.90717
883.6359, 15.67919
884.1180, 14.88694
884.6001, 13.25069
885.0822, 12.23043
885.5643, 12.89326
886.0464, 14.44599
886.5286, 14.83391
887.0107, 14.34765
887.4928, 14.18591
887.9749, 15.63243
888.4570, 16.90519
888.9391, 16.94473
889.4213, 16.06744
889.9034, 15.31163
890.3855, 14.44182
890.8676, 14.48554
891.3497, 16.15365
891.8318, 18.11454
892.3140, 17.40417
892.7961, 14.71717
893.2782, 12.80487
893.7603, 12.65966
894.2424, 13.13872
894.7245, 13.83236
895.2067, 14.47652
895.6888, 14.74191
896.1709, 14.07201
896.6530, 13.87403
897.1351, 14.36610
897.6172, 14.99080
898.0994, 15.07236
898.5815, 14.71397
899.0636, 14.72792
899.5457, 15.20915
900.0278, 15.68773
900.5099, 15.63042
900.9921, 15.49173
901.4742, 15.92814
901.9563, 17.19845
902.4384, 17.33037
902.9205, 15.36991
903.4026, 13.35286
903.8848, 12.06362
904.3669, 11.52512
904.8490, 12.27265
905.3311, 14.23912
905.8132, 15.70617
906.2953, 14.92458
906.7775, 13.69508
907.2596, 14.00923
907.7417, 15.44835
908.2238, 16.47158
908.7059, 16.98262
909.1880, 16.47715
909.6702, 14.21454
910.1523, 11.28287
910.6344, 10.63297
911.1165, 12.20565
911.5986, 13.05366
912.0807, 12.10347
912.5629, 10.80114
913.0450, 10.84975
913.5271, 11.61325
914.0092, 12.10120
914.4913, 11.44710
914.9734, 11.64167
915.4556, 14.01732
915.9377, 16.36075
916.4198, 16.36949
916.9019, 13.85755
917.3840, 12.38365
917.8661, 12.19353
918.3483, 12.40896
918.8304, 12.17540
919.3125, 11.91283
919.7946, 12.37239
920.2767, 13.63300
920.7589, 14.26975
921.2410, 12.94836
921.7231, 11.86652
922.2052, 11.98284
922.6873, 13.14330
923.1694, 14.20989
923.6516, 15.19392
924.1337, 15.35404
924.6158, 13.47978
925.0979, 11.30555
925.5800, 11.48140
926.0621, 13.19955
926.5443, 14.44674
927.0264, 14.33334
927.5085, 13.89644
927.9906, 13.25105
928.4727, 12.49577
928.9548, 11.58786
929.4370, 10.48850
929.9191, 10.58318
930.4012, 12.36718
930.8833, 14.27614
931.3654, 14.33370
931.8475, 13.51456
932.3297, 13.27256
932.8118, 14.23281
933.2939, 14.47683
933.7761, 12.68232
934.2582, 10.92032
934.7403, 10.52094
935.2224, 11.52121
935.7045, 12.02912
936.1866, 12.02823
936.6688, 12.10795
937.1509, 13.07483
937.6330, 14.07810
938.1151, 13.81949
938.5972, 12.58907
939.0793, 11.98575
939.5615, 13.48401
940.0436, 14.43622
940.5257, 14.06229
941.0078, 12.78956
941.4899, 11.57415
941.9720, 10.43200
942.4542, 9.823873
942.9363, 9.940570
943.4184, 10.47781
943.9005, 11.34614
944.3826, 12.32585
944.8647, 13.16295
945.3469, 14.03021
945.8290, 14.18686
946.3111, 13.00592
946.7932, 11.87626
947.2753, 12.21064
947.7574, 13.91857
948.2396, 15.10565
948.7217, 15.71343
949.2038, 15.56732
949.6859, 13.59923
950.1680, 11.51384
950.6501, 10.97328
951.1323, 11.98732
951.6144, 12.96290
952.0965, 13.97481
952.5786, 14.41504
953.0607, 13.88268
953.5428, 12.79327
954.0250, 12.38861
954.5071, 12.58690
954.9892, 12.97049
955.4713, 13.73458
955.9534, 14.01972
956.4355, 12.18433
956.9177, 9.831176
957.3998, 9.392894
957.8819, 13.30544
958.3640, 14.82562
958.8461, 13.02488
959.3282, 10.41616
959.8104, 9.564073
960.2925, 10.13065
960.7746, 11.24132
961.2567, 12.82014
961.7388, 14.20251
962.2209, 15.30469
962.7031, 15.79160
963.1852, 15.01220
963.6673, 13.08326
964.1494, 12.32960
964.6315, 13.21992
965.1136, 13.64003
965.5958, 12.50952
966.0779, 10.73183
966.5600, 10.15526
967.0421, 10.48018
967.5242, 10.91565
968.0063, 11.26640
968.4885, 11.51480
968.9706, 11.44648
969.4527, 11.39209
969.9348, 11.91187
970.4169, 13.33408
970.8990, 13.51236
971.3812, 12.15206
971.8633, 10.53015
972.3454, 9.847683
972.8275, 9.761376
973.3096, 9.710178
973.7917, 9.650997
974.2739, 10.06258
974.7560, 11.73320
975.2381, 13.24383
975.7202, 14.15530
976.2023, 14.46832
976.6844, 13.95336
977.1666, 12.62160
977.6487, 11.78155
978.1308, 12.35251
978.6129, 13.03727
979.0950, 12.18223
979.5771, 10.58189
980.0593, 9.536779
980.5414, 9.736901
981.0235, 9.970953
981.5056, 9.954251
981.9877, 10.28856
982.4698, 12.18598
982.9520, 15.17668
983.4341, 16.15738
983.9162, 14.94235
984.3983, 12.89776
984.8804, 9.511176
985.3625, 6.900142
985.8447, 7.168909
986.3268, 10.23428
986.8089, 12.25268
987.2910, 13.03518
987.7731, 13.17891
988.2552, 12.60962
988.7374, 11.87336
989.2195, 12.35593
989.7016, 13.57795
990.1837, 14.28402
990.6658, 13.90081
991.1479, 13.24476
991.6301, 12.05174
992.1122, 11.16327
992.5944, 11.61875
993.0765, 13.92405
993.5586, 14.47619
994.0407, 13.02555
994.5228, 11.55116
995.0049, 12.01121
995.4871, 13.20996
995.9692, 13.50440
996.4513, 12.96616
996.9334, 12.61949
997.4155, 13.22743
997.8976, 13.47331
998.3798, 12.79332
998.8619, 11.73741
999.3440, 12.05050
999.8261, 13.48128
1000.308, 13.28827
1000.790, 10.07017
1001.272, 7.392797
1001.755, 9.491903
1002.237, 13.00822
1002.719, 14.09063
1003.201, 10.99765
1003.683, 9.718699
1004.165, 10.84755
1004.647, 12.26814
1005.129, 12.37966
1005.612, 13.34333
1006.094, 12.43289
1006.576, 14.05064
1007.058, 15.07353
1007.540, 14.76303
1008.022, 13.62805
1008.504, 10.83943
1008.986, 7.743065
1009.468, 6.829913
1009.951, 8.410448
1010.433, 9.740653
1010.915, 10.41385
1011.397, 10.75353
1011.879, 10.80058
1012.361, 10.89968
1012.843, 11.68999
1013.325, 13.41872
1013.807, 14.37676
1014.290, 13.94527
1014.772, 13.19877
1015.254, 12.44880
1015.736, 11.78927
1016.218, 11.75265
1016.700, 12.21454
1017.182, 12.43749
1017.664, 11.70226
1018.147, 11.13576
1018.629, 11.53039
1019.111, 12.52683
1019.593, 13.67989
1020.075, 15.40551
1020.557, 15.73511
1021.039, 14.25786
1021.521, 12.69265
1022.003, 13.26892
1022.486, 14.63496
1022.968, 13.96623
1023.450, 11.34290
1023.932, 9.506660
1024.414, 10.26639
1024.896, 11.15534
1025.378, 11.31887
1025.860, 11.05817
1026.343, 11.15511
1026.825, 11.60901
1027.307, 12.62058
1027.789, 14.57564
1028.271, 16.02474
1028.753, 14.66008
1029.235, 12.63439
1029.717, 12.64571
1030.199, 16.14933
1030.682, 17.52258
1031.164, 16.18525
1031.646, 14.35960
1032.128, 13.20982
1032.610, 12.65163
1033.092, 12.68896
1033.574, 13.17204
1034.056, 13.54961
1034.539, 13.14783
1035.021, 13.13561
1035.503, 14.59375
1035.985, 16.17066
1036.467, 15.77819
1036.949, 13.35349
1037.431, 11.66856
1037.913, 11.07822
1038.396, 10.80259
1038.878, 9.982380
1039.360, 9.255473
1039.842, 9.241153
1040.324, 10.00553
1040.806, 11.07754
1041.288, 12.79285
1041.770, 13.94945
1042.252, 14.13008
1042.734, 13.61049
1043.217, 12.71418
1043.699, 11.60074
1044.181, 10.59821
1044.663, 9.466639
1045.145, 9.248227
1045.627, 11.25579
1046.109, 13.59122
1046.591, 14.87745
1047.074, 15.08661
1047.556, 14.86877
1048.038, 14.22106
1048.520, 13.50173
1049.002, 12.48443
1049.484, 11.91510
1049.966, 13.21595
1050.448, 15.47528
1050.931, 15.98699
1051.413, 13.41828
1051.895, 11.62476
1052.377, 11.17524
1052.859, 11.23275
1053.341, 10.55943
1053.823, 9.654659
1054.305, 9.790780
1054.787, 11.11699
1055.270, 12.34079
1055.752, 13.14293
1056.234, 13.40744
1056.716, 13.08146
1057.198, 12.22989
1057.680, 10.84104
1058.162, 8.985038
1058.644, 7.687139
1059.126, 7.117202
1059.609, 7.629707
1060.091, 10.83439
1060.573, 14.57031
1061.055, 16.16579
1061.537, 14.71626
1062.019, 13.86299
1062.501, 13.67950
1062.983, 13.82509
1063.466, 14.40346
1063.948, 14.98739
1064.430, 14.56994
1064.912, 13.46355
1065.394, 12.60198
1065.876, 12.53400
1066.358, 12.51213
1066.840, 12.48487
1067.323, 12.35390
1067.805, 11.92030
1068.287, 11.24062
1068.769, 10.68763
1069.251, 10.29129
1069.733, 10.19515
1070.215, 10.90933
1070.697, 11.58847
1071.179, 11.57564
1071.661, 11.02216
1072.144, 10.59180
1072.626, 10.31153
1073.108, 9.931489
1073.590, 9.278615
1074.072, 8.846502
1074.554, 9.521113
1075.036, 10.67434
1075.518, 11.45423
1076.001, 11.60141
1076.483, 11.89128
1076.965, 12.46025
1077.447, 13.01747
1077.929, 13.44062
1078.411, 13.72322
1078.893, 13.89003
1079.375, 13.90367
1079.858, 13.63457
1080.340, 12.76586
1080.822, 11.97684
1081.304, 11.47189
1081.786, 11.17662
1082.268, 11.08376
1082.750, 11.19798
1083.232, 11.24132
1083.714, 11.20999
1084.197, 11.31255
1084.679, 12.14858
1085.161, 12.76190
1085.643, 12.02605
1086.125, 10.47369
1086.607, 9.851212
1087.089, 10.35284
1087.571, 11.40413
1088.054, 13.15894
1088.536, 14.53540
1089.018, 13.61110
1089.500, 11.81480
1089.982, 11.53007
1090.464, 13.04074
1090.946, 13.50283
1091.428, 11.46494
1091.911, 9.787063
1092.393, 9.423018
1092.875, 9.895514
1093.357, 10.13200
1093.839, 10.23447
1094.321, 10.54485
1094.803, 11.20718
1095.285, 11.92713
1095.767, 12.72469
1096.250, 13.38150
1096.732, 13.85129
1097.214, 14.10732
1097.696, 13.37759
1098.178, 11.72256
1098.660, 10.46247
1099.142, 10.66527
1099.624, 11.04369
1100.106, 10.14198
1100.589, 8.972609
1101.071, 9.298862
1101.553, 12.02740
1102.035, 13.24039
1102.517, 12.66344
1102.999, 11.71990
1103.481, 11.67817
1103.963, 11.92771
1104.446, 11.57225
1104.928, 10.76015
1105.410, 10.20759
1105.892, 10.16588
1106.374, 10.30017
1106.856, 10.72225
1107.338, 11.00882
1107.820, 10.29267
1108.302, 9.060343
1108.785, 8.390425
1109.267, 8.415822
1109.749, 9.009830
1110.231, 10.89413
1110.713, 12.44927
1111.195, 13.18133
1111.677, 13.14843
1112.159, 12.06322
1112.641, 10.20926
1113.124, 9.555564
1113.606, 10.91747
1114.088, 12.12696
1114.570, 11.52792
1115.052, 10.33085
1115.534, 9.375657
1116.016, 8.692585
1116.498, 8.371988
1116.981, 8.407180
1117.463, 9.016463
1117.945, 10.73393
1118.427, 12.36324
1118.909, 12.80843
1119.391, 12.36418
1119.873, 11.25931
1120.355, 8.826953
1120.838, 8.090266
1121.320, 9.350888
1121.802, 11.00846
1122.284, 12.27770
1122.766, 13.04165
1123.248, 12.80205
1123.730, 11.93867
1124.212, 11.47505
1124.694, 12.30417
1125.177, 12.62133
1125.659, 12.10998
1126.141, 11.44317
1126.623, 11.42139
1127.105, 11.78237
1127.587, 11.70422
1128.069, 11.24060
1128.551, 11.11778
1129.033, 12.66751
1129.516, 13.21125
1129.998, 11.44425
1130.480, 8.943133
1130.962, 8.490983
1131.444, 9.729147
1131.926, 10.97993
1132.408, 12.03961
1132.890, 12.38157
1133.373, 10.62834
1133.855, 9.127423
1134.337, 9.502913
1134.819, 11.11355
1135.301, 11.74460
1135.783, 11.42099
1136.265, 10.86063
1136.747, 10.09631
1137.229, 9.765155
1137.712, 10.98253
1138.194, 12.45777
1138.676, 13.01955
1139.158, 12.65479
1139.640, 11.84691
1140.122, 10.51792
1140.604, 9.470994
1141.086, 9.174592
1141.569, 9.021013
1142.051, 7.742243
1142.533, 6.436203
1143.015, 6.761795
1143.497, 9.659604
1143.979, 11.78658
1144.461, 13.12584
1144.943, 13.68052
1145.426, 13.13760
1145.908, 12.05254
1146.390, 11.14583
1146.872, 10.42138
1147.354, 9.875800
1147.836, 9.290394
1148.318, 9.351300
1148.800, 10.30658
1149.282, 11.35147
1149.765, 11.84021
1150.247, 11.90720
1150.729, 11.66982
1151.211, 11.25276
1151.693, 11.12988
1152.175, 11.97440
1152.657, 12.43246
1153.139, 12.25319
1153.621, 11.69100
1154.104, 10.82273
1154.586, 9.837203
1155.068, 9.561183
1155.550, 9.952704
1156.032, 10.02773
1156.514, 8.348083
1156.996, 7.547078
1157.478, 8.944345
1157.961, 11.12055
1158.443, 11.38188
1158.925, 10.07208
1159.407, 8.893682
1159.889, 8.063943
1160.371, 8.181024
1160.853, 11.13951
1161.335, 13.49859
1161.818, 13.21351
1162.300, 11.16009
1162.782, 9.532595
1163.264, 8.374269
1163.746, 8.306828
1164.228, 9.665210
1164.710, 10.86679
1165.192, 10.41287
1165.674, 9.664259
1166.156, 9.616155
1166.639, 10.18271
1167.121, 10.99273
1167.603, 12.03568
1168.085, 12.20471
1168.567, 10.72278
1169.049, 9.542551
1169.531, 10.96875
1170.013, 13.10265
1170.496, 13.99708
1170.978, 13.59346
1171.460, 13.28481
1171.942, 13.09708
1172.424, 12.46574
1172.906, 10.78660
1173.388, 9.191472
1173.870, 8.958323
1174.353, 9.439892
1174.835, 9.835988
1175.317, 10.09597
1175.799, 10.16265
1176.281, 10.00003
1176.763, 9.936336
1177.245, 10.15280
1177.727, 10.56875
1178.209, 11.36956
1178.692, 12.21151
1179.174, 12.46072
1179.656, 11.77636
1180.138, 11.28334
1180.620, 11.00404
1181.102, 10.77994
1181.584, 10.41036
1182.066, 10.09472
1182.548, 10.14281
1183.031, 10.43700
1183.513, 10.70205
1183.995, 10.85586
1184.477, 11.12745
1184.959, 11.62343
1185.441, 11.86394
1185.923, 11.16445
1186.405, 10.13126
1186.888, 9.836465
1187.370, 9.973571
1187.852, 9.299576
1188.334, 6.365499
1188.816, 5.414671
1189.298, 7.262466
1189.780, 9.685228
1190.262, 10.44690
1190.745, 10.27255
1191.227, 10.06956
1191.709, 9.928559
1192.191, 10.01160
1192.673, 10.72850
1193.155, 10.84289
1193.637, 10.00484
1194.119, 9.028215
1194.601, 9.055476
1195.084, 9.499002
1195.566, 9.364985
1196.048, 8.634501
1196.530, 7.997466
1197.012, 7.522750
1197.494, 7.280975
1197.976, 7.320061
1198.458, 7.517680
1198.941, 7.762212
1199.423, 8.018778
1199.905, 8.288714
1200.387, 8.563851
1200.869, 8.508027
1201.351, 7.834700
1201.833, 7.264457
1202.315, 6.901771
1202.797, 6.869034
1203.280, 7.744952
1203.762, 8.934160
1204.244, 9.231283
1204.726, 8.397525
1205.208, 8.101171
1205.690, 8.889772
1206.172, 9.663539
1206.654, 10.06150
1207.136, 10.35388
1207.619, 11.31491
1208.101, 12.39956
1208.583, 12.48662
1209.065, 11.19912
1209.547, 10.42047
1210.029, 10.65703
1210.511, 10.84080
1210.993, 10.48162
1211.476, 10.03823
1211.958, 10.45782
1212.440, 11.36417
1212.922, 12.17000
1213.404, 12.85846
1213.886, 12.81724
1214.368, 11.65447
1214.850, 10.63546
1215.333, 10.22954
1215.815, 10.34906
1216.297, 11.47828
1216.779, 12.80493
1217.261, 12.56620
1217.743, 9.580623
1218.225, 8.522126
1218.707, 10.52037
1219.189, 12.32405
1219.672, 12.34205
1220.154, 11.37994
1220.636, 10.68618
1221.118, 10.17867
1221.600, 9.667881
1222.082, 8.965868
1222.564, 8.873782
1223.046, 9.651275
1223.528, 10.33078
1224.011, 10.28651
1224.493, 9.996622
1224.975, 10.49080
1225.457, 11.25897
1225.939, 11.32472
1226.421, 9.876599
1226.903, 9.537255
1227.385, 10.69428
1227.868, 11.62015
1228.350, 11.02792
1228.832, 10.01584
1229.314, 10.62946
1229.796, 11.89947
1230.278, 12.12133
1230.760, 10.53987
1231.242, 8.876675
1231.724, 6.846152
1232.207, 6.095866
1232.689, 8.768739
1233.171, 12.01156
1233.653, 11.51917
1234.135, 9.247585
1234.617, 8.689094
1235.099, 11.28743
1235.581, 11.86512
1236.063, 10.10165
1236.546, 8.516302
1237.028, 8.866721
1237.510, 9.979495
1237.992, 11.16804
1238.474, 12.05813
1238.956, 11.86423
1239.438, 10.19954
1239.920, 9.170541
1240.403, 8.819132
1240.885, 8.730223
1241.367, 8.465848
1241.849, 8.542048
1242.331, 10.06699
1242.813, 11.89662
1243.295, 12.26551
1243.777, 10.87427
1244.260, 9.284758
1244.742, 7.476324
1245.224, 6.725041
1245.706, 8.668216
1246.188, 11.00981
1246.670, 12.77739
1247.152, 13.63109
1247.634, 13.12686
1248.116, 11.13820
1248.599, 9.326557
1249.081, 7.747403
1249.563, 6.951173
1250.045, 7.519047
1250.527, 8.686128
1251.009, 11.17533
1251.491, 13.20154
1251.973, 12.51534
1252.455, 9.282046
1252.938, 7.407910
1253.420, 6.848284
1253.902, 6.844942
1254.384, 7.263014
1254.866, 7.815047
1255.348, 8.464700
1255.830, 9.138993
1256.313, 9.911342
1256.795, 10.67693
1257.277, 10.63217
1257.759, 9.909165
1258.241, 9.210480
1258.723, 8.638631
1259.205, 8.488728
1259.687, 9.063285
1260.169, 9.637539
1260.651, 9.548283
1261.134, 8.953572
1261.616, 8.080112
1262.098, 7.132330
1262.580, 6.765128
1263.062, 7.723680
1263.544, 8.575973
1264.026, 9.288897
1264.508, 9.664951
1264.991, 9.148412
1265.473, 8.388678
1265.955, 8.786321
1266.437, 9.980823
1266.919, 11.00707
1267.401, 11.87599
1267.883, 12.00778
1268.365, 11.29294
1268.848, 10.24238
1269.330, 8.606479
1269.812, 7.372215
1270.294, 8.566266
1270.776, 10.97901
1271.258, 11.76609
1271.740, 9.882478
1272.222, 9.236668
1272.704, 10.00117
1273.187, 10.90573
1273.669, 11.16122
1274.151, 11.08348
1274.633, 10.70006
1275.115, 10.28098
1275.597, 10.33426
1276.079, 11.03435
1276.561, 10.81446
1277.043, 9.705458
1277.526, 8.857412
1278.008, 9.309814
1278.490, 9.849730
1278.972, 9.642098
1279.454, 9.254468
1279.936, 9.264849
1280.418, 9.661225
1280.900, 10.10492
1281.383, 10.60619
1281.865, 11.24646
1282.347, 12.78980
1282.829, 13.42560
1283.311, 11.87213
1283.793, 10.01622
1284.275, 9.299415
1284.757, 9.448915
1285.240, 9.352592
1285.722, 9.115116
1286.204, 9.072600
1286.686, 9.244534
1287.168, 9.911330
1287.650, 11.34344
1288.132, 12.63779
1288.614, 13.34486
1289.096, 13.34988
1289.578, 11.71182
1290.061, 9.351182
1290.543, 8.224586
1291.025, 9.669374
1291.507, 10.27892
1291.989, 9.887482
1292.471, 9.425540
1292.953, 9.361142
1293.435, 9.585572
1293.918, 10.37059
1294.400, 11.16534
1294.882, 10.99385
1295.364, 9.685695
1295.846, 8.886565
1296.328, 8.592879
1296.810, 9.122456
1297.292, 11.43724
1297.775, 13.14823
1298.257, 11.38555
1298.739, 8.988863
1299.221, 8.764138
1299.703, 10.43482
1300.185, 11.23508
1300.667, 11.27814
1301.149, 11.21005
1301.631, 11.18676
1302.114, 11.29560
1302.596, 11.59041
##END=



