##NAMES=Nickeline
##RRUFFID=R060906
##IDEAL CHEMISTRY=NiAs
##LOCALITY=Moose Horn mine, Timiskaming district, Ontario, Canada
##OWNER=RRUFF
##SOURCE=Royal Ontario Museum
##DESCRIPTION=Massive metallic lustered tarnished to dull copper color
##STATUS=The identification of this mineral has been confirmed by X-ray diffraction and chemical analysis
##URL=rruff.info/R060906
##MEASURED CHEMISTRY=Ni_1.00_(As_0.98_Sb_0.02_)_Î£=1_ ; trace amounts of Co and Fe
123.4559, 1599.829
123.9380, 1706.206
124.4201, 1831.240
124.9022, 1976.470
125.3843, 2143.295
125.8665, 2331.004
126.3486, 2540.225
126.8307, 2788.030
127.3128, 3044.821
127.7949, 3312.084
128.2770, 3583.008
128.7592, 3839.969
129.2413, 4069.481
129.7234, 4273.351
130.2055, 4439.875
130.6876, 4585.271
131.1698, 4686.250
131.6519, 4731.415
132.1340, 4719.297
132.6161, 4652.470
133.0982, 4530.476
133.5803, 4335.839
134.0625, 4126.565
134.5446, 3891.028
135.0267, 3651.753
135.5088, 3416.277
135.9909, 3188.846
136.4730, 2980.550
136.9552, 2805.022
137.4373, 2665.484
137.9194, 2561.945
138.4015, 2500.614
138.8836, 2468.438
139.3657, 2457.085
139.8479, 2463.642
140.3300, 2486.744
140.8121, 2525.227
141.2942, 2592.577
141.7763, 2655.464
142.2584, 2698.412
142.7406, 2742.567
143.2227, 2813.361
143.7048, 2920.354
144.1869, 3049.639
144.6690, 3175.300
145.1511, 3306.925
145.6333, 3418.706
146.1154, 3497.269
146.5975, 3556.466
147.0796, 3619.985
147.5617, 3698.914
148.0438, 3779.283
148.5260, 3823.175
149.0081, 3827.420
149.4902, 3812.148
149.9723, 3777.806
150.4544, 3727.810
150.9365, 3665.325
151.4187, 3588.373
151.9008, 3505.691
152.3829, 3443.017
152.8650, 3404.086
153.3471, 3373.165
153.8292, 3346.695
154.3114, 3323.892
154.7935, 3304.502
155.2756, 3292.108
155.7577, 3279.225
156.2398, 3246.651
156.7219, 3182.385
157.2041, 3118.739
157.6862, 3071.508
158.1683, 3038.845
158.6504, 3012.430
159.1325, 2987.163
159.6146, 2967.476
160.0968, 2961.605
160.5789, 2976.473
161.0610, 2995.002
161.5431, 3007.862
162.0252, 3015.256
162.5073, 3019.727
162.9895, 3025.730
163.4716, 3026.846
163.9537, 3012.783
164.4358, 2980.838
164.9179, 2936.728
165.4000, 2875.827
165.8822, 2799.305
166.3643, 2736.792
166.8464, 2711.147
167.3285, 2705.991
167.8106, 2689.762
168.2927, 2651.962
168.7749, 2612.514
169.2570, 2593.536
169.7391, 2595.953
170.2212, 2592.236
170.7033, 2565.026
171.1854, 2524.562
171.6676, 2486.199
172.1497, 2453.718
172.6318, 2422.283
173.1139, 2387.270
173.5960, 2348.396
174.0781, 2307.183
174.5603, 2256.063
175.0424, 2206.395
175.5245, 2174.409
176.0066, 2168.380
176.4887, 2174.299
176.9708, 2178.381
177.4530, 2181.062
177.9351, 2178.946
178.4172, 2168.056
178.8993, 2151.931
179.3814, 2133.505
179.8635, 2110.975
180.3457, 2089.889
180.8278, 2078.568
181.3099, 2078.829
181.7920, 2079.235
182.2741, 2075.048
182.7562, 2067.878
183.2384, 2058.039
183.7205, 2043.161
184.2026, 2029.453
184.6847, 2029.119
185.1668, 2046.841
185.6489, 2056.040
186.1311, 2033.505
186.6132, 2000.159
187.0953, 1976.583
187.5774, 1970.800
188.0595, 1972.551
188.5416, 1967.092
189.0238, 1952.336
189.5059, 1939.579
189.9880, 1939.785
190.4701, 1941.783
190.9522, 1933.338
191.4343, 1908.039
191.9165, 1877.716
192.3986, 1856.830
192.8807, 1845.082
193.3628, 1843.887
193.8449, 1866.730
194.3270, 1895.155
194.8092, 1911.924
195.2913, 1910.694
195.7734, 1901.297
196.2555, 1897.755
196.7376, 1902.067
197.2197, 1902.700
197.7019, 1893.523
198.1840, 1879.493
198.6661, 1862.665
199.1482, 1842.006
199.6303, 1823.936
200.1124, 1818.457
200.5946, 1827.841
201.0767, 1837.392
201.5588, 1842.332
202.0409, 1845.222
202.5230, 1848.873
203.0051, 1854.674
203.4873, 1857.632
203.9694, 1849.258
204.4515, 1827.209
204.9336, 1809.041
205.4157, 1803.593
205.8978, 1802.410
206.3800, 1799.490
206.8621, 1793.559
207.3442, 1786.542
207.8263, 1779.771
208.3084, 1772.991
208.7905, 1768.959
209.2727, 1771.816
209.7548, 1775.647
210.2369, 1776.120
210.7190, 1772.520
211.2011, 1766.419
211.6832, 1758.183
212.1654, 1747.650
212.6475, 1738.995
213.1296, 1730.752
213.6117, 1727.129
214.0938, 1734.682
214.5760, 1754.312
215.0581, 1771.558
215.5402, 1768.825
216.0223, 1746.652
216.5044, 1736.925
216.9865, 1758.646
217.4687, 1783.151
217.9508, 1787.406
218.4329, 1770.604
218.9150, 1749.602
219.3971, 1736.017
219.8792, 1729.335
220.3614, 1725.077
220.8435, 1725.185
221.3256, 1724.613
221.8077, 1717.861
222.2898, 1705.601
222.7719, 1695.785
223.2541, 1695.222
223.7362, 1702.126
224.2183, 1707.379
224.7004, 1708.783
225.1825, 1709.866
225.6646, 1715.537
226.1468, 1724.390
226.6289, 1728.513
227.1110, 1718.353
227.5931, 1699.691
228.0752, 1692.240
228.5573, 1703.286
229.0395, 1714.981
229.5216, 1712.286
230.0037, 1698.851
230.4858, 1685.626
230.9679, 1677.509
231.4500, 1672.805
231.9322, 1668.709
232.4143, 1665.983
232.8964, 1661.331
233.3785, 1647.510
233.8606, 1629.397
234.3427, 1619.295
234.8249, 1626.230
235.3070, 1641.357
235.7891, 1652.454
236.2712, 1659.272
236.7533, 1662.875
237.2354, 1662.733
237.7176, 1659.850
238.1997, 1656.111
238.6818, 1650.232
239.1639, 1644.745
239.6460, 1643.611
240.1281, 1647.029
240.6103, 1648.413
241.0924, 1642.061
241.5745, 1631.489
242.0566, 1625.311
242.5387, 1626.869
243.0208, 1630.044
243.5030, 1630.433
243.9851, 1628.299
244.4672, 1625.400
244.9493, 1621.824
245.4314, 1618.570
245.9135, 1617.479
246.3957, 1618.281
246.8778, 1621.559
247.3599, 1629.680
247.8420, 1640.993
248.3241, 1650.170
248.8062, 1655.618
249.2884, 1657.151
249.7705, 1653.966
250.2526, 1644.663
250.7347, 1635.151
251.2168, 1625.224
251.6989, 1616.758
252.1811, 1614.421
252.6632, 1620.562
253.1453, 1630.117
253.6274, 1634.569
254.1095, 1632.604
254.5916, 1631.228
255.0738, 1630.979
255.5559, 1632.287
256.0380, 1637.216
256.5201, 1646.314
257.0022, 1654.369
257.4843, 1654.009
257.9665, 1641.587
258.4486, 1634.753
258.9307, 1638.856
259.4128, 1645.576
259.8949, 1649.292
260.3770, 1649.024
260.8592, 1644.526
261.3413, 1634.204
261.8234, 1616.393
262.3055, 1607.744
262.7876, 1613.829
263.2697, 1622.962
263.7519, 1630.973
264.2340, 1636.770
264.7161, 1638.406
265.1982, 1633.330
265.6803, 1621.925
266.1624, 1619.806
266.6446, 1640.922
267.1267, 1655.057
267.6088, 1647.557
268.0909, 1626.995
268.5730, 1609.964
269.0551, 1606.172
269.5373, 1612.275
270.0194, 1613.435
270.5015, 1601.168
270.9836, 1593.425
271.4657, 1597.722
271.9478, 1605.186
272.4300, 1603.066
272.9121, 1586.321
273.3942, 1564.505
273.8763, 1559.450
274.3584, 1589.210
274.8405, 1604.527
275.3227, 1592.219
275.8048, 1573.159
276.2869, 1563.337
276.7690, 1566.347
277.2511, 1574.410
277.7332, 1576.494
278.2154, 1569.264
278.6975, 1567.132
279.1796, 1576.536
279.6617, 1585.920
280.1438, 1588.304
280.6259, 1584.405
281.1081, 1580.549
281.5902, 1583.453
282.0723, 1593.325
282.5544, 1599.131
283.0365, 1599.549
283.5186, 1596.866
284.0008, 1589.709
284.4829, 1580.320
284.9650, 1573.791
285.4471, 1575.965
285.9292, 1582.501
286.4113, 1577.011
286.8935, 1552.751
287.3756, 1530.587
287.8577, 1517.795
288.3398, 1512.754
288.8219, 1515.016
289.3040, 1527.524
289.7862, 1542.229
290.2683, 1546.659
290.7504, 1539.254
291.2325, 1533.042
291.7146, 1532.375
292.1967, 1536.011
292.6789, 1543.396
293.1610, 1555.653
293.6431, 1567.487
294.1252, 1575.316
294.6073, 1579.331
295.0894, 1579.903
295.5716, 1574.985
296.0537, 1569.513
296.5358, 1571.866
297.0179, 1582.969
297.5000, 1588.720
297.9821, 1575.370
298.4643, 1554.981
298.9464, 1550.521
299.4285, 1567.744
299.9106, 1589.745
300.3927, 1598.996
300.8748, 1595.292
301.3570, 1593.930
301.8391, 1596.741
302.3212, 1602.242
302.8033, 1611.974
303.2854, 1624.884
303.7675, 1632.972
304.2497, 1629.006
304.7318, 1614.319
305.2139, 1607.659
305.6960, 1614.339
306.1781, 1622.105
306.6602, 1630.654
307.1424, 1636.578
307.6245, 1631.548
308.1066, 1610.335
308.5887, 1579.935
309.0708, 1561.607
309.5529, 1564.406
310.0351, 1569.113
310.5172, 1577.483
310.9993, 1586.149
311.4814, 1591.612
311.9635, 1592.957
312.4456, 1592.106
312.9278, 1592.066
313.4099, 1594.337
313.8920, 1593.454
314.3741, 1587.499
314.8562, 1580.562
315.3383, 1574.369
315.8205, 1569.253
316.3026, 1565.057
316.7847, 1561.641
317.2668, 1559.016
317.7489, 1557.295
318.2310, 1558.142
318.7132, 1557.907
319.1953, 1557.134
319.6774, 1554.278
320.1595, 1545.518
320.6416, 1526.261
321.1237, 1503.918
321.6059, 1497.632
322.0880, 1512.954
322.5701, 1528.400
323.0522, 1535.580
323.5343, 1540.011
324.0164, 1546.973
324.4986, 1558.036
324.9807, 1569.190
325.4628, 1578.700
325.9449, 1586.123
326.4270, 1583.471
326.9091, 1560.828
327.3913, 1537.227
327.8734, 1535.287
328.3555, 1554.577
328.8376, 1570.480
329.3197, 1567.436
329.8018, 1555.394
330.2840, 1552.495
330.7661, 1561.926
331.2482, 1573.186
331.7303, 1576.742
332.2124, 1573.588
332.6945, 1574.418
333.1767, 1585.048
333.6588, 1595.614
334.1409, 1598.055
334.6230, 1594.050
335.1051, 1591.913
335.5872, 1597.367
336.0694, 1606.963
336.5515, 1606.361
337.0336, 1584.698
337.5157, 1567.946
337.9979, 1564.547
338.4800, 1566.849
338.9621, 1562.686
339.4442, 1548.695
339.9263, 1535.613
340.4084, 1541.824
340.8906, 1582.469
341.3727, 1606.081
341.8548, 1604.731
342.3369, 1595.712
342.8190, 1584.737
343.3011, 1574.725
343.7833, 1570.444
344.2654, 1578.098
344.7475, 1596.828
345.2296, 1602.521
345.7117, 1579.734
346.1938, 1562.680
346.6760, 1567.029
347.1581, 1581.030
347.6402, 1586.785
348.1223, 1574.955
348.6044, 1556.110
349.0865, 1550.592
349.5687, 1561.829
350.0508, 1571.421
350.5329, 1575.243
351.0150, 1574.674
351.4971, 1568.244
351.9792, 1555.623
352.4614, 1545.926
352.9435, 1547.070
353.4256, 1556.762
353.9077, 1568.477
354.3898, 1584.546
354.8719, 1594.875
355.3541, 1582.116
355.8362, 1552.823
356.3183, 1534.129
356.8004, 1541.013
357.2825, 1555.336
357.7646, 1561.109
358.2468, 1558.262
358.7289, 1551.120
359.2110, 1540.772
359.6931, 1528.712
360.1752, 1521.142
360.6573, 1518.491
361.1395, 1518.942
361.6216, 1526.646
362.1037, 1535.709
362.5858, 1536.382
363.0679, 1525.763
363.5500, 1511.217
364.0322, 1503.726
364.5143, 1505.363
364.9964, 1509.438
365.4785, 1515.086
365.9606, 1523.512
366.4427, 1541.418
366.9249, 1563.893
367.4070, 1575.691
367.8891, 1562.047
368.3712, 1527.203
368.8533, 1509.496
369.3354, 1521.751
369.8176, 1533.316
370.2997, 1534.111
370.7818, 1530.868
371.2639, 1532.380
371.7460, 1542.240
372.2281, 1553.580
372.7103, 1556.153
373.1924, 1549.050
373.6745, 1544.212
374.1566, 1544.533
374.6387, 1547.601
375.1208, 1552.019
375.6030, 1557.593
376.0851, 1562.152
376.5672, 1563.837
377.0493, 1564.041
377.5314, 1567.347
378.0135, 1575.042
378.4957, 1576.083
378.9778, 1555.974
379.4599, 1521.748
379.9420, 1509.071
380.4241, 1533.736
380.9063, 1564.534
381.3884, 1594.419
381.8705, 1618.438
382.3526, 1623.320
382.8347, 1602.549
383.3168, 1568.499
383.7990, 1544.198
384.2811, 1532.877
384.7632, 1526.649
385.2453, 1529.408
385.7274, 1534.241
386.2095, 1536.973
386.6917, 1536.984
387.1738, 1534.787
387.6559, 1529.980
388.1380, 1522.850
388.6201, 1522.297
389.1022, 1538.825
389.5844, 1548.740
390.0665, 1540.813
390.5486, 1525.437
391.0307, 1516.495
391.5128, 1519.638
391.9949, 1527.280
392.4771, 1527.564
392.9592, 1519.445
393.4413, 1514.914
393.9234, 1518.558
394.4055, 1524.494
394.8876, 1528.347
395.3698, 1530.095
395.8519, 1530.640
396.3340, 1529.631
396.8161, 1527.939
397.2982, 1527.748
397.7803, 1529.365
398.2625, 1528.948
398.7446, 1522.975
399.2267, 1512.886
399.7088, 1505.646
400.1909, 1501.159
400.6730, 1499.424
401.1552, 1500.765
401.6373, 1504.776
402.1194, 1511.941
402.6015, 1522.410
403.0836, 1532.802
403.5657, 1537.998
404.0479, 1536.677
404.5300, 1533.553
405.0121, 1526.397
405.4942, 1519.734
405.9763, 1516.399
406.4584, 1515.676
406.9406, 1515.265
407.4227, 1513.666
407.9048, 1511.116
408.3869, 1508.141
408.8690, 1503.055
409.3511, 1501.079
409.8333, 1508.612
410.3154, 1516.567
410.7975, 1516.078
411.2796, 1505.296
411.7617, 1491.437
412.2438, 1476.132
412.7260, 1461.672
413.2081, 1464.366
413.6902, 1494.167
414.1723, 1523.492
414.6544, 1520.093
415.1365, 1495.335
415.6187, 1486.804
416.1008, 1519.648
416.5829, 1556.045
417.0650, 1565.156
417.5471, 1552.659
418.0292, 1540.536
418.5114, 1538.652
418.9935, 1541.880
419.4756, 1539.030
419.9577, 1523.601
420.4398, 1513.898
420.9219, 1515.509
421.4041, 1519.490
421.8862, 1518.220
422.3683, 1511.921
422.8504, 1506.282
423.3325, 1506.359
423.8146, 1511.660
424.2968, 1515.772
424.7789, 1518.741
425.2610, 1520.299
425.7431, 1519.189
426.2252, 1517.326
426.7073, 1516.584
427.1895, 1517.495
427.6716, 1520.062
428.1537, 1526.383
428.6358, 1535.942
429.1179, 1539.064
429.6000, 1532.301
430.0822, 1522.084
430.5643, 1511.431
431.0464, 1501.183
431.5285, 1495.723
432.0106, 1497.829
432.4927, 1503.975
432.9749, 1514.620
433.4570, 1527.665
433.9391, 1532.560
434.4212, 1522.435
434.9033, 1505.393
435.3854, 1500.782
435.8676, 1520.034
436.3497, 1531.184
436.8318, 1526.537
437.3139, 1517.468
437.7960, 1511.725
438.2781, 1510.512
438.7603, 1511.998
439.2424, 1514.687
439.7245, 1518.666
440.2066, 1525.582
440.6887, 1541.949
441.1708, 1551.149
441.6530, 1545.560
442.1351, 1533.527
442.6172, 1522.542
443.0993, 1514.441
443.5814, 1510.462
444.0635, 1513.510
444.5457, 1522.556
445.0278, 1530.259
445.5099, 1535.213
445.9920, 1539.641
446.4741, 1547.808
446.9562, 1557.578
447.4384, 1560.146
447.9205, 1549.770
448.4026, 1535.659
448.8847, 1521.081
449.3668, 1507.689
449.8489, 1501.331
450.3311, 1505.031
450.8132, 1512.274
451.2953, 1511.229
451.7774, 1496.265
452.2595, 1485.470
452.7416, 1476.159
453.2238, 1473.050
453.7059, 1483.199
454.1880, 1502.343
454.6701, 1518.788
455.1522, 1524.506
455.6343, 1522.586
456.1165, 1523.254
456.5986, 1528.085
457.0807, 1531.404
457.5628, 1531.870
458.0449, 1530.087
458.5270, 1525.957
459.0092, 1519.511
459.4913, 1512.095
459.9734, 1501.765
460.4555, 1491.700
460.9376, 1489.701
461.4197, 1496.836
461.9019, 1505.048
462.3840, 1509.250
462.8661, 1510.226
463.3482, 1511.843
463.8303, 1517.709
464.3124, 1519.615
464.7946, 1509.804
465.2767, 1497.237
465.7588, 1495.290
466.2409, 1505.847
466.7230, 1517.068
467.2051, 1514.678
467.6873, 1496.937
468.1694, 1487.626
468.6515, 1494.938
469.1336, 1501.876
469.6157, 1501.288
470.0978, 1498.708
470.5800, 1503.571
471.0621, 1520.104
471.5442, 1537.136
472.0263, 1540.203
472.5084, 1530.194
472.9905, 1519.980
473.4727, 1510.828
473.9548, 1503.338
474.4369, 1497.532
474.9190, 1493.589
475.4011, 1493.663
475.8832, 1503.994
476.3654, 1513.116
476.8475, 1511.721
477.3296, 1502.858
477.8117, 1493.691
478.2938, 1486.755
478.7759, 1483.630
479.2581, 1488.149
479.7402, 1507.948
480.2223, 1515.239
480.7044, 1500.069
481.1865, 1483.704
481.6686, 1474.717
482.1508, 1473.093
482.6329, 1476.963
483.1150, 1486.117
483.5971, 1497.949
484.0792, 1507.638
484.5613, 1515.225
485.0435, 1520.009
485.5256, 1520.073
486.0077, 1518.820
486.4898, 1520.005
486.9719, 1523.347
487.4540, 1524.936
487.9362, 1521.543
488.4183, 1516.834
488.9004, 1514.791
489.3825, 1515.183
489.8646, 1515.654
490.3467, 1514.781
490.8289, 1513.806
491.3110, 1516.042
491.7931, 1529.145
492.2752, 1532.569
492.7573, 1515.759
493.2394, 1498.030
493.7216, 1496.239
494.2037, 1506.518
494.6858, 1510.891
495.1679, 1494.501
495.6500, 1466.893
496.1321, 1460.224
496.6143, 1481.369
497.0964, 1500.255
497.5785, 1508.472
498.0606, 1510.850
498.5427, 1510.804
499.0248, 1508.559
499.5070, 1505.529
499.9891, 1500.186
500.4712, 1495.594
500.9533, 1498.815
501.4355, 1508.787
501.9176, 1512.299
502.3997, 1500.225
502.8818, 1479.113
503.3639, 1468.277
503.8460, 1476.833
504.3282, 1482.896
504.8103, 1484.264
505.2924, 1484.286
505.7745, 1485.954
506.2566, 1488.845
506.7387, 1490.119
507.2209, 1487.465
507.7030, 1481.880
508.1851, 1476.417
508.6672, 1470.586
509.1493, 1466.497
509.6314, 1465.795
510.1136, 1466.441
510.5957, 1466.980
511.0778, 1467.338
511.5599, 1466.493
512.0420, 1461.540
512.5241, 1456.526
513.0062, 1456.589
513.4883, 1461.662
513.9705, 1469.816
514.4526, 1480.890
514.9347, 1492.504
515.4168, 1497.828
515.8989, 1490.915
516.3810, 1486.217
516.8632, 1485.843
517.3453, 1485.941
517.8274, 1482.555
518.3095, 1476.980
518.7916, 1474.364
519.2737, 1479.125
519.7559, 1487.940
520.2380, 1492.523
520.7201, 1492.574
521.2022, 1489.557
521.6843, 1480.898
522.1664, 1472.069
522.6486, 1469.375
523.1307, 1472.754
523.6128, 1475.860
524.0949, 1475.851
524.5770, 1475.302
525.0591, 1476.358
525.5413, 1478.988
526.0234, 1483.229
526.5055, 1489.484
526.9876, 1495.545
527.4697, 1496.540
527.9518, 1489.588
528.4340, 1483.671
528.9161, 1477.517
529.3982, 1473.439
529.8803, 1475.111
530.3624, 1479.689
530.8445, 1480.676
531.3267, 1474.406
531.8088, 1463.960
532.2909, 1451.040
532.7730, 1436.017
533.2551, 1432.928
533.7372, 1451.738
534.2194, 1470.863
534.7015, 1460.174
535.1836, 1422.287
535.6657, 1404.059
536.1478, 1426.129
536.6299, 1452.974
537.1121, 1466.138
537.5942, 1470.081
538.0763, 1475.212
538.5584, 1484.987
539.0405, 1492.877
539.5226, 1487.201
540.0048, 1463.720
540.4869, 1454.228
540.9690, 1471.472
541.4511, 1487.018
541.9332, 1489.787
542.4153, 1484.599
542.8975, 1477.132
543.3796, 1467.298
543.8617, 1462.589
544.3438, 1474.076
544.8259, 1494.940
545.3080, 1508.752
545.7902, 1513.133
546.2723, 1507.303
546.7544, 1486.694
547.2365, 1454.343
547.7186, 1440.152
548.2007, 1461.452
548.6829, 1476.406
549.1650, 1473.656
549.6471, 1464.823
550.1292, 1457.356
550.6113, 1454.369
551.0934, 1461.141
551.5756, 1488.407
552.0577, 1527.016
552.5398, 1537.148
553.0219, 1511.173
553.5040, 1486.234
553.9861, 1470.430
554.4683, 1466.469
554.9504, 1481.851
555.4325, 1520.164
555.9146, 1543.556
556.3967, 1528.852
556.8788, 1503.306
557.3610, 1489.487
557.8431, 1486.608
558.3252, 1486.247
558.8073, 1484.345
559.2894, 1481.423
559.7715, 1478.915
560.2537, 1478.356
560.7358, 1474.130
561.2179, 1459.998
561.7000, 1448.028
562.1821, 1442.789
562.6642, 1443.560
563.1464, 1449.495
563.6285, 1463.304
564.1106, 1474.933
564.5927, 1470.227
565.0748, 1454.269
565.5569, 1446.271
566.0391, 1450.971
566.5212, 1457.099
567.0033, 1453.341
567.4854, 1440.026
567.9675, 1434.847
568.4496, 1449.675
568.9318, 1456.669
569.4139, 1441.158
569.8960, 1420.157
570.3781, 1412.848
570.8602, 1421.166
571.3423, 1430.914
571.8245, 1427.296
572.3066, 1415.323
572.7887, 1416.723
573.2708, 1434.869
573.7529, 1449.235
574.2350, 1449.467
574.7172, 1444.004
575.1993, 1447.219
575.6814, 1461.371
576.1635, 1467.744
576.6456, 1453.336
577.1277, 1437.262
577.6099, 1436.686
578.0920, 1446.381
578.5741, 1448.860
579.0562, 1435.769
579.5383, 1418.650
580.0204, 1420.134
580.5026, 1445.850
580.9847, 1462.867
581.4668, 1466.462
581.9489, 1465.585
582.4310, 1462.264
582.9132, 1458.461
583.3953, 1457.962
583.8774, 1462.349
584.3596, 1468.333
584.8417, 1475.734
585.3238, 1482.650
585.8059, 1485.991
586.2880, 1485.249
586.7701, 1480.175
587.2523, 1469.320
587.7344, 1454.957
588.2165, 1449.944
588.6986, 1462.792
589.1807, 1471.560
589.6628, 1475.328
590.1450, 1473.935
590.6271, 1462.839
591.1092, 1445.462
591.5913, 1434.658
592.0734, 1441.835
592.5555, 1454.719
593.0377, 1453.595
593.5198, 1441.462
594.0019, 1438.861
594.4840, 1453.732
594.9661, 1470.948
595.4482, 1471.674
595.9304, 1453.193
596.4125, 1445.424
596.8946, 1456.167
597.3767, 1466.875
597.8588, 1472.285
598.3409, 1474.837
598.8231, 1478.036
599.3052, 1482.401
599.7873, 1484.877
600.2694, 1481.055
600.7515, 1473.090
601.2336, 1470.180
601.7158, 1473.477
602.1979, 1471.307
602.6800, 1455.604
603.1621, 1434.969
603.6442, 1423.607
604.1263, 1421.514
604.6085, 1426.849
605.0906, 1448.813
605.5727, 1469.118
606.0548, 1478.935
606.5369, 1478.638
607.0190, 1467.472
607.5012, 1445.328
607.9833, 1423.823
608.4654, 1421.799
608.9475, 1438.655
609.4296, 1449.253
609.9117, 1451.126
610.3939, 1449.635
610.8760, 1443.672
611.3581, 1437.745
611.8402, 1443.244
612.3223, 1469.741
612.8044, 1483.665
613.2866, 1460.068
613.7687, 1431.189
614.2508, 1429.978
614.7329, 1451.429
615.2150, 1469.833
615.6971, 1470.553
616.1793, 1460.985
616.6614, 1455.963
617.1435, 1456.061
617.6256, 1457.012
618.1077, 1457.942
618.5898, 1460.375
619.0720, 1471.262
619.5541, 1483.904
620.0362, 1480.943
620.5183, 1447.206
621.0004, 1419.918
621.4825, 1423.269
621.9647, 1439.175
622.4468, 1443.983
622.9289, 1436.637
623.4110, 1431.954
623.8931, 1441.295
624.3752, 1458.972
624.8574, 1466.237
625.3395, 1460.687
625.8216, 1452.461
626.3037, 1437.197
626.7858, 1425.992
627.2679, 1429.056
627.7501, 1442.403
628.2322, 1452.637
628.7143, 1455.626
629.1964, 1455.909
629.6785, 1452.460
630.1606, 1449.563
630.6428, 1457.328
631.1249, 1475.609
631.6070, 1490.200
632.0891, 1488.320
632.5712, 1473.621
633.0533, 1463.731
633.5355, 1458.179
634.0176, 1458.786
634.4997, 1475.451
634.9818, 1489.968
635.4639, 1485.987
635.9460, 1467.447
636.4282, 1453.952
636.9103, 1452.609
637.3924, 1457.203
637.8745, 1470.469
638.3566, 1484.659
638.8387, 1482.583
639.3209, 1462.089
639.8030, 1440.142
640.2851, 1432.565
640.7672, 1437.440
641.2493, 1442.270
641.7314, 1449.441
642.2136, 1450.920
642.6957, 1433.865
643.1778, 1419.768
643.6599, 1429.584
644.1420, 1459.288
644.6241, 1481.049
645.1063, 1484.534
645.5884, 1478.407
646.0705, 1461.676
646.5526, 1441.579
647.0347, 1432.594
647.5168, 1437.458
647.9990, 1447.140
648.4811, 1453.980
648.9632, 1457.795
649.4453, 1456.260
649.9274, 1446.832
650.4095, 1438.362
650.8917, 1431.942
651.3738, 1428.127
651.8559, 1429.122
652.3380, 1433.946
652.8201, 1435.862
653.3022, 1426.595
653.7844, 1420.273
654.2665, 1430.793
654.7486, 1448.835
655.2307, 1458.444
655.7128, 1456.391
656.1949, 1449.715
656.6771, 1444.428
657.1592, 1440.315
657.6413, 1435.337
658.1234, 1427.537
658.6055, 1425.621
659.0876, 1437.705
659.5698, 1450.447
660.0519, 1449.106
660.5340, 1436.236
661.0161, 1429.420
661.4982, 1437.836
661.9803, 1446.965
662.4625, 1448.704
662.9446, 1446.861
663.4267, 1447.011
663.9088, 1449.909
664.3909, 1452.662
664.8730, 1453.185
665.3552, 1451.290
665.8373, 1444.267
666.3194, 1429.988
666.8015, 1425.010
667.2836, 1440.602
667.7657, 1455.974
668.2479, 1443.739
668.7300, 1410.540
669.2121, 1399.206
669.6942, 1434.260
670.1763, 1466.022
670.6584, 1477.577
671.1406, 1477.096
671.6227, 1470.284
672.1048, 1459.933
672.5869, 1450.287
673.0690, 1444.270
673.5511, 1440.979
674.0333, 1437.529
674.5154, 1433.934
674.9975, 1439.035
675.4796, 1459.838
675.9617, 1474.092
676.4438, 1457.601
676.9260, 1416.088
677.4081, 1396.205
677.8902, 1412.598
678.3723, 1428.469
678.8544, 1440.759
679.3365, 1448.846
679.8187, 1450.153
680.3008, 1446.705
680.7829, 1444.541
681.2650, 1447.598
681.7471, 1450.869
682.2292, 1444.946
682.7114, 1433.026
683.1935, 1430.462
683.6756, 1440.154
684.1577, 1449.215
684.6398, 1448.567
685.1219, 1440.472
685.6041, 1433.097
686.0862, 1423.796
686.5683, 1419.878
687.0504, 1428.025
687.5325, 1434.607
688.0146, 1428.553
688.4968, 1416.466
688.9789, 1412.425
689.4610, 1422.158
689.9431, 1434.874
690.4252, 1446.446
690.9073, 1453.603
691.3895, 1445.553
691.8716, 1424.827
692.3537, 1412.769
692.8358, 1421.561
693.3179, 1440.936
693.8000, 1450.436
694.2822, 1447.054
694.7643, 1446.146
695.2464, 1450.032
695.7285, 1453.085
696.2106, 1453.028
696.6927, 1450.751
697.1749, 1446.194
697.6570, 1438.521
698.1391, 1434.897
698.6212, 1442.452
699.1033, 1451.361
699.5854, 1451.509
700.0676, 1446.612
700.5497, 1447.448
701.0318, 1457.259
701.5139, 1466.281
701.9960, 1461.585
702.4781, 1445.000
702.9603, 1431.299
703.4424, 1419.649
703.9245, 1415.757
704.4066, 1426.273
704.8887, 1439.756
705.3708, 1440.851
705.8530, 1428.683
706.3351, 1418.310
706.8172, 1403.636
707.2993, 1398.786
707.7814, 1418.761
708.2635, 1445.026
708.7457, 1457.586
709.2278, 1454.472
709.7099, 1445.467
710.1920, 1433.702
710.6741, 1424.088
711.1563, 1427.925
711.6384, 1442.020
712.1205, 1449.131
712.6026, 1444.940
713.0847, 1438.872
713.5668, 1439.224
714.0490, 1444.693
714.5311, 1447.200
715.0132, 1445.077
715.4953, 1442.876
715.9774, 1443.124
716.4595, 1441.347
716.9417, 1430.782
717.4238, 1416.562
717.9059, 1412.298
718.3880, 1426.220
718.8701, 1438.971
719.3522, 1436.293
719.8344, 1427.210
720.3165, 1422.228
720.7986, 1422.167
721.2807, 1425.018
721.7628, 1429.829
722.2449, 1435.696
722.7271, 1442.841
723.2092, 1451.645
723.6913, 1449.530
724.1734, 1431.370
724.6555, 1416.222
725.1376, 1412.226
725.6198, 1417.092
726.1019, 1429.603
726.5840, 1452.683
727.0661, 1466.965
727.5482, 1468.102
728.0303, 1462.871
728.5125, 1451.021
728.9946, 1436.365
729.4767, 1422.583
729.9588, 1410.792
730.4409, 1401.046
730.9230, 1391.006
731.4052, 1384.632
731.8873, 1392.838
732.3694, 1411.912
732.8515, 1423.275
733.3336, 1421.877
733.8157, 1414.289
734.2979, 1405.391
734.7800, 1396.181
735.2621, 1395.376
735.7442, 1410.354
736.2263, 1418.134
736.7084, 1406.652
737.1906, 1395.525
737.6727, 1401.031
738.1548, 1416.381
738.6369, 1421.476
739.1190, 1406.839
739.6011, 1392.619
740.0833, 1385.354
740.5654, 1384.428
741.0475, 1392.715
741.5296, 1406.749
742.0117, 1417.069
742.4938, 1419.129
742.9760, 1418.399
743.4581, 1425.220
743.9402, 1436.803
744.4223, 1432.976
744.9044, 1410.913
745.3865, 1394.794
745.8687, 1396.772
746.3508, 1407.401
746.8329, 1412.368
747.3150, 1410.698
747.7971, 1408.456
748.2792, 1402.515
748.7614, 1399.927
749.2435, 1406.198
749.7256, 1413.873
750.2077, 1415.194
750.6898, 1410.206
751.1719, 1405.494
751.6541, 1402.126
752.1362, 1402.039
752.6183, 1407.493
753.1004, 1417.009
753.5825, 1430.598
754.0646, 1446.600
754.5468, 1458.005
755.0289, 1459.632
755.5110, 1453.767
755.9931, 1445.002
756.4752, 1433.304
756.9573, 1418.386
757.4395, 1397.290
757.9216, 1383.028
758.4037, 1386.616
758.8858, 1400.503
759.3679, 1405.740
759.8500, 1396.476
760.3322, 1392.090
760.8143, 1398.819
761.2964, 1403.599
761.7785, 1397.669
762.2606, 1388.127
762.7427, 1386.314
763.2249, 1393.932
763.7070, 1398.425
764.1891, 1387.078
764.6712, 1373.223
765.1533, 1372.743
765.6354, 1380.939
766.1176, 1387.039
766.5997, 1388.185
767.0818, 1385.706
767.5639, 1380.040
768.0460, 1372.669
768.5281, 1368.106
769.0103, 1366.205
769.4924, 1370.083
769.9745, 1384.641
770.4566, 1393.705
770.9387, 1380.777
771.4208, 1354.344
771.9030, 1345.298
772.3851, 1365.674
772.8672, 1380.454
773.3493, 1383.674
773.8314, 1385.992
774.3135, 1395.431
774.7957, 1406.458
775.2778, 1409.788
775.7599, 1403.200
776.2420, 1393.692
776.7241, 1380.695
777.2062, 1370.812
777.6884, 1372.987
778.1705, 1384.031
778.6526, 1398.239
779.1347, 1413.089
779.6168, 1422.467
780.0989, 1419.673
780.5811, 1407.899
781.0632, 1396.288
781.5453, 1384.078
782.0274, 1383.647
782.5095, 1402.080
782.9916, 1418.009
783.4738, 1412.750
783.9559, 1392.900
784.4380, 1384.839
784.9201, 1399.216
785.4022, 1407.464
785.8843, 1403.252
786.3665, 1399.796
786.8486, 1406.901
787.3307, 1417.183
787.8128, 1417.429
788.2949, 1404.475
788.7770, 1394.409
789.2592, 1400.107
789.7413, 1407.848
790.2234, 1401.631
790.7055, 1389.706
791.1876, 1392.309
791.6697, 1411.408
792.1519, 1424.079
792.6340, 1407.591
793.1161, 1377.041
793.5982, 1369.805
794.0803, 1384.061
794.5624, 1397.289
795.0446, 1406.343
795.5267, 1408.530
796.0088, 1401.263
796.4909, 1386.673
796.9730, 1370.330
797.4551, 1348.028
797.9373, 1334.746
798.4194, 1338.900
798.9015, 1341.440
799.3836, 1329.881
799.8657, 1315.379
800.3478, 1314.246
800.8300, 1328.612
801.3121, 1337.408
801.7942, 1326.919
802.2763, 1318.465
802.7584, 1324.333
803.2405, 1338.169
803.7227, 1355.305
804.2048, 1372.637
804.6869, 1384.044
805.1690, 1385.837
805.6511, 1379.994
806.1332, 1364.033
806.6154, 1343.237
807.0975, 1331.538
807.5796, 1330.372
808.0617, 1336.681
808.5438, 1349.424
809.0259, 1364.376
809.5081, 1375.270
809.9902, 1382.460
810.4723, 1378.359
810.9544, 1358.049
811.4365, 1341.774
811.9186, 1335.955
812.4008, 1338.612
812.8829, 1350.188
813.3650, 1371.001
813.8471, 1384.408
814.3292, 1391.817
814.8113, 1390.193
815.2935, 1367.413
815.7756, 1345.728
816.2577, 1344.113
816.7398, 1356.739
817.2219, 1365.330
817.7040, 1363.242
818.1862, 1360.770
818.6683, 1363.220
819.1504, 1368.825
819.6325, 1382.050
820.1146, 1395.740
820.5967, 1390.794
821.0789, 1362.517
821.5610, 1332.329
822.0431, 1321.184
822.5252, 1323.967
823.0073, 1330.419
823.4894, 1339.853
823.9716, 1346.559
824.4537, 1349.289
824.9358, 1347.620
825.4179, 1340.023
825.9000, 1329.546
826.3821, 1326.863
826.8643, 1332.736
827.3464, 1345.150
827.8285, 1373.502
828.3106, 1390.906
828.7927, 1374.995
829.2748, 1344.967
829.7570, 1335.038
830.2391, 1349.380
830.7212, 1355.336
831.2033, 1339.199
831.6854, 1328.461
832.1675, 1336.022
832.6497, 1350.434
833.1318, 1363.923
833.6139, 1373.897
834.0960, 1375.553
834.5781, 1363.140
835.0602, 1349.706
835.5424, 1343.484
836.0245, 1341.837
836.5066, 1342.866
836.9887, 1345.358
837.4708, 1347.708
837.9529, 1349.205
838.4351, 1348.235
838.9172, 1338.718
839.3993, 1326.155
839.8814, 1330.456
840.3635, 1349.186
840.8456, 1360.396
841.3278, 1357.713
841.8099, 1352.152
842.2920, 1353.860
842.7741, 1360.382
843.2562, 1360.977
843.7383, 1353.517
844.2205, 1349.734
844.7026, 1351.921
845.1847, 1355.723
845.6668, 1362.704
846.1489, 1367.215
846.6310, 1354.820
847.1132, 1315.322
847.5953, 1299.675
848.0774, 1328.732
848.5595, 1354.997
849.0416, 1365.789
849.5237, 1367.498
850.0059, 1364.287
850.4880, 1357.546
850.9701, 1350.132
851.4522, 1339.957
851.9343, 1334.533
852.4164, 1340.711
852.8986, 1350.904
853.3807, 1359.420
853.8628, 1365.422
854.3449, 1369.499
854.8270, 1371.767
855.3091, 1369.583
855.7913, 1354.518
856.2734, 1337.146
856.7555, 1337.657
857.2376, 1350.682
857.7197, 1358.429
858.2018, 1357.286
858.6840, 1356.337
859.1661, 1363.784
859.6482, 1372.168
860.1303, 1359.292
860.6124, 1326.003
861.0945, 1310.529
861.5767, 1317.980
862.0588, 1328.989
862.5409, 1336.112
863.0230, 1338.008
863.5051, 1331.219
863.9872, 1314.844
864.4694, 1306.716
864.9515, 1308.431
865.4336, 1315.608
865.9157, 1334.865
866.3978, 1351.269
866.8799, 1351.477
867.3621, 1339.474
867.8442, 1327.211
868.3263, 1311.665
868.8084, 1303.062
869.2905, 1306.215
869.7726, 1312.661
870.2548, 1320.411
870.7369, 1327.693
871.2190, 1333.840
871.7011, 1338.282
872.1832, 1336.735
872.6653, 1321.347
873.1475, 1306.205
873.6296, 1298.331
874.1117, 1296.874
874.5938, 1304.174
875.0759, 1316.941
875.5580, 1325.450
876.0402, 1324.981
876.5223, 1323.476
877.0044, 1331.712
877.4865, 1342.710
877.9686, 1344.005
878.4507, 1336.844
878.9329, 1324.828
879.4150, 1309.904
879.8971, 1300.485
880.3792, 1305.811
880.8613, 1318.097
881.3434, 1315.485
881.8256, 1299.553
882.3077, 1289.790
882.7898, 1288.506
883.2719, 1293.922
883.7540, 1306.508
884.2361, 1320.691
884.7183, 1328.301
885.2004, 1329.349
885.6825, 1320.066
886.1646, 1292.242
886.6467, 1280.638
887.1288, 1303.265
887.6110, 1327.935
888.0931, 1325.872
888.5752, 1304.231
889.0573, 1292.491
889.5394, 1295.631
890.0215, 1299.183
890.5037, 1303.795
890.9858, 1308.012
891.4679, 1314.637
891.9500, 1318.505
892.4321, 1310.221
892.9142, 1290.218
893.3964, 1278.377
893.8785, 1283.289
894.3606, 1290.903
894.8427, 1302.016
895.3248, 1309.354
895.8069, 1298.542
896.2891, 1281.256
896.7712, 1288.232
897.2533, 1331.144
897.7354, 1361.832
898.2175, 1339.292
898.6996, 1305.487
899.1818, 1294.451
899.6639, 1297.827
900.1460, 1302.065
900.6281, 1304.207
901.1102, 1305.702
901.5923, 1307.141
902.0745, 1309.165
902.5566, 1313.901
903.0387, 1319.128
903.5208, 1318.495
904.0029, 1314.025
904.4850, 1316.439
904.9672, 1328.869
905.4493, 1340.368
905.9314, 1339.215
906.4135, 1329.985
906.8956, 1323.907
907.3777, 1320.757
907.8599, 1318.788
908.3420, 1317.739
908.8241, 1318.673
909.3062, 1322.787
909.7883, 1326.036
910.2704, 1320.352
910.7526, 1305.887
911.2347, 1295.787
911.7168, 1290.113
912.1990, 1288.315
912.6811, 1290.022
913.1632, 1297.523
913.6453, 1317.125
914.1274, 1341.036
914.6096, 1337.875
915.0917, 1292.572
915.5738, 1264.740
916.0559, 1259.790
916.5380, 1263.177
917.0201, 1271.849
917.5023, 1283.974
917.9844, 1300.754
918.4665, 1321.992
918.9486, 1328.061
919.4307, 1304.912
919.9128, 1287.570
920.3950, 1279.584
920.8771, 1276.835
921.3592, 1282.349
921.8413, 1289.570
922.3234, 1286.023
922.8055, 1268.966
923.2877, 1258.272
923.7698, 1258.491
924.2519, 1264.746
924.7340, 1281.713
925.2161, 1298.637
925.6982, 1304.497
926.1804, 1302.413
926.6625, 1303.535
927.1446, 1312.101
927.6267, 1318.447
928.1088, 1320.561
928.5909, 1316.537
929.0731, 1298.085
929.5552, 1276.531
930.0373, 1268.224
930.5194, 1273.432
931.0015, 1280.180
931.4836, 1282.951
931.9658, 1284.577
932.4479, 1286.037
932.9300, 1288.532
933.4121, 1295.616
933.8942, 1304.464
934.3763, 1308.902
934.8585, 1307.267
935.3406, 1301.192
935.8227, 1288.029
936.3048, 1276.767
936.7869, 1283.548
937.2690, 1299.178
937.7512, 1303.634
938.2333, 1297.792
938.7154, 1297.308
939.1975, 1308.605
939.6796, 1317.164
940.1617, 1301.436
940.6439, 1274.470
941.1260, 1271.676
941.6081, 1285.885
942.0902, 1283.709
942.5723, 1261.666
943.0544, 1249.748
943.5366, 1266.618
944.0187, 1294.503
944.5008, 1304.815
944.9829, 1300.186
945.4650, 1295.439
945.9471, 1290.697
946.4293, 1286.387
946.9114, 1282.695
947.3935, 1276.378
947.8756, 1263.550
948.3577, 1250.201
948.8398, 1254.987
949.3220, 1278.384
949.8041, 1286.403
950.2862, 1275.349
950.7683, 1272.514
951.2504, 1289.991
951.7325, 1306.739
952.2147, 1299.840
952.6968, 1275.366
953.1789, 1262.392
953.6610, 1262.073
954.1431, 1268.275
954.6252, 1284.244
955.1074, 1294.534
955.5895, 1292.132
956.0716, 1280.868
956.5537, 1263.504
957.0358, 1240.799
957.5179, 1229.310
958.0001, 1230.102
958.4822, 1240.181
958.9643, 1265.399
959.4464, 1288.141
959.9285, 1299.790
960.4106, 1302.412
960.8928, 1297.531
961.3749, 1283.838
961.8570, 1278.209
962.3391, 1287.538
962.8212, 1292.079
963.3033, 1285.178
963.7855, 1277.331
964.2676, 1274.981
964.7497, 1276.270
965.2318, 1277.444
965.7139, 1278.712
966.1960, 1278.927
966.6782, 1275.879
967.1603, 1274.807
967.6424, 1276.560
968.1245, 1280.748
968.6066, 1289.004
969.0887, 1299.299
969.5709, 1306.838
970.0530, 1313.624
970.5351, 1310.924
971.0172, 1282.307
971.4993, 1264.550
971.9814, 1280.518
972.4636, 1302.423
972.9457, 1305.030
973.4278, 1292.397
973.9099, 1283.090
974.3920, 1281.236
974.8741, 1277.628
975.3563, 1264.577
975.8384, 1257.022
976.3205, 1266.232
976.8026, 1280.350
977.2847, 1288.577
977.7668, 1290.262
978.2490, 1287.266
978.7311, 1277.536
979.2132, 1268.122
979.6953, 1257.937
980.1774, 1251.620
980.6595, 1252.373
981.1417, 1257.910
981.6238, 1269.695
982.1059, 1284.999
982.5880, 1288.045
983.0701, 1264.109
983.5522, 1246.700
984.0344, 1253.157
984.5165, 1261.941
984.9986, 1256.174
985.4807, 1246.004
985.9628, 1248.814
986.4449, 1264.667
986.9271, 1274.149
987.4092, 1267.491
987.8913, 1259.055
988.3734, 1252.020
988.8555, 1247.341
989.3376, 1245.937
989.8198, 1247.212
990.3019, 1252.314
990.7840, 1260.435
991.2661, 1262.614
991.7482, 1247.340
992.2303, 1236.773
992.7125, 1249.292
993.1946, 1261.672
993.6767, 1248.782
994.1588, 1225.380
994.6409, 1219.817
995.1230, 1236.116
995.6052, 1252.171
996.0873, 1260.214
996.5694, 1263.962
997.0515, 1263.091
997.5336, 1260.544
998.0157, 1256.708
998.4979, 1253.862
998.9800, 1258.081
999.4621, 1269.786
999.9442, 1274.417
1000.426, 1255.768
1000.908, 1241.086
1001.391, 1249.338
1001.873, 1262.546
1002.355, 1265.978
1002.837, 1261.801
1003.319, 1255.064
1003.801, 1247.234
1004.283, 1244.621
1004.765, 1253.284
1005.247, 1263.658
1005.730, 1272.124
1006.212, 1279.121
1006.694, 1286.724
1007.176, 1292.691
1007.658, 1291.765
1008.140, 1282.977
1008.622, 1274.272
1009.104, 1265.805
1009.587, 1262.387
1010.069, 1272.690
1010.551, 1283.493
1011.033, 1281.584
1011.515, 1271.630
1011.997, 1262.799
1012.479, 1257.219
1012.961, 1257.638
1013.443, 1271.574
1013.926, 1283.486
1014.408, 1286.086
1014.890, 1283.630
1015.372, 1274.703
1015.854, 1265.418
1016.336, 1269.755
1016.818, 1290.115
1017.300, 1300.287
1017.783, 1281.678
1018.265, 1262.902
1018.747, 1257.057
1019.229, 1254.775
1019.711, 1248.305
1020.193, 1239.933
1020.675, 1234.950
1021.157, 1234.247
1021.639, 1234.260
1022.122, 1230.449
1022.604, 1231.838
1023.086, 1253.594
1023.568, 1269.948
1024.050, 1251.723
1024.532, 1219.369
1025.014, 1212.001
1025.496, 1234.511
1025.979, 1247.175
1026.461, 1226.196
1026.943, 1213.394
1027.425, 1231.545
1027.907, 1250.268
1028.389, 1243.762
1028.871, 1227.960
1029.353, 1231.805
1029.835, 1257.513
1030.318, 1274.648
1030.800, 1273.374
1031.282, 1269.778
1031.764, 1263.872
1032.246, 1259.942
1032.728, 1262.827
1033.210, 1267.744
1033.692, 1266.961
1034.174, 1260.382
1034.657, 1257.480
1035.139, 1261.214
1035.621, 1265.565
1036.103, 1275.109
1036.585, 1279.122
1037.067, 1264.681
1037.549, 1247.130
1038.031, 1247.012
1038.514, 1263.510
1038.996, 1275.852
1039.478, 1284.332
1039.960, 1287.858
1040.442, 1282.915
1040.924, 1277.710
1041.406, 1274.851
1041.888, 1273.516
1042.370, 1272.212
1042.853, 1271.464
1043.335, 1275.806
1043.817, 1294.386
1044.299, 1296.287
1044.781, 1270.564
1045.263, 1248.222
1045.745, 1238.832
1046.227, 1238.367
1046.709, 1244.994
1047.192, 1256.610
1047.674, 1264.898
1048.156, 1269.383
1048.638, 1272.287
1049.120, 1273.979
1049.602, 1273.177
1050.084, 1270.013
1050.566, 1261.524
1051.049, 1240.695
1051.531, 1218.838
1052.013, 1232.451
1052.495, 1289.158
1052.977, 1307.152
1053.459, 1279.451
1053.941, 1258.052
1054.423, 1255.797
1054.906, 1260.445
1055.388, 1264.443
1055.870, 1266.910
1056.352, 1266.090
1056.834, 1262.069
1057.316, 1254.974
1057.798, 1244.796
1058.280, 1239.698
1058.762, 1241.257
1059.245, 1246.016
1059.727, 1252.248
1060.209, 1258.804
1060.691, 1264.185
1061.173, 1268.460
1061.655, 1273.677
1062.137, 1278.446
1062.619, 1269.808
1063.101, 1248.937
1063.584, 1243.370
1064.066, 1265.178
1064.548, 1288.320
1065.030, 1283.355
1065.512, 1263.088
1065.994, 1249.271
1066.476, 1242.022
1066.958, 1245.890
1067.441, 1257.018
1067.923, 1259.650
1068.405, 1249.407
1068.887, 1237.664
1069.369, 1231.570
1069.851, 1232.120
1070.333, 1248.210
1070.815, 1266.536
1071.297, 1263.526
1071.780, 1246.828
1072.262, 1235.233
1072.744, 1233.199
1073.226, 1237.526
1073.708, 1248.925
1074.190, 1258.743
1074.672, 1259.407
1075.154, 1256.504
1075.636, 1254.200
1076.119, 1252.365
1076.601, 1249.265
1077.083, 1245.852
1077.565, 1246.564
1078.047, 1253.987
1078.529, 1260.420
1079.011, 1261.160
1079.494, 1261.502
1079.976, 1267.472
1080.458, 1271.773
1080.940, 1261.882
1081.422, 1245.550
1081.904, 1245.411
1082.386, 1268.464
1082.868, 1281.965
1083.350, 1270.503
1083.833, 1262.048
1084.315, 1265.337
1084.797, 1271.913
1085.279, 1280.554
1085.761, 1287.004
1086.243, 1282.492
1086.725, 1266.576
1087.207, 1256.967
1087.689, 1254.896
1088.172, 1257.087
1088.654, 1267.963
1089.136, 1274.271
1089.618, 1269.057
1090.100, 1258.855
1090.582, 1250.565
1091.064, 1243.813
1091.546, 1236.180
1092.029, 1226.520
1092.511, 1222.573
1092.993, 1225.137
1093.475, 1230.901
1093.957, 1239.493
1094.439, 1247.680
1094.921, 1253.225
1095.403, 1255.583
1095.885, 1251.728
1096.368, 1242.785
1096.850, 1242.193
1097.332, 1248.750
1097.814, 1247.392
1098.296, 1235.981
1098.778, 1226.020
1099.260, 1223.665
1099.742, 1227.465
1100.224, 1240.452
1100.707, 1254.360
1101.189, 1245.985
1101.671, 1226.453
1102.153, 1223.620
1102.635, 1236.370
1103.117, 1250.416
1103.599, 1260.300
1104.081, 1263.176
1104.564, 1253.374
1105.046, 1242.632
1105.528, 1243.909
1106.010, 1249.041
1106.492, 1248.565
1106.974, 1245.086
1107.456, 1245.368
1107.938, 1249.089
1108.421, 1248.648
1108.903, 1239.506
1109.385, 1231.289
1109.867, 1226.869
1110.349, 1226.255
1110.831, 1234.636
1111.313, 1242.416
1111.795, 1234.999
1112.277, 1220.120
1112.760, 1222.441
1113.242, 1249.903
1113.724, 1264.011
1114.206, 1252.763
1114.688, 1239.721
1115.170, 1219.384
1115.652, 1210.590
1116.134, 1233.861
1116.616, 1263.585
1117.099, 1260.350
1117.581, 1228.562
1118.063, 1222.392
1118.545, 1252.858
1119.027, 1261.327
1119.509, 1238.512
1119.991, 1220.260
1120.473, 1218.806
1120.956, 1224.939
1121.438, 1231.646
1121.920, 1237.534
1122.402, 1238.552
1122.884, 1235.448
1123.366, 1234.717
1123.848, 1235.906
1124.330, 1234.554
1124.813, 1230.071
1125.295, 1224.758
1125.777, 1219.748
1126.259, 1217.806
1126.741, 1223.973
1127.223, 1233.151
1127.705, 1240.950
1128.187, 1243.832
1128.669, 1227.024
1129.151, 1201.453
1129.634, 1199.098
1130.116, 1225.284
1130.598, 1251.238
1131.080, 1265.571
1131.562, 1266.177
1132.044, 1235.973
1132.526, 1208.556
1133.008, 1215.665
1133.491, 1235.924
1133.973, 1242.181
1134.455, 1236.181
1134.937, 1235.385
1135.419, 1245.960
1135.901, 1248.109
1136.383, 1226.213
1136.865, 1213.497
1137.348, 1226.008
1137.830, 1240.511
1138.312, 1246.431
1138.794, 1244.673
1139.276, 1234.283
1139.758, 1216.324
1140.240, 1208.219
1140.722, 1211.799
1141.204, 1216.564
1141.687, 1221.592
1142.169, 1230.835
1142.651, 1247.163
1143.133, 1256.885
1143.615, 1247.027
1144.097, 1229.042
1144.579, 1227.683
1145.061, 1238.661
1145.543, 1242.899
1146.026, 1241.189
1146.508, 1238.397
1146.990, 1234.767
1147.472, 1223.780
1147.954, 1203.098
1148.436, 1190.647
1148.918, 1210.288
1149.400, 1234.996
1149.883, 1234.728
1150.365, 1222.591
1150.847, 1207.870
1151.329, 1196.949
1151.811, 1201.849
1152.293, 1220.701
1152.775, 1234.465
1153.257, 1235.534
1153.740, 1234.154
1154.222, 1234.772
1154.704, 1232.404
1155.186, 1217.821
1155.668, 1206.031
1156.150, 1213.897
1156.632, 1232.016
1157.114, 1239.512
1157.596, 1235.639
1158.078, 1236.341
1158.561, 1246.561
1159.043, 1245.110
1159.525, 1224.309
1160.007, 1212.763
1160.489, 1224.354
1160.971, 1237.167
1161.453, 1228.722
1161.935, 1210.851
1162.418, 1215.541
1162.900, 1237.822
1163.382, 1246.336
1163.864, 1241.627
1164.346, 1225.502
1164.828, 1201.718
1165.310, 1190.344
1165.792, 1200.379
1166.275, 1214.553
1166.757, 1218.543
1167.239, 1216.973
1167.721, 1213.726
1168.203, 1208.944
1168.685, 1195.446
1169.167, 1184.162
1169.649, 1200.809
1170.131, 1241.381
1170.614, 1267.335
1171.096, 1265.048
1171.578, 1254.287
1172.060, 1230.255
1172.542, 1212.680
1173.024, 1209.127
1173.506, 1214.167
1173.988, 1229.868
1174.470, 1247.228
1174.953, 1250.957
1175.435, 1241.699
1175.917, 1234.402
1176.399, 1228.688
1176.881, 1227.688
1177.363, 1232.787
1177.845, 1232.885
1178.327, 1223.595
1178.810, 1219.280
1179.292, 1232.439
1179.774, 1249.403
1180.256, 1246.143
1180.738, 1228.638
1181.220, 1205.928
1181.702, 1185.356
1182.184, 1190.729
1182.667, 1216.918
1183.149, 1240.039
1183.631, 1251.629
1184.113, 1251.972
1184.595, 1235.403
1185.077, 1220.032
1185.559, 1219.736
1186.041, 1222.867
1186.523, 1222.679
1187.005, 1219.784
1187.488, 1210.768
1187.970, 1200.710
1188.452, 1207.287
1188.934, 1238.325
1189.416, 1249.548
1189.898, 1231.227
1190.380, 1210.528
1190.862, 1182.600
1191.345, 1173.616
1191.827, 1201.442
1192.309, 1232.046
1192.791, 1229.020
1193.273, 1207.118
1193.755, 1207.047
1194.237, 1225.115
1194.719, 1236.419
1195.202, 1240.867
1195.684, 1238.777
1196.166, 1231.882
1196.648, 1228.232
1197.130, 1231.130
1197.612, 1235.633
1198.094, 1239.076
1198.576, 1240.148
1199.058, 1236.667
1199.541, 1231.121
1200.023, 1222.948
1200.505, 1216.326
1200.987, 1222.244
1201.469, 1234.948
1201.951, 1227.430
1202.433, 1185.223
1202.915, 1169.140
1203.397, 1213.747
1203.880, 1241.556
1204.362, 1239.164
1204.844, 1224.714
1205.326, 1201.506
1205.808, 1180.048
1206.290, 1171.988
1206.772, 1174.176
1207.254, 1176.574
1207.737, 1179.582
1208.219, 1189.141
1208.701, 1204.395
1209.183, 1219.559
1209.665, 1233.114
1210.147, 1243.989
1210.629, 1251.643
1211.111, 1252.685
1211.594, 1241.394
1212.076, 1227.431
1212.558, 1214.366
1213.040, 1208.825
1213.522, 1223.378
1214.004, 1245.732
1214.486, 1264.051
1214.968, 1273.916
1215.450, 1263.794
1215.932, 1223.670
1216.415, 1208.818
1216.897, 1247.289
1217.379, 1270.117
1217.861, 1266.573
1218.343, 1252.973
1218.825, 1232.657
1219.307, 1213.258
1219.789, 1201.363
1220.272, 1197.134
1220.754, 1202.164
1221.236, 1215.257
1221.718, 1230.242
1222.200, 1246.274
1222.682, 1260.215
1223.164, 1271.120
1223.646, 1278.212
1224.129, 1280.949
1224.611, 1276.375
1225.093, 1259.497
1225.575, 1241.983
1226.057, 1229.025
1226.539, 1222.508
1227.021, 1228.718
1227.503, 1238.178
1227.985, 1240.473
1228.468, 1237.955
1228.950, 1238.972
1229.432, 1244.436
1229.914, 1243.942
1230.396, 1232.879
1230.878, 1230.088
##END=



