##NAMES=Nickelskutterudite
##RRUFFID=R061007
##IDEAL CHEMISTRY=(Ni^4+^,Co^3+^,Fe^3+^)As_3_
##LOCALITY=Hasserode, Harz, Germany
##OWNER=RRUFF
##SOURCE=Michael Scott
##DESCRIPTION=Aggregate of silver-gray cubes, some tarnished to a brassy color
##STATUS=The identification of this mineral is confirmed by single-crystal X-ray diffraction and chemical analysis.
##URL=rruff.info/R061007
##MEASURED CHEMISTRY=(Ni_0.48_Co_0.36_Fe_0.13_)_Σ=0.97_(As_2.79_S_0.21_)_Σ=3.00_
170.6368, 82.14192
171.1189, 81.09653
171.6010, 80.38982
172.0831, 80.38254
172.5652, 80.90054
173.0474, 81.55606
173.5295, 82.61492
174.0116, 83.31058
174.4937, 82.62106
174.9758, 80.54934
175.4579, 79.16649
175.9401, 80.06558
176.4222, 81.80942
176.9043, 82.80627
177.3864, 82.60757
177.8685, 82.00748
178.3506, 82.04957
178.8328, 82.92104
179.3149, 83.77426
179.7970, 84.55132
180.2791, 85.08099
180.7612, 85.09655
181.2433, 84.44627
181.7255, 83.45353
182.2076, 82.76427
182.6897, 82.31670
183.1718, 82.35949
183.6539, 83.34293
184.1360, 84.58618
184.6181, 85.34348
185.1003, 85.23492
185.5824, 84.52730
186.0645, 84.15678
186.5466, 84.17348
187.0287, 84.53381
187.5108, 85.59415
187.9930, 86.88777
188.4751, 87.82362
188.9572, 88.05669
189.4393, 87.70881
189.9214, 87.44088
190.4035, 86.84229
190.8857, 86.77783
191.3678, 87.99976
191.8499, 89.82729
192.3320, 90.99852
192.8141, 90.65157
193.2962, 89.08289
193.7784, 88.63166
194.2605, 90.00153
194.7426, 91.43908
195.2247, 92.54794
195.7068, 93.27937
196.1889, 93.49551
196.6711, 92.95242
197.1532, 91.87910
197.6353, 91.44754
198.1174, 91.96410
198.5995, 92.75953
199.0816, 93.70187
199.5638, 94.72261
200.0459, 95.33979
200.5280, 95.10650
201.0101, 94.28301
201.4922, 93.74838
201.9743, 93.77351
202.4565, 93.84908
202.9386, 93.48177
203.4207, 92.65800
203.9028, 91.85493
204.3849, 91.12880
204.8670, 90.67566
205.3492, 90.85931
205.8313, 92.03503
206.3134, 93.49696
206.7955, 94.36381
207.2776, 94.54271
207.7597, 94.55479
208.2419, 94.98569
208.7240, 95.23997
209.2061, 94.53371
209.6882, 92.37840
210.1703, 89.64747
210.6524, 87.90505
211.1346, 87.54488
211.6167, 87.20390
212.0988, 86.34586
212.5809, 85.34121
213.0630, 84.56262
213.5451, 84.18354
214.0273, 84.01896
214.5094, 83.62241
214.9915, 82.74071
215.4736, 82.09647
215.9557, 81.97102
216.4378, 82.04597
216.9200, 82.02991
217.4021, 81.79665
217.8842, 81.37539
218.3663, 80.83279
218.8484, 79.99787
219.3305, 79.29350
219.8127, 79.00662
220.2948, 78.76928
220.7769, 78.03520
221.2590, 76.55436
221.7411, 74.76796
222.2232, 73.99119
222.7054, 75.35368
223.1875, 76.45902
223.6696, 77.06398
224.1517, 77.37949
224.6338, 77.67601
225.1159, 78.07703
225.5980, 78.47820
226.0802, 78.57039
226.5623, 77.77927
227.0444, 77.36205
227.5265, 77.78184
228.0086, 78.52110
228.4907, 78.81070
228.9729, 78.29928
229.4550, 77.42444
229.9371, 77.37536
230.4192, 78.96216
230.9013, 80.06150
231.3834, 79.94823
231.8656, 79.23943
232.3477, 78.83434
232.8298, 79.08170
233.3119, 79.75589
233.7940, 80.43560
234.2761, 81.19804
234.7583, 81.79201
235.2404, 82.19249
235.7225, 82.37672
236.2046, 82.22709
236.6867, 81.61634
237.1688, 80.87758
237.6510, 80.66296
238.1331, 81.04713
238.6152, 81.33398
239.0973, 80.97509
239.5794, 80.37210
240.0615, 80.58513
240.5437, 82.25099
241.0258, 84.06326
241.5079, 84.03118
241.9900, 82.19218
242.4721, 80.57837
242.9542, 80.36784
243.4364, 81.02882
243.9185, 81.16988
244.4006, 80.40324
244.8827, 79.27136
245.3648, 78.25272
245.8469, 77.34143
246.3290, 76.55973
246.8112, 76.01140
247.2933, 75.61271
247.7754, 75.08909
248.2575, 74.37737
248.7396, 73.58078
249.2217, 72.70542
249.7039, 71.79722
250.1860, 71.03456
250.6681, 70.76646
251.1502, 70.76653
251.6323, 70.07106
252.1144, 68.13255
252.5966, 66.33755
253.0787, 65.64633
253.5608, 65.69909
254.0429, 65.67848
254.5250, 65.00168
255.0071, 63.88774
255.4893, 63.22675
255.9714, 63.32536
256.4535, 63.40203
256.9356, 63.07618
257.4177, 62.50252
257.8998, 61.90249
258.3820, 61.32203
258.8641, 60.83899
259.3462, 60.78971
259.8283, 61.54307
260.3104, 62.12459
260.7925, 62.29925
261.2747, 62.12673
261.7568, 61.62219
262.2389, 60.71779
262.7210, 59.62150
263.2031, 58.95428
263.6852, 58.97330
264.1674, 59.00710
264.6495, 59.03126
265.1316, 58.93359
265.6137, 58.47138
266.0958, 57.50783
266.5779, 56.42370
267.0601, 56.19164
267.5422, 57.39503
268.0243, 58.43935
268.5064, 59.22816
268.9885, 59.71489
269.4706, 59.77116
269.9528, 59.36588
270.4349, 58.72594
270.9170, 58.27053
271.3991, 58.04200
271.8812, 57.94225
272.3633, 57.90205
272.8455, 57.99765
273.3276, 58.43003
273.8097, 59.18977
274.2918, 59.91631
274.7739, 59.97020
275.2560, 58.72351
275.7382, 58.16077
276.2202, 58.92301
276.7024, 59.74371
277.1845, 59.60486
277.6666, 58.49773
278.1487, 57.36786
278.6308, 57.51274
279.1129, 59.69709
279.5951, 60.45269
280.0772, 58.34457
280.5593, 56.30381
281.0414, 56.13184
281.5235, 57.64970
282.0056, 59.36773
282.4878, 59.80158
282.9699, 58.69144
283.4520, 58.19264
283.9341, 58.91107
284.4162, 59.55937
284.8983, 59.65139
285.3805, 59.22974
285.8626, 58.52473
286.3447, 57.67766
286.8268, 56.69702
287.3089, 55.90528
287.7910, 55.54437
288.2732, 55.09991
288.7553, 54.06156
289.2374, 52.85526
289.7195, 52.36798
290.2016, 53.19295
290.6837, 55.03872
291.1659, 56.30433
291.6480, 56.49166
292.1301, 56.67693
292.6122, 57.38364
293.0943, 58.10277
293.5764, 57.85316
294.0586, 56.13857
294.5407, 53.78172
295.0228, 53.01198
295.5049, 56.06960
295.9870, 58.02394
296.4691, 58.22255
296.9513, 57.44220
297.4334, 56.31000
297.9155, 55.06389
298.3976, 53.91691
298.8797, 53.23840
299.3618, 53.28903
299.8440, 53.38729
300.3261, 53.53207
300.8082, 53.72261
301.2903, 53.99016
301.7724, 54.32746
302.2545, 54.66685
302.7367, 54.95443
303.2188, 55.23771
303.7009, 55.19763
304.1830, 54.53700
304.6651, 53.82561
305.1472, 53.26776
305.6294, 52.95244
306.1115, 53.13752
306.5936, 54.21953
307.0757, 56.30619
307.5578, 56.85774
308.0399, 54.76780
308.5221, 52.53980
309.0042, 51.09107
309.4863, 50.38404
309.9684, 50.20736
310.4505, 50.50194
310.9326, 51.15527
311.4148, 51.35551
311.8969, 50.45880
312.3790, 49.92268
312.8611, 50.41513
313.3432, 51.43828
313.8253, 52.17506
314.3075, 52.24384
314.7896, 51.87629
315.2717, 51.66491
315.7538, 52.00183
316.2359, 51.92244
316.7180, 50.99303
317.2001, 49.76661
317.6823, 48.84545
318.1644, 48.40007
318.6465, 48.20469
319.1286, 47.89540
319.6107, 47.24076
320.0928, 47.10703
320.5750, 47.97841
321.0571, 49.01994
321.5392, 49.60746
322.0213, 49.66920
322.5034, 49.49572
322.9855, 49.36031
323.4677, 49.26892
323.9498, 49.16463
324.4319, 49.14270
324.9140, 49.02374
325.3961, 48.55249
325.8782, 47.87567
326.3604, 47.46705
326.8425, 47.72272
327.3246, 48.54260
327.8067, 48.77248
328.2888, 47.80627
328.7709, 47.02715
329.2531, 46.94990
329.7352, 47.26426
330.2173, 47.41044
330.6994, 47.11134
331.1815, 46.58850
331.6636, 46.44223
332.1458, 47.30186
332.6279, 47.76360
333.1100, 47.78953
333.5921, 47.39722
334.0742, 46.27162
334.5563, 44.42741
335.0385, 42.72732
335.5206, 42.54123
336.0027, 44.87457
336.4848, 46.14495
336.9669, 45.66353
337.4490, 44.79558
337.9312, 44.37764
338.4133, 44.46730
338.8954, 44.69250
339.3775, 44.71324
339.8596, 44.51200
340.3417, 44.32166
340.8239, 44.15135
341.3060, 43.98109
341.7881, 43.79036
342.2702, 43.59433
342.7523, 43.42941
343.2344, 43.32142
343.7166, 43.25506
344.1987, 43.15720
344.6808, 42.87754
345.1629, 42.74525
345.6450, 42.87849
346.1271, 43.13956
346.6093, 43.43817
347.0914, 43.72735
347.5735, 43.90460
348.0556, 43.74812
348.5377, 42.99447
349.0198, 42.37063
349.5020, 41.90550
349.9841, 41.52907
350.4662, 41.17482
350.9483, 40.85091
351.4304, 40.63526
351.9125, 40.61168
352.3947, 40.78595
352.8768, 41.11812
353.3589, 41.98513
353.8410, 42.63507
354.3231, 42.63534
354.8052, 42.21048
355.2874, 41.88401
355.7695, 42.04932
356.2516, 42.56485
356.7337, 42.59075
357.2158, 41.49498
357.6979, 40.76869
358.1800, 40.88809
358.6621, 41.39935
359.1443, 41.75950
359.6264, 41.76305
360.1085, 41.70128
360.5906, 42.29218
361.0727, 44.22646
361.5548, 44.96225
362.0370, 43.14427
362.5191, 40.96903
363.0012, 39.71400
363.4833, 39.50935
363.9654, 39.78976
364.4475, 40.04418
364.9297, 40.26731
365.4118, 40.57323
365.8939, 41.30713
366.3760, 41.72023
366.8581, 41.11361
367.3402, 39.99013
367.8224, 39.42107
368.3045, 40.22594
368.7866, 41.85670
369.2687, 42.72451
369.7508, 42.72464
370.2329, 42.13619
370.7151, 40.48524
371.1972, 38.61376
371.6793, 37.31612
372.1614, 36.84046
372.6435, 36.89677
373.1256, 37.37283
373.6078, 38.33339
374.0899, 38.73796
374.5720, 37.72650
375.0541, 36.66133
375.5362, 36.69574
376.0183, 37.74823
376.5005, 38.75103
376.9826, 38.90526
377.4647, 38.43378
377.9468, 38.20522
378.4289, 38.41646
378.9110, 38.54258
379.3932, 38.00375
379.8753, 37.14574
380.3574, 36.64347
380.8395, 36.78828
381.3216, 37.30568
381.8037, 38.04731
382.2859, 39.02779
382.7680, 39.60133
383.2501, 39.32415
383.7322, 38.55317
384.2143, 37.83021
384.6964, 37.09151
385.1786, 36.67691
385.6607, 37.01600
386.1428, 37.83783
386.6249, 38.45234
387.1070, 38.71753
387.5891, 38.68766
388.0713, 38.18285
388.5534, 37.25876
389.0355, 36.80656
389.5176, 37.49705
389.9997, 38.43595
390.4818, 38.80679
390.9640, 38.55928
391.4461, 37.78812
391.9282, 36.25362
392.4103, 34.28953
392.8924, 33.56124
393.3745, 35.10172
393.8567, 36.63071
394.3388, 37.18469
394.8209, 37.10678
395.3030, 37.06014
395.7851, 37.29947
396.2672, 37.61708
396.7494, 37.61074
397.2315, 36.99641
397.7136, 36.75167
398.1957, 37.48457
398.6778, 38.22142
399.1599, 37.89694
399.6420, 36.57063
400.1241, 35.37862
400.6063, 35.41526
401.0884, 36.73838
401.5705, 37.29791
402.0526, 36.61841
402.5347, 35.82321
403.0168, 34.99398
403.4990, 34.32767
403.9811, 34.12512
404.4632, 34.53376
404.9453, 35.38572
405.4274, 36.31974
405.9095, 37.66920
406.3917, 38.49212
406.8738, 38.57200
407.3559, 38.31546
407.8380, 37.94035
408.3201, 37.51422
408.8022, 37.04480
409.2844, 36.44497
409.7665, 35.67242
410.2486, 35.53693
410.7307, 36.96898
411.2128, 38.03568
411.6949, 37.96473
412.1771, 37.19627
412.6592, 36.47953
413.1413, 36.19961
413.6234, 36.11499
414.1055, 35.62946
414.5876, 34.50420
415.0698, 33.70333
415.5519, 33.78987
416.0340, 34.05950
416.5161, 33.91309
416.9982, 33.32168
417.4803, 32.95487
417.9625, 33.73090
418.4446, 35.39239
418.9267, 36.05462
419.4088, 35.06774
419.8909, 34.01178
420.3730, 33.92268
420.8552, 34.50008
421.3373, 35.20127
421.8194, 35.98471
422.3015, 36.66815
422.7836, 37.19692
423.2657, 37.56162
423.7479, 37.06269
424.2300, 34.74131
424.7121, 32.02152
425.1942, 31.17995
425.6763, 32.52528
426.1584, 34.06095
426.6406, 35.19590
427.1227, 35.89473
427.6048, 35.95233
428.0869, 35.29725
428.5690, 34.50976
429.0511, 34.08215
429.5333, 34.03725
430.0154, 34.10296
430.4975, 34.43241
430.9796, 34.72746
431.4617, 34.92604
431.9438, 34.96095
432.4260, 34.53435
432.9081, 33.41763
433.3902, 32.12022
433.8723, 31.90849
434.3544, 34.09139
434.8365, 35.18303
435.3187, 33.87692
435.8008, 32.23024
436.2829, 32.10042
436.7650, 33.56946
437.2471, 35.41398
437.7292, 36.55000
438.2114, 36.97583
438.6935, 36.89968
439.1756, 35.78704
439.6577, 34.75852
440.1398, 33.77843
440.6219, 33.12680
441.1040, 33.38758
441.5862, 34.79765
442.0683, 36.52461
442.5504, 36.89416
443.0325, 35.29301
443.5146, 34.22305
443.9967, 34.14087
444.4789, 34.44118
444.9610, 35.16394
445.4431, 36.07475
445.9252, 36.52087
446.4073, 35.77739
446.8894, 34.22994
447.3716, 33.40601
447.8537, 33.53075
448.3358, 33.82209
448.8179, 34.32177
449.3000, 34.63987
449.7821, 34.14508
450.2643, 32.52284
450.7464, 30.96802
451.2285, 30.66431
451.7106, 31.37719
452.1927, 31.91749
452.6748, 31.95887
453.1570, 31.96445
453.6391, 32.55837
454.1212, 33.58904
454.6033, 34.32311
455.0854, 34.43232
455.5675, 34.28904
456.0497, 34.20885
456.5318, 34.18279
457.0139, 34.06605
457.4960, 33.73627
457.9781, 33.32869
458.4602, 33.23680
458.9424, 33.59297
459.4245, 33.92497
459.9066, 34.26860
460.3887, 34.48254
460.8708, 34.38265
461.3529, 33.96238
461.8351, 33.37025
462.3172, 32.68440
462.7993, 31.89105
463.2814, 31.58735
463.7635, 32.11926
464.2456, 32.70572
464.7278, 33.26756
465.2099, 33.73189
465.6920, 33.97509
466.1741, 33.95816
466.6562, 33.84735
467.1383, 34.03456
467.6205, 34.86369
468.1026, 34.91031
468.5847, 33.24014
469.0668, 31.57074
469.5489, 30.43265
470.0310, 29.93396
470.5132, 30.23209
470.9953, 31.70885
471.4774, 33.77232
471.9595, 34.88435
472.4416, 34.88862
472.9237, 34.51416
473.4059, 33.57475
473.8880, 32.63302
474.3701, 32.23628
474.8522, 32.45750
475.3343, 32.87538
475.8164, 33.30431
476.2986, 33.72058
476.7807, 34.13144
477.2628, 34.58181
477.7449, 34.77195
478.2270, 34.36983
478.7091, 33.49226
479.1913, 32.69622
479.6734, 31.89961
480.1555, 31.31206
480.6376, 31.13731
481.1197, 31.24127
481.6018, 31.33240
482.0839, 31.31248
482.5660, 31.30669
483.0482, 31.52099
483.5303, 32.08429
484.0124, 32.37142
484.4945, 31.93405
484.9766, 31.65660
485.4587, 32.28416
485.9409, 33.45945
486.4230, 34.24733
486.9051, 34.10517
487.3872, 33.36140
487.8693, 32.98080
488.3514, 33.24214
488.8336, 33.34177
489.3157, 33.29065
489.7978, 33.03434
490.2799, 32.32420
490.7620, 31.30259
491.2441, 30.52768
491.7263, 30.45728
492.2084, 31.00517
492.6905, 31.86566
493.1726, 33.31664
493.6547, 34.40499
494.1368, 34.53892
494.6190, 34.20198
495.1011, 33.75272
495.5832, 33.21259
496.0653, 32.88517
496.5474, 33.24368
497.0295, 34.00834
497.5117, 34.18393
497.9938, 33.45591
498.4759, 32.87072
498.9580, 33.59190
499.4401, 35.27786
499.9222, 36.07005
500.4044, 35.15473
500.8865, 34.05023
501.3686, 33.67934
501.8507, 33.66626
502.3328, 32.97963
502.8149, 31.23091
503.2971, 29.56771
503.7792, 29.78543
504.2613, 32.83132
504.7434, 34.31320
505.2255, 32.95830
505.7076, 31.47589
506.1898, 31.19900
506.6719, 31.78505
507.1540, 32.37626
507.6361, 32.52937
508.1182, 32.36775
508.6003, 32.13944
509.0825, 31.76240
509.5646, 31.53940
510.0467, 31.74368
510.5288, 31.90077
511.0109, 31.56730
511.4930, 30.91130
511.9752, 30.58447
512.4573, 31.18559
512.9394, 32.26547
513.4215, 32.79036
513.9036, 32.70757
514.3857, 32.37737
514.8679, 31.57779
515.3500, 30.87385
515.8321, 31.13256
516.3142, 32.50782
516.7963, 33.57278
517.2784, 33.49828
517.7606, 32.85635
518.2427, 32.26525
518.7248, 31.81662
519.2069, 31.94094
519.6890, 33.22060
520.1711, 35.20210
520.6533, 35.52470
521.1354, 32.66970
521.6175, 30.45702
522.0996, 29.79366
522.5817, 29.90251
523.0638, 30.09091
523.5460, 30.21017
524.0281, 30.42602
524.5102, 30.92969
524.9923, 31.70592
525.4744, 32.28901
525.9565, 33.06425
526.4387, 33.07094
526.9208, 31.37943
527.4029, 29.25121
527.8850, 28.00670
528.3671, 27.97158
528.8492, 28.51076
529.3314, 29.06411
529.8135, 29.63357
530.2956, 30.30272
530.7777, 31.22784
531.2598, 31.93166
531.7419, 32.03045
532.2241, 31.72923
532.7062, 31.25146
533.1883, 30.40085
533.6704, 29.86359
534.1525, 30.43888
534.6346, 31.64437
535.1168, 32.30571
535.5989, 32.13315
536.0810, 31.66567
536.5631, 31.44044
537.0452, 31.47143
537.5273, 31.31116
538.0095, 30.47309
538.4916, 30.00132
538.9737, 30.56985
539.4558, 31.65056
539.9379, 32.53251
540.4200, 32.96232
540.9022, 32.98921
541.3843, 32.55030
541.8664, 31.44111
542.3485, 31.03540
542.8306, 32.24763
543.3127, 33.18827
543.7948, 33.24090
544.2769, 32.64894
544.7590, 31.65174
545.2411, 30.24860
545.7233, 29.07822
546.2054, 29.26429
546.6875, 30.67937
547.1696, 31.31643
547.6517, 30.51344
548.1339, 29.56559
548.6160, 29.69463
549.0981, 30.56285
549.5802, 31.26511
550.0623, 31.53148
550.5444, 31.69549
551.0266, 31.98890
551.5087, 32.34129
551.9908, 32.61551
552.4729, 32.77356
552.9550, 32.78053
553.4371, 32.59269
553.9193, 32.19988
554.4014, 31.64209
554.8835, 30.33694
555.3656, 29.53013
555.8477, 29.96886
556.3298, 31.09240
556.8120, 32.17215
557.2941, 32.92387
557.7762, 33.28604
558.2583, 33.13708
558.7404, 32.44426
559.2225, 31.44363
559.7047, 29.30271
560.1868, 28.01662
560.6689, 29.35802
561.1510, 31.86860
561.6331, 32.90707
562.1152, 31.22687
562.5974, 29.18225
563.0795, 29.19178
563.5616, 30.68404
564.0437, 31.58733
564.5258, 31.46633
565.0079, 30.82657
565.4901, 29.96964
565.9722, 28.93083
566.4543, 28.24216
566.9364, 27.69522
567.4185, 27.72753
567.9006, 29.17757
568.3828, 31.05242
568.8649, 31.72885
569.3470, 30.88744
569.8291, 29.86938
570.3112, 30.38954
570.7933, 32.61004
571.2755, 33.43440
571.7576, 31.40193
572.2397, 29.77678
572.7218, 29.63782
573.2039, 30.14852
573.6860, 30.28609
574.1682, 29.80729
574.6503, 29.39306
575.1324, 29.90055
575.6145, 31.06216
576.0966, 31.65364
576.5787, 31.51766
577.0609, 31.13615
577.5430, 30.78212
578.0251, 30.37820
578.5072, 29.64826
578.9893, 28.07940
579.4714, 27.33078
579.9536, 28.74728
580.4357, 30.95893
580.9178, 32.33303
581.3999, 32.67862
581.8820, 32.65195
582.3641, 32.77283
582.8463, 32.92397
583.3284, 32.40966
583.8105, 30.61608
584.2926, 29.02106
584.7747, 27.23943
585.2568, 26.04944
585.7390, 26.46630
586.2211, 28.19314
586.7032, 29.74640
587.1853, 30.06868
587.6674, 29.46299
588.1495, 28.56232
588.6317, 27.24375
589.1138, 26.39065
589.5959, 26.32628
590.0780, 26.83937
590.5601, 27.83093
591.0422, 29.29160
591.5244, 30.38106
592.0065, 30.68127
592.4886, 30.62581
592.9707, 30.49034
593.4528, 30.32313
593.9349, 30.19622
594.4171, 30.13623
594.8992, 30.18699
595.3813, 30.50286
595.8634, 31.48602
596.3455, 31.49848
596.8276, 29.35039
597.3098, 27.61819
597.7919, 27.70447
598.2740, 28.86325
598.7561, 29.71907
599.2382, 29.70191
599.7203, 29.44443
600.2025, 29.99903
600.6846, 31.32681
601.1667, 31.79580
601.6488, 30.89220
602.1309, 29.82192
602.6130, 29.32407
603.0952, 29.26081
603.5773, 29.43509
604.0594, 29.93979
604.5415, 30.45473
605.0236, 30.85677
605.5057, 31.15215
605.9879, 31.37872
606.4700, 31.53085
606.9521, 31.49937
607.4342, 31.18210
607.9163, 30.60574
608.3984, 29.96015
608.8806, 29.13874
609.3627, 28.39829
609.8448, 27.48182
610.3269, 26.85756
610.8090, 27.01526
611.2911, 27.86908
611.7733, 28.90262
612.2554, 29.93383
612.7375, 30.74508
613.2196, 30.55091
613.7017, 29.19168
614.1838, 28.62498
614.6660, 30.00195
615.1481, 31.72620
615.6302, 31.60353
616.1123, 29.79026
616.5944, 28.76630
617.0765, 29.60789
617.5587, 30.85127
618.0408, 31.85280
618.5229, 32.45621
619.0050, 32.27258
619.4871, 31.18383
619.9692, 29.81269
620.4514, 28.99155
620.9335, 28.77740
621.4156, 28.65583
621.8977, 28.57845
622.3798, 28.66371
622.8619, 29.00580
623.3441, 29.49166
623.8262, 30.14129
624.3083, 30.93493
624.7904, 31.34112
625.2725, 30.47398
625.7546, 28.91659
626.2367, 28.44427
626.7188, 29.23832
627.2009, 30.00122
627.6830, 30.05931
628.1652, 29.66436
628.6473, 29.32638
629.1294, 28.94856
629.6115, 28.90080
630.0936, 30.04972
630.5757, 30.85352
631.0579, 29.42269
631.5400, 26.70221
632.0221, 25.34807
632.5042, 26.73761
632.9863, 29.56568
633.4684, 31.66694
633.9506, 33.20877
634.4327, 33.07305
634.9148, 29.32990
635.3969, 26.29445
635.8790, 26.62088
636.3611, 28.87843
636.8433, 30.62068
637.3254, 31.17578
637.8075, 31.32884
638.2896, 31.73134
638.7717, 32.10027
639.2538, 31.62140
639.7360, 30.23226
640.2181, 29.22820
640.7002, 29.63279
641.1823, 31.04307
641.6644, 31.82228
642.1465, 31.68609
642.6287, 31.25505
643.1108, 30.18701
643.5929, 29.12884
644.0750, 28.34299
644.5571, 27.94525
645.0392, 28.18458
645.5214, 29.34124
646.0035, 30.72303
646.4856, 30.99894
646.9677, 30.17470
647.4498, 29.70466
647.9319, 29.96345
648.4141, 30.36978
648.8962, 30.46226
649.3783, 30.30870
649.8604, 30.15802
650.3425, 29.96872
650.8246, 29.86673
651.3068, 30.10866
651.7889, 30.35714
652.2710, 30.02375
652.7531, 29.15262
653.2352, 28.47834
653.7173, 28.61259
654.1995, 29.33864
654.6816, 29.79663
655.1637, 30.07505
655.6458, 29.86697
656.1279, 28.31990
656.6100, 26.94625
657.0922, 26.72004
657.5743, 27.43782
658.0564, 28.31018
658.5385, 29.28475
659.0206, 29.94609
659.5027, 29.52950
659.9849, 28.48501
660.4670, 28.16620
660.9491, 28.89820
661.4312, 29.98562
661.9133, 30.91457
662.3954, 31.65068
662.8776, 31.69316
663.3597, 29.76904
663.8418, 28.82965
664.3239, 30.02587
664.8060, 31.65901
665.2881, 32.51193
665.7703, 32.46638
666.2524, 31.79093
666.7345, 30.31207
667.2166, 28.82070
667.6987, 29.20354
668.1808, 31.38636
668.6630, 32.41997
669.1451, 31.22794
669.6272, 29.63253
670.1093, 29.46347
670.5914, 30.60051
671.0735, 31.27628
671.5557, 31.34965
672.0378, 31.09856
672.5199, 29.98615
673.0020, 28.95839
673.4841, 29.40051
673.9662, 31.20199
674.4484, 32.85448
674.9305, 33.22396
675.4126, 32.53059
675.8947, 31.28323
676.3768, 29.17209
676.8589, 27.91354
677.3411, 28.27405
677.8232, 29.12765
678.3053, 29.47692
678.7874, 29.52154
679.2695, 30.03176
679.7516, 31.94208
680.2338, 33.39897
680.7159, 32.92010
681.1980, 31.43198
681.6801, 30.16642
682.1622, 29.43778
682.6443, 29.48777
683.1265, 30.69340
683.6086, 32.62215
684.0907, 33.06764
684.5728, 31.15190
685.0549, 29.67331
685.5370, 29.14580
686.0192, 29.03858
686.5013, 29.12802
686.9834, 29.39644
687.4655, 29.89037
687.9476, 30.79153
688.4297, 31.62217
688.9119, 31.99725
689.3940, 31.97208
689.8761, 31.51247
690.3582, 30.63148
690.8403, 29.92391
691.3224, 29.85365
691.8046, 30.32472
692.2867, 30.90328
692.7688, 31.94504
693.2509, 32.50610
693.7330, 32.13988
694.2151, 31.69344
694.6973, 31.76191
695.1794, 32.15723
695.6615, 32.32846
696.1436, 32.00809
696.6257, 31.49661
697.1078, 30.97362
697.5900, 30.52557
698.0721, 30.62012
698.5542, 31.37607
699.0363, 31.79816
699.5184, 31.00717
700.0005, 29.51773
700.4827, 29.17301
700.9648, 31.28366
701.4469, 32.39875
701.9290, 31.46991
702.4111, 30.48080
702.8932, 30.85084
703.3754, 32.03431
703.8575, 32.80502
704.3396, 32.65995
704.8217, 31.90610
705.3038, 30.31242
705.7859, 28.30322
706.2681, 28.36777
706.7502, 31.06113
707.2323, 33.24446
707.7144, 33.03014
708.1965, 31.32109
708.6786, 30.15779
709.1607, 29.70754
709.6428, 29.27534
710.1249, 28.24596
710.6071, 27.78880
711.0892, 29.26572
711.5713, 31.55960
712.0534, 32.67831
712.5355, 31.98580
713.0176, 30.71091
713.4998, 30.01665
713.9819, 29.89840
714.4640, 30.51148
714.9461, 32.01586
715.4282, 33.20868
715.9103, 33.55825
716.3925, 33.35368
716.8746, 32.96725
717.3567, 32.38854
717.8388, 31.76788
718.3209, 30.80420
718.8030, 30.14580
719.2852, 30.22953
719.7673, 30.74487
720.2494, 31.36877
720.7315, 31.96703
721.2136, 32.37083
721.6957, 32.34387
722.1779, 32.03738
722.6600, 32.09312
723.1421, 32.59544
723.6242, 32.66743
724.1063, 31.82440
724.5884, 30.83303
725.0706, 30.51009
725.5527, 30.81692
726.0348, 31.24195
726.5169, 31.93590
726.9990, 32.52794
727.4811, 32.93262
727.9633, 33.15063
728.4454, 33.12782
728.9275, 32.90255
729.4096, 32.62998
729.8917, 32.42715
730.3738, 32.21322
730.8560, 31.66779
731.3381, 30.76773
731.8202, 30.53985
732.3023, 31.47182
732.7844, 32.29093
733.2665, 31.75694
733.7487, 30.37678
734.2308, 30.11234
734.7129, 31.73841
735.1950, 33.00449
735.6771, 33.41276
736.1592, 33.33701
736.6414, 32.78249
737.1235, 32.02555
737.6056, 31.62289
738.0877, 31.82818
738.5698, 32.31588
739.0519, 32.73689
739.5341, 33.06996
740.0162, 33.08910
740.4983, 32.73523
740.9804, 32.26567
741.4625, 31.66914
741.9446, 31.14973
742.4268, 31.19047
742.9089, 31.95600
743.3910, 32.37801
743.8731, 32.04813
744.3552, 31.70524
744.8373, 31.59040
745.3195, 31.73576
745.8016, 32.32290
746.2837, 33.29772
746.7658, 34.06916
747.2479, 33.96859
747.7300, 33.34640
748.2122, 33.22665
748.6943, 33.61938
749.1764, 33.85053
749.6585, 33.75372
750.1406, 33.35019
750.6227, 32.42944
751.1049, 31.04353
751.5870, 30.68932
752.0691, 32.65610
752.5512, 33.82937
753.0333, 32.90380
753.5154, 31.56453
753.9976, 31.28725
754.4797, 31.91043
754.9618, 32.36683
755.4439, 32.05853
755.9260, 31.55524
756.4081, 31.73854
756.8903, 32.39144
757.3724, 32.50134
757.8545, 31.90879
758.3366, 31.44394
758.8187, 31.64704
759.3008, 32.27977
759.7830, 32.72769
760.2651, 32.72934
760.7472, 33.18100
761.2293, 35.11017
761.7114, 36.31455
762.1935, 35.32238
762.6757, 33.34027
763.1578, 31.92735
763.6399, 31.45087
764.1220, 31.42693
764.6041, 31.79665
765.0862, 32.24419
765.5684, 32.07349
766.0505, 31.47778
766.5326, 31.61348
767.0147, 32.89959
767.4968, 34.10949
767.9789, 33.74036
768.4611, 31.89705
768.9432, 31.15539
769.4253, 32.18702
769.9074, 33.17906
770.3895, 34.06224
770.8716, 34.64225
771.3538, 34.67304
771.8359, 34.27306
772.3180, 33.79783
772.8001, 33.25848
773.2822, 32.87892
773.7643, 32.95417
774.2465, 33.21490
774.7286, 33.14476
775.2107, 32.81012
775.6928, 32.92996
776.1749, 33.96417
776.6570, 35.13546
777.1392, 34.57540
777.6213, 31.79447
778.1034, 30.98225
778.5855, 33.21320
779.0676, 35.39434
779.5497, 36.13488
780.0319, 36.10743
780.5140, 36.13917
780.9961, 36.26191
781.4782, 36.26436
781.9603, 36.15247
782.4424, 35.84636
782.9246, 35.26226
783.4067, 34.46899
783.8888, 33.35922
784.3709, 32.05499
784.8530, 31.18941
785.3351, 31.29644
785.8173, 32.14260
786.2994, 33.38245
786.7815, 35.01340
787.2636, 36.04115
787.7457, 36.27118
788.2278, 35.85735
788.7100, 34.53133
789.1921, 32.73363
789.6742, 32.30126
790.1563, 34.42715
790.6384, 35.65799
791.1205, 34.74149
791.6026, 33.96492
792.0847, 35.27687
792.5668, 37.38203
793.0490, 37.71419
793.5311, 35.56168
794.0132, 33.52634
794.4953, 34.27627
794.9774, 36.29156
795.4595, 36.84776
795.9417, 36.09421
796.4238, 35.13271
796.9059, 34.28757
797.3880, 33.89750
797.8701, 34.44412
798.3522, 35.84290
798.8344, 36.68678
799.3165, 36.99749
799.7986, 36.71427
800.2807, 34.61583
800.7628, 33.01513
801.2449, 34.19088
801.7271, 36.93972
802.2092, 37.78242
802.6913, 35.03955
803.1734, 32.51817
803.6555, 32.27389
804.1376, 33.16855
804.6198, 34.40597
805.1019, 35.64740
805.5840, 36.28686
806.0661, 36.06783
806.5482, 35.59072
807.0303, 35.71006
807.5125, 36.33838
807.9946, 36.66865
808.4767, 36.70807
808.9588, 36.32866
809.4409, 35.16072
809.9230, 34.09980
810.4052, 34.37554
810.8873, 35.98600
811.3694, 36.77739
811.8515, 36.03300
812.3336, 35.45456
812.8157, 35.25721
813.2979, 35.44729
813.7800, 36.39423
814.2621, 37.70806
814.7442, 38.33611
815.2263, 37.71154
815.7084, 36.94978
816.1906, 37.41215
816.6727, 38.42643
817.1548, 38.45619
817.6369, 37.54299
818.1190, 36.79323
818.6011, 36.69441
819.0833, 37.02883
819.5654, 37.59881
820.0475, 38.43924
820.5296, 38.41570
821.0117, 36.95540
821.4938, 35.80094
821.9760, 35.47499
822.4581, 35.57041
822.9402, 35.87460
823.4223, 36.32852
823.9044, 36.68011
824.3865, 36.77358
824.8687, 36.92071
825.3508, 37.37051
825.8329, 37.83320
826.3150, 38.09881
826.7971, 38.11715
827.2792, 37.78310
827.7614, 37.04358
828.2435, 36.26319
828.7256, 35.83355
829.2077, 35.73512
829.6898, 36.03436
830.1719, 36.72718
830.6541, 37.07622
831.1362, 36.71809
831.6183, 36.26520
832.1004, 36.53320
832.5825, 37.50282
833.0646, 37.78207
833.5468, 36.52182
834.0289, 35.89735
834.5110, 36.76928
834.9931, 37.75145
835.4752, 38.01802
835.9573, 37.69484
836.4395, 37.13401
836.9216, 36.23728
837.4037, 35.74376
837.8858, 36.59041
838.3679, 37.61152
838.8500, 37.49172
839.3322, 36.51033
839.8143, 35.37493
840.2964, 34.40263
840.7785, 34.08375
841.2606, 35.34282
841.7427, 37.55190
842.2249, 37.93323
842.7070, 36.38817
843.1891, 35.41944
843.6712, 35.76657
844.1533, 36.38479
844.6354, 36.36189
845.1176, 35.86710
845.5997, 35.73122
846.0818, 36.07776
846.5639, 36.60218
847.0460, 38.00347
847.5281, 38.82722
848.0103, 37.63604
848.4924, 35.76257
848.9745, 35.49072
849.4566, 37.26445
849.9387, 38.50395
850.4208, 37.31918
850.9030, 35.52207
851.3851, 34.62889
851.8672, 34.39367
852.3493, 34.26032
852.8314, 34.13150
853.3135, 34.31921
853.7957, 35.14085
854.2778, 36.17149
854.7599, 36.39059
855.2420, 35.81484
855.7241, 35.13931
856.2062, 34.34498
856.6884, 33.92573
857.1705, 34.24261
857.6526, 34.98822
858.1347, 35.73227
858.6168, 36.73189
859.0989, 36.52930
859.5811, 33.16872
860.0632, 31.16236
860.5453, 32.86066
861.0274, 35.32856
861.5095, 35.64255
861.9916, 34.16994
862.4738, 33.56035
862.9559, 35.22541
863.4380, 37.01449
863.9201, 37.83667
864.4022, 37.81881
864.8843, 36.47955
865.3665, 34.43233
865.8486, 33.62070
866.3307, 34.82579
866.8128, 36.42369
867.2949, 36.30518
867.7770, 34.88417
868.2592, 33.89806
868.7413, 33.35062
869.2234, 33.24684
869.7055, 33.67488
870.1876, 34.17496
870.6697, 34.30078
871.1519, 34.13319
871.6340, 34.13430
872.1161, 34.46910
872.5981, 34.65498
873.0803, 34.38616
873.5624, 34.27393
874.0445, 35.05795
874.5266, 35.93122
875.0087, 35.49336
875.4908, 33.47894
875.9730, 31.98425
876.4551, 31.83013
876.9372, 32.30005
877.4193, 33.27005
877.9014, 34.42384
878.3835, 35.67653
878.8657, 36.76579
879.3478, 36.80958
879.8299, 35.07017
880.3120, 32.89962
880.7941, 32.33083
881.2762, 32.85664
881.7584, 32.70459
882.2405, 31.81930
882.7226, 31.52133
883.2047, 32.48415
883.6868, 33.56173
884.1689, 33.03964
884.6511, 30.99748
885.1332, 30.13019
885.6153, 30.87156
886.0974, 31.62686
886.5795, 32.34480
887.0616, 32.65212
887.5438, 31.88114
888.0259, 30.49319
888.5080, 29.95938
888.9901, 30.93136
889.4722, 31.27008
889.9543, 29.59386
890.4365, 28.38494
890.9186, 29.57390
891.4007, 31.70032
891.8828, 32.65481
892.3649, 32.21333
892.8470, 31.78543
893.3292, 32.29939
893.8113, 32.99718
894.2934, 33.08459
894.7755, 32.87755
895.2576, 33.22602
895.7397, 33.94091
896.2219, 33.48790
896.7040, 31.02037
897.1861, 28.27989
897.6682, 28.25222
898.1503, 30.49154
898.6324, 31.22100
899.1146, 30.30905
899.5967, 29.71877
900.0788, 30.10578
900.5609, 30.79942
901.0430, 31.20396
901.5251, 31.33005
902.0073, 31.24742
902.4894, 30.98952
902.9715, 30.43967
903.4536, 28.99023
903.9357, 27.95561
904.4178, 28.30863
904.9000, 29.21481
905.3821, 29.54922
905.8642, 29.20369
906.3463, 28.68519
906.8284, 27.15093
907.3105, 26.63211
907.7927, 29.36538
908.2748, 32.65064
908.7569, 33.69737
909.2390, 32.61475
909.7211, 30.74718
910.2032, 28.48460
910.6854, 26.85610
911.1675, 27.38608
911.6496, 28.83226
912.1317, 29.13276
912.6138, 28.48219
913.0959, 27.85722
913.5781, 27.58295
914.0602, 27.71627
914.5423, 28.46768
915.0244, 29.40519
915.5065, 28.87144
915.9886, 26.84560
916.4708, 26.21516
916.9529, 27.57169
917.4350, 29.05854
917.9171, 29.76073
918.3992, 29.81429
918.8813, 29.33267
919.3635, 28.13655
919.8456, 27.81796
920.3277, 29.36567
920.8098, 30.16403
921.2919, 28.67337
921.7740, 27.14274
922.2562, 27.59629
922.7383, 29.26502
923.2204, 29.67032
923.7025, 27.73961
924.1846, 26.58336
924.6667, 27.64020
925.1489, 28.97862
925.6310, 29.58732
926.1131, 29.66893
926.5952, 29.46702
927.0773, 29.10210
927.5594, 28.89123
928.0416, 29.28156
928.5237, 29.44465
929.0058, 28.05429
929.4879, 26.23841
929.9700, 26.00026
930.4521, 27.11204
930.9343, 27.97921
931.4164, 27.93473
931.8985, 27.72747
932.3806, 28.44520
932.8627, 28.01270
933.3448, 29.38296
933.8270, 27.92946
934.3091, 27.21364
934.7912, 27.68874
935.2733, 28.42374
935.7554, 28.82008
936.2375, 28.87706
936.7197, 28.46295
937.2018, 27.35833
937.6839, 27.16077
938.1660, 28.42336
938.6481, 29.16165
939.1302, 28.39869
939.6124, 27.26290
940.0945, 27.00266
940.5766, 27.48445
941.0587, 27.43888
941.5408, 26.17843
942.0229, 25.46206
942.5051, 25.65019
942.9872, 26.09179
943.4693, 26.52501
943.9514, 26.99050
944.4335, 27.74669
944.9156, 28.78065
945.3978, 29.16844
945.8799, 28.17684
946.3620, 26.97741
946.8441, 26.11580
947.3262, 25.38767
947.8083, 24.31939
948.2905, 23.23093
948.7726, 23.05961
949.2547, 24.16016
949.7368, 25.47323
950.2189, 26.15342
950.7010, 26.51096
951.1832, 26.90200
951.6653, 27.33120
952.1474, 27.95498
952.6295, 28.68670
953.1116, 28.84487
953.5938, 27.93601
954.0759, 26.61025
954.5580, 25.89143
955.0400, 25.71299
955.5222, 25.90120
956.0043, 26.42590
956.4864, 26.27346
956.9685, 25.00857
957.4506, 24.01659
957.9327, 24.76325
958.4149, 26.75805
958.8970, 27.91925
959.3791, 28.15803
959.8612, 27.98709
960.3433, 27.32067
960.8254, 26.54062
961.3076, 25.67285
961.7897, 24.96471
962.2718, 24.70487
962.7539, 24.88941
963.2360, 25.68211
963.7181, 28.10115
964.2003, 29.54196
964.6824, 29.63049
965.1645, 28.86610
965.6466, 26.51975
966.1287, 23.88047
966.6108, 23.43976
967.0930, 25.69123
967.5751, 27.12700
968.0572, 26.30912
968.5393, 25.42931
969.0214, 25.42356
969.5035, 25.67749
969.9857, 25.54693
970.4678, 25.17856
970.9499, 25.13282
971.4320, 25.62509
971.9141, 26.12417
972.3962, 26.18655
972.8784, 26.25119
973.3605, 26.92075
973.8426, 27.74800
974.3247, 28.04063
974.8068, 27.72360
975.2889, 26.99517
975.7711, 25.86623
976.2532, 24.91038
976.7353, 24.81174
977.2174, 25.30515
977.6995, 26.26816
978.1816, 27.38284
978.6638, 27.49986
979.1459, 26.39880
979.6280, 25.09812
980.1101, 24.34742
980.5922, 24.15337
981.0743, 24.89433
981.5565, 26.30926
982.0386, 26.54984
982.5207, 25.52968
983.0028, 25.13938
983.4849, 26.19415
983.9670, 27.21596
984.4492, 26.41159
984.9313, 24.36412
985.4134, 24.03755
985.8955, 25.75516
986.3776, 26.77650
986.8597, 26.78431
987.3419, 26.17211
987.8240, 24.82114
988.3061, 23.53840
988.7882, 23.63648
989.2703, 25.10307
989.7524, 25.52742
990.2346, 23.92998
990.7167, 23.53147
991.1988, 25.71589
991.6809, 27.76730
992.1630, 28.08434
992.6451, 27.33965
993.1273, 26.51096
993.6094, 25.46605
994.0915, 25.31354
994.5736, 27.61969
995.0557, 28.65610
995.5378, 26.12851
996.0200, 23.66800
996.5021, 24.40754
996.9842, 26.76691
997.4663, 27.18290
997.9484, 24.81256
998.4305, 23.35204
998.9127, 24.64575
999.3948, 25.87498
999.8769, 25.88247
1000.359, 25.24270
1000.841, 24.10285
1001.323, 22.87351
1001.805, 22.45463
1002.287, 23.19570
1002.770, 24.04891
1003.252, 24.69427
1003.734, 25.02682
1004.216, 24.45315
1004.698, 23.84289
1005.180, 24.78934
1005.662, 26.85092
1006.144, 27.80856
1006.627, 26.55181
1007.109, 25.21979
1007.591, 25.85469
1008.073, 27.13938
1008.555, 27.81240
1009.037, 27.83672
1009.519, 26.89213
1010.001, 25.26209
1010.483, 24.28407
1010.966, 24.77746
1011.448, 25.84536
1011.930, 26.56499
1012.412, 27.03850
1012.894, 27.69440
1013.376, 28.28143
1013.858, 27.57531
1014.340, 25.53556
1014.823, 24.20611
1015.305, 25.15409
1015.787, 23.94993
1016.269, 26.22246
1016.751, 24.15229
1017.233, 23.63856
1017.715, 24.60469
1018.197, 25.56146
1018.679, 26.07682
1019.162, 26.22590
1019.644, 26.02158
1020.126, 25.66512
1020.608, 25.64358
1021.090, 25.92705
1021.572, 26.12984
1022.054, 26.23813
1022.536, 26.09946
1023.018, 26.22436
1023.501, 25.41341
1023.983, 26.22393
1024.465, 25.72657
1024.947, 25.66548
1025.429, 25.86657
1025.911, 25.21648
1026.393, 25.81517
1026.875, 26.07696
1027.358, 25.27623
1027.840, 24.59583
1028.322, 25.33681
1028.804, 27.01814
1029.286, 27.62887
1029.768, 26.98495
1030.250, 25.88296
1030.732, 23.81910
1031.214, 22.82755
1031.697, 24.09068
1032.179, 25.88556
1032.661, 26.45505
1033.143, 26.06738
1033.625, 26.10478
1034.107, 26.81794
1034.589, 27.36863
1035.071, 28.08309
1035.553, 27.97341
1036.036, 25.95568
1036.518, 23.81564
1037.000, 23.57392
1037.482, 24.84553
1037.964, 25.35128
1038.446, 24.31157
1038.928, 24.04610
1039.410, 25.32917
1039.893, 26.33596
1040.375, 26.20896
1040.857, 25.73691
1041.339, 25.72955
1041.821, 26.07072
1042.303, 26.09741
1042.785, 25.24857
1043.267, 25.15865
1043.750, 27.17432
1044.232, 28.36383
1044.714, 27.07131
1045.196, 24.96770
1045.678, 23.24111
1046.160, 22.10040
1046.642, 22.22703
1047.124, 24.54999
1047.606, 26.17379
1048.089, 26.49176
1048.571, 26.32525
1049.053, 25.55226
1049.535, 24.80565
1050.017, 24.80116
1050.499, 25.37293
1050.981, 25.73336
1051.463, 25.71974
1051.945, 25.59604
1052.428, 25.26786
1052.910, 25.02231
1053.392, 25.13785
1053.874, 25.28194
1054.356, 25.08460
1054.838, 24.61629
1055.320, 24.15423
1055.802, 23.63467
1056.285, 23.54212
1056.767, 24.61152
1057.249, 25.41800
1057.731, 24.74805
1058.213, 23.88632
1058.695, 24.44864
1059.177, 25.94704
1059.659, 26.58972
1060.141, 25.81906
1060.624, 24.88002
1061.106, 23.68109
1061.588, 23.05116
1062.070, 24.09720
1062.552, 25.36356
1063.034, 25.18857
1063.516, 24.00789
1063.998, 23.34376
1064.480, 23.62573
1064.963, 23.88877
1065.445, 23.75098
1065.927, 23.49752
1066.409, 23.07584
1066.891, 22.77642
1067.373, 23.04025
1067.855, 23.61782
1068.337, 23.87591
1068.820, 23.64914
1069.302, 23.39496
1069.784, 23.05323
1070.266, 23.04976
1070.748, 24.00091
1071.230, 25.04838
1071.712, 25.45971
1072.194, 25.31924
1072.677, 24.91407
1073.159, 24.31614
1073.641, 23.66910
1074.123, 22.89954
1074.605, 22.26908
1075.087, 21.86723
1075.569, 21.70100
1076.051, 21.85049
1076.533, 22.20851
1077.016, 22.62057
1077.498, 23.04728
1077.980, 23.44185
1078.462, 23.89344
1078.944, 24.15330
1079.426, 23.87608
1079.908, 23.58056
1080.390, 23.71881
1080.872, 24.11342
1081.354, 24.51800
1081.837, 24.85542
1082.319, 24.96962
1082.801, 24.54376
1083.283, 24.39295
1083.765, 25.69241
1084.247, 26.57868
1084.729, 24.73070
1085.211, 22.20442
1085.694, 22.32135
1086.176, 24.77967
1086.658, 26.05341
1087.140, 24.60812
1087.622, 22.94083
1088.104, 21.60363
1088.586, 20.92630
1089.068, 21.51808
1089.551, 22.60216
1090.033, 23.29898
1090.515, 23.64724
1090.997, 24.21605
1091.479, 25.32888
1091.961, 25.89078
1092.443, 24.95342
1092.925, 24.01503
1093.407, 23.89028
1093.890, 24.11125
1094.372, 24.33911
1094.854, 24.47593
1095.336, 24.30037
1095.818, 23.68691
1096.300, 23.58491
1096.782, 25.01920
1097.264, 26.06279
1097.746, 25.54297
1098.229, 24.73702
1098.711, 24.88439
1099.193, 25.41052
1099.675, 24.94495
1100.157, 23.30004
1100.639, 22.30914
1101.121, 22.86235
1101.603, 23.50378
1102.086, 24.21215
1102.568, 24.49600
1103.050, 23.61058
1103.532, 22.36941
1104.014, 21.94337
1104.496, 22.34764
1104.978, 22.71140
1105.460, 22.69180
1105.943, 22.96144
1106.425, 24.18633
1106.907, 25.04558
1107.389, 24.98110
1107.871, 24.23578
1108.353, 22.36559
1108.835, 19.95138
1109.317, 19.70809
1109.799, 23.32025
1110.281, 25.41489
1110.764, 24.42734
1111.246, 23.44581
1111.728, 23.41071
1112.210, 23.64957
1112.692, 23.66865
1113.174, 23.54633
1113.656, 23.52698
1114.138, 23.69394
1114.621, 23.57547
1115.103, 22.75570
1115.585, 22.33516
1116.067, 22.61379
1116.549, 23.18577
1117.031, 24.17798
1117.513, 25.03934
1117.995, 24.73928
1118.478, 23.26243
1118.960, 22.16993
1119.442, 20.97117
1119.924, 21.51045
1120.406, 25.14772
1120.888, 28.07213
1121.370, 28.60555
1121.852, 27.70924
1122.334, 26.16881
1122.817, 24.24255
1123.299, 23.47874
1123.781, 24.33801
1124.263, 24.33642
1124.745, 23.08715
1125.227, 22.15824
1125.709, 22.02264
1126.191, 22.41996
1126.673, 23.30549
1127.156, 24.25722
1127.638, 24.02816
1128.120, 24.63289
1128.602, 25.06400
1129.084, 24.53742
1129.566, 25.42077
1130.048, 24.60583
1130.530, 23.60316
1131.013, 23.22902
1131.495, 23.49669
1131.977, 24.75080
1132.459, 23.82816
1132.941, 25.75528
1133.423, 22.79967
1133.905, 20.78228
1134.387, 20.05419
1134.870, 20.17628
1135.352, 20.97537
1135.834, 21.96092
1136.316, 22.74202
1136.798, 23.17863
1137.280, 22.49983
1137.762, 21.28406
1138.244, 22.05738
1138.726, 24.37819
1139.208, 25.48470
1139.691, 24.83330
1140.173, 23.98765
1140.655, 23.92924
1141.137, 24.05071
1141.619, 23.56731
1142.101, 22.74902
1142.583, 21.93876
1143.065, 21.22776
1143.548, 20.72360
1144.030, 20.49502
1144.512, 20.74221
1144.994, 21.52652
1145.476, 22.47423
1145.958, 23.53801
1146.440, 24.30265
1146.922, 24.11382
1147.405, 23.55914
1147.887, 23.43713
1148.369, 23.53473
1148.851, 23.11735
1149.333, 22.19532
1149.815, 21.79652
1150.297, 22.61179
1150.779, 23.46985
1151.261, 23.56562
1151.744, 23.58052
1152.226, 24.26105
1152.708, 24.96560
1153.190, 24.87722
1153.672, 24.09900
1154.154, 23.09278
1154.636, 21.85493
1155.118, 21.12244
1155.600, 21.31218
1156.083, 21.76575
1156.565, 22.52219
1157.047, 23.19314
1157.529, 23.68908
1158.011, 23.83824
1158.493, 23.10971
1158.975, 21.51602
1159.457, 20.80656
1159.940, 21.75749
1160.422, 22.49898
1160.904, 22.93017
1161.386, 23.19855
1161.868, 23.16289
1162.350, 23.24369
1162.832, 24.18566
1163.314, 25.36759
1163.796, 24.57498
1164.279, 24.57037
1164.761, 24.56553
1165.243, 22.52003
1165.725, 23.59582
1166.207, 21.78845
1166.689, 20.26115
1167.171, 20.89392
1167.653, 22.62461
1168.135, 24.10572
1168.618, 25.23483
1169.100, 25.32323
1169.582, 24.38332
1170.064, 23.07788
1170.546, 21.49062
1171.028, 21.08094
1171.510, 22.33448
1171.992, 23.51710
1172.474, 23.15457
1172.957, 22.30798
1173.439, 23.19581
1173.921, 22.78261
1174.403, 22.77129
1174.885, 23.35869
1175.367, 23.03004
1175.849, 23.99056
1176.331, 24.87913
1176.814, 25.09343
1177.296, 24.85495
1177.778, 23.92076
1178.260, 23.22710
1178.742, 24.44806
1179.224, 26.14582
1179.706, 26.31009
1180.188, 25.38839
1180.671, 24.47813
1181.153, 23.83505
1181.635, 23.25738
1182.117, 22.54730
1182.599, 22.30297
1183.081, 23.40537
1183.563, 24.41228
1184.045, 24.29182
1184.527, 23.75013
1185.010, 23.33436
1185.492, 23.14021
1185.974, 23.18813
1186.456, 23.47325
1186.938, 24.14197
1187.420, 26.23746
1187.902, 27.16514
1188.384, 25.15832
1188.866, 23.58662
1189.349, 24.54079
1189.831, 25.99627
1190.313, 25.75136
1190.795, 24.27559
1191.277, 23.42757
1191.759, 23.32269
1192.241, 23.34858
1192.723, 23.48466
1193.206, 23.88325
1193.688, 24.68850
1194.170, 25.36478
1194.652, 25.67617
1195.134, 25.35520
1195.616, 23.81602
1196.098, 21.53623
1196.580, 20.46174
1197.063, 20.57039
1197.545, 22.08212
1198.027, 24.73378
1198.509, 25.84506
1198.991, 24.78663
1199.473, 24.04321
1199.955, 25.44543
1200.437, 26.96646
1200.919, 25.27112
1201.401, 22.39121
1201.884, 21.92727
1202.366, 22.95395
1202.848, 23.93900
1203.330, 24.52580
1203.812, 24.40115
1204.294, 23.54338
1204.776, 22.61881
1205.258, 21.61650
1205.741, 21.44323
1206.223, 23.53851
1206.705, 25.77201
1207.187, 26.65296
1207.669, 26.60707
1208.151, 25.83334
1208.633, 24.75045
1209.115, 24.51660
1209.598, 25.58250
1210.080, 25.98415
1210.562, 25.16514
1211.044, 24.04371
1211.526, 21.51567
1212.008, 20.38370
1212.490, 23.10390
1212.972, 26.64701
1213.454, 27.37707
1213.937, 25.85580
1214.419, 24.70587
1214.901, 23.85560
1215.383, 23.85687
1215.865, 24.88212
1216.347, 25.71650
1216.829, 26.07756
1217.311, 26.33545
1217.793, 26.72861
1218.276, 26.92533
1218.758, 26.39829
1219.240, 25.44683
1219.722, 24.81596
1220.204, 24.50761
1220.686, 24.73667
1221.168, 25.30175
1221.650, 25.32236
1222.133, 24.69543
1222.615, 24.27530
1223.097, 24.58317
1223.579, 24.83044
1224.061, 24.14759
1224.543, 23.22635
1225.025, 22.30337
1225.507, 21.88886
1225.990, 23.14313
1226.472, 25.13212
1226.954, 25.96464
1227.436, 25.40551
1227.918, 24.71037
1228.400, 24.01264
1228.882, 23.69238
1229.364, 24.41220
1229.846, 24.77447
1230.328, 23.50967
1230.811, 22.44245
1231.293, 23.48509
1231.775, 25.29516
1232.257, 25.21348
1232.739, 23.25864
1233.221, 22.16256
1233.703, 22.01315
1234.185, 22.43264
1234.668, 23.53634
1235.150, 24.39635
1235.632, 24.71751
1236.114, 24.60251
1236.596, 24.06314
1237.078, 23.48641
1237.560, 23.55546
1238.042, 24.13156
1238.525, 25.13159
1239.007, 26.17415
1239.489, 25.72631
1239.971, 24.10472
1240.453, 23.04292
1240.935, 23.02901
1241.417, 23.34765
1241.899, 23.69399
1242.381, 23.75781
1242.864, 22.89590
1243.346, 22.08582
1243.828, 22.05931
1244.310, 22.60428
1244.792, 24.12135
1245.274, 25.74871
1245.756, 25.20021
1246.238, 22.18796
1246.720, 21.05270
1247.203, 24.64400
1247.685, 26.57924
1248.167, 25.27798
1248.649, 23.98639
1249.131, 23.62371
1249.613, 23.68738
1250.095, 23.90061
1250.577, 24.12396
1251.059, 23.96170
1251.542, 23.52406
1252.024, 24.56957
1252.506, 24.14067
1252.988, 23.96483
1253.470, 24.83145
1253.952, 23.87822
1254.434, 25.49458
1254.916, 27.06885
1255.399, 26.75153
1255.881, 25.79640
1256.363, 25.88230
1256.845, 26.19753
1257.327, 25.26434
1257.809, 23.97132
1258.291, 23.73067
1258.773, 24.28969
1259.255, 25.02164
1259.738, 25.64051
1260.220, 25.38639
1260.702, 23.44917
1261.184, 22.13326
1261.666, 22.39263
1262.148, 23.11545
1262.630, 24.28735
1263.112, 25.32744
1263.594, 25.92870
1264.077, 26.07533
1264.559, 25.65122
1265.041, 24.72612
1265.523, 23.78223
1266.005, 22.64109
1266.487, 22.81599
1266.969, 24.57203
1267.451, 25.32948
1267.934, 24.45207
1268.416, 23.43590
1268.898, 23.09814
1269.380, 23.36698
1269.862, 24.35697
1270.344, 25.55001
1270.826, 25.80855
1271.308, 25.70305
1271.791, 26.75142
1272.273, 28.13433
1272.755, 27.58389
1273.237, 25.39550
1273.719, 24.13856
1274.201, 24.72725
1274.683, 25.45042
1275.165, 25.91919
1275.647, 25.83454
1276.130, 24.16528
1276.612, 22.98697
1277.094, 24.51124
1277.576, 26.26212
1278.058, 25.03076
1278.540, 22.18699
1279.022, 21.62449
1279.504, 23.52658
1279.986, 25.24051
1280.469, 26.88442
1280.951, 27.25776
1281.433, 26.12590
1281.915, 25.35057
1282.397, 25.60337
1282.879, 26.00828
1283.361, 25.89013
1283.843, 25.47668
1284.326, 25.03768
1284.808, 24.57014
##END=



