##NAMES=Nifontovite
##RRUFFID=R080138
##IDEAL CHEMISTRY=Ca_3_[BO(OH)_2_]_6_&#183;2H_2_O
##LOCALITY=Charcas, San Luis Potosi, Mexico
##OWNER=RRUFF
##SOURCE=Marcus Origlieri
##DESCRIPTION=Colorless prismatic crystal
##STATUS=The identification of this mineral has been confirmed by single-crystal X-ray diffraction.
##URL=rruff.info/R080138
91.00781, 5.676020
91.48993, 5.898218
91.97205, 5.987242
92.45416, 5.849635
92.93628, 5.583282
93.41840, 5.388942
93.90051, 5.282404
94.38263, 5.286278
94.86475, 5.453286
95.34686, 5.782756
95.82898, 6.210689
96.31110, 6.721076
96.79321, 7.306272
97.27533, 7.864583
97.75745, 8.354928
98.23956, 8.797007
98.72168, 9.192171
99.20380, 9.473495
99.68591, 9.903852
100.1680, 10.83165
100.6501, 12.33678
101.1323, 13.90220
101.6144, 15.29637
102.0965, 16.46961
102.5786, 18.10968
103.0607, 20.39357
103.5428, 22.99996
104.0250, 25.40693
104.5071, 27.32891
104.9892, 29.49769
105.4713, 32.19991
105.9534, 35.68821
106.4355, 39.15923
106.9177, 42.78661
107.3998, 46.40453
107.8819, 49.59833
108.3640, 51.76243
108.8461, 53.95092
109.3282, 56.68792
109.8104, 60.47136
110.2925, 64.16634
110.7746, 67.56783
111.2567, 70.72624
111.7388, 74.18829
112.2209, 77.54331
112.7031, 81.42997
113.1852, 86.33495
113.6673, 92.68896
114.1494, 99.71181
114.6315, 107.1299
115.1136, 114.9846
115.5958, 123.7035
116.0779, 133.5089
116.5600, 144.2306
117.0421, 155.6277
117.5242, 167.6948
118.0063, 180.4882
118.4885, 195.0441
118.9706, 212.1223
119.4527, 227.1567
119.9348, 238.5840
120.4169, 246.1803
120.8990, 249.6540
121.3812, 247.1280
121.8633, 241.1052
122.3454, 233.6281
122.8275, 224.4947
123.3096, 215.1716
123.7917, 207.1880
124.2739, 200.1950
124.7560, 192.9119
125.2381, 184.4691
125.7202, 175.1606
126.2023, 165.4484
126.6844, 154.8257
127.1666, 144.5002
127.6487, 135.8953
128.1308, 128.9869
128.6129, 123.8541
129.0950, 120.9584
129.5771, 119.9453
130.0593, 119.5505
130.5414, 119.4234
131.0235, 119.6729
131.5056, 120.5567
131.9877, 121.6664
132.4698, 122.6151
132.9520, 123.6844
133.4341, 124.8729
133.9162, 126.1450
134.3983, 127.3696
134.8804, 128.6029
135.3625, 130.4145
135.8447, 132.8927
136.3268, 135.7204
136.8089, 139.0620
137.2910, 143.3383
137.7731, 145.8527
138.2552, 145.5911
138.7374, 142.4793
139.2195, 137.3256
139.7016, 129.5369
140.1837, 120.2387
140.6658, 111.7494
141.1479, 103.9086
141.6301, 96.98917
142.1122, 90.97368
142.5943, 85.62104
143.0764, 81.71707
143.5585, 79.37440
144.0406, 78.40977
144.5228, 78.14372
145.0049, 78.46249
145.4870, 79.59527
145.9691, 81.79585
146.4512, 86.53291
146.9333, 90.00638
147.4155, 92.08289
147.8976, 92.79082
148.3797, 92.10950
148.8618, 89.40469
149.3439, 85.77848
149.8260, 81.94897
150.3082, 76.67587
150.7903, 72.53002
151.2724, 69.77126
151.7545, 68.42760
152.2366, 67.72771
152.7188, 67.71619
153.2009, 68.28347
153.6830, 69.34486
154.1651, 71.52370
154.6472, 73.57688
155.1293, 74.99843
155.6115, 75.64500
156.0936, 76.83619
156.5757, 78.84624
157.0578, 81.48843
157.5399, 84.53564
158.0220, 88.71546
158.5042, 92.64306
158.9863, 95.74132
159.4684, 97.88347
159.9505, 99.70562
160.4326, 101.7411
160.9147, 103.5127
161.3969, 104.3072
161.8790, 103.0619
162.3611, 101.3741
162.8432, 99.86635
163.3253, 98.35164
163.8074, 97.91239
164.2896, 99.25400
164.7717, 102.0150
165.2538, 105.4801
165.7359, 109.4050
166.2180, 113.8588
166.7001, 119.0924
167.1823, 125.5416
167.6644, 131.7447
168.1465, 137.3794
168.6286, 142.1493
169.1107, 145.2119
169.5928, 146.6895
170.0750, 145.9915
170.5571, 142.2779
171.0392, 134.5168
171.5213, 125.2004
172.0034, 115.6022
172.4855, 105.9031
172.9677, 97.15257
173.4498, 89.89408
173.9319, 83.92519
174.4140, 78.97269
174.8961, 74.97514
175.3782, 71.94502
175.8604, 70.00825
176.3425, 69.08323
176.8246, 68.56155
177.3067, 67.92928
177.7888, 67.35965
178.2709, 67.21043
178.7531, 67.59924
179.2352, 68.44688
179.7173, 69.69592
180.1994, 71.34266
180.6815, 73.23274
181.1636, 75.18713
181.6458, 77.26662
182.1279, 79.58013
182.6100, 82.15036
183.0921, 84.99377
183.5742, 88.33687
184.0563, 92.14046
184.5385, 96.06766
185.0206, 99.90453
185.5027, 103.6130
185.9848, 106.8402
186.4669, 109.7596
186.9490, 112.0954
187.4312, 113.0330
187.9133, 112.5027
188.3954, 110.9495
188.8775, 108.7859
189.3596, 106.0296
189.8417, 102.6707
190.3239, 98.47066
190.8060, 93.59840
191.2881, 89.04234
191.7702, 84.83775
192.2523, 80.99366
192.7344, 77.41313
193.2166, 74.11391
193.6987, 71.40681
194.1808, 69.44241
194.6629, 68.20263
195.1450, 67.39177
195.6271, 67.04581
196.1093, 67.03299
196.5914, 67.22263
197.0735, 67.62690
197.5556, 68.07672
198.0377, 68.54371
198.5198, 69.03258
199.0020, 69.34681
199.4841, 69.43510
199.9662, 69.43838
200.4483, 69.62794
200.9304, 70.04744
201.4125, 70.38523
201.8947, 70.32019
202.3768, 69.76485
202.8589, 69.94810
203.3410, 70.98643
203.8231, 72.62337
204.3052, 74.47591
204.7874, 76.64156
205.2695, 78.65866
205.7516, 80.10210
206.2337, 80.75832
206.7158, 82.39338
207.1979, 85.32527
207.6801, 88.95954
208.1622, 91.98193
208.6443, 94.22602
209.1264, 96.43240
209.6085, 99.03865
210.0906, 102.2422
210.5728, 104.9746
211.0549, 107.2282
211.5370, 108.9816
212.0191, 110.1378
212.5012, 110.7118
212.9833, 110.6857
213.4655, 109.8588
213.9476, 107.8510
214.4297, 106.4399
214.9118, 105.7061
215.3939, 105.5651
215.8760, 105.7856
216.3581, 106.3155
216.8403, 107.3099
217.3224, 109.0057
217.8045, 111.8763
218.2866, 114.0128
218.7687, 115.2535
219.2508, 115.7722
219.7330, 115.9784
220.2151, 115.8296
220.6972, 115.4418
221.1793, 114.8961
221.6614, 114.2701
222.1435, 113.2819
222.6257, 112.0245
223.1078, 110.3727
223.5899, 107.8343
224.0720, 103.8882
224.5541, 99.87841
225.0362, 96.34470
225.5184, 93.44535
226.0005, 90.70193
226.4826, 88.05656
226.9647, 85.56911
227.4468, 83.34856
227.9289, 81.53418
228.4111, 79.80101
228.8932, 78.05556
229.3753, 76.49095
229.8574, 74.42664
230.3395, 71.55501
230.8216, 68.26830
231.3038, 65.62683
231.7859, 63.96195
232.2680, 62.48232
232.7501, 60.81553
233.2322, 58.76711
233.7143, 56.96745
234.1965, 55.39318
234.6786, 54.06374
235.1607, 53.02690
235.6428, 52.36630
236.1249, 51.87467
236.6070, 51.49168
237.0892, 51.33979
237.5713, 50.99952
238.0534, 50.29548
238.5355, 49.44799
239.0176, 49.03246
239.4997, 49.18452
239.9819, 49.57027
240.4640, 50.04566
240.9461, 50.57848
241.4282, 51.29451
241.9103, 52.28252
242.3924, 53.42574
242.8746, 54.43895
243.3567, 55.24873
243.8388, 56.04024
244.3209, 56.86385
244.8030, 57.63579
245.2851, 58.65600
245.7673, 60.03170
246.2494, 61.61274
246.7315, 63.05435
247.2136, 64.20088
247.6957, 65.45555
248.1778, 66.98045
248.6600, 68.81068
249.1421, 70.78502
249.6242, 72.96236
250.1063, 75.26493
250.5884, 77.49641
251.0705, 79.42519
251.5527, 81.69292
252.0348, 84.60209
252.5169, 88.44540
252.9990, 91.91292
253.4811, 94.75637
253.9632, 97.42290
254.4454, 100.6607
254.9275, 104.6449
255.4096, 108.9028
255.8917, 113.3354
256.3738, 117.9587
256.8560, 122.5864
257.3381, 127.3755
257.8202, 132.0711
258.3023, 136.4189
258.7844, 140.4466
259.2665, 143.9767
259.7487, 146.9798
260.2308, 149.4522
260.7129, 151.2859
261.1950, 152.4163
261.6771, 152.9795
262.1592, 153.0818
262.6414, 152.5750
263.1235, 151.9541
263.6056, 151.1774
264.0877, 150.1664
264.5698, 150.2321
265.0519, 151.8109
265.5341, 153.8652
266.0162, 155.1450
266.4983, 155.3696
266.9804, 155.6720
267.4625, 156.4446
267.9446, 157.6674
268.4268, 158.3120
268.9089, 158.1331
269.3910, 157.7875
269.8731, 158.1330
270.3552, 159.5091
270.8373, 160.1597
271.3195, 159.5181
271.8016, 157.7208
272.2837, 156.3488
272.7658, 155.7025
273.2479, 154.7589
273.7300, 152.6484
274.2122, 149.3760
274.6943, 144.9565
275.1764, 139.1930
275.6585, 132.3062
276.1406, 125.2639
276.6227, 117.8979
277.1049, 110.9330
277.5870, 104.9229
278.0691, 99.88457
278.5512, 95.63173
279.0333, 92.23970
279.5154, 89.55791
279.9976, 87.04765
280.4797, 84.64803
280.9618, 82.70554
281.4439, 81.53559
281.9260, 81.15102
282.4081, 80.85027
282.8903, 80.52011
283.3724, 80.25014
283.8545, 80.27886
284.3366, 80.62162
284.8187, 81.10066
285.3008, 81.62212
285.7830, 82.18891
286.2651, 82.75021
286.7472, 83.26201
287.2293, 83.84846
287.7114, 84.73490
288.1935, 85.92016
288.6757, 87.30996
289.1578, 88.84705
289.6399, 90.54434
290.1220, 92.41386
290.6041, 94.48846
291.0862, 96.66022
291.5684, 98.66908
292.0505, 100.5688
292.5326, 102.7592
293.0147, 105.6290
293.4968, 108.9497
293.9789, 112.0658
294.4611, 114.8839
294.9432, 117.7877
295.4253, 121.3559
295.9074, 125.4545
296.3895, 129.4062
296.8716, 132.9471
297.3538, 136.1808
297.8359, 139.4200
298.3180, 142.7084
298.8001, 145.6607
299.2822, 147.8595
299.7643, 149.4698
300.2465, 150.8858
300.7286, 152.1855
301.2107, 153.4066
301.6928, 154.6667
302.1749, 155.9444
302.6570, 157.0769
303.1392, 158.0870
303.6213, 158.8338
304.1034, 159.0614
304.5855, 158.7202
305.0676, 157.8118
305.5497, 156.3614
306.0319, 154.3628
306.5140, 151.7052
306.9961, 148.2462
307.4782, 144.1490
307.9603, 139.4014
308.4424, 133.5643
308.9246, 127.9696
309.4067, 123.8273
309.8888, 120.8112
310.3709, 117.9154
310.8530, 113.9047
311.3351, 110.2008
311.8173, 108.1825
312.2994, 108.4215
312.7815, 109.1789
313.2636, 109.4060
313.7457, 109.4279
314.2278, 109.8360
314.7100, 111.1678
315.1921, 112.7545
315.6742, 114.1538
316.1563, 115.2567
316.6384, 116.5601
317.1205, 118.5356
317.6027, 120.7429
318.0848, 122.6129
318.5669, 124.0553
319.0490, 125.0496
319.5311, 125.5810
320.0132, 125.6477
320.4954, 125.2819
320.9775, 124.5382
321.4596, 123.3461
321.9417, 121.6513
322.4238, 119.3259
322.9059, 116.6173
323.3881, 113.2342
323.8702, 109.3069
324.3523, 105.9872
324.8344, 103.8538
325.3165, 102.1102
325.7986, 100.2643
326.2808, 97.45930
326.7629, 95.51698
327.2450, 94.87331
327.7271, 95.26477
328.2092, 95.64651
328.6913, 96.03887
329.1735, 96.39479
329.6556, 96.69177
330.1377, 96.85037
330.6198, 97.10510
331.1019, 97.55225
331.5840, 98.06423
332.0662, 98.42947
332.5483, 98.76353
333.0304, 98.77620
333.5125, 98.33680
333.9946, 97.36756
334.4767, 96.29903
334.9589, 94.98624
335.4410, 93.72777
335.9231, 92.89469
336.4052, 92.52612
336.8873, 92.49572
337.3694, 92.75577
337.8516, 93.31082
338.3336, 94.36577
338.8158, 96.04713
339.2979, 97.97060
339.7800, 99.85612
340.2621, 101.6924
340.7442, 103.4634
341.2263, 105.0863
341.7085, 106.6568
342.1906, 108.5633
342.6727, 110.9304
343.1548, 112.9591
343.6369, 113.9983
344.1190, 114.0956
344.6012, 114.1722
345.0833, 114.3274
345.5654, 114.4881
346.0475, 114.5534
346.5296, 114.5206
347.0117, 114.3522
347.4939, 114.0296
347.9760, 113.5570
348.4581, 112.8851
348.9402, 111.9783
349.4223, 111.0653
349.9044, 110.1844
350.3866, 109.4517
350.8687, 109.2491
351.3508, 110.0584
351.8329, 111.3464
352.3150, 112.2490
352.7971, 112.7824
353.2793, 113.3597
353.7614, 114.2637
354.2435, 115.4485
354.7256, 116.8408
355.2077, 118.3994
355.6898, 120.1737
356.1720, 122.2688
356.6541, 124.6556
357.1362, 127.1810
357.6183, 129.5906
358.1004, 132.2107
358.5826, 135.3289
359.0647, 139.0124
359.5468, 143.1591
360.0289, 147.8806
360.5110, 153.0156
360.9931, 158.2795
361.4753, 163.4949
361.9574, 168.7971
362.4395, 174.2145
362.9216, 179.7327
363.4037, 185.4785
363.8858, 191.8560
364.3680, 198.3384
364.8501, 204.3964
365.3322, 210.3530
365.8143, 215.3561
366.2964, 219.0847
366.7785, 221.5657
367.2607, 223.4389
367.7428, 225.2471
368.2249, 226.1804
368.7070, 225.7258
369.1891, 223.3648
369.6712, 220.3296
370.1534, 216.5479
370.6355, 212.0996
371.1176, 207.2248
371.5997, 201.8227
372.0818, 196.0964
372.5639, 189.9214
373.0461, 182.8188
373.5282, 176.7240
374.0103, 171.6901
374.4924, 167.4807
374.9745, 163.8751
375.4566, 160.9688
375.9388, 158.2752
376.4209, 155.5990
376.9030, 152.9499
377.3851, 150.9435
377.8672, 149.5201
378.3493, 148.8328
378.8315, 149.3717
379.3136, 151.1734
379.7957, 152.4209
380.2778, 152.4980
380.7599, 152.1168
381.2420, 153.2489
381.7242, 155.8739
382.2063, 158.5391
382.6884, 160.0481
383.1705, 160.7783
383.6526, 162.0284
384.1347, 163.9797
384.6169, 166.1943
385.0990, 168.3746
385.5811, 170.3977
386.0632, 171.7626
386.5453, 172.1648
387.0274, 171.8134
387.5096, 170.8047
387.9917, 169.1578
388.4738, 167.3624
388.9559, 166.0638
389.4380, 164.8128
389.9201, 162.9599
390.4023, 159.8183
390.8844, 156.5999
391.3665, 154.0724
391.8486, 152.1226
392.3307, 150.4254
392.8128, 148.8829
393.2950, 147.4961
393.7771, 146.1803
394.2592, 144.7516
394.7413, 143.8557
395.2234, 143.8656
395.7055, 144.5119
396.1877, 145.3788
396.6698, 146.5035
397.1519, 147.7112
397.6340, 148.8750
398.1161, 149.9435
398.5982, 151.4214
399.0804, 153.5795
399.5625, 156.0203
400.0446, 158.4688
400.5267, 161.0483
401.0088, 163.4615
401.4909, 165.5145
401.9731, 167.3627
402.4552, 169.5530
402.9373, 171.9633
403.4194, 174.9185
403.9015, 178.7270
404.3836, 183.7191
404.8658, 188.1598
405.3479, 191.6923
405.8300, 195.0921
406.3121, 199.5950
406.7942, 205.3006
407.2763, 211.4005
407.7585, 217.6690
408.2406, 224.1440
408.7227, 230.8706
409.2048, 237.8191
409.6869, 244.9897
410.1690, 252.2031
410.6512, 259.5225
411.1333, 267.6312
411.6154, 276.7949
412.0975, 286.5678
412.5796, 296.6631
413.0617, 306.9826
413.5439, 317.2048
414.0260, 327.5467
414.5081, 337.6543
414.9902, 346.8785
415.4723, 355.2063
415.9544, 362.9154
416.4366, 370.3797
416.9187, 377.2772
417.4008, 383.1008
417.8829, 386.6782
418.3650, 390.0292
418.8471, 394.6201
419.3293, 400.1768
419.8114, 405.3103
420.2935, 410.0338
420.7756, 413.7075
421.2577, 415.7054
421.7398, 415.3654
422.2220, 414.5685
422.7041, 414.9595
423.1862, 414.9789
423.6683, 411.8577
424.1504, 402.9852
424.6325, 393.1179
425.1147, 383.6254
425.5968, 374.5276
426.0789, 364.5523
426.5610, 353.1066
427.0431, 341.3175
427.5252, 330.2525
428.0074, 320.3216
428.4895, 310.0600
428.9716, 298.9467
429.4537, 287.6582
429.9358, 278.8114
430.4179, 273.0471
430.9001, 267.5281
431.3822, 260.8313
431.8643, 252.9368
432.3464, 245.1808
432.8285, 237.5022
433.3106, 230.1741
433.7928, 223.5405
434.2749, 217.5778
434.7570, 212.0762
435.2391, 206.8923
435.7212, 202.1923
436.2033, 198.3829
436.6855, 195.4536
437.1676, 192.9597
437.6497, 190.6563
438.1318, 188.5757
438.6139, 186.9432
439.0960, 186.0166
439.5782, 184.7189
440.0603, 182.2901
440.5424, 178.8355
441.0245, 174.6057
441.5066, 169.5854
441.9887, 163.8868
442.4709, 157.3144
442.9530, 149.9093
443.4351, 142.5931
443.9172, 135.6631
444.3993, 129.0306
444.8814, 122.7284
445.3636, 116.6699
445.8457, 110.9831
446.3278, 105.5957
446.8099, 100.6190
447.2920, 96.18935
447.7741, 92.63843
448.2563, 89.23145
448.7384, 85.78216
449.2205, 82.20229
449.7026, 79.00341
450.1847, 76.24308
450.6668, 73.83591
451.1490, 71.76950
451.6311, 70.12230
452.1132, 68.48438
452.5953, 66.74510
453.0774, 65.00426
453.5595, 63.44960
454.0417, 62.08537
454.5238, 60.81460
455.0059, 59.53739
455.4880, 58.29203
455.9701, 57.25467
456.4522, 56.45771
456.9344, 55.72113
457.4165, 54.83850
457.8986, 53.85492
458.3807, 52.91674
458.8628, 52.01898
459.3449, 51.23313
459.8271, 50.71075
460.3092, 50.39257
460.7913, 50.01378
461.2734, 49.38921
461.7555, 48.65798
462.2376, 47.88910
462.7198, 47.06363
463.2019, 46.37294
463.6840, 46.00787
464.1661, 45.80040
464.6482, 45.54724
465.1303, 45.17292
465.6125, 44.76986
466.0946, 44.33227
466.5767, 43.86741
467.0588, 43.47305
467.5409, 43.20593
468.0230, 42.96655
468.5052, 42.70964
468.9873, 42.41179
469.4694, 42.14679
469.9515, 41.87099
470.4336, 41.66646
470.9157, 41.69437
471.3979, 42.05556
471.8800, 42.30384
472.3621, 42.31531
472.8442, 42.12587
473.3263, 41.85388
473.8084, 41.47728
474.2906, 41.18807
474.7727, 41.23728
475.2548, 41.52642
475.7369, 41.54988
476.2190, 41.21832
476.7011, 40.76751
477.1833, 40.37489
477.6654, 40.07907
478.1475, 39.98975
478.6296, 40.39933
479.1117, 40.86578
479.5938, 40.84502
480.0760, 40.41231
480.5581, 40.07322
481.0402, 40.17929
481.5223, 40.45980
482.0044, 40.70753
482.4865, 40.88529
482.9687, 41.02374
483.4508, 41.15689
483.9329, 41.25090
484.4150, 41.25637
484.8971, 41.03595
485.3792, 40.86240
485.8614, 40.83516
486.3435, 40.93947
486.8256, 40.94839
487.3077, 40.73487
487.7898, 40.57514
488.2719, 40.63351
488.7541, 40.98356
489.2362, 41.32344
489.7183, 41.68263
490.2004, 41.99030
490.6825, 42.12482
491.1646, 42.07151
491.6468, 41.98126
492.1289, 41.84089
492.6110, 41.72403
493.0931, 41.89767
493.5752, 42.35920
494.0573, 42.82912
494.5395, 43.15125
495.0216, 43.33242
495.5037, 43.35102
495.9858, 43.17382
496.4679, 43.00772
496.9500, 42.99975
497.4322, 43.13847
497.9143, 43.40565
498.3964, 43.89451
498.8785, 44.41988
499.3606, 44.94535
499.8427, 45.44420
500.3249, 45.75954
500.8070, 45.45920
501.2891, 45.26252
501.7712, 45.62389
502.2533, 46.88278
502.7354, 47.85228
503.2176, 48.39793
503.6997, 48.62983
504.1818, 48.60291
504.6639, 47.97974
505.1460, 47.73464
505.6281, 48.09150
506.1103, 48.91644
506.5924, 49.73091
507.0745, 50.58233
507.5566, 51.25357
508.0387, 51.42594
508.5208, 51.15327
509.0030, 51.65618
509.4851, 53.03777
509.9672, 54.61473
510.4493, 55.66871
510.9314, 56.31481
511.4135, 56.92476
511.8957, 57.53727
512.3778, 58.23572
512.8599, 59.14613
513.3420, 60.22673
513.8242, 61.34913
514.3063, 62.41936
514.7884, 63.54504
515.2705, 64.79993
515.7526, 66.18406
516.2347, 67.67348
516.7169, 69.09663
517.1990, 70.71410
517.6811, 72.73532
518.1632, 75.59921
518.6453, 78.31436
519.1274, 80.55283
519.6096, 82.63388
520.0917, 85.12060
520.5738, 88.19673
521.0559, 91.34203
521.5380, 94.34432
522.0201, 97.23732
522.5023, 100.6912
522.9844, 104.8749
523.4665, 109.1858
523.9486, 113.0190
524.4307, 116.4402
524.9128, 120.6227
525.3950, 125.7337
525.8771, 131.2033
526.3592, 136.1270
526.8413, 140.6897
527.3234, 145.7666
527.8055, 151.7977
528.2877, 158.2954
528.7698, 164.8924
529.2519, 171.5196
529.7340, 178.1452
530.2161, 184.7183
530.6982, 191.2795
531.1804, 197.8468
531.6625, 204.1985
532.1446, 211.2081
532.6267, 219.5830
533.1088, 228.4938
533.5909, 237.0433
534.0731, 245.2955
534.5552, 253.0553
535.0373, 260.3253
535.5194, 267.0910
536.0015, 273.8372
536.4836, 281.1280
536.9658, 287.1153
537.4479, 290.8832
537.9300, 292.5103
538.4121, 294.2550
538.8942, 296.3617
539.3763, 297.4796
539.8585, 296.2184
540.3406, 292.8615
540.8227, 289.0266
541.3048, 284.8764
541.7869, 280.2997
542.2690, 275.0934
542.7512, 269.3355
543.2333, 263.2188
543.7154, 256.6834
544.1975, 249.9415
544.6796, 243.0673
545.1617, 236.0670
545.6439, 229.2428
546.1260, 221.6613
546.6081, 215.1043
547.0902, 211.0699
547.5723, 210.5869
548.0544, 209.0999
548.5366, 204.2393
549.0187, 199.0854
549.5008, 196.3643
549.9829, 197.3594
550.4650, 198.4977
550.9471, 199.6378
551.4293, 200.6697
551.9114, 201.3058
552.3935, 201.4719
552.8756, 201.5986
553.3577, 201.8010
553.8398, 202.0975
554.3220, 202.7408
554.8041, 203.7548
555.2862, 204.4599
555.7683, 204.3552
556.2504, 203.5629
556.7325, 202.3564
557.2147, 200.7994
557.6968, 198.6718
558.1789, 195.3456
558.6610, 191.4231
559.1431, 187.8278
559.6252, 185.1325
560.1074, 182.5819
560.5895, 179.6350
561.0716, 176.5424
561.5537, 174.2004
562.0358, 173.0639
562.5179, 172.4167
563.0001, 172.0728
563.4822, 172.0495
563.9643, 172.0458
564.4464, 171.7403
564.9285, 171.9100
565.4106, 173.2206
565.8928, 175.8217
566.3749, 178.6898
566.8570, 181.8526
567.3391, 185.0977
567.8212, 188.1668
568.3033, 191.0785
568.7855, 193.8000
569.2676, 196.6027
569.7497, 198.9594
570.2318, 200.1631
570.7139, 200.2541
571.1960, 199.5090
571.6782, 198.5153
572.1603, 196.4561
572.6424, 192.6371
573.1245, 186.9357
573.6066, 180.0563
574.0887, 171.1997
574.5709, 161.8508
575.0530, 153.0898
575.5351, 145.3527
576.0172, 137.6388
576.4993, 129.7443
576.9814, 121.9244
577.4636, 114.7257
577.9457, 108.2478
578.4278, 102.1394
578.9099, 96.40022
579.3920, 91.05626
579.8741, 86.14887
580.3563, 81.69173
580.8384, 77.81139
581.3205, 74.76675
581.8026, 72.32404
582.2847, 69.95662
582.7668, 67.63433
583.2490, 65.48587
583.7311, 63.58299
584.2132, 61.93828
584.6953, 60.56616
585.1774, 59.54022
585.6595, 58.65064
586.1416, 57.74364
586.6237, 56.91819
587.1058, 56.30820
587.5880, 56.10448
588.0701, 55.94659
588.5522, 55.74574
589.0343, 55.52085
589.5164, 55.35829
589.9985, 55.22420
590.4807, 55.21044
590.9628, 55.37210
591.4449, 55.71185
591.9270, 56.11098
592.4091, 56.60436
592.8912, 57.00568
593.3734, 57.01830
593.8555, 56.75755
594.3376, 56.79199
594.8197, 57.23620
595.3018, 57.82999
595.7839, 58.32288
596.2661, 58.75488
596.7482, 59.20358
597.2303, 59.75068
597.7124, 60.27346
598.1945, 60.70276
598.6766, 61.05342
599.1588, 61.36177
599.6409, 61.67804
600.1230, 61.91395
600.6051, 61.98665
601.0872, 61.88029
601.5693, 61.90675
602.0515, 62.16930
602.5336, 62.42255
603.0157, 62.45610
603.4978, 62.18376
603.9799, 62.28900
604.4620, 62.89617
604.9442, 63.58294
605.4263, 63.72911
605.9084, 63.43570
606.3905, 63.26759
606.8726, 63.33793
607.3547, 63.62761
607.8369, 64.14803
608.3190, 64.86962
608.8011, 65.73277
609.2832, 67.00131
609.7653, 68.14259
610.2474, 68.64845
610.7296, 68.62375
611.2117, 68.89104
611.6938, 69.75498
612.1759, 70.90318
612.6580, 72.19540
613.1401, 73.63155
613.6223, 75.22569
614.1044, 76.97279
614.5865, 78.85511
615.0686, 80.83166
615.5507, 82.89102
616.0328, 85.08666
616.5150, 87.43130
616.9971, 89.86417
617.4792, 92.20033
617.9613, 94.51393
618.4434, 97.16891
618.9255, 100.4462
619.4077, 103.9172
619.8898, 107.1331
620.3719, 110.1572
620.8540, 113.2414
621.3361, 116.1151
621.8182, 119.3837
622.3004, 123.4952
622.7825, 128.4395
623.2646, 133.4999
623.7467, 138.7184
624.2288, 143.8254
624.7109, 148.6105
625.1931, 152.8540
625.6752, 157.6445
626.1573, 163.2612
626.6394, 169.0074
627.1215, 174.0254
627.6036, 178.2974
628.0858, 183.0238
628.5679, 188.5128
629.0500, 194.2154
629.5321, 198.9457
630.0142, 203.1225
630.4963, 207.9249
630.9785, 214.1693
631.4606, 220.9492
631.9427, 227.1938
632.4248, 233.2735
632.9069, 240.3983
633.3890, 249.0433
633.8712, 258.7770
634.3533, 269.1977
634.8354, 280.2202
635.3175, 293.5475
635.7996, 310.5378
636.2817, 328.2825
636.7639, 345.1191
637.2460, 360.2766
637.7281, 378.2174
638.2102, 399.5373
638.6923, 422.1836
639.1744, 443.6732
639.6566, 464.2352
640.1387, 486.4603
640.6208, 510.2612
641.1029, 536.0925
641.5850, 564.1995
642.0671, 594.4838
642.5493, 627.4535
643.0314, 661.8356
643.5135, 699.8746
643.9956, 743.4164
644.4777, 791.6014
644.9598, 842.2100
645.4420, 893.9200
645.9241, 948.9779
646.4062, 1008.503
646.8883, 1072.015
647.3704, 1135.690
647.8525, 1200.603
648.3347, 1262.459
648.8168, 1320.283
649.2989, 1374.432
649.7810, 1412.324
650.2631, 1434.066
650.7452, 1437.835
651.2274, 1421.980
651.7095, 1386.704
652.1916, 1329.478
652.6737, 1247.890
653.1558, 1155.545
653.6379, 1054.159
654.1201, 950.0561
654.6022, 851.0271
655.0843, 756.5587
655.5664, 670.6906
656.0485, 595.1018
656.5306, 529.8226
657.0128, 472.8485
657.4949, 425.6499
657.9770, 384.2480
658.4591, 348.4572
658.9412, 317.9258
659.4233, 291.4450
659.9055, 269.0343
660.3876, 249.6231
660.8697, 232.8739
661.3518, 218.4429
661.8339, 205.6830
662.3160, 194.5589
662.7982, 184.6203
663.2803, 175.8631
663.7624, 167.9184
664.2445, 160.4546
664.7266, 153.3030
665.2087, 147.1194
665.6909, 142.6113
666.1730, 138.8724
666.6551, 135.1642
667.1372, 131.2574
667.6193, 127.6568
668.1014, 124.3443
668.5836, 121.3994
669.0657, 119.0575
669.5478, 117.3954
670.0299, 115.6227
670.5120, 113.4914
670.9941, 111.3317
671.4763, 109.7555
671.9584, 108.6730
672.4405, 107.7094
672.9226, 106.7572
673.4047, 105.7917
673.8868, 104.7014
674.3690, 103.5655
674.8511, 102.6277
675.3332, 101.9802
675.8153, 101.5559
676.2974, 101.4069
676.7795, 101.5438
677.2617, 101.4960
677.7438, 101.1727
678.2259, 100.7991
678.7080, 100.4230
679.1901, 100.0235
679.6722, 99.99982
680.1544, 100.3830
680.6365, 100.9503
681.1186, 101.6195
681.6007, 102.3049
682.0828, 102.7429
682.5649, 102.8401
683.0471, 102.9994
683.5292, 103.6919
684.0113, 104.5776
684.4934, 105.2161
684.9755, 105.1859
685.4576, 105.3788
685.9398, 106.1763
686.4219, 107.2903
686.9040, 108.2276
687.3861, 108.8210
687.8682, 109.5618
688.3503, 110.4917
688.8325, 111.6439
689.3146, 113.2046
689.7967, 115.1764
690.2788, 116.9485
690.7609, 117.9972
691.2430, 118.8836
691.7252, 120.8376
692.2073, 123.6507
692.6894, 126.2998
693.1715, 127.7990
693.6536, 129.2395
694.1357, 131.3804
694.6179, 134.2451
695.1000, 137.3783
695.5821, 140.8436
696.0642, 144.3940
696.5463, 147.8184
697.0284, 150.9993
697.5106, 154.8631
697.9927, 159.5253
698.4748, 164.6211
698.9569, 169.7366
699.4390, 174.9470
699.9211, 180.7665
700.4033, 187.2678
700.8854, 194.1138
701.3675, 200.7071
701.8496, 207.5003
702.3317, 215.2753
702.8138, 224.2923
703.2960, 233.8916
703.7781, 244.1202
704.2602, 254.5863
704.7423, 264.8089
705.2244, 273.9260
705.7065, 283.8323
706.1887, 294.9215
706.6708, 306.6605
707.1529, 318.4853
707.6350, 330.3472
708.1171, 342.5436
708.5992, 355.1710
709.0814, 368.1572
709.5635, 381.8057
710.0456, 396.0456
710.5277, 410.2270
711.0098, 424.2181
711.4919, 437.8527
711.9741, 451.1778
712.4562, 463.9747
712.9383, 475.8611
713.4204, 486.8277
713.9025, 496.7524
714.3846, 505.7505
714.8668, 513.9019
715.3489, 520.0944
715.8310, 524.3243
716.3131, 526.7156
716.7952, 527.4733
717.2773, 526.5482
717.7595, 523.1558
718.2416, 517.2674
718.7237, 509.4650
719.2058, 500.3151
719.6879, 489.5006
720.1700, 476.3088
720.6522, 460.4571
721.1343, 444.1982
721.6164, 428.6397
722.0985, 413.2312
722.5806, 397.1264
723.0627, 380.1514
723.5449, 362.8621
724.0270, 344.4778
724.5091, 326.3748
724.9912, 309.8537
725.4733, 294.8824
725.9554, 280.5526
726.4376, 266.7439
726.9197, 253.4879
727.4018, 240.8295
727.8839, 228.9230
728.3660, 218.4312
728.8481, 209.7926
729.3303, 201.6544
729.8124, 192.5354
730.2945, 183.2898
730.7766, 175.3152
731.2587, 169.5635
731.7408, 164.3752
732.2230, 159.5707
732.7051, 155.0469
733.1872, 150.6206
733.6693, 146.2707
734.1514, 142.1829
734.6335, 138.3614
735.1157, 134.8723
735.5978, 132.0155
736.0799, 129.7282
736.5620, 127.4689
737.0441, 124.6646
737.5262, 122.0217
738.0084, 120.5652
738.4905, 119.9789
738.9726, 119.1850
739.4547, 117.4107
739.9368, 115.6231
740.4189, 114.3316
740.9011, 113.5004
741.3832, 112.3487
741.8653, 110.5946
742.3474, 109.0124
742.8295, 107.9782
743.3116, 107.4188
743.7938, 106.8493
744.2759, 106.2730
744.7580, 105.5560
745.2401, 104.5129
745.7222, 103.3222
746.2043, 102.1945
746.6865, 101.1441
747.1686, 100.2793
747.6507, 99.98180
748.1328, 99.63599
748.6149, 98.76202
749.0970, 97.18690
749.5792, 95.79570
750.0613, 94.75501
750.5434, 93.72937
751.0255, 92.42287
751.5076, 90.79382
751.9897, 89.56100
752.4719, 88.78152
752.9540, 88.06798
753.4361, 86.92738
753.9182, 85.59543
754.4003, 84.64486
754.8824, 84.23696
755.3646, 83.55092
755.8467, 81.68065
756.3288, 79.47865
756.8109, 77.79631
757.2930, 76.96944
757.7751, 76.21445
758.2573, 75.54787
758.7394, 74.85927
759.2215, 74.02270
759.7036, 73.00191
760.1857, 72.00497
760.6678, 71.02898
761.1500, 70.19469
761.6321, 69.78145
762.1142, 69.64127
762.5963, 69.40398
763.0784, 68.96776
763.5605, 68.45732
764.0427, 67.92449
764.5248, 67.38247
765.0069, 66.84792
765.4890, 66.39683
765.9711, 65.85516
766.4532, 65.16525
766.9354, 64.40948
767.4175, 63.67909
767.8996, 62.95581
768.3817, 62.37263
768.8638, 61.96507
769.3459, 61.66920
769.8281, 61.35139
770.3102, 61.06452
770.7923, 60.97486
771.2744, 61.22229
771.7565, 61.55391
772.2386, 61.83501
772.7208, 62.07468
773.2029, 62.28868
773.6850, 62.53902
774.1671, 62.68002
774.6492, 62.63001
775.1313, 62.49025
775.6135, 62.47956
776.0956, 62.61141
776.5777, 62.74947
777.0598, 62.79205
777.5419, 62.92233
778.0240, 63.66354
778.5062, 64.79913
778.9883, 65.65456
779.4704, 65.68451
779.9525, 65.57610
780.4346, 65.66225
780.9167, 65.92953
781.3989, 66.34505
781.8810, 66.83606
782.3631, 67.58566
782.8452, 68.73615
783.3273, 70.12169
783.8094, 71.22613
784.2916, 72.01597
784.7737, 72.93293
785.2558, 74.26507
785.7379, 75.68914
786.2200, 76.39377
786.7021, 76.63111
787.1843, 77.20799
787.6664, 78.88565
788.1485, 80.67004
788.6306, 81.82372
789.1127, 82.59231
789.5948, 83.89890
790.0770, 86.22305
790.5591, 88.54916
791.0412, 90.71565
791.5233, 92.68388
792.0054, 94.22594
792.4875, 95.31529
792.9697, 96.61124
793.4518, 98.42941
793.9339, 100.5827
794.4160, 102.7669
794.8981, 105.0089
795.3802, 107.3993
795.8624, 110.4306
796.3445, 113.1736
796.8266, 114.8835
797.3087, 115.8081
797.7908, 117.3291
798.2729, 119.7411
798.7551, 122.2397
799.2372, 124.7314
799.7193, 127.1200
800.2014, 128.9715
800.6835, 130.3208
801.1656, 131.7583
801.6478, 133.9662
802.1299, 136.1058
802.6120, 137.1460
803.0941, 137.2932
803.5762, 137.2206
804.0583, 137.6591
804.5405, 137.4428
805.0226, 135.8105
805.5047, 133.1078
805.9868, 130.6156
806.4689, 128.4786
806.9510, 126.1594
807.4332, 123.4237
807.9153, 120.4175
808.3974, 117.6013
808.8795, 114.9588
809.3616, 112.3834
809.8438, 109.7807
810.3259, 107.2920
810.8080, 104.9543
811.2901, 102.8338
811.7722, 101.0675
812.2543, 99.89706
812.7365, 98.86878
813.2186, 97.91611
813.7007, 97.00790
814.1828, 96.07124
814.6649, 95.11055
815.1470, 94.02369
815.6292, 92.67751
816.1113, 91.29989
816.5934, 90.36401
817.0755, 89.77597
817.5576, 89.23959
818.0397, 88.59580
818.5219, 87.98119
819.0040, 87.54007
819.4861, 87.19055
819.9682, 86.66819
820.4503, 85.90621
820.9324, 85.04725
821.4146, 84.06501
821.8967, 83.06664
822.3788, 82.40099
822.8609, 82.05122
823.3430, 81.69302
823.8251, 81.32677
824.3073, 80.72782
824.7894, 79.37331
825.2715, 77.60258
825.7536, 76.09138
826.2357, 75.41679
826.7178, 74.68277
827.2000, 73.44943
827.6821, 72.04198
828.1642, 71.16447
828.6463, 71.03334
829.1284, 70.60627
829.6105, 69.59713
830.0927, 68.29688
830.5748, 67.11758
831.0569, 66.07269
831.5390, 65.21776
832.0211, 64.71714
832.5032, 64.14630
832.9854, 63.15862
833.4675, 61.92165
833.9496, 60.70938
834.4317, 59.51452
834.9138, 58.42952
835.3959, 57.44124
835.8781, 56.59759
836.3602, 56.05607
836.8423, 55.82097
837.3244, 55.29708
837.8065, 54.28046
838.2886, 53.25481
838.7708, 52.95883
839.2529, 52.98857
839.7350, 52.64454
840.2171, 51.48039
840.6992, 50.44360
841.1813, 49.91582
841.6635, 49.62489
842.1456, 49.28385
842.6277, 48.89012
843.1098, 48.43756
843.5919, 47.88903
844.0740, 47.38018
844.5562, 47.11753
845.0383, 47.02974
845.5204, 46.91073
846.0025, 46.72609
846.4846, 46.53028
846.9667, 46.35366
847.4489, 46.18947
847.9310, 46.04441
848.4131, 45.95861
848.8952, 45.76379
849.3773, 45.38015
849.8594, 44.99457
850.3416, 44.75832
850.8237, 44.66752
851.3058, 44.58462
851.7879, 44.50745
852.2700, 44.38716
852.7521, 44.06192
853.2343, 43.73546
853.7164, 43.72226
854.1985, 44.06735
854.6806, 44.26916
855.1627, 43.96684
855.6448, 43.66023
856.1270, 43.62604
856.6091, 43.87163
857.0912, 43.98908
857.5733, 43.96802
858.0554, 43.87004
858.5375, 43.65963
859.0197, 43.42207
859.5018, 43.38647
859.9839, 43.52011
860.4660, 43.61614
860.9481, 43.54366
861.4302, 43.41867
861.9124, 43.24419
862.3945, 43.04870
862.8766, 43.04778
863.3587, 43.32995
863.8408, 43.61404
864.3229, 43.85279
864.8051, 43.99221
865.2872, 43.72275
865.7693, 43.13443
866.2514, 42.76810
866.7335, 42.99230
867.2156, 43.44111
867.6978, 43.96854
868.1799, 44.49539
868.6620, 44.84786
869.1441, 44.68982
869.6262, 44.74488
870.1083, 45.18388
870.5905, 45.83175
871.0726, 46.31890
871.5547, 46.65713
872.0368, 47.08972
872.5189, 47.71693
873.0010, 48.34795
873.4832, 48.67650
873.9653, 48.88997
874.4474, 49.28838
874.9295, 49.98097
875.4116, 50.82604
875.8937, 51.93108
876.3759, 53.08466
876.8580, 54.03270
877.3401, 54.69123
877.8222, 55.67788
878.3043, 57.11057
878.7864, 58.55087
879.2686, 59.35613
879.7507, 59.90865
880.2328, 61.00068
880.7149, 62.80829
881.1970, 64.49543
881.6791, 65.38061
882.1613, 66.20632
882.6434, 67.54213
883.1255, 69.46520
883.6076, 71.37217
884.0897, 73.33176
884.5718, 75.05748
885.0540, 76.15595
885.5361, 76.89591
886.0182, 78.22202
886.5003, 80.05671
886.9824, 81.65422
887.4645, 82.34196
887.9467, 82.84584
888.4288, 83.72184
888.9109, 84.90181
889.3930, 85.56338
889.8751, 85.40502
890.3572, 85.34700
890.8394, 85.78132
891.3215, 86.43173
891.8036, 86.49048
892.2857, 86.02985
892.7678, 85.43436
893.2499, 84.79068
893.7321, 84.18388
894.2142, 83.72315
894.6963, 83.33116
895.1784, 82.86325
895.6605, 82.01734
896.1426, 81.53618
896.6248, 81.67494
897.1069, 81.97501
897.5890, 81.61687
898.0711, 80.69044
898.5532, 80.17907
899.0353, 80.33986
899.5175, 80.52773
899.9996, 79.96457
900.4817, 79.15788
900.9638, 78.73894
901.4459, 78.98159
901.9280, 79.12533
902.4102, 79.07750
902.8923, 78.91993
903.3744, 78.62184
903.8565, 78.17136
904.3386, 78.17225
904.8207, 78.63905
905.3029, 79.14802
905.7850, 79.39507
906.2671, 79.48378
906.7492, 79.46420
907.2313, 79.35898
907.7134, 79.36758
908.1956, 79.66486
908.6777, 79.96159
909.1598, 80.17757
909.6419, 80.31633
910.1240, 80.34293
910.6061, 80.25338
911.0883, 80.31015
911.5704, 80.76002
912.0525, 81.25320
912.5346, 81.32728
913.0167, 81.10160
913.4988, 80.83521
913.9810, 80.45478
914.4631, 80.26530
914.9452, 80.61192
915.4273, 80.98884
915.9094, 80.52307
916.3915, 79.12632
916.8737, 78.16360
917.3558, 77.88449
917.8379, 77.80492
918.3200, 77.29823
918.8021, 76.66656
919.2842, 76.36120
919.7664, 76.50825
920.2485, 76.80144
920.7306, 77.44044
921.2127, 77.93534
921.6948, 77.93965
922.1769, 77.41282
922.6591, 77.02384
923.1412, 76.78001
923.6233, 76.58763
924.1054, 76.31640
924.5875, 76.09053
925.0696, 76.17024
925.5518, 76.49122
926.0339, 76.68279
926.5160, 76.37366
926.9981, 76.17448
927.4802, 76.45847
927.9623, 76.95949
928.4445, 76.73460
928.9266, 75.70629
929.4087, 74.92268
929.8908, 74.76975
930.3729, 74.83374
930.8550, 74.59514
931.3372, 74.15582
931.8193, 73.69790
932.3014, 73.23302
932.7835, 72.82320
933.2656, 72.60120
933.7477, 72.34670
934.2299, 71.84568
934.7120, 71.08190
935.1941, 70.19553
935.6762, 69.17314
936.1583, 68.23414
936.6404, 67.67749
937.1226, 67.28835
937.6047, 66.83193
938.0868, 66.28329
938.5689, 65.59926
939.0510, 64.62495
939.5331, 63.66346
940.0153, 62.85304
940.4974, 62.15745
940.9795, 61.21502
941.4616, 60.00984
941.9437, 59.10492
942.4258, 59.01658
942.9080, 59.07774
943.3901, 58.31241
943.8722, 57.10823
944.3543, 56.29565
944.8364, 56.64991
945.3185, 56.71984
945.8007, 56.14701
946.2828, 55.35167
946.7649, 54.90892
947.2470, 54.80894
947.7291, 54.62554
948.2112, 54.28151
948.6934, 54.00875
949.1755, 54.16189
949.6576, 54.42628
950.1397, 54.40990
950.6218, 53.98761
951.1039, 53.74922
951.5861, 53.85167
952.0682, 54.02467
952.5503, 54.14339
953.0324, 54.21879
953.5145, 54.35137
953.9966, 54.53104
954.4788, 54.64206
954.9609, 54.46487
955.4430, 54.33276
955.9251, 54.57952
956.4072, 55.08031
956.8893, 55.50278
957.3715, 55.81260
957.8536, 55.99892
958.3357, 56.01627
958.8178, 55.97098
959.2999, 55.96096
959.7820, 56.02254
960.2642, 56.41070
960.7463, 57.26305
961.2284, 57.92826
961.7105, 57.77882
962.1926, 57.34024
962.6747, 57.04402
963.1569, 56.92950
963.6390, 57.00676
964.1211, 57.35806
964.6032, 57.67976
965.0853, 57.78592
965.5674, 57.71816
966.0496, 57.42023
966.5317, 56.99830
967.0138, 56.94782
967.4959, 58.06922
967.9780, 59.06308
968.4601, 59.15665
968.9423, 58.68876
969.4244, 58.47160
969.9065, 58.62378
970.3886, 58.45034
970.8707, 57.71762
971.3528, 56.96265
971.8350, 57.02206
972.3171, 57.53671
972.7992, 57.82370
973.2813, 57.68559
973.7634, 57.64300
974.2455, 58.17461
974.7277, 58.59325
975.2098, 58.36511
975.6919, 57.47492
976.1740, 57.26167
976.6561, 57.75747
977.1382, 58.22576
977.6204, 58.07682
978.1025, 57.74877
978.5846, 57.81478
979.0667, 58.14663
979.5488, 58.35679
980.0309, 58.27621
980.5131, 58.10782
980.9952, 57.82306
981.4773, 57.53075
981.9594, 57.41759
982.4415, 57.46906
982.9236, 57.58775
983.4058, 57.76931
983.8879, 57.92271
984.3700, 58.03062
984.8521, 58.03469
985.3342, 57.79805
985.8163, 57.18876
986.2985, 57.05614
986.7806, 57.65228
987.2627, 58.15884
987.7448, 58.10786
988.2269, 57.66601
988.7090, 57.30613
989.1912, 57.01099
989.6733, 56.70602
990.1554, 56.17798
990.6375, 55.82355
991.1196, 56.09779
991.6017, 56.57748
992.0839, 56.48961
992.5660, 55.66040
993.0481, 55.03429
993.5302, 54.72702
994.0123, 54.59306
994.4944, 54.56544
994.9766, 54.55487
995.4587, 54.40847
995.9408, 54.09973
996.4229, 53.78472
996.9050, 53.43555
997.3871, 53.18132
997.8693, 53.12145
998.3514, 53.20537
998.8335, 53.05477
999.3156, 52.69447
999.7977, 52.57701
1000.280, 53.12966
1000.762, 53.70424
1001.244, 53.58691
1001.726, 53.10821
1002.208, 52.82189
1002.690, 52.78672
1003.173, 53.06182
1003.655, 53.74696
1004.137, 54.54488
1004.619, 55.17457
1005.101, 55.66119
1005.583, 56.01090
1006.065, 56.23869
1006.547, 56.52892
1007.029, 57.15272
1007.512, 57.72277
1007.994, 57.87156
1008.476, 57.74831
1008.958, 58.05387
1009.440, 58.85939
1009.922, 59.67443
1010.404, 60.41269
1010.886, 60.95994
1011.369, 60.93858
1011.851, 60.68638
1012.333, 60.81313
1012.815, 61.72126
1013.297, 62.41730
1013.779, 62.62780
1014.261, 62.71218
1014.743, 62.84319
1015.225, 63.03450
1015.708, 63.64903
1016.190, 64.65291
1016.672, 65.48085
1017.154, 65.62065
1017.636, 65.57073
1018.118, 65.59811
1018.600, 65.72488
1019.082, 66.00343
1019.565, 66.52670
1020.047, 66.94356
1020.529, 67.19340
1021.011, 67.32833
1021.493, 67.45451
1021.975, 67.51523
1022.457, 67.30566
1022.939, 66.73625
1023.421, 66.40096
1023.904, 66.85432
1024.386, 67.31942
1024.868, 67.37575
1025.350, 67.07417
1025.832, 66.90804
1026.314, 66.87541
1026.796, 66.75018
1027.278, 66.38171
1027.760, 65.93441
1028.243, 65.50841
1028.725, 65.13607
1029.207, 64.88290
1029.689, 65.06870
1030.171, 64.76846
1030.653, 63.71230
1031.135, 62.71067
1031.617, 62.74383
1032.100, 63.44575
1032.582, 63.75230
1033.064, 63.62710
1033.546, 63.38390
1034.028, 63.13621
1034.510, 62.86443
1034.992, 62.54897
1035.474, 62.20338
1035.957, 61.89071
1036.439, 61.61203
1036.921, 61.29440
1037.403, 60.93504
1037.885, 60.47230
1038.367, 59.70592
1038.849, 58.86214
1039.331, 58.27497
1039.813, 58.08422
1040.296, 57.75867
1040.778, 57.28273
1041.260, 56.64156
1041.742, 55.78344
1042.224, 54.77122
1042.706, 53.75714
1043.188, 52.79511
1043.670, 52.04181
1044.152, 51.81760
1044.635, 51.54740
1045.117, 51.00184
1045.599, 50.27558
1046.081, 49.44600
1046.563, 48.46519
1047.045, 47.73299
1047.527, 47.29169
1048.009, 46.88910
1048.492, 46.22401
1048.974, 45.54454
1049.456, 45.17615
1049.938, 45.09827
1050.420, 44.86379
1050.902, 44.31990
1051.384, 43.82242
1051.866, 43.46021
1052.349, 43.18567
1052.831, 42.91933
1053.313, 42.66465
1053.795, 42.32187
1054.277, 41.69523
1054.759, 41.70835
1055.241, 43.98129
1055.723, 45.94491
1056.205, 45.70303
1056.688, 43.33441
1057.170, 42.13119
1057.652, 42.09190
1058.134, 42.14722
1058.616, 41.61127
1059.098, 41.05066
1059.580, 41.04614
1060.062, 41.38264
1060.544, 41.65926
1061.027, 41.77366
1061.509, 41.93428
1061.991, 42.18129
1062.473, 42.38215
1062.955, 42.28822
1063.437, 42.09049
1063.919, 42.28228
1064.401, 42.83462
1064.884, 43.28649
1065.366, 43.31693
1065.848, 43.34691
1066.330, 43.48836
1066.812, 43.72539
1067.294, 44.07057
1067.776, 44.50313
1068.258, 44.80608
1068.740, 44.90572
1069.223, 45.02586
1069.705, 45.39057
1070.187, 45.82177
1070.669, 46.11727
1071.151, 46.25415
1071.633, 46.73768
1072.115, 47.67609
1072.597, 48.44830
1073.079, 48.75059
1073.562, 48.77626
1074.044, 48.62497
1074.526, 48.46216
1075.008, 48.60816
1075.490, 49.44995
1075.972, 50.07166
1076.454, 50.31681
1076.936, 50.46955
1077.419, 50.81328
1077.901, 51.26427
1078.383, 51.39323
1078.865, 51.23594
1079.347, 51.06632
1079.829, 50.90094
1080.311, 50.90563
1080.793, 51.27501
1081.275, 51.81149
1081.758, 52.22095
1082.240, 52.50074
1082.722, 52.74107
1083.204, 52.94899
1083.686, 53.15958
1084.168, 53.40973
1084.650, 53.67952
1085.132, 53.96658
1085.615, 54.26630
1086.097, 54.50621
1086.579, 54.64731
1087.061, 54.83949
1087.543, 55.09917
1088.025, 55.48137
1088.507, 56.27332
1088.989, 57.18597
1089.471, 57.59903
1089.953, 57.12878
1090.436, 57.11939
1090.918, 58.20188
1091.400, 59.34016
1091.882, 59.97604
1092.364, 60.24528
1092.846, 60.85386
1093.328, 61.69394
1093.810, 62.26591
1094.293, 61.93873
1094.775, 61.84217
1095.257, 62.65657
1095.739, 63.88433
1096.221, 65.00410
1096.703, 66.00843
1097.185, 66.99001
1097.667, 67.95373
1098.150, 68.92319
1098.632, 70.09520
1099.114, 71.10825
1099.596, 71.38514
1100.078, 71.24815
1100.560, 71.82118
1101.042, 73.56020
1101.524, 74.71306
1102.006, 74.94523
1102.489, 74.94427
1102.971, 75.44355
1103.453, 76.26758
1103.935, 77.28322
1104.417, 78.46175
1104.899, 79.22029
1105.381, 79.10703
1105.863, 79.02991
1106.345, 79.20025
1106.828, 79.57354
1107.310, 80.17573
1107.792, 80.89818
1108.274, 81.43901
1108.756, 81.78876
1109.238, 81.69264
1109.720, 80.46144
1110.202, 79.31321
1110.685, 79.00320
1111.167, 79.39916
1111.649, 79.56448
1112.131, 79.51389
1112.613, 79.40398
1113.095, 79.36191
1113.577, 79.17766
1114.059, 78.61707
1114.542, 77.87584
1115.024, 77.15534
1115.506, 76.40483
1115.988, 76.00784
1116.470, 76.00512
1116.952, 75.94289
1117.434, 75.49341
1117.916, 74.84373
1118.398, 74.11438
1118.880, 73.35509
1119.363, 72.66509
1119.845, 71.80693
1120.327, 71.65938
1120.809, 72.52457
1121.291, 73.33419
1121.773, 72.87265
1122.255, 71.69020
1122.737, 70.64355
1123.220, 69.78652
1123.702, 69.07774
1124.184, 68.47962
1124.666, 68.12544
1125.148, 68.16920
1125.630, 68.27771
1126.112, 67.71381
1126.594, 66.78400
1127.077, 66.54149
1127.559, 67.15974
1128.041, 67.68739
1128.523, 67.48354
1129.005, 67.28407
1129.487, 67.43087
1129.969, 67.81025
1130.451, 68.07449
1130.933, 68.24068
1131.416, 68.44399
1131.898, 68.74093
1132.380, 68.99899
1132.862, 68.96201
1133.344, 68.99289
1133.826, 69.45097
1134.308, 70.29810
1134.790, 70.87804
1135.272, 71.18869
1135.755, 71.40788
1136.237, 71.54660
1136.719, 71.74845
1137.201, 72.27732
1137.683, 72.88295
1138.165, 73.20033
1138.647, 73.10883
1139.129, 73.18838
1139.612, 73.44490
1140.094, 73.83203
1140.576, 74.42801
1141.058, 75.04371
1141.540, 75.43605
1142.022, 75.66207
1142.504, 75.84631
1142.986, 76.06582
1143.469, 76.11509
1143.951, 75.93145
1144.433, 75.75512
1144.915, 75.86451
1145.397, 76.08786
1145.879, 76.01923
1146.361, 75.75788
1146.843, 75.74153
1147.325, 76.47587
1147.807, 76.93278
1148.290, 76.94278
1148.772, 76.72139
1149.254, 76.45567
1149.736, 76.18288
1150.218, 76.02339
1150.700, 75.97034
1151.182, 75.85743
1151.664, 75.55203
1152.147, 75.24976
1152.629, 75.00920
1153.111, 74.79834
1153.593, 74.60748
1154.075, 74.40376
1154.557, 74.02709
1155.039, 73.44658
1155.521, 72.82214
1156.004, 72.03381
1156.486, 71.47665
1156.968, 71.47163
1157.450, 71.74409
1157.932, 71.34205
1158.414, 70.36791
1158.896, 69.54658
1159.378, 69.06470
1159.860, 68.71765
1160.343, 68.38200
1160.825, 68.12908
1161.307, 68.02599
1161.789, 68.04810
1162.271, 68.01743
1162.753, 67.93548
1163.235, 67.85082
1163.717, 67.81466
1164.199, 67.69199
1164.682, 67.26950
1165.164, 66.78019
1165.646, 66.43856
1166.128, 66.24537
1166.610, 66.25922
1167.092, 66.48910
1167.574, 66.65664
1168.056, 66.55477
1168.539, 66.43535
1169.021, 66.57011
1169.503, 66.80937
1169.985, 66.91694
1170.467, 66.79736
1170.949, 66.97403
1171.431, 67.48218
1171.913, 67.96455
1172.396, 68.00468
1172.878, 68.06918
1173.360, 68.86270
1173.842, 69.98390
1174.324, 70.62734
1174.806, 70.48526
1175.288, 70.56442
1175.770, 70.92037
1176.252, 71.30807
1176.734, 71.51619
1177.217, 71.65845
1177.699, 71.81458
1178.181, 72.02007
1178.663, 72.39440
1179.145, 73.14738
1179.627, 73.53554
1180.109, 73.42307
1180.591, 73.27392
1181.074, 73.74425
1181.556, 74.31893
1182.038, 74.19022
1182.520, 73.47065
1183.002, 72.87975
1183.484, 72.67149
1183.966, 72.27097
1184.448, 71.55424
1184.931, 70.80276
1185.413, 70.36308
1185.895, 70.07978
1186.377, 69.69449
1186.859, 69.20602
1187.341, 68.79065
1187.823, 68.54128
1188.305, 68.23734
1188.787, 67.82465
1189.270, 67.37740
1189.752, 67.02093
1190.234, 66.69151
1190.716, 66.24732
1191.198, 65.67971
1191.680, 65.17603
1192.162, 64.72163
1192.644, 64.45269
1193.126, 64.46568
1193.609, 64.55538
1194.091, 64.32616
1194.573, 63.95848
1195.055, 63.85141
1195.537, 64.08524
1196.019, 64.06308
1196.501, 63.40234
1196.983, 62.94815
1197.466, 63.01802
1197.948, 63.31155
1198.430, 63.23156
1198.912, 62.97260
1199.394, 62.98435
1199.876, 63.41282
1200.358, 63.58624
1200.840, 63.19180
1201.323, 62.84146
1201.805, 62.72765
1202.287, 62.82640
1202.769, 63.27254
1203.251, 63.85412
1203.733, 64.10406
1204.215, 63.87616
1204.697, 63.51304
1205.179, 62.98577
1205.661, 62.52686
1206.144, 62.27983
1206.626, 62.12541
1207.108, 61.71728
1207.590, 61.21167
1208.072, 60.98571
1208.554, 61.27391
1209.036, 61.40062
1209.518, 61.27253
1210.001, 60.95816
1210.483, 60.37330
1210.965, 59.73319
1211.447, 59.69036
1211.929, 59.98944
1212.411, 60.06184
1212.893, 59.67164
1213.375, 59.20978
1213.858, 58.56607
1214.340, 58.20915
1214.822, 58.56930
1215.304, 59.27012
1215.786, 59.39948
1216.268, 59.14931
1216.750, 58.92392
1217.232, 58.74584
1217.714, 58.83585
1218.197, 59.23774
1218.679, 59.82266
1219.161, 60.67430
1219.643, 61.53308
1220.125, 61.67971
1220.607, 61.42790
1221.089, 61.51639
1221.571, 62.47076
1222.053, 63.17776
1222.536, 63.46320
1223.018, 63.81317
1223.500, 64.67513
1223.982, 65.75157
1224.464, 66.56241
1224.946, 67.09193
1225.428, 67.29874
1225.910, 66.70350
1226.393, 66.59946
1226.875, 67.09438
1227.357, 67.79490
1227.839, 68.53064
1228.321, 69.21221
1228.803, 69.73597
1229.285, 70.09192
1229.767, 70.24780
1230.250, 70.04906
1230.732, 69.95406
1231.214, 70.01015
1231.696, 70.00358
1232.178, 69.73435
1232.660, 69.33335
1233.142, 68.95044
1233.624, 68.58254
1234.106, 68.23373
1234.589, 67.99113
1235.071, 67.57554
1235.553, 66.99993
1236.035, 66.14249
1236.517, 64.65544
1236.999, 63.05074
1237.481, 61.97909
1237.963, 61.25448
1238.445, 60.44011
1238.928, 59.52814
1239.410, 58.38935
1239.892, 56.97953
1240.374, 55.60824
1240.856, 54.53762
1241.338, 53.58753
1241.820, 52.61045
1242.302, 51.61619
1242.785, 50.65985
1243.267, 49.76972
1243.749, 48.71331
1244.231, 47.47483
1244.713, 46.24706
1245.195, 45.14275
1245.677, 44.12962
1246.159, 43.19489
1246.641, 42.34932
1247.124, 41.65559
1247.606, 41.14845
1248.088, 40.32148
1248.570, 39.17106
1249.052, 38.19888
1249.534, 37.87575
1250.016, 37.67599
1250.498, 37.40487
1250.980, 36.98982
1251.463, 36.28215
1251.945, 35.28725
1252.427, 34.38293
1252.909, 33.59209
1253.391, 32.99391
1253.873, 32.84679
1254.355, 32.66195
1254.837, 32.12438
1255.320, 31.52947
1255.802, 31.25056
1256.284, 31.22634
1256.766, 31.06742
1257.248, 30.77426
1257.730, 30.46595
1258.212, 30.26798
1258.694, 29.96170
1259.177, 29.42651
1259.659, 28.86898
1260.141, 28.51631
1260.623, 28.31910
1261.105, 28.15588
1261.587, 28.00011
1262.069, 27.75719
1262.551, 27.31064
1263.033, 26.87544
1263.516, 26.43608
1263.998, 26.10096
1264.480, 26.11847
1264.962, 26.25234
1265.444, 25.88538
1265.926, 25.17773
1266.408, 24.75945
1266.890, 25.06874
1267.372, 25.16650
1267.855, 24.97355
1268.337, 24.66335
1268.819, 24.28386
1269.301, 23.94831
1269.783, 23.86840
1270.265, 23.96133
1270.747, 23.99710
1271.229, 23.96187
1271.712, 23.81846
1272.194, 23.54467
1272.676, 23.31484
1273.158, 23.36500
1273.640, 23.42441
1274.122, 23.17880
1274.604, 22.77905
1275.086, 22.52710
1275.568, 22.44373
1276.051, 22.42673
1276.533, 22.47309
1277.015, 22.44864
1277.497, 22.17348
1277.979, 21.90121
1278.461, 21.78494
1278.943, 21.76443
1279.425, 21.77862
1279.907, 21.82642
1280.390, 21.84447
1280.872, 21.82475
1281.354, 21.71141
1281.836, 21.30321
1282.318, 21.02215
1282.800, 21.07858
1283.282, 21.25476
1283.764, 21.40790
1284.247, 21.52739
1284.729, 21.50476
1285.211, 21.38647
1285.693, 21.34737
1286.175, 21.56925
1286.657, 21.70774
1287.139, 21.71734
1287.621, 21.65700
1288.104, 21.54685
1288.586, 21.41265
1289.068, 21.29886
1289.550, 21.20365
1290.032, 21.12087
1290.514, 21.02903
1290.996, 21.00523
1291.478, 21.07034
1291.960, 21.11696
1292.443, 21.05036
1292.925, 20.95688
1293.407, 20.89970
1293.889, 20.90575
1294.371, 21.06421
1294.853, 21.44179
1295.335, 21.53590
1295.817, 21.34034
1296.299, 21.12358
1296.782, 20.99664
1297.264, 20.93956
1297.746, 20.99982
1298.228, 21.07321
1298.710, 21.06097
1299.192, 20.96708
1299.674, 20.79492
1300.156, 20.57143
1300.639, 20.47633
1301.121, 20.67540
1301.603, 20.80131
1302.085, 20.50201
1302.567, 20.28426
1303.049, 20.38195
1303.531, 20.79142
##END=



