##NAMES=Nifontovite
##RRUFFID=R080138
##IDEAL CHEMISTRY=Ca_3_[BO(OH)_2_]_6_&#183;2H_2_O
##LOCALITY=Charcas, San Luis Potosi, Mexico
##OWNER=RRUFF
##SOURCE=Marcus Origlieri
##DESCRIPTION=Colorless prismatic crystal
##STATUS=The identification of this mineral has been confirmed by single-crystal X-ray diffraction.
##URL=rruff.info/R080138
94.26532, 60.00821
94.74744, 60.28317
95.22955, 59.61512
95.71167, 58.46859
96.19379, 57.17921
96.67590, 55.77827
97.15803, 54.57600
97.64014, 53.66802
98.12226, 52.96380
98.60438, 52.34234
99.08649, 51.83886
99.56861, 51.32399
100.0507, 50.57162
100.5328, 49.43952
101.0150, 48.31710
101.4971, 47.48574
101.9792, 46.94189
102.4613, 46.54379
102.9434, 46.19347
103.4255, 45.97819
103.9077, 46.01023
104.3898, 46.34620
104.8719, 46.86755
105.3540, 47.35231
105.8361, 47.82572
106.3182, 48.20647
106.8004, 48.42370
107.2825, 48.56939
107.7646, 48.71881
108.2467, 48.89823
108.7288, 49.12307
109.2109, 49.64629
109.6931, 50.56822
110.1752, 51.67968
110.6573, 52.79556
111.1394, 54.02917
111.6215, 55.67867
112.1037, 58.00483
112.5858, 61.12429
113.0679, 64.49467
113.5500, 67.87731
114.0321, 71.61421
114.5142, 76.03832
114.9964, 81.20083
115.4785, 86.72850
115.9606, 92.21359
116.4427, 97.65132
116.9248, 103.2066
117.4069, 108.8949
117.8891, 114.7168
118.3712, 120.8455
118.8533, 127.5795
119.3354, 134.1415
119.8175, 140.4550
120.2996, 146.4650
120.7818, 150.7661
121.2639, 151.8730
121.7460, 149.6841
122.2281, 147.1104
122.7102, 143.6545
123.1923, 140.6211
123.6745, 139.2704
124.1566, 139.6703
124.6387, 140.2228
125.1208, 138.6420
125.6029, 134.3696
126.0850, 128.8495
126.5672, 121.5635
127.0493, 113.7130
127.5314, 106.0630
128.0135, 98.90905
128.4956, 92.45558
128.9778, 87.14714
129.4599, 83.48534
129.9420, 80.61732
130.4241, 78.49826
130.9062, 77.13244
131.3883, 76.66061
131.8705, 77.26054
132.3526, 78.69516
132.8347, 79.60448
133.3168, 79.60509
133.7989, 79.59737
134.2810, 79.98441
134.7632, 80.71387
135.2453, 81.48716
135.7274, 82.14179
136.2095, 82.68424
136.6916, 83.18610
137.1737, 83.90266
137.6559, 84.42928
138.1380, 84.52750
138.6201, 84.29911
139.1022, 83.12424
139.5843, 80.24496
140.0664, 76.21268
140.5486, 71.61172
141.0307, 66.29478
141.5128, 60.61684
141.9949, 55.67712
142.4770, 51.49790
142.9591, 48.13924
143.4413, 45.48094
143.9234, 43.52853
144.4055, 42.29272
144.8876, 41.84814
145.3697, 42.19582
145.8518, 42.92739
146.3340, 44.29070
146.8161, 45.85353
147.2982, 48.00085
147.7803, 50.36055
148.2624, 52.05785
148.7445, 52.18274
149.2267, 50.41143
149.7088, 48.24895
150.1909, 45.34797
150.6730, 42.42318
151.1551, 39.78036
151.6372, 37.49638
152.1194, 35.57940
152.6015, 34.02412
153.0836, 32.91286
153.5657, 32.13369
154.0478, 31.80942
154.5300, 31.75509
155.0121, 31.78748
155.4942, 31.85715
155.9763, 32.03719
156.4584, 32.42489
156.9405, 32.96878
157.4227, 33.84551
157.9048, 35.34762
158.3869, 37.20807
158.8690, 38.83686
159.3511, 40.01036
159.8332, 41.02363
160.3154, 42.43552
160.7975, 44.28999
161.2796, 45.67233
161.7617, 45.80639
162.2438, 44.78136
162.7259, 43.75620
163.2081, 42.90022
163.6902, 42.22125
164.1723, 41.62943
164.6544, 41.11813
165.1365, 40.95041
165.6186, 41.44420
166.1008, 42.68249
166.5829, 44.22005
167.0650, 46.35741
167.5471, 48.52256
168.0292, 50.42019
168.5113, 51.95952
168.9935, 53.12106
169.4756, 53.93784
169.9577, 54.73756
170.4398, 54.41773
170.9219, 52.53966
171.4040, 49.92719
171.8862, 47.12192
172.3683, 44.34999
172.8504, 41.67332
173.3325, 39.21321
173.8146, 37.06296
174.2967, 35.08953
174.7789, 33.14571
175.2610, 31.41601
175.7431, 30.19129
176.2252, 29.60681
176.7073, 29.47523
177.1894, 29.18735
177.6716, 28.31317
178.1537, 27.81281
178.6358, 28.06793
179.1179, 28.81354
179.6000, 29.57058
180.0822, 30.12912
180.5643, 30.50551
181.0464, 30.73861
181.5285, 30.58908
182.0106, 30.65838
182.4927, 31.33105
182.9749, 32.50626
183.4570, 33.71923
183.9391, 34.69660
184.4212, 35.62172
184.9033, 36.86301
185.3854, 38.59608
185.8676, 40.36480
186.3497, 41.84893
186.8318, 43.04755
187.3139, 44.00523
187.7960, 44.82415
188.2781, 45.33969
188.7603, 45.31910
189.2424, 44.64129
189.7245, 43.58562
190.2066, 42.46379
190.6887, 41.25270
191.1708, 40.05101
191.6530, 38.79006
192.1351, 37.59832
192.6172, 36.60204
193.0993, 35.85573
193.5814, 35.30260
194.0635, 34.81428
194.5457, 34.27798
195.0278, 34.06919
195.5099, 34.46564
195.9920, 35.07561
196.4741, 35.47549
196.9562, 35.46373
197.4384, 35.24459
197.9205, 35.41904
198.4026, 36.27169
198.8847, 37.17290
199.3668, 38.24880
199.8489, 39.25574
200.3311, 39.87684
200.8132, 39.94286
201.2953, 39.61047
201.7774, 39.49911
202.2595, 39.80667
202.7417, 40.13435
203.2238, 40.29163
203.7059, 40.47861
204.1880, 40.94612
204.6701, 41.81817
205.1522, 43.09816
205.6344, 44.84065
206.1165, 47.29778
206.5986, 49.89188
207.0807, 52.54939
207.5628, 55.26030
208.0449, 57.98707
208.5271, 60.67935
209.0092, 63.41576
209.4913, 66.49731
209.9734, 70.39675
210.4555, 74.00939
210.9376, 77.24467
211.4198, 79.93690
211.9019, 81.64074
212.3840, 82.09935
212.8661, 81.32883
213.3482, 79.60958
213.8303, 76.57838
214.3125, 73.30041
214.7946, 70.12660
215.2767, 67.11322
215.7588, 64.66795
216.2409, 63.07610
216.7230, 62.14373
217.2052, 61.29295
217.6873, 60.43049
218.1694, 59.85542
218.6515, 59.78349
219.1336, 60.21024
219.6157, 61.04760
220.0979, 62.54921
220.5800, 64.29398
221.0621, 65.92393
221.5442, 67.47118
222.0263, 68.61258
222.5084, 69.05925
222.9906, 68.80489
223.4727, 67.93528
223.9548, 66.26265
224.4369, 64.05751
224.9190, 61.37197
225.4011, 58.17752
225.8833, 54.84452
226.3654, 51.70905
226.8475, 48.75811
227.3296, 46.13653
227.8117, 44.21204
228.2939, 42.42034
228.7760, 40.35248
229.2581, 37.93488
229.7402, 35.57645
230.2223, 33.85151
230.7044, 32.92601
231.1866, 32.10862
231.6687, 31.40573
232.1508, 30.72773
232.6329, 30.04279
233.1150, 29.33335
233.5971, 28.57825
234.0793, 27.72506
234.5614, 26.69217
235.0435, 25.76803
235.5256, 24.90647
236.0077, 24.17015
236.4898, 23.59864
236.9720, 23.20278
237.4541, 22.97399
237.9362, 22.94191
238.4183, 23.29915
238.9004, 23.36803
239.3825, 22.89263
239.8647, 22.37413
240.3468, 22.13536
240.8289, 22.21596
241.3110, 22.44635
241.7931, 22.62555
242.2752, 22.74191
242.7574, 22.82632
243.2395, 22.84133
243.7216, 22.85684
244.2037, 22.92803
244.6858, 23.05548
245.1679, 23.18699
245.6501, 23.25474
246.1322, 23.21889
246.6143, 23.29986
247.0964, 23.46011
247.5785, 23.74970
248.0606, 24.37811
248.5428, 25.27757
249.0249, 25.95549
249.5070, 25.82315
249.9891, 24.68428
250.4712, 24.32467
250.9533, 25.34922
251.4355, 26.62944
251.9176, 27.37359
252.3997, 27.57108
252.8818, 27.74792
253.3639, 28.34301
253.8461, 29.38188
254.3282, 30.37296
254.8103, 31.36304
255.2924, 32.27206
255.7745, 32.92137
256.2566, 33.35127
256.7387, 33.93995
257.2209, 35.01328
257.7030, 36.50338
258.1851, 37.82509
258.6672, 38.81727
259.1493, 39.76628
259.6314, 40.98248
260.1136, 42.41588
260.5957, 43.59330
261.0778, 44.18703
261.5599, 44.30215
262.0420, 44.42070
262.5241, 44.50655
263.0063, 44.64246
263.4884, 44.89297
263.9705, 45.25155
264.4526, 45.66488
264.9348, 46.11639
265.4169, 46.60735
265.8990, 47.08834
266.3811, 47.47826
266.8632, 48.04344
267.3453, 49.09947
267.8275, 50.57598
268.3096, 51.95945
268.7917, 53.15177
269.2738, 54.05152
269.7559, 54.54482
270.2380, 54.57310
270.7202, 54.50684
271.2023, 54.61386
271.6844, 54.86166
272.1665, 55.04020
272.6486, 55.15002
273.1307, 55.09306
273.6129, 54.89288
274.0950, 54.54482
274.5771, 53.83648
275.0592, 52.57078
275.5413, 50.79521
276.0234, 48.75668
276.5056, 46.23798
276.9877, 43.79340
277.4698, 41.76603
277.9519, 40.13954
278.4340, 38.80711
278.9161, 37.72399
279.3983, 36.88615
279.8804, 36.26076
280.3625, 35.87373
280.8446, 35.68624
281.3267, 35.70221
281.8088, 35.87059
282.2910, 36.07417
282.7731, 36.22618
283.2552, 36.36578
283.7373, 36.66862
284.2194, 37.30931
284.7015, 37.77329
285.1837, 37.64691
285.6658, 37.24773
286.1479, 37.06361
286.6300, 37.37682
287.1121, 37.97838
287.5942, 38.36414
288.0764, 38.38724
288.5585, 38.54613
289.0406, 38.98756
289.5227, 39.65590
290.0048, 40.54017
290.4869, 41.67468
290.9691, 42.91962
291.4512, 43.97161
291.9333, 44.66192
292.4154, 45.70337
292.8975, 47.57133
293.3796, 49.68189
293.8618, 51.55393
294.3439, 53.06663
294.8260, 54.54989
295.3081, 56.42297
295.7902, 58.72520
296.2723, 61.21638
296.7545, 64.21465
297.2366, 67.13985
297.7187, 69.55607
298.2008, 71.46595
298.6829, 73.29508
299.1650, 75.62777
299.6472, 78.59818
300.1293, 80.84034
300.6114, 81.45659
301.0935, 82.01264
301.5756, 83.33233
302.0577, 85.24026
302.5399, 87.02072
303.0220, 88.07285
303.5041, 88.42306
303.9862, 88.70755
304.4683, 89.17506
304.9504, 89.24442
305.4326, 88.85220
305.9147, 87.93153
306.3968, 86.35584
306.8789, 83.98792
307.3610, 80.94209
307.8431, 77.73291
308.3253, 74.30728
308.8074, 70.78498
309.2895, 67.10062
309.7716, 63.37843
310.2537, 59.76066
310.7358, 56.26849
311.2180, 53.00787
311.7001, 50.25776
312.1822, 48.09888
312.6643, 46.25963
313.1465, 44.70338
313.6286, 43.37594
314.1107, 42.25111
314.5928, 41.31907
315.0749, 40.54066
315.5570, 39.82906
316.0392, 39.11332
316.5213, 38.73473
317.0034, 39.06949
317.4855, 39.48597
317.9676, 39.62926
318.4497, 39.48375
318.9319, 39.27441
319.4140, 39.27700
319.8961, 39.53801
320.3782, 39.55249
320.8603, 39.10586
321.3424, 38.59435
321.8246, 38.14049
322.3067, 37.74386
322.7888, 37.37975
323.2709, 37.08294
323.7530, 36.81285
324.2351, 36.23474
324.7173, 34.91973
325.1994, 33.90761
325.6815, 33.61440
326.1636, 33.75574
326.6457, 33.94445
327.1278, 34.00291
327.6100, 33.97335
328.0921, 33.92538
328.5742, 33.75401
329.0563, 33.80713
329.5384, 34.35143
330.0205, 35.02358
330.5027, 35.50459
330.9848, 35.70513
331.4669, 35.78090
331.9490, 35.98948
332.4311, 36.41248
332.9132, 36.60828
333.3954, 36.17157
333.8775, 35.73800
334.3596, 35.73433
334.8417, 36.14110
335.3238, 36.55768
335.8059, 36.49728
336.2881, 35.94749
336.7702, 35.80477
337.2523, 36.34885
337.7344, 37.04014
338.2165, 37.62927
338.6986, 38.16218
339.1808, 38.77595
339.6629, 39.56656
340.1450, 40.49886
340.6271, 41.45996
341.1092, 42.48785
341.5913, 43.46399
342.0735, 44.27191
342.5556, 45.03369
343.0377, 45.92140
343.5198, 47.02606
344.0019, 48.19999
344.4840, 49.26274
344.9662, 50.27473
345.4483, 50.94371
345.9304, 50.99541
346.4125, 50.75837
346.8946, 50.37176
347.3767, 49.86030
347.8589, 49.35426
348.3410, 48.99072
348.8231, 48.76475
349.3052, 48.53905
349.7873, 48.30977
350.2694, 48.05596
350.7516, 47.69275
351.2337, 47.26947
351.7158, 46.99506
352.1979, 47.06490
352.6800, 47.38383
353.1621, 47.63428
353.6443, 47.78102
354.1264, 47.92898
354.6085, 48.07627
355.0906, 48.27491
355.5727, 48.61640
356.0548, 49.11855
356.5370, 49.79109
357.0191, 50.61361
357.5012, 51.56682
357.9833, 52.83200
358.4654, 54.67730
358.9475, 56.77533
359.4297, 58.67014
359.9118, 60.25843
360.3939, 61.97594
360.8760, 64.10202
361.3581, 66.61547
361.8402, 69.51201
362.3224, 72.92876
362.8045, 76.49339
363.2866, 79.81124
363.7687, 82.90117
364.2509, 85.98360
364.7330, 89.18265
365.2151, 92.42863
365.6972, 95.71495
366.1793, 99.11764
366.6614, 102.1806
367.1436, 104.5866
367.6257, 106.3583
368.1078, 107.5702
368.5899, 108.5225
369.0720, 108.6781
369.5541, 107.3616
370.0363, 104.7243
370.5184, 101.7628
371.0005, 98.92314
371.4826, 96.04140
371.9647, 92.69333
372.4468, 88.64501
372.9290, 84.80564
373.4111, 81.65101
373.8932, 78.92193
374.3753, 76.19423
374.8574, 73.34853
375.3395, 70.54456
375.8217, 67.96550
376.3038, 65.60091
376.7859, 63.62048
377.2680, 62.08163
377.7501, 60.90745
378.2322, 60.05867
378.7144, 59.52084
379.1965, 59.26287
379.6786, 59.30190
380.1607, 59.61603
380.6428, 59.90372
381.1249, 60.01193
381.6071, 60.26030
382.0892, 60.83679
382.5713, 61.62659
383.0534, 62.37361
383.5355, 62.95939
384.0176, 63.53974
384.4998, 64.46994
384.9819, 66.09489
385.4640, 67.52283
385.9461, 68.85714
386.4282, 69.90870
386.9103, 70.46582
387.3925, 70.52212
387.8746, 70.25358
388.3567, 69.81792
388.8388, 69.18635
389.3209, 68.59514
389.8030, 68.38259
390.2852, 67.86082
390.7673, 66.56350
391.2494, 64.76796
391.7315, 63.01488
392.2136, 61.61789
392.6957, 60.51942
393.1779, 59.51891
393.6600, 58.53764
394.1421, 57.79311
394.6242, 57.41652
395.1063, 57.19799
395.5884, 56.92349
396.0706, 56.55162
396.5527, 56.24700
397.0348, 56.25682
397.5169, 56.67249
397.9990, 57.03691
398.4811, 57.11835
398.9633, 57.35925
399.4454, 58.09917
399.9275, 59.16196
400.4096, 60.09062
400.8917, 60.52512
401.3738, 60.60164
401.8560, 60.91555
402.3381, 61.57867
402.8202, 62.27408
403.3023, 62.78533
403.7844, 63.33390
404.2665, 64.18554
404.7487, 65.43060
405.2308, 66.83961
405.7129, 68.10117
406.1950, 69.20738
406.6771, 70.44898
407.1592, 71.80138
407.6414, 73.39817
408.1235, 75.23393
408.6056, 77.33914
409.0877, 79.86216
409.5698, 82.90453
410.0519, 86.40839
410.5341, 90.24145
411.0162, 94.34721
411.4983, 98.93490
411.9804, 104.3214
412.4626, 110.2374
412.9447, 116.2345
413.4268, 122.3083
413.9089, 128.3344
414.3910, 134.3006
414.8731, 140.1463
415.3553, 145.7400
415.8374, 151.3718
416.3195, 156.1595
416.8016, 158.6243
417.2837, 158.8588
417.7658, 158.0945
418.2480, 156.4733
418.7301, 154.1192
419.2122, 150.9708
419.6943, 147.0632
420.1764, 142.9323
420.6585, 138.8702
421.1407, 134.9432
421.6228, 131.7715
422.1049, 130.1262
422.5870, 128.2795
423.0691, 125.4549
423.5512, 121.9771
424.0334, 118.4079
424.5155, 114.9856
424.9976, 111.6093
425.4797, 108.1235
425.9618, 104.4880
426.4439, 100.8179
426.9261, 96.88279
427.4082, 93.07636
427.8903, 89.67566
428.3724, 86.67420
428.8545, 83.91726
429.3366, 81.26869
429.8188, 78.71849
430.3009, 76.37398
430.7830, 74.31570
431.2651, 72.38074
431.7472, 70.66638
432.2293, 69.01720
432.7115, 67.27386
433.1936, 65.37874
433.6757, 63.39341
434.1578, 61.38682
434.6399, 59.28501
435.1220, 57.44046
435.6042, 55.86058
436.0863, 54.58467
436.5684, 53.83005
437.0505, 53.44500
437.5326, 52.95621
438.0147, 51.93385
438.4969, 50.59406
438.9790, 49.73159
439.4611, 49.48568
439.9432, 49.37104
440.4253, 49.59597
440.9074, 49.66129
441.3896, 48.90828
441.8717, 47.10133
442.3538, 45.04535
442.8359, 43.45597
443.3180, 42.24867
443.8001, 41.01582
444.2823, 39.70499
444.7644, 38.28977
445.2465, 36.64991
445.7286, 34.83902
446.2107, 33.18029
446.6928, 31.72158
447.1750, 30.47790
447.6571, 29.54389
448.1392, 28.89267
448.6213, 28.27748
449.1034, 27.56926
449.5855, 26.81656
450.0677, 26.16677
450.5498, 25.69525
451.0319, 25.15192
451.5140, 24.29386
451.9961, 23.41280
452.4782, 22.97142
452.9604, 23.02226
453.4425, 23.08004
453.9246, 22.59384
454.4067, 21.46681
454.8888, 20.84545
455.3709, 21.20244
455.8531, 21.46107
456.3352, 21.06752
456.8173, 20.34467
457.2994, 19.89382
457.7815, 19.99672
458.2636, 20.37555
458.7458, 20.44974
459.2279, 20.11843
459.7100, 19.67371
460.1921, 18.83021
460.6742, 18.13618
461.1564, 17.98402
461.6385, 18.30369
462.1206, 18.75116
462.6027, 19.12563
463.0848, 19.39584
463.5670, 19.35753
464.0491, 18.82971
464.5312, 18.36013
465.0133, 18.15613
465.4954, 18.08710
465.9775, 18.02280
466.4597, 17.93054
466.9418, 17.88170
467.4239, 18.00629
467.9060, 18.26242
468.3881, 18.35707
468.8702, 18.20571
469.3524, 17.96889
469.8345, 17.73726
470.3166, 17.52281
470.7987, 17.37697
471.2808, 17.28543
471.7629, 17.28870
472.2451, 17.54269
472.7272, 17.97135
473.2093, 18.14115
473.6914, 17.79565
474.1735, 17.23497
474.6556, 17.07541
475.1378, 17.44622
475.6199, 17.70817
476.1020, 17.79273
476.5841, 17.71290
477.0662, 17.36318
477.5483, 16.80909
478.0305, 16.36255
478.5126, 16.27116
478.9947, 16.49850
479.4768, 16.72777
479.9589, 17.04196
480.4410, 17.25727
480.9232, 17.26668
481.4053, 17.20901
481.8874, 17.22197
482.3695, 17.34026
482.8516, 17.51493
483.3337, 17.71900
483.8159, 17.97683
484.2980, 18.05045
484.7801, 17.76357
485.2622, 17.48451
485.7443, 17.29604
486.2264, 17.21001
486.7086, 17.28230
487.1907, 17.58593
487.6728, 17.87492
488.1549, 17.67743
488.6370, 16.94674
489.1191, 16.52081
489.6013, 16.73477
490.0834, 17.15073
490.5655, 17.36241
491.0476, 17.40130
491.5297, 17.48158
492.0118, 17.82781
492.4940, 18.18481
492.9761, 18.12709
493.4582, 17.67469
493.9403, 17.35925
494.4224, 17.49290
494.9045, 17.89946
495.3867, 18.12962
495.8688, 18.13932
496.3509, 18.12648
496.8330, 18.12067
497.3151, 18.12374
497.7972, 18.10014
498.2794, 18.06521
498.7615, 18.14770
499.2436, 18.49561
499.7257, 19.07926
500.2078, 19.37387
500.6899, 19.04470
501.1721, 18.83052
501.6542, 18.96213
502.1363, 19.21061
502.6184, 19.28455
503.1005, 19.12569
503.5826, 18.96087
504.0648, 19.12224
504.5469, 19.66343
505.0290, 19.98220
505.5111, 19.88063
505.9932, 19.79800
506.4753, 19.93978
506.9575, 20.20316
507.4396, 20.42995
507.9217, 20.56949
508.4038, 20.63082
508.8859, 20.56093
509.3680, 20.37434
509.8502, 20.33922
510.3323, 20.53990
510.8144, 20.86728
511.2965, 21.29788
511.7787, 21.79464
512.2607, 22.13213
512.7429, 22.07724
513.2250, 21.98074
513.7071, 22.18254
514.1892, 22.62299
514.6713, 23.00747
515.1534, 23.18752
515.6356, 23.30180
516.1177, 23.63376
516.5998, 24.32805
517.0819, 24.92981
517.5640, 25.28279
518.0461, 25.65867
518.5283, 26.31749
519.0104, 27.18234
519.4925, 27.95075
519.9746, 28.41246
520.4567, 28.66218
520.9388, 29.05316
521.4210, 29.64841
521.9031, 30.27285
522.3852, 30.85510
522.8673, 31.49408
523.3494, 32.25243
523.8315, 33.13439
524.3137, 34.11828
524.7958, 35.19923
525.2779, 36.36193
525.7600, 37.51895
526.2421, 38.63677
526.7242, 39.86497
527.2064, 41.29506
527.6885, 42.86373
528.1706, 44.49317
528.6527, 46.16742
529.1348, 47.94133
529.6169, 49.85745
530.0991, 51.89369
530.5812, 54.01469
531.0633, 56.21669
531.5454, 58.52344
532.0275, 60.93356
532.5096, 63.46817
532.9918, 66.22456
533.4739, 69.44340
533.9560, 72.51992
534.4381, 75.11868
534.9202, 77.62562
535.4024, 80.57773
535.8845, 83.99658
536.3666, 87.38933
536.8488, 90.23614
537.3309, 92.54424
537.8130, 94.72585
538.2951, 96.92045
538.7772, 98.77979
539.2593, 100.3188
539.7415, 101.4589
540.2236, 102.0852
540.7057, 102.1707
541.1878, 101.8703
541.6699, 101.3028
542.1520, 100.4758
542.6342, 99.43651
543.1163, 98.21135
543.5984, 96.71553
544.0805, 94.72628
544.5626, 92.46436
545.0447, 90.33776
545.5269, 88.47673
546.0090, 86.61790
546.4911, 84.42292
546.9732, 82.15173
547.4553, 80.31169
547.9374, 78.99723
548.4196, 78.08005
548.9017, 77.45023
549.3838, 77.10744
549.8659, 77.00115
550.3480, 76.99557
550.8301, 77.33780
551.3123, 78.12888
551.7944, 79.29072
552.2765, 80.82955
552.7586, 82.69827
553.2407, 84.64083
553.7228, 86.35222
554.2050, 87.82563
554.6871, 89.22762
555.1692, 90.91611
555.6513, 91.98052
556.1334, 91.95969
556.6155, 91.25744
557.0977, 90.42894
557.5798, 89.65015
558.0619, 88.52079
558.5440, 86.50435
559.0261, 83.81776
559.5082, 81.20511
559.9904, 78.76601
560.4725, 76.45974
560.9546, 74.33862
561.4367, 72.34194
561.9188, 70.12449
562.4009, 67.08543
562.8831, 64.59081
563.3652, 63.43610
563.8473, 63.00220
564.3294, 62.40289
564.8115, 61.46716
565.2936, 60.62582
565.7758, 60.29949
566.2579, 60.48820
566.7400, 60.95930
567.2221, 61.86695
567.7042, 62.89568
568.1863, 64.07569
568.6685, 65.30199
569.1506, 66.49158
569.6327, 67.61229
570.1148, 68.64037
570.5969, 69.65147
571.0790, 70.58289
571.5612, 71.03484
572.0433, 71.00741
572.5254, 70.47945
573.0075, 69.39376
573.4896, 67.79575
573.9717, 65.69877
574.4539, 63.02551
574.9360, 60.15648
575.4181, 57.17475
575.9002, 54.14899
576.3823, 51.10054
576.8644, 48.04993
577.3466, 45.24457
577.8287, 42.87826
578.3108, 40.88046
578.7929, 38.90611
579.2750, 36.83022
579.7571, 34.94417
580.2393, 33.38100
580.7214, 31.93735
581.2035, 30.36969
581.6856, 28.73901
582.1677, 27.33571
582.6498, 26.40967
583.1320, 25.85592
583.6141, 25.34493
584.0962, 24.88234
584.5783, 24.43688
585.0604, 24.00430
585.5425, 23.58054
586.0247, 23.10935
586.5068, 22.60674
586.9889, 21.99949
587.4710, 22.19415
587.9531, 22.25377
588.4352, 22.18624
588.9174, 21.57529
589.3995, 21.69310
589.8816, 21.53541
590.3637, 21.37774
590.8458, 21.63188
591.3279, 21.16077
591.8101, 21.43217
592.2922, 21.42370
592.7743, 21.56054
593.2564, 21.42011
593.7385, 21.38078
594.2206, 21.64243
594.7028, 21.75578
595.1849, 21.62932
595.6670, 21.84550
596.1491, 21.48240
596.6312, 21.64980
597.1133, 22.05280
597.5955, 21.99995
598.0776, 22.28046
598.5597, 22.45032
599.0418, 22.07537
599.5239, 22.68024
600.0060, 22.40331
600.4882, 22.49178
600.9703, 22.63971
601.4524, 22.63586
601.9345, 22.43537
602.4166, 22.17910
602.8987, 21.96477
603.3809, 21.79827
603.8630, 21.78630
604.3451, 22.09354
604.8272, 22.32126
605.3093, 22.36319
605.7914, 22.31175
606.2736, 22.24234
606.7557, 22.17523
607.2378, 22.10449
607.7199, 22.00696
608.2020, 21.90907
608.6841, 21.96743
609.1663, 22.25769
609.6484, 22.48666
610.1305, 22.56066
610.6126, 22.53871
611.0947, 22.38798
611.5768, 22.12861
612.0590, 22.06459
612.5411, 22.40934
613.0232, 22.95667
613.5053, 23.55248
613.9874, 24.15965
614.4695, 24.65377
614.9517, 24.98281
615.4338, 25.18028
615.9159, 25.26838
616.3980, 25.11916
616.8801, 25.32151
617.3622, 26.07012
617.8444, 26.92373
618.3265, 27.80897
618.8086, 28.64060
619.2907, 29.23402
619.7728, 29.53354
620.2549, 29.85832
620.7371, 30.68573
621.2192, 31.99198
621.7013, 33.15035
622.1834, 34.06069
622.6655, 34.97836
623.1476, 36.01834
623.6298, 37.17041
624.1119, 38.42385
624.5940, 39.80013
625.0761, 41.21535
625.5582, 42.64771
626.0403, 44.07919
626.5225, 45.44780
627.0046, 46.77184
627.4867, 48.17704
627.9688, 49.79186
628.4509, 51.47587
628.9330, 52.77915
629.4152, 53.36654
629.8973, 54.17318
630.3794, 55.27986
630.8615, 56.53700
631.3436, 57.99385
631.8257, 59.53035
632.3079, 60.86121
632.7900, 61.78424
633.2721, 62.64237
633.7542, 63.94399
634.2364, 65.64770
634.7185, 67.33298
635.2006, 68.87301
635.6827, 70.51329
636.1649, 72.40270
636.6470, 74.57409
637.1291, 77.06199
637.6112, 79.97909
638.0933, 83.06519
638.5754, 86.21612
639.0576, 89.47533
639.5397, 92.72057
640.0218, 96.05502
640.5039, 100.0104
640.9860, 105.1128
641.4681, 111.1826
641.9503, 117.2949
642.4324, 122.9565
642.9145, 129.8782
643.3966, 138.5652
643.8787, 148.6372
644.3608, 159.7978
644.8430, 172.1216
645.3251, 185.9785
645.8072, 201.5086
646.2893, 218.7699
646.7714, 237.7847
647.2535, 258.5410
647.7357, 281.3535
648.2178, 306.2888
648.6999, 332.0367
649.1820, 357.3788
649.6641, 382.6225
650.1462, 402.8119
650.6284, 419.6759
651.1105, 429.7328
651.5926, 432.2458
652.0747, 427.5504
652.5568, 415.1105
653.0389, 395.3644
653.5211, 370.6834
654.0032, 341.4438
654.4853, 309.3530
654.9674, 278.7652
655.4495, 249.6608
655.9316, 222.7043
656.4138, 197.9787
656.8959, 175.8515
657.3780, 157.2139
657.8601, 141.9472
658.3422, 128.5360
658.8243, 117.1039
659.3065, 107.2349
659.7886, 98.91544
660.2707, 91.90639
660.7528, 85.80009
661.2349, 80.50264
661.7170, 75.94395
662.1992, 72.14812
662.6813, 69.09209
663.1634, 66.22215
663.6455, 63.44243
664.1276, 60.99212
664.6097, 59.21085
665.0919, 57.61928
665.5740, 55.69462
666.0561, 53.42622
666.5382, 51.51699
667.0203, 50.39949
667.5024, 49.70693
667.9846, 49.22438
668.4667, 48.84929
668.9488, 48.18462
669.4309, 47.06298
669.9130, 45.93598
670.3951, 45.45552
670.8773, 45.74952
671.3594, 45.64880
671.8415, 44.65568
672.3236, 43.84821
672.8057, 43.48882
673.2878, 43.40645
673.7700, 43.49387
674.2521, 43.69878
674.7342, 43.84753
675.2163, 43.78568
675.6984, 43.58580
676.1805, 43.34830
676.6627, 43.07871
677.1448, 42.92549
677.6269, 42.93425
678.1090, 43.10983
678.5911, 43.51300
679.0732, 44.22740
679.5554, 44.67414
680.0375, 44.62010
680.5196, 44.57587
681.0017, 44.85223
681.4838, 45.18975
681.9659, 45.17649
682.4481, 44.76452
682.9302, 44.36265
683.4123, 44.33589
683.8944, 44.63314
684.3765, 45.14508
684.8586, 45.94980
685.3408, 46.46244
685.8229, 46.34027
686.3050, 45.99965
686.7871, 46.02553
687.2692, 46.40411
687.7513, 46.55368
688.2335, 45.99006
688.7156, 45.59784
689.1977, 46.02513
689.6798, 46.87067
690.1619, 47.54605
690.6440, 47.89034
691.1262, 48.02080
691.6083, 48.00056
692.0904, 47.87603
692.5725, 47.99038
693.0546, 48.39917
693.5367, 48.88671
694.0189, 49.46157
694.5010, 50.03693
694.9831, 50.54065
695.4652, 50.97365
695.9473, 51.35892
696.4294, 51.49648
696.9116, 51.79482
697.3937, 52.61488
697.8758, 53.77175
698.3579, 54.95741
698.8400, 56.08662
699.3221, 57.17543
699.8043, 58.21448
700.2864, 59.22763
700.7685, 60.38781
701.2506, 61.65734
701.7327, 63.15305
702.2148, 65.03504
702.6970, 67.02943
703.1791, 68.96848
703.6612, 70.85838
704.1433, 72.80539
704.6254, 74.71364
705.1075, 76.84539
705.5897, 79.48772
706.0718, 82.48839
706.5539, 85.50043
707.0360, 88.47307
707.5181, 91.50631
708.0002, 94.67173
708.4824, 98.01059
708.9645, 101.8230
709.4466, 106.7907
709.9287, 110.9492
710.4108, 113.0467
710.8929, 115.3395
711.3751, 119.3722
711.8572, 124.6195
712.3393, 129.5467
712.8214, 133.5846
713.3035, 137.2655
713.7856, 141.0415
714.2678, 144.7881
714.7499, 148.4358
715.2320, 151.9171
715.7141, 154.8116
716.1962, 156.7936
716.6783, 158.0419
717.1605, 159.0959
717.6426, 160.2527
718.1247, 160.6018
718.6068, 160.1573
719.0889, 158.9439
719.5710, 156.9762
720.0532, 154.2353
720.5353, 150.6113
721.0174, 146.0293
721.4995, 140.9464
721.9816, 135.4281
722.4637, 129.7463
722.9459, 124.4607
723.4280, 119.5719
723.9101, 114.7663
724.3922, 109.8780
724.8743, 104.8456
725.3564, 99.51004
725.8386, 93.59145
726.3207, 88.32626
726.8028, 84.01047
727.2849, 79.92990
727.7670, 75.68497
728.2491, 71.62862
728.7313, 68.24696
729.2134, 65.58588
729.6955, 63.22442
730.1776, 60.92459
730.6597, 58.70195
731.1418, 56.54535
731.6240, 54.47934
732.1061, 52.63059
732.5882, 51.06001
733.0704, 49.64435
733.5525, 48.22797
734.0346, 46.80381
734.5167, 45.55308
734.9988, 44.58901
735.4810, 43.65689
735.9631, 42.69570
736.4452, 41.77582
736.9273, 40.94257
737.4094, 40.20684
737.8915, 39.55662
738.3737, 38.98632
738.8558, 38.50568
739.3379, 38.14345
739.8200, 37.87669
740.3021, 37.65170
740.7842, 37.45665
741.2664, 37.21745
741.7485, 36.85599
742.2306, 36.41459
742.7127, 36.10709
743.1948, 36.01358
743.6769, 35.90962
744.1591, 35.80125
744.6412, 35.66290
745.1233, 35.51263
745.6054, 35.31642
746.0875, 34.96979
746.5696, 34.38821
747.0518, 33.88738
747.5339, 33.83703
748.0160, 33.97713
748.4981, 33.88869
748.9802, 33.54556
749.4623, 33.03563
749.9445, 32.37950
750.4266, 31.69555
750.9087, 31.21562
751.3908, 31.00470
751.8729, 30.68509
752.3550, 30.07279
752.8372, 29.59461
753.3193, 29.45366
753.8014, 29.46550
754.2835, 29.49880
754.7656, 29.52591
755.2477, 29.34154
755.7299, 28.68767
756.2120, 27.91625
756.6941, 27.33237
757.1762, 26.90309
757.6583, 26.54721
758.1404, 26.23666
758.6226, 25.93822
759.1047, 25.61020
759.5868, 25.26743
760.0689, 24.98846
760.5510, 24.74673
761.0331, 24.65674
761.5153, 24.97437
761.9974, 25.21010
762.4795, 24.91385
762.9616, 24.24908
763.4437, 23.75186
763.9258, 23.61483
764.4080, 23.51071
764.8901, 23.32348
765.3722, 23.06096
765.8543, 22.66342
766.3364, 22.18881
766.8185, 21.82508
767.3007, 21.67494
767.7828, 21.67862
768.2649, 21.76907
768.7470, 21.95208
769.2291, 22.06226
769.7112, 22.12447
770.1934, 22.01881
770.6755, 21.56030
771.1576, 20.98127
771.6397, 20.66867
772.1218, 20.63543
772.6039, 20.71803
773.0861, 20.99998
773.5682, 21.27368
774.0503, 21.43116
774.5324, 21.51146
775.0145, 21.59606
775.4966, 21.68856
775.9788, 21.68130
776.4609, 21.42211
776.9430, 21.06095
777.4251, 21.00327
777.9072, 21.24023
778.3893, 21.38130
778.8715, 21.31901
779.3536, 21.20600
779.8357, 21.14277
780.3178, 21.14188
780.7999, 21.28933
781.2820, 21.77234
781.7642, 22.13118
782.2463, 22.29210
782.7284, 22.37227
783.2105, 22.40958
783.6926, 22.42961
784.1747, 22.44864
784.6569, 22.46410
785.1390, 22.55846
785.6211, 22.82902
786.1032, 23.22031
786.5853, 23.68426
787.0674, 24.18846
787.5496, 24.52637
788.0317, 24.59002
788.5138, 24.57273
788.9959, 24.74158
789.4780, 25.10250
789.9601, 25.57088
790.4423, 26.19470
790.9244, 26.85121
791.4065, 27.64058
791.8886, 28.35191
792.3707, 28.80457
792.8528, 29.01719
793.3350, 29.15381
793.8171, 29.18362
794.2992, 29.26333
794.7813, 29.45865
795.2634, 29.78022
795.7455, 30.30579
796.2277, 30.99169
796.7098, 31.63155
797.1919, 32.09871
797.6740, 32.48072
798.1561, 32.98959
798.6382, 33.63758
799.1204, 34.04277
799.6025, 34.09713
800.0846, 34.15943
800.5667, 34.38356
801.0488, 34.73799
801.5309, 35.20654
802.0131, 35.82887
802.4952, 36.31997
802.9773, 36.63308
803.4594, 36.83778
803.9415, 36.96995
804.4236, 37.00790
804.9058, 36.90603
805.3879, 36.67080
805.8700, 36.36284
806.3521, 35.98762
806.8342, 35.61341
807.3163, 35.44265
807.7985, 35.38234
808.2806, 34.99974
808.7627, 34.21331
809.2448, 33.30814
809.7269, 32.44884
810.2090, 31.67088
810.6912, 31.08673
811.1733, 30.73115
811.6554, 30.48424
812.1375, 30.50009
812.6196, 30.44542
813.1017, 30.20584
813.5839, 29.81915
814.0660, 29.27549
814.5481, 28.56431
815.0302, 28.00278
815.5123, 27.84286
815.9944, 27.77477
816.4766, 27.57512
816.9587, 27.27909
817.4408, 26.90695
817.9229, 26.50014
818.4050, 26.25468
818.8871, 26.37441
819.3693, 26.69534
819.8514, 26.78292
820.3335, 26.63071
820.8156, 26.36950
821.2977, 25.98541
821.7798, 25.59799
822.2620, 25.29188
822.7441, 25.03461
823.2262, 24.72687
823.7083, 24.31449
824.1904, 23.97488
824.6725, 23.61786
825.1547, 23.43694
825.6368, 23.70376
826.1189, 24.10739
826.6010, 24.22459
827.0831, 23.98898
827.5652, 23.68851
828.0474, 23.55473
828.5295, 23.41945
829.0116, 22.98028
829.4937, 22.38875
829.9758, 22.09051
830.4579, 22.15696
830.9401, 22.20865
831.4222, 21.93121
831.9044, 21.47770
832.3865, 21.36703
832.8686, 21.72945
833.3507, 21.75051
833.8328, 21.17310
834.3149, 20.61902
834.7971, 20.50143
835.2792, 20.58481
835.7613, 20.39928
836.2434, 19.85622
836.7255, 19.54602
837.2076, 19.89085
837.6898, 20.12024
838.1719, 19.72791
838.6540, 19.08680
839.1361, 18.63715
839.6182, 18.44827
840.1003, 18.37140
840.5825, 18.36486
841.0646, 18.32971
841.5467, 18.04619
842.0288, 17.62260
842.5109, 17.44523
842.9930, 17.55654
843.4752, 17.69843
843.9573, 17.71910
844.4394, 17.65158
844.9215, 17.56034
845.4036, 17.44023
845.8857, 17.31884
846.3679, 17.18414
846.8500, 17.06914
847.3321, 17.01590
847.8142, 16.96740
848.2963, 16.82529
848.7784, 16.60025
849.2606, 16.50228
849.7427, 16.68187
850.2248, 16.85747
850.7069, 16.93618
851.1890, 16.94480
851.6711, 16.89685
852.1533, 16.80611
852.6354, 16.69561
853.1175, 16.57515
853.5996, 16.44713
854.0817, 16.28126
854.5638, 16.11582
855.0460, 16.07502
855.5281, 16.15339
856.0102, 16.25590
856.4923, 16.35696
856.9744, 16.34074
857.4565, 16.00163
857.9387, 15.36383
858.4208, 15.18845
858.9029, 15.75317
859.3850, 16.10242
859.8671, 15.88282
860.3492, 15.58186
860.8314, 15.57179
861.3135, 15.76005
861.7956, 15.89828
862.2777, 15.94746
862.7598, 15.98366
863.2419, 16.05657
863.7241, 16.09303
864.2062, 15.95990
864.6883, 15.78712
865.1704, 15.84654
865.6525, 16.17834
866.1346, 16.44230
866.6168, 16.26733
867.0989, 15.94894
867.5810, 16.00053
868.0631, 16.31180
868.5452, 16.50655
869.0273, 16.51150
869.5095, 16.43330
869.9916, 16.33474
870.4737, 16.25466
870.9558, 16.33491
871.4379, 16.64205
871.9200, 16.70965
872.4022, 16.41123
872.8843, 16.11566
873.3664, 15.95214
873.8485, 15.90184
874.3306, 15.95288
874.8127, 16.10438
875.2949, 16.30450
875.7770, 16.59615
876.2591, 16.87539
876.7412, 17.15060
877.2233, 17.36862
877.7054, 17.44178
878.1876, 17.41804
878.6697, 17.42997
879.1518, 17.52466
879.6339, 17.68740
880.1160, 17.92428
880.5981, 18.21008
881.0803, 18.52167
881.5624, 18.85210
882.0445, 19.22249
882.5266, 19.62956
883.0087, 19.93900
883.4908, 19.94533
883.9730, 19.79096
884.4551, 20.12646
884.9372, 20.99030
885.4193, 21.62886
885.9014, 21.86434
886.3835, 21.99763
886.8657, 22.20421
887.3478, 22.48576
887.8299, 22.85541
888.3120, 23.34473
888.7941, 23.83342
889.2762, 24.43188
889.7584, 24.89633
890.2405, 25.12605
890.7226, 25.20594
891.2047, 25.16527
891.6868, 25.03653
892.1689, 25.00117
892.6511, 25.23060
893.1332, 25.41552
893.6153, 25.39766
894.0974, 25.25817
894.5795, 25.01082
895.0616, 24.72676
895.5438, 24.57263
896.0259, 24.61572
896.5080, 24.71204
896.9901, 24.71832
897.4722, 24.65946
897.9543, 24.58581
898.4365, 24.49967
898.9186, 24.39572
899.4007, 24.27258
899.8828, 24.18860
900.3649, 24.21521
900.8470, 24.28634
901.3292, 24.12057
901.8113, 23.63184
902.2934, 23.36432
902.7755, 23.49667
903.2576, 23.53795
903.7397, 23.17451
904.2219, 22.63071
904.7040, 22.25073
905.1861, 22.04621
905.6682, 21.94235
906.1503, 21.94299
906.6324, 22.03996
907.1146, 22.39040
907.5967, 22.70252
908.0788, 22.66225
908.5609, 22.38563
909.0430, 22.26324
909.5251, 22.46985
910.0073, 22.62174
910.4894, 22.42057
910.9715, 22.12112
911.4536, 21.93577
911.9357, 21.86653
912.4178, 21.90436
912.9000, 22.03182
913.3821, 22.17970
913.8642, 22.32249
914.3463, 22.39931
914.8284, 22.24261
915.3105, 21.91039
915.7927, 21.64627
916.2748, 21.48659
916.7569, 21.46072
917.2390, 21.60820
917.7211, 21.77351
918.2032, 21.65408
918.6854, 21.22984
919.1675, 21.12906
919.6496, 21.50124
920.1317, 21.72811
920.6138, 21.58547
921.0959, 21.34727
921.5781, 21.23984
922.0602, 21.23746
922.5423, 21.21354
923.0244, 21.13248
923.5065, 21.09662
923.9886, 21.03046
924.4708, 21.10016
924.9529, 21.59989
925.4350, 22.15018
925.9171, 22.17558
926.3992, 21.67032
926.8813, 21.34831
927.3635, 21.71162
927.8456, 22.06646
928.3277, 21.91693
928.8098, 21.62083
929.2919, 21.59908
929.7740, 21.79760
930.2562, 21.93565
930.7383, 21.89877
931.2205, 21.81955
931.7026, 21.86162
932.1847, 21.93254
932.6668, 21.84988
933.1489, 21.64075
933.6310, 21.38246
934.1132, 21.10382
934.5953, 20.90720
935.0774, 20.87518
935.5595, 20.95106
936.0416, 21.05379
936.5237, 21.18581
937.0059, 21.07402
937.4880, 20.68271
937.9701, 20.14489
938.4522, 19.41891
938.9343, 18.79876
939.4164, 18.68877
939.8986, 19.04698
940.3807, 19.12673
940.8628, 18.78639
941.3449, 18.44516
941.8270, 18.13914
942.3091, 17.84208
942.7913, 17.46920
943.2734, 17.12820
943.7555, 17.03577
944.2376, 17.24430
944.7197, 17.33899
945.2018, 17.14252
945.6840, 16.95887
946.1661, 16.88937
946.6482, 16.89270
947.1303, 17.03066
947.6124, 17.19806
948.0945, 17.07046
948.5767, 16.45340
949.0588, 15.96872
949.5409, 16.10433
950.0230, 16.46507
950.5051, 16.80095
950.9872, 17.01067
951.4694, 16.86188
951.9515, 16.38303
952.4336, 15.98042
952.9157, 15.94070
953.3978, 16.09313
953.8799, 16.24091
954.3621, 16.37390
954.8442, 16.45481
955.3263, 16.48865
955.8084, 16.54716
956.2905, 16.65897
956.7726, 16.69900
957.2548, 16.46955
957.7369, 16.09310
958.2190, 16.19370
958.7011, 16.80678
959.1832, 17.13780
959.6653, 17.03225
960.1475, 16.81988
960.6296, 16.65419
961.1117, 16.56984
961.5938, 16.64711
962.0759, 16.91021
962.5580, 17.10208
963.0402, 17.21537
963.5223, 17.26854
964.0044, 17.23227
964.4865, 17.17605
964.9686, 17.13505
965.4507, 17.11721
965.9329, 17.14654
966.4150, 17.23265
966.8971, 17.33943
967.3792, 17.56064
967.8613, 17.68439
968.3434, 17.47447
968.8256, 17.24811
969.3077, 17.34705
969.7898, 17.73739
970.2719, 18.15632
970.7540, 18.65280
971.2361, 18.90806
971.7183, 18.54383
972.2004, 18.12704
972.6825, 18.16159
973.1646, 18.42655
973.6467, 18.54662
974.1288, 18.44415
974.6110, 18.22996
975.0931, 17.85409
975.5752, 17.58455
976.0573, 17.81450
976.5394, 18.22505
977.0215, 18.34300
977.5037, 18.19027
977.9858, 17.95063
978.4679, 17.70673
978.9500, 17.58832
979.4321, 17.78147
979.9142, 18.12660
980.3964, 18.30731
980.8785, 18.36101
981.3606, 18.42171
981.8427, 18.50679
982.3248, 18.55334
982.8069, 18.52378
983.2891, 18.50066
983.7712, 18.63303
984.2533, 18.88602
984.7354, 19.00931
985.2175, 19.00137
985.6996, 18.89714
986.1818, 18.68741
986.6639, 18.49274
987.1460, 18.40350
987.6281, 18.37310
988.1102, 18.27542
988.5923, 18.07405
989.0745, 18.10434
989.5566, 18.46910
990.0387, 18.76224
990.5208, 18.86720
991.0029, 18.87312
991.4850, 18.85309
991.9672, 18.79665
992.4493, 18.65543
992.9314, 18.36445
993.4135, 18.14636
993.8956, 18.05047
994.3777, 17.96257
994.8599, 17.84268
995.3420, 17.71796
995.8241, 17.58316
996.3062, 17.45720
996.7883, 17.44348
997.2704, 17.64271
997.7526, 17.78851
998.2347, 17.79522
998.7168, 17.79740
999.1989, 17.93289
999.6810, 18.05824
1000.163, 17.93006
1000.645, 17.57587
1001.127, 17.37139
1001.609, 17.50476
1002.092, 17.68197
1002.574, 17.86966
1003.056, 17.97576
1003.538, 17.83253
1004.020, 17.59585
1004.502, 17.53625
1004.984, 17.69275
1005.466, 17.87336
1005.949, 18.00801
1006.431, 18.08765
1006.913, 18.02696
1007.395, 17.96541
1007.877, 18.12090
1008.359, 18.40825
1008.841, 18.58237
1009.323, 18.57587
1009.805, 18.53995
1010.288, 18.61065
1010.770, 18.68863
1011.252, 18.56455
1011.734, 18.40102
1012.216, 18.54145
1012.698, 18.94640
1013.180, 19.34826
1013.662, 19.63258
1014.145, 19.82494
1014.627, 19.91916
1015.109, 19.96738
1015.591, 20.07978
1016.073, 20.23458
1016.555, 20.37179
1017.037, 20.47796
1017.519, 20.52702
1018.001, 20.50458
1018.484, 20.46295
1018.966, 20.36664
1019.448, 20.66838
1019.930, 20.88125
1020.412, 21.01002
1020.894, 20.80282
1021.376, 21.02945
1021.858, 21.08223
1022.341, 21.12808
1022.823, 21.41578
1023.305, 21.25744
1023.787, 21.54129
1024.269, 21.64865
1024.751, 21.83676
1025.233, 21.84996
1025.715, 21.91717
1026.198, 21.84106
1026.680, 21.32578
1027.162, 20.63866
1027.644, 20.50337
1028.126, 20.93811
1028.608, 21.06567
1029.090, 20.80784
1029.572, 20.62347
1030.054, 20.63661
1030.536, 20.64769
1031.019, 20.47673
1031.501, 20.27737
1031.983, 20.43162
1032.465, 21.03505
1032.947, 21.19726
1033.429, 20.69968
1033.911, 20.34299
1034.393, 20.38013
1034.876, 20.44992
1035.358, 20.27355
1035.840, 19.96291
1036.322, 19.79743
1036.804, 19.83098
1037.286, 19.74385
1037.768, 19.46381
1038.250, 19.19010
1038.733, 18.92131
1039.215, 18.72510
1039.697, 18.70056
1040.179, 18.77023
1040.661, 18.74669
1041.143, 18.63521
1041.625, 18.41174
1042.107, 17.92652
1042.589, 17.53526
1043.072, 17.36690
1043.554, 17.25705
1044.036, 17.08670
1044.518, 16.89206
1045.000, 16.79572
1045.482, 16.88228
1045.964, 16.73887
1046.446, 16.08573
1046.928, 15.54082
1047.411, 15.33618
1047.893, 15.22360
1048.375, 14.96931
1048.857, 14.67359
1049.339, 14.63155
1049.821, 14.95489
1050.303, 15.09111
1050.785, 14.80781
1051.268, 14.52136
1051.750, 14.37374
1052.232, 14.26406
1052.714, 14.08820
1053.196, 13.89218
1053.678, 13.82715
1054.160, 13.95875
1054.642, 13.91118
1055.125, 13.34690
1055.607, 12.91615
1056.089, 12.98146
1056.571, 13.16650
1057.053, 13.16091
1057.535, 13.02968
1058.017, 12.93808
1058.499, 12.90785
1058.981, 13.00720
1059.464, 13.47487
1059.946, 13.79241
1060.428, 13.65452
1060.910, 13.36503
1061.392, 13.10011
1061.874, 12.91353
1062.356, 12.88169
1062.838, 13.02512
1063.320, 13.15486
1063.803, 13.22168
1064.285, 13.23754
1064.767, 13.14643
1065.249, 13.06156
1065.731, 13.03063
1066.213, 13.09719
1066.695, 13.39152
1067.177, 13.93007
1067.660, 14.30950
1068.142, 14.32208
1068.624, 14.20075
1069.106, 13.91367
1069.588, 13.66814
1070.070, 13.64196
1070.552, 13.78322
1071.034, 13.98823
1071.516, 14.23268
1071.999, 14.50468
1072.481, 14.92519
1072.963, 15.20544
1073.445, 15.17592
1073.927, 14.98733
1074.409, 14.62129
1074.891, 14.25229
1075.373, 14.16550
1075.855, 14.38418
1076.338, 14.63893
1076.820, 14.92583
1077.302, 15.05602
1077.784, 14.77558
1078.266, 14.46482
1078.748, 14.44414
1079.230, 14.58061
1079.713, 14.64732
1080.195, 14.62296
1080.677, 14.63866
1081.159, 14.80479
1081.641, 14.88625
1082.123, 14.69536
1082.605, 14.45904
1083.087, 14.28352
1083.569, 14.20193
1084.052, 14.30767
1084.534, 14.54814
1085.016, 14.64808
1085.498, 14.42641
1085.980, 14.31814
1086.462, 14.75978
1086.944, 15.10533
1087.426, 14.69598
1087.908, 14.11817
1088.391, 14.21710
1088.873, 14.82806
1089.355, 15.05161
1089.837, 14.50746
1090.319, 14.11877
1090.801, 14.34288
1091.283, 14.71972
1091.765, 15.18663
1092.248, 15.52409
1092.730, 15.38083
1093.212, 14.95251
1093.694, 14.78864
1094.176, 15.03839
1094.658, 15.36361
1095.140, 15.85089
1095.622, 16.12459
1096.104, 15.80070
1096.587, 15.38370
1097.069, 15.30669
1097.551, 15.48022
1098.033, 15.65824
1098.515, 15.79713
1098.997, 15.96482
1099.479, 16.22303
1099.961, 16.45525
1100.443, 16.63239
1100.926, 16.76120
1101.408, 16.81548
1101.890, 16.83887
1102.372, 16.88248
1102.854, 16.95498
1103.336, 17.09239
1103.818, 17.51236
1104.300, 17.68683
1104.783, 17.17871
1105.265, 16.76035
1105.747, 16.96435
1106.229, 17.42053
1106.711, 17.69885
1107.193, 17.77674
1107.675, 17.73763
1108.157, 17.47049
1108.640, 17.32223
1109.122, 17.36680
1109.604, 17.49953
1110.086, 17.73860
1110.568, 17.99920
1111.050, 18.27559
1111.532, 18.50883
1112.014, 18.45593
1112.496, 17.88799
1112.979, 17.63578
1113.461, 17.99816
1113.943, 18.31613
1114.425, 18.44122
1114.907, 18.46361
1115.389, 18.40380
1115.871, 18.30097
1116.353, 18.26596
1116.835, 18.34118
1117.318, 18.22047
1117.800, 17.66526
1118.282, 17.37077
1118.764, 17.69214
1119.246, 17.89702
1119.728, 17.42978
1120.210, 16.76013
1120.692, 16.64458
1121.175, 17.06832
1121.657, 17.28420
1122.139, 17.25101
1122.621, 17.09858
1123.103, 16.71258
1123.585, 16.53715
1124.067, 16.87400
1124.549, 17.27125
1125.031, 17.18484
1125.514, 16.75093
1125.996, 16.65063
1126.478, 16.99117
1126.960, 17.03629
1127.442, 16.66471
1127.924, 16.50136
1128.406, 16.80050
1128.888, 17.06565
1129.370, 16.85601
1129.853, 16.44218
1130.335, 16.51262
1130.817, 17.06579
1131.299, 17.23928
1131.781, 17.00902
1132.263, 16.99144
1132.745, 17.32697
1133.227, 17.58137
1133.710, 17.49525
1134.192, 17.26460
1134.674, 17.12829
1135.156, 17.11370
1135.638, 17.40292
1136.120, 17.94766
1136.602, 18.40959
1137.084, 18.73984
1137.567, 18.87985
1138.049, 18.80865
1138.531, 18.59200
1139.013, 18.22779
1139.495, 17.91889
1139.977, 18.16636
1140.459, 18.76435
1140.941, 19.11978
1141.423, 19.26677
1141.906, 19.55574
1142.388, 20.02234
1142.870, 20.24235
1143.352, 19.91537
1143.834, 19.48942
1144.316, 19.56869
1144.798, 19.83099
1145.280, 19.74829
1145.762, 19.48398
1146.245, 19.35076
1146.727, 19.39617
1147.209, 19.62284
1147.691, 20.02832
1148.173, 20.31701
1148.655, 20.14627
1149.137, 19.89863
1149.619, 19.92246
1150.102, 20.04392
1150.584, 20.09968
1151.066, 20.07667
1151.548, 19.97027
1152.030, 19.79476
1152.512, 19.64638
1152.994, 19.58210
1153.476, 19.52268
1153.958, 19.36420
1154.441, 19.27015
1154.923, 19.46697
1155.405, 19.70789
1155.887, 19.66218
1156.369, 19.38218
1156.851, 19.14679
1157.333, 18.97799
1157.815, 18.97469
1158.297, 19.43022
1158.780, 19.68488
1159.262, 19.30737
1159.744, 18.87881
1160.226, 18.91718
1160.708, 19.15436
1161.190, 19.02772
1161.672, 18.49742
1162.154, 18.14430
1162.637, 18.08934
1163.119, 17.96844
1163.601, 17.55911
1164.083, 17.45283
1164.565, 18.11465
1165.047, 18.85238
1165.529, 18.90742
1166.011, 18.44779
1166.494, 18.14786
1166.976, 18.03319
1167.458, 17.93340
1167.940, 17.82517
1168.422, 17.86860
1168.904, 18.12820
1169.386, 18.42846
1169.868, 18.68148
1170.350, 18.78270
1170.833, 18.50363
1171.315, 17.93129
1171.797, 17.52239
1172.279, 17.28911
1172.761, 17.42106
1173.243, 17.91155
1173.725, 18.42148
1174.207, 18.81777
1174.689, 19.10495
1175.172, 19.27480
1175.654, 19.37835
1176.136, 19.50433
1176.618, 19.63063
1177.100, 19.74588
1177.582, 19.80737
1178.064, 19.59747
1178.547, 19.18194
1179.029, 19.07175
1179.511, 19.53282
1179.993, 20.07037
1180.475, 20.29216
1180.957, 20.35731
1181.439, 20.39488
1181.921, 20.39379
1182.403, 20.29487
1182.885, 20.15721
1183.368, 20.13035
1183.850, 20.22988
1184.332, 20.26597
1184.814, 20.19359
1185.296, 19.98402
1185.778, 19.33897
1186.260, 18.88300
1186.742, 19.20657
1187.225, 19.75117
1187.707, 19.96364
1188.189, 19.84768
1188.671, 19.51488
1189.153, 18.81111
1189.635, 18.53541
1190.117, 19.19719
1190.599, 19.58987
1191.082, 19.42597
1191.564, 19.10516
1192.046, 18.79399
1192.528, 18.49313
1193.010, 18.18187
1193.492, 17.88011
1193.974, 17.76522
1194.456, 17.87519
1194.938, 17.99833
1195.421, 18.15517
1195.903, 18.10907
1196.385, 17.75428
1196.867, 17.43381
1197.349, 17.40610
1197.831, 17.55340
1198.313, 17.68113
1198.795, 17.79119
1199.277, 17.88286
1199.760, 17.96281
1200.242, 18.07853
1200.724, 18.22292
1201.206, 18.32136
1201.688, 18.34434
1202.170, 18.29629
1202.652, 18.16217
1203.134, 18.00683
1203.617, 17.87525
1204.099, 17.80196
1204.581, 17.87942
1205.063, 18.03352
1205.545, 18.16856
1206.027, 18.23794
1206.509, 18.13902
1206.991, 17.81595
1207.474, 17.57059
1207.956, 17.66291
1208.438, 17.74402
1208.920, 17.61173
1209.402, 17.41891
1209.884, 17.20940
1210.366, 17.06651
1210.848, 17.20320
1211.330, 17.57228
1211.813, 17.61466
1212.295, 17.01373
1212.777, 16.60569
1213.259, 16.40205
1213.741, 16.42100
1214.223, 16.85019
1214.705, 17.20595
1215.187, 17.10555
1215.669, 16.78688
1216.152, 16.70143
1216.634, 16.82630
1217.116, 16.72132
1217.598, 16.34584
1218.080, 16.27661
1218.562, 16.58121
1219.044, 16.96644
1219.526, 17.33424
1220.009, 17.64782
1220.491, 17.87144
1220.973, 18.06312
1221.455, 18.43160
1221.937, 18.79675
1222.419, 18.52054
1222.901, 17.89542
1223.383, 17.77311
1223.865, 18.12733
1224.348, 18.35338
1224.830, 18.25886
1225.312, 18.24674
1225.794, 18.64787
1226.276, 19.11541
1226.758, 19.39628
1227.240, 19.61561
1227.722, 19.91548
1228.204, 20.19718
1228.687, 20.33271
1229.169, 20.32156
1229.651, 20.14865
1230.133, 19.72348
1230.615, 19.66792
1231.097, 20.60732
1231.579, 21.15692
1232.061, 20.68043
1232.544, 20.23348
1233.026, 20.39109
1233.508, 20.69142
1233.990, 20.60806
1234.472, 20.23452
1234.954, 19.94777
1235.436, 19.74455
1235.918, 19.65857
1236.401, 19.69588
1236.883, 19.83203
1237.365, 20.07425
1237.847, 20.10144
1238.329, 19.73808
1238.811, 19.19935
1239.293, 18.71271
1239.775, 18.25664
1240.257, 17.72569
1240.740, 17.21247
1241.222, 16.94867
1241.704, 16.88700
1242.186, 16.96459
1242.668, 17.07705
1243.150, 16.87090
1243.632, 16.16646
1244.114, 15.48164
1244.596, 15.18922
1245.079, 14.98939
1245.561, 14.68275
1246.043, 14.39682
1246.525, 14.31180
1247.007, 14.27971
1247.489, 14.06628
1247.971, 13.67528
1248.453, 13.26733
1248.936, 12.78914
1249.418, 12.47711
1249.900, 12.42711
1250.382, 12.34806
1250.864, 12.12015
1251.346, 12.01889
1251.828, 12.29607
1252.310, 12.53946
1252.792, 12.14480
1253.275, 11.31130
1253.757, 10.85119
1254.239, 10.74479
1254.721, 10.82412
1255.203, 11.03932
1255.685, 11.02374
1256.167, 10.73314
1256.649, 10.54029
1257.131, 10.63960
1257.614, 10.76573
1258.096, 10.63197
1258.578, 10.41605
1259.060, 10.32171
1259.542, 10.26993
1260.024, 10.16685
1260.506, 10.03293
1260.988, 9.909963
1261.471, 9.805958
1261.953, 9.723555
1262.435, 9.675422
1262.917, 9.593271
1263.399, 9.384192
1263.881, 9.248676
1264.363, 9.297977
1264.845, 9.368414
1265.328, 9.439650
1265.810, 9.410687
1266.292, 9.090299
1266.774, 8.612421
1267.256, 8.551005
1267.738, 8.956356
1268.220, 9.285377
1268.702, 9.540591
1269.184, 9.549671
1269.667, 9.290805
1270.149, 9.127089
1270.631, 9.223093
1271.113, 9.314831
1271.595, 9.115592
1272.077, 8.861060
1272.559, 8.976722
1273.041, 9.206427
1273.523, 9.131827
1274.006, 8.901052
1274.488, 8.836469
1274.970, 8.896923
1275.452, 8.794462
1275.934, 8.451848
1276.416, 8.179982
1276.898, 8.105463
1277.380, 8.101903
1277.863, 8.132418
1278.345, 8.231014
1278.827, 8.549325
1279.309, 8.799905
1279.791, 8.658306
1280.273, 8.355373
1280.755, 8.460465
1281.237, 8.963832
1281.719, 8.925199
1282.202, 8.279947
1282.684, 8.112944
1283.166, 8.525227
1283.648, 8.770564
1284.130, 8.617205
1284.612, 8.399364
1285.094, 8.346301
1285.576, 8.337544
##END=



