##NAMES=Nifontovite
##RRUFFID=R060685
##IDEAL CHEMISTRY=Ca_3_[BO(OH)_2_]_6_&#183;2H_2_O
##LOCALITY=Fuka mine, Okayama Prefecture, Japan
##OWNER=RRUFF
##SOURCE=Michael Scott
##DESCRIPTION=Colorless prismatic crystal
##STATUS=The identification of this mineral has been confirmed by X-ray diffraction and chemical analysis
##URL=rruff.info/R060685
##MEASURED CHEMISTRY=Ca_3.00_[BO(OH)_2_]_6_Â·2H_2_O ; = darker phase. H_2_O assumed ideal from stoichiometry; B_2_O_3_ estimated by difference
90.59570, 1951.490
91.07782, 1960.055
91.55994, 1963.196
92.04205, 1957.546
92.52417, 1948.723
93.00629, 1937.507
93.48840, 1914.914
93.97052, 1871.821
94.45264, 1810.305
94.93475, 1763.612
95.41687, 1711.454
95.89898, 1648.434
96.38110, 1585.257
96.86321, 1532.365
97.34533, 1492.999
97.82745, 1459.873
98.30956, 1423.504
98.79168, 1377.940
99.27380, 1337.025
99.75591, 1304.688
100.2380, 1279.065
100.7201, 1256.180
101.2023, 1233.785
101.6844, 1212.318
102.1665, 1192.863
102.6486, 1177.372
103.1307, 1162.277
103.6128, 1143.073
104.0950, 1118.377
104.5771, 1095.906
105.0592, 1081.613
105.5413, 1072.388
106.0234, 1064.458
106.5055, 1056.229
106.9877, 1047.917
107.4698, 1040.484
107.9519, 1034.001
108.4340, 1028.318
108.9161, 1024.131
109.3982, 1020.704
109.8804, 1016.350
110.3625, 1008.556
110.8446, 995.6664
111.3267, 988.3005
111.8088, 988.7841
112.2909, 992.2363
112.7731, 996.1571
113.2552, 1000.360
113.7373, 1006.570
114.2194, 1017.014
114.7015, 1031.556
115.1836, 1052.395
115.6658, 1080.600
116.1479, 1114.220
116.6300, 1151.592
117.1121, 1192.256
117.5942, 1236.217
118.0763, 1283.837
118.5584, 1335.326
119.0406, 1388.817
119.5227, 1445.322
120.0048, 1503.590
120.4869, 1562.467
120.9690, 1626.913
121.4511, 1685.277
121.9333, 1722.214
122.4154, 1739.406
122.8975, 1732.695
123.3796, 1691.753
123.8617, 1613.189
124.3438, 1528.635
124.8260, 1446.012
125.3081, 1367.916
125.7902, 1297.547
126.2723, 1237.371
126.7544, 1184.846
127.2365, 1135.404
127.7187, 1089.730
128.2008, 1046.138
128.6829, 1002.295
129.1650, 959.9189
129.6471, 921.3834
130.1292, 888.0745
130.6114, 859.9222
131.0935, 836.0934
131.5756, 818.4598
132.0577, 803.5481
132.5398, 791.3643
133.0219, 781.4140
133.5041, 773.0642
133.9862, 765.8289
134.4683, 759.8698
134.9504, 753.9384
135.4325, 747.6713
135.9146, 741.6887
136.3968, 736.0019
136.8789, 730.7449
137.3610, 726.6151
137.8431, 724.6976
138.3252, 725.5193
138.8073, 726.1631
139.2895, 727.6381
139.7716, 728.4094
140.2537, 727.2585
140.7358, 724.3043
141.2179, 717.8643
141.7000, 704.2250
142.1821, 684.1875
142.6643, 663.4432
143.1464, 643.0607
143.6285, 623.5487
144.1106, 606.5433
144.5927, 592.3708
145.0748, 581.3668
145.5570, 573.1085
146.0391, 567.6121
146.5212, 564.4330
147.0033, 563.4719
147.4854, 564.8350
147.9675, 567.4082
148.4497, 573.4159
148.9318, 579.0849
149.4139, 582.9487
149.8960, 584.5437
150.3781, 583.2712
150.8602, 577.8275
151.3424, 566.2477
151.8245, 554.3835
152.3066, 541.6243
152.7887, 529.4792
153.2708, 518.8311
153.7529, 510.1040
154.2351, 503.3393
154.7172, 498.7227
155.1993, 497.7545
155.6814, 497.4984
156.1635, 497.9222
156.6456, 498.9245
157.1278, 500.3191
157.6099, 501.9876
158.0920, 504.1006
158.5741, 507.5078
159.0562, 511.5121
159.5383, 517.3011
160.0205, 526.2257
160.5026, 537.2501
160.9847, 548.3275
161.4668, 558.6635
161.9489, 567.7386
162.4310, 573.9153
162.9131, 577.9268
163.3953, 578.7755
163.8774, 574.3511
164.3595, 565.1465
164.8416, 555.9103
165.3237, 548.4528
165.8058, 543.5089
166.2880, 542.0875
166.7701, 544.4894
167.2522, 550.3265
167.7343, 559.2956
168.2164, 571.4540
168.6985, 586.4194
169.1807, 606.6306
169.6628, 628.8372
170.1449, 649.5803
170.6270, 668.9648
171.1091, 685.1805
171.5912, 694.3211
172.0734, 696.7141
172.5555, 690.1396
173.0376, 673.1042
173.5197, 648.5501
174.0018, 619.7377
174.4839, 587.2413
174.9661, 552.2930
175.4482, 522.8818
175.9303, 501.9899
176.4124, 484.0560
176.8945, 467.7443
177.3766, 453.2002
177.8588, 441.1100
178.3409, 432.0003
178.8230, 425.8728
179.3051, 421.1334
179.7872, 418.3124
180.2693, 416.3225
180.7515, 415.0555
181.2336, 414.3996
181.7157, 414.2015
182.1978, 414.3009
182.6799, 414.6505
183.1620, 415.9185
183.6441, 417.7392
184.1263, 420.5272
184.6084, 424.6870
185.0905, 430.1040
185.5726, 436.1984
186.0547, 442.3829
186.5368, 448.6401
187.0190, 455.7787
187.5011, 464.5079
187.9832, 473.5157
188.4653, 482.5502
188.9474, 491.4289
189.4296, 498.6680
189.9117, 502.8250
190.3938, 503.7643
190.8759, 502.1157
191.3580, 497.6377
191.8401, 490.7226
192.3223, 481.2418
192.8044, 468.8348
193.2865, 455.5670
193.7686, 443.0024
194.2507, 431.0396
194.7328, 419.7762
195.2150, 408.8807
195.6971, 398.7238
196.1792, 390.0136
196.6613, 382.9098
197.1434, 377.1424
197.6255, 372.5659
198.1077, 368.9916
198.5898, 366.2054
199.0719, 364.3243
199.5540, 363.1837
200.0361, 362.1214
200.5182, 361.1936
201.0004, 360.2391
201.4825, 359.0692
201.9646, 357.7971
202.4467, 356.7141
202.9288, 356.0703
203.4109, 355.8403
203.8930, 355.5782
204.3752, 354.8072
204.8573, 354.5593
205.3394, 355.5161
205.8215, 357.3341
206.3036, 359.1642
206.7857, 360.1685
207.2679, 360.2608
207.7500, 361.2348
208.2321, 363.5179
208.7142, 366.3617
209.1963, 369.4815
209.6784, 372.9617
210.1606, 377.1281
210.6427, 382.4036
211.1248, 388.9440
211.6069, 394.9095
212.0890, 400.5801
212.5711, 405.4842
213.0533, 409.4135
213.5354, 412.3891
214.0175, 414.5769
214.4996, 416.0812
214.9817, 416.8389
215.4638, 417.2624
215.9460, 416.8805
216.4281, 416.6556
216.9102, 416.7786
217.3923, 417.4113
217.8744, 418.8766
218.3565, 421.4274
218.8387, 425.1461
219.3208, 430.1928
219.8029, 438.4912
220.2850, 446.4293
220.7671, 451.9325
221.2492, 454.9139
221.7314, 456.3426
222.2135, 456.9995
222.6956, 456.7439
223.1777, 455.2579
223.6598, 452.3978
224.1419, 448.4496
224.6240, 443.5066
225.1062, 437.5967
225.5883, 430.9482
226.0704, 423.2769
226.5525, 414.8745
227.0346, 407.6476
227.5167, 402.0446
227.9989, 397.4762
228.4810, 393.5229
228.9631, 390.1688
229.4452, 387.4921
229.9273, 385.9673
230.4094, 385.2086
230.8916, 384.1233
231.3737, 382.9841
231.8558, 381.1949
232.3379, 377.8913
232.8200, 372.9284
233.3021, 367.4716
233.7843, 362.0098
234.2664, 356.5419
234.7485, 351.0174
235.2306, 345.1356
235.7127, 339.4368
236.1948, 334.6822
236.6770, 330.9768
237.1591, 327.6823
237.6412, 324.3122
238.1233, 321.2036
238.6054, 318.8109
239.0875, 317.3778
239.5697, 316.5705
240.0518, 315.9123
240.5339, 315.4141
241.0160, 315.0296
241.4981, 314.7272
241.9802, 314.5279
242.4624, 314.4552
242.9445, 314.5099
243.4266, 314.7178
243.9087, 315.1450
244.3908, 315.8462
244.8729, 316.6206
245.3550, 317.3192
245.8372, 318.1003
246.3193, 319.1386
246.8014, 320.5032
247.2835, 322.0347
247.7656, 323.4740
248.2477, 324.7502
248.7299, 326.0965
249.2120, 327.4245
249.6941, 328.8943
250.1762, 330.6825
250.6583, 332.8388
251.1404, 335.1763
251.6226, 337.2616
252.1047, 338.4727
252.5868, 340.9117
253.0689, 345.2744
253.5510, 350.3725
254.0331, 355.4161
254.5153, 360.1924
254.9974, 365.0157
255.4795, 370.3027
255.9616, 375.7100
256.4437, 382.4415
256.9258, 390.7544
257.4080, 399.9180
257.8901, 409.7154
258.3722, 419.9822
258.8543, 430.4839
259.3364, 441.0008
259.8185, 451.9345
260.3007, 461.7712
260.7828, 470.9134
261.2649, 479.0135
261.7470, 485.8857
262.2291, 491.5117
262.7112, 495.8531
263.1934, 498.8765
263.6755, 500.4644
264.1576, 500.9308
264.6397, 499.7902
265.1218, 498.1766
265.6039, 496.2270
266.0861, 494.2475
266.5682, 492.9366
267.0503, 492.9931
267.5324, 494.5409
268.0145, 496.8961
268.4966, 500.6908
268.9788, 504.5411
269.4609, 508.0879
269.9430, 511.1405
270.4251, 513.3646
270.9072, 514.4271
271.3893, 514.2841
271.8715, 513.9632
272.3536, 513.0888
272.8357, 512.4390
273.3178, 512.5359
273.7999, 513.1619
274.2820, 513.9872
274.7642, 515.1086
275.2463, 516.2401
275.7284, 513.5245
276.2105, 506.9486
276.6926, 497.6510
277.1747, 485.1193
277.6568, 470.0901
278.1389, 453.9201
278.6211, 437.1263
279.1032, 420.0645
279.5853, 404.1963
280.0674, 388.9077
280.5495, 375.1476
281.0316, 363.0446
281.5138, 352.6360
281.9959, 344.1962
282.4780, 337.9901
282.9601, 333.3640
283.4422, 328.8202
283.9243, 323.7941
284.4065, 319.7929
284.8886, 317.5052
285.3707, 316.3298
285.8528, 315.4862
286.3349, 314.7508
286.8170, 314.0812
287.2992, 313.4008
287.7813, 312.7022
288.2634, 312.0276
288.7455, 311.2950
289.2276, 310.6290
289.7097, 310.0962
290.1919, 309.6989
290.6740, 309.6708
291.1561, 310.3541
291.6382, 311.8081
292.1203, 313.5930
292.6024, 315.4979
293.0846, 317.8134
293.5667, 320.8285
294.0488, 324.5912
294.5309, 328.9241
295.0130, 333.6820
295.4951, 338.9244
295.9773, 344.7061
296.4594, 351.1652
296.9415, 358.0663
297.4236, 365.3153
297.9057, 372.8583
298.3878, 380.6269
298.8700, 388.7216
299.3521, 396.9887
299.8342, 404.6674
300.3163, 411.7959
300.7984, 418.2609
301.2805, 424.0580
301.7627, 429.1678
302.2448, 433.5712
302.7269, 437.1586
303.2090, 440.0954
303.6911, 443.0060
304.1732, 446.1182
304.6554, 448.8877
305.1375, 451.3275
305.6196, 453.2650
306.1017, 454.2183
306.5838, 453.9591
307.0659, 452.7115
307.5481, 451.0850
308.0302, 449.6017
308.5123, 446.3108
308.9944, 439.7944
309.4765, 431.2301
309.9586, 422.4446
310.4408, 413.8040
310.9229, 405.5555
311.4050, 398.0999
311.8871, 391.3443
312.3692, 385.4343
312.8513, 380.0282
313.3335, 375.6625
313.8156, 373.0380
314.2977, 372.2846
314.7798, 372.7809
315.2619, 374.1128
315.7440, 376.3183
316.2262, 379.2217
316.7083, 382.5588
317.1904, 386.7704
317.6725, 392.4727
318.1546, 399.6167
318.6367, 407.2277
319.1188, 414.8938
319.6010, 422.4620
320.0831, 429.5394
320.5652, 436.8057
321.0473, 442.9811
321.5294, 447.6940
322.0115, 450.8126
322.4937, 451.9126
322.9758, 450.7458
323.4579, 447.4088
323.9400, 442.2489
324.4221, 435.2731
324.9042, 426.9620
325.3864, 416.6674
325.8685, 405.2584
326.3506, 394.0726
326.8327, 383.3792
327.3148, 373.5326
327.7969, 365.2261
328.2791, 358.4936
328.7612, 352.5243
329.2433, 347.0975
329.7254, 342.4239
330.2075, 338.7448
330.6896, 336.1013
331.1718, 334.4246
331.6539, 333.7759
332.1360, 334.2633
332.6181, 335.0027
333.1002, 336.8061
333.5823, 338.2145
334.0645, 338.1656
334.5466, 336.6660
335.0287, 334.2510
335.5108, 331.2027
335.9929, 327.5205
336.4750, 323.5278
336.9572, 319.2364
337.4393, 314.6249
337.9214, 309.1588
338.4035, 303.3289
338.8856, 298.3060
339.3677, 294.6109
339.8499, 292.0906
340.3320, 290.5139
340.8141, 290.1692
341.2962, 290.0637
341.7783, 289.8652
342.2604, 289.8558
342.7426, 290.5054
343.2247, 291.9463
343.7068, 293.7453
344.1889, 295.3417
344.6710, 296.7284
345.1531, 297.8363
345.6353, 298.5340
346.1174, 299.0358
346.5995, 299.6211
347.0816, 300.2481
347.5637, 300.5251
348.0458, 300.0749
348.5280, 298.8571
349.0101, 297.4848
349.4922, 295.7996
349.9743, 294.1487
350.4564, 292.7477
350.9385, 291.5132
351.4207, 290.1962
351.9028, 288.6362
352.3849, 286.9385
352.8670, 285.5471
353.3491, 284.2419
353.8312, 283.5143
354.3134, 283.6302
354.7955, 284.2763
355.2776, 285.1629
355.7597, 286.1790
356.2418, 287.2509
356.7239, 288.2368
357.2061, 288.8836
357.6882, 290.0059
358.1703, 291.6964
358.6524, 293.7413
359.1345, 295.7816
359.6166, 297.9264
360.0987, 300.7473
360.5808, 304.8731
361.0630, 310.4228
361.5451, 316.1630
362.0272, 321.6600
362.5093, 327.7564
362.9914, 334.8792
363.4735, 342.8295
363.9557, 351.0211
364.4378, 359.0776
364.9199, 367.2263
365.4020, 376.4845
365.8841, 387.9075
366.3662, 399.0381
366.8484, 409.5961
367.3305, 419.7031
367.8126, 429.8365
368.2947, 440.0130
368.7768, 449.3206
369.2589, 456.3734
369.7411, 460.9238
370.2232, 463.6939
370.7053, 465.0743
371.1874, 464.5409
371.6695, 461.2093
372.1516, 455.4606
372.6338, 448.7186
373.1159, 442.2294
373.5980, 435.9785
374.0801, 428.9427
374.5622, 419.8477
375.0443, 411.5509
375.5265, 405.2355
376.0086, 400.2069
376.4907, 395.3520
376.9728, 389.9887
377.4549, 384.7472
377.9370, 381.0840
378.4192, 379.3643
378.9013, 378.2230
379.3834, 376.8755
379.8655, 376.1922
380.3476, 377.0308
380.8297, 379.5516
381.3119, 382.9692
381.7940, 386.4659
382.2761, 390.0599
382.7582, 394.4007
383.2403, 399.8720
383.7224, 405.8175
384.2046, 411.6664
384.6867, 417.5146
385.1688, 423.8907
385.6509, 431.5015
386.1330, 439.7021
386.6151, 447.2051
387.0973, 454.0536
387.5794, 459.9583
388.0615, 464.8935
388.5436, 468.7046
389.0257, 471.0303
389.5078, 471.7942
389.9900, 471.0593
390.4721, 468.7774
390.9542, 464.9817
391.4363, 459.8947
391.9184, 453.1857
392.4005, 445.6653
392.8827, 438.3220
393.3648, 431.1181
393.8469, 424.3560
394.3290, 418.2494
394.8111, 412.6453
395.2932, 407.3076
395.7754, 402.1347
396.2575, 397.4737
396.7396, 393.4996
397.2217, 390.3142
397.7038, 388.1488
398.1859, 387.3226
398.6681, 387.2284
399.1501, 387.5750
399.6323, 388.3325
400.1144, 389.4141
400.5965, 390.7343
401.0786, 392.4136
401.5607, 394.8595
402.0428, 398.2925
402.5250, 401.9550
403.0071, 405.5812
403.4892, 409.4330
403.9713, 413.7780
404.4534, 418.6635
404.9355, 424.0643
405.4177, 430.0404
405.8998, 436.7567
406.3819, 443.0195
406.8640, 447.9508
407.3461, 453.2896
407.8282, 459.8189
408.3104, 467.4865
408.7925, 475.9542
409.2746, 485.1059
409.7567, 494.9206
410.2388, 505.4447
410.7209, 516.7137
411.2031, 528.7282
411.6852, 541.1114
412.1673, 554.4184
412.6494, 569.2332
413.1315, 585.6863
413.6136, 603.4334
414.0958, 622.0202
414.5779, 641.5275
415.0600, 661.9246
415.5421, 683.2962
416.0242, 705.4324
416.5063, 728.4775
416.9885, 752.3332
417.4706, 776.4028
417.9527, 800.5114
418.4348, 824.5927
418.9169, 848.8262
419.3990, 873.1046
419.8812, 897.5156
420.3633, 921.9804
420.8454, 946.4914
421.3275, 971.3098
421.8096, 996.5153
422.2917, 1020.641
422.7739, 1042.612
423.2560, 1062.337
423.7381, 1079.271
424.2202, 1094.629
424.7023, 1104.920
425.1844, 1108.769
425.6666, 1106.290
426.1487, 1097.451
426.6308, 1081.271
427.1129, 1059.120
427.5950, 1032.115
428.0771, 999.9052
428.5593, 966.4287
429.0414, 933.2106
429.5235, 900.4506
430.0056, 868.4037
430.4877, 836.6487
430.9698, 806.5260
431.4520, 778.9359
431.9341, 753.5521
432.4162, 729.5778
432.8983, 706.9428
433.3804, 685.6696
433.8625, 666.0318
434.3447, 648.2909
434.8268, 630.6877
435.3089, 612.3401
435.7910, 594.8055
436.2731, 579.1517
436.7552, 565.2863
437.2374, 552.5058
437.7195, 540.2913
438.2016, 529.0856
438.6837, 520.8435
439.1658, 517.1046
439.6479, 514.4300
440.1301, 513.3990
440.6122, 512.8993
441.0943, 512.4531
441.5764, 511.6937
442.0585, 509.6807
442.5406, 505.4692
443.0227, 499.1196
443.5049, 490.0480
443.9870, 476.6933
444.4691, 462.2046
444.9512, 447.1290
445.4333, 431.7175
445.9154, 415.8501
446.3976, 399.5031
446.8797, 383.1683
447.3618, 367.8832
447.8439, 353.6605
448.3260, 340.4955
448.8081, 328.5087
449.2903, 317.4335
449.7724, 307.0897
450.2545, 297.4921
450.7366, 288.8430
451.2187, 281.5724
451.7008, 275.4312
452.1830, 269.5556
452.6651, 263.9202
453.1472, 258.6433
453.6293, 253.8154
454.1114, 249.3914
454.5935, 245.4351
455.0757, 242.2058
455.5578, 238.9997
456.0399, 234.9464
456.5220, 230.3338
457.0041, 226.3779
457.4862, 223.4927
457.9684, 221.2248
458.4505, 219.0760
458.9326, 217.0396
459.4147, 215.1082
459.8968, 213.3856
460.3789, 211.7021
460.8611, 209.8306
461.3432, 207.8227
461.8253, 206.0201
462.3074, 204.6669
462.7895, 203.6324
463.2716, 202.3334
463.7538, 200.3756
464.2359, 198.6877
464.7180, 197.4287
465.2001, 196.4442
465.6822, 195.6942
466.1643, 195.1098
466.6465, 194.4319
467.1286, 193.3259
467.6107, 191.6968
468.0928, 190.4705
468.5749, 190.0979
469.0570, 189.6483
469.5392, 188.8386
470.0213, 187.8044
470.5034, 186.7292
470.9855, 185.6851
471.4676, 184.7508
471.9497, 184.1173
472.4319, 183.8767
472.9140, 183.5314
473.3961, 182.7110
473.8782, 182.0388
474.3603, 182.1042
474.8424, 182.7103
475.3246, 183.0049
475.8067, 182.1438
476.2888, 180.7519
476.7709, 180.3681
477.2530, 181.1975
477.7351, 181.7317
478.2173, 180.9746
478.6994, 179.6582
479.1815, 179.0137
479.6636, 179.2946
480.1457, 179.4911
480.6278, 178.8742
481.1100, 177.8873
481.5920, 177.3745
482.0742, 177.4949
482.5563, 177.8080
483.0384, 177.9498
483.5205, 177.9169
484.0026, 177.8799
484.4847, 177.9345
484.9669, 177.8818
485.4490, 177.4778
485.9311, 176.9443
486.4132, 176.6158
486.8953, 176.6174
487.3774, 176.9873
487.8596, 177.8863
488.3417, 179.8913
488.8238, 180.8167
489.3059, 179.9069
489.7880, 178.8299
490.2701, 178.3006
490.7523, 178.2669
491.2344, 178.4486
491.7165, 178.7018
492.1986, 178.9913
492.6807, 179.2662
493.1628, 179.6431
493.6450, 179.6814
494.1271, 178.7124
494.6092, 177.7913
495.0913, 177.8279
495.5734, 178.7653
496.0555, 179.5687
496.5377, 179.2084
497.0198, 178.1938
497.5019, 178.0593
497.9840, 179.0404
498.4661, 179.9128
498.9482, 179.7851
499.4304, 179.2092
499.9125, 179.2825
500.3946, 180.3088
500.8767, 181.3741
501.3588, 182.1058
501.8409, 182.5557
502.3231, 182.7169
502.8052, 182.5811
503.2873, 182.5475
503.7694, 183.0735
504.2515, 184.1894
504.7336, 184.8112
505.2158, 184.2806
505.6979, 184.0476
506.1800, 184.9039
506.6621, 186.3068
507.1442, 187.3773
507.6263, 187.8085
508.1085, 188.0044
508.5906, 188.5785
509.0727, 189.6153
509.5548, 190.7257
510.0369, 192.1668
510.5190, 193.4187
511.0012, 194.0412
511.4833, 194.3637
511.9654, 195.0283
512.4475, 196.3885
512.9296, 198.1362
513.4117, 199.7101
513.8939, 201.0775
514.3760, 202.5745
514.8581, 204.3379
515.3402, 206.2078
515.8223, 208.0017
516.3044, 209.7472
516.7866, 211.6301
517.2687, 213.6862
517.7508, 215.9562
518.2329, 218.4959
518.7150, 221.3044
519.1971, 224.3777
519.6793, 227.7521
520.1614, 231.3496
520.6435, 234.9231
521.1256, 238.4048
521.6077, 242.0898
522.0898, 245.8872
522.5720, 249.9878
523.0541, 254.5329
523.5362, 259.5143
524.0183, 264.9261
524.5004, 270.7683
524.9825, 276.9567
525.4647, 283.2081
525.9468, 289.1658
526.4289, 295.6698
526.9110, 302.7285
527.3931, 310.3952
527.8752, 318.6994
528.3574, 327.6378
528.8395, 337.1590
529.3216, 347.1957
529.8037, 357.7519
530.2858, 369.0166
530.7679, 380.9777
531.2501, 393.6133
531.7322, 406.7807
532.2143, 420.6747
532.6964, 435.6802
533.1785, 451.8248
533.6606, 469.1982
534.1428, 488.5329
534.6249, 509.0520
535.1070, 529.2177
535.5891, 548.7912
536.0712, 568.6241
536.5533, 589.4792
537.0355, 611.1288
537.5176, 631.6991
537.9997, 652.1060
538.4818, 670.5179
538.9639, 686.6645
539.4460, 700.5076
539.9282, 712.3069
540.4103, 721.9838
540.8924, 728.8263
541.3745, 732.0475
541.8566, 731.6359
542.3387, 728.0226
542.8209, 719.9174
543.3029, 709.9001
543.7850, 698.3763
544.2672, 685.2875
544.7493, 670.2728
545.2314, 653.3129
545.7135, 635.5073
546.1956, 618.1240
546.6777, 601.0704
547.1599, 583.9321
547.6420, 566.3635
548.1241, 549.4658
548.6062, 533.1349
549.0883, 518.1422
549.5704, 506.0137
550.0526, 497.6324
550.5347, 490.9142
551.0168, 484.2186
551.4989, 478.2780
551.9810, 474.7372
552.4631, 473.9582
552.9453, 474.9033
553.4274, 476.8520
553.9095, 479.8170
554.3916, 482.4291
554.8737, 484.4629
555.3558, 486.4667
555.8380, 488.9371
556.3201, 491.3174
556.8022, 493.1934
557.2843, 494.3379
557.7664, 494.1879
558.2485, 492.0559
558.7307, 487.9331
559.2128, 482.5428
559.6949, 475.5290
560.1770, 467.7263
560.6591, 459.1891
561.1412, 450.2287
561.6234, 440.9411
562.1055, 431.3032
562.5876, 422.1703
563.0697, 414.1561
563.5518, 407.2399
564.0339, 401.2936
564.5161, 396.2184
564.9982, 392.4219
565.4803, 390.1893
565.9624, 389.5856
566.4445, 390.2667
566.9266, 392.4161
567.4088, 395.5611
567.8909, 399.5392
568.3730, 404.4227
568.8551, 410.4844
569.3372, 417.6576
569.8193, 425.5597
570.3015, 433.8242
570.7836, 442.4513
571.2657, 450.8731
571.7478, 460.0397
572.2299, 467.6585
572.7120, 474.6330
573.1942, 479.2440
573.6763, 479.9091
574.1584, 476.4165
574.6405, 469.6859
575.1226, 459.9608
575.6047, 447.5931
576.0869, 433.8934
576.5690, 418.7521
577.0511, 402.7460
577.5332, 385.6895
578.0153, 368.3279
578.4974, 351.8119
578.9796, 336.1493
579.4617, 321.3919
579.9438, 307.5986
580.4259, 294.7115
580.9080, 282.5926
581.3901, 271.2643
581.8723, 260.6512
582.3544, 250.6968
582.8365, 241.4490
583.3186, 233.0106
583.8007, 225.3123
584.2828, 218.5876
584.7650, 212.9449
585.2471, 208.0916
585.7292, 203.9964
586.2113, 200.5216
586.6934, 197.3566
587.1755, 194.2644
587.6577, 191.4442
588.1398, 189.5038
588.6219, 188.5694
589.1040, 187.6087
589.5861, 186.1655
590.0682, 184.8525
590.5504, 184.2714
591.0325, 184.3373
591.5146, 184.5360
591.9967, 184.9463
592.4788, 185.2302
592.9609, 184.8147
593.4431, 184.0122
593.9252, 183.8261
594.4073, 184.6493
594.8894, 185.8999
595.3715, 186.7533
595.8536, 187.0547
596.3358, 187.6747
596.8179, 188.8037
597.3000, 189.9895
597.7821, 191.0741
598.2642, 192.1196
598.7463, 193.2788
599.2285, 194.5969
599.7106, 195.8599
600.1927, 196.7863
600.6748, 197.3898
601.1569, 197.9617
601.6390, 198.4869
602.1212, 199.0314
602.6033, 199.6386
603.0854, 200.2865
603.5675, 200.9648
604.0496, 201.7433
604.5317, 202.3481
605.0139, 202.5898
605.4960, 202.5994
605.9781, 202.5066
606.4602, 202.3508
606.9423, 202.2407
607.4244, 202.2381
607.9066, 202.3625
608.3887, 202.7142
608.8708, 203.7197
609.3529, 204.3334
609.8350, 204.1516
610.3171, 203.8773
610.7993, 203.9557
611.2814, 204.4009
611.7635, 205.0325
612.2456, 205.7344
612.7277, 206.5571
613.2098, 207.6566
613.6920, 209.0636
614.1741, 210.4474
614.6562, 211.6967
615.1383, 212.9454
615.6204, 214.1799
616.1025, 215.4620
616.5847, 217.2961
617.0668, 220.0840
617.5489, 223.1512
618.0310, 226.0745
618.5131, 228.9620
618.9952, 232.0415
619.4774, 235.3835
619.9595, 238.9491
620.4416, 242.6791
620.9237, 246.5810
621.4058, 250.7542
621.8879, 254.9800
622.3701, 259.8006
622.8522, 265.3788
623.3343, 271.5453
623.8164, 278.1939
624.2985, 285.2459
624.7806, 292.4946
625.2628, 299.5157
625.7448, 306.6056
626.2269, 314.6176
626.7090, 323.6364
627.1912, 332.9593
627.6733, 342.3785
628.1554, 351.8615
628.6375, 361.5457
629.1196, 371.5285
629.6017, 381.1162
630.0839, 389.9273
630.5660, 398.5938
631.0481, 407.5832
631.5302, 416.8244
632.0123, 426.1363
632.4944, 435.3941
632.9766, 444.6128
633.4587, 453.6183
633.9408, 462.2198
634.4229, 471.7573
634.9050, 481.8916
635.3871, 493.4627
635.8693, 506.7623
636.3514, 521.5648
636.8335, 537.4767
637.3156, 554.2357
637.7977, 572.5936
638.2798, 593.4697
638.7620, 616.0336
639.2441, 638.8041
639.7262, 661.5687
640.2083, 685.5931
640.6904, 711.4145
641.1725, 739.3618
641.6547, 770.8229
642.1368, 805.3841
642.6189, 844.3912
643.1010, 886.6278
643.5831, 934.2123
644.0652, 988.2910
644.5474, 1049.014
645.0295, 1115.972
645.5116, 1188.130
645.9937, 1268.659
646.4758, 1361.782
646.9579, 1467.500
647.4401, 1587.010
647.9222, 1720.005
648.4043, 1866.948
648.8864, 2030.362
649.3685, 2208.508
649.8506, 2392.059
650.3328, 2589.859
650.8149, 2778.198
651.2970, 2963.002
651.7791, 3124.385
652.2612, 3245.007
652.7433, 3318.335
653.2255, 3332.540
653.7076, 3277.457
654.1897, 3159.708
654.6718, 2998.549
655.1539, 2780.094
655.6360, 2552.721
656.1182, 2306.814
656.6003, 2067.092
657.0824, 1841.811
657.5645, 1633.531
658.0466, 1449.117
658.5287, 1292.376
659.0109, 1156.899
659.4930, 1038.827
659.9751, 937.3745
660.4572, 849.6732
660.9393, 775.4982
661.4214, 712.3835
661.9036, 658.7211
662.3857, 614.0087
662.8678, 573.7470
663.3499, 538.4598
663.8320, 507.1659
664.3141, 480.6377
664.7963, 457.2917
665.2784, 436.1162
665.7605, 416.9160
666.2426, 399.8219
666.7247, 384.9666
667.2068, 371.9812
667.6890, 360.1754
668.1711, 349.5377
668.6532, 339.6380
669.1353, 330.3582
669.6174, 321.9760
670.0995, 315.0731
670.5817, 309.5321
671.0638, 304.0634
671.5459, 298.2861
672.0280, 293.0231
672.5101, 288.6495
672.9922, 284.9058
673.4744, 281.6524
673.9565, 278.7633
674.4386, 275.8926
674.9207, 272.7207
675.4028, 269.4314
675.8849, 266.5930
676.3671, 264.2290
676.8492, 262.2193
677.3313, 260.5740
677.8134, 259.2436
678.2955, 258.1981
678.7776, 257.4133
679.2598, 256.8280
679.7419, 256.5984
680.2240, 256.3477
680.7061, 255.7916
681.1882, 255.0967
681.6703, 254.4889
682.1525, 254.0229
682.6346, 253.6898
683.1167, 253.4859
683.5988, 253.4079
684.0809, 253.4368
684.5630, 253.5730
685.0452, 253.8154
685.5273, 254.1166
686.0094, 254.5670
686.4915, 255.1457
686.9736, 255.9150
687.4557, 257.0788
687.9379, 258.8734
688.4200, 260.7944
688.9021, 262.3004
689.3842, 263.5980
689.8663, 265.2190
690.3484, 267.2604
690.8306, 269.2664
691.3127, 270.8185
691.7948, 272.1006
692.2769, 274.0927
692.7590, 277.3048
693.2411, 280.4405
693.7233, 283.1783
694.2054, 286.0487
694.6875, 289.3995
695.1696, 293.1669
695.6517, 297.0876
696.1339, 301.0252
696.6160, 305.1495
697.0981, 309.5977
697.5802, 314.3914
698.0623, 319.5961
698.5444, 325.1619
699.0266, 331.5791
699.5087, 339.3482
699.9908, 348.1318
700.4729, 356.5352
700.9550, 363.8347
701.4371, 371.8183
701.9193, 380.1309
702.4014, 389.4779
702.8835, 400.6381
703.3656, 413.1030
703.8477, 425.8578
704.3298, 438.3519
704.8120, 451.3005
705.2941, 465.2705
705.7762, 480.2587
706.2583, 496.4614
706.7404, 513.8861
707.2225, 532.3416
707.7046, 551.8373
708.1867, 572.3165
708.6688, 593.7043
709.1509, 615.7839
709.6331, 639.2604
710.1152, 664.8174
710.5973, 691.3361
711.0794, 717.8814
711.5615, 744.9069
712.0436, 773.3351
712.5258, 803.6483
713.0079, 834.6385
713.4900, 865.2605
713.9721, 895.4996
714.4542, 926.4064
714.9363, 958.1884
715.4185, 988.5247
715.9006, 1016.248
716.3827, 1041.651
716.8648, 1065.740
717.3469, 1089.114
717.8290, 1107.736
718.3112, 1120.903
718.7933, 1129.538
719.2754, 1134.420
719.7575, 1134.932
720.2396, 1130.064
720.7217, 1119.613
721.2039, 1104.315
721.6860, 1084.618
722.1681, 1060.672
722.6502, 1033.052
723.1323, 1001.415
723.6144, 967.4283
724.0966, 931.1222
724.5787, 893.5726
725.0608, 855.9442
725.5429, 817.9688
726.0250, 781.3456
726.5071, 746.4707
726.9893, 712.3587
727.4714, 678.0838
727.9535, 644.6398
728.4356, 613.2802
728.9177, 584.3110
729.3998, 557.8909
729.8820, 534.3608
730.3641, 513.0770
730.8462, 492.3920
731.3283, 472.3191
731.8104, 453.5690
732.2925, 436.2734
732.7747, 420.3282
733.2568, 405.6670
733.7389, 392.3581
734.2210, 380.3097
734.7031, 369.8540
735.1852, 360.2371
735.6674, 351.4362
736.1495, 343.2715
736.6316, 335.4405
737.1137, 328.0630
737.5958, 321.5880
738.0779, 316.2256
738.5601, 311.3867
739.0422, 306.0265
739.5243, 300.2761
740.0064, 295.2896
740.4885, 291.1988
740.9706, 287.8429
741.4528, 285.5221
741.9349, 283.6297
742.4170, 280.6496
742.8991, 276.0135
743.3812, 272.3356
743.8633, 270.1534
744.3455, 268.6382
744.8276, 267.7845
745.3097, 267.1459
745.7918, 266.0247
746.2739, 264.2735
746.7560, 262.5103
747.2382, 261.4877
747.7203, 260.9003
748.2024, 259.7860
748.6845, 258.1324
749.1666, 256.3591
749.6487, 254.5720
750.1309, 252.7986
750.6130, 251.0236
751.0951, 249.2452
751.5772, 247.6641
752.0593, 246.5871
752.5414, 245.2908
753.0236, 243.5170
753.5057, 241.5161
753.9878, 239.4192
754.4699, 237.3078
754.9520, 235.3349
755.4341, 233.6570
755.9163, 231.9839
756.3984, 229.7440
756.8805, 227.1219
757.3626, 225.0314
757.8447, 223.6398
758.3268, 222.3930
758.8090, 220.9040
759.2911, 219.2636
759.7732, 217.7800
760.2553, 216.7425
760.7374, 215.3259
761.2195, 213.2131
761.7017, 211.0977
762.1838, 209.2047
762.6659, 207.5689
763.1480, 206.2581
763.6301, 205.3086
764.1122, 204.3886
764.5944, 203.1012
765.0765, 201.7670
765.5586, 201.0231
766.0407, 200.7608
766.5228, 200.2491
767.0049, 199.1821
767.4871, 198.0452
767.9692, 197.5473
768.4513, 197.7282
768.9334, 197.3445
769.4155, 195.9675
769.8976, 194.7125
770.3798, 193.8242
770.8619, 193.1372
771.3440, 192.5085
771.8261, 191.9642
772.3082, 191.6733
772.7903, 191.7781
773.2725, 192.0419
773.7546, 192.4592
774.2367, 192.8610
774.7188, 192.8985
775.2009, 192.5947
775.6830, 192.3482
776.1652, 192.4260
776.6473, 192.7080
777.1294, 192.9248
777.6115, 193.0781
778.0936, 193.0976
778.5757, 192.6492
779.0579, 192.6912
779.5400, 194.2876
780.0221, 196.4705
780.5042, 197.5244
780.9863, 197.1591
781.4684, 196.9234
781.9506, 197.0899
782.4327, 197.5994
782.9148, 198.5483
783.3969, 199.7677
783.8790, 201.0837
784.3611, 202.4040
784.8433, 203.4951
785.3254, 203.9238
785.8075, 204.0948
786.2896, 205.3488
786.7717, 207.6971
787.2538, 210.0719
787.7360, 212.2983
788.2181, 214.1922
788.7002, 215.4333
789.1823, 216.1369
789.6644, 217.2407
790.1465, 218.6172
790.6286, 220.5645
791.1107, 223.6562
791.5928, 226.8169
792.0750, 229.3327
792.5571, 231.3822
793.0392, 233.4053
793.5213, 235.5147
794.0034, 237.9573
794.4855, 241.1252
794.9677, 244.7043
795.4498, 248.0411
795.9319, 251.1701
796.4140, 254.4831
796.8961, 258.1679
797.3782, 261.9636
797.8604, 265.4618
798.3425, 268.6518
798.8246, 272.2523
799.3067, 276.4038
799.7888, 280.7302
800.2709, 285.4561
800.7531, 290.0627
801.2352, 293.8072
801.7173, 296.9644
802.1994, 300.8646
802.6815, 306.8592
803.1636, 312.1962
803.6458, 314.9317
804.1279, 316.5054
804.6100, 318.9369
805.0921, 321.9330
805.5742, 323.7316
806.0563, 323.3554
806.5385, 321.4444
807.0206, 318.8928
807.5027, 315.7053
807.9848, 311.9118
808.4669, 307.4283
808.9490, 302.6966
809.4312, 297.9388
809.9133, 293.0217
810.3954, 287.6702
810.8775, 281.7609
811.3596, 276.2543
811.8417, 270.9358
812.3239, 266.3088
812.8060, 262.7402
813.2881, 259.7755
813.7702, 257.1004
814.2523, 254.6574
814.7344, 252.4678
815.2166, 250.5433
815.6987, 248.8805
816.1808, 247.6712
816.6629, 246.6943
817.1450, 245.3222
817.6271, 243.5611
818.1093, 242.1710
818.5914, 241.6198
819.0735, 241.4749
819.5556, 240.8912
820.0377, 239.7870
820.5198, 238.7192
821.0020, 237.6021
821.4841, 236.6665
821.9662, 236.1774
822.4483, 235.7891
822.9304, 235.1239
823.4125, 234.1848
823.8947, 233.2100
824.3768, 232.4032
824.8589, 231.3914
825.3410, 229.8782
825.8231, 228.1603
826.3052, 226.5816
826.7874, 225.1418
827.2695, 223.6137
827.7516, 221.8335
828.2337, 220.0486
828.7158, 218.6917
829.1979, 217.6375
829.6801, 216.3482
830.1622, 214.7832
830.6443, 213.1423
831.1264, 211.5359
831.6085, 209.8846
832.0906, 208.0374
832.5728, 205.9856
833.0549, 203.8461
833.5370, 201.2715
834.0191, 199.1410
834.5012, 197.8736
834.9833, 196.9327
835.4655, 196.0241
835.9476, 195.0643
836.4297, 193.8038
836.9118, 192.0379
837.3939, 190.1685
837.8760, 188.3402
838.3582, 186.5679
838.8403, 184.8145
839.3224, 183.1288
839.8045, 181.6784
840.2866, 180.5464
840.7687, 179.5330
841.2509, 178.2914
841.7330, 176.9151
842.2151, 176.0418
842.6972, 175.7190
843.1793, 175.3372
843.6614, 174.6813
844.1436, 173.8941
844.6257, 173.1664
845.1078, 172.4892
845.5899, 171.5475
846.0720, 169.5892
846.5541, 168.4919
847.0363, 169.1985
847.5184, 170.0448
848.0005, 169.9219
848.4826, 169.1431
848.9647, 168.5533
849.4468, 168.4134
849.9290, 168.2598
850.4111, 167.8286
850.8932, 167.2724
851.3753, 166.6290
851.8574, 166.0101
852.3395, 165.7386
852.8217, 165.8640
853.3038, 165.8824
853.7859, 165.1876
854.2680, 164.1081
854.7501, 163.8269
855.2322, 164.3427
855.7144, 164.3952
856.1965, 163.6387
856.6786, 162.8215
857.1607, 162.5475
857.6428, 162.6041
858.1249, 162.2837
858.6071, 161.2671
859.0892, 160.5675
859.5713, 160.2274
860.0534, 160.1423
860.5355, 160.5150
861.0176, 160.9858
861.4998, 161.1045
861.9819, 160.8329
862.4640, 160.5274
862.9461, 160.1534
863.4282, 159.9806
863.9103, 160.4193
864.3925, 161.0545
864.8746, 161.3167
865.3567, 161.1622
865.8388, 160.8067
866.3209, 160.3607
866.8030, 159.9018
867.2852, 159.5700
867.7673, 159.3391
868.2494, 159.0150
868.7315, 158.5799
869.2136, 158.3504
869.6957, 158.4876
870.1779, 158.7784
870.6600, 158.9274
871.1421, 158.9324
871.6242, 159.1001
872.1063, 159.5560
872.5884, 159.9531
873.0705, 160.1867
873.5526, 160.3867
874.0347, 160.5665
874.5168, 160.7788
874.9990, 161.1731
875.4811, 161.8514
875.9632, 162.4639
876.4453, 162.6011
876.9274, 162.9018
877.4095, 164.0561
877.8917, 165.6275
878.3738, 166.8169
878.8559, 167.4694
879.3380, 168.0726
879.8201, 168.9524
880.3022, 170.0649
880.7844, 171.3807
881.2665, 172.8727
881.7486, 174.3705
882.2307, 175.8630
882.7128, 177.6660
883.1949, 180.0033
883.6771, 182.6376
884.1592, 185.0235
884.6413, 187.0931
885.1234, 189.5239
885.6055, 192.6179
886.0876, 195.2984
886.5698, 196.8883
887.0519, 198.2265
887.5340, 200.3719
888.0161, 203.2510
888.4982, 205.7948
888.9803, 207.8321
889.4625, 209.7287
889.9446, 211.7576
890.4267, 213.4794
890.9088, 214.5469
891.3909, 215.0860
891.8730, 215.3497
892.3552, 215.4079
892.8373, 215.2844
893.3194, 215.0352
893.8015, 214.5796
894.2836, 213.8064
894.7657, 212.7695
895.2479, 211.5439
895.7300, 210.1776
896.2121, 208.7216
896.6942, 207.1586
897.1763, 205.7496
897.6584, 205.2772
898.1406, 205.5952
898.6227, 205.0473
899.1048, 203.3960
899.5869, 202.0360
900.0690, 201.6978
900.5511, 201.7589
901.0333, 201.2765
901.5154, 200.2161
901.9975, 199.3915
902.4796, 198.9822
902.9617, 198.4686
903.4438, 197.6411
903.9260, 196.7919
904.4081, 195.9409
904.8902, 195.2403
905.3723, 195.1785
905.8544, 196.1476
906.3365, 196.7806
906.8187, 196.2044
907.3008, 195.7717
907.7829, 196.3999
908.2650, 197.6166
908.7471, 199.0102
909.2292, 200.3260
909.7114, 200.8611
910.1935, 199.7522
910.6756, 198.3969
911.1577, 198.3163
911.6398, 198.9644
912.1219, 199.3746
912.6041, 199.4786
913.0862, 199.6551
913.5683, 200.0844
914.0504, 200.4379
914.5325, 200.2274
915.0146, 199.5489
915.4968, 198.9657
915.9789, 198.4864
916.4610, 197.8416
916.9431, 196.9335
917.4252, 195.9691
917.9073, 195.1303
918.3895, 194.3512
918.8716, 193.3665
919.3537, 191.9964
919.8358, 190.8553
920.3179, 190.0117
920.8000, 189.2980
921.2822, 188.9029
921.7643, 188.4359
922.2464, 187.2521
922.7285, 185.4029
923.2106, 184.1998
923.6927, 184.1294
924.1749, 184.3085
924.6570, 184.9000
925.1391, 185.2879
925.6212, 184.7480
926.1033, 183.6898
926.5854, 183.0446
927.0676, 183.0959
927.5497, 183.1735
928.0318, 182.8325
928.5139, 182.3137
928.9960, 181.7867
929.4781, 181.2902
929.9603, 180.8759
930.4424, 180.5510
930.9245, 180.2900
931.4066, 180.0699
931.8887, 179.9428
932.3708, 180.1209
932.8530, 180.4698
933.3351, 180.4840
933.8172, 180.1290
934.2993, 179.2232
934.7814, 177.6549
935.2635, 176.0088
935.7457, 174.9124
936.2278, 174.3047
936.7099, 173.9305
937.1920, 173.9677
937.6741, 173.3995
938.1563, 171.8722
938.6384, 170.2427
939.1205, 168.8774
939.6026, 167.7653
940.0847, 166.9161
940.5668, 166.3888
941.0490, 165.7863
941.5311, 165.4184
942.0132, 164.5571
942.4953, 162.5228
942.9774, 160.4407
943.4595, 159.1570
943.9417, 158.4854
944.4238, 157.8881
944.9059, 157.3033
945.3880, 156.6254
945.8701, 155.5954
946.3522, 154.6907
946.8344, 154.4724
947.3165, 154.4465
947.7986, 153.8249
948.2807, 152.6316
948.7628, 151.6074
949.2449, 151.1606
949.7271, 150.9845
950.2092, 150.9438
950.6913, 150.8894
951.1734, 150.4597
951.6555, 149.7984
952.1376, 149.4105
952.6198, 149.4648
953.1019, 149.7865
953.5840, 150.3103
954.0661, 150.8559
954.5482, 150.8433
955.0303, 150.3956
955.5124, 150.3470
955.9945, 150.8152
956.4766, 151.5526
956.9587, 152.4911
957.4409, 153.2717
957.9230, 153.2338
958.4051, 152.3971
958.8872, 151.9131
959.3693, 151.7921
959.8514, 152.0011
960.3336, 152.6195
960.8157, 153.3822
961.2978, 154.1753
961.7799, 154.9098
962.2620, 155.3254
962.7441, 155.3393
963.2263, 155.2887
963.7084, 155.0749
964.1905, 154.9330
964.6726, 154.9415
965.1547, 155.0325
965.6368, 155.1691
966.1190, 155.3409
966.6011, 155.5115
967.0832, 155.6948
967.5653, 155.8404
968.0474, 155.8915
968.5295, 155.9520
969.0117, 156.1090
969.4938, 156.2955
969.9759, 156.4738
970.4580, 156.6072
970.9401, 156.5246
971.4222, 155.9562
971.9044, 155.4699
972.3865, 155.6284
972.8686, 155.8901
973.3507, 155.5545
973.8328, 154.8614
974.3149, 154.5001
974.7971, 154.6485
975.2792, 154.8005
975.7613, 154.4601
976.2434, 154.0123
976.7255, 154.0837
977.2076, 154.4043
977.6898, 154.2807
978.1719, 153.7575
978.6540, 153.5608
979.1361, 154.0321
979.6182, 154.5797
980.1003, 154.4087
980.5825, 153.7426
981.0646, 153.2033
981.5467, 152.8300
982.0288, 153.0554
982.5109, 153.9624
982.9930, 154.9347
983.4752, 155.6076
983.9573, 155.9220
984.4394, 155.6383
984.9215, 154.7500
985.4036, 154.3786
985.8857, 154.6199
986.3679, 154.8015
986.8500, 154.7066
987.3321, 154.6612
987.8142, 154.9945
988.2963, 155.5196
988.7784, 155.6398
989.2606, 155.2592
989.7427, 154.7876
990.2248, 154.0840
990.7069, 153.5701
991.1890, 153.5235
991.6711, 153.5557
992.1533, 153.3186
992.6354, 152.8361
993.1175, 152.2428
993.5996, 151.4029
994.0817, 150.7014
994.5638, 150.3371
995.0460, 149.8763
995.5281, 148.8829
996.0102, 147.8990
996.4923, 147.6154
996.9744, 147.9544
997.4565, 148.1391
997.9387, 147.9885
998.4208, 147.7339
998.9029, 147.3438
999.3850, 146.9602
999.8671, 146.7314
1000.349, 146.5371
1000.831, 146.0990
1001.313, 145.4445
1001.796, 145.1148
1002.278, 145.5192
1002.760, 146.0170
1003.242, 146.4252
1003.724, 146.6245
1004.206, 146.1930
1004.688, 145.5706
1005.170, 145.7052
1005.653, 146.7521
1006.135, 147.7609
1006.617, 147.9970
1007.099, 148.1346
1007.581, 149.0253
1008.063, 150.0766
1008.545, 150.2321
1009.027, 149.7813
1009.509, 149.8940
1009.992, 150.9289
1010.474, 151.9311
1010.956, 151.8367
1011.438, 151.4679
1011.920, 152.2558
1012.402, 153.6852
1012.884, 154.4472
1013.366, 154.5618
1013.849, 155.0440
1014.331, 156.3252
1014.813, 157.5627
1015.295, 157.7008
1015.777, 157.1852
1016.259, 157.0550
1016.741, 157.2775
1017.223, 157.7850
1017.705, 158.5320
1018.188, 159.2276
1018.670, 159.7241
1019.152, 160.0469
1019.634, 160.1758
1020.116, 160.1766
1020.598, 160.4591
1021.080, 161.0016
1021.562, 161.1506
1022.044, 160.7633
1022.527, 160.6263
1023.009, 161.2605
1023.491, 162.0480
1023.973, 161.8942
1024.455, 160.8871
1024.937, 160.5824
1025.419, 161.0814
1025.901, 161.4414
1026.384, 161.4872
1026.866, 161.3788
1027.348, 161.1824
1027.830, 160.9662
1028.312, 160.8669
1028.794, 160.8916
1029.276, 160.8494
1029.758, 160.7225
1030.240, 160.6125
1030.723, 160.6094
1031.205, 160.4337
1031.687, 159.7727
1032.169, 158.9652
1032.651, 158.7500
1033.133, 159.2370
1033.615, 159.3585
1034.097, 158.8275
1034.579, 158.5784
1035.062, 159.0463
1035.544, 159.4361
1036.026, 159.1878
1036.508, 158.5221
1036.990, 157.8446
1037.472, 157.0876
1037.954, 156.7093
1038.436, 157.1238
1038.919, 157.2529
1039.401, 156.7953
1039.883, 156.1310
1040.365, 155.3978
1040.847, 154.6609
1041.329, 154.1525
1041.811, 154.0212
1042.293, 153.3274
1042.776, 151.5047
1043.258, 149.8883
1043.740, 148.8273
1044.222, 147.9422
1044.704, 147.0135
1045.186, 146.0828
1045.668, 145.3040
1046.150, 144.7489
1046.632, 143.9161
1047.115, 142.4409
1047.597, 141.1132
1048.079, 140.3103
1048.561, 139.5404
1049.043, 138.3812
1049.525, 137.0384
1050.007, 135.9162
1050.489, 135.0844
1050.971, 134.2427
1051.454, 133.1562
1051.936, 132.3003
1052.418, 131.9620
1052.900, 131.7620
1053.382, 131.6092
1053.864, 131.3227
1054.346, 130.4861
1054.828, 129.0191
1055.311, 127.9157
1055.793, 127.5570
1056.275, 127.4412
1056.757, 127.5972
1057.239, 127.7406
1057.721, 127.7570
1058.203, 127.5707
1058.685, 126.8847
1059.167, 125.6876
1059.650, 125.1003
1060.132, 126.0227
1060.614, 126.8948
1061.096, 127.0762
1061.578, 127.0349
1062.060, 127.0951
1062.542, 127.2034
1063.024, 127.1668
1063.506, 126.9807
1063.989, 126.9836
1064.471, 127.4388
1064.953, 127.9046
1065.435, 128.1996
1065.917, 128.4356
1066.399, 128.6214
1066.881, 128.8452
1067.363, 129.2525
1067.846, 129.8431
1068.328, 130.4519
1068.810, 131.1868
1069.292, 131.6328
1069.774, 131.1120
1070.256, 130.7340
1070.738, 131.7403
1071.220, 133.1938
1071.703, 133.5951
1072.185, 132.9230
1072.667, 132.4587
1073.149, 132.6993
1073.631, 133.1449
1074.113, 133.5799
1074.595, 134.1201
1075.077, 135.0303
1075.559, 135.9832
1076.042, 136.4939
1076.524, 136.6033
1077.006, 136.7774
1077.488, 137.1861
1077.970, 137.6410
1078.452, 138.0755
1078.934, 138.5069
1079.416, 138.9676
1079.898, 139.4216
1080.380, 139.8897
1080.863, 140.3124
1081.345, 140.4628
1081.827, 140.1765
1082.309, 140.0947
1082.791, 140.7718
1083.273, 141.4304
1083.755, 141.5216
1084.237, 141.4009
1084.720, 141.4292
1085.202, 141.6029
1085.684, 141.7552
1086.166, 141.8209
1086.648, 142.0823
1087.130, 142.8322
1087.612, 143.5903
1088.094, 144.1369
1088.577, 144.5583
1089.059, 144.8275
1089.541, 145.0771
1090.023, 145.6345
1090.505, 146.5729
1090.987, 147.2352
1091.469, 146.9494
1091.951, 146.9138
1092.433, 148.0649
1092.916, 149.2565
1093.398, 149.3414
1093.880, 148.9309
1094.362, 149.0943
1094.844, 149.9781
1095.326, 151.1402
1095.808, 152.8095
1096.290, 154.1897
1096.772, 154.6698
1097.255, 155.1563
1097.737, 156.4303
1098.219, 157.9458
1098.701, 158.9334
1099.183, 159.3767
1099.665, 159.7399
1100.147, 159.7557
1100.629, 160.4817
1101.112, 162.9650
1101.594, 165.2943
1102.076, 166.2842
1102.558, 166.8409
1103.040, 167.9741
1103.522, 169.5660
1104.004, 170.9373
1104.486, 172.0555
1104.969, 172.7507
1105.451, 172.5174
1105.933, 172.4706
1106.415, 172.9946
1106.897, 173.8575
1107.379, 175.1370
1107.861, 176.5459
1108.343, 177.3838
1108.825, 177.4937
1109.307, 177.6622
1109.790, 178.2399
1110.272, 178.4781
1110.754, 177.8016
1111.236, 177.1938
1111.718, 177.5033
1112.200, 178.1392
1112.682, 178.0816
1113.164, 177.2846
1113.647, 176.5723
1114.129, 175.8958
1114.611, 175.3983
1115.093, 175.3116
1115.575, 175.1007
1116.057, 174.3894
1116.539, 173.5887
1117.021, 173.3218
1117.504, 173.4398
1117.986, 172.7884
1118.468, 170.8052
1118.950, 169.4292
1119.432, 169.0296
1119.914, 168.5300
1120.396, 167.5743
1120.878, 166.4310
1121.360, 165.3095
1121.843, 164.1802
1122.325, 162.9318
1122.807, 161.4927
1123.289, 160.3923
1123.771, 159.7016
1124.253, 159.1044
1124.735, 158.5501
1125.217, 158.0260
1125.699, 157.5138
1126.182, 157.0585
1126.664, 156.7879
1127.146, 156.6740
1127.628, 156.1431
1128.110, 155.1358
1128.592, 154.2583
1129.074, 153.5911
1129.556, 153.0843
1130.039, 152.7344
1130.521, 152.4283
1131.003, 152.0101
1131.485, 151.5745
1131.967, 151.5088
1132.449, 151.7880
1132.931, 151.9683
1133.413, 152.0265
1133.896, 152.0271
1134.378, 151.9907
1134.860, 152.1573
1135.342, 152.7513
1135.824, 153.4591
1136.306, 153.5815
1136.788, 153.3460
1137.270, 153.6830
1137.752, 154.4978
1138.234, 155.2868
1138.717, 155.9584
1139.199, 156.6974
1139.681, 157.6042
1140.163, 158.2390
1140.645, 157.8611
1141.127, 157.1272
1141.609, 157.2321
1142.091, 157.9219
1142.574, 158.7925
1143.056, 159.6975
1143.538, 160.4274
1144.020, 160.9091
1144.502, 161.1142
1144.984, 160.8457
1145.466, 160.7232
1145.948, 161.7396
1146.431, 162.9972
1146.913, 163.2722
1147.395, 162.9585
1147.877, 162.9184
1148.359, 163.2084
1148.841, 163.2641
1149.323, 162.7822
1149.805, 162.4510
1150.287, 162.9221
1150.770, 163.4512
1151.252, 163.5484
1151.734, 163.3810
1152.216, 163.0066
1152.698, 162.5758
1153.180, 162.4048
1153.662, 162.5577
1154.144, 162.5896
1154.626, 162.3526
1155.109, 161.9707
1155.591, 161.2901
1156.073, 160.6929
1156.555, 160.5523
1157.037, 160.5449
1157.519, 160.2651
1158.001, 159.7050
1158.483, 159.0114
1158.966, 158.0094
1159.448, 157.2685
1159.930, 156.9805
1160.412, 156.7419
1160.894, 156.5510
1161.376, 156.2480
1161.858, 155.6261
1162.340, 154.8601
1162.822, 154.3488
1163.305, 154.1238
1163.787, 153.7997
1164.269, 153.3511
1164.751, 152.8743
1165.233, 152.3704
1165.715, 151.8580
1166.197, 151.2917
1166.679, 150.8701
1167.161, 150.8738
1167.644, 151.1688
1168.126, 151.1834
1168.608, 150.9061
1169.090, 150.6556
1169.572, 150.4412
1170.054, 150.4639
1170.536, 150.7825
1171.018, 151.1684
1171.500, 151.4755
1171.983, 151.6781
1172.465, 151.6150
1172.947, 151.4589
1173.429, 151.9019
1173.911, 152.7661
1174.393, 153.3070
1174.875, 153.5309
1175.357, 154.0188
1175.840, 154.9795
1176.322, 156.0683
1176.804, 157.0447
1177.286, 157.9208
1177.768, 158.6887
1178.250, 159.3821
1178.732, 160.0838
1179.214, 160.7351
1179.697, 161.1735
1180.179, 161.4316
1180.661, 161.7192
1181.143, 162.1182
1181.625, 162.5881
1182.107, 163.1019
1182.589, 163.6781
1183.071, 164.6101
1183.553, 165.3547
1184.036, 165.1975
1184.518, 164.5471
1185.000, 164.3255
1185.482, 164.6149
1185.964, 164.3885
1186.446, 162.8009
1186.928, 161.6768
1187.410, 161.7764
1187.892, 161.8276
1188.375, 161.1827
1188.857, 160.3570
1189.339, 159.8950
1189.821, 159.6196
1190.303, 158.9928
1190.785, 157.9051
1191.267, 157.1566
1191.749, 156.9792
1192.232, 156.4447
1192.714, 155.2291
1193.196, 154.1642
1193.678, 153.6574
1194.160, 153.5440
1194.642, 153.7080
1195.124, 154.0013
1195.606, 153.7868
1196.089, 153.0863
1196.571, 152.4093
1197.053, 151.8008
1197.535, 151.7085
1198.017, 152.2093
1198.499, 152.5495
1198.981, 152.2481
1199.463, 151.7644
1199.945, 151.7430
1200.427, 151.9428
1200.910, 151.9533
1201.392, 151.7741
1201.874, 151.2001
1202.356, 150.4631
1202.838, 150.3601
1203.320, 150.9963
1203.802, 151.4592
1204.284, 151.1691
1204.767, 150.6994
1205.249, 150.4003
1205.731, 150.1920
1206.213, 150.1207
1206.695, 150.0199
1207.177, 149.7271
1207.659, 149.2299
1208.141, 148.4539
1208.624, 147.3499
1209.106, 146.6335
1209.588, 146.7525
1210.070, 146.8642
1210.552, 146.8375
1211.034, 146.7096
1211.516, 146.4507
1211.998, 146.1385
1212.480, 145.8187
1212.963, 145.5136
1213.445, 145.3399
1213.927, 145.3686
1214.409, 145.1242
1214.891, 144.4907
1215.373, 144.0608
1215.855, 143.9812
1216.337, 143.9325
1216.819, 143.7397
1217.302, 143.5404
1217.784, 143.5042
1218.266, 143.5959
1218.748, 143.7409
1219.230, 143.9156
1219.712, 143.8762
1220.194, 143.7218
1220.676, 144.1051
1221.159, 145.0767
1221.641, 145.8896
1222.123, 146.1338
1222.605, 146.3668
1223.087, 147.2487
1223.569, 148.3148
1224.051, 148.9309
1224.533, 149.4841
1225.016, 150.5389
1225.498, 151.9048
1225.980, 153.2312
1226.462, 154.3880
1226.944, 155.1508
1227.426, 155.1856
1227.908, 155.5555
1228.390, 157.0696
1228.872, 158.3991
1229.354, 158.7154
1229.837, 158.8970
1230.319, 159.6667
1230.801, 160.7721
1231.283, 161.8598
1231.765, 162.9149
1232.247, 163.1904
1232.729, 162.1830
1233.211, 162.0416
1233.694, 163.1957
1234.176, 163.9940
1234.658, 163.8983
1235.140, 163.5564
1235.622, 163.4673
1236.104, 163.2773
1236.586, 162.3143
1237.068, 160.7646
1237.551, 159.3798
1238.033, 158.1129
1238.515, 156.6454
1238.997, 155.0300
1239.479, 153.6996
1239.961, 152.7311
1240.443, 151.6926
1240.925, 150.3228
1241.407, 148.7228
1241.890, 146.8882
1242.372, 144.9773
1242.854, 143.1599
1243.336, 141.3231
1243.818, 139.1209
1244.300, 136.8498
1244.782, 135.2515
1245.264, 134.3789
1245.746, 133.3557
1246.229, 131.9546
1246.711, 130.3979
1247.193, 128.3715
1247.675, 126.6687
1248.157, 125.7440
1248.639, 125.0096
1249.121, 124.1786
1249.603, 123.1433
1250.085, 121.6161
1250.568, 119.6510
1251.050, 118.1490
1251.532, 117.1259
1252.014, 116.4915
1252.496, 116.2577
1252.978, 115.7631
1253.460, 114.8094
1253.942, 113.6444
1254.425, 112.4235
1254.907, 111.3026
1255.389, 110.5416
1255.871, 110.0181
1256.353, 109.5836
1256.835, 109.1775
1257.317, 108.6445
1257.799, 108.0610
1258.281, 107.7332
1258.764, 107.6290
1259.246, 107.1611
1259.728, 105.9350
1260.210, 104.8894
1260.692, 104.6267
1261.174, 104.4301
1261.656, 103.9055
1262.138, 103.3690
1262.620, 103.1784
1263.103, 103.0726
1263.585, 102.5658
1264.067, 101.7212
1264.549, 101.1305
1265.031, 100.8923
1265.513, 100.5385
1265.995, 99.99794
1266.477, 99.68778
1266.960, 99.73809
1267.442, 99.77216
1267.924, 99.58372
1268.406, 99.24135
1268.888, 98.77818
1269.370, 98.30700
1269.852, 98.09514
1270.334, 98.07643
1270.817, 98.17494
1271.299, 98.29224
1271.781, 98.22084
1272.263, 97.92870
1272.745, 97.39680
1273.227, 96.61742
1273.709, 96.01247
1274.191, 95.84763
1274.673, 95.89713
1275.156, 96.26323
1275.638, 96.55899
1276.120, 96.37844
1276.602, 96.10531
1277.084, 96.37284
1277.566, 96.89182
1278.048, 96.58742
1278.530, 95.28761
1279.012, 94.78622
1279.495, 95.30896
1279.977, 95.83944
1280.459, 96.32487
1280.941, 96.53860
1281.423, 96.38161
1281.905, 96.05564
1282.387, 95.69887
1282.869, 95.38261
1283.352, 95.23191
1283.834, 95.20061
1284.316, 95.18372
1284.798, 95.18584
##END=



