##NAMES=Niobophyllite
##RRUFFID=R110048
##IDEAL CHEMISTRY=K_2_NaFe^2+^_7_(Nb^5+^,Ti^4+^)_2_(Si_4_O_12_)_2_O_2_(OH)_4_(O,F)
##LOCALITY=Mount Malosa, Zomba District, Malawi
##OWNER=RRUFF
##SOURCE=Donald M Doell
##DESCRIPTION=Brown tabular platy crystals associated with quartz
##STATUS=The identification of this mineral has been confirmed only by single crystal X-ray diffraction.
##URL=rruff.info/R110048
192.8480, 1195.440
193.3301, 1196.396
193.8123, 1198.230
194.2944, 1198.623
194.7765, 1195.964
195.2586, 1192.923
195.7407, 1192.495
196.2228, 1194.724
196.7050, 1197.141
197.1871, 1197.924
197.6692, 1197.143
198.1513, 1196.335
198.6334, 1195.660
199.1155, 1195.182
199.5977, 1194.912
200.0798, 1194.861
200.5619, 1195.065
201.0440, 1195.657
201.5261, 1196.728
202.0082, 1197.650
202.4904, 1198.205
202.9725, 1198.701
203.4546, 1199.308
203.9367, 1200.039
204.4188, 1200.777
204.9009, 1201.289
205.3831, 1201.331
205.8652, 1201.916
206.3473, 1203.767
206.8294, 1205.602
207.3115, 1206.541
207.7936, 1206.513
208.2758, 1206.172
208.7579, 1206.473
209.2400, 1207.903
209.7221, 1208.901
210.2042, 1209.026
210.6863, 1209.095
211.1685, 1209.608
211.6506, 1210.686
212.1327, 1212.199
212.6148, 1214.016
213.0969, 1216.434
213.5790, 1218.481
214.0612, 1220.031
214.5433, 1221.315
215.0254, 1222.523
215.5075, 1223.692
215.9896, 1224.607
216.4718, 1225.619
216.9539, 1226.166
217.4360, 1226.725
217.9181, 1227.227
218.4002, 1227.781
218.8823, 1228.505
219.3645, 1229.423
219.8466, 1230.483
220.3287, 1231.631
220.8108, 1232.892
221.2929, 1234.156
221.7750, 1235.569
222.2572, 1236.920
222.7393, 1237.969
223.2214, 1238.668
223.7035, 1239.051
224.1856, 1238.974
224.6677, 1238.479
225.1499, 1238.156
225.6320, 1238.325
226.1141, 1238.721
226.5962, 1238.797
227.0783, 1238.303
227.5604, 1237.974
228.0426, 1238.760
228.5247, 1240.407
229.0068, 1241.994
229.4889, 1243.268
229.9710, 1244.220
230.4531, 1244.758
230.9353, 1244.713
231.4174, 1244.572
231.8995, 1244.682
232.3816, 1244.986
232.8637, 1245.355
233.3458, 1245.617
233.8280, 1245.883
234.3101, 1246.657
234.7922, 1248.443
235.2743, 1249.859
235.7564, 1249.762
236.2385, 1248.776
236.7207, 1248.158
237.2028, 1248.617
237.6849, 1250.010
238.1670, 1251.865
238.6491, 1254.904
239.1312, 1257.268
239.6134, 1257.829
240.0955, 1257.360
240.5776, 1257.215
241.0597, 1258.353
241.5418, 1260.406
242.0239, 1261.497
242.5061, 1260.601
242.9882, 1260.140
243.4703, 1261.001
243.9524, 1262.665
244.4345, 1264.369
244.9166, 1265.664
245.3988, 1266.672
245.8809, 1267.981
246.3630, 1270.257
246.8451, 1271.930
247.3272, 1272.232
247.8093, 1271.907
248.2915, 1271.892
248.7736, 1272.700
249.2557, 1274.169
249.7378, 1275.649
250.2199, 1277.366
250.7020, 1278.797
251.1842, 1279.785
251.6663, 1280.485
252.1484, 1281.012
252.6305, 1281.419
253.1126, 1281.799
253.5947, 1282.462
254.0769, 1284.051
254.5590, 1285.135
255.0411, 1285.400
255.5232, 1285.218
256.0053, 1285.063
256.4874, 1285.134
256.9695, 1285.178
257.4517, 1284.590
257.9338, 1282.731
258.4159, 1280.934
258.8980, 1279.399
259.3801, 1277.838
259.8622, 1275.891
260.3444, 1273.438
260.8265, 1270.698
261.3086, 1268.104
261.7907, 1266.059
262.2728, 1263.428
262.7549, 1259.930
263.2371, 1255.950
263.7192, 1251.771
264.2013, 1247.473
264.6834, 1243.213
265.1655, 1239.197
265.6476, 1235.398
266.1298, 1232.049
266.6119, 1229.695
267.0940, 1227.484
267.5761, 1224.495
268.0582, 1220.566
268.5403, 1216.497
269.0225, 1213.321
269.5046, 1211.394
269.9867, 1208.682
270.4688, 1204.132
270.9509, 1199.426
271.4330, 1196.054
271.9152, 1194.180
272.3973, 1192.952
272.8794, 1191.686
273.3615, 1190.370
273.8436, 1189.016
274.3257, 1187.703
274.8079, 1186.282
275.2900, 1184.492
275.7721, 1182.357
276.2542, 1180.426
276.7363, 1179.113
277.2184, 1178.419
277.7006, 1177.809
278.1827, 1177.549
278.6648, 1177.159
279.1469, 1176.190
279.6290, 1174.709
280.1111, 1173.229
280.5933, 1171.969
281.0754, 1170.999
281.5575, 1170.413
282.0396, 1170.743
282.5217, 1170.823
283.0038, 1169.634
283.4860, 1167.434
283.9681, 1165.585
284.4502, 1164.803
284.9323, 1164.685
285.4144, 1164.289
285.8965, 1163.458
286.3787, 1162.738
286.8608, 1162.694
287.3429, 1163.073
287.8250, 1162.757
288.3071, 1160.880
288.7892, 1158.869
289.2714, 1159.099
289.7535, 1161.874
290.2356, 1164.105
290.7177, 1163.851
291.1998, 1161.943
291.6819, 1160.628
292.1641, 1160.545
292.6462, 1160.863
293.1283, 1160.708
293.6104, 1160.135
294.0925, 1159.420
294.5746, 1158.551
295.0568, 1157.635
295.5389, 1156.948
296.0210, 1156.618
296.5031, 1156.232
296.9852, 1155.218
297.4673, 1153.821
297.9495, 1152.732
298.4316, 1152.329
298.9137, 1152.305
299.3958, 1152.250
299.8779, 1152.164
300.3600, 1152.010
300.8422, 1152.004
301.3243, 1151.869
301.8064, 1151.005
302.2885, 1148.645
302.7706, 1146.104
303.2527, 1145.131
303.7349, 1145.848
304.2170, 1146.322
304.6991, 1145.333
305.1812, 1143.721
305.6633, 1142.652
306.1454, 1142.411
306.6276, 1142.374
307.1097, 1142.011
307.5918, 1141.343
308.0739, 1140.652
308.5560, 1139.889
309.0381, 1139.295
309.5203, 1139.194
310.0024, 1139.643
310.4845, 1140.053
310.9666, 1140.011
311.4487, 1139.580
311.9308, 1139.094
312.4130, 1138.660
312.8951, 1138.100
313.3772, 1137.101
313.8593, 1135.748
314.3414, 1134.691
314.8235, 1134.473
315.3057, 1134.775
315.7878, 1134.746
316.2699, 1134.204
316.7520, 1133.601
317.2341, 1133.364
317.7162, 1133.329
318.1984, 1133.123
318.6805, 1132.533
319.1626, 1131.741
319.6447, 1130.962
320.1268, 1130.158
320.6089, 1129.591
321.0911, 1129.789
321.5732, 1130.214
322.0553, 1130.021
322.5374, 1128.714
323.0195, 1127.291
323.5016, 1126.945
323.9838, 1127.683
324.4659, 1128.241
324.9480, 1128.146
325.4301, 1127.592
325.9122, 1126.625
326.3943, 1125.051
326.8765, 1124.063
327.3586, 1125.120
327.8407, 1127.760
328.3228, 1129.268
328.8049, 1128.474
329.2870, 1127.111
329.7692, 1127.227
330.2513, 1128.664
330.7334, 1129.561
331.2155, 1128.401
331.6976, 1126.114
332.1797, 1124.984
332.6619, 1125.534
333.1440, 1126.437
333.6261, 1126.355
334.1082, 1125.753
334.5903, 1125.818
335.0724, 1127.451
335.5546, 1129.667
336.0367, 1131.258
336.5188, 1132.196
337.0009, 1132.718
337.4830, 1132.730
337.9651, 1132.468
338.4473, 1132.428
338.9294, 1132.961
339.4115, 1133.261
339.8936, 1132.350
340.3758, 1130.427
340.8579, 1129.088
341.3400, 1129.148
341.8221, 1129.858
342.3042, 1130.020
342.7863, 1129.548
343.2685, 1129.057
343.7506, 1128.870
344.2327, 1128.883
344.7148, 1128.854
345.1969, 1128.726
345.6790, 1128.553
346.1612, 1128.388
346.6433, 1128.227
347.1254, 1128.051
347.6075, 1127.959
348.0896, 1127.801
348.5717, 1127.316
349.0539, 1126.467
349.5360, 1125.652
350.0181, 1125.260
350.5002, 1125.151
350.9823, 1124.689
351.4644, 1123.569
351.9466, 1122.327
352.4287, 1121.221
352.9108, 1120.272
353.3929, 1119.570
353.8750, 1119.232
354.3571, 1119.108
354.8393, 1118.830
355.3214, 1118.383
355.8035, 1117.854
356.2856, 1117.171
356.7677, 1116.448
357.2498, 1115.949
357.7320, 1115.785
358.2141, 1115.666
358.6962, 1115.189
359.1783, 1114.327
359.6604, 1113.312
360.1425, 1111.833
360.6247, 1110.418
361.1068, 1109.628
361.5889, 1109.485
362.0710, 1109.639
362.5531, 1109.970
363.0352, 1110.422
363.5174, 1109.828
363.9995, 1106.924
364.4816, 1104.322
364.9637, 1103.674
365.4458, 1104.353
365.9279, 1104.597
366.4101, 1103.413
366.8922, 1101.354
367.3743, 1100.252
367.8564, 1100.752
368.3385, 1101.208
368.8206, 1101.564
369.3028, 1101.698
369.7849, 1101.492
370.2670, 1100.909
370.7491, 1099.903
371.2312, 1098.312
371.7133, 1095.678
372.1955, 1093.953
372.6776, 1093.964
373.1597, 1094.122
373.6418, 1093.419
374.1239, 1091.908
374.6060, 1090.241
375.0882, 1088.921
375.5703, 1087.942
376.0524, 1086.803
376.5345, 1084.883
377.0166, 1083.514
377.4987, 1083.173
377.9809, 1083.528
378.4630, 1084.249
378.9451, 1085.192
379.4272, 1086.054
379.9093, 1086.075
380.3914, 1084.589
380.8736, 1083.333
381.3557, 1082.686
381.8378, 1082.049
382.3199, 1080.780
382.8020, 1078.900
383.2841, 1077.116
383.7663, 1076.274
384.2484, 1076.510
384.7305, 1076.669
385.2126, 1076.741
385.6947, 1076.728
386.1768, 1076.926
386.6590, 1077.010
387.1411, 1076.213
387.6232, 1073.847
388.1053, 1070.606
388.5874, 1069.141
389.0695, 1070.527
389.5517, 1071.704
390.0338, 1072.084
390.5159, 1071.912
390.9980, 1071.223
391.4801, 1070.042
391.9622, 1068.880
392.4444, 1068.472
392.9265, 1068.922
393.4086, 1069.172
393.8907, 1069.207
394.3728, 1068.875
394.8549, 1067.869
395.3371, 1066.374
395.8192, 1065.056
396.3013, 1064.491
396.7834, 1064.426
397.2655, 1063.962
397.7477, 1062.912
398.2298, 1061.948
398.7119, 1061.581
399.1940, 1061.455
399.6761, 1061.078
400.1582, 1060.201
400.6404, 1059.308
401.1225, 1059.095
401.6046, 1059.492
402.0867, 1059.304
402.5688, 1057.693
403.0509, 1055.892
403.5331, 1055.484
404.0152, 1056.489
404.4973, 1057.451
404.9794, 1057.764
405.4615, 1057.615
405.9436, 1057.209
406.4258, 1056.520
406.9079, 1056.001
407.3900, 1056.211
407.8721, 1056.964
408.3542, 1057.265
408.8363, 1056.840
409.3185, 1056.139
409.8006, 1055.497
410.2827, 1054.834
410.7648, 1053.776
411.2469, 1052.041
411.7290, 1050.061
412.2112, 1048.858
412.6933, 1048.560
413.1754, 1048.549
413.6575, 1049.225
414.1396, 1049.865
414.6217, 1049.574
415.1039, 1048.252
415.5860, 1046.621
416.0681, 1045.384
416.5502, 1044.583
417.0323, 1043.703
417.5144, 1042.461
417.9966, 1041.441
418.4787, 1040.784
418.9608, 1040.532
419.4429, 1040.929
419.9250, 1042.150
420.4071, 1043.646
420.8893, 1043.823
421.3714, 1041.139
421.8535, 1039.469
422.3356, 1039.957
422.8177, 1040.715
423.2998, 1040.082
423.7820, 1037.989
424.2641, 1035.745
424.7462, 1034.841
425.2283, 1035.423
425.7104, 1035.094
426.1925, 1032.846
426.6747, 1030.731
427.1568, 1029.451
427.6389, 1028.659
428.1210, 1027.764
428.6031, 1026.462
429.0852, 1025.014
429.5674, 1024.107
430.0495, 1024.057
430.5316, 1023.407
431.0137, 1021.153
431.4958, 1018.634
431.9779, 1016.753
432.4601, 1015.542
432.9422, 1014.358
433.4243, 1012.593
433.9064, 1010.425
434.3885, 1008.626
434.8706, 1007.281
435.3528, 1006.181
435.8349, 1005.272
436.3170, 1004.494
436.7991, 1003.753
437.2812, 1003.064
437.7633, 1002.352
438.2455, 1001.634
438.7276, 1000.868
439.2097, 999.7372
439.6918, 997.9841
440.1739, 996.0431
440.6560, 994.5217
441.1382, 993.3807
441.6203, 992.5895
442.1024, 992.5178
442.5845, 992.5886
443.0666, 992.2357
443.5487, 991.3880
444.0309, 989.9874
444.5130, 987.7815
444.9951, 984.9470
445.4772, 983.0502
445.9593, 982.4974
446.4414, 982.2648
446.9236, 982.4958
447.4057, 982.7264
447.8878, 982.0837
448.3699, 980.2944
448.8520, 978.2018
449.3341, 977.1537
449.8163, 977.7835
450.2984, 977.6673
450.7805, 976.1257
451.2626, 974.5836
451.7447, 973.8245
452.2268, 973.7042
452.7090, 973.7084
453.1911, 973.5398
453.6732, 973.1414
454.1553, 972.1902
454.6374, 969.9943
455.1195, 968.4432
455.6017, 968.0486
456.0838, 968.1876
456.5659, 968.5053
457.0480, 968.8722
457.5301, 969.0590
458.0122, 968.7997
458.4944, 968.0988
458.9765, 967.2655
459.4586, 966.1942
459.9407, 965.1621
460.4228, 964.3461
460.9049, 963.6600
461.3871, 962.9074
461.8692, 961.8710
462.3513, 960.9883
462.8334, 961.0954
463.3155, 962.1345
463.7976, 962.5525
464.2798, 961.7385
464.7619, 960.2362
465.2440, 958.5493
465.7261, 956.6497
466.2082, 955.2537
466.6903, 954.9034
467.1725, 955.0178
467.6546, 954.9548
468.1367, 954.6600
468.6188, 954.2066
469.1009, 953.5782
469.5830, 952.8517
470.0652, 952.3958
470.5473, 952.2535
471.0294, 952.2821
471.5115, 952.6942
471.9936, 953.1520
472.4757, 953.2047
472.9579, 952.7443
473.4400, 952.0081
473.9221, 951.2653
474.4042, 950.5163
474.8863, 949.7465
475.3684, 948.8475
475.8506, 948.0336
476.3327, 947.6639
476.8148, 947.3777
477.2969, 946.5053
477.7790, 944.7131
478.2611, 942.4377
478.7433, 940.5754
479.2254, 939.1417
479.7075, 938.1163
480.1896, 937.8391
480.6717, 937.7004
481.1538, 937.4579
481.6360, 937.0713
482.1181, 936.5219
482.6002, 935.6544
483.0823, 934.6640
483.5644, 934.1940
484.0465, 934.4385
484.5287, 934.5071
485.0108, 934.0355
485.4929, 933.1453
485.9750, 931.8465
486.4571, 930.0334
486.9392, 928.4000
487.4214, 927.4869
487.9035, 927.0367
488.3856, 926.4735
488.8677, 925.6843
489.3498, 924.8977
489.8319, 924.2339
490.3141, 923.7390
490.7962, 923.6437
491.2783, 924.7183
491.7604, 925.3763
492.2425, 924.5610
492.7246, 922.8863
493.2068, 921.5388
493.6889, 920.9415
494.1710, 920.5826
494.6531, 919.6175
495.1352, 917.5816
495.6173, 916.4571
496.0995, 917.0942
496.5816, 917.6809
497.0637, 917.2989
497.5458, 916.1763
498.0279, 914.9017
498.5100, 913.7784
498.9922, 912.8368
499.4743, 912.2255
499.9564, 912.2502
500.4385, 911.8077
500.9206, 910.1348
501.4027, 908.4203
501.8849, 907.2398
502.3670, 906.6794
502.8491, 906.7700
503.3312, 908.1841
503.8133, 910.1191
504.2954, 910.1498
504.7776, 907.9050
505.2597, 905.5063
505.7418, 903.7151
506.2239, 902.4781
506.7060, 901.7552
507.1881, 901.6720
507.6703, 901.5904
508.1524, 901.1412
508.6345, 900.5043
509.1166, 899.9507
509.5987, 899.5179
510.0808, 899.2486
510.5630, 899.3174
511.0451, 899.6266
511.5272, 899.1268
512.0093, 896.7238
512.4914, 894.9113
512.9735, 894.7369
513.4556, 895.4301
513.9377, 896.2053
514.4199, 896.7630
514.9020, 896.8027
515.3841, 895.8463
515.8662, 893.7075
516.3483, 891.8834
516.8304, 890.1356
517.3126, 888.9948
517.7947, 889.1406
518.2768, 889.8431
518.7589, 889.9537
519.2410, 888.9863
519.7231, 887.7746
520.2053, 887.8054
520.6874, 889.2327
521.1695, 889.4832
521.6516, 887.1897
522.1337, 884.9681
522.6158, 884.9711
523.0980, 886.4708
523.5801, 887.3774
524.0622, 886.7607
524.5443, 885.4338
525.0264, 883.9017
525.5085, 882.2805
525.9907, 881.4762
526.4728, 882.0652
526.9549, 883.0193
527.4370, 882.6613
527.9191, 880.7123
528.4012, 879.3434
528.8834, 879.0092
529.3655, 879.1179
529.8476, 879.2771
530.3297, 879.5256
530.8118, 880.2523
531.2939, 881.7375
531.7761, 883.3527
532.2582, 883.3971
532.7403, 880.4931
533.2224, 878.5190
533.7045, 877.7359
534.1866, 877.5800
534.6688, 878.1334
535.1509, 879.0440
535.6330, 879.5059
536.1151, 878.9334
536.5972, 877.6362
537.0793, 876.1977
537.5615, 874.3356
538.0436, 873.5782
538.5257, 875.4855
539.0078, 877.8502
539.4899, 878.7308
539.9720, 878.1214
540.4542, 877.2156
540.9363, 876.2960
541.4184, 875.5774
541.9005, 875.5773
542.3826, 876.2601
542.8647, 876.6006
543.3469, 875.8407
543.8290, 874.6263
544.3111, 874.7724
544.7932, 877.0533
545.2753, 878.6484
545.7574, 878.8094
546.2396, 878.3795
546.7217, 877.7541
547.2038, 877.1671
547.6859, 877.1553
548.1680, 878.1740
548.6501, 879.9107
549.1323, 880.9791
549.6144, 881.0764
550.0965, 880.9862
550.5786, 880.2828
551.0607, 879.8407
551.5428, 880.5834
552.0250, 882.3510
552.5071, 883.9519
552.9892, 884.2617
553.4713, 883.8529
553.9534, 884.7327
554.4355, 887.3415
554.9177, 888.9311
555.3998, 887.6973
555.8819, 885.3713
556.3640, 884.4184
556.8461, 885.0511
557.3282, 885.5485
557.8104, 884.9638
558.2925, 884.0531
558.7746, 883.8031
559.2567, 884.1920
559.7388, 884.5250
560.2209, 884.4049
560.7031, 883.9010
561.1852, 883.2371
561.6673, 882.4350
562.1494, 881.4106
562.6315, 879.5862
563.1136, 877.9916
563.5958, 877.7123
564.0779, 878.4425
564.5600, 878.9377
565.0421, 878.3246
565.5242, 876.8195
566.0063, 875.0069
566.4885, 872.6130
566.9706, 870.7310
567.4527, 869.9569
567.9348, 869.5552
568.4169, 869.2738
568.8990, 869.0027
569.3812, 868.2593
569.8633, 866.3508
570.3454, 864.0645
570.8275, 862.6141
571.3096, 861.9590
571.7917, 861.3517
572.2739, 860.5333
572.7560, 859.4952
573.2381, 858.1293
573.7202, 856.2595
574.2023, 854.7661
574.6844, 853.9030
575.1666, 853.2894
575.6487, 852.7286
576.1308, 852.1948
576.6129, 851.7274
577.0950, 851.3516
577.5771, 850.9597
578.0593, 850.2802
578.5414, 849.1613
579.0235, 848.1606
579.5056, 847.2807
579.9877, 846.5412
580.4698, 846.1901
580.9520, 845.9738
581.4341, 845.3019
581.9162, 843.7945
582.3983, 841.9578
582.8804, 840.2787
583.3625, 838.7910
583.8447, 838.0355
584.3268, 838.3660
584.8089, 838.9500
585.2910, 839.0810
585.7732, 838.7560
586.2553, 837.8685
586.7374, 835.4111
587.2195, 833.4391
587.7017, 833.5615
588.1838, 834.7633
588.6659, 835.1849
589.1480, 834.2913
589.6301, 833.0259
590.1122, 832.5884
590.5944, 833.1088
591.0765, 833.1971
591.5586, 832.1678
592.0407, 831.5019
592.5228, 831.9589
593.0049, 832.7649
593.4871, 832.9846
593.9692, 832.3826
594.4513, 831.4771
594.9334, 830.6781
595.4155, 829.9734
595.8976, 829.2224
596.3798, 828.3044
596.8619, 827.9011
597.3440, 828.8837
597.8261, 830.4772
598.3082, 830.7357
598.7903, 829.0530
599.2725, 827.5860
599.7546, 827.2925
600.2367, 827.3967
600.7188, 827.0955
601.2009, 826.3399
601.6830, 825.4620
602.1652, 824.6693
602.6473, 823.9540
603.1294, 823.2945
603.6115, 822.7307
604.0936, 822.1429
604.5757, 821.2479
605.0579, 820.5628
605.5400, 820.6948
606.0221, 821.3510
606.5042, 821.5575
606.9863, 820.5901
607.4684, 819.1624
607.9506, 818.3512
608.4327, 818.1513
608.9148, 818.4443
609.3969, 819.4680
609.8790, 820.4807
610.3611, 820.4408
610.8433, 819.4688
611.3254, 819.1049
611.8075, 820.5945
612.2896, 821.5999
612.7717, 820.3021
613.2538, 817.8516
613.7360, 816.1081
614.2181, 815.6489
614.7002, 816.1567
615.1823, 817.4954
615.6644, 819.7707
616.1465, 820.5559
616.6287, 818.3792
617.1108, 816.7143
617.5929, 816.9201
618.0750, 817.7654
618.5571, 817.9297
619.0392, 817.1804
619.5214, 816.3582
620.0035, 816.0398
620.4856, 816.1195
620.9677, 816.5008
621.4498, 817.1985
621.9319, 817.6141
622.4141, 817.3677
622.8962, 816.7576
623.3783, 816.3914
623.8604, 816.2926
624.3425, 816.3347
624.8246, 816.5562
625.3068, 816.8677
625.7889, 817.1550
626.2710, 817.4833
626.7531, 818.0674
627.2352, 819.0148
627.7173, 820.0932
628.1995, 820.8987
628.6816, 821.4212
629.1637, 821.7114
629.6458, 821.7438
630.1279, 821.5506
630.6100, 820.7680
631.0922, 819.8821
631.5743, 819.8221
632.0564, 820.9951
632.5385, 822.4840
633.0206, 823.6708
633.5027, 824.6963
633.9849, 826.0013
634.4670, 827.6306
634.9491, 828.8119
635.4312, 828.8651
635.9133, 828.0995
636.3954, 827.9750
636.8776, 828.9023
637.3597, 829.9619
637.8418, 831.2063
638.3239, 832.5067
638.8060, 833.6606
639.2881, 834.7776
639.7703, 836.2421
640.2524, 838.3693
640.7345, 840.7438
641.2166, 842.5289
641.6987, 843.7081
642.1808, 844.7811
642.6630, 845.8589
643.1451, 846.8340
643.6272, 847.2276
644.1093, 847.3525
644.5914, 847.1604
645.0735, 849.8243
645.5557, 851.6924
646.0378, 852.8049
646.5199, 851.0245
647.0020, 852.8838
647.4841, 853.2258
647.9662, 853.4655
648.4484, 855.7175
648.9305, 854.1426
649.4126, 856.2781
649.8947, 856.8740
650.3768, 858.1135
650.8589, 857.8268
651.3411, 857.9568
651.8232, 859.5297
652.3053, 860.2386
652.7874, 859.6136
653.2695, 860.6456
653.7516, 858.6005
654.2338, 859.1771
654.7159, 860.8610
655.1980, 860.1014
655.6801, 860.9513
656.1622, 861.1304
656.6443, 858.4095
657.1265, 860.6175
657.6086, 860.6339
658.0907, 858.4012
658.5728, 860.3134
659.0549, 858.3013
659.5370, 857.6331
660.0192, 857.9659
660.5013, 857.1698
660.9834, 858.0458
661.4655, 857.2288
661.9476, 856.2224
662.4297, 855.8180
662.9119, 853.5471
663.3940, 854.6193
663.8761, 853.3375
664.3582, 853.1631
664.8403, 853.2075
665.3224, 851.2154
665.8046, 851.2928
666.2867, 848.0540
666.7688, 847.5133
667.2509, 846.6357
667.7330, 846.2817
668.2151, 844.5025
668.6973, 842.1848
669.1794, 840.1493
669.6615, 839.2982
670.1436, 839.5466
670.6257, 839.6362
671.1078, 839.4764
671.5900, 838.9012
672.0721, 841.7462
672.5542, 843.1797
673.0363, 843.2778
673.5184, 838.0407
674.0005, 839.6929
674.4827, 838.5841
674.9648, 837.3622
675.4469, 839.9841
675.9290, 835.5229
676.4111, 838.0839
676.8932, 837.8417
677.3754, 838.8824
677.8575, 837.1452
678.3396, 836.2659
678.8217, 835.2256
679.3038, 836.5408
679.7859, 837.3749
680.2681, 837.5126
680.7502, 837.2103
681.2323, 836.4664
681.7144, 835.4267
682.1965, 834.7089
682.6786, 835.0842
683.1608, 835.7787
683.6429, 835.1687
684.1250, 833.4759
684.6071, 832.8265
685.0892, 834.0958
685.5714, 835.7083
686.0535, 835.7551
686.5356, 834.0953
687.0177, 833.2907
687.4998, 834.4662
687.9819, 834.9971
688.4641, 833.4877
688.9462, 831.4791
689.4283, 830.5789
689.9104, 830.9260
690.3925, 831.5781
690.8746, 831.9152
691.3568, 831.9772
691.8389, 831.9066
692.3210, 831.7198
692.8031, 831.0209
693.2852, 829.4736
693.7673, 827.8251
694.2495, 826.8264
694.7316, 826.4574
695.2137, 826.2250
695.6958, 826.5447
696.1779, 826.4774
696.6600, 825.2418
697.1422, 823.7223
697.6243, 822.8806
698.1064, 822.8326
698.5885, 823.1985
699.0706, 823.7879
699.5527, 824.4102
700.0349, 824.5032
700.5170, 824.0121
700.9991, 823.2938
701.4812, 822.2791
701.9633, 821.2413
702.4454, 820.4638
702.9276, 819.8586
703.4097, 819.1146
703.8918, 818.1770
704.3739, 817.1119
704.8560, 815.5634
705.3381, 814.1087
705.8203, 813.6384
706.3024, 814.0617
706.7845, 814.3992
707.2666, 813.9603
707.7487, 813.0417
708.2308, 812.4366
708.7130, 812.1710
709.1951, 812.1544
709.6772, 812.8983
710.1593, 813.1901
710.6414, 811.8348
711.1235, 809.5587
711.6057, 807.9521
712.0878, 807.6054
712.5699, 807.1784
713.0520, 805.9159
713.5341, 804.3004
714.0162, 802.7685
714.4984, 801.4319
714.9805, 800.4700
715.4626, 800.0143
715.9447, 799.7479
716.4268, 798.9114
716.9089, 797.2843
717.3911, 796.1009
717.8732, 795.8220
718.3553, 795.3826
718.8374, 794.1887
719.3195, 792.5754
719.8016, 790.9667
720.2838, 789.3855
720.7659, 787.9876
721.2480, 786.9044
721.7301, 786.0000
722.2122, 785.1331
722.6943, 784.3069
723.1765, 783.6130
723.6586, 783.0944
724.1407, 782.5676
724.6228, 781.7805
725.1049, 780.7321
725.5870, 779.3400
726.0692, 777.2177
726.5513, 775.3908
727.0334, 774.2037
727.5155, 773.4707
727.9976, 773.2088
728.4797, 773.3906
728.9619, 773.3324
729.4440, 772.4800
729.9261, 771.4929
730.4082, 771.2509
730.8903, 771.3172
731.3724, 770.5030
731.8546, 768.5031
732.3367, 766.1813
732.8188, 764.4073
733.3009, 763.1581
733.7830, 762.0891
734.2651, 761.1705
734.7473, 760.5074
735.2294, 760.3710
735.7115, 760.3045
736.1936, 760.1324
736.6757, 759.7811
737.1578, 758.9723
737.6400, 757.2306
738.1221, 755.5175
738.6042, 754.5837
739.0863, 754.0562
739.5684, 753.4470
740.0505, 752.6358
740.5327, 751.4661
741.0148, 749.7380
741.4969, 747.8108
741.9790, 746.8278
742.4611, 747.0219
742.9432, 747.3224
743.4254, 747.9206
743.9075, 748.2319
744.3896, 747.7902
744.8717, 746.8884
745.3538, 746.0557
745.8359, 745.3937
746.3181, 744.7399
746.8002, 744.0148
747.2823, 743.2750
747.7644, 742.6396
748.2465, 742.0486
748.7286, 741.2042
749.2108, 739.9742
749.6929, 738.7870
750.1750, 738.4504
750.6571, 739.0399
751.1392, 738.7576
751.6213, 737.0643
752.1035, 735.7590
752.5856, 736.1678
753.0677, 736.8897
753.5498, 736.0100
754.0319, 733.4504
754.5140, 731.3830
754.9962, 730.5421
755.4783, 730.1038
755.9604, 729.5621
756.4425, 729.1066
756.9246, 729.2660
757.4067, 730.0146
757.8889, 730.5060
758.3710, 729.9898
758.8531, 728.6826
759.3352, 727.2214
759.8173, 725.5631
760.2994, 724.1554
760.7816, 723.0888
761.2637, 722.3382
761.7458, 722.0740
762.2279, 722.1534
762.7100, 721.8630
763.1921, 720.9753
763.6743, 720.0611
764.1564, 719.3220
764.6385, 718.5605
765.1206, 717.4355
765.6027, 716.1542
766.0848, 715.2617
766.5670, 715.0108
767.0491, 715.1735
767.5312, 715.7620
768.0133, 716.5793
768.4954, 716.3676
768.9775, 714.9315
769.4597, 713.4983
769.9418, 712.6895
770.4239, 711.4457
770.9060, 711.2047
771.3881, 709.6465
771.8702, 708.5565
772.3524, 708.0244
772.8345, 707.8219
773.3166, 708.3123
773.7987, 708.8304
774.2808, 708.4962
774.7629, 707.3010
775.2451, 706.1688
775.7272, 705.8279
776.2093, 705.7947
776.6914, 705.3803
777.1735, 704.6487
777.6556, 703.7571
778.1378, 702.7217
778.6199, 701.9904
779.1020, 702.0187
779.5841, 702.6222
780.0662, 702.8743
780.5483, 702.7729
781.0305, 702.3099
781.5126, 701.0473
781.9947, 699.8723
782.4768, 699.4219
782.9589, 699.3126
783.4410, 698.7021
783.9232, 697.2381
784.4053, 696.0193
784.8874, 696.1037
785.3695, 696.5308
785.8516, 696.0452
786.3337, 694.8138
786.8159, 693.6539
787.2980, 692.8942
787.7801, 692.3467
788.2622, 691.7985
788.7443, 691.2493
789.2264, 690.4999
789.7086, 689.3951
790.1907, 688.5234
790.6728, 688.0417
791.1549, 687.8715
791.6370, 688.0684
792.1191, 688.5572
792.6013, 688.8024
793.0834, 688.6457
793.5655, 688.3284
794.0476, 687.9485
794.5297, 687.4435
795.0118, 686.6213
795.4940, 685.5917
795.9761, 684.8061
796.4582, 684.5621
796.9403, 684.3365
797.4224, 683.1904
797.9045, 681.2846
798.3867, 679.7060
798.8688, 678.5432
799.3509, 677.7405
799.8330, 677.3065
800.3151, 677.1768
800.7972, 677.3844
801.2794, 678.3476
801.7615, 677.9625
802.2436, 674.8552
802.7257, 672.2210
803.2078, 671.0377
803.6899, 670.7551
804.1721, 670.9631
804.6542, 671.5045
805.1363, 672.0359
805.6184, 672.4988
806.1005, 672.7312
806.5826, 672.3522
807.0648, 671.6594
807.5469, 671.4477
808.0290, 671.7870
808.5111, 671.9247
808.9932, 671.2994
809.4753, 670.2040
809.9575, 669.3710
810.4396, 668.7897
810.9217, 668.5928
811.4038, 669.4103
811.8859, 669.5695
812.3680, 667.6032
812.8502, 664.7588
813.3323, 662.7551
813.8144, 661.7060
814.2965, 661.1962
814.7786, 661.5052
815.2607, 661.9213
815.7429, 662.0071
816.2250, 661.9496
816.7071, 662.1364
817.1892, 662.5622
817.6713, 662.7455
818.1534, 662.2401
818.6356, 661.3835
819.1177, 660.8477
819.5998, 660.5817
820.0819, 660.1536
820.5640, 659.4553
821.0461, 658.8911
821.5283, 658.8392
822.0104, 659.0193
822.4925, 658.5554
822.9746, 656.9727
823.4567, 655.7929
823.9388, 655.1358
824.4210, 654.7399
824.9031, 654.9674
825.3852, 655.1738
825.8673, 654.2350
826.3494, 652.0423
826.8315, 650.5585
827.3137, 651.5292
827.7958, 652.8044
828.2779, 652.4010
828.7600, 651.0523
829.2421, 650.1511
829.7242, 649.9415
830.2064, 649.7864
830.6885, 649.1520
831.1706, 648.3661
831.6527, 648.4471
832.1348, 649.4420
832.6169, 649.6129
833.0991, 648.5156
833.5812, 647.3289
834.0633, 646.6714
834.5454, 646.4213
835.0275, 646.3488
835.5096, 646.5556
835.9918, 646.6102
836.4739, 646.4418
836.9560, 646.1934
837.4381, 645.8898
837.9202, 645.5500
838.4023, 645.1367
838.8845, 644.6836
839.3666, 644.3922
839.8487, 644.6076
840.3308, 644.7455
840.8129, 643.7670
841.2950, 642.4211
841.7772, 642.7095
842.2593, 644.5634
842.7414, 645.4281
843.2235, 643.5808
843.7056, 640.5188
844.1877, 639.4717
844.6699, 640.6693
845.1520, 641.0110
845.6341, 640.1600
846.1162, 639.1227
846.5983, 638.0346
847.0804, 637.2365
847.5626, 637.4913
848.0447, 638.9125
848.5268, 639.3594
849.0089, 637.8759
849.4910, 636.5250
849.9731, 635.8782
850.4553, 635.6064
850.9374, 635.5784
851.4195, 635.6398
851.9016, 635.4194
852.3837, 634.6459
852.8658, 633.9570
853.3480, 634.3232
853.8301, 634.9899
854.3122, 634.3801
854.7943, 632.6846
855.2764, 631.2741
855.7585, 630.7441
856.2407, 630.8258
856.7228, 631.3224
857.2049, 632.1529
857.6870, 632.1517
858.1691, 631.0114
858.6512, 630.2580
859.1334, 630.3596
859.6155, 630.8132
860.0976, 631.3451
860.5797, 631.8783
861.0618, 632.0068
861.5439, 631.3278
862.0261, 630.9301
862.5082, 631.2288
862.9903, 631.5403
863.4724, 631.5834
863.9545, 631.3182
864.4366, 630.6548
864.9188, 629.5833
865.4009, 628.5117
865.8830, 627.5525
866.3651, 626.8581
866.8472, 626.7642
867.3293, 627.0392
867.8115, 627.1456
868.2936, 626.9636
868.7757, 626.6067
869.2578, 626.1254
869.7399, 625.6435
870.2220, 625.5253
870.7042, 625.7896
871.1863, 625.9423
871.6684, 625.8980
872.1505, 625.8922
872.6326, 626.0712
873.1147, 626.3147
873.5969, 626.3306
874.0790, 625.9334
874.5611, 626.3155
875.0432, 628.8653
875.5253, 630.3273
876.0074, 629.1661
876.4896, 627.2691
876.9717, 626.1003
877.4538, 625.6552
877.9359, 625.3331
878.4180, 624.9696
878.9001, 624.6033
879.3823, 624.2028
879.8644, 623.8535
880.3465, 623.5624
880.8286, 623.4171
881.3107, 623.6939
881.7928, 624.4644
882.2750, 625.3136
882.7571, 625.8577
883.2392, 626.1003
883.7213, 625.8260
884.2034, 625.0974
884.6855, 625.1296
885.1677, 626.3134
885.6498, 627.5154
886.1319, 627.8790
886.6140, 627.5515
887.0961, 626.9827
887.5782, 625.9434
888.0604, 625.2486
888.5425, 625.0248
889.0246, 624.9734
889.5067, 624.8420
889.9888, 624.8909
890.4709, 625.5224
890.9531, 626.7433
891.4352, 627.8673
891.9173, 628.9161
892.3994, 629.6430
892.8815, 629.5919
893.3636, 629.4423
893.8458, 630.0721
894.3279, 631.2073
894.8100, 631.8349
895.2921, 631.4857
895.7742, 630.8904
896.2563, 630.6234
896.7385, 630.6337
897.2206, 630.8290
897.7027, 631.2249
898.1848, 632.0309
898.6669, 633.2835
899.1490, 634.3192
899.6312, 634.3945
900.1133, 633.8743
900.5954, 634.1604
901.0775, 635.3057
901.5596, 636.7463
902.0417, 638.6360
902.5239, 639.9716
903.0060, 639.8174
903.4881, 639.0634
903.9702, 639.5673
904.4523, 641.6209
904.9344, 643.7428
905.4166, 646.2320
905.8987, 648.3915
906.3808, 650.1352
906.8629, 651.4502
907.3450, 652.1021
907.8271, 652.2853
908.3093, 652.7429
908.7914, 653.8611
909.2735, 654.8823
909.7556, 655.2775
910.2377, 655.6056
910.7198, 656.3214
911.2020, 657.3788
911.6841, 658.7675
912.1662, 660.4094
912.6483, 661.7043
913.1304, 661.9569
913.6125, 661.7339
914.0947, 661.8406
914.5768, 662.2572
915.0589, 662.9013
915.5410, 663.7658
916.0231, 664.9429
916.5052, 666.5079
916.9874, 668.3658
917.4695, 670.6156
917.9516, 673.3197
918.4337, 674.4517
918.9158, 673.5750
919.3979, 673.1440
919.8801, 674.1542
920.3622, 675.5999
920.8443, 676.4595
921.3264, 676.7809
921.8085, 677.0382
922.2906, 676.9319
922.7728, 677.2636
923.2549, 678.3845
923.7370, 679.5910
924.2191, 680.6945
924.7012, 681.6142
925.1833, 682.1547
925.6655, 682.2771
926.1476, 682.5530
926.6297, 683.2816
927.1118, 684.0516
927.5939, 684.8846
928.0760, 685.4924
928.5582, 685.3536
929.0403, 684.6910
929.5224, 684.2853
930.0045, 684.4806
930.4866, 684.9861
930.9688, 685.6307
931.4509, 686.3574
931.9330, 687.3574
932.4151, 688.3474
932.8972, 688.3717
933.3793, 687.2340
933.8615, 685.7440
934.3436, 684.5611
934.8257, 683.6259
935.3078, 682.7936
935.7899, 682.0703
936.2720, 681.5789
936.7542, 681.3675
937.2363, 681.0715
937.7184, 680.5762
938.2005, 679.6902
938.6826, 678.0292
939.1647, 675.5651
939.6469, 673.5363
940.1290, 671.9815
940.6111, 670.8405
941.0932, 670.8237
941.5753, 670.2875
942.0574, 667.5334
942.5396, 663.4808
943.0217, 660.6735
943.5038, 659.6555
943.9859, 658.2563
944.4680, 656.1790
944.9501, 653.8576
945.4323, 651.0859
945.9144, 648.4044
946.3965, 646.5032
946.8786, 645.2397
947.3607, 643.7712
947.8428, 641.8104
948.3250, 639.5769
948.8071, 636.9611
949.2892, 634.3220
949.7713, 631.8801
950.2534, 629.7221
950.7355, 628.2687
951.2177, 627.4715
951.6998, 626.1267
952.1819, 622.9150
952.6640, 619.2108
953.1461, 616.8503
953.6282, 615.4844
954.1104, 614.5129
954.5925, 613.7567
955.0746, 612.9598
955.5567, 611.9980
956.0388, 610.5776
956.5209, 607.9274
957.0031, 604.4851
957.4852, 602.6296
957.9673, 602.3461
958.4494, 602.2618
958.9315, 602.1437
959.4136, 601.5457
959.8958, 600.0826
960.3779, 598.0123
960.8600, 595.8768
961.3421, 593.4992
961.8242, 592.1006
962.3063, 592.2038
962.7885, 592.0031
963.2706, 590.8497
963.7527, 589.2333
964.2348, 587.3830
964.7169, 585.4313
965.1990, 584.3459
965.6812, 585.0281
966.1633, 585.2025
966.6454, 584.4611
967.1275, 583.6785
967.6096, 583.6072
968.0917, 583.4720
968.5739, 581.8865
969.0560, 578.9029
969.5381, 577.0305
970.0202, 577.5516
970.5023, 578.3529
970.9844, 579.3997
971.4666, 579.7886
971.9487, 578.2731
972.4308, 575.6940
972.9129, 573.6622
973.3950, 572.6089
973.8771, 572.1386
974.3593, 572.3354
974.8414, 572.6864
975.3235, 573.0690
975.8056, 573.1349
976.2877, 571.9453
976.7698, 569.8950
977.2520, 568.6995
977.7341, 569.1852
978.2162, 569.9916
978.6983, 569.5872
979.1804, 568.5291
979.6625, 567.7444
980.1447, 567.2529
980.6268, 567.0533
981.1089, 567.1339
981.5910, 567.4662
982.0731, 568.0700
982.5552, 568.6799
983.0374, 568.8008
983.5195, 568.4805
984.0016, 568.0667
984.4837, 567.5693
984.9658, 566.8784
985.4479, 565.9203
985.9301, 565.1490
986.4122, 565.0399
986.8943, 565.3603
987.3764, 565.2188
987.8585, 564.5023
988.3406, 564.0701
988.8228, 564.0010
989.3049, 564.0823
989.7870, 564.2098
990.2691, 564.5061
990.7512, 565.2723
991.2333, 566.4069
991.7155, 566.5801
992.1976, 565.2228
992.6797, 564.0761
993.1618, 562.9186
993.6439, 562.4632
994.1260, 563.6846
994.6082, 565.4338
995.0903, 566.0651
995.5724, 565.5511
996.0545, 564.8582
996.5366, 563.4570
997.0187, 562.6909
997.5009, 563.1541
997.9830, 563.9283
998.4651, 564.6931
998.9472, 565.2894
999.4293, 565.5115
999.9114, 565.3326
1000.394, 564.7990
1000.876, 563.4792
1001.358, 562.3718
1001.840, 561.9151
1002.322, 561.8409
1002.804, 562.0248
1003.286, 562.3571
1003.768, 562.7557
1004.250, 563.2202
1004.733, 563.3240
1005.215, 562.2938
1005.697, 561.4055
1006.179, 561.8745
1006.661, 562.8949
1007.143, 563.3038
1007.625, 563.2216
1008.107, 563.5397
1008.590, 564.6387
1009.072, 566.0441
1009.554, 568.1873
1010.036, 569.7255
1010.518, 568.1979
1011.000, 565.1257
1011.482, 563.6041
1011.964, 563.9247
1012.446, 564.4769
1012.929, 564.3887
1013.411, 564.1432
1013.893, 564.3439
1014.375, 564.4805
1014.857, 565.0743
1015.339, 565.2495
1015.821, 565.7075
1016.303, 566.4760
1016.786, 567.0745
1017.268, 567.1866
1017.750, 566.8910
1018.232, 565.9952
1018.714, 564.8031
1019.196, 564.8159
1019.678, 565.9053
1020.160, 566.4824
1020.642, 566.1142
1021.125, 565.6320
1021.607, 565.7108
1022.089, 566.0888
1022.571, 566.1385
1023.053, 565.8842
1023.535, 565.7595
1024.017, 565.7724
1024.499, 566.2186
1024.981, 567.2818
1025.464, 568.1332
1025.946, 567.9703
1026.428, 567.1097
1026.910, 566.5107
1027.392, 566.1848
1027.874, 565.9919
1028.356, 565.8904
1028.838, 566.1486
1029.321, 566.9699
1029.803, 567.8782
1030.285, 568.4762
1030.767, 568.7314
1031.249, 568.4652
1031.731, 567.5201
1032.213, 566.6346
1032.695, 565.8230
1033.177, 565.0292
1033.660, 564.0193
1034.142, 563.3851
1034.624, 563.8663
1035.106, 565.2701
1035.588, 566.4000
1036.070, 567.3133
1036.552, 567.8143
1037.034, 567.8452
1037.516, 567.5411
1037.999, 566.6688
1038.481, 565.7889
1038.963, 565.6476
1039.445, 566.0992
1039.927, 565.9987
1040.409, 564.9792
1040.891, 564.0619
1041.373, 563.5401
1041.856, 562.7595
1042.338, 560.8607
1042.820, 559.0509
1043.302, 558.7996
1043.784, 559.8854
1044.266, 560.5667
1044.748, 561.1892
1045.230, 560.7411
1045.713, 557.6422
1046.195, 555.3055
1046.677, 556.0007
1047.159, 557.4744
1047.641, 557.0048
1048.123, 554.8793
1048.605, 553.7319
1049.087, 554.5775
1049.569, 555.0577
1050.052, 554.6296
1050.534, 554.0101
1051.016, 553.3674
1051.498, 552.8098
1051.980, 552.4643
1052.462, 552.3078
1052.944, 552.1528
1053.426, 551.7555
1053.908, 551.7819
1054.391, 553.0319
1054.873, 553.9874
1055.355, 553.5629
1055.837, 552.6547
1056.319, 552.3447
1056.801, 552.5829
1057.283, 552.5859
1057.765, 552.0597
1058.248, 551.5625
1058.730, 551.1761
1059.212, 550.9564
1059.694, 551.1209
1060.176, 551.3420
1060.658, 551.2166
1061.140, 550.7855
1061.622, 550.4352
1062.104, 550.4548
1062.587, 550.0343
1063.069, 547.7557
1063.551, 546.2385
1064.033, 547.9661
1064.515, 550.6180
1064.997, 551.4930
1065.479, 550.6967
1065.961, 549.7860
1066.443, 549.1255
1066.926, 548.6640
1067.408, 548.3824
1067.890, 548.2879
1068.372, 548.5260
1068.854, 548.8479
1069.336, 549.1027
1069.818, 549.1778
1070.300, 548.7625
1070.783, 547.6097
1071.265, 546.7399
1071.747, 546.8792
1072.229, 547.1092
1072.711, 546.7985
1073.193, 546.3467
1073.675, 546.3041
1074.157, 546.5226
1074.640, 546.3737
1075.122, 545.5998
1075.604, 545.1237
1076.086, 545.5858
1076.568, 546.2103
1077.050, 546.7435
1077.532, 547.0516
1078.014, 546.9661
1078.496, 546.5591
1078.979, 545.8868
1079.461, 544.9240
1079.943, 544.4894
1080.425, 545.8818
1080.907, 546.7717
1081.389, 544.9085
1081.871, 542.7629
1082.353, 543.1052
1082.836, 544.9502
1083.318, 545.7042
1083.800, 544.7955
1084.282, 544.1126
1084.764, 544.9860
1085.246, 545.6187
1085.728, 544.6616
1086.210, 543.4980
1086.693, 543.3854
1087.175, 543.9393
1087.657, 544.3651
1088.139, 544.5078
1088.621, 544.5549
1089.103, 544.4941
1089.585, 544.4691
1090.067, 544.7982
1090.549, 544.9266
1091.031, 543.9578
1091.514, 542.7471
1091.996, 542.6637
1092.478, 543.7889
1092.960, 545.0980
1093.442, 546.5729
1093.924, 547.5733
1094.406, 548.0230
1094.888, 547.7579
1095.371, 546.2665
1095.853, 544.2675
1096.335, 542.3538
1096.817, 540.7635
1097.299, 540.1494
1097.781, 541.0962
1098.263, 541.9761
1098.745, 542.3658
1099.228, 542.4632
1099.710, 542.2791
1100.192, 541.9303
1100.674, 541.2280
1101.156, 540.4705
1101.638, 540.6903
1102.120, 542.4625
1102.602, 543.7369
1103.084, 543.9495
1103.567, 543.6491
1104.049, 542.6939
1104.531, 541.6246
1105.013, 540.8519
1105.495, 540.3202
1105.977, 539.7295
1106.459, 538.9233
1106.941, 538.8616
1107.423, 540.8384
1107.906, 541.9963
1108.388, 540.9091
1108.870, 539.4609
1109.352, 538.6922
1109.834, 538.5002
1110.316, 538.8520
1110.798, 539.8022
1111.280, 539.9836
1111.763, 538.6345
1112.245, 537.5157
1112.727, 536.7828
1113.209, 536.3945
1113.691, 536.6400
1114.173, 537.0267
1114.655, 536.7926
1115.137, 536.0126
1115.620, 535.7492
1116.102, 536.3268
1116.584, 536.8530
1117.066, 537.6326
1117.548, 537.8557
1118.030, 536.7084
1118.512, 535.4611
1118.994, 535.4065
1119.476, 536.2443
1119.958, 536.7513
1120.441, 536.7460
1120.923, 537.0189
1121.405, 537.8265
1121.887, 538.3245
1122.369, 538.1306
1122.851, 537.8883
1123.333, 538.1042
1123.815, 538.5832
1124.298, 538.9915
1124.780, 539.4059
1125.262, 538.6246
1125.744, 536.0867
1126.226, 534.4955
1126.708, 534.4592
1127.190, 534.9456
1127.672, 535.4583
1128.155, 536.0242
1128.637, 536.7500
1129.119, 537.5560
1129.601, 537.7432
1130.083, 537.2658
1130.565, 536.5258
1131.047, 535.4770
1131.529, 535.0388
1132.011, 535.6550
1132.494, 536.4890
1132.976, 536.7211
1133.458, 536.4691
1133.940, 535.9645
1134.422, 535.2471
1134.904, 534.8399
1135.386, 534.7608
1135.868, 534.8856
1136.350, 535.1750
1136.833, 535.3341
1137.315, 535.1186
1137.797, 534.9007
1138.279, 535.6616
1138.761, 536.8701
1139.243, 536.1714
1139.725, 534.1872
1140.207, 533.9462
1140.690, 535.6082
1141.172, 536.5482
1141.654, 535.5319
1142.136, 534.1730
1142.618, 534.2981
1143.100, 535.0536
1143.582, 534.8979
1144.064, 534.3167
1144.547, 534.4715
1145.029, 535.1584
1145.511, 535.2038
1145.993, 534.4046
1146.475, 534.1759
1146.957, 535.8863
1147.439, 537.4885
1147.921, 536.4642
1148.403, 534.6085
1148.885, 533.8138
1149.368, 533.9535
1149.850, 535.0675
1150.332, 536.6671
1150.814, 537.0307
1151.296, 535.1765
1151.778, 533.7098
1152.260, 534.7444
1152.742, 536.0677
1153.225, 536.1788
1153.707, 535.8001
1154.189, 535.7472
1154.671, 535.8968
1155.153, 535.7665
1155.635, 535.2576
1156.117, 534.6861
1156.599, 533.8018
1157.082, 533.3688
1157.564, 534.0195
1158.046, 534.7594
1158.528, 535.0181
1159.010, 534.9684
1159.492, 534.9128
1159.974, 534.8300
1160.456, 534.3822
1160.938, 532.9176
1161.421, 532.3016
1161.903, 533.3643
1162.385, 534.1915
1162.867, 534.0972
1163.349, 533.7751
1163.831, 533.6979
1164.313, 533.8253
1164.795, 534.1141
1165.277, 534.6313
1165.760, 534.6666
1166.242, 533.8863
1166.724, 533.8036
1167.206, 534.9717
1167.688, 535.7734
1168.170, 535.2523
1168.652, 534.3495
1169.134, 534.3531
1169.617, 534.9514
1170.099, 534.4088
1170.581, 532.6990
1171.063, 532.3088
1171.545, 533.3969
1172.027, 534.7314
1172.509, 535.9553
1172.991, 536.5402
1173.474, 536.0283
1173.956, 534.9913
1174.438, 534.2723
1174.920, 533.8715
1175.402, 533.9907
1175.884, 534.4279
1176.366, 534.3012
1176.848, 533.6642
1177.330, 533.6190
1177.813, 534.6014
1178.295, 535.4598
1178.777, 534.9291
1179.259, 535.6043
1179.741, 534.5997
1180.223, 535.5153
1180.705, 535.4002
1181.187, 534.7324
1181.669, 534.8199
1182.152, 535.7488
1182.634, 536.4930
1183.116, 536.6301
1183.598, 536.3441
1184.080, 535.4845
1184.562, 534.5314
1185.044, 533.4839
1185.526, 532.7714
1186.009, 533.1552
1186.491, 534.1282
1186.973, 534.3780
1187.455, 533.6363
1187.937, 533.1879
1188.419, 533.4149
1188.901, 533.7557
1189.383, 534.4196
1189.865, 534.8015
1190.348, 534.4373
1190.830, 533.7573
1191.312, 533.1667
1191.794, 532.6565
1192.276, 532.1237
1192.758, 531.2932
1193.240, 531.4983
1193.722, 533.3123
1194.204, 534.3907
1194.687, 534.0082
1195.169, 533.3759
1195.651, 533.2037
1196.133, 533.3961
1196.615, 533.9260
1197.097, 534.6312
1197.579, 534.2911
1198.061, 532.9925
1198.544, 532.6180
1199.026, 533.2650
1199.508, 533.5025
1199.990, 532.8778
1200.472, 532.4172
1200.954, 532.9861
1201.436, 533.9102
1201.918, 534.3802
1202.401, 534.3474
1202.883, 533.3360
1203.365, 531.8782
1203.847, 531.1973
1204.329, 531.3126
1204.811, 531.5909
1205.293, 531.7903
1205.775, 531.9608
1206.257, 532.2134
1206.740, 532.3441
1207.222, 532.2281
1207.704, 531.9036
1208.186, 531.1781
1208.668, 530.4062
1209.150, 530.1125
1209.632, 530.2779
1210.114, 530.5239
1210.596, 530.8589
1211.079, 530.9655
1211.561, 530.3021
1212.043, 530.0610
1212.525, 531.1809
1213.007, 532.1957
1213.489, 531.9479
1213.971, 531.1783
1214.453, 531.0579
1214.936, 531.5380
1215.418, 531.7382
1215.900, 531.4225
1216.382, 531.8714
1216.864, 533.5056
1217.346, 534.2315
1217.828, 533.2602
1218.310, 531.8822
1218.792, 530.9971
1219.275, 530.6242
1219.757, 530.9963
1220.239, 531.8659
1220.721, 531.9955
1221.203, 531.5061
1221.685, 530.7723
1222.167, 529.9906
1222.649, 530.0080
1223.131, 531.0104
1223.614, 531.6181
1224.096, 530.5781
1224.578, 529.3412
1225.060, 529.7916
1225.542, 530.6826
1226.024, 530.4073
1226.506, 529.5978
1226.988, 529.3989
1227.471, 529.6898
1227.953, 529.6250
1228.435, 528.9581
1228.917, 528.3248
1229.399, 527.7048
1229.881, 527.5369
1230.363, 528.4070
1230.845, 529.2596
1231.328, 529.4427
1231.810, 529.2963
1232.292, 529.0860
1232.774, 528.9152
1233.256, 529.2492
1233.738, 530.3668
1234.220, 530.7141
1234.702, 529.9489
1235.184, 529.4843
1235.667, 529.5223
1236.149, 530.2276
1236.631, 531.8517
1237.113, 533.4484
1237.595, 533.9426
1238.077, 533.4269
1238.559, 531.8026
1239.041, 529.4053
1239.523, 527.9376
1240.006, 527.3547
1240.488, 527.1151
1240.970, 527.0674
1241.452, 527.2313
1241.934, 527.6207
1242.416, 527.8596
1242.898, 527.5787
1243.380, 527.0065
1243.863, 525.9454
1244.345, 525.0817
1244.827, 525.3600
1245.309, 526.3105
1245.791, 527.2322
1246.273, 527.9421
1246.755, 528.2754
1247.237, 528.1381
1247.719, 527.8017
1248.202, 526.9343
1248.684, 526.4274
1249.166, 526.8071
1249.648, 527.3293
1250.130, 527.6790
1250.612, 527.8295
1251.094, 527.6642
1251.576, 527.2759
1252.058, 527.3537
1252.541, 527.0412
1253.023, 527.9410
1253.505, 526.8689
1253.987, 526.3517
1254.469, 526.7458
1254.951, 527.4946
1255.433, 528.3060
1255.915, 528.8058
1256.398, 528.4471
1256.880, 527.5962
1257.362, 526.5741
1257.844, 525.8175
1258.326, 526.3162
1258.808, 527.8023
1259.290, 530.0439
1259.772, 532.4943
1260.255, 533.2789
1260.737, 531.3894
1261.219, 529.8035
1261.701, 530.7327
1262.183, 531.4919
1262.665, 530.2203
1263.147, 528.8992
1263.629, 529.2800
1264.111, 530.3205
1264.594, 530.4769
1265.076, 529.8431
1265.558, 529.2186
1266.040, 528.3881
1266.522, 528.4183
1267.004, 529.6199
1267.486, 530.5705
1267.968, 530.9695
1268.450, 531.3269
1268.933, 531.9728
1269.415, 532.1688
1269.897, 530.9016
1270.379, 528.9924
1270.861, 528.5179
1271.343, 529.0112
1271.825, 529.1243
1272.307, 528.9136
1272.790, 528.6438
1273.272, 528.4466
1273.754, 528.6537
1274.236, 529.3665
1274.718, 529.8499
1275.200, 529.3851
1275.682, 528.9373
1276.164, 528.7306
1276.646, 529.1293
1277.129, 531.4301
1277.611, 533.6797
1278.093, 533.1569
1278.575, 530.7156
1279.057, 529.5378
1279.539, 529.9286
1280.021, 530.0658
1280.503, 529.5729
1280.985, 529.6428
1281.468, 530.7009
1281.950, 531.8337
1282.432, 532.7416
1282.914, 533.3215
1283.396, 533.4844
1283.878, 533.3461
1284.360, 532.9130
1284.842, 532.1769
1285.325, 531.2083
1285.807, 530.0997
##END=



