##NAMES=Nioboaeschynite-(Ce)
##RRUFFID=R110056
##IDEAL CHEMISTRY=(Ce^3+^,Ca)(Nb^5+^,Ti^4+^)_2_(O,OH)_6_
##LOCALITY=Upper Fir carbonatite, Kamloops mining division, British Columbia, Canada
##OWNER=RRUFF
##SOURCE=Don Doell
##DESCRIPTION=Black platy crystals and cleavages, massive
##STATUS=The identification of this mineral is confirmed by single-crystal X-ray diffraction and chemical analysis.
##URL=rruff.info/R110056
##MEASURED CHEMISTRY=(Ce_0.35_Ca_0.25_Nd_0.14_La_0.12_Th_0.06_Pr_0.04_Fe_0.03_Sm_0.02_Y_0.02_Gd_0.01_Sr_0.01_)_Σ=1.05_(Nb_1.13_Ti_0.86_)_Σ=1.99_O_6_
206.8294, 878.6895
207.3115, 880.8935
207.7936, 882.6162
208.2758, 884.3033
208.7579, 886.6631
209.2400, 890.4068
209.7221, 893.1986
210.2042, 894.3783
210.6863, 895.2336
211.1685, 896.6525
211.6506, 898.8017
212.1327, 901.2295
212.6148, 903.2646
213.0969, 904.3939
213.5790, 906.2350
214.0612, 909.2802
214.5433, 912.6638
215.0254, 915.8920
215.5075, 918.7841
215.9896, 921.2426
216.4717, 923.0217
216.9539, 923.5966
217.4360, 924.7907
217.9181, 926.7726
218.4002, 929.3171
218.8823, 932.2823
219.3644, 935.6290
219.8466, 939.2849
220.3287, 943.3740
220.8108, 948.1760
221.2929, 951.9215
221.7750, 953.4657
222.2571, 954.1745
222.7393, 955.8500
223.2214, 958.9557
223.7035, 962.4714
224.1856, 964.8962
224.6677, 966.3093
225.1498, 968.3792
225.6320, 971.9910
226.1141, 976.4133
226.5962, 980.5042
227.0783, 984.1023
227.5604, 987.3146
228.0425, 990.0900
228.5247, 992.5211
229.0068, 995.0746
229.4889, 997.7939
229.9710, 1000.748
230.4531, 1004.290
230.9352, 1008.831
231.4174, 1013.114
231.8995, 1015.772
232.3816, 1017.353
232.8637, 1019.356
233.3458, 1022.927
233.8279, 1027.518
234.3101, 1031.272
234.7922, 1033.417
235.2743, 1035.926
235.7564, 1040.429
236.2385, 1046.054
236.7206, 1051.024
237.2028, 1053.819
237.6849, 1055.100
238.1670, 1057.868
238.6491, 1063.048
239.1312, 1068.419
239.6133, 1073.497
240.0955, 1078.085
240.5776, 1081.813
241.0597, 1084.060
241.5418, 1085.360
242.0239, 1088.395
242.5060, 1095.002
242.9882, 1100.872
243.4703, 1103.983
243.9524, 1105.789
244.4345, 1108.533
244.9166, 1113.656
245.3987, 1120.527
245.8809, 1126.048
246.3630, 1129.121
246.8451, 1132.138
247.3272, 1135.366
247.8093, 1138.891
248.2914, 1142.781
248.7736, 1147.087
249.2557, 1151.759
249.7378, 1156.568
250.2199, 1162.102
250.7020, 1167.026
251.1841, 1171.050
251.6663, 1174.412
252.1484, 1177.074
252.6305, 1179.010
253.1126, 1180.771
253.5947, 1184.203
254.0768, 1192.006
254.5590, 1198.231
255.0411, 1201.380
255.5232, 1203.238
256.0053, 1205.709
256.4874, 1209.594
256.9695, 1214.546
257.4517, 1219.719
257.9338, 1226.141
258.4159, 1231.509
258.8980, 1234.832
259.3801, 1237.523
259.8622, 1241.077
260.3444, 1246.005
260.8265, 1251.827
261.3086, 1257.687
261.7907, 1264.425
262.2728, 1269.761
262.7549, 1272.092
263.2371, 1273.788
263.7192, 1277.408
264.2013, 1283.606
264.6834, 1290.825
265.1655, 1296.788
265.6476, 1300.880
266.1298, 1305.012
266.6119, 1309.689
267.0940, 1314.195
267.5761, 1317.670
268.0582, 1320.002
268.5403, 1321.957
269.0225, 1324.330
269.5046, 1327.137
269.9867, 1330.678
270.4688, 1335.534
270.9509, 1340.770
271.4330, 1345.772
271.9152, 1350.422
272.3973, 1354.570
272.8794, 1357.941
273.3615, 1360.464
273.8436, 1363.049
274.3257, 1365.241
274.8079, 1367.836
275.2900, 1371.847
275.7721, 1377.209
276.2542, 1382.275
276.7363, 1385.652
277.2184, 1387.510
277.7006, 1390.150
278.1827, 1394.351
278.6648, 1398.693
279.1469, 1402.152
279.6290, 1404.782
280.1111, 1407.198
280.5933, 1409.694
281.0754, 1412.264
281.5575, 1414.889
282.0396, 1417.748
282.5217, 1420.448
283.0038, 1422.568
283.4860, 1424.241
283.9681, 1426.277
284.4502, 1429.335
284.9323, 1432.716
285.4144, 1434.891
285.8965, 1435.321
286.3787, 1435.919
286.8608, 1437.842
287.3429, 1440.819
287.8250, 1444.052
288.3071, 1447.659
288.7892, 1450.850
289.2714, 1452.414
289.7535, 1452.216
290.2356, 1451.822
290.7177, 1451.370
291.1998, 1451.246
291.6819, 1452.743
292.1641, 1456.707
292.6462, 1461.266
293.1283, 1464.574
293.6104, 1466.748
294.0925, 1468.054
294.5746, 1467.816
295.0568, 1466.900
295.5389, 1467.214
296.0210, 1469.307
296.5031, 1471.639
296.9852, 1472.494
297.4673, 1472.449
297.9495, 1473.172
298.4316, 1475.922
298.9137, 1479.466
299.3958, 1482.021
299.8779, 1483.490
300.3600, 1484.238
300.8422, 1483.623
301.3243, 1482.561
301.8064, 1482.787
302.2885, 1485.604
302.7706, 1488.969
303.2527, 1490.250
303.7349, 1489.283
304.2170, 1488.628
304.6991, 1489.619
305.1812, 1491.595
305.6633, 1493.680
306.1454, 1495.788
306.6276, 1497.955
307.1097, 1500.180
307.5918, 1502.465
308.0739, 1504.902
308.5560, 1507.375
309.0381, 1510.155
309.5203, 1513.683
310.0024, 1518.085
310.4845, 1522.174
310.9666, 1524.651
311.4487, 1525.945
311.9308, 1528.331
312.4130, 1532.896
312.8951, 1537.680
313.3772, 1540.201
313.8593, 1540.911
314.3414, 1542.860
314.8235, 1548.662
315.3057, 1556.781
315.7878, 1563.198
316.2699, 1567.087
316.7520, 1570.401
317.2341, 1574.315
317.7162, 1578.720
318.1984, 1583.518
318.6805, 1589.034
319.1626, 1594.749
319.6447, 1599.776
320.1268, 1604.003
320.6089, 1608.112
321.0911, 1611.783
321.5732, 1615.833
322.0553, 1621.723
322.5374, 1630.708
323.0195, 1640.080
323.5016, 1646.787
323.9838, 1650.853
324.4659, 1654.707
324.9480, 1658.731
325.4301, 1663.421
325.9122, 1669.315
326.3943, 1676.622
326.8765, 1684.439
327.3586, 1692.263
327.8407, 1700.115
328.3228, 1707.993
328.8049, 1716.038
329.2870, 1723.882
329.7692, 1730.822
330.2513, 1736.949
330.7334, 1743.697
331.2155, 1752.047
331.6976, 1761.460
332.1797, 1770.819
332.6619, 1780.148
333.1440, 1789.018
333.6261, 1796.661
334.1082, 1803.527
334.5903, 1810.758
335.0724, 1818.600
335.5546, 1826.969
336.0367, 1835.952
336.5188, 1845.582
337.0009, 1855.121
337.4830, 1864.542
337.9651, 1873.426
338.4473, 1880.794
338.9294, 1885.502
339.4115, 1890.326
339.8936, 1897.765
340.3757, 1907.520
340.8578, 1917.098
341.3400, 1925.663
341.8221, 1933.571
342.3042, 1941.471
342.7863, 1949.435
343.2684, 1957.180
343.7505, 1964.253
344.2327, 1971.018
344.7148, 1978.581
345.1969, 1987.505
345.6790, 1996.363
346.1611, 2003.169
346.6432, 2008.258
347.1254, 2013.480
347.6075, 2019.257
348.0896, 2025.442
348.5717, 2032.260
349.0538, 2039.825
349.5359, 2046.216
350.0181, 2049.300
350.5002, 2049.923
350.9823, 2052.166
351.4644, 2057.755
351.9465, 2063.716
352.4286, 2067.962
352.9108, 2070.778
353.3929, 2073.652
353.8750, 2077.361
354.3571, 2081.480
354.8392, 2085.009
355.3214, 2087.997
355.8035, 2090.431
356.2856, 2091.990
356.7677, 2093.036
357.2498, 2094.217
357.7319, 2095.728
358.2141, 2097.356
358.6962, 2098.847
359.1783, 2100.194
359.6604, 2101.464
360.1425, 2103.490
360.6246, 2104.948
361.1068, 2104.327
361.5889, 2101.585
362.0710, 2098.125
362.5531, 2095.018
363.0352, 2092.263
363.5173, 2089.530
363.9995, 2086.751
364.4816, 2084.047
364.9637, 2081.476
365.4458, 2079.028
365.9279, 2076.665
366.4100, 2074.362
366.8922, 2072.136
367.3743, 2070.084
367.8564, 2067.979
368.3385, 2066.325
368.8206, 2065.853
369.3027, 2065.571
369.7849, 2064.569
370.2670, 2062.552
370.7491, 2059.244
371.2312, 2054.029
371.7133, 2045.765
372.1954, 2039.219
372.6776, 2035.292
373.1597, 2032.204
373.6418, 2029.277
374.1239, 2026.243
374.6060, 2022.560
375.0881, 2017.495
375.5703, 2011.187
376.0524, 2007.566
376.5345, 2010.319
377.0166, 2011.482
377.4987, 2008.677
377.9808, 2003.318
378.4630, 1997.179
378.9451, 1991.062
379.4272, 1985.438
379.9093, 1981.503
380.3914, 1980.401
380.8735, 1979.154
381.3557, 1977.713
381.8378, 1976.055
382.3199, 1974.204
382.8020, 1972.127
383.2841, 1969.695
383.7662, 1966.625
384.2484, 1962.702
384.7305, 1959.526
385.2126, 1958.176
385.6947, 1956.515
386.1768, 1952.906
386.6589, 1948.514
387.1411, 1945.797
387.6232, 1946.482
388.1053, 1949.502
388.5874, 1951.000
389.0695, 1950.239
389.5516, 1949.282
390.0338, 1948.249
390.5159, 1947.459
390.9980, 1947.571
391.4801, 1948.741
391.9622, 1949.650
392.4443, 1947.958
392.9265, 1943.168
393.4086, 1940.704
393.8907, 1942.938
394.3728, 1946.193
394.8549, 1948.611
395.3370, 1950.217
395.8192, 1951.532
396.3013, 1952.693
396.7834, 1953.828
397.2655, 1955.551
397.7476, 1958.340
398.2297, 1960.458
398.7119, 1959.949
399.1940, 1958.532
399.6761, 1958.468
400.1582, 1960.557
400.6403, 1963.604
401.1224, 1966.525
401.6046, 1969.347
402.0867, 1972.239
402.5688, 1975.201
403.0509, 1978.315
403.5330, 1981.964
404.0151, 1986.189
404.4973, 1989.533
404.9794, 1990.321
405.4615, 1990.105
405.9436, 1991.784
406.4257, 1995.838
406.9078, 2000.508
407.3900, 2004.496
407.8721, 2007.890
408.3542, 2011.290
408.8363, 2014.970
409.3184, 2018.462
409.8005, 2020.840
410.2827, 2022.632
410.7648, 2025.734
411.2469, 2031.163
411.7290, 2037.997
412.2111, 2044.265
412.6932, 2050.146
413.1754, 2055.146
413.6575, 2058.070
414.1396, 2060.643
414.6217, 2065.218
415.1038, 2071.982
415.5859, 2078.490
416.0681, 2082.060
416.5502, 2082.239
417.0323, 2084.486
417.5144, 2089.738
417.9965, 2095.687
418.4786, 2101.422
418.9608, 2107.158
419.4429, 2113.898
419.9250, 2122.262
420.4071, 2131.021
420.8892, 2136.634
421.3713, 2135.806
421.8535, 2136.719
422.3356, 2140.060
422.8177, 2144.794
423.2998, 2150.694
423.7819, 2157.401
424.2640, 2163.799
424.7462, 2168.484
425.2283, 2171.265
425.7104, 2175.457
426.1925, 2182.911
426.6746, 2189.805
427.1567, 2194.729
427.6389, 2198.460
428.1210, 2202.229
428.6031, 2206.644
429.0852, 2211.334
429.5673, 2215.454
430.0494, 2218.798
430.5316, 2222.354
431.0137, 2225.185
431.4958, 2229.155
431.9779, 2236.598
432.4600, 2247.252
432.9421, 2257.053
433.4243, 2261.997
433.9064, 2263.327
434.3885, 2266.571
434.8706, 2272.496
435.3527, 2279.187
435.8348, 2285.725
436.3170, 2292.155
436.7991, 2298.615
437.2812, 2305.123
437.7633, 2311.640
438.2454, 2318.543
438.7275, 2325.647
439.2097, 2331.163
439.6918, 2333.551
440.1739, 2335.417
440.6560, 2341.336
441.1381, 2351.660
441.6202, 2360.653
442.1024, 2365.516
442.5845, 2368.878
443.0666, 2373.712
443.5487, 2380.266
444.0308, 2387.150
444.5129, 2393.540
444.9951, 2399.339
445.4772, 2404.031
445.9593, 2405.629
446.4414, 2408.563
446.9235, 2415.529
447.4056, 2424.290
447.8878, 2431.284
448.3699, 2435.325
448.8520, 2438.227
449.3341, 2442.854
449.8162, 2450.122
450.2983, 2456.516
450.7805, 2462.514
451.2626, 2467.348
451.7447, 2469.591
452.2268, 2470.280
452.7089, 2472.005
453.1910, 2476.559
453.6732, 2483.316
454.1553, 2489.696
454.6374, 2495.912
455.1195, 2501.309
455.6016, 2505.246
456.0837, 2508.772
456.5659, 2512.914
457.0480, 2517.814
457.5301, 2522.478
458.0122, 2525.661
458.4943, 2527.407
458.9764, 2529.688
459.4586, 2533.191
459.9407, 2536.251
460.4228, 2537.393
460.9049, 2537.644
461.3870, 2538.969
461.8691, 2542.556
462.3513, 2546.657
462.8334, 2549.504
463.3155, 2551.084
463.7976, 2550.784
464.2797, 2547.270
464.7618, 2543.145
465.2440, 2541.903
465.7261, 2543.556
466.2082, 2545.185
466.6903, 2546.357
467.1724, 2546.698
467.6545, 2545.461
468.1367, 2542.678
468.6188, 2539.514
469.1009, 2536.644
469.5830, 2534.072
470.0651, 2531.738
470.5472, 2530.321
471.0294, 2528.277
471.5115, 2525.107
471.9936, 2521.140
472.4757, 2516.722
472.9578, 2511.961
473.4399, 2506.776
473.9221, 2500.938
474.4042, 2494.151
474.8863, 2488.458
475.3684, 2484.896
475.8505, 2481.135
476.3326, 2476.678
476.8148, 2471.372
477.2969, 2464.845
477.7790, 2456.919
478.2611, 2448.404
478.7432, 2441.387
479.2253, 2436.968
479.7075, 2431.001
480.1896, 2421.035
480.6717, 2411.106
481.1538, 2403.718
481.6359, 2398.559
482.1180, 2393.477
482.6002, 2386.884
483.0823, 2379.387
483.5644, 2372.826
484.0465, 2367.703
484.5286, 2361.781
485.0107, 2353.636
485.4929, 2344.356
485.9750, 2334.876
486.4571, 2325.142
486.9392, 2316.291
487.4213, 2309.289
487.9034, 2303.621
488.3856, 2298.471
488.8677, 2293.784
489.3498, 2288.681
489.8319, 2282.292
490.3140, 2274.659
490.7961, 2267.352
491.2783, 2259.907
491.7604, 2253.209
492.2425, 2248.403
492.7246, 2244.462
493.2067, 2239.281
493.6888, 2232.144
494.1710, 2224.253
494.6531, 2217.531
495.1352, 2212.230
495.6173, 2207.433
496.0994, 2203.574
496.5815, 2199.725
497.0637, 2195.116
497.5458, 2190.200
498.0279, 2186.205
498.5100, 2183.944
498.9921, 2182.353
499.4742, 2178.375
499.9564, 2170.583
500.4385, 2164.020
500.9206, 2160.071
501.4027, 2156.958
501.8848, 2153.648
502.3669, 2150.155
502.8491, 2147.189
503.3312, 2145.434
503.8133, 2144.516
504.2954, 2143.817
504.7775, 2143.704
505.2596, 2142.021
505.7418, 2136.243
506.2239, 2129.171
506.7060, 2124.879
507.1881, 2124.071
507.6702, 2124.002
508.1523, 2123.617
508.6345, 2122.984
509.1166, 2122.233
509.5987, 2121.377
510.0808, 2120.304
510.5629, 2118.828
511.0450, 2117.012
511.5272, 2115.551
512.0093, 2114.434
512.4914, 2113.608
512.9735, 2113.048
513.4556, 2112.761
513.9377, 2112.911
514.4199, 2113.483
514.9020, 2114.045
515.3841, 2114.121
515.8662, 2113.779
516.3483, 2112.529
516.8304, 2108.930
517.3126, 2105.960
517.7947, 2104.517
518.2768, 2104.226
518.7589, 2104.518
519.2410, 2105.177
519.7231, 2106.220
520.2053, 2108.260
520.6874, 2111.502
521.1695, 2112.292
521.6516, 2108.001
522.1337, 2103.905
522.6158, 2104.170
523.0980, 2107.479
523.5801, 2110.031
524.0622, 2109.657
524.5443, 2108.780
525.0264, 2110.233
525.5085, 2113.634
525.9907, 2116.714
526.4728, 2118.827
526.9549, 2120.024
527.4370, 2120.136
527.9191, 2118.969
528.4012, 2118.134
528.8834, 2117.911
529.3655, 2117.979
529.8476, 2118.519
530.3297, 2119.183
530.8118, 2118.893
531.2939, 2116.977
531.7761, 2114.315
532.2582, 2113.171
532.7403, 2114.095
533.2224, 2115.566
533.7045, 2119.319
534.1866, 2121.969
534.6688, 2120.241
535.1509, 2115.458
535.6330, 2111.952
536.1151, 2112.878
536.5972, 2116.555
537.0793, 2118.686
537.5615, 2119.213
538.0436, 2118.370
538.5257, 2114.689
539.0078, 2110.873
539.4899, 2109.783
539.9720, 2111.334
540.4542, 2112.219
540.9363, 2110.676
541.4184, 2107.623
541.9005, 2103.901
542.3826, 2099.634
542.8647, 2096.144
543.3469, 2094.430
543.8290, 2093.579
544.3111, 2091.004
544.7932, 2085.490
545.2753, 2081.341
545.7574, 2080.520
546.2396, 2080.286
546.7217, 2077.715
547.2038, 2073.213
547.6859, 2069.809
548.1680, 2069.849
548.6501, 2072.227
549.1323, 2071.944
549.6144, 2067.225
550.0965, 2062.848
550.5786, 2058.987
551.0607, 2055.862
551.5428, 2053.888
552.0250, 2052.924
552.5071, 2052.271
552.9892, 2051.951
553.4713, 2051.392
553.9534, 2048.547
554.4355, 2042.936
554.9177, 2037.445
555.3998, 2033.187
555.8819, 2029.656
556.3640, 2026.051
556.8461, 2022.313
557.3282, 2018.927
557.8104, 2015.984
558.2925, 2013.523
558.7746, 2012.169
559.2567, 2011.653
559.7388, 2010.038
560.2209, 2005.973
560.7031, 2000.244
561.1852, 1995.354
561.6673, 1991.589
562.1494, 1988.260
562.6315, 1985.641
563.1136, 1983.240
563.5958, 1980.919
564.0779, 1978.499
564.5600, 1975.617
565.0421, 1971.905
565.5242, 1967.714
566.0063, 1964.269
566.4885, 1961.839
566.9706, 1959.406
567.4527, 1956.812
567.9348, 1954.081
568.4169, 1951.356
568.8990, 1948.585
569.3812, 1945.301
569.8633, 1941.130
570.3454, 1936.412
570.8275, 1931.136
571.3096, 1925.446
571.7917, 1921.297
572.2739, 1919.966
572.7560, 1919.829
573.2381, 1917.911
573.7202, 1913.784
574.2023, 1909.718
574.6844, 1906.021
575.1666, 1902.353
575.6487, 1897.993
576.1308, 1893.462
576.6129, 1890.094
577.0950, 1888.582
577.5771, 1888.416
578.0593, 1888.829
578.5414, 1890.941
579.0235, 1890.529
579.5056, 1884.245
579.9877, 1878.287
580.4698, 1876.017
580.9520, 1876.235
581.4341, 1875.841
581.9162, 1873.397
582.3983, 1869.855
582.8804, 1865.868
583.3625, 1861.597
583.8447, 1859.134
584.3268, 1859.388
584.8089, 1860.642
585.2910, 1861.786
585.7731, 1862.677
586.2552, 1861.627
586.7374, 1856.350
587.2195, 1851.353
587.7016, 1849.721
588.1837, 1849.785
588.6658, 1848.351
589.1479, 1844.523
589.6301, 1840.169
590.1122, 1837.567
590.5943, 1836.878
591.0764, 1836.423
591.5585, 1837.033
592.0406, 1836.855
592.5228, 1834.322
593.0049, 1831.295
593.4870, 1830.309
593.9691, 1831.948
594.4512, 1833.808
594.9333, 1833.439
595.4155, 1831.328
595.8976, 1829.735
596.3797, 1828.977
596.8618, 1827.803
597.3439, 1824.825
597.8260, 1821.225
598.3082, 1819.931
598.7903, 1821.971
599.2724, 1823.724
599.7545, 1823.840
600.2366, 1823.219
600.7188, 1822.796
601.2009, 1822.625
601.6830, 1822.219
602.1651, 1821.178
602.6472, 1819.810
603.1293, 1819.265
603.6115, 1819.781
604.0936, 1820.718
604.5757, 1823.071
605.0578, 1824.873
605.5399, 1824.173
606.0220, 1821.759
606.5042, 1820.333
606.9863, 1821.751
607.4684, 1824.419
607.9505, 1825.629
608.4326, 1825.430
608.9147, 1825.920
609.3969, 1828.230
609.8790, 1830.314
610.3611, 1829.087
610.8432, 1824.942
611.3253, 1823.079
611.8074, 1825.577
612.2896, 1828.883
612.7717, 1831.507
613.2538, 1833.564
613.7359, 1835.234
614.2180, 1836.605
614.7001, 1837.941
615.1823, 1839.570
615.6644, 1841.500
616.1465, 1843.466
616.6286, 1846.017
617.1107, 1847.779
617.5928, 1847.843
618.0750, 1847.319
618.5571, 1847.153
619.0392, 1847.564
619.5213, 1848.723
620.0034, 1851.027
620.4855, 1854.111
620.9677, 1857.348
621.4498, 1860.726
621.9319, 1863.659
622.4140, 1865.638
622.8961, 1867.245
623.3782, 1869.978
623.8604, 1874.657
624.3425, 1877.769
624.8246, 1877.082
625.3067, 1876.316
625.7888, 1878.340
626.2709, 1882.351
626.7531, 1885.847
627.2352, 1887.559
627.7173, 1888.772
628.1994, 1892.238
628.6815, 1898.737
629.1636, 1903.057
629.6458, 1903.261
630.1279, 1903.328
630.6100, 1905.273
631.0921, 1908.434
631.5742, 1911.651
632.0563, 1914.604
632.5385, 1917.676
633.0206, 1921.141
633.5027, 1924.919
633.9848, 1929.157
634.4669, 1933.843
634.9490, 1937.871
635.4312, 1940.336
635.9133, 1941.588
636.3954, 1943.290
636.8775, 1945.945
637.3596, 1948.387
637.8417, 1950.025
638.3239, 1951.883
638.8060, 1955.100
639.2881, 1959.251
639.7702, 1962.784
640.2523, 1964.614
640.7344, 1965.698
641.2166, 1968.172
641.6987, 1972.152
642.1808, 1974.736
642.6629, 1974.537
643.1450, 1974.147
643.6271, 1976.134
644.1093, 1979.920
644.5914, 1983.503
645.0735, 1986.735
645.5556, 1989.556
646.0377, 1991.990
646.5198, 1993.978
647.0020, 1995.002
647.4841, 1995.183
647.9662, 1995.975
648.4483, 1998.860
648.9304, 2003.399
649.4125, 2006.462
649.8947, 2006.916
650.3768, 2007.984
650.8589, 2010.994
651.3410, 2014.146
651.8231, 2016.437
652.3052, 2017.732
652.7874, 2018.014
653.2695, 2016.627
653.7516, 2014.835
654.2337, 2014.002
654.7158, 2014.093
655.1979, 2015.219
655.6801, 2017.583
656.1622, 2019.974
656.6443, 2021.049
657.1264, 2020.740
657.6085, 2020.377
658.0906, 2019.921
658.5728, 2019.479
659.0549, 2019.833
659.5370, 2019.767
660.0191, 2017.531
660.5012, 2013.221
660.9833, 2008.977
661.4655, 2006.389
661.9476, 2005.279
662.4297, 2005.581
662.9118, 2007.575
663.3939, 2008.877
663.8760, 2009.035
664.3582, 2007.856
664.8403, 2004.008
665.3224, 1997.794
665.8045, 1994.104
666.2866, 1995.718
666.7687, 1997.938
667.2509, 1998.948
667.7330, 1998.556
668.2151, 1996.268
668.6972, 1992.103
669.1793, 1987.209
669.6614, 1982.550
670.1436, 1978.187
670.6257, 1975.133
671.1078, 1974.497
671.5899, 1972.862
672.0720, 1968.113
672.5541, 1962.778
673.0363, 1958.756
673.5184, 1956.097
674.0005, 1953.816
674.4826, 1952.199
674.9647, 1950.161
675.4468, 1946.255
675.9290, 1940.998
676.4111, 1935.956
676.8932, 1931.623
677.3753, 1927.518
677.8574, 1923.017
678.3395, 1918.071
678.8217, 1914.122
679.3038, 1913.119
679.7859, 1910.602
680.2680, 1904.921
680.7501, 1898.084
681.2322, 1891.556
681.7144, 1885.696
682.1965, 1880.563
682.6786, 1876.539
683.1607, 1873.101
683.6428, 1869.782
684.1249, 1866.451
684.6071, 1861.547
685.0892, 1853.920
685.5713, 1847.150
686.0534, 1846.327
686.5355, 1852.095
687.0176, 1851.681
687.4998, 1840.064
687.9819, 1829.181
688.4640, 1822.408
688.9461, 1817.560
689.4282, 1812.606
689.9103, 1807.121
690.3925, 1801.331
690.8746, 1795.244
691.3567, 1789.183
691.8388, 1784.308
692.3209, 1780.713
692.8030, 1776.069
693.2852, 1769.520
693.7673, 1762.194
694.2494, 1754.863
694.7315, 1747.591
695.2136, 1741.331
695.6957, 1736.618
696.1779, 1732.284
696.6600, 1728.482
697.1421, 1724.525
697.6242, 1719.477
698.1063, 1713.382
698.5884, 1707.171
699.0706, 1701.603
699.5527, 1696.340
700.0348, 1689.962
700.5169, 1682.023
700.9990, 1676.029
701.4811, 1673.590
701.9633, 1671.935
702.4454, 1668.776
702.9275, 1664.470
703.4096, 1660.073
703.8917, 1656.007
704.3738, 1651.479
704.8560, 1645.938
705.3381, 1639.837
705.8202, 1633.518
706.3023, 1627.122
706.7844, 1620.707
707.2665, 1614.252
707.7487, 1608.080
708.2308, 1603.494
708.7129, 1601.000
709.1950, 1597.711
709.6771, 1593.034
710.1592, 1587.839
710.6414, 1582.664
711.1235, 1577.424
711.6056, 1571.852
712.0877, 1565.614
712.5698, 1559.745
713.0519, 1555.301
713.5341, 1551.225
714.0162, 1545.612
714.4983, 1538.963
714.9804, 1534.287
715.4625, 1533.499
715.9446, 1534.048
716.4268, 1529.896
716.9089, 1519.358
717.3910, 1511.693
717.8731, 1508.480
718.3552, 1506.317
718.8373, 1504.201
719.3195, 1501.838
719.8016, 1498.764
720.2837, 1494.843
720.7658, 1490.546
721.2479, 1486.010
721.7300, 1481.278
722.2122, 1476.249
722.6943, 1471.037
723.1764, 1465.916
723.6585, 1461.000
724.1406, 1456.407
724.6227, 1452.418
725.1049, 1449.092
725.5870, 1445.536
726.0691, 1441.241
726.5512, 1437.578
727.0333, 1436.063
727.5154, 1434.743
727.9976, 1431.334
728.4797, 1425.708
728.9618, 1420.503
729.4439, 1416.945
729.9260, 1414.190
730.4081, 1412.082
730.8903, 1410.117
731.3724, 1406.897
731.8545, 1402.097
732.3366, 1397.248
732.8187, 1394.081
733.3008, 1392.391
733.7830, 1389.468
734.2651, 1384.400
734.7472, 1380.089
735.2293, 1378.155
735.7114, 1376.400
736.1935, 1373.041
736.6757, 1368.427
737.1578, 1364.303
737.6399, 1361.695
738.1220, 1359.075
738.6041, 1355.176
739.0862, 1350.709
739.5684, 1346.674
740.0505, 1343.297
740.5326, 1340.695
741.0147, 1339.060
741.4968, 1337.957
741.9789, 1336.097
742.4611, 1333.438
742.9432, 1330.102
743.4253, 1325.189
743.9074, 1320.773
744.3895, 1318.268
744.8716, 1316.968
745.3538, 1315.700
745.8359, 1314.481
746.3180, 1312.651
746.8001, 1309.053
747.2822, 1305.344
747.7643, 1303.925
748.2465, 1304.008
748.7286, 1302.368
749.2107, 1297.544
749.6928, 1291.993
750.1749, 1289.730
750.6570, 1290.978
751.1392, 1290.689
751.6213, 1288.307
752.1034, 1285.606
752.5855, 1282.519
753.0676, 1280.004
753.5497, 1279.777
754.0319, 1281.942
754.5140, 1282.678
754.9961, 1280.315
755.4782, 1277.050
755.9603, 1273.878
756.4424, 1270.805
756.9246, 1267.595
757.4067, 1264.277
757.8888, 1261.351
758.3709, 1259.248
758.8530, 1257.809
759.3351, 1256.354
759.8173, 1254.757
760.2994, 1254.433
760.7815, 1256.520
761.2636, 1258.480
761.7457, 1258.336
762.2278, 1256.224
762.7100, 1253.007
763.1921, 1247.396
763.6742, 1242.741
764.1563, 1240.188
764.6384, 1238.610
765.1205, 1237.336
765.6027, 1236.205
766.0848, 1235.123
766.5669, 1234.039
767.0490, 1233.063
767.5311, 1232.584
768.0132, 1232.407
768.4954, 1231.455
768.9775, 1229.633
769.4596, 1227.111
769.9417, 1223.638
770.4238, 1219.953
770.9059, 1217.302
771.3881, 1215.794
771.8702, 1215.034
772.3523, 1215.699
772.8344, 1216.267
773.3165, 1216.395
773.7986, 1216.042
774.2808, 1215.058
774.7629, 1213.512
775.2450, 1211.852
775.7271, 1210.318
776.2092, 1208.904
776.6913, 1207.820
777.1735, 1206.894
777.6556, 1205.195
778.1377, 1202.467
778.6198, 1199.932
779.1019, 1198.644
779.5840, 1198.418
780.0662, 1198.431
780.5483, 1199.696
781.0304, 1199.240
781.5125, 1194.774
781.9946, 1190.716
782.4767, 1189.765
782.9589, 1190.615
783.4410, 1190.693
783.9231, 1189.292
784.4052, 1187.502
784.8873, 1185.785
785.3694, 1184.168
785.8516, 1182.664
786.3337, 1181.303
786.8158, 1180.427
787.2979, 1180.154
787.7800, 1179.410
788.2621, 1176.411
788.7443, 1171.299
789.2264, 1168.295
789.7085, 1168.433
790.1906, 1167.773
790.6727, 1164.605
791.1548, 1160.702
791.6370, 1157.347
792.1191, 1154.640
792.6012, 1153.569
793.0833, 1156.669
793.5654, 1158.435
794.0475, 1155.882
794.5297, 1151.617
795.0118, 1147.664
795.4939, 1144.562
795.9760, 1142.882
796.4581, 1143.112
796.9402, 1143.718
797.4224, 1142.576
797.9045, 1139.765
798.3866, 1135.394
798.8687, 1129.218
799.3508, 1123.862
799.8329, 1120.600
800.3151, 1119.077
800.7972, 1119.024
801.2793, 1121.398
801.7614, 1121.421
802.2435, 1117.560
802.7256, 1113.476
803.2078, 1110.203
803.6899, 1107.253
804.1720, 1103.750
804.6541, 1099.842
805.1362, 1096.926
805.6183, 1096.669
806.1005, 1096.700
806.5826, 1094.270
807.0647, 1090.319
807.5468, 1086.765
808.0289, 1083.990
808.5110, 1082.164
808.9932, 1081.617
809.4753, 1081.390
809.9574, 1078.698
810.4395, 1072.874
810.9216, 1067.414
811.4037, 1061.977
811.8859, 1057.806
812.3680, 1056.827
812.8501, 1056.897
813.3322, 1054.600
813.8143, 1049.348
814.2964, 1045.090
814.7786, 1043.507
815.2607, 1042.313
815.7428, 1040.123
816.2249, 1037.517
816.7070, 1035.949
817.1891, 1035.286
817.6713, 1033.071
818.1534, 1026.562
818.6355, 1018.704
819.1176, 1015.856
819.5997, 1017.321
820.0818, 1017.862
820.5640, 1016.629
821.0461, 1013.562
821.5282, 1008.002
822.0103, 1001.246
822.4924, 997.4011
822.9745, 998.2510
823.4567, 997.9750
823.9388, 996.5251
824.4209, 994.0203
824.9030, 989.8184
825.3851, 984.9294
825.8672, 980.5162
826.3494, 976.7504
826.8315, 973.5321
827.3136, 971.5397
827.7957, 969.4010
828.2778, 965.5880
828.7599, 960.9383
829.2421, 956.7500
829.7242, 953.4070
830.2063, 951.2684
830.6884, 950.8441
831.1705, 951.1082
831.6526, 949.2868
832.1348, 945.3079
832.6169, 941.6198
833.0990, 938.4773
833.5811, 935.7577
834.0632, 933.6868
834.5453, 931.7386
835.0275, 928.5433
835.5096, 923.2458
835.9917, 919.3068
836.4738, 917.6192
836.9559, 916.2338
837.4380, 915.2030
837.9202, 913.6174
838.4023, 909.8497
838.8844, 904.1834
839.3665, 899.5609
839.8486, 898.3806
840.3307, 897.8961
840.8129, 895.1929
841.2950, 891.1957
841.7771, 887.6248
842.2592, 884.7683
842.7413, 882.3467
843.2234, 880.2318
843.7056, 878.3158
844.1877, 876.4039
844.6698, 874.5084
845.1519, 872.6749
845.6340, 871.1975
846.1161, 868.8976
846.5983, 864.7283
847.0804, 859.9780
847.5625, 856.4473
848.0446, 854.1826
848.5267, 852.0481
849.0089, 849.8793
849.4910, 847.9858
849.9731, 846.9832
850.4552, 845.8737
850.9373, 843.5771
851.4194, 840.3432
851.9016, 837.1718
852.3837, 834.3858
852.8658, 832.1370
853.3479, 831.0830
853.8300, 830.3995
854.3121, 828.4095
854.7943, 825.2942
855.2764, 822.5988
855.7585, 821.0095
856.2406, 819.4687
856.7227, 816.4099
857.2048, 812.0216
857.6870, 808.6266
858.1691, 806.4083
858.6512, 804.5506
859.1333, 803.0138
859.6154, 801.5223
860.0975, 799.8474
860.5797, 798.0035
861.0618, 796.0844
861.5439, 794.2881
862.0260, 792.1015
862.5081, 788.5801
862.9902, 785.5482
863.4724, 784.5911
863.9545, 784.6742
864.4366, 784.2497
864.9187, 782.9083
865.4008, 780.5864
865.8829, 776.1985
866.3651, 771.6451
866.8472, 769.3466
867.3293, 768.5686
867.8114, 767.4218
868.2935, 765.5352
868.7756, 763.7401
869.2578, 762.7252
869.7399, 760.9071
870.2220, 759.3344
870.7041, 758.0657
871.1862, 756.1336
871.6683, 755.0215
872.1505, 753.8104
872.6326, 752.1334
873.1147, 749.9571
873.5968, 746.9739
874.0789, 742.7579
874.5610, 740.0782
875.0432, 740.2444
875.5253, 740.1682
876.0074, 739.3636
876.4895, 737.8810
876.9716, 735.3914
877.4537, 732.2436
877.9359, 729.5443
878.4180, 727.6900
878.9001, 726.2619
879.3822, 725.3459
879.8643, 724.4651
880.3464, 723.0689
880.8286, 721.2197
881.3107, 719.0939
881.7928, 716.7977
882.2749, 714.6898
882.7570, 713.2803
883.2391, 712.3202
883.7213, 711.0085
884.2034, 709.3698
884.6855, 707.8470
885.1676, 706.5876
885.6497, 705.0958
886.1318, 702.8703
886.6140, 700.2279
887.0961, 698.2466
887.5782, 697.0544
888.0603, 696.2155
888.5424, 696.2142
889.0245, 695.8880
889.5067, 694.9083
889.9888, 693.2753
890.4709, 690.5489
890.9530, 686.7393
891.4351, 684.0560
891.9172, 683.6404
892.3994, 683.5551
892.8815, 683.2349
893.3636, 682.7081
893.8457, 682.1543
894.3278, 681.4323
894.8099, 680.1042
895.2921, 677.9482
895.7742, 675.4735
896.2563, 672.9276
896.7384, 670.5144
897.2205, 668.5219
897.7026, 667.0136
898.1848, 666.4000
898.6669, 666.7524
899.1490, 667.0863
899.6311, 666.4969
900.1132, 665.0471
900.5953, 662.7368
901.0775, 659.4329
901.5596, 656.8617
902.0417, 655.3824
902.5238, 654.2922
903.0059, 653.3242
903.4880, 652.3206
903.9702, 650.8904
904.4523, 648.8189
904.9344, 647.1808
905.4165, 646.1733
905.8986, 645.3350
906.3807, 644.9619
906.8629, 644.3873
907.3450, 642.9100
907.8271, 640.6907
908.3092, 638.4783
908.7913, 636.1573
909.2734, 634.4677
909.7556, 634.3425
910.2377, 634.4572
910.7198, 633.6317
911.2019, 632.1188
911.6840, 630.6256
912.1661, 629.3513
912.6483, 627.9075
913.1304, 625.7602
913.6125, 623.4356
914.0946, 621.8724
914.5767, 620.8690
915.0588, 619.8256
915.5410, 618.6295
916.0231, 617.3674
916.5052, 616.0851
916.9873, 614.7694
917.4694, 613.4827
917.9515, 612.2451
918.4337, 610.1862
918.9158, 607.0139
919.3979, 604.3405
919.8800, 602.8085
920.3621, 601.8262
920.8442, 600.9217
921.3264, 600.0463
921.8085, 598.7120
922.2906, 596.3365
922.7727, 594.4525
923.2548, 593.9337
923.7369, 593.0242
924.2191, 590.3043
924.7012, 586.9477
925.1833, 584.9795
925.6654, 584.7026
926.1475, 583.7865
926.6296, 580.5775
927.1118, 577.7054
927.5939, 576.8994
928.0760, 576.8333
928.5581, 576.1548
929.0402, 574.7891
929.5223, 573.2396
930.0045, 571.7304
930.4866, 570.0134
930.9687, 567.5034
931.4508, 564.8392
931.9329, 563.2639
932.4150, 562.4304
932.8972, 561.0656
933.3793, 558.8582
933.8614, 556.5042
934.3435, 554.5841
934.8256, 553.0208
935.3077, 551.6779
935.7899, 550.5455
936.2720, 549.4717
936.7541, 548.4644
937.2362, 547.3263
937.7183, 545.9597
938.2004, 544.4186
938.6826, 542.7660
939.1647, 540.9965
939.6468, 539.2321
940.1289, 537.3465
940.6110, 535.7982
941.0931, 534.8824
941.5753, 534.0797
942.0574, 533.3078
942.5395, 532.3196
943.0216, 530.3312
943.5037, 526.8031
943.9858, 523.9485
944.4680, 522.5436
944.9501, 521.1158
945.4322, 518.7506
945.9143, 516.3490
946.3964, 514.9316
946.8785, 514.4052
947.3607, 513.9518
947.8428, 513.4922
948.3249, 512.6228
948.8070, 510.5309
949.2891, 508.4377
949.7712, 507.9552
950.2534, 508.2408
950.7355, 507.3603
951.2176, 504.9259
951.6997, 502.4424
952.1818, 501.1364
952.6639, 500.2855
953.1461, 498.9648
953.6282, 497.3267
954.1103, 495.5361
954.5924, 493.7505
955.0745, 492.7608
955.5566, 492.9748
956.0388, 493.2265
956.5209, 491.7147
957.0030, 488.8698
957.4851, 487.0303
957.9672, 486.1795
958.4493, 484.7147
958.9315, 482.1622
959.4136, 479.8581
959.8957, 478.8811
960.3778, 478.6271
960.8599, 477.4350
961.3420, 474.9744
961.8242, 473.3062
962.3063, 472.6429
962.7884, 472.3163
963.2705, 472.5122
963.7526, 472.4266
964.2347, 470.9940
964.7169, 468.4704
965.1990, 466.7238
965.6811, 466.9742
966.1632, 466.1275
966.6453, 462.9090
967.1274, 460.0559
967.6096, 459.0625
968.0917, 458.8654
968.5738, 458.1159
969.0559, 456.7332
969.5380, 455.4455
970.0201, 454.2565
970.5023, 453.4041
970.9844, 453.5405
971.4665, 453.5282
971.9486, 452.1217
972.4307, 449.9413
972.9128, 448.3117
973.3950, 447.5790
973.8771, 447.1236
974.3592, 447.0469
974.8413, 446.6087
975.3234, 444.5356
975.8055, 442.0259
976.2877, 440.9860
976.7698, 441.3194
977.2519, 441.8569
977.7340, 442.0757
978.2161, 441.7251
978.6982, 439.9535
979.1804, 437.7320
979.6625, 437.2880
980.1446, 438.0559
980.6267, 437.9424
981.1088, 436.5630
981.5909, 434.9216
982.0731, 433.6774
982.5552, 432.7281
983.0373, 431.8620
983.5194, 431.1059
984.0015, 430.6927
984.4836, 430.6259
984.9658, 430.6439
985.4479, 430.6974
985.9300, 430.4893
986.4121, 429.6903
986.8942, 428.4993
987.3763, 427.6088
987.8585, 427.0150
988.3406, 426.8563
988.8227, 427.3952
989.3048, 427.4615
989.7869, 426.4656
990.2690, 424.9831
990.7512, 423.6688
991.2333, 422.5025
991.7154, 421.2339
992.1975, 419.5026
992.6796, 418.4567
993.1617, 418.7017
993.6439, 418.9096
994.1260, 418.3781
994.6081, 417.4924
995.0902, 416.7385
995.5723, 416.1136
996.0544, 415.7161
996.5366, 415.6890
997.0187, 415.6903
997.5008, 416.0693
997.9829, 416.0527
998.4650, 414.7389
998.9471, 412.8830
999.4293, 411.7945
999.9114, 411.6656
1000.393, 411.7313
1000.876, 411.8867
1001.358, 412.0621
1001.840, 412.4944
1002.322, 412.7062
1002.804, 412.0641
1003.286, 410.9028
1003.768, 410.0552
1004.250, 409.7705
1004.733, 409.4639
1005.215, 408.6364
1005.697, 407.8780
1006.179, 407.8854
1006.661, 408.0678
1007.143, 407.3943
1007.625, 406.1461
1008.107, 405.6386
1008.589, 406.4824
1009.072, 407.3093
1009.554, 406.7677
1010.036, 405.7470
1010.518, 405.4120
1011.000, 405.3800
1011.482, 404.6721
1011.964, 403.3172
1012.446, 402.2939
1012.929, 402.1553
1013.411, 402.2856
1013.893, 401.8791
1014.375, 401.2398
1014.857, 400.8969
1015.339, 400.8813
1015.821, 401.4263
1016.303, 402.4649
1016.785, 403.0910
1017.268, 402.6462
1017.750, 401.7282
1018.232, 401.3748
1018.714, 401.3914
1019.196, 400.7877
1019.678, 399.6558
1020.160, 399.1008
1020.642, 399.4229
1021.125, 400.0361
1021.607, 400.5453
1022.089, 400.7614
1022.571, 400.0996
1023.053, 398.6142
1023.535, 397.3776
1024.017, 396.4154
1024.499, 396.1010
1024.981, 396.6250
1025.464, 397.2957
1025.946, 397.4979
1026.428, 397.3424
1026.910, 397.1439
1027.392, 396.8896
1027.874, 396.6829
1028.356, 396.4830
1028.838, 396.5822
1029.321, 397.1689
1029.803, 397.8423
1030.285, 398.2474
1030.767, 398.3902
1031.249, 398.3014
1031.731, 397.9577
1032.213, 397.4355
1032.695, 396.6377
1033.177, 395.8810
1033.660, 395.1650
1034.142, 394.7258
1034.624, 394.8181
1035.106, 395.4048
1035.588, 396.3024
1036.070, 397.9181
1036.552, 398.8678
1037.034, 399.0353
1037.516, 398.6485
1037.999, 397.1424
1038.481, 395.8140
1038.963, 396.4263
1039.445, 398.6164
1039.927, 399.5439
1040.409, 398.1972
1040.891, 397.3781
1041.373, 397.3651
1041.855, 397.5464
1042.338, 398.1965
1042.820, 398.5783
1043.302, 397.4991
1043.784, 395.2638
1044.266, 394.2070
1044.748, 395.3375
1045.230, 396.0682
1045.712, 395.8454
1046.195, 395.7121
1046.677, 395.9911
1047.159, 396.6310
1047.641, 397.8545
1048.123, 399.4774
1048.605, 400.3573
1049.087, 399.9870
1049.569, 399.5760
1050.052, 398.8733
1050.534, 398.6565
1051.016, 399.9639
1051.498, 401.4619
1051.980, 401.4231
1052.462, 400.0699
1052.944, 399.2889
1053.426, 399.5128
1053.908, 400.1131
1054.391, 401.4599
1054.873, 402.5585
1055.355, 402.6453
1055.837, 402.3983
1056.319, 402.7464
1056.801, 403.5626
1057.283, 403.8216
1057.765, 402.9890
1058.248, 402.2944
1058.730, 401.6279
1059.212, 401.7278
1059.694, 403.7915
1060.176, 406.2982
1060.658, 407.5739
1061.140, 407.6245
1061.622, 407.2157
1062.104, 406.1715
1062.587, 405.7798
1063.069, 407.1007
1063.551, 408.5266
1064.033, 409.2054
1064.515, 409.4180
1064.997, 409.3202
1065.479, 409.1099
1065.961, 409.3906
1066.443, 410.6219
1066.926, 411.3003
1067.408, 409.9109
1067.890, 408.8185
1068.372, 409.7172
1068.854, 411.4747
1069.336, 412.9994
1069.818, 414.1122
1070.300, 414.8117
1070.782, 415.0206
1071.265, 415.2160
1071.747, 415.7758
1072.229, 416.1941
1072.711, 415.5626
1073.193, 415.0881
1073.675, 416.6050
1074.157, 419.3953
1074.639, 421.0739
1075.122, 420.8462
1075.604, 420.5461
1076.086, 421.0387
1076.568, 421.6724
1077.050, 421.7139
1077.532, 421.9850
1078.014, 424.1154
1078.496, 427.0557
1078.979, 427.6981
1079.461, 425.0880
1079.943, 423.4506
1080.425, 425.8842
1080.907, 428.3765
1081.389, 428.2457
1081.871, 427.5309
1082.353, 428.3463
1082.835, 430.1320
1083.318, 431.3463
1083.800, 431.6412
1084.282, 431.7191
1084.764, 431.4585
1085.246, 431.5978
1085.728, 433.1444
1086.210, 434.6613
1086.692, 434.2642
1087.175, 433.1788
1087.657, 434.0483
1088.139, 437.1731
1088.621, 439.5932
1089.103, 439.5426
1089.585, 439.3813
1090.067, 440.0202
1090.549, 441.0355
1091.031, 442.1593
1091.514, 443.4033
1091.996, 445.1371
1092.478, 447.2061
1092.960, 448.2003
1093.442, 446.6744
1093.924, 445.8314
1094.406, 447.4698
1094.888, 449.5213
1095.370, 450.6183
1095.853, 451.3409
1096.335, 452.5195
1096.817, 454.1649
1097.299, 455.7888
1097.781, 457.3002
1098.263, 458.7028
1098.745, 460.0856
1099.227, 461.2656
1099.709, 461.7115
1100.192, 462.2445
1100.674, 464.2571
1101.156, 467.1155
1101.638, 468.3603
1102.120, 466.9139
1102.602, 466.1980
1103.084, 467.1281
1103.566, 468.8174
1104.049, 471.7888
1104.531, 474.5873
1105.013, 475.6807
1105.495, 475.7178
1105.977, 476.3407
1106.459, 477.7920
1106.941, 479.5111
1107.423, 481.7527
1107.906, 483.7715
1108.388, 485.7708
1108.870, 487.0749
1109.352, 486.4164
1109.834, 485.1208
1110.316, 485.5233
1110.798, 487.8251
1111.280, 490.2958
1111.762, 493.6397
1112.245, 495.8996
1112.727, 496.2029
1113.209, 496.1208
1113.691, 495.7259
1114.173, 495.7964
1114.655, 497.6680
1115.137, 501.1602
1115.619, 503.9299
1116.102, 506.1510
1116.584, 507.2601
1117.066, 505.7466
1117.548, 505.3684
1118.030, 508.1609
1118.512, 511.8284
1118.994, 514.2963
1119.476, 515.8135
1119.958, 517.3570
1120.441, 518.8549
1120.923, 520.6341
1121.405, 522.8602
1121.887, 524.9820
1122.369, 526.7641
1122.851, 528.5862
1123.333, 530.8299
1123.815, 533.2072
1124.297, 535.0778
1124.780, 536.4090
1125.262, 537.6015
1125.744, 538.6027
1126.226, 539.5150
1126.708, 540.0483
1127.190, 541.6571
1127.672, 545.4829
1128.154, 549.9681
1128.636, 552.8587
1129.119, 554.3004
1129.601, 555.2341
1130.083, 555.5050
1130.565, 557.2016
1131.047, 560.6816
1131.529, 564.1225
1132.011, 566.7850
1132.493, 569.1282
1132.976, 571.6340
1133.458, 574.1312
1133.940, 576.0329
1134.422, 577.4074
1134.904, 579.1242
1135.386, 581.1998
1135.868, 583.1178
1136.350, 584.7473
1136.833, 586.5782
1137.315, 588.9807
1137.797, 591.7057
1138.279, 594.4574
1138.761, 597.1537
1139.243, 599.3060
1139.725, 601.1115
1140.207, 603.4426
1140.689, 606.3923
1141.172, 609.6276
1141.654, 612.9861
1142.136, 615.7386
1142.618, 616.4073
1143.100, 616.7363
1143.582, 620.2959
1144.064, 625.4884
1144.546, 628.8925
1145.029, 630.7535
1145.511, 632.9364
1145.993, 636.0058
1146.475, 639.4049
1146.957, 642.8310
1147.439, 646.2409
1147.921, 649.4998
1148.403, 652.8000
1148.885, 656.7463
1149.368, 660.6827
1149.850, 663.3411
1150.332, 664.7540
1150.814, 665.8183
1151.296, 666.6849
1151.778, 668.4982
1152.260, 672.6522
1152.742, 677.1503
1153.224, 680.6025
1153.707, 683.7667
1154.189, 687.6747
1154.671, 691.9718
1155.153, 695.6190
1155.635, 698.4158
1156.117, 701.2490
1156.599, 704.4794
1157.081, 707.6767
1157.563, 710.0265
1158.046, 713.0461
1158.528, 718.9255
1159.010, 725.2263
1159.492, 728.2027
1159.974, 728.1892
1160.456, 729.6849
1160.938, 733.6783
1161.420, 737.9508
1161.903, 743.0330
1162.385, 747.4576
1162.867, 749.9479
1163.349, 752.6849
1163.831, 757.7133
1164.313, 764.0399
1164.795, 769.2147
1165.277, 773.1588
1165.760, 776.7107
1166.242, 779.7734
1166.724, 782.6819
1167.206, 785.2624
1167.688, 788.3301
1168.170, 792.2092
1168.652, 797.1250
1169.134, 803.7077
1169.616, 811.2390
1170.099, 815.7927
1170.581, 817.3250
1171.063, 820.4148
1171.545, 825.3612
1172.027, 831.0928
1172.509, 837.3431
1172.991, 843.0815
1173.473, 847.4830
1173.956, 851.2485
1174.438, 855.6985
1174.920, 860.4791
1175.402, 864.1172
1175.884, 867.0234
1176.366, 870.6819
1176.848, 875.2659
1177.330, 880.2452
1177.813, 885.3953
1178.295, 890.6775
1178.777, 896.0775
1179.259, 901.6787
1179.741, 907.8131
1180.223, 914.0399
1180.705, 919.8580
1181.187, 925.1625
1181.669, 929.3353
1182.151, 932.6544
1182.634, 936.8290
1183.116, 942.5253
1183.598, 949.5130
1184.080, 959.2682
1184.562, 968.3641
1185.044, 974.1751
1185.526, 978.4183
1186.008, 982.0486
1186.490, 985.9266
1186.973, 991.9348
1187.455, 1000.524
1187.937, 1008.017
1188.419, 1012.540
1188.901, 1017.680
1189.383, 1024.722
1189.865, 1031.883
1190.347, 1038.642
1190.830, 1044.710
1191.312, 1049.075
1191.794, 1052.440
1192.276, 1058.544
1192.758, 1068.870
1193.240, 1076.640
1193.722, 1080.270
1194.204, 1086.417
1194.687, 1097.700
1195.169, 1108.144
1195.651, 1113.745
1196.133, 1117.082
1196.615, 1122.153
1197.097, 1128.749
1197.579, 1135.915
1198.061, 1143.634
1198.543, 1150.673
1199.026, 1156.992
1199.508, 1163.525
1199.990, 1170.555
1200.472, 1177.863
1200.954, 1185.148
1201.436, 1192.919
1201.918, 1202.791
1202.400, 1213.278
1202.883, 1221.262
1203.365, 1227.387
1203.847, 1232.429
1204.329, 1237.320
1204.811, 1244.861
1205.293, 1255.922
1205.775, 1266.245
1206.257, 1271.833
1206.740, 1277.168
1207.222, 1285.995
1207.704, 1295.558
1208.186, 1302.849
1208.668, 1309.493
1209.150, 1318.346
1209.632, 1329.279
1210.114, 1340.075
1210.596, 1350.426
1211.078, 1359.912
1211.561, 1367.460
1212.043, 1375.620
1212.525, 1386.465
1213.007, 1396.705
1213.489, 1403.068
1213.971, 1408.429
1214.453, 1417.667
1214.935, 1430.441
1215.417, 1440.354
1215.900, 1445.878
1216.382, 1454.678
1216.864, 1468.121
1217.346, 1480.268
1217.828, 1489.180
1218.310, 1496.686
1218.792, 1504.067
1219.274, 1511.736
1219.757, 1520.576
1220.239, 1530.432
1220.721, 1540.809
1221.203, 1551.668
1221.685, 1562.799
1222.167, 1574.092
1222.649, 1585.221
1223.131, 1596.073
1223.614, 1606.260
1224.096, 1615.307
1224.578, 1624.165
1225.060, 1633.537
1225.542, 1643.605
1226.024, 1655.103
1226.506, 1667.067
1226.988, 1677.515
1227.470, 1687.021
1227.953, 1698.141
1228.435, 1711.574
1228.917, 1724.436
1229.399, 1735.371
1229.881, 1745.787
1230.363, 1755.461
1230.845, 1765.646
1231.327, 1776.946
1231.810, 1789.248
1232.292, 1802.842
1232.774, 1817.355
1233.256, 1831.340
1233.738, 1844.966
1234.220, 1857.076
1234.702, 1866.594
1235.184, 1878.065
1235.667, 1892.733
1236.149, 1907.880
1236.631, 1922.292
1237.113, 1935.360
1237.595, 1946.178
1238.077, 1955.503
1238.559, 1965.313
1239.041, 1975.833
1239.523, 1989.236
1240.005, 2004.688
1240.488, 2016.589
1240.970, 2024.643
1241.452, 2034.443
1241.934, 2048.851
1242.416, 2064.947
1242.898, 2081.628
1243.380, 2096.905
1243.862, 2106.666
1244.344, 2115.837
1244.827, 2130.621
1245.309, 2148.722
1245.791, 2166.257
1246.273, 2182.445
1246.755, 2197.245
1247.237, 2210.424
1247.719, 2223.042
1248.201, 2234.314
1248.684, 2246.591
1249.166, 2261.650
1249.648, 2276.550
1250.130, 2288.565
1250.612, 2300.530
1251.094, 2316.700
1251.576, 2336.313
1252.058, 2354.549
1252.541, 2371.729
1253.023, 2384.003
1253.505, 2390.573
1253.987, 2402.069
1254.469, 2421.061
1254.951, 2441.972
1255.433, 2461.697
1255.915, 2479.921
1256.397, 2495.639
1256.880, 2510.496
1257.362, 2527.849
1257.844, 2546.557
1258.326, 2564.755
1258.808, 2582.137
1259.290, 2598.464
1259.772, 2613.872
1260.254, 2629.031
1260.737, 2643.937
1261.219, 2660.539
1261.701, 2681.802
1262.183, 2702.403
1262.665, 2718.879
1263.147, 2734.818
1263.629, 2752.154
1264.111, 2771.047
1264.594, 2792.393
1265.076, 2815.482
1265.558, 2836.415
1266.040, 2854.495
1266.522, 2872.885
1267.004, 2891.522
1267.486, 2911.024
1267.968, 2931.938
1268.450, 2951.198
1268.932, 2966.738
1269.415, 2983.724
1269.897, 3009.120
1270.379, 3038.144
1270.861, 3057.696
1271.343, 3071.984
1271.825, 3095.287
1272.307, 3124.532
1272.789, 3148.079
1273.271, 3165.544
1273.754, 3183.808
1274.236, 3205.652
1274.718, 3230.168
1275.200, 3258.514
1275.682, 3286.705
1276.164, 3313.115
1276.646, 3337.683
1277.128, 3357.975
1277.611, 3378.200
1278.093, 3403.305
1278.575, 3432.381
1279.057, 3461.568
1279.539, 3491.228
1280.021, 3517.719
1280.503, 3537.197
1280.985, 3563.110
1281.468, 3599.942
1281.950, 3635.139
1282.432, 3663.805
1282.914, 3690.451
1283.396, 3719.065
1283.878, 3748.099
1284.360, 3773.249
1284.842, 3795.617
1285.324, 3818.673
##END=



