##NAMES=Niter
##RRUFFID=R090001
##IDEAL CHEMISTRY=KN^5+^O_3_
##LOCALITY=Searcy County, Arkansas, USA
##OWNER=RRUFF
##SOURCE=James Shigley
##DESCRIPTION=Unconsolidated, granular fragments exhibiting a sandy color
##STATUS=The identification of this mineral has been confirmed by single-crystal X-ray diffraction.
##URL=rruff.info/R090001
93.78320, 3694.655
94.26532, 3737.256
94.74744, 3754.670
95.22955, 3737.215
95.71167, 3701.115
96.19379, 3648.909
96.67590, 3585.787
97.15802, 3520.833
97.64014, 3451.739
98.12225, 3381.888
98.60437, 3316.940
99.08649, 3259.344
99.56860, 3209.498
100.0507, 3165.519
100.5328, 3121.426
101.0150, 3081.887
101.4971, 3050.877
101.9792, 3028.206
102.4613, 3012.409
102.9434, 3008.585
103.4255, 3008.000
103.9077, 3005.773
104.3898, 3001.267
104.8719, 2992.172
105.3540, 2973.811
105.8361, 2944.592
106.3182, 2906.720
106.8004, 2857.315
107.2825, 2801.867
107.7646, 2745.615
108.2467, 2691.191
108.7288, 2638.736
109.2109, 2592.293
109.6931, 2552.123
110.1752, 2516.884
110.6573, 2486.671
111.1394, 2461.153
111.6215, 2439.810
112.1036, 2422.528
112.5858, 2409.733
113.0679, 2398.913
113.5500, 2389.405
114.0321, 2382.024
114.5142, 2377.684
114.9964, 2376.512
115.4785, 2377.255
115.9606, 2378.013
116.4427, 2378.724
116.9248, 2383.231
117.4069, 2393.234
117.8891, 2407.579
118.3712, 2423.987
118.8533, 2441.702
119.3354, 2462.207
119.8175, 2486.265
120.2996, 2513.771
120.7818, 2543.722
121.2639, 2576.582
121.7460, 2612.505
122.2281, 2646.902
122.7102, 2683.227
123.1923, 2714.468
123.6745, 2738.140
124.1566, 2753.339
124.6387, 2757.790
125.1208, 2747.466
125.6029, 2717.851
126.0850, 2681.117
126.5672, 2636.786
127.0493, 2588.302
127.5314, 2537.620
128.0135, 2485.395
128.4956, 2433.126
128.9777, 2383.830
129.4599, 2336.969
129.9420, 2294.733
130.4241, 2258.374
130.9062, 2226.507
131.3883, 2197.031
131.8705, 2168.610
132.3526, 2141.725
132.8347, 2118.680
133.3168, 2101.411
133.7989, 2085.005
134.2810, 2066.719
134.7632, 2047.086
135.2453, 2029.161
135.7274, 2015.562
136.2095, 2005.209
136.6916, 1993.585
137.1737, 1979.069
137.6559, 1963.991
138.1380, 1950.287
138.6201, 1937.845
139.1022, 1927.259
139.5843, 1920.610
140.0664, 1915.755
140.5486, 1909.729
141.0307, 1900.841
141.5128, 1889.970
141.9949, 1879.697
142.4770, 1869.684
142.9591, 1860.905
143.4413, 1854.257
143.9234, 1848.971
144.4055, 1843.578
144.8876, 1836.914
145.3697, 1828.980
145.8518, 1821.836
146.3340, 1815.793
146.8161, 1810.369
147.2982, 1806.107
147.7803, 1802.517
148.2624, 1798.387
148.7445, 1792.260
149.2267, 1783.281
149.7088, 1776.116
150.1909, 1771.899
150.6730, 1768.145
151.1551, 1763.603
151.6372, 1758.037
152.1194, 1751.823
152.6015, 1745.208
153.0836, 1737.594
153.5657, 1731.659
154.0478, 1728.733
154.5299, 1726.836
155.0121, 1723.998
155.4942, 1719.699
155.9763, 1714.764
156.4584, 1710.587
156.9405, 1707.346
157.4227, 1703.311
157.9048, 1697.121
158.3869, 1689.838
158.8690, 1683.762
159.3511, 1679.652
159.8332, 1676.708
160.3154, 1673.870
160.7975, 1671.126
161.2796, 1668.576
161.7617, 1666.698
162.2438, 1665.364
162.7259, 1662.959
163.2081, 1657.828
163.6902, 1652.514
164.1723, 1649.234
164.6544, 1648.155
165.1365, 1647.428
165.6186, 1644.998
166.1008, 1640.547
166.5829, 1635.870
167.0650, 1631.027
167.5471, 1626.230
168.0292, 1621.516
168.5113, 1616.927
168.9935, 1612.740
169.4756, 1609.469
169.9577, 1607.516
170.4398, 1605.789
170.9219, 1604.933
171.4040, 1603.852
171.8862, 1601.458
172.3683, 1597.382
172.8504, 1592.309
173.3325, 1587.799
173.8146, 1583.097
174.2967, 1580.141
174.7789, 1580.784
175.2610, 1582.600
175.7431, 1582.609
176.2252, 1579.406
176.7073, 1574.020
177.1894, 1569.848
177.6716, 1567.450
178.1537, 1565.381
178.6358, 1563.474
179.1179, 1561.701
179.6000, 1559.921
180.0821, 1557.999
180.5643, 1556.147
181.0464, 1555.003
181.5285, 1554.811
182.0106, 1554.805
182.4927, 1554.994
182.9749, 1555.209
183.4570, 1554.582
183.9391, 1552.287
184.4212, 1549.096
184.9033, 1546.809
185.3854, 1545.881
185.8676, 1545.145
186.3497, 1543.489
186.8318, 1540.878
187.3139, 1538.577
187.7960, 1537.454
188.2781, 1536.824
188.7603, 1536.061
189.2424, 1535.150
189.7245, 1533.831
190.2066, 1531.267
190.6887, 1526.708
191.1708, 1523.680
191.6530, 1524.871
192.1351, 1527.427
192.6172, 1529.032
193.0993, 1528.848
193.5814, 1527.420
194.0635, 1525.767
194.5457, 1523.818
195.0278, 1521.759
195.5099, 1519.369
195.9920, 1517.022
196.4741, 1515.101
196.9562, 1513.786
197.4384, 1512.936
197.9205, 1512.188
198.4026, 1511.987
198.8847, 1511.228
199.3668, 1509.254
199.8489, 1506.868
200.3311, 1504.945
200.8132, 1503.932
201.2953, 1503.669
201.7774, 1503.535
202.2595, 1504.323
202.7416, 1504.328
203.2238, 1502.851
203.7059, 1500.595
204.1880, 1498.506
204.6701, 1497.097
205.1522, 1496.225
205.6344, 1495.282
206.1165, 1494.172
206.5986, 1493.092
207.0807, 1491.746
207.5628, 1490.473
208.0449, 1490.142
208.5271, 1491.439
209.0092, 1493.669
209.4913, 1493.881
209.9734, 1490.752
210.4555, 1487.678
210.9376, 1485.925
211.4198, 1485.174
211.9019, 1484.592
212.3840, 1483.908
212.8661, 1482.996
213.3482, 1481.542
213.8303, 1479.132
214.3125, 1476.896
214.7946, 1475.664
215.2767, 1475.259
215.7588, 1474.704
216.2409, 1473.400
216.7230, 1471.824
217.2052, 1470.888
217.6873, 1470.925
218.1694, 1470.931
218.6515, 1470.182
219.1336, 1468.692
219.6157, 1466.760
220.0979, 1463.620
220.5800, 1460.696
221.0621, 1459.778
221.5442, 1461.441
222.0263, 1463.544
222.5084, 1463.938
222.9906, 1462.476
223.4727, 1460.895
223.9548, 1459.392
224.4369, 1458.185
224.9190, 1457.576
225.4011, 1457.639
225.8833, 1457.884
226.3654, 1457.650
226.8475, 1456.776
227.3296, 1456.186
227.8117, 1456.403
228.2938, 1456.745
228.7760, 1456.747
229.2581, 1456.322
229.7402, 1455.807
230.2223, 1455.862
230.7044, 1457.012
231.1866, 1457.004
231.6687, 1454.773
232.1508, 1452.001
232.6329, 1449.551
233.1150, 1447.639
233.5971, 1446.153
234.0793, 1444.980
234.5614, 1444.271
235.0435, 1443.536
235.5256, 1442.514
236.0077, 1441.646
236.4898, 1441.531
236.9720, 1442.111
237.4541, 1442.514
237.9362, 1441.179
238.4183, 1435.973
238.9004, 1434.507
239.3825, 1440.500
239.8647, 1446.765
240.3468, 1448.314
240.8289, 1444.709
241.3110, 1439.246
241.7931, 1436.032
242.2752, 1436.383
242.7574, 1435.236
243.2395, 1430.639
243.7216, 1426.215
244.2037, 1424.669
244.6858, 1426.101
245.1679, 1428.371
245.6501, 1429.096
246.1322, 1427.765
246.6143, 1426.802
247.0964, 1426.234
247.5785, 1425.967
248.0606, 1426.054
248.5428, 1426.448
249.0249, 1426.947
249.5070, 1427.497
249.9891, 1428.185
250.4712, 1427.648
250.9533, 1424.664
251.4355, 1421.490
251.9176, 1419.574
252.3997, 1418.989
252.8818, 1419.127
253.3639, 1419.785
253.8460, 1420.902
254.3282, 1420.733
254.8103, 1417.697
255.2924, 1414.654
255.7745, 1414.143
256.2566, 1415.952
256.7387, 1417.274
257.2209, 1415.854
257.7030, 1412.095
258.1851, 1409.440
258.6672, 1408.712
259.1493, 1408.418
259.6314, 1407.436
260.1136, 1405.847
260.5957, 1404.453
261.0778, 1403.366
261.5599, 1403.049
262.0420, 1404.453
262.5241, 1409.549
263.0063, 1414.042
263.4884, 1414.384
263.9705, 1410.992
264.4526, 1407.501
264.9347, 1405.537
265.4168, 1404.573
265.8990, 1403.611
266.3811, 1402.966
266.8632, 1401.604
267.3453, 1397.742
267.8275, 1391.888
268.3096, 1388.219
268.7917, 1389.576
269.2738, 1392.745
269.7559, 1392.973
270.2380, 1389.585
270.7202, 1386.612
271.2023, 1388.170
271.6844, 1393.324
272.1665, 1395.389
272.6486, 1391.128
273.1307, 1384.718
273.6129, 1380.187
274.0950, 1377.521
274.5771, 1375.901
275.0592, 1374.797
275.5413, 1374.260
276.0234, 1374.790
276.5056, 1377.361
276.9877, 1379.806
277.4698, 1380.226
277.9519, 1378.970
278.4340, 1377.820
278.9161, 1378.187
279.3983, 1379.639
279.8804, 1380.316
280.3625, 1380.272
280.8446, 1379.058
281.3267, 1375.336
281.8088, 1370.327
282.2910, 1366.939
282.7731, 1367.423
283.2552, 1370.707
283.7373, 1373.552
284.2194, 1376.632
284.7015, 1377.825
285.1837, 1374.497
285.6658, 1369.217
286.1479, 1366.016
286.6300, 1367.452
287.1121, 1371.359
287.5942, 1372.729
288.0764, 1370.594
288.5585, 1368.123
289.0406, 1365.925
289.5227, 1364.245
290.0048, 1363.545
290.4869, 1364.114
290.9691, 1365.258
291.4512, 1365.762
291.9333, 1365.417
292.4154, 1365.119
292.8975, 1365.765
293.3796, 1366.188
293.8618, 1365.183
294.3439, 1362.452
294.8260, 1359.319
295.3081, 1357.677
295.7902, 1357.958
296.2723, 1357.691
296.7545, 1355.218
297.2366, 1352.972
297.7187, 1352.748
298.2008, 1354.517
298.6829, 1356.487
299.1650, 1356.654
299.6472, 1354.787
300.1293, 1353.230
300.6114, 1352.555
301.0935, 1351.797
301.5756, 1350.554
302.0577, 1348.850
302.5399, 1346.846
303.0220, 1344.328
303.5041, 1341.381
303.9862, 1339.971
304.4683, 1341.695
304.9504, 1343.198
305.4326, 1343.309
305.9147, 1342.352
306.3968, 1340.937
306.8789, 1339.282
307.3610, 1337.552
307.8431, 1336.502
308.3253, 1336.493
308.8074, 1336.667
309.2895, 1337.179
309.7716, 1337.577
310.2537, 1337.247
310.7358, 1335.871
311.2180, 1333.855
311.7001, 1331.907
312.1822, 1329.416
312.6643, 1328.401
313.1464, 1330.888
313.6285, 1333.828
314.1107, 1334.454
314.5928, 1332.070
315.0749, 1328.638
315.5570, 1327.028
316.0392, 1327.776
316.5213, 1328.388
317.0034, 1328.453
317.4855, 1328.438
317.9676, 1329.070
318.4497, 1330.141
318.9319, 1330.354
319.4140, 1327.751
319.8961, 1321.870
320.3782, 1317.873
320.8603, 1317.103
321.3424, 1317.174
321.8246, 1317.465
322.3067, 1317.875
322.7888, 1318.424
323.2709, 1319.299
323.7530, 1320.352
324.2351, 1320.402
324.7173, 1318.915
325.1994, 1317.081
325.6815, 1314.842
326.1636, 1312.629
326.6457, 1311.037
327.1278, 1310.417
327.6100, 1310.443
328.0921, 1310.415
328.5742, 1310.503
329.0563, 1310.120
329.5384, 1308.843
330.0205, 1307.253
330.5027, 1305.602
330.9848, 1303.965
331.4669, 1302.907
331.9490, 1303.729
332.4311, 1307.236
332.9132, 1309.080
333.3954, 1307.153
333.8775, 1304.434
334.3596, 1302.265
334.8417, 1300.828
335.3238, 1299.822
335.8059, 1299.053
336.2881, 1298.522
336.7702, 1298.048
337.2523, 1297.178
337.7344, 1296.941
338.2165, 1298.497
338.6986, 1301.035
339.1808, 1302.665
339.6629, 1301.901
340.1450, 1299.423
340.6271, 1297.756
341.1092, 1296.992
341.5913, 1296.916
342.0735, 1298.057
342.5556, 1299.531
343.0377, 1300.253
343.5198, 1299.772
344.0019, 1298.530
344.4840, 1297.218
344.9662, 1295.866
345.4483, 1294.273
345.9304, 1291.628
346.4125, 1289.167
346.8946, 1288.195
347.3767, 1288.889
347.8589, 1289.435
348.3410, 1287.373
348.8231, 1282.805
349.3052, 1280.398
349.7873, 1282.058
350.2694, 1284.692
350.7516, 1286.454
351.2337, 1287.357
351.7158, 1287.627
352.1979, 1287.637
352.6800, 1287.135
353.1621, 1284.928
353.6443, 1280.037
354.1264, 1275.651
354.6085, 1273.756
355.0906, 1273.531
355.5727, 1273.999
356.0548, 1275.379
356.5370, 1276.677
357.0191, 1276.162
357.5012, 1273.627
357.9833, 1271.712
358.4654, 1272.058
358.9475, 1273.300
359.4297, 1273.821
359.9118, 1273.407
360.3939, 1272.649
360.8760, 1271.657
361.3581, 1270.580
361.8402, 1270.312
362.3224, 1271.490
362.8045, 1272.848
363.2866, 1272.917
363.7687, 1271.834
364.2508, 1270.870
364.7329, 1270.654
365.2151, 1270.820
365.6972, 1270.865
366.1793, 1270.788
366.6614, 1270.289
367.1436, 1268.746
367.6257, 1266.579
368.1078, 1265.097
368.5899, 1264.506
369.0720, 1264.625
369.5541, 1265.698
370.0363, 1267.555
370.5184, 1268.999
371.0005, 1269.331
371.4826, 1269.030
371.9647, 1269.320
372.4468, 1270.722
372.9290, 1271.383
373.4111, 1269.976
373.8932, 1267.448
374.3753, 1265.635
374.8574, 1265.080
375.3395, 1264.871
375.8217, 1263.755
376.3038, 1261.575
376.7859, 1259.916
377.2680, 1259.458
377.7501, 1259.209
378.2322, 1258.247
378.7144, 1256.571
379.1965, 1254.912
379.6786, 1253.943
380.1607, 1253.504
380.6428, 1251.876
381.1249, 1247.021
381.6071, 1243.399
382.0892, 1243.375
382.5713, 1245.601
383.0534, 1247.615
383.5355, 1248.401
384.0176, 1248.215
384.4998, 1247.586
384.9819, 1246.268
385.4640, 1244.873
385.9461, 1242.687
386.4282, 1240.888
386.9103, 1240.938
387.3925, 1242.805
387.8746, 1244.876
388.3567, 1245.362
388.8388, 1243.976
389.3209, 1243.059
389.8030, 1243.164
390.2852, 1243.090
390.7673, 1242.207
391.2494, 1240.806
391.7315, 1239.530
392.2136, 1238.765
392.6957, 1238.361
393.1779, 1237.744
393.6600, 1236.450
394.1421, 1235.615
394.6242, 1236.065
395.1063, 1236.565
395.5884, 1235.772
396.0706, 1233.451
396.5527, 1230.717
397.0348, 1229.029
397.5169, 1228.612
397.9990, 1228.357
398.4811, 1228.217
398.9633, 1228.284
399.4454, 1228.873
399.9275, 1229.721
400.4096, 1230.188
400.8917, 1229.734
401.3738, 1228.610
401.8560, 1227.902
402.3381, 1227.754
402.8202, 1227.783
403.3023, 1228.499
403.7844, 1229.031
404.2665, 1228.269
404.7487, 1225.823
405.2308, 1222.886
405.7129, 1220.823
406.1950, 1219.645
406.6771, 1218.939
407.1592, 1218.715
407.6414, 1218.923
408.1235, 1219.789
408.6056, 1221.140
409.0877, 1222.103
409.5698, 1222.417
410.0519, 1221.951
410.5341, 1219.934
411.0162, 1215.793
411.4983, 1212.264
411.9804, 1211.594
412.4625, 1212.523
412.9446, 1213.071
413.4268, 1212.926
413.9089, 1212.333
414.3910, 1211.304
414.8731, 1209.930
415.3553, 1208.590
415.8374, 1207.252
416.3195, 1206.262
416.8016, 1206.354
417.2837, 1207.573
417.7658, 1208.572
418.2480, 1208.947
418.7301, 1208.945
419.2122, 1208.837
419.6943, 1208.652
420.1764, 1208.263
420.6585, 1207.382
421.1407, 1206.151
421.6228, 1205.984
422.1049, 1208.389
422.5870, 1210.098
423.0691, 1208.959
423.5512, 1206.370
424.0334, 1205.301
424.5155, 1207.034
424.9976, 1209.498
425.4797, 1208.666
425.9618, 1201.535
426.4439, 1197.133
426.9261, 1197.419
427.4082, 1198.805
427.8903, 1198.887
428.3724, 1197.563
428.8545, 1195.990
429.3366, 1195.100
429.8188, 1194.870
430.3009, 1194.672
430.7830, 1194.434
431.2651, 1194.339
431.7472, 1194.464
432.2293, 1194.734
432.7115, 1195.096
433.1936, 1195.523
433.6757, 1195.923
434.1578, 1196.248
434.6399, 1196.671
435.1220, 1196.354
435.6042, 1194.359
436.0863, 1192.309
436.5684, 1191.023
437.0505, 1190.376
437.5326, 1189.696
438.0147, 1188.182
438.4969, 1186.380
438.9790, 1186.678
439.4611, 1190.355
439.9432, 1192.881
440.4253, 1191.579
440.9074, 1188.536
441.3896, 1185.643
441.8717, 1183.225
442.3538, 1181.336
442.8359, 1180.075
443.3180, 1179.412
443.8001, 1179.382
444.2823, 1180.483
444.7644, 1181.323
445.2465, 1179.893
445.7286, 1176.781
446.2107, 1174.767
446.6928, 1175.735
447.1750, 1177.382
447.6571, 1177.086
448.1392, 1175.024
448.6213, 1173.402
449.1034, 1173.628
449.5855, 1174.851
450.0677, 1174.518
450.5498, 1171.571
451.0319, 1169.572
451.5140, 1169.972
451.9961, 1171.554
452.4782, 1173.172
452.9604, 1174.514
453.4425, 1175.106
453.9246, 1174.292
454.4067, 1171.849
454.8888, 1170.408
455.3709, 1170.592
455.8531, 1170.920
456.3352, 1171.536
456.8173, 1171.794
457.2994, 1170.339
457.7815, 1166.529
458.2636, 1161.818
458.7458, 1159.371
459.2279, 1160.541
459.7100, 1161.207
460.1921, 1160.467
460.6742, 1159.910
461.1563, 1160.754
461.6385, 1162.734
462.1206, 1164.588
462.6027, 1165.315
463.0848, 1165.113
463.5669, 1165.040
464.0491, 1165.226
464.5312, 1165.249
465.0133, 1165.102
465.4954, 1164.653
465.9775, 1163.776
466.4597, 1162.433
466.9418, 1160.608
467.4239, 1157.840
467.9060, 1154.373
468.3881, 1151.866
468.8702, 1150.708
469.3524, 1150.251
469.8345, 1150.397
470.3166, 1150.876
470.7987, 1150.834
471.2808, 1149.752
471.7629, 1148.322
472.2451, 1146.838
472.7272, 1145.445
473.2093, 1145.045
473.6914, 1146.335
474.1735, 1148.243
474.6556, 1148.466
475.1378, 1146.357
475.6199, 1145.039
476.1020, 1146.083
476.5841, 1147.349
477.0662, 1146.606
477.5483, 1143.955
478.0305, 1141.289
478.5126, 1140.066
478.9947, 1140.105
479.4768, 1139.899
479.9589, 1138.055
480.4410, 1137.675
480.9232, 1141.031
481.4053, 1145.063
481.8874, 1146.342
482.3695, 1144.190
482.8516, 1140.782
483.3337, 1138.766
483.8159, 1138.359
484.2980, 1137.471
484.7801, 1135.275
485.2622, 1133.549
485.7443, 1133.219
486.2264, 1133.679
486.7086, 1134.011
487.1907, 1133.883
487.6728, 1133.297
488.1549, 1132.004
488.6370, 1129.929
489.1191, 1128.440
489.6013, 1128.204
490.0834, 1128.250
490.5655, 1127.699
491.0476, 1126.626
491.5297, 1125.536
492.0118, 1124.728
492.4940, 1123.962
492.9761, 1122.769
493.4582, 1121.181
493.9403, 1120.014
494.4224, 1119.818
494.9045, 1120.188
495.3867, 1120.069
495.8688, 1119.250
496.3509, 1118.559
496.8330, 1118.693
497.3151, 1118.749
497.7972, 1117.288
498.2794, 1114.410
498.7615, 1112.009
499.2436, 1111.853
499.7257, 1113.772
500.2078, 1114.729
500.6899, 1114.655
501.1721, 1113.673
501.6542, 1110.755
502.1363, 1107.448
502.6184, 1105.409
503.1005, 1105.053
503.5826, 1105.576
504.0648, 1106.068
504.5469, 1106.523
505.0290, 1107.115
505.5111, 1108.531
505.9932, 1109.196
506.4753, 1108.222
506.9575, 1106.232
507.4396, 1104.088
507.9217, 1101.960
508.4038, 1100.259
508.8859, 1099.738
509.3680, 1100.322
509.8502, 1100.643
510.3323, 1100.280
510.8144, 1099.763
511.2965, 1099.876
511.7786, 1100.428
512.2607, 1100.221
512.7429, 1097.991
513.2250, 1095.651
513.7071, 1095.253
514.1892, 1096.321
514.6713, 1096.579
515.1534, 1094.861
515.6356, 1092.273
516.1177, 1091.048
516.5998, 1092.076
517.0819, 1092.497
517.5640, 1091.791
518.0461, 1090.835
518.5283, 1090.527
519.0104, 1090.566
519.4925, 1089.720
519.9746, 1087.039
520.4567, 1083.247
520.9388, 1081.130
521.4210, 1081.729
521.9031, 1082.082
522.3852, 1081.121
522.8673, 1080.349
523.3494, 1081.501
523.8315, 1084.202
524.3137, 1085.965
524.7958, 1084.294
525.2779, 1080.243
525.7600, 1077.606
526.2421, 1076.694
526.7242, 1076.005
527.2064, 1074.514
527.6885, 1073.126
528.1706, 1073.304
528.6527, 1075.549
529.1348, 1077.134
529.6169, 1075.899
530.0991, 1073.391
530.5812, 1072.250
531.0633, 1072.787
531.5454, 1073.639
532.0275, 1073.875
532.5096, 1073.567
532.9918, 1073.198
533.4739, 1073.240
533.9560, 1072.645
534.4381, 1070.830
534.9202, 1068.466
535.4023, 1065.914
535.8845, 1063.443
536.3666, 1061.809
536.8487, 1062.020
537.3308, 1064.065
537.8129, 1064.781
538.2951, 1063.108
538.7772, 1061.426
539.2593, 1060.014
539.7415, 1059.005
540.2236, 1058.761
540.7057, 1059.337
541.1878, 1059.800
541.6699, 1058.986
542.1520, 1057.115
542.6342, 1055.807
543.1163, 1055.451
543.5984, 1054.980
544.0805, 1053.313
544.5626, 1051.137
545.0447, 1049.783
545.5269, 1049.736
546.0090, 1049.946
546.4911, 1049.842
546.9732, 1049.561
547.4553, 1049.306
547.9374, 1049.117
548.4196, 1049.219
548.9017, 1050.053
549.3838, 1051.672
549.8659, 1051.584
550.3480, 1048.595
550.8301, 1045.652
551.3123, 1043.238
551.7944, 1041.466
552.2765, 1040.504
552.7586, 1040.356
553.2407, 1040.742
553.7228, 1041.494
554.2050, 1042.669
554.6871, 1043.115
555.1692, 1042.270
555.6513, 1041.472
556.1334, 1041.511
556.6155, 1041.752
557.0977, 1041.311
557.5798, 1039.903
558.0619, 1038.212
558.5440, 1036.470
559.0261, 1034.908
559.5082, 1034.551
559.9904, 1035.747
560.4725, 1037.221
560.9546, 1038.090
561.4367, 1038.405
561.9188, 1038.636
562.4009, 1039.279
562.8831, 1039.216
563.3652, 1037.833
563.8473, 1035.577
564.3294, 1032.676
564.8115, 1029.336
565.2936, 1026.547
565.7758, 1025.401
566.2579, 1025.902
566.7400, 1026.046
567.2221, 1025.785
567.7042, 1025.186
568.1863, 1023.715
568.6685, 1022.214
569.1506, 1021.763
569.6327, 1022.492
570.1148, 1023.256
570.5969, 1022.755
571.0790, 1021.231
571.5612, 1020.340
572.0433, 1020.398
572.5254, 1020.198
573.0075, 1018.583
573.4896, 1016.578
573.9717, 1015.794
574.4539, 1016.652
574.9360, 1017.669
575.4181, 1018.526
575.9002, 1018.954
576.3823, 1018.381
576.8644, 1016.827
577.3466, 1014.985
577.8287, 1013.167
578.3108, 1011.606
578.7929, 1011.454
579.2750, 1014.911
579.7571, 1016.893
580.2393, 1016.225
580.7214, 1014.660
581.2035, 1012.983
581.6856, 1011.654
582.1677, 1011.629
582.6498, 1014.207
583.1320, 1018.032
583.6141, 1017.790
584.0962, 1011.889
584.5783, 1007.377
585.0604, 1007.093
585.5425, 1008.274
586.0247, 1008.755
586.5068, 1008.495
586.9889, 1008.104
587.4710, 1007.986
587.9531, 1007.798
588.4352, 1007.060
588.9174, 1005.851
589.3995, 1004.676
589.8816, 1003.809
590.3637, 1002.905
590.8458, 1001.200
591.3279, 997.8752
591.8101, 996.2108
592.2922, 997.8710
592.7743, 999.5107
593.2564, 999.0193
593.7385, 997.2313
594.2206, 996.0047
594.7028, 996.1936
595.1849, 997.0027
595.6670, 997.1630
596.1491, 996.6251
596.6312, 995.7430
597.1133, 994.0400
597.5955, 992.6563
598.0776, 992.4310
598.5597, 992.8813
599.0418, 993.1118
599.5239, 992.9212
600.0060, 992.3957
600.4882, 991.1105
600.9703, 989.5947
601.4524, 989.3957
601.9345, 990.8616
602.4166, 992.4621
602.8987, 992.8414
603.3809, 992.0851
603.8630, 991.4642
604.3451, 991.1962
604.8272, 990.7465
605.3093, 989.9664
605.7914, 988.9816
606.2736, 987.7545
606.7557, 986.3875
607.2378, 985.3041
607.7199, 985.0121
608.2020, 985.2344
608.6841, 984.4284
609.1663, 982.0342
609.6484, 980.2517
610.1305, 980.4235
610.6126, 980.9957
611.0947, 980.6068
611.5768, 979.2413
612.0590, 977.8104
612.5411, 976.3816
613.0232, 975.3035
613.5053, 975.0781
613.9874, 975.6000
614.4695, 976.4617
614.9517, 977.6047
615.4338, 978.5690
615.9159, 978.6580
616.3980, 977.8996
616.8801, 976.0219
617.3622, 970.7740
617.8444, 966.8890
618.3265, 967.3926
618.8086, 970.2518
619.2907, 972.3316
619.7728, 972.4777
620.2549, 971.5079
620.7371, 970.0156
621.2192, 968.0586
621.7013, 967.4444
622.1834, 968.8935
622.6655, 970.2406
623.1476, 970.1989
623.6298, 969.2478
624.1119, 967.9785
624.5940, 966.1264
625.0761, 964.9312
625.5582, 965.9248
626.0403, 967.3744
626.5225, 966.8510
627.0046, 964.3744
627.4867, 961.6590
627.9688, 959.7045
628.4509, 958.5121
628.9330, 958.1036
629.4152, 959.2031
629.8973, 959.7858
630.3794, 959.9104
630.8615, 959.4798
631.3436, 957.9395
631.8257, 955.8214
632.3079, 954.3636
632.7900, 954.2344
633.2721, 954.8110
633.7542, 955.2023
634.2363, 955.4679
634.7184, 956.2686
635.2006, 957.9365
635.6827, 959.5685
636.1648, 960.6017
636.6469, 960.9104
637.1291, 960.0857
637.6112, 956.8022
638.0933, 953.9879
638.5754, 953.1396
639.0576, 952.9622
639.5397, 951.7145
640.0218, 949.3436
640.5039, 947.3619
640.9860, 947.1212
641.4681, 948.1649
641.9503, 948.1861
642.4324, 946.7463
642.9145, 945.3647
643.3966, 944.3398
643.8787, 943.4845
644.3608, 942.5209
644.8430, 941.5651
645.3251, 941.1902
645.8072, 941.8996
646.2893, 943.0586
646.7714, 944.7792
647.2535, 946.4843
647.7357, 945.6650
648.2178, 941.4242
648.6999, 936.9153
649.1820, 935.8204
649.6641, 938.3365
650.1462, 940.2352
650.6284, 941.5879
651.1105, 942.2926
651.5926, 942.1208
652.0747, 941.4124
652.5568, 940.6343
653.0389, 939.7594
653.5211, 938.1481
654.0032, 934.7446
654.4853, 930.4556
654.9674, 927.8708
655.4495, 927.0775
655.9316, 927.0646
656.4138, 927.8776
656.8959, 928.8455
657.3780, 929.0232
657.8601, 928.4435
658.3422, 927.8674
658.8243, 927.4257
659.3065, 926.9821
659.7886, 926.3945
660.2707, 925.7789
660.7528, 925.3715
661.2349, 925.2231
661.7170, 925.0790
662.1992, 924.6392
662.6813, 923.9182
663.1634, 923.1860
663.6455, 922.1807
664.1276, 921.6677
664.6097, 922.5392
665.0919, 923.5838
665.5740, 923.6570
666.0561, 922.7100
666.5382, 921.6848
667.0203, 920.7049
667.5024, 920.0714
667.9846, 920.5272
668.4667, 921.6634
668.9488, 921.9690
669.4309, 920.8544
669.9130, 919.2530
670.3951, 918.4847
670.8773, 918.7692
671.3594, 918.1393
671.8415, 915.0258
672.3236, 912.8643
672.8057, 912.8256
673.2878, 913.8474
673.7700, 915.3244
674.2521, 916.9264
674.7342, 917.4637
675.2163, 915.1728
675.6984, 911.5037
676.1805, 909.5578
676.6627, 909.2748
677.1448, 909.0400
677.6269, 908.3378
678.1090, 907.2016
678.5911, 905.4615
679.0732, 902.8037
679.5554, 901.4825
680.0375, 902.2383
680.5196, 903.4273
681.0017, 904.8234
681.4838, 906.1088
681.9659, 907.0964
682.4481, 907.6553
682.9302, 907.3927
683.4123, 905.5471
683.8944, 902.6481
684.3765, 900.7213
684.8586, 899.8035
685.3408, 899.8453
685.8229, 901.5667
686.3050, 903.4158
686.7871, 903.2211
687.2692, 901.0710
687.7513, 898.9569
688.2335, 896.2448
688.7156, 894.6223
689.1977, 896.1124
689.6798, 898.8788
690.1619, 900.0339
690.6440, 898.9373
691.1262, 896.9717
691.6083, 895.2626
692.0904, 893.9413
692.5725, 894.0321
693.0546, 895.8639
693.5367, 898.2507
694.0189, 902.6239
694.5010, 905.8650
694.9831, 904.4135
695.4652, 898.8694
695.9473, 894.1522
696.4294, 891.8054
696.9116, 890.6188
697.3937, 889.9241
697.8758, 889.7496
698.3579, 890.0663
698.8400, 890.9050
699.3221, 892.5248
699.8043, 895.0726
700.2864, 898.6472
700.7685, 904.3020
701.2506, 913.5610
701.7327, 921.6329
702.2148, 928.0118
702.6970, 932.4547
703.1791, 934.3458
703.6612, 933.9971
704.1433, 932.5579
704.6254, 929.2961
705.1075, 926.6124
705.5897, 926.8633
706.0718, 929.0602
706.5539, 930.8100
707.0360, 931.7836
707.5181, 934.1527
708.0002, 939.9559
708.4824, 948.3961
708.9645, 955.3649
709.4466, 959.4426
709.9287, 964.8500
710.4108, 970.3934
710.8929, 978.7633
711.3751, 991.1750
711.8572, 1007.733
712.3393, 1028.323
712.8214, 1053.369
713.3035, 1081.369
713.7856, 1113.018
714.2678, 1146.093
714.7499, 1181.056
715.2320, 1216.471
715.7141, 1236.357
716.1962, 1230.160
716.6783, 1200.756
717.1605, 1154.730
717.6426, 1076.502
718.1247, 1012.552
718.6068, 963.9786
719.0889, 927.9374
719.5710, 907.1386
720.0532, 896.7714
720.5353, 889.7162
721.0174, 884.0636
721.4995, 879.5758
721.9816, 876.2556
722.4637, 873.8814
722.9459, 871.9916
723.4280, 870.5660
723.9101, 869.9600
724.3922, 870.4889
724.8743, 871.4486
725.3564, 871.5722
725.8386, 870.8672
726.3207, 869.2638
726.8028, 865.0494
727.2849, 861.9231
727.7670, 861.7471
728.2491, 862.8908
728.7313, 863.4872
729.2134, 863.1573
729.6955, 862.4080
730.1776, 861.1400
730.6597, 859.9178
731.1418, 859.6292
731.6240, 860.2202
732.1061, 861.5939
732.5882, 863.8705
733.0703, 865.7594
733.5524, 865.5839
734.0345, 863.2508
734.5167, 861.1583
734.9988, 859.6422
735.4809, 857.9319
735.9631, 855.1582
736.4452, 852.7289
736.9273, 852.1724
737.4094, 853.2164
737.8915, 854.0031
738.3737, 853.3638
738.8558, 852.3416
739.3379, 852.0262
739.8200, 852.2846
740.3021, 852.8801
740.7842, 853.7558
741.2664, 854.1953
741.7485, 853.4631
742.2306, 851.9508
742.7127, 851.6658
743.1948, 853.8983
743.6769, 854.9884
744.1591, 854.0455
744.6412, 852.6630
745.1233, 851.6251
745.6054, 850.7701
746.0875, 849.5145
746.5696, 847.4789
747.0518, 845.9077
747.5339, 846.2144
748.0160, 847.4352
748.4981, 847.8513
748.9802, 847.4537
749.4623, 847.2872
749.9445, 847.9137
750.4266, 848.9144
750.9087, 849.5977
751.3908, 850.0771
751.8729, 849.6775
752.3550, 847.4746
752.8372, 845.6068
753.3193, 845.4031
753.8014, 845.4755
754.2835, 843.9261
754.7656, 840.5974
755.2477, 838.0208
755.7299, 837.6442
756.2120, 838.3144
756.6941, 839.6187
757.1762, 841.0026
757.6583, 841.0630
758.1404, 839.4727
758.6226, 837.3378
759.1047, 835.6971
759.5868, 834.5075
760.0689, 833.4601
760.5510, 832.7677
761.0331, 831.6412
761.5153, 829.0904
761.9974, 826.9365
762.4795, 826.5814
762.9616, 827.6732
763.4437, 829.1138
763.9258, 831.1178
764.4080, 832.6627
764.8901, 833.1780
765.3722, 833.0127
765.8543, 832.3336
766.3364, 831.3308
766.8185, 830.3840
767.3007, 829.6814
767.7828, 829.3237
768.2649, 829.6791
768.7470, 830.7852
769.2291, 831.3282
769.7112, 831.1553
770.1934, 830.6405
770.6755, 829.6695
771.1576, 828.6452
771.6397, 828.4589
772.1218, 829.3414
772.6039, 829.3589
773.0861, 827.2543
773.5682, 825.2410
774.0503, 824.9769
774.5324, 825.3189
775.0145, 824.2655
775.4966, 821.6500
775.9788, 819.4630
776.4609, 819.5605
776.9430, 821.0549
777.4251, 821.9342
777.9072, 822.2086
778.3893, 822.1071
778.8715, 821.6036
779.3536, 821.0357
779.8357, 820.6878
780.3178, 820.5314
780.7999, 820.3749
781.2820, 820.4813
781.7642, 820.1954
782.2463, 819.2780
782.7284, 818.1391
783.2105, 816.5841
783.6926, 815.0950
784.1747, 814.7513
784.6569, 816.0436
785.1390, 817.3922
785.6211, 817.2977
786.1032, 816.3073
786.5853, 815.3707
787.0674, 814.5591
787.5496, 813.7601
788.0317, 812.8759
788.5138, 812.4979
788.9959, 813.8351
789.4780, 817.2045
789.9601, 817.5888
790.4423, 812.2891
790.9244, 808.3582
791.4065, 807.8151
791.8886, 808.9485
792.3707, 811.1044
792.8528, 813.8938
793.3350, 815.8105
793.8171, 816.2535
794.2992, 815.8749
794.7813, 814.2783
795.2634, 812.5268
795.7455, 812.6299
796.2277, 814.2974
796.7098, 815.1312
797.1919, 813.6368
797.6740, 810.7648
798.1561, 808.1235
798.6382, 805.6907
799.1204, 803.9874
799.6025, 803.0750
800.0846, 802.7786
800.5667, 803.1950
801.0488, 804.0330
801.5309, 804.9492
802.0131, 806.1144
802.4952, 806.3614
802.9773, 804.9235
803.4594, 803.3060
803.9415, 801.9352
804.4236, 800.8666
804.9058, 799.9537
805.3879, 799.3118
805.8700, 799.6716
806.3521, 802.2411
806.8342, 805.0604
807.3163, 804.9570
807.7985, 802.4428
808.2806, 799.1699
808.7627, 795.4128
809.2448, 792.7704
809.7269, 792.4485
810.2090, 793.9564
810.6912, 795.8936
811.1733, 798.8976
811.6554, 800.8416
812.1375, 801.7025
812.6196, 801.4654
813.1017, 799.4647
813.5839, 796.6918
814.0660, 794.3043
814.5481, 792.4436
815.0302, 791.2294
815.5123, 791.1220
815.9944, 791.2924
816.4766, 790.9394
816.9587, 790.4249
817.4408, 790.5135
817.9229, 791.3185
818.4050, 792.3666
818.8871, 793.3906
819.3693, 794.1461
819.8514, 793.7828
820.3335, 792.2410
820.8156, 791.0460
821.2977, 790.5081
821.7798, 790.0656
822.2620, 789.1356
822.7441, 788.1143
823.2262, 788.2526
823.7083, 790.3619
824.1904, 791.7399
824.6725, 792.5764
825.1547, 792.3857
825.6368, 790.2784
826.1189, 787.3487
826.6010, 784.9548
827.0831, 783.3538
827.5652, 782.0035
828.0474, 780.2244
828.5295, 778.7660
829.0116, 778.7540
829.4937, 779.7637
829.9758, 780.8949
830.4579, 781.8909
830.9401, 782.3464
831.4222, 781.8853
831.9043, 780.8339
832.3864, 780.1731
832.8685, 779.9926
833.3506, 779.7888
833.8328, 779.5902
834.3149, 779.2424
834.7971, 778.6371
835.2792, 777.8358
835.7613, 776.8743
836.2434, 775.6469
836.7255, 774.8611
837.2076, 774.8273
837.6898, 775.0420
838.1719, 775.4789
838.6540, 775.9013
839.1361, 776.0195
839.6182, 775.8220
840.1003, 775.4885
840.5825, 774.9434
841.0646, 774.6580
841.5467, 775.8954
842.0288, 777.9176
842.5109, 777.9547
842.9930, 775.7363
843.4752, 773.7094
843.9573, 773.3793
844.4394, 774.1279
844.9215, 774.7957
845.4036, 775.5594
845.8857, 775.2595
846.3679, 773.1756
846.8500, 771.3000
847.3321, 770.6570
847.8142, 770.3600
848.2963, 769.4075
848.7784, 767.8291
849.2606, 766.4562
849.7427, 765.4962
850.2248, 764.7069
850.7069, 763.8636
851.1890, 763.2421
851.6711, 763.1746
852.1533, 763.5973
852.6354, 764.2827
853.1175, 765.1696
853.5996, 765.9456
854.0817, 766.3086
854.5638, 766.2780
855.0460, 765.9306
855.5281, 765.2538
856.0102, 763.8319
856.4923, 761.3666
856.9744, 759.3256
857.4565, 759.9297
857.9387, 763.0060
858.4208, 763.3760
858.9029, 759.1254
859.3850, 756.8574
859.8671, 759.5284
860.3492, 762.6845
860.8314, 762.9679
861.3135, 761.1856
861.7956, 759.4872
862.2777, 758.1898
862.7598, 756.7071
863.2419, 754.0291
863.7241, 751.9786
864.2062, 752.2509
864.6883, 753.8531
865.1704, 755.2064
865.6525, 755.8478
866.1346, 755.9147
866.6168, 755.0850
867.0989, 754.0946
867.5810, 754.4670
868.0631, 755.6926
868.5452, 755.9442
869.0273, 754.8849
869.5095, 753.3511
869.9916, 751.8651
870.4737, 750.5937
870.9558, 749.9765
871.4379, 750.0468
871.9200, 750.6715
872.4022, 752.3391
872.8843, 753.4464
873.3664, 753.1511
873.8485, 752.0222
874.3306, 750.7803
874.8127, 749.4199
875.2949, 748.0949
875.7770, 746.2701
876.2591, 745.1962
876.7412, 746.0639
877.2233, 747.1773
877.7054, 747.0272
878.1876, 745.8035
878.6697, 744.3131
879.1518, 742.6755
879.6339, 741.7853
880.1160, 743.4140
880.5981, 745.5629
881.0803, 744.9437
881.5624, 742.2458
882.0445, 740.2850
882.5266, 740.0323
883.0087, 740.6416
883.4908, 741.3585
883.9730, 742.1146
884.4551, 742.5251
884.9372, 742.5441
885.4193, 743.1166
885.9014, 744.6789
886.3835, 745.8597
886.8657, 745.6812
887.3478, 744.4467
887.8299, 742.9610
888.3120, 741.1863
888.7941, 739.2763
889.2762, 736.5042
889.7584, 734.4825
890.2405, 734.2855
890.7226, 734.6729
891.2047, 734.3151
891.6868, 733.2207
892.1689, 732.3604
892.6511, 732.0013
893.1332, 732.0099
893.6153, 732.7172
894.0974, 733.4733
894.5795, 733.4346
895.0616, 732.8168
895.5438, 732.4509
896.0259, 732.6771
896.5080, 732.9752
896.9901, 732.9182
897.4722, 732.4702
897.9543, 731.0948
898.4365, 729.1041
898.9186, 728.4650
899.4007, 729.7351
899.8828, 731.3736
900.3649, 732.0704
900.8470, 732.0058
901.3292, 731.8095
901.8113, 731.4526
902.2934, 731.1258
902.7755, 730.9652
903.2576, 730.5549
903.7397, 729.5639
904.2219, 728.3036
904.7040, 727.2554
905.1861, 726.4468
905.6682, 725.7333
906.1503, 724.7936
906.6324, 724.3914
907.1146, 725.3093
907.5967, 726.3362
908.0788, 726.1389
908.5609, 725.2264
909.0430, 725.4807
909.5251, 728.0413
910.0073, 729.5523
910.4894, 726.8605
910.9715, 723.1801
911.4536, 721.7660
911.9357, 721.9019
912.4178, 721.8287
912.9000, 721.0494
913.3821, 719.9269
913.8642, 718.6335
914.3463, 717.3834
914.8284, 716.4460
915.3105, 715.8912
915.7927, 716.4413
916.2748, 718.1271
916.7569, 718.8070
917.2390, 717.1698
917.7211, 714.6248
918.2032, 713.4673
918.6854, 713.7438
919.1675, 714.5740
919.6496, 716.3495
920.1317, 717.4380
920.6138, 717.1818
921.0959, 716.4803
921.5781, 716.1678
922.0602, 716.0781
922.5423, 715.3671
923.0244, 713.4778
923.5065, 712.0207
923.9886, 711.4909
924.4708, 710.9130
924.9529, 709.6924
925.4350, 708.2745
925.9171, 707.1454
926.3992, 706.3940
926.8813, 706.0647
927.3635, 706.2012
927.8456, 706.7381
928.3277, 708.0493
928.8098, 709.4516
929.2919, 710.2966
929.7740, 710.5235
930.2562, 710.1195
930.7383, 709.0810
931.2204, 708.0488
931.7025, 707.6863
932.1846, 707.7386
932.6667, 707.9426
933.1489, 708.1523
933.6310, 707.7901
934.1132, 706.7545
934.5953, 705.4484
935.0774, 704.0920
935.5595, 702.9869
936.0416, 703.0265
936.5237, 704.2204
937.0059, 705.0316
937.4880, 705.3049
937.9701, 705.8024
938.4522, 707.0759
938.9343, 708.0695
939.4164, 707.3212
939.8986, 704.9857
940.3807, 703.8030
940.8628, 704.6147
941.3449, 704.9337
941.8270, 704.1826
942.3091, 703.3133
942.7913, 702.9258
943.2734, 702.7057
943.7555, 702.0674
944.2376, 700.8983
944.7197, 700.0541
945.2018, 699.8450
945.6840, 699.7706
946.1661, 699.9855
946.6482, 699.9763
947.1303, 698.9738
947.6124, 697.3453
948.0945, 696.2866
948.5767, 696.2917
949.0588, 696.3919
949.5409, 695.9045
950.0230, 695.2863
950.5051, 694.9074
950.9872, 694.7740
951.4694, 694.9405
951.9515, 695.3480
952.4336, 695.6844
952.9157, 695.7504
953.3978, 695.6047
953.8799, 695.2836
954.3621, 694.8328
954.8442, 693.7002
955.3263, 692.2790
955.8084, 693.9159
956.2905, 699.9457
956.7726, 705.7229
957.2548, 705.7698
957.7369, 701.3143
958.2190, 697.4628
958.7011, 694.1950
959.1832, 691.8089
959.6653, 690.2961
960.1475, 689.9279
960.6296, 691.0900
961.1117, 693.0142
961.5938, 694.1363
962.0759, 694.1964
962.5580, 696.2991
963.0402, 703.0020
963.5223, 706.2136
964.0044, 702.2635
964.4865, 696.6360
964.9686, 693.0743
965.4507, 691.1508
965.9329, 689.4395
966.4150, 687.6900
966.8971, 686.8317
967.3792, 687.6020
967.8613, 688.4543
968.3434, 688.9183
968.8256, 689.1284
969.3077, 689.0795
969.7898, 688.8961
970.2719, 689.1015
970.7540, 690.2755
971.2361, 690.8986
971.7183, 689.9381
972.2004, 688.5797
972.6825, 687.8265
973.1646, 687.2967
973.6467, 686.0869
974.1288, 684.1663
974.6110, 682.6002
975.0931, 681.9138
975.5752, 681.9943
976.0573, 683.5475
976.5394, 685.3282
977.0215, 685.2469
977.5037, 683.6401
977.9858, 682.0560
978.4679, 681.0765
978.9500, 680.4793
979.4321, 680.2469
979.9142, 680.0568
980.3964, 678.9521
980.8785, 677.3265
981.3606, 676.6410
981.8427, 677.0745
982.3248, 678.1519
982.8069, 679.6593
983.2891, 681.0865
983.7712, 681.6808
984.2533, 681.5184
984.7354, 681.2567
985.2175, 680.9127
985.6996, 679.6754
986.1818, 677.1809
986.6639, 675.0320
987.1460, 674.4259
987.6281, 674.7667
988.1102, 674.6824
988.5923, 674.0515
989.0745, 673.9293
989.5566, 674.4562
990.0387, 675.1607
990.5208, 676.3349
991.0029, 676.8554
991.4850, 675.2942
991.9672, 672.3860
992.4493, 671.0242
992.9314, 672.0624
993.4135, 672.6003
993.8956, 672.0361
994.3777, 671.7786
994.8599, 672.1902
995.3420, 673.1594
995.8241, 675.3230
996.3062, 678.1767
996.7883, 678.8984
997.2704, 675.9699
997.7526, 673.2233
998.2347, 670.6900
998.7168, 668.9833
999.1989, 668.6901
999.6810, 669.2041
1000.163, 669.9856
1000.645, 670.8953
1001.127, 671.5251
1001.609, 671.5673
1002.092, 671.6174
1002.574, 672.1918
1003.056, 672.5994
1003.538, 672.0573
1004.020, 671.0633
1004.502, 670.5497
1004.984, 670.6430
1005.466, 670.5948
1005.949, 669.7439
1006.431, 669.0028
1006.913, 669.4423
1007.395, 670.0656
1007.877, 669.6026
1008.359, 668.3172
1008.841, 666.8730
1009.323, 665.5707
1009.805, 665.1141
1010.288, 666.9475
1010.770, 668.8458
1011.252, 667.4341
1011.734, 664.4479
1012.216, 663.0386
1012.698, 663.2519
1013.180, 663.7699
1013.662, 664.0227
1014.145, 663.8834
1014.627, 662.7667
1015.109, 661.5682
1015.591, 662.5712
1016.073, 665.0072
1016.555, 666.1509
1017.037, 665.8420
1017.519, 666.1155
1018.001, 668.0104
1018.484, 669.8721
1018.966, 669.2655
1019.448, 666.9740
1019.930, 665.6365
1020.412, 665.2465
1020.894, 666.1410
1021.376, 668.3343
1021.858, 669.4481
1022.341, 667.9973
1022.823, 665.5275
1023.305, 664.2959
1023.787, 664.2966
1024.269, 665.9174
1024.751, 669.3286
1025.233, 670.8543
1025.715, 669.4723
1026.198, 668.4559
1026.680, 670.0513
1027.162, 672.7297
1027.644, 673.2887
1028.126, 671.6287
1028.608, 672.8298
1029.090, 677.5684
1029.572, 681.9002
1030.054, 684.9377
1030.536, 687.7285
1031.019, 691.5510
1031.501, 694.8152
1031.983, 693.6769
1032.465, 687.2677
1032.947, 683.2785
1033.429, 682.2103
1033.911, 682.0897
1034.393, 681.7482
1034.876, 683.5370
1035.358, 688.9500
1035.840, 697.7393
1036.322, 708.6463
1036.804, 720.0262
1037.286, 741.5266
1037.768, 771.8524
1038.250, 814.9202
1038.733, 876.7936
1039.215, 945.8058
1039.697, 1025.115
1040.179, 1102.106
1040.661, 1142.283
1041.143, 1135.962
1041.625, 1129.240
1042.107, 1109.467
1042.589, 1106.827
1043.072, 1128.945
1043.554, 1168.245
1044.036, 1221.402
1044.518, 1287.326
1045.000, 1363.849
1045.482, 1451.095
1045.964, 1547.640
1046.446, 1650.488
1046.928, 1766.215
1047.411, 1876.712
1047.893, 2018.795
1048.375, 2162.551
1048.857, 2372.194
1049.339, 2828.350
1049.821, 3616.251
1050.303, 4297.158
1050.785, 5068.193
1051.268, 5374.945
1051.750, 4814.220
1052.232, 3927.318
1052.714, 2970.414
1053.196, 2066.553
1053.678, 1425.343
1054.160, 1099.890
1054.642, 889.5365
1055.125, 801.6439
1055.607, 750.8406
1056.089, 721.4329
1056.571, 703.0819
1057.053, 691.2592
1057.535, 683.7683
1058.017, 677.7333
1058.499, 672.7137
1058.981, 668.6696
1059.464, 665.4514
1059.946, 663.4226
1060.428, 663.9481
1060.910, 664.6258
1061.392, 663.2722
1061.874, 660.5516
1062.356, 658.1495
1062.838, 656.4131
1063.320, 654.3409
1063.803, 650.6201
1064.285, 647.7235
1064.767, 647.3537
1065.249, 647.7353
1065.731, 647.7106
1066.213, 647.1393
1066.695, 645.8300
1067.177, 643.7759
1067.660, 642.1862
1068.142, 642.3488
1068.624, 642.0395
1069.106, 639.1442
1069.588, 636.3539
1070.070, 636.0870
1070.552, 637.5402
1071.034, 639.2734
1071.516, 640.9115
1071.999, 641.8058
1072.481, 641.1375
1072.963, 640.3821
1073.445, 640.4454
1073.927, 640.4813
1074.409, 639.7629
1074.891, 638.5333
1075.373, 637.0356
1075.855, 635.4344
1076.338, 634.5164
1076.820, 635.1515
1077.302, 635.6058
1077.784, 634.7234
1078.266, 633.6591
1078.748, 633.4876
1079.230, 633.6539
1079.712, 633.1378
1080.195, 631.9276
1080.677, 630.9450
1081.159, 630.4716
1081.641, 630.4307
1082.123, 631.0197
1082.605, 631.7903
1083.087, 632.6746
1083.569, 633.3730
1084.052, 633.3632
1084.534, 632.7679
1085.016, 632.4115
1085.498, 632.6733
1085.980, 632.8895
1086.462, 633.0613
1086.944, 632.7648
1087.426, 630.9631
1087.908, 629.0687
1088.391, 628.5396
1088.873, 629.5031
1089.355, 632.1511
1089.837, 637.4651
1090.319, 640.3691
1090.801, 636.8422
1091.283, 632.7426
1091.765, 631.2285
1092.248, 630.8595
1092.730, 630.2275
1093.212, 629.2993
1093.694, 628.2679
1094.176, 627.0302
1094.658, 626.9279
1095.140, 630.0263
1095.622, 632.3276
1096.104, 631.2398
1096.587, 629.2844
1097.069, 628.8307
1097.551, 629.1867
1098.033, 628.2520
1098.515, 625.5792
1098.997, 624.2191
1099.479, 627.0141
1099.961, 628.5594
1100.443, 625.4890
1100.926, 622.1049
1101.408, 621.2274
1101.890, 622.2250
1102.372, 624.4109
1102.854, 627.5375
1103.336, 629.2411
1103.818, 628.0464
1104.300, 626.7758
1104.783, 626.6555
1105.265, 625.9216
1105.747, 622.3889
1106.229, 618.4908
1106.711, 617.7849
1107.193, 619.9022
1107.675, 620.6067
1108.157, 617.3461
1108.640, 616.5689
1109.122, 621.9418
1109.604, 626.3721
1110.086, 626.4598
1110.568, 624.8675
1111.050, 623.8945
1111.532, 623.4686
1112.014, 623.0831
1112.496, 623.2185
1112.979, 622.0133
1113.461, 617.6544
1113.943, 614.3412
1114.425, 613.3528
1114.907, 613.4589
1115.389, 614.5140
1115.871, 615.8103
1116.353, 615.5177
1116.835, 613.1457
1117.318, 612.1202
1117.800, 612.9579
1118.282, 614.2913
1118.764, 617.0927
1119.246, 618.4893
1119.728, 615.8104
1120.210, 611.8575
1120.692, 611.1271
1121.175, 613.5345
1121.657, 614.6428
1122.139, 613.6083
1122.621, 613.7806
1123.103, 616.2090
1123.585, 617.9156
1124.067, 617.4551
1124.549, 616.0558
1125.031, 614.8545
1125.514, 613.9901
1125.996, 614.2628
1126.478, 615.9493
1126.960, 617.2826
1127.442, 618.2625
1127.924, 618.5742
1128.406, 618.0231
1128.888, 617.1428
1129.370, 616.3201
1129.853, 615.5328
1130.335, 614.6608
1130.817, 613.7039
1131.299, 613.4016
1131.781, 613.7977
1132.263, 613.9139
1132.745, 613.5497
1133.227, 613.0882
1133.710, 612.7643
1134.192, 612.3805
1134.674, 611.6035
1135.156, 610.5646
1135.638, 609.6957
1136.120, 609.0311
1136.602, 608.8670
1137.084, 609.2004
1137.567, 609.6404
1138.049, 610.0303
1138.531, 610.4860
1139.013, 611.1973
1139.495, 611.8405
1139.977, 611.4434
1140.459, 610.5509
1140.941, 610.9117
1141.423, 612.2664
1141.906, 613.4150
1142.388, 613.9709
1142.870, 613.6977
1143.352, 612.3367
1143.834, 610.8434
1144.316, 610.6559
1144.798, 610.8251
1145.280, 609.5485
1145.762, 607.6599
1146.245, 607.1584
1146.727, 607.8234
1147.209, 607.6807
1147.691, 605.9764
1148.173, 604.5010
1148.655, 604.9700
1149.137, 605.8460
1149.619, 605.9425
1150.102, 605.5811
1150.584, 604.8331
1151.066, 604.0397
1151.548, 603.8397
1152.030, 604.2892
1152.512, 604.7609
1152.994, 605.1481
1153.476, 605.1495
1153.958, 604.8167
1154.441, 603.8220
1154.923, 600.5715
1155.405, 597.5021
1155.887, 598.3331
1156.369, 602.0340
1156.851, 603.7594
1157.333, 601.8897
1157.815, 600.8450
1158.297, 603.0936
1158.780, 604.2421
1159.262, 601.3638
1159.744, 598.4427
1160.226, 598.8886
1160.708, 601.0638
1161.190, 601.5887
1161.672, 600.2408
1162.154, 600.0870
1162.637, 602.1237
1163.119, 603.4944
1163.601, 603.9787
1164.083, 603.7663
1164.565, 602.5569
1165.047, 601.2224
1165.529, 600.6916
1166.011, 600.7891
1166.494, 600.8602
1166.976, 600.9759
1167.458, 600.4550
1167.940, 598.8711
1168.422, 599.1224
1168.904, 602.3513
1169.386, 605.0670
1169.868, 604.8487
1170.350, 603.1619
1170.833, 602.3282
1171.315, 602.2302
1171.797, 602.3221
1172.279, 602.5596
1172.761, 602.2863
1173.243, 601.4957
1173.725, 601.2043
1174.207, 601.7863
1174.689, 602.3788
1175.172, 602.1730
1175.654, 601.5870
1176.136, 601.3884
1176.618, 601.3351
1177.100, 600.6947
1177.582, 599.7500
1178.064, 599.5126
1178.546, 599.9830
1179.029, 600.0955
1179.511, 599.3083
1179.993, 598.3976
1180.475, 597.9734
1180.957, 597.7968
1181.439, 597.4810
1181.921, 597.3826
1182.403, 598.4926
1182.885, 600.0134
1183.368, 600.0032
1183.850, 598.2004
1184.332, 596.6105
1184.814, 596.0831
1185.296, 595.8630
1185.778, 595.8846
1186.260, 595.8464
1186.742, 595.3926
1187.225, 594.9189
1187.707, 594.9798
1188.189, 595.4022
1188.671, 595.4822
1189.153, 595.0582
1189.635, 594.6740
1190.117, 594.5681
1190.599, 594.1847
1191.082, 593.1801
1191.564, 592.2355
1192.046, 591.5159
1192.528, 591.3094
1193.010, 592.1814
1193.492, 593.9571
1193.974, 595.2910
1194.456, 596.3976
1194.938, 595.6720
1195.421, 592.6371
1195.903, 590.0154
1196.385, 588.5563
1196.867, 588.2240
1197.349, 589.0920
1197.831, 590.6407
1198.313, 592.0248
1198.795, 593.2348
1199.277, 594.2883
1199.760, 595.1272
1200.242, 595.3968
1200.724, 595.0884
1201.206, 594.2815
1201.688, 593.0765
1202.170, 592.2787
1202.652, 592.7835
1203.134, 593.4211
1203.617, 592.6837
1204.099, 591.1756
1204.581, 589.0419
1205.063, 587.1559
1205.545, 587.2316
1206.027, 589.0637
1206.509, 591.3330
1206.991, 593.7205
1207.474, 594.4684
1207.956, 591.6423
1208.438, 588.2516
1208.920, 584.7141
1209.402, 582.3652
1209.884, 583.1530
1210.366, 585.3026
1210.848, 586.3092
1211.330, 585.9933
1211.813, 584.8915
1212.295, 581.8752
1212.777, 580.5001
1213.259, 581.9519
1213.741, 583.2307
1214.223, 583.5770
1214.705, 583.5055
1215.187, 583.0391
1215.669, 582.8538
1216.152, 584.5481
1216.634, 587.8759
1217.116, 588.1337
1217.598, 584.9728
1218.080, 583.2426
1218.562, 583.4774
1219.044, 583.6786
1219.526, 583.1426
1220.009, 582.5721
1220.491, 582.5143
1220.973, 582.8740
1221.455, 583.8666
1221.937, 584.9802
1222.419, 584.7117
1222.901, 583.4936
1223.383, 582.3686
1223.865, 581.5381
1224.348, 580.8701
1224.830, 580.3658
1225.312, 580.6896
1225.794, 582.9750
1226.276, 584.9383
1226.758, 584.0110
1227.240, 582.8308
1227.722, 584.2062
1228.204, 586.4492
1228.687, 587.2619
1229.169, 586.7302
1229.651, 586.0372
1230.133, 585.4148
1230.615, 584.5560
1231.097, 582.8572
1231.579, 581.7469
1232.061, 581.9565
1232.544, 582.2747
1233.026, 582.6111
1233.508, 582.2108
1233.990, 579.7327
1234.472, 576.0149
1234.954, 574.8773
1235.436, 576.9218
1235.918, 577.0457
1236.401, 574.9341
1236.883, 574.6135
1237.365, 577.0074
1237.847, 578.6400
1238.329, 577.6135
1238.811, 576.2338
1239.293, 577.4086
1239.775, 579.5791
1240.257, 579.2288
1240.740, 577.4637
1241.222, 576.7857
1241.704, 577.0247
1242.186, 577.5034
1242.668, 577.8613
1243.150, 577.2763
1243.632, 575.2952
1244.114, 573.6622
1244.596, 573.4127
1245.079, 574.0359
1245.561, 576.0721
1246.043, 577.9805
1246.525, 578.4512
1247.007, 577.9334
1247.489, 576.7020
1247.971, 575.1046
1248.453, 575.0720
1248.936, 578.0400
1249.418, 579.4206
1249.900, 578.2313
1250.382, 577.3175
1250.864, 577.5051
1251.346, 577.4305
1251.828, 576.0910
1252.310, 574.6817
1252.792, 574.8807
1253.275, 576.2597
1253.757, 577.1099
1254.239, 577.4514
1254.721, 577.5354
1255.203, 577.3484
1255.685, 576.3539
1256.167, 574.6288
1256.649, 573.7908
1257.131, 574.6836
1257.614, 576.0418
1258.096, 576.9483
1258.578, 577.2360
1259.060, 576.2964
1259.542, 574.9728
1260.024, 573.8948
1260.506, 573.4457
1260.988, 574.7517
1261.471, 577.2285
1261.953, 578.0165
1262.435, 575.9075
1262.917, 574.2666
1263.399, 574.1580
1263.881, 574.3026
1264.363, 574.5595
1264.845, 574.7553
1265.328, 574.8588
1265.810, 574.7852
1266.292, 574.3145
1266.774, 573.6487
1267.256, 573.6761
1267.738, 574.4907
1268.220, 574.9728
1268.702, 575.1068
1269.184, 575.3110
1269.667, 575.6638
1270.149, 576.3800
1270.631, 577.5488
1271.113, 578.1390
1271.595, 577.0412
1272.077, 575.1481
1272.559, 573.3915
1273.041, 572.0214
1273.523, 571.6061
1274.006, 571.7534
1274.488, 571.9451
1274.970, 571.9843
1275.452, 571.3503
1275.934, 569.9078
1276.416, 569.7161
1276.898, 573.1622
1277.380, 575.5082
1277.863, 574.4078
1278.345, 573.2616
1278.827, 574.0846
1279.309, 575.1154
1279.791, 574.8616
1280.273, 573.8363
1280.755, 573.1785
1281.237, 572.8805
1281.719, 572.2634
1282.202, 571.2559
1282.684, 570.8214
1283.166, 571.0596
1283.648, 571.5522
1284.130, 572.1354
1284.612, 572.4618
1285.094, 572.3037
1285.576, 571.6518
1286.059, 569.9652
1286.541, 568.2020
1287.023, 567.5908
1287.505, 568.2538
##END=



