##NAMES=Nitrocalcite
##RRUFFID=R120047
##IDEAL CHEMISTRY=Ca(N^5+^O_3_)_2_&#183;4H_2_O
##LOCALITY=Christmas mine, Gila County, Arizona, USA
##OWNER=RRUFF
##SOURCE=Bob Jenkins
##DESCRIPTION=White to colorless needles
##STATUS=The identification of this mineral has been confirmed by single-crystal X-ray diffraction.
##URL=rruff.info/R120047
228.2112, 1651.570
228.6934, 1656.156
229.1755, 1658.886
229.6576, 1660.775
230.1397, 1663.117
230.6218, 1666.319
231.1039, 1669.307
231.5861, 1671.673
232.0682, 1673.312
232.5503, 1675.645
233.0324, 1679.449
233.5145, 1683.371
233.9966, 1685.557
234.4788, 1684.797
234.9609, 1684.519
235.4430, 1685.666
235.9251, 1688.420
236.4072, 1691.420
236.8893, 1694.981
237.3715, 1698.508
237.8536, 1701.127
238.3357, 1702.055
238.8178, 1703.435
239.2999, 1705.941
239.7820, 1709.720
240.2642, 1713.073
240.7463, 1715.682
241.2284, 1718.064
241.7105, 1720.828
242.1926, 1723.977
242.6747, 1727.415
243.1569, 1731.115
243.6390, 1735.097
244.1211, 1739.285
244.6032, 1744.354
245.0853, 1749.067
245.5674, 1751.867
246.0496, 1751.848
246.5317, 1751.643
247.0138, 1751.876
247.4959, 1752.626
247.9780, 1753.152
248.4601, 1753.292
248.9423, 1753.441
249.4244, 1754.020
249.9065, 1755.097
250.3886, 1756.583
250.8707, 1758.607
251.3528, 1761.199
251.8350, 1763.621
252.3171, 1765.974
252.7992, 1768.015
253.2813, 1769.393
253.7634, 1769.691
254.2455, 1770.145
254.7277, 1771.063
255.2098, 1772.439
255.6919, 1773.344
256.1740, 1773.266
256.6561, 1773.285
257.1382, 1774.521
257.6204, 1777.498
258.1025, 1780.455
258.5846, 1783.373
259.0667, 1786.196
259.5488, 1787.156
260.0309, 1785.470
260.5131, 1783.071
260.9952, 1781.632
261.4773, 1781.353
261.9594, 1781.551
262.4415, 1782.296
262.9236, 1783.532
263.4058, 1784.330
263.8879, 1784.279
264.3700, 1784.540
264.8521, 1786.246
265.3342, 1789.936
265.8163, 1793.239
266.2985, 1795.821
266.7806, 1797.715
267.2627, 1799.201
267.7448, 1800.314
268.2269, 1800.883
268.7090, 1800.521
269.1912, 1798.810
269.6733, 1797.898
270.1554, 1798.243
270.6375, 1799.499
271.1196, 1800.210
271.6017, 1800.111
272.0839, 1800.152
272.5660, 1801.135
273.0481, 1803.276
273.5302, 1804.970
274.0123, 1806.049
274.4944, 1806.635
274.9766, 1806.812
275.4587, 1806.311
275.9408, 1806.504
276.4229, 1808.743
276.9050, 1813.316
277.3871, 1816.530
277.8693, 1817.945
278.3514, 1818.107
278.8335, 1818.035
279.3156, 1817.669
279.7977, 1817.438
280.2798, 1817.578
280.7620, 1818.085
281.2441, 1818.783
281.7262, 1819.708
282.2083, 1820.698
282.6904, 1821.324
283.1725, 1821.524
283.6547, 1822.049
284.1368, 1823.515
284.6189, 1825.794
285.1010, 1827.418
285.5831, 1828.151
286.0652, 1828.786
286.5474, 1830.843
287.0295, 1834.282
287.5116, 1837.140
287.9937, 1838.179
288.4758, 1837.773
288.9579, 1838.116
289.4401, 1839.326
289.9222, 1840.729
290.4043, 1841.493
290.8864, 1841.687
291.3685, 1841.805
291.8506, 1841.772
292.3328, 1841.833
292.8149, 1843.031
293.2970, 1845.469
293.7791, 1847.783
294.2612, 1848.230
294.7433, 1847.244
295.2255, 1846.530
295.7076, 1846.699
296.1897, 1847.463
296.6718, 1848.186
297.1539, 1848.873
297.6360, 1849.943
298.1182, 1852.726
298.6003, 1856.197
299.0824, 1857.624
299.5645, 1855.062
300.0466, 1851.428
300.5287, 1851.055
301.0109, 1853.613
301.4930, 1856.783
301.9751, 1859.347
302.4572, 1861.318
302.9393, 1862.506
303.4214, 1862.503
303.9036, 1862.454
304.3857, 1864.102
304.8678, 1866.937
305.3499, 1869.096
305.8320, 1868.415
306.3141, 1866.812
306.7963, 1866.735
307.2784, 1868.940
307.7605, 1871.649
308.2426, 1873.534
308.7247, 1874.777
309.2068, 1875.830
309.6890, 1876.679
310.1711, 1877.527
310.6532, 1878.542
311.1353, 1879.733
311.6174, 1880.942
312.0995, 1881.973
312.5817, 1882.923
313.0638, 1883.978
313.5459, 1885.471
314.0280, 1886.906
314.5101, 1888.035
314.9922, 1888.857
315.4744, 1889.383
315.9565, 1889.304
316.4386, 1889.087
316.9207, 1889.262
317.4028, 1891.038
317.8849, 1892.357
318.3671, 1891.918
318.8492, 1889.840
319.3313, 1888.506
319.8134, 1888.577
320.2955, 1889.783
320.7776, 1891.894
321.2598, 1896.659
321.7419, 1900.378
322.2240, 1901.455
322.7061, 1900.422
323.1882, 1900.155
323.6703, 1902.010
324.1525, 1904.186
324.6346, 1905.655
325.1167, 1905.329
325.5988, 1905.643
326.0809, 1907.282
326.5630, 1909.772
327.0452, 1911.801
327.5273, 1912.361
328.0094, 1913.270
328.4915, 1915.431
328.9736, 1920.288
329.4557, 1923.134
329.9379, 1922.567
330.4200, 1920.427
330.9021, 1919.643
331.3842, 1920.721
331.8663, 1922.448
332.3484, 1924.816
332.8306, 1928.041
333.3127, 1929.989
333.7948, 1929.881
334.2769, 1929.169
334.7590, 1929.603
335.2411, 1932.027
335.7233, 1933.710
336.2054, 1933.860
336.6875, 1932.619
337.1696, 1931.956
337.6517, 1931.810
338.1339, 1932.428
338.6160, 1934.214
339.0981, 1937.460
339.5802, 1940.470
340.0623, 1942.780
340.5444, 1944.776
341.0266, 1948.104
341.5087, 1953.279
341.9908, 1957.403
342.4729, 1957.985
342.9550, 1955.018
343.4371, 1953.138
343.9193, 1952.780
344.4014, 1953.484
344.8835, 1954.770
345.3656, 1956.632
345.8477, 1958.234
346.3298, 1959.098
346.8120, 1959.373
347.2941, 1959.430
347.7762, 1959.198
348.2583, 1959.355
348.7404, 1961.310
349.2225, 1964.577
349.7047, 1967.000
350.1868, 1967.035
350.6689, 1966.035
351.1510, 1966.574
351.6331, 1968.613
352.1152, 1970.733
352.5974, 1970.620
353.0795, 1969.868
353.5616, 1971.832
354.0437, 1979.614
354.5258, 1987.635
355.0079, 1989.861
355.4901, 1987.178
355.9722, 1983.637
356.4543, 1980.977
356.9364, 1979.105
357.4185, 1977.948
357.9006, 1977.615
358.3828, 1977.711
358.8649, 1978.274
359.3470, 1979.088
359.8291, 1979.712
360.3112, 1979.588
360.7933, 1979.487
361.2755, 1979.947
361.7576, 1981.098
362.2397, 1982.128
362.7218, 1982.455
363.2039, 1982.576
363.6860, 1983.051
364.1682, 1984.065
364.6503, 1985.409
365.1324, 1987.145
365.6145, 1989.260
366.0966, 1991.198
366.5787, 1993.256
367.0609, 1994.878
367.5430, 1995.710
368.0251, 1994.422
368.5072, 1993.906
368.9893, 1994.614
369.4714, 1996.281
369.9536, 1998.067
370.4357, 2000.371
370.9178, 2002.395
371.3999, 2003.844
371.8820, 2004.785
372.3641, 2004.935
372.8463, 2003.730
373.3284, 2002.092
373.8105, 2001.498
374.2926, 2002.344
374.7747, 2003.288
375.2568, 2003.696
375.7390, 2003.543
376.2211, 2005.011
376.7032, 2008.631
377.1853, 2012.745
377.6674, 2016.009
378.1495, 2018.431
378.6317, 2019.862
379.1138, 2020.133
379.5959, 2019.503
380.0780, 2018.531
380.5601, 2017.170
381.0422, 2016.186
381.5244, 2016.458
382.0065, 2017.726
382.4886, 2018.340
382.9707, 2018.016
383.4528, 2017.467
383.9349, 2017.748
384.4171, 2018.757
384.8992, 2019.861
385.3813, 2020.799
385.8634, 2021.630
386.3455, 2022.280
386.8276, 2022.708
387.3098, 2023.570
387.7919, 2025.691
388.2740, 2028.595
388.7561, 2031.450
389.2382, 2034.223
389.7203, 2036.573
390.2025, 2037.883
390.6846, 2038.336
391.1667, 2038.904
391.6488, 2040.626
392.1309, 2042.391
392.6130, 2043.186
393.0952, 2042.417
393.5773, 2041.536
394.0594, 2040.783
394.5415, 2040.393
395.0236, 2040.791
395.5057, 2043.763
395.9879, 2046.147
396.4700, 2046.249
396.9521, 2043.493
397.4342, 2041.638
397.9163, 2041.807
398.3984, 2042.891
398.8806, 2043.876
399.3627, 2044.939
399.8448, 2045.603
400.3269, 2045.323
400.8090, 2044.354
401.2911, 2044.739
401.7733, 2047.627
402.2554, 2050.498
402.7375, 2051.969
403.2196, 2051.355
403.7017, 2051.014
404.1838, 2050.859
404.6660, 2051.093
405.1481, 2052.392
405.6302, 2055.244
406.1123, 2057.380
406.5944, 2057.647
407.0765, 2056.170
407.5587, 2055.738
408.0408, 2056.468
408.5229, 2057.717
409.0050, 2058.827
409.4871, 2059.805
409.9692, 2061.034
410.4514, 2062.715
410.9335, 2064.521
411.4156, 2065.617
411.8977, 2066.059
412.3798, 2066.724
412.8619, 2068.986
413.3441, 2071.735
413.8262, 2072.531
414.3083, 2070.806
414.7904, 2068.676
415.2725, 2067.872
415.7546, 2068.210
416.2368, 2069.280
416.7189, 2072.278
417.2010, 2074.964
417.6831, 2074.936
418.1652, 2072.359
418.6473, 2070.399
419.1295, 2071.470
419.6116, 2073.585
420.0937, 2074.944
420.5758, 2074.564
421.0579, 2074.186
421.5400, 2074.008
422.0222, 2074.240
422.5043, 2075.391
422.9864, 2079.186
423.4685, 2082.549
423.9506, 2084.083
424.4327, 2082.917
424.9149, 2082.654
425.3970, 2084.688
425.8791, 2086.995
426.3612, 2087.405
426.8433, 2083.593
427.3254, 2081.610
427.8076, 2082.980
428.2897, 2087.124
428.7718, 2089.912
429.2539, 2090.938
429.7360, 2091.289
430.2181, 2091.615
430.7003, 2091.991
431.1824, 2091.524
431.6645, 2089.773
432.1466, 2087.852
432.6287, 2088.026
433.1108, 2090.355
433.5930, 2092.396
434.0751, 2092.911
434.5572, 2092.511
435.0393, 2093.431
435.5214, 2095.727
436.0035, 2097.944
436.4857, 2098.411
436.9678, 2097.804
437.4499, 2097.800
437.9320, 2098.930
438.4141, 2100.433
438.8962, 2101.418
439.3784, 2102.058
439.8605, 2102.880
440.3426, 2103.974
440.8247, 2105.460
441.3068, 2107.885
441.7889, 2111.406
442.2711, 2113.946
442.7532, 2113.341
443.2353, 2111.651
443.7174, 2111.017
444.1995, 2113.276
444.6816, 2115.352
445.1638, 2116.339
445.6459, 2116.402
446.1280, 2116.393
446.6101, 2116.455
447.0922, 2116.456
447.5743, 2116.239
448.0565, 2115.393
448.5386, 2115.422
449.0207, 2117.158
449.5028, 2119.252
449.9849, 2119.791
450.4670, 2117.872
450.9492, 2116.511
451.4313, 2116.606
451.9134, 2117.911
452.3955, 2118.402
452.8776, 2117.829
453.3597, 2117.381
453.8419, 2118.202
454.3240, 2120.247
454.8061, 2121.299
455.2882, 2120.943
455.7703, 2120.125
456.2524, 2120.146
456.7346, 2120.955
457.2167, 2122.254
457.6988, 2124.563
458.1809, 2126.978
458.6630, 2127.595
459.1451, 2126.502
459.6273, 2125.505
460.1094, 2126.187
460.5915, 2127.689
461.0736, 2128.993
461.5557, 2130.054
462.0378, 2130.515
462.5200, 2129.278
463.0021, 2127.351
463.4842, 2126.715
463.9663, 2129.912
464.4484, 2133.080
464.9305, 2134.110
465.4127, 2132.783
465.8948, 2131.799
466.3769, 2132.359
466.8590, 2133.090
467.3411, 2132.990
467.8232, 2130.025
468.3054, 2128.865
468.7875, 2130.331
469.2696, 2133.554
469.7517, 2136.508
470.2338, 2139.227
470.7159, 2141.523
471.1981, 2143.224
471.6802, 2144.295
472.1623, 2145.472
472.6444, 2146.732
473.1265, 2148.090
473.6086, 2149.639
474.0908, 2151.363
474.5729, 2152.685
475.0550, 2153.228
475.5371, 2153.706
476.0192, 2156.121
476.5013, 2160.119
476.9835, 2163.004
477.4656, 2162.432
477.9477, 2160.095
478.4298, 2158.420
478.9119, 2157.495
479.3940, 2157.656
479.8762, 2160.758
480.3583, 2164.603
480.8404, 2166.170
481.3225, 2162.956
481.8046, 2159.590
482.2867, 2158.707
482.7689, 2159.576
483.2510, 2160.273
483.7331, 2160.047
484.2152, 2159.698
484.6973, 2159.614
485.1794, 2159.906
485.6616, 2160.146
486.1437, 2160.299
486.6258, 2160.389
487.1079, 2160.352
487.5900, 2159.449
488.0721, 2159.772
488.5543, 2162.128
489.0364, 2165.580
489.5185, 2167.234
490.0006, 2166.429
490.4827, 2165.739
490.9648, 2166.487
491.4470, 2168.555
491.9291, 2169.691
492.4112, 2169.753
492.8933, 2169.542
493.3754, 2169.938
493.8575, 2170.814
494.3397, 2171.545
494.8218, 2172.038
495.3039, 2172.323
495.7860, 2171.965
496.2681, 2171.328
496.7502, 2171.597
497.2324, 2175.116
497.7145, 2178.775
498.1966, 2178.685
498.6787, 2174.634
499.1608, 2172.100
499.6429, 2175.672
500.1251, 2181.110
500.6072, 2184.699
501.0893, 2184.130
501.5714, 2183.549
502.0535, 2184.143
502.5356, 2185.310
503.0178, 2185.692
503.4999, 2184.340
503.9820, 2183.141
504.4641, 2182.664
504.9462, 2182.964
505.4283, 2183.083
505.9105, 2182.940
506.3926, 2182.826
506.8747, 2182.885
507.3568, 2183.082
507.8389, 2184.001
508.3210, 2185.970
508.8032, 2188.202
509.2853, 2189.101
509.7674, 2188.739
510.2495, 2188.544
510.7316, 2189.278
511.2137, 2190.446
511.6959, 2190.899
512.1780, 2190.660
512.6601, 2190.423
513.1422, 2190.925
513.6243, 2191.611
514.1064, 2191.673
514.5886, 2190.777
515.0707, 2189.996
515.5528, 2190.055
516.0349, 2190.675
516.5170, 2191.448
516.9991, 2192.867
517.4813, 2193.861
517.9634, 2192.903
518.4455, 2190.577
518.9276, 2191.445
519.4097, 2200.687
519.8918, 2209.150
520.3740, 2212.742
520.8561, 2209.513
521.3382, 2207.970
521.8203, 2209.147
522.3024, 2210.729
522.7845, 2209.397
523.2667, 2204.208
523.7488, 2201.390
524.2309, 2202.876
524.7130, 2206.806
525.1951, 2208.609
525.6772, 2208.323
526.1594, 2207.500
526.6415, 2206.781
527.1236, 2206.228
527.6057, 2206.115
528.0878, 2206.480
528.5699, 2206.774
529.0521, 2206.172
529.5342, 2205.382
530.0163, 2205.410
530.4984, 2206.965
530.9805, 2208.590
531.4626, 2209.022
531.9448, 2208.981
532.4269, 2209.860
532.9090, 2213.095
533.3911, 2216.265
533.8732, 2218.406
534.3553, 2219.399
534.8375, 2220.749
535.3196, 2222.873
535.8017, 2224.882
536.2838, 2226.402
536.7659, 2227.785
537.2480, 2227.222
537.7302, 2223.539
538.2123, 2219.464
538.6944, 2219.929
539.1765, 2225.383
539.6586, 2229.019
540.1407, 2228.340
540.6229, 2225.291
541.1050, 2224.590
541.5871, 2226.052
542.0692, 2227.526
542.5513, 2227.948
543.0334, 2227.496
543.5156, 2226.008
543.9977, 2223.442
544.4798, 2221.503
544.9619, 2221.761
545.4440, 2223.155
545.9261, 2224.543
546.4083, 2225.740
546.8904, 2226.638
547.3725, 2226.516
547.8546, 2226.033
548.3367, 2226.634
548.8188, 2229.610
549.3010, 2232.470
549.7831, 2234.591
550.2652, 2235.968
550.7473, 2237.250
551.2294, 2238.665
551.7115, 2239.614
552.1937, 2239.615
552.6758, 2238.578
553.1579, 2237.740
553.6400, 2237.216
554.1221, 2236.864
554.6042, 2236.469
555.0864, 2236.071
555.5685, 2235.798
556.0506, 2235.515
556.5327, 2235.587
557.0148, 2236.907
557.4969, 2239.118
557.9791, 2240.933
558.4612, 2241.297
558.9433, 2241.117
559.4254, 2241.102
559.9075, 2241.292
560.3896, 2241.339
560.8718, 2240.667
561.3539, 2240.059
561.8360, 2240.121
562.3181, 2241.469
562.8002, 2242.755
563.2823, 2243.874
563.7645, 2244.962
564.2466, 2246.384
564.7287, 2248.900
565.2108, 2250.013
565.6929, 2248.605
566.1750, 2245.442
566.6572, 2244.009
567.1393, 2244.485
567.6214, 2245.388
568.1035, 2245.785
568.5856, 2245.843
569.0677, 2246.352
569.5499, 2247.336
570.0320, 2248.363
570.5141, 2248.958
570.9962, 2249.315
571.4783, 2249.809
571.9604, 2250.745
572.4426, 2251.390
572.9247, 2250.868
573.4068, 2249.805
573.8889, 2249.309
574.3710, 2249.896
574.8531, 2251.010
575.3353, 2252.918
575.8174, 2255.504
576.2995, 2257.194
576.7816, 2257.932
577.2637, 2257.797
577.7458, 2256.347
578.2280, 2252.898
578.7101, 2252.126
579.1922, 2254.778
579.6743, 2258.446
580.1564, 2260.721
580.6385, 2261.644
581.1207, 2261.993
581.6028, 2261.616
582.0849, 2261.343
582.5670, 2262.988
583.0491, 2265.890
583.5313, 2268.000
584.0134, 2267.436
584.4955, 2266.266
584.9776, 2266.077
585.4597, 2266.875
585.9418, 2268.608
586.4240, 2273.360
586.9061, 2277.397
587.3882, 2277.918
587.8703, 2273.180
588.3524, 2270.561
588.8345, 2272.867
589.3167, 2276.353
589.7988, 2278.014
590.2809, 2276.545
590.7630, 2276.351
591.2451, 2278.223
591.7272, 2281.043
592.2094, 2282.685
592.6915, 2283.082
593.1736, 2283.287
593.6557, 2283.729
594.1378, 2284.177
594.6199, 2283.848
595.1021, 2282.860
595.5842, 2282.114
596.0663, 2282.199
596.5484, 2282.848
597.0305, 2283.863
597.5126, 2285.237
597.9948, 2286.591
598.4769, 2288.350
598.9590, 2289.624
599.4411, 2289.495
599.9232, 2285.871
600.4053, 2284.007
600.8875, 2286.109
601.3696, 2289.927
601.8517, 2292.361
602.3338, 2292.803
602.8159, 2293.040
603.2980, 2293.410
603.7802, 2293.808
604.2623, 2293.592
604.7444, 2292.596
605.2265, 2292.309
605.7086, 2293.460
606.1907, 2295.910
606.6729, 2299.906
607.1550, 2305.364
607.6371, 2309.901
608.1192, 2311.405
608.6013, 2310.861
609.0834, 2309.282
609.5656, 2306.586
610.0477, 2303.943
610.5298, 2301.687
611.0119, 2300.000
611.4940, 2299.075
611.9761, 2299.475
612.4583, 2300.149
612.9404, 2301.414
613.4225, 2302.863
613.9046, 2303.500
614.3867, 2302.923
614.8688, 2302.354
615.3510, 2301.718
615.8331, 2301.317
616.3152, 2303.698
616.7973, 2309.124
617.2794, 2314.221
617.7615, 2316.311
618.2437, 2316.210
618.7258, 2316.148
619.2079, 2316.177
619.6900, 2316.507
620.1721, 2317.599
620.6542, 2318.952
621.1364, 2319.984
621.6185, 2320.653
622.1006, 2320.823
622.5827, 2320.169
623.0648, 2319.128
623.5469, 2318.302
624.0291, 2318.219
624.5112, 2317.974
624.9933, 2317.307
625.4754, 2316.481
625.9575, 2316.418
626.4396, 2317.521
626.9218, 2318.307
627.4039, 2317.837
627.8860, 2316.518
628.3681, 2317.087
628.8502, 2319.598
629.3323, 2322.320
629.8145, 2324.101
630.2966, 2325.114
630.7787, 2325.569
631.2608, 2325.421
631.7429, 2325.309
632.2250, 2325.774
632.7072, 2326.464
633.1893, 2326.961
633.6714, 2326.745
634.1535, 2326.978
634.6356, 2328.230
635.1177, 2330.023
635.5999, 2331.633
636.0820, 2333.025
636.5641, 2334.292
637.0462, 2335.653
637.5283, 2336.848
638.0104, 2336.737
638.4926, 2335.062
638.9747, 2333.842
639.4568, 2334.533
639.9389, 2336.322
640.4210, 2336.188
640.9031, 2334.251
641.3853, 2332.165
641.8674, 2330.548
642.3495, 2329.772
642.8316, 2330.863
643.3137, 2334.198
643.7958, 2336.582
644.2780, 2335.388
644.7601, 2333.091
645.2422, 2331.866
645.7243, 2332.854
646.2064, 2333.678
646.6885, 2333.906
647.1707, 2334.035
647.6528, 2334.952
648.1349, 2337.284
648.6170, 2338.060
649.0991, 2335.941
649.5812, 2332.739
650.0634, 2333.042
650.5455, 2336.640
651.0276, 2340.395
651.5097, 2342.761
651.9918, 2344.528
652.4739, 2347.361
652.9561, 2350.905
653.4382, 2353.460
653.9203, 2352.586
654.4024, 2351.420
654.8845, 2352.639
655.3666, 2356.797
655.8488, 2359.497
656.3309, 2358.864
656.8130, 2357.136
657.2951, 2355.571
657.7772, 2353.936
658.2593, 2353.217
658.7415, 2353.774
659.2236, 2354.675
659.7057, 2354.707
660.1878, 2353.896
660.6699, 2353.544
661.1520, 2353.976
661.6342, 2354.728
662.1163, 2355.207
662.5984, 2355.476
663.0805, 2355.695
663.5626, 2355.676
664.0447, 2355.867
664.5269, 2356.781
665.0090, 2358.167
665.4911, 2359.330
665.9732, 2359.971
666.4553, 2360.449
666.9374, 2360.974
667.4196, 2361.547
667.9017, 2361.644
668.3838, 2360.864
668.8659, 2360.455
669.3480, 2361.438
669.8301, 2363.788
670.3123, 2364.457
670.7944, 2363.278
671.2765, 2361.733
671.7586, 2360.596
672.2407, 2360.123
672.7228, 2361.238
673.2050, 2364.313
673.6871, 2367.205
674.1692, 2367.684
674.6513, 2367.311
675.1334, 2368.009
675.6155, 2372.048
676.0977, 2374.427
676.5798, 2371.902
677.0619, 2367.724
677.5440, 2366.980
678.0261, 2372.010
678.5082, 2375.514
678.9904, 2375.871
679.4725, 2374.277
679.9546, 2373.741
680.4367, 2374.304
680.9188, 2375.154
681.4009, 2376.251
681.8831, 2377.262
682.3652, 2376.866
682.8473, 2375.527
683.3294, 2375.511
683.8115, 2380.532
684.2936, 2385.536
684.7758, 2386.105
685.2579, 2382.001
685.7400, 2379.174
686.2221, 2380.169
686.7042, 2381.996
687.1863, 2382.892
687.6685, 2382.207
688.1506, 2383.590
688.6327, 2387.780
689.1148, 2392.519
689.5969, 2395.979
690.0790, 2398.181
690.5612, 2398.996
691.0433, 2398.079
691.5254, 2397.269
692.0075, 2399.664
692.4896, 2403.490
692.9717, 2405.271
693.4539, 2402.936
693.9360, 2400.574
694.4181, 2401.006
694.9002, 2402.832
695.3823, 2403.884
695.8644, 2402.518
696.3466, 2401.902
696.8287, 2403.025
697.3108, 2405.133
697.7929, 2406.120
698.2750, 2405.792
698.7571, 2405.320
699.2393, 2405.062
699.7214, 2404.996
700.2035, 2404.819
700.6856, 2404.609
701.1677, 2405.003
701.6498, 2407.194
702.1320, 2409.654
702.6141, 2410.088
703.0962, 2408.740
703.5783, 2408.304
704.0604, 2410.586
704.5425, 2413.592
705.0247, 2416.113
705.5068, 2417.861
705.9889, 2420.082
706.4710, 2422.852
706.9531, 2425.950
707.4352, 2429.669
707.9174, 2434.250
708.3995, 2436.277
708.8816, 2435.336
709.3637, 2433.672
709.8458, 2433.509
710.3279, 2434.484
710.8101, 2435.683
711.2922, 2436.973
711.7743, 2438.502
712.2564, 2440.629
712.7385, 2443.022
713.2206, 2445.287
713.7028, 2447.277
714.1849, 2449.217
714.6670, 2451.015
715.1491, 2452.835
715.6312, 2454.986
716.1133, 2457.719
716.5955, 2459.966
717.0776, 2461.369
717.5597, 2462.331
718.0418, 2463.678
718.5239, 2465.364
719.0060, 2467.021
719.4882, 2468.359
719.9703, 2469.668
720.4524, 2471.546
720.9345, 2473.701
721.4166, 2475.387
721.8987, 2475.606
722.3809, 2475.843
722.8630, 2477.245
723.3451, 2479.556
723.8272, 2480.439
724.3093, 2479.220
724.7914, 2477.514
725.2736, 2475.896
725.7557, 2474.362
726.2378, 2472.315
726.7199, 2469.611
727.2020, 2467.749
727.6841, 2468.375
728.1663, 2470.418
728.6484, 2471.285
729.1305, 2470.956
729.6126, 2470.948
730.0947, 2472.663
730.5768, 2474.856
731.0590, 2476.467
731.5411, 2477.204
732.0232, 2478.079
732.5053, 2479.183
732.9874, 2480.482
733.4695, 2481.949
733.9517, 2483.525
734.4338, 2485.363
734.9159, 2487.477
735.3980, 2489.765
735.8801, 2492.183
736.3622, 2494.699
736.8444, 2497.245
737.3265, 2499.881
737.8086, 2502.315
738.2907, 2503.641
738.7728, 2504.865
739.2549, 2507.431
739.7371, 2513.128
740.2192, 2517.859
740.7013, 2519.402
741.1834, 2519.825
741.6655, 2522.067
742.1476, 2527.396
742.6298, 2531.303
743.1119, 2532.777
743.5940, 2533.135
744.0761, 2534.850
744.5582, 2537.733
745.0403, 2540.473
745.5225, 2542.888
746.0046, 2544.510
746.4867, 2544.622
746.9688, 2543.504
747.4509, 2541.784
747.9330, 2539.555
748.4152, 2536.944
748.8973, 2533.753
749.3794, 2530.191
749.8615, 2527.056
750.3436, 2524.771
750.8257, 2522.278
751.3079, 2519.655
751.7900, 2516.591
752.2721, 2511.476
752.7542, 2504.320
753.2363, 2497.786
753.7184, 2493.332
754.2006, 2490.264
754.6827, 2487.602
755.1648, 2485.365
755.6469, 2483.711
756.1290, 2483.748
756.6111, 2483.427
757.0933, 2481.109
757.5754, 2476.938
758.0575, 2473.961
758.5396, 2472.544
759.0217, 2471.999
759.5038, 2472.381
759.9860, 2473.522
760.4681, 2473.396
760.9502, 2471.857
761.4323, 2470.626
761.9144, 2471.182
762.3965, 2472.684
762.8787, 2473.769
763.3608, 2474.370
763.8429, 2474.440
764.3250, 2473.504
764.8071, 2472.357
765.2892, 2471.349
765.7714, 2470.409
766.2535, 2470.572
766.7356, 2472.337
767.2177, 2474.607
767.6998, 2476.851
768.1819, 2479.101
768.6641, 2481.818
769.1462, 2485.277
769.6283, 2487.031
770.1104, 2482.883
770.5925, 2476.162
771.0746, 2473.639
771.5568, 2476.065
772.0389, 2479.299
772.5210, 2481.470
773.0031, 2482.901
773.4852, 2483.830
773.9673, 2484.206
774.4495, 2484.109
774.9316, 2482.997
775.4137, 2482.028
775.8958, 2482.344
776.3779, 2484.118
776.8600, 2484.686
777.3422, 2483.833
777.8243, 2482.660
778.3064, 2481.879
778.7885, 2481.700
779.2706, 2482.973
779.7527, 2486.221
780.2349, 2488.512
780.7170, 2487.702
781.1991, 2485.421
781.6812, 2482.980
782.1633, 2479.917
782.6454, 2478.169
783.1276, 2478.100
783.6097, 2478.939
784.0918, 2480.118
784.5739, 2481.640
785.0560, 2482.787
785.5381, 2483.451
786.0203, 2483.857
786.5024, 2484.300
786.9845, 2484.634
787.4666, 2484.395
787.9487, 2483.026
788.4308, 2482.547
788.9130, 2484.768
789.3951, 2487.905
789.8772, 2490.100
790.3593, 2490.074
790.8414, 2491.103
791.3235, 2493.455
791.8057, 2496.456
792.2878, 2499.634
792.7699, 2502.922
793.2520, 2504.622
793.7341, 2504.228
794.2162, 2503.417
794.6984, 2504.217
795.1805, 2505.750
795.6626, 2506.618
796.1447, 2506.305
796.6268, 2505.787
797.1089, 2505.427
797.5911, 2505.071
798.0732, 2504.507
798.5553, 2503.428
799.0374, 2502.977
799.5195, 2503.355
800.0016, 2504.196
800.4838, 2505.361
800.9659, 2506.703
801.4480, 2507.150
801.9301, 2506.327
802.4122, 2505.425
802.8943, 2505.406
803.3765, 2506.101
803.8586, 2507.289
804.3407, 2508.956
804.8228, 2511.004
805.3049, 2514.191
805.7870, 2517.259
806.2692, 2518.681
806.7513, 2517.677
807.2334, 2518.146
807.7155, 2520.683
808.1976, 2523.870
808.6797, 2526.278
809.1619, 2527.811
809.6440, 2528.013
810.1261, 2526.445
810.6082, 2524.817
811.0903, 2523.982
811.5724, 2523.999
812.0546, 2525.031
812.5367, 2528.583
813.0188, 2530.726
813.5009, 2530.459
813.9830, 2529.673
814.4651, 2530.750
814.9473, 2533.916
815.4294, 2535.637
815.9115, 2535.413
816.3936, 2534.577
816.8757, 2533.793
817.3578, 2533.710
817.8400, 2535.938
818.3221, 2541.781
818.8042, 2546.473
819.2863, 2545.773
819.7684, 2543.882
820.2505, 2545.058
820.7327, 2551.788
821.2148, 2555.975
821.6969, 2556.838
822.1790, 2556.438
822.6611, 2556.884
823.1432, 2557.992
823.6254, 2558.735
824.1075, 2558.985
824.5896, 2558.900
825.0717, 2558.560
825.5538, 2558.019
826.0359, 2557.381
826.5181, 2556.767
827.0002, 2555.874
827.4823, 2554.649
827.9644, 2553.222
828.4465, 2551.543
828.9286, 2549.462
829.4108, 2548.451
829.8929, 2548.780
830.3750, 2549.299
830.8571, 2548.335
831.3392, 2546.935
831.8214, 2548.091
832.3035, 2552.219
832.7856, 2554.923
833.2677, 2550.738
833.7498, 2545.897
834.2319, 2545.655
834.7141, 2552.322
835.1962, 2555.812
835.6783, 2554.675
836.1604, 2552.662
836.6425, 2552.082
837.1246, 2552.836
837.6068, 2553.723
838.0889, 2554.728
838.5710, 2556.086
839.0531, 2558.355
839.5352, 2560.858
840.0173, 2562.974
840.4995, 2564.675
840.9816, 2565.839
841.4637, 2565.568
841.9458, 2565.633
842.4279, 2567.136
842.9100, 2570.019
843.3922, 2571.148
843.8743, 2570.177
844.3564, 2569.226
844.8385, 2569.796
845.3206, 2571.200
845.8027, 2571.883
846.2849, 2571.920
846.7670, 2571.776
847.2491, 2572.058
847.7312, 2571.940
848.2133, 2570.619
848.6954, 2568.300
849.1776, 2566.831
849.6597, 2566.445
850.1418, 2566.665
850.6239, 2567.444
851.1060, 2568.722
851.5881, 2570.506
852.0703, 2572.702
852.5524, 2574.365
853.0345, 2573.788
853.5166, 2573.583
853.9987, 2577.150
854.4808, 2582.952
854.9630, 2587.136
855.4451, 2587.796
855.9272, 2587.337
856.4093, 2585.249
856.8914, 2582.793
857.3735, 2583.377
857.8557, 2587.332
858.3378, 2589.948
858.8199, 2589.571
859.3020, 2588.173
859.7841, 2589.115
860.2662, 2591.215
860.7484, 2591.921
861.2305, 2589.031
861.7126, 2586.665
862.1947, 2586.781
862.6768, 2588.196
863.1589, 2589.283
863.6411, 2590.304
864.1232, 2589.989
864.6053, 2587.615
865.0874, 2585.342
865.5695, 2586.980
866.0516, 2591.094
866.5338, 2593.060
867.0159, 2591.768
867.4980, 2589.595
867.9801, 2586.342
868.4622, 2584.112
868.9443, 2585.332
869.4265, 2593.191
869.9086, 2597.629
870.3907, 2597.731
870.8728, 2595.819
871.3549, 2592.823
871.8370, 2589.032
872.3192, 2588.423
872.8013, 2591.187
873.2834, 2594.347
873.7655, 2595.737
874.2476, 2596.101
874.7297, 2596.156
875.2119, 2595.963
875.6940, 2595.182
876.1761, 2592.830
876.6582, 2590.800
877.1403, 2589.899
877.6224, 2590.044
878.1046, 2590.346
878.5867, 2590.848
879.0688, 2590.825
879.5509, 2589.124
880.0330, 2587.113
880.5151, 2587.429
880.9973, 2589.357
881.4794, 2590.063
881.9615, 2586.548
882.4436, 2583.617
882.9257, 2583.527
883.4078, 2585.334
883.8900, 2586.472
884.3721, 2586.905
884.8542, 2586.768
885.3363, 2585.873
885.8184, 2584.756
886.3005, 2583.800
886.7827, 2583.369
887.2648, 2584.550
887.7469, 2589.149
888.2290, 2593.217
888.7111, 2594.572
889.1932, 2594.493
889.6754, 2594.929
890.1575, 2596.357
890.6396, 2597.038
891.1217, 2596.588
891.6038, 2595.972
892.0859, 2596.407
892.5681, 2597.670
893.0502, 2599.286
893.5323, 2601.310
894.0144, 2602.652
894.4965, 2601.403
894.9786, 2599.886
895.4608, 2600.318
895.9429, 2603.754
896.4250, 2605.903
896.9071, 2606.213
897.3892, 2606.261
897.8713, 2606.979
898.3535, 2608.333
898.8356, 2610.650
899.3177, 2613.794
899.7998, 2615.791
900.2819, 2614.195
900.7640, 2611.886
901.2462, 2611.169
901.7283, 2611.978
902.2104, 2612.366
902.6925, 2612.125
903.1746, 2611.426
903.6567, 2609.847
904.1389, 2608.124
904.6210, 2609.031
905.1031, 2612.274
905.5852, 2615.250
906.0673, 2617.040
906.5494, 2617.906
907.0316, 2617.224
907.5137, 2615.953
907.9958, 2615.800
908.4779, 2618.508
908.9600, 2620.535
909.4421, 2621.406
909.9243, 2621.632
910.4064, 2621.704
910.8885, 2621.665
911.3706, 2622.220
911.8527, 2623.502
912.3348, 2625.295
912.8170, 2628.568
913.2991, 2631.630
913.7812, 2632.297
914.2633, 2629.589
914.7454, 2627.175
915.2275, 2625.180
915.7097, 2624.167
916.1918, 2624.842
916.6739, 2627.168
917.1560, 2628.256
917.6381, 2628.085
918.1202, 2628.180
918.6024, 2629.900
919.0845, 2632.216
919.5666, 2634.492
920.0487, 2636.478
920.5308, 2637.214
921.0129, 2634.351
921.4951, 2632.724
921.9772, 2634.270
922.4593, 2637.530
922.9414, 2637.317
923.4235, 2633.716
923.9056, 2632.616
924.3878, 2637.147
924.8699, 2642.526
925.3520, 2643.175
925.8341, 2641.021
926.3162, 2639.142
926.7983, 2638.354
927.2805, 2638.026
927.7626, 2638.022
928.2447, 2638.535
928.7268, 2640.215
929.2089, 2643.119
929.6910, 2644.240
930.1732, 2643.263
930.6553, 2642.108
931.1374, 2642.479
931.6195, 2643.677
932.1016, 2644.929
932.5837, 2646.117
933.0659, 2647.652
933.5480, 2650.113
934.0301, 2652.241
934.5122, 2653.346
934.9943, 2653.578
935.4764, 2654.079
935.9586, 2654.808
936.4407, 2655.851
936.9228, 2657.606
937.4049, 2659.318
937.8870, 2660.210
938.3691, 2660.469
938.8513, 2660.525
939.3334, 2660.568
939.8155, 2660.403
940.2976, 2660.115
940.7797, 2659.645
941.2618, 2658.766
941.7440, 2657.569
942.2261, 2656.668
942.7082, 2656.141
943.1903, 2656.223
943.6724, 2657.073
944.1545, 2658.656
944.6367, 2661.191
945.1188, 2665.130
945.6009, 2667.931
946.0830, 2669.233
946.5651, 2669.476
947.0472, 2668.560
947.5294, 2666.615
948.0115, 2665.102
948.4936, 2663.994
948.9757, 2663.354
949.4578, 2663.464
949.9399, 2663.890
950.4221, 2664.698
950.9042, 2665.675
951.3863, 2665.886
951.8684, 2665.295
952.3505, 2664.144
952.8326, 2662.310
953.3148, 2660.380
953.7969, 2659.721
954.2790, 2660.000
954.7611, 2659.291
955.2432, 2656.562
955.7253, 2654.867
956.2075, 2657.819
956.6896, 2662.013
957.1717, 2663.778
957.6538, 2661.427
958.1359, 2660.985
958.6180, 2662.946
959.1002, 2665.372
959.5823, 2666.314
960.0644, 2666.598
960.5465, 2669.444
961.0286, 2674.496
961.5107, 2678.691
961.9929, 2680.146
962.4750, 2680.485
962.9571, 2679.731
963.4392, 2678.557
963.9213, 2679.469
964.4034, 2683.274
964.8856, 2685.895
965.3677, 2686.143
965.8498, 2685.208
966.3319, 2684.050
966.8140, 2683.334
967.2961, 2684.781
967.7783, 2689.960
968.2604, 2694.338
968.7425, 2696.307
969.2246, 2696.688
969.7067, 2695.813
970.1888, 2693.308
970.6710, 2692.486
971.1531, 2693.466
971.6352, 2694.869
972.1173, 2695.472
972.5994, 2695.925
973.0815, 2697.472
973.5637, 2699.813
974.0458, 2701.208
974.5279, 2700.305
975.0100, 2699.243
975.4921, 2698.432
975.9742, 2697.907
976.4564, 2697.718
976.9385, 2697.894
977.4206, 2698.690
977.9027, 2700.460
978.3848, 2702.134
978.8669, 2702.585
979.3491, 2702.471
979.8312, 2702.688
980.3133, 2704.079
980.7954, 2703.867
981.2775, 2700.923
981.7596, 2698.203
982.2418, 2697.948
982.7239, 2699.704
983.2060, 2701.210
983.6881, 2702.461
984.1702, 2703.861
984.6523, 2706.068
985.1345, 2708.011
985.6166, 2708.663
986.0987, 2708.460
986.5808, 2709.180
987.0629, 2711.189
987.5450, 2712.893
988.0272, 2713.854
988.5093, 2714.769
988.9914, 2717.662
989.4735, 2721.104
989.9556, 2721.348
990.4377, 2716.320
990.9199, 2713.731
991.4020, 2720.829
991.8841, 2727.994
992.3662, 2728.091
992.8483, 2720.825
993.3304, 2717.634
993.8126, 2718.707
994.2947, 2720.483
994.7768, 2720.634
995.2589, 2720.304
995.7410, 2720.649
996.2231, 2721.635
996.7053, 2723.166
997.1874, 2725.904
997.6695, 2728.165
998.1516, 2729.576
998.6337, 2730.543
999.1158, 2731.861
999.5980, 2733.401
1000.080, 2734.160
1000.562, 2733.949
1001.044, 2733.493
1001.526, 2732.626
1002.009, 2732.319
1002.491, 2733.824
1002.973, 2737.531
1003.455, 2739.867
1003.937, 2740.687
1004.419, 2740.644
1004.901, 2739.652
1005.383, 2738.352
1005.865, 2737.864
1006.348, 2738.211
1006.830, 2739.450
1007.312, 2742.632
1007.794, 2745.386
1008.276, 2746.222
1008.758, 2746.720
1009.240, 2748.800
1009.722, 2752.665
1010.205, 2755.659
1010.687, 2757.625
1011.169, 2758.794
1011.651, 2758.938
1012.133, 2758.738
1012.615, 2758.840
1013.097, 2759.306
1013.579, 2760.145
1014.061, 2761.632
1014.544, 2763.056
1015.026, 2764.241
1015.508, 2765.211
1015.990, 2765.711
1016.472, 2766.000
1016.954, 2767.384
1017.436, 2771.129
1017.918, 2773.876
1018.401, 2771.620
1018.883, 2768.563
1019.365, 2769.239
1019.847, 2774.841
1020.329, 2778.604
1020.811, 2780.312
1021.293, 2781.459
1021.775, 2783.148
1022.257, 2784.945
1022.740, 2785.652
1023.222, 2785.769
1023.704, 2787.207
1024.186, 2791.992
1024.668, 2796.371
1025.150, 2799.030
1025.632, 2801.313
1026.114, 2805.657
1026.596, 2811.783
1027.079, 2818.094
1027.561, 2824.385
1028.043, 2830.309
1028.525, 2835.064
1029.007, 2839.738
1029.489, 2845.075
1029.971, 2851.158
1030.453, 2858.469
1030.936, 2867.284
1031.418, 2876.603
1031.900, 2886.251
1032.382, 2896.030
1032.864, 2904.514
1033.346, 2912.808
1033.828, 2923.384
1034.310, 2938.196
1034.792, 2953.676
1035.275, 2968.880
1035.757, 2984.497
1036.239, 3001.510
1036.721, 3019.800
1037.203, 3038.199
1037.685, 3056.411
1038.167, 3075.786
1038.649, 3096.650
1039.132, 3119.574
1039.614, 3145.816
1040.096, 3174.936
1040.578, 3204.759
1041.060, 3235.414
1041.542, 3266.561
1042.024, 3298.352
1042.506, 3331.159
1042.989, 3366.876
1043.471, 3404.229
1043.953, 3440.755
1044.435, 3476.299
1044.917, 3511.473
1045.399, 3548.103
1045.881, 3583.076
1046.363, 3613.900
1046.845, 3641.267
1047.328, 3671.536
1047.810, 3704.746
1048.292, 3734.794
1048.774, 3758.559
1049.256, 3779.129
1049.738, 3800.411
1050.220, 3819.923
1050.702, 3833.170
1051.184, 3836.597
1051.667, 3842.985
1052.149, 3854.203
1052.631, 3863.015
1053.113, 3862.319
1053.595, 3855.125
1054.077, 3847.039
1054.559, 3838.157
1055.041, 3827.254
1055.523, 3813.845
1056.006, 3798.226
1056.488, 3781.069
1056.970, 3761.537
1057.452, 3737.405
1057.934, 3709.035
1058.416, 3679.503
1058.898, 3649.488
1059.380, 3617.714
1059.863, 3582.695
1060.345, 3546.678
1060.827, 3511.588
1061.309, 3477.500
1061.791, 3444.251
1062.273, 3411.940
1062.755, 3379.733
1063.237, 3347.692
1063.719, 3315.422
1064.202, 3280.717
1064.684, 3245.320
1065.166, 3212.424
1065.648, 3183.271
1066.130, 3157.192
1066.612, 3134.943
1067.094, 3114.039
1067.576, 3091.698
1068.059, 3068.591
1068.541, 3050.341
1069.023, 3036.500
1069.505, 3023.419
1069.987, 3009.591
1070.469, 2995.379
1070.951, 2979.981
1071.433, 2964.944
1071.916, 2953.718
1072.398, 2946.812
1072.880, 2939.764
1073.362, 2931.913
1073.844, 2924.783
1074.326, 2921.053
1074.808, 2918.248
1075.290, 2913.472
1075.772, 2906.504
1076.255, 2900.545
1076.737, 2896.135
1077.219, 2892.117
1077.701, 2888.124
1078.183, 2884.384
1078.665, 2881.244
1079.147, 2878.708
1079.629, 2876.898
1080.111, 2876.076
1080.594, 2875.132
1081.076, 2872.798
1081.558, 2871.051
1082.040, 2871.373
1082.522, 2873.460
1083.004, 2874.153
1083.486, 2873.611
1083.968, 2873.431
1084.450, 2875.181
1084.933, 2876.799
1085.415, 2876.960
1085.897, 2876.134
1086.379, 2875.062
1086.861, 2873.615
1087.343, 2872.700
1087.825, 2872.435
1088.307, 2872.355
1088.790, 2872.758
1089.272, 2872.677
1089.754, 2869.886
1090.236, 2865.166
1090.718, 2863.098
1091.200, 2866.419
1091.682, 2868.907
1092.164, 2869.317
1092.646, 2868.811
1093.129, 2869.444
1093.611, 2870.508
1094.093, 2870.222
1094.575, 2868.255
1095.057, 2865.614
1095.539, 2861.085
1096.021, 2857.871
1096.503, 2857.630
1096.986, 2859.607
1097.468, 2860.925
1097.950, 2861.720
1098.432, 2863.229
1098.914, 2866.427
1099.396, 2868.934
1099.878, 2868.615
1100.360, 2867.017
1100.843, 2865.442
1101.325, 2863.817
1101.807, 2863.656
1102.289, 2865.077
1102.771, 2866.734
1103.253, 2868.189
1103.735, 2869.156
1104.217, 2868.348
1104.699, 2867.008
1105.182, 2867.618
1105.664, 2873.474
1106.146, 2875.684
1106.628, 2873.054
1107.110, 2869.407
1107.592, 2867.618
1108.074, 2867.482
1108.556, 2868.816
1109.038, 2871.426
1109.521, 2874.397
1110.003, 2877.207
1110.485, 2880.795
1110.967, 2886.520
1111.449, 2891.708
1111.931, 2891.164
1112.413, 2886.364
1112.895, 2884.443
1113.377, 2886.278
1113.860, 2887.844
1114.342, 2885.549
1114.824, 2883.545
1115.306, 2884.954
1115.788, 2888.296
1116.270, 2888.000
1116.752, 2884.167
1117.234, 2882.046
1117.717, 2883.152
1118.199, 2885.505
1118.681, 2888.615
1119.163, 2891.232
1119.645, 2891.980
1120.127, 2890.745
1120.609, 2888.668
1121.091, 2885.342
1121.573, 2883.777
1122.056, 2886.392
1122.538, 2889.493
1123.020, 2887.297
1123.502, 2882.743
1123.984, 2880.573
1124.466, 2883.577
1124.948, 2884.703
1125.430, 2883.141
1125.913, 2881.699
1126.395, 2882.956
1126.877, 2885.375
1127.359, 2884.801
1127.841, 2882.429
1128.323, 2881.522
1128.805, 2885.137
1129.287, 2887.669
1129.770, 2887.986
1130.252, 2887.636
1130.734, 2888.053
1131.216, 2889.060
1131.698, 2890.351
1132.180, 2891.731
1132.662, 2892.151
1133.144, 2888.919
1133.626, 2887.121
1134.109, 2889.219
1134.591, 2893.114
1135.073, 2896.083
1135.555, 2898.058
1136.037, 2898.398
1136.519, 2897.008
1137.001, 2895.308
1137.483, 2893.343
1137.965, 2892.411
1138.448, 2894.988
1138.930, 2899.216
1139.412, 2898.575
1139.894, 2892.786
1140.376, 2888.679
1140.858, 2887.735
1141.340, 2888.680
1141.822, 2891.728
1142.304, 2895.087
1142.787, 2897.039
1143.269, 2897.437
1143.751, 2897.664
1144.233, 2897.519
1144.715, 2898.063
1145.197, 2899.683
1145.679, 2901.893
1146.161, 2904.873
1146.644, 2907.587
1147.126, 2908.493
1147.608, 2906.592
1148.090, 2905.610
1148.572, 2905.910
1149.054, 2906.096
1149.536, 2905.121
1150.018, 2904.086
1150.500, 2905.483
1150.983, 2908.192
1151.465, 2909.964
1151.947, 2909.915
1152.429, 2909.419
1152.911, 2908.314
1153.393, 2907.472
1153.875, 2907.574
1154.357, 2908.372
1154.840, 2910.003
1155.322, 2911.803
1155.804, 2911.596
1156.286, 2904.766
1156.768, 2901.453
1157.250, 2904.242
1157.732, 2908.852
1158.214, 2911.643
1158.697, 2912.868
1159.179, 2913.300
1159.661, 2913.090
1160.143, 2912.947
1160.625, 2912.914
1161.107, 2913.374
1161.589, 2914.404
1162.071, 2915.938
1162.553, 2918.571
1163.036, 2921.865
1163.518, 2922.283
1164.000, 2919.762
1164.482, 2917.528
1164.964, 2917.930
1165.446, 2918.719
1165.928, 2918.907
1166.410, 2918.789
1166.892, 2918.851
1167.375, 2919.111
1167.857, 2919.554
1168.339, 2920.186
1168.821, 2920.989
1169.303, 2921.901
1169.785, 2923.005
1170.267, 2924.115
1170.749, 2925.468
1171.231, 2928.299
1171.714, 2932.568
1172.196, 2935.214
1172.678, 2935.319
1173.160, 2935.314
1173.642, 2937.501
1174.124, 2940.209
1174.606, 2942.220
1175.088, 2943.560
1175.571, 2944.302
1176.053, 2944.454
1176.535, 2944.222
1177.017, 2943.490
1177.499, 2943.050
1177.981, 2944.127
1178.463, 2945.534
1178.945, 2945.718
1179.427, 2944.614
1179.910, 2945.597
1180.392, 2948.858
1180.874, 2952.270
1181.356, 2955.346
1181.838, 2957.506
1182.320, 2957.470
1182.802, 2956.545
1183.284, 2956.218
1183.767, 2956.657
1184.249, 2957.857
1184.731, 2960.141
1185.213, 2961.064
1185.695, 2958.910
1186.177, 2955.760
1186.659, 2953.771
1187.141, 2952.501
1187.624, 2951.382
1188.106, 2950.376
1188.588, 2949.346
1189.070, 2948.167
1189.552, 2947.967
1190.034, 2950.208
1190.516, 2952.945
1190.998, 2953.406
1191.480, 2952.729
1191.963, 2952.910
1192.445, 2954.687
1192.927, 2956.275
1193.409, 2957.785
1193.891, 2958.379
1194.373, 2955.745
1194.855, 2953.094
1195.337, 2955.296
1195.819, 2960.625
1196.302, 2965.339
1196.784, 2968.699
1197.266, 2971.922
1197.748, 2975.336
1198.230, 2977.247
1198.712, 2974.925
1199.194, 2971.274
1199.676, 2970.398
1200.158, 2971.495
1200.641, 2972.173
1201.123, 2971.574
1201.605, 2971.980
1202.087, 2973.846
1202.569, 2975.521
1203.051, 2974.796
1203.533, 2973.479
1204.015, 2974.015
1204.498, 2976.069
1204.980, 2978.355
1205.462, 2981.730
1205.944, 2982.357
1206.426, 2979.218
1206.908, 2975.995
1207.390, 2977.021
1207.872, 2979.615
1208.354, 2979.529
1208.837, 2977.601
1209.319, 2978.798
1209.801, 2985.389
1210.283, 2990.314
1210.765, 2992.680
1211.247, 2993.541
1211.729, 2992.904
1212.211, 2992.202
1212.694, 2994.039
1213.176, 2997.845
1213.658, 2999.253
1214.140, 2996.713
1214.622, 2995.894
1215.104, 2998.034
1215.586, 3000.452
1216.068, 3000.054
1216.551, 2998.477
1217.033, 2997.717
1217.515, 2997.775
1217.997, 2997.350
1218.479, 2996.080
1218.961, 2995.282
1219.443, 2995.123
1219.925, 2995.648
1220.407, 2997.188
1220.890, 2999.184
1221.372, 3001.060
1221.854, 3002.713
1222.336, 3004.199
1222.818, 3005.252
1223.300, 3007.232
1223.782, 3010.661
1224.264, 3013.833
1224.746, 3014.251
1225.229, 3013.888
1225.711, 3015.167
1226.193, 3018.001
1226.675, 3019.438
1227.157, 3019.439
1227.639, 3017.854
1228.121, 3014.180
1228.603, 3011.272
1229.085, 3012.422
1229.568, 3015.614
1230.050, 3019.984
1230.532, 3024.910
1231.014, 3026.141
1231.496, 3023.113
1231.978, 3021.346
1232.460, 3022.208
1232.942, 3024.067
1233.425, 3027.055
1233.907, 3028.978
1234.389, 3026.612
1234.871, 3021.024
1235.353, 3019.097
1235.835, 3020.990
1236.317, 3023.890
1236.799, 3027.530
1237.281, 3029.874
1237.764, 3027.441
1238.246, 3024.567
1238.728, 3025.561
1239.210, 3029.207
1239.692, 3029.610
1240.174, 3026.951
1240.656, 3026.804
1241.138, 3030.988
1241.621, 3034.757
1242.103, 3032.582
1242.585, 3030.747
1243.067, 3034.654
1243.549, 3041.938
1244.031, 3042.814
1244.513, 3038.294
1244.995, 3036.768
1245.478, 3040.516
1245.960, 3045.137
1246.442, 3049.843
1246.924, 3052.431
1247.406, 3051.000
1247.888, 3047.352
1248.370, 3047.649
1248.852, 3050.829
1249.334, 3051.899
1249.817, 3049.248
1250.299, 3047.981
1250.781, 3053.235
1251.263, 3057.185
1251.745, 3056.268
1252.227, 3052.511
1252.709, 3050.449
1253.191, 3049.739
1253.673, 3049.066
1254.156, 3047.947
1254.638, 3048.821
1255.120, 3054.965
1255.602, 3059.183
1256.084, 3058.064
1256.566, 3055.061
1257.048, 3057.536
1257.530, 3063.248
1258.012, 3067.698
1258.495, 3070.029
1258.977, 3071.811
1259.459, 3073.308
1259.941, 3074.051
1260.423, 3073.218
1260.905, 3072.944
1261.387, 3078.936
1261.869, 3086.575
1262.352, 3088.240
1262.834, 3082.395
1263.316, 3079.292
1263.798, 3080.282
1264.280, 3081.188
1264.762, 3080.898
1265.244, 3079.799
1265.726, 3077.098
1266.208, 3074.690
1266.691, 3075.165
1267.173, 3078.700
1267.655, 3081.309
1268.137, 3082.987
1268.619, 3083.645
1269.101, 3082.966
1269.583, 3082.487
1270.065, 3083.698
1270.548, 3085.711
1271.030, 3088.327
1271.512, 3091.085
1271.994, 3091.844
1272.476, 3090.646
1272.958, 3088.915
1273.440, 3086.859
1273.922, 3085.357
1274.405, 3085.053
1274.887, 3085.646
1275.369, 3087.230
1275.851, 3089.386
1276.333, 3090.643
1276.815, 3091.340
1277.297, 3093.797
1277.779, 3098.620
1278.261, 3101.849
1278.744, 3099.665
1279.226, 3097.375
1279.708, 3096.420
1280.190, 3096.957
1280.672, 3100.367
1281.154, 3105.264
1281.636, 3107.914
1282.118, 3107.797
1282.600, 3107.910
1283.083, 3110.356
1283.565, 3110.648
1284.047, 3106.962
1284.529, 3102.707
1285.011, 3103.614
1285.493, 3106.743
1285.975, 3107.438
1286.457, 3105.470
1286.939, 3104.185
1287.422, 3104.261
1287.904, 3103.840
1288.386, 3102.380
1288.868, 3101.445
1289.350, 3103.258
1289.832, 3106.026
1290.314, 3107.976
1290.796, 3109.156
1291.279, 3110.542
1291.761, 3112.079
1292.243, 3113.861
1292.725, 3115.906
1293.207, 3117.495
1293.689, 3117.290
1294.171, 3117.111
1294.653, 3119.018
1295.135, 3121.315
1295.618, 3120.306
1296.100, 3116.538
1296.582, 3115.857
1297.064, 3118.957
1297.546, 3122.314
1298.028, 3123.459
1298.510, 3123.640
1298.992, 3123.269
1299.475, 3122.937
1299.957, 3122.444
1300.439, 3122.902
1300.921, 3128.589
1301.403, 3138.669
1301.885, 3146.673
##END=



