##NAMES=Nitrobarite
##RRUFFID=R060622
##IDEAL CHEMISTRY=Ba(N^5+^O_3_)_2_
##LOCALITY=Hüttenberg, Kärnten, Austria
##OWNER=RRUFF
##SOURCE=Michael Scott
##DESCRIPTION=Colorless distorted octahedra
##STATUS=The identification of this mineral has been confirmed by single-crystal X-ray diffraction.
##URL=rruff.info/R060622
99.27039, 8672.539
99.75250, 8955.696
100.2346, 9224.674
100.7167, 9534.872
101.1989, 9876.572
101.6810, 10149.29
102.1631, 10185.59
102.6452, 10203.43
103.1273, 10226.97
103.6094, 10270.23
104.0916, 10325.89
104.5737, 10369.35
105.0558, 10382.56
105.5379, 10408.27
106.0200, 10484.27
106.5021, 10596.66
106.9843, 10693.55
107.4664, 10713.55
107.9485, 10633.78
108.4306, 10600.69
108.9127, 10653.15
109.3948, 10728.22
109.8770, 10787.94
110.3591, 10824.07
110.8412, 10860.61
111.3233, 10947.34
111.8054, 11141.45
112.2875, 11304.70
112.7697, 11401.14
113.2518, 11474.06
113.7339, 11573.65
114.2160, 11729.10
114.6981, 11927.90
115.1802, 12089.87
115.6624, 12180.71
116.1445, 12275.23
116.6266, 12391.13
117.1087, 12528.59
117.5908, 12685.72
118.0729, 12868.34
118.5551, 13075.99
119.0372, 13257.34
119.5193, 13371.17
120.0014, 13482.17
120.4835, 13652.40
120.9656, 13893.51
121.4478, 14160.07
121.9299, 14416.61
122.4120, 14664.07
122.8941, 14889.96
123.3762, 15059.83
123.8583, 15200.85
124.3405, 15393.10
124.8226, 15677.55
125.3047, 15991.90
125.7868, 16291.38
126.2689, 16574.39
126.7510, 16824.99
127.2332, 17021.55
127.7153, 17161.09
128.1974, 17282.97
128.6795, 17400.26
129.1616, 17500.61
129.6437, 17570.90
130.1259, 17607.30
130.6080, 17621.84
131.0901, 17638.48
131.5722, 17665.71
132.0543, 17678.57
132.5364, 17678.44
133.0186, 17662.71
133.5007, 17625.98
133.9828, 17563.87
134.4649, 17480.39
134.9470, 17404.25
135.4291, 17312.87
135.9113, 17252.22
136.3934, 17239.85
136.8755, 17267.31
137.3576, 17316.16
137.8397, 17371.05
138.3218, 17430.71
138.8040, 17515.59
139.2861, 17673.25
139.7682, 17813.74
140.2503, 17895.79
140.7324, 17912.64
141.2145, 17870.34
141.6967, 17779.61
142.1788, 17644.07
142.6609, 17402.43
143.1430, 16997.90
143.6251, 16505.44
144.1072, 16002.32
144.5894, 15497.55
145.0715, 15004.79
145.5536, 14541.99
146.0357, 14105.65
146.5178, 13692.74
146.9999, 13292.79
147.4821, 12913.39
147.9642, 12571.75
148.4463, 12274.82
148.9284, 12023.79
149.4105, 11807.27
149.8927, 11626.58
150.3748, 11475.23
150.8569, 11357.31
151.3390, 11276.67
151.8211, 11192.76
152.3032, 11081.91
152.7854, 10964.45
153.2675, 10856.52
153.7496, 10761.97
154.2317, 10680.30
154.7138, 10613.93
155.1959, 10570.60
155.6781, 10526.78
156.1602, 10465.71
156.6423, 10402.82
157.1244, 10356.75
157.6065, 10339.11
158.0886, 10345.12
158.5708, 10350.70
159.0529, 10367.09
159.5350, 10368.97
160.0171, 10339.42
160.4992, 10291.37
160.9813, 10248.33
161.4635, 10230.17
161.9456, 10239.50
162.4277, 10235.69
162.9098, 10214.87
163.3919, 10185.86
163.8740, 10142.95
164.3562, 10091.85
164.8383, 10048.50
165.3204, 10031.79
165.8025, 10053.29
166.2846, 10060.11
166.7667, 10043.88
167.2489, 10021.06
167.7310, 9999.372
168.2131, 9981.320
168.6952, 9970.212
169.1773, 9971.650
169.6594, 9992.352
170.1416, 10010.56
170.6237, 10030.57
171.1058, 10045.71
171.5879, 10045.53
172.0700, 10025.43
172.5521, 9996.058
173.0343, 9978.832
173.5164, 9978.799
173.9985, 9971.681
174.4806, 9938.832
174.9627, 9892.882
175.4448, 9865.297
175.9270, 9871.935
176.4091, 9898.349
176.8912, 9915.508
177.3733, 9918.772
177.8554, 9924.647
178.3375, 9953.751
178.8197, 10001.96
179.3018, 10027.42
179.7839, 9997.968
180.2660, 9942.794
180.7481, 9902.546
181.2302, 9883.323
181.7124, 9876.006
182.1945, 9870.459
182.6766, 9865.525
183.1587, 9869.299
183.6408, 9899.345
184.1229, 9935.446
184.6051, 9957.130
185.0872, 9955.222
185.5693, 9938.944
186.0514, 9924.262
186.5335, 9910.972
187.0156, 9899.801
187.4978, 9890.432
187.9799, 9883.103
188.4620, 9878.955
188.9441, 9880.287
189.4262, 9884.428
189.9083, 9879.482
190.3905, 9851.580
190.8726, 9833.901
191.3547, 9847.160
191.8368, 9875.631
192.3189, 9891.817
192.8010, 9872.740
193.2832, 9821.220
193.7653, 9794.164
194.2474, 9825.816
194.7295, 9852.286
195.2116, 9850.150
195.6937, 9828.744
196.1759, 9813.136
196.6580, 9827.883
197.1401, 9879.428
197.6222, 9901.367
198.1043, 9863.130
198.5864, 9825.332
199.0686, 9810.109
199.5507, 9817.675
200.0328, 9837.812
200.5149, 9861.469
200.9970, 9891.515
201.4791, 9912.295
201.9613, 9917.708
202.4434, 9920.651
202.9255, 9929.828
203.4076, 9945.443
203.8897, 9960.744
204.3718, 9967.521
204.8540, 9962.483
205.3361, 9956.973
205.8182, 9949.700
206.3003, 9942.807
206.7824, 9936.361
207.2645, 9930.754
207.7467, 9929.851
208.2288, 9941.690
208.7109, 9979.959
209.1930, 9993.526
209.6751, 9954.811
210.1572, 9901.220
210.6394, 9876.551
211.1215, 9893.716
211.6036, 9898.778
212.0857, 9928.543
212.5678, 9943.115
213.0499, 9943.312
213.5321, 9886.072
214.0142, 9902.999
214.4963, 9890.203
214.9784, 9876.189
215.4605, 9903.554
215.9426, 9854.670
216.4248, 9881.377
216.9069, 9877.910
217.3890, 9888.254
217.8711, 9868.692
218.3532, 9858.367
218.8353, 9877.957
219.3175, 9880.981
219.7996, 9857.978
220.2817, 9827.763
220.7638, 9818.155
221.2459, 9820.309
221.7280, 9831.245
222.2102, 9838.842
222.6923, 9838.066
223.1744, 9833.589
223.6565, 9832.652
224.1386, 9836.222
224.6207, 9839.493
225.1029, 9843.049
225.5850, 9845.736
226.0671, 9835.393
226.5492, 9794.379
227.0313, 9749.914
227.5134, 9735.072
227.9956, 9757.016
228.4777, 9785.397
228.9598, 9794.289
229.4419, 9783.684
229.9240, 9775.340
230.4061, 9779.403
230.8883, 9786.380
231.3704, 9787.625
231.8525, 9781.689
232.3346, 9771.778
232.8167, 9757.418
233.2988, 9737.101
233.7810, 9727.048
234.2631, 9744.076
234.7452, 9767.133
235.2273, 9780.901
235.7094, 9781.906
236.1915, 9775.281
236.6737, 9765.999
237.1558, 9753.751
237.6379, 9740.854
238.1200, 9727.930
238.6021, 9714.635
239.0842, 9700.189
239.5664, 9684.356
240.0485, 9668.576
240.5306, 9651.556
241.0127, 9628.089
241.4948, 9622.350
241.9769, 9659.556
242.4591, 9705.414
242.9412, 9735.651
243.4233, 9743.449
243.9054, 9735.422
244.3875, 9716.604
244.8696, 9676.060
245.3518, 9656.314
245.8339, 9690.594
246.3160, 9733.328
246.7981, 9744.139
247.2802, 9709.609
247.7623, 9659.181
248.2445, 9645.975
248.7266, 9691.482
249.2087, 9722.580
249.6908, 9720.024
250.1729, 9704.150
250.6550, 9688.492
251.1372, 9677.518
251.6193, 9671.267
252.1014, 9671.146
252.5835, 9656.130
253.0656, 9685.996
253.5477, 9700.670
254.0299, 9700.967
254.5120, 9643.831
254.9941, 9660.859
255.4762, 9648.166
255.9583, 9634.254
256.4405, 9661.719
256.9226, 9612.937
257.4047, 9639.746
257.8868, 9636.381
258.3689, 9646.826
258.8510, 9627.366
259.3332, 9617.143
259.8153, 9636.834
260.2974, 9639.962
260.7795, 9617.060
261.2616, 9588.518
261.7437, 9572.249
262.2259, 9570.287
262.7080, 9587.308
263.1901, 9609.314
263.6722, 9608.111
264.1543, 9557.266
264.6364, 9535.412
265.1186, 9572.014
265.6007, 9618.574
266.0828, 9635.335
266.5649, 9612.121
267.0470, 9571.301
267.5291, 9550.611
268.0113, 9564.587
268.4934, 9570.923
268.9755, 9562.835
269.4576, 9551.480
269.9397, 9546.055
270.4218, 9548.368
270.9040, 9552.486
271.3861, 9548.622
271.8682, 9531.052
272.3503, 9516.907
272.8324, 9500.198
273.3145, 9490.262
273.7967, 9497.805
274.2788, 9523.045
274.7609, 9552.950
275.2430, 9568.754
275.7251, 9562.182
276.2072, 9559.613
276.6894, 9567.959
277.1715, 9574.463
277.6536, 9570.481
278.1357, 9555.073
278.6178, 9533.340
279.0999, 9510.926
279.5821, 9486.312
280.0642, 9465.734
280.5463, 9447.772
281.0284, 9434.079
281.5105, 9424.231
281.9926, 9419.062
282.4748, 9421.627
282.9569, 9437.559
283.4390, 9473.832
283.9211, 9496.946
284.4032, 9506.299
284.8853, 9505.547
285.3675, 9490.011
285.8496, 9463.774
286.3317, 9439.290
286.8138, 9429.480
287.2959, 9436.662
287.7780, 9445.519
288.2602, 9465.396
288.7423, 9478.341
289.2244, 9470.552
289.7065, 9447.390
290.1886, 9426.779
290.6707, 9426.537
291.1529, 9449.313
291.6350, 9457.986
292.1171, 9433.032
292.5992, 9413.114
293.0813, 9417.045
293.5634, 9437.362
294.0456, 9453.985
294.5277, 9450.397
295.0098, 9427.053
295.4919, 9411.362
295.9740, 9416.347
296.4561, 9416.273
296.9383, 9399.470
297.4204, 9373.262
297.9025, 9351.804
298.3846, 9344.566
298.8667, 9349.792
299.3488, 9352.742
299.8310, 9352.639
300.3131, 9350.762
300.7952, 9348.912
301.2773, 9345.125
301.7594, 9334.588
302.2415, 9313.479
302.7237, 9287.055
303.2058, 9248.933
303.6879, 9279.640
304.1700, 9295.153
304.6521, 9296.292
305.1342, 9239.996
305.6164, 9257.864
306.0985, 9246.011
306.5806, 9232.938
307.0627, 9261.245
307.5448, 9213.303
308.0269, 9240.953
308.5091, 9238.428
308.9912, 9249.713
309.4733, 9231.094
309.9554, 9221.711
310.4375, 9242.243
310.9196, 9246.211
311.4018, 9224.148
311.8839, 9236.312
312.3660, 9187.325
312.8481, 9191.998
313.3302, 9219.824
313.8123, 9199.266
314.2945, 9211.976
314.7766, 9212.015
315.2587, 9154.473
315.7408, 9197.071
316.2229, 9196.362
316.7050, 9151.186
317.1872, 9190.353
317.6693, 9151.306
318.1514, 9140.178
318.6335, 9150.059
319.1156, 9138.037
319.5977, 9160.548
320.0799, 9149.791
320.5620, 9136.062
321.0441, 9135.305
321.5262, 9097.792
322.0083, 9128.468
322.4904, 9112.565
322.9726, 9119.814
323.4547, 9132.312
323.9368, 9104.628
324.4189, 9119.483
324.9010, 9068.368
325.3831, 9109.769
325.8653, 9115.572
326.3474, 9099.729
326.8295, 9070.979
327.3116, 9064.619
327.7937, 9094.828
328.2758, 9121.687
328.7580, 9129.288
329.2401, 9122.810
329.7222, 9108.650
330.2043, 9087.574
330.6864, 9062.305
331.1685, 9035.962
331.6507, 9006.099
332.1328, 8983.625
332.6149, 8975.798
333.0970, 8976.875
333.5791, 8984.053
334.0612, 8999.908
334.5434, 9013.656
335.0255, 9010.487
335.5076, 8989.246
335.9897, 8968.445
336.4718, 8951.138
336.9539, 8939.725
337.4361, 8940.150
337.9182, 8956.309
338.4003, 8966.738
338.8824, 8944.119
339.3645, 8895.342
339.8466, 8872.072
340.3288, 8902.805
340.8109, 8944.224
341.2930, 8942.606
341.7751, 8896.708
342.2572, 8857.487
342.7393, 8852.416
343.2215, 8871.741
343.7036, 8897.789
344.1857, 8934.018
344.6678, 8959.841
345.1499, 8942.511
345.6320, 8889.964
346.1142, 8845.082
346.5963, 8820.152
347.0784, 8808.116
347.5605, 8800.851
348.0426, 8797.687
348.5247, 8798.745
349.0069, 8805.121
349.4890, 8816.548
349.9711, 8828.318
350.4532, 8841.468
350.9353, 8853.860
351.4174, 8866.016
351.8996, 8876.916
352.3817, 8880.317
352.8638, 8869.623
353.3459, 8849.164
353.8280, 8840.213
354.3102, 8865.780
354.7923, 8876.570
355.2744, 8838.442
355.7565, 8773.113
356.2386, 8727.015
356.7207, 8722.021
357.2029, 8741.530
357.6850, 8744.281
358.1671, 8713.224
358.6492, 8693.557
359.1313, 8700.468
359.6134, 8717.034
360.0956, 8723.373
360.5777, 8714.235
361.0598, 8699.763
361.5419, 8695.236
362.0240, 8708.072
362.5061, 8712.577
362.9883, 8709.434
363.4704, 8698.295
363.9525, 8672.424
364.4346, 8635.318
364.9167, 8603.105
365.3988, 8592.531
365.8810, 8606.882
366.3631, 8613.990
366.8452, 8603.916
367.3273, 8597.104
367.8094, 8605.369
368.2915, 8622.423
368.7737, 8634.994
369.2558, 8634.608
369.7379, 8622.265
370.2200, 8603.131
370.7021, 8561.716
371.1842, 8534.329
371.6664, 8536.368
372.1485, 8551.709
372.6306, 8563.306
373.1127, 8564.377
373.5948, 8556.474
374.0769, 8538.943
374.5591, 8501.822
375.0412, 8482.071
375.5233, 8499.272
376.0054, 8525.691
376.4875, 8547.264
376.9696, 8560.303
377.4518, 8561.106
377.9339, 8538.717
378.4160, 8492.160
378.8981, 8460.813
379.3802, 8462.748
379.8623, 8465.994
380.3445, 8448.490
380.8266, 8414.486
381.3087, 8382.302
381.7908, 8361.696
382.2729, 8351.376
382.7550, 8350.597
383.2372, 8364.460
383.7193, 8374.411
384.2014, 8364.188
384.6835, 8342.276
385.1656, 8322.298
385.6477, 8303.745
386.1299, 8292.277
386.6120, 8300.663
387.0941, 8328.024
387.5762, 8345.480
388.0583, 8335.982
388.5404, 8309.702
389.0226, 8289.857
389.5047, 8277.497
389.9868, 8268.733
390.4689, 8263.379
390.9510, 8260.136
391.4331, 8255.976
391.9153, 8249.878
392.3974, 8243.194
392.8795, 8239.604
393.3616, 8242.350
393.8437, 8234.352
394.3258, 8197.176
394.8080, 8158.047
395.2901, 8145.891
395.7722, 8162.662
396.2543, 8188.855
396.7364, 8209.151
397.2185, 8223.752
397.7007, 8223.438
398.1828, 8196.096
398.6649, 8168.493
399.1470, 8150.268
399.6291, 8140.527
400.1112, 8136.871
400.5934, 8138.723
401.0755, 8143.080
401.5576, 8137.271
402.0397, 8100.377
402.5218, 8080.363
403.0039, 8098.077
403.4861, 8125.401
403.9682, 8133.107
404.4503, 8112.842
404.9324, 8079.983
405.4145, 8057.180
405.8966, 8047.809
406.3788, 8037.657
406.8609, 8022.829
407.3430, 8009.875
407.8251, 8004.817
408.3072, 8005.584
408.7893, 8003.343
409.2715, 7988.206
409.7536, 7962.752
410.2357, 7946.701
410.7178, 7943.707
411.1999, 7944.657
411.6820, 7947.974
412.1642, 7951.573
412.6463, 7951.564
413.1284, 7944.558
413.6105, 7936.233
414.0926, 7938.191
414.5747, 7951.862
415.0569, 7954.806
415.5390, 7932.238
416.0211, 7898.925
416.5032, 7873.167
416.9853, 7854.657
417.4674, 7847.374
417.9496, 7864.884
418.4317, 7894.582
418.9138, 7904.257
419.3959, 7884.251
419.8780, 7853.835
420.3601, 7833.554
420.8423, 7823.730
421.3244, 7813.117
421.8065, 7809.615
422.2886, 7798.153
422.7707, 7752.481
423.2528, 7680.525
423.7350, 7629.250
424.2171, 7633.466
424.6992, 7685.734
425.1813, 7723.398
425.6634, 7754.784
426.1455, 7764.641
426.6277, 7728.092
427.1098, 7674.720
427.5919, 7647.389
428.0740, 7661.801
428.5561, 7696.026
429.0382, 7710.624
429.5204, 7698.597
430.0025, 7679.649
430.4846, 7644.104
430.9667, 7610.663
431.4488, 7591.386
431.9309, 7585.777
432.4131, 7585.776
432.8952, 7583.414
433.3773, 7579.333
433.8594, 7587.168
434.3415, 7621.403
434.8236, 7646.745
435.3058, 7648.830
435.7879, 7635.801
436.2700, 7619.081
436.7521, 7602.789
437.2342, 7585.691
437.7163, 7564.650
438.1985, 7539.064
438.6806, 7516.372
439.1627, 7499.606
439.6448, 7486.290
440.1269, 7471.651
440.6090, 7454.875
441.0912, 7445.938
441.5733, 7458.425
442.0554, 7481.224
442.5375, 7489.497
443.0196, 7478.180
443.5017, 7462.430
443.9839, 7457.551
444.4660, 7462.000
444.9481, 7454.484
445.4302, 7419.858
445.9123, 7385.507
446.3944, 7369.425
446.8766, 7368.078
447.3587, 7370.042
447.8408, 7370.032
448.3229, 7368.265
448.8050, 7365.342
449.2871, 7361.814
449.7693, 7356.234
450.2514, 7348.180
450.7335, 7338.190
451.2156, 7325.409
451.6977, 7310.343
452.1798, 7296.167
452.6620, 7286.510
453.1441, 7281.656
453.6262, 7278.646
454.1083, 7285.593
454.5904, 7286.103
455.0725, 7269.327
455.5547, 7243.236
456.0368, 7222.313
456.5189, 7214.788
457.0010, 7215.762
457.4832, 7214.309
457.9653, 7209.062
458.4474, 7206.642
458.9295, 7216.646
459.4116, 7225.500
459.8937, 7220.087
460.3759, 7198.603
460.8580, 7175.634
461.3401, 7164.070
461.8222, 7159.180
462.3043, 7144.802
462.7864, 7116.207
463.2686, 7087.174
463.7507, 7066.136
464.2328, 7053.919
464.7149, 7055.155
465.1970, 7087.877
465.6791, 7118.956
466.1613, 7124.960
466.6434, 7110.070
467.1255, 7087.322
467.6076, 7060.712
468.0897, 7035.828
468.5718, 7027.636
469.0540, 7056.311
469.5361, 7069.839
470.0182, 7060.407
470.5003, 7038.683
470.9824, 7003.701
471.4645, 6961.431
471.9467, 6934.831
472.4288, 6952.788
472.9109, 7017.949
473.3930, 7044.193
473.8751, 6979.832
474.3572, 6933.680
474.8394, 6951.633
475.3215, 6998.785
475.8036, 7023.467
476.2857, 7002.358
476.7678, 6960.955
477.2499, 6939.347
477.7321, 6940.667
478.2142, 6937.219
478.6963, 6917.942
479.1784, 6897.158
479.6605, 6886.981
480.1426, 6887.045
480.6248, 6887.895
481.1069, 6889.283
481.5890, 6886.978
482.0711, 6868.829
482.5532, 6833.074
483.0353, 6805.522
483.5175, 6807.864
483.9996, 6831.136
484.4817, 6835.300
484.9638, 6808.667
485.4459, 6778.616
485.9280, 6750.479
486.4102, 6726.190
486.8923, 6709.371
487.3744, 6701.005
487.8565, 6697.419
488.3386, 6694.174
488.8207, 6692.263
489.3029, 6687.058
489.7850, 6670.510
490.2671, 6659.083
490.7492, 6667.765
491.2313, 6687.281
491.7134, 6695.243
492.1956, 6676.305
492.6777, 6642.809
493.1598, 6632.987
493.6419, 6661.872
494.1240, 6674.969
494.6061, 6641.595
495.0883, 6599.561
495.5704, 6577.714
496.0525, 6579.022
496.5346, 6581.039
497.0167, 6561.251
497.4988, 6529.807
497.9810, 6519.544
498.4631, 6537.671
498.9452, 6557.414
499.4273, 6560.088
499.9094, 6548.904
500.3915, 6537.460
500.8737, 6523.524
501.3558, 6512.546
501.8379, 6508.617
502.3200, 6509.467
502.8021, 6512.119
503.2842, 6515.880
503.7664, 6516.167
504.2485, 6504.668
504.7306, 6473.236
505.2127, 6454.583
505.6948, 6459.070
506.1769, 6465.179
506.6591, 6460.920
507.1412, 6448.702
507.6233, 6438.164
508.1054, 6436.455
508.5875, 6437.792
509.0696, 6421.499
509.5518, 6376.142
510.0339, 6340.583
510.5160, 6323.755
510.9981, 6319.444
511.4802, 6330.145
511.9623, 6354.445
512.4445, 6372.753
512.9266, 6368.625
513.4087, 6347.948
513.8908, 6323.143
514.3729, 6292.379
514.8550, 6271.864
515.3372, 6279.103
515.8193, 6305.244
516.3014, 6317.830
516.7835, 6310.191
517.2656, 6296.216
517.7477, 6282.558
518.2299, 6266.629
518.7120, 6238.448
519.1941, 6195.271
519.6762, 6157.965
520.1583, 6156.758
520.6404, 6205.180
521.1226, 6229.108
521.6047, 6210.168
522.0868, 6189.495
522.5689, 6184.773
523.0510, 6190.367
523.5331, 6193.830
524.0153, 6188.897
524.4974, 6179.034
524.9795, 6170.552
525.4616, 6163.224
525.9437, 6158.878
526.4258, 6167.454
526.9080, 6170.430
527.3901, 6151.900
527.8722, 6113.967
528.3543, 6075.217
528.8364, 6036.516
529.3185, 6006.333
529.8007, 6005.242
530.2828, 6033.000
530.7649, 6053.950
531.2470, 6046.923
531.7291, 6022.500
532.2112, 6010.821
532.6934, 6020.327
533.1755, 6023.945
533.6576, 6014.048
534.1397, 5997.184
534.6218, 5975.642
535.1039, 5952.131
535.5861, 5934.907
536.0682, 5932.233
536.5503, 5943.390
537.0324, 5953.544
537.5145, 5966.282
537.9966, 5972.871
538.4788, 5971.248
538.9609, 5963.083
539.4430, 5949.526
539.9251, 5930.923
540.4072, 5908.967
540.8893, 5880.702
541.3715, 5848.385
541.8536, 5831.532
542.3357, 5836.114
542.8178, 5846.890
543.2999, 5856.989
543.7820, 5864.838
544.2642, 5865.157
544.7463, 5849.720
545.2284, 5834.793
545.7105, 5833.004
546.1926, 5838.684
546.6747, 5840.037
547.1569, 5833.402
547.6390, 5820.858
548.1211, 5804.542
548.6032, 5782.798
549.0853, 5763.830
549.5674, 5744.577
550.0496, 5730.788
550.5317, 5728.398
551.0138, 5732.436
551.4959, 5732.790
551.9780, 5724.041
552.4601, 5713.689
552.9423, 5719.078
553.4244, 5744.729
553.9065, 5755.555
554.3886, 5733.696
554.8707, 5708.247
555.3528, 5704.614
555.8350, 5717.759
556.3171, 5723.393
556.7992, 5706.257
557.2813, 5681.375
557.7634, 5662.195
558.2455, 5648.912
558.7277, 5642.749
559.2098, 5645.804
559.6919, 5652.536
560.1740, 5652.195
560.6561, 5639.832
561.1382, 5631.139
561.6204, 5633.321
562.1025, 5633.313
562.5846, 5619.602
563.0667, 5595.862
563.5488, 5574.425
564.0309, 5563.291
564.5131, 5559.055
564.9952, 5550.105
565.4773, 5530.909
565.9594, 5523.074
566.4415, 5549.255
566.9236, 5574.859
567.4058, 5574.021
567.8879, 5547.694
568.3700, 5518.811
568.8521, 5495.839
569.3342, 5479.144
569.8163, 5470.666
570.2985, 5470.105
570.7806, 5473.990
571.2627, 5484.274
571.7448, 5493.536
572.2269, 5480.677
572.7090, 5424.672
573.1912, 5392.253
573.6733, 5408.922
574.1554, 5436.433
574.6375, 5445.948
575.1196, 5437.194
575.6017, 5424.066
576.0839, 5416.348
576.5660, 5411.688
577.0481, 5398.250
577.5302, 5364.591
578.0123, 5349.882
578.4944, 5386.040
578.9766, 5427.958
579.4587, 5444.161
579.9408, 5433.006
580.4229, 5410.987
580.9050, 5374.609
581.3871, 5338.727
581.8693, 5333.176
582.3514, 5357.410
582.8335, 5378.097
583.3156, 5378.978
583.7977, 5364.862
584.2798, 5346.390
584.7620, 5320.254
585.2441, 5296.617
585.7262, 5268.011
586.2083, 5248.644
586.6904, 5258.400
587.1725, 5289.416
587.6547, 5312.182
588.1368, 5305.414
588.6189, 5277.347
589.1010, 5254.265
589.5831, 5233.930
590.0652, 5224.395
590.5474, 5239.209
591.0295, 5256.933
591.5116, 5262.884
591.9937, 5256.764
592.4758, 5245.835
592.9579, 5230.311
593.4401, 5213.885
593.9222, 5199.998
594.4043, 5189.211
594.8864, 5185.568
595.3685, 5192.972
595.8506, 5204.559
596.3328, 5205.467
596.8149, 5184.932
597.2970, 5175.354
597.7791, 5192.034
598.2612, 5206.380
598.7433, 5195.397
599.2255, 5166.921
599.7076, 5144.293
600.1897, 5141.804
600.6718, 5150.384
601.1539, 5149.367
601.6360, 5136.425
602.1182, 5128.750
602.6003, 5136.859
603.0824, 5143.138
603.5645, 5129.588
604.0466, 5100.029
604.5287, 5076.270
605.0109, 5070.459
605.4930, 5068.733
605.9751, 5054.582
606.4572, 5034.557
606.9393, 5032.326
607.4214, 5058.047
607.9036, 5090.304
608.3857, 5094.765
608.8678, 5059.821
609.3499, 5038.974
609.8320, 5046.146
610.3141, 5051.282
610.7963, 5043.361
611.2784, 5025.648
611.7605, 5001.817
612.2426, 4971.849
612.7247, 4946.865
613.2068, 4944.700
613.6890, 4962.774
614.1711, 4975.083
614.6532, 4977.328
615.1353, 4975.776
615.6174, 4978.425
616.0995, 4981.867
616.5817, 4970.583
617.0638, 4924.489
617.5459, 4885.834
618.0280, 4876.560
618.5101, 4882.150
618.9922, 4883.012
619.4744, 4875.135
619.9565, 4867.331
620.4386, 4869.370
620.9207, 4880.739
621.4028, 4886.073
621.8849, 4884.503
622.3671, 4878.029
622.8492, 4860.704
623.3313, 4842.861
623.8134, 4837.252
624.2955, 4845.987
624.7776, 4851.953
625.2598, 4838.029
625.7419, 4816.693
626.2240, 4810.545
626.7061, 4820.368
627.1882, 4833.927
627.6703, 4845.584
628.1525, 4854.660
628.6346, 4859.381
629.1167, 4862.529
629.5988, 4855.966
630.0809, 4830.875
630.5630, 4803.595
631.0452, 4780.598
631.5273, 4764.831
632.0094, 4761.567
632.4915, 4776.297
632.9736, 4798.791
633.4557, 4810.840
633.9379, 4812.355
634.4200, 4803.894
634.9021, 4781.639
635.3842, 4755.378
635.8663, 4731.430
636.3484, 4710.438
636.8306, 4698.063
637.3127, 4703.611
637.7948, 4709.443
638.2769, 4702.329
638.7590, 4689.541
639.2411, 4687.479
639.7233, 4699.944
640.2054, 4710.788
640.6875, 4698.020
641.1696, 4659.599
641.6517, 4634.655
642.1339, 4630.243
642.6160, 4629.188
643.0981, 4628.847
643.5802, 4627.083
644.0623, 4618.628
644.5444, 4601.513
645.0266, 4591.476
645.5087, 4605.531
645.9908, 4630.543
646.4729, 4645.714
646.9550, 4649.468
647.4371, 4646.395
647.9193, 4639.153
648.4014, 4626.983
648.8835, 4606.606
649.3656, 4559.551
649.8477, 4534.983
650.3298, 4551.252
650.8120, 4572.184
651.2941, 4576.790
651.7762, 4567.506
652.2583, 4555.158
652.7404, 4543.858
653.2225, 4536.232
653.7047, 4542.067
654.1868, 4559.422
654.6689, 4556.747
655.1510, 4519.733
655.6331, 4482.350
656.1152, 4480.218
656.5974, 4511.779
657.0795, 4525.786
657.5616, 4508.638
658.0437, 4489.875
658.5258, 4476.497
659.0079, 4468.317
659.4901, 4469.173
659.9722, 4477.211
660.4543, 4478.354
660.9364, 4454.287
661.4185, 4411.816
661.9006, 4397.629
662.3828, 4422.059
662.8649, 4441.661
663.3470, 4437.282
663.8291, 4424.340
664.3112, 4422.160
664.7933, 4431.895
665.2755, 4437.372
665.7576, 4431.449
666.2397, 4421.201
666.7218, 4409.413
667.2039, 4398.359
667.6860, 4394.376
668.1682, 4400.241
668.6503, 4408.214
669.1324, 4405.436
669.6145, 4389.793
670.0966, 4373.296
670.5787, 4350.364
671.0609, 4334.021
671.5430, 4333.479
672.0251, 4340.486
672.5072, 4342.962
672.9893, 4337.784
673.4714, 4330.286
673.9536, 4323.072
674.4357, 4316.042
674.9178, 4309.027
675.3999, 4302.017
675.8820, 4294.852
676.3641, 4287.404
676.8463, 4279.839
677.3284, 4272.478
677.8105, 4262.920
678.2926, 4258.355
678.7747, 4265.438
679.2568, 4271.147
679.7390, 4269.187
680.2211, 4260.029
680.7032, 4244.773
681.1853, 4219.899
681.6674, 4197.948
682.1495, 4196.954
682.6317, 4210.687
683.1138, 4216.614
683.5959, 4209.796
684.0780, 4204.064
684.5601, 4214.181
685.0422, 4237.025
685.5244, 4239.646
686.0065, 4200.231
686.4886, 4169.063
686.9707, 4156.177
687.4528, 4149.449
687.9349, 4136.798
688.4171, 4119.629
688.8992, 4110.121
689.3813, 4118.681
689.8634, 4136.400
690.3455, 4150.186
690.8276, 4159.847
691.3098, 4163.311
691.7919, 4133.481
692.2740, 4162.350
692.7561, 4176.026
693.2382, 4175.327
693.7203, 4117.195
694.2025, 4133.224
694.6846, 4119.534
695.1667, 4104.625
695.6488, 4131.093
696.1309, 4081.314
696.6130, 4107.127
697.0952, 4102.764
697.5773, 4112.212
698.0594, 4091.755
698.5415, 4080.535
699.0236, 4099.229
699.5057, 4101.361
699.9879, 4077.460
700.4700, 4087.786
700.9521, 4036.962
701.4342, 4039.798
701.9163, 4065.786
702.3984, 4043.391
702.8806, 4054.262
703.3627, 4052.465
703.8448, 3993.085
704.3269, 4033.846
704.8090, 4031.300
705.2911, 3984.286
705.7733, 4021.615
706.2554, 3980.731
706.7375, 3967.765
707.2196, 3975.809
707.7017, 3961.950
708.1838, 3982.623
708.6660, 3970.028
709.1481, 3954.463
709.6302, 3951.868
710.1123, 3912.518
710.5944, 3941.355
711.0765, 3923.616
711.5587, 3929.027
712.0408, 3939.688
712.5229, 3910.166
713.0050, 3923.184
713.4871, 3870.231
713.9692, 3872.480
714.4514, 3868.782
714.9335, 3900.369
715.4156, 3847.738
715.8977, 3893.498
716.3798, 3917.110
716.8619, 3938.785
717.3441, 3944.867
717.8262, 3929.066
718.3083, 3922.552
718.7904, 3929.352
719.2725, 3944.592
719.7546, 3972.027
720.2368, 4004.176
720.7189, 4026.334
721.2010, 4033.666
721.6831, 4042.572
722.1652, 4077.839
722.6473, 4132.628
723.1295, 4169.243
723.6116, 4184.069
724.0937, 4194.205
724.5758, 4203.426
725.0579, 4217.277
725.5400, 4247.118
726.0222, 4294.916
726.5043, 4352.699
726.9864, 4422.578
727.4685, 4499.803
727.9506, 4584.799
728.4327, 4673.974
728.9149, 4764.384
729.3970, 4855.098
729.8791, 4938.322
730.3612, 5013.826
730.8433, 5075.155
731.3254, 5099.653
731.8076, 5086.851
732.2897, 5026.829
732.7718, 4904.607
733.2539, 4744.266
733.7360, 4588.484
734.2181, 4431.735
734.7003, 4296.067
735.1824, 4190.699
735.6645, 4096.122
736.1466, 4002.848
736.6287, 3914.875
737.1108, 3839.065
737.5930, 3776.856
738.0751, 3729.274
738.5572, 3699.146
739.0393, 3683.646
739.5214, 3678.571
740.0035, 3683.405
740.4857, 3690.956
740.9678, 3699.954
741.4499, 3704.703
741.9320, 3693.540
742.4141, 3658.774
742.8962, 3634.636
743.3784, 3626.742
743.8605, 3622.377
744.3426, 3619.720
744.8247, 3616.976
745.3068, 3610.974
745.7889, 3601.108
746.2711, 3594.051
746.7532, 3596.335
747.2353, 3603.582
747.7174, 3611.527
748.1995, 3618.757
748.6816, 3617.243
749.1638, 3602.969
749.6459, 3584.482
750.1280, 3574.964
750.6101, 3576.390
751.0922, 3572.994
751.5743, 3557.133
752.0565, 3546.938
752.5386, 3553.207
753.0207, 3563.647
753.5028, 3564.900
753.9849, 3555.439
754.4670, 3543.755
754.9492, 3536.050
755.4313, 3526.142
755.9134, 3499.308
756.3955, 3465.809
756.8776, 3457.337
757.3597, 3482.803
757.8419, 3511.870
758.3240, 3507.087
758.8061, 3470.508
759.2882, 3445.389
759.7703, 3432.589
760.2524, 3429.355
760.7346, 3443.150
761.2167, 3459.708
761.6988, 3463.995
762.1809, 3456.618
762.6630, 3450.481
763.1451, 3450.861
763.6273, 3450.743
764.1094, 3447.127
764.5915, 3440.243
765.0736, 3427.012
765.5557, 3409.079
766.0378, 3398.526
766.5200, 3409.569
767.0021, 3431.571
767.4842, 3426.192
767.9663, 3389.832
768.4484, 3373.974
768.9305, 3401.014
769.4127, 3429.728
769.8948, 3416.897
770.3769, 3365.954
770.8590, 3336.116
771.3411, 3339.565
771.8232, 3347.097
772.3054, 3361.172
772.7875, 3370.749
773.2696, 3361.085
773.7517, 3337.414
774.2338, 3320.141
774.7159, 3321.140
775.1981, 3331.326
775.6802, 3342.100
776.1623, 3352.198
776.6444, 3357.267
777.1265, 3356.670
777.6086, 3347.945
778.0908, 3326.268
778.5729, 3298.542
779.0550, 3290.155
779.5371, 3321.911
780.0192, 3332.626
780.5013, 3301.766
780.9835, 3269.454
781.4656, 3251.018
781.9477, 3245.057
782.4298, 3249.215
782.9119, 3265.381
783.3940, 3280.886
783.8762, 3287.273
784.3583, 3289.200
784.8404, 3296.120
785.3225, 3304.737
785.8046, 3297.682
786.2867, 3266.243
786.7689, 3229.926
787.2510, 3222.892
787.7331, 3247.635
788.2152, 3260.585
788.6973, 3256.994
789.1794, 3253.502
789.6616, 3259.975
790.1437, 3268.377
790.6258, 3266.604
791.1079, 3253.935
791.5900, 3238.042
792.0721, 3211.087
792.5543, 3190.935
793.0364, 3194.172
793.5185, 3206.323
794.0006, 3204.607
794.4827, 3185.919
794.9648, 3169.018
795.4470, 3173.169
795.9291, 3187.410
796.4112, 3186.724
796.8933, 3172.760
797.3754, 3161.112
797.8575, 3155.700
798.3397, 3155.795
798.8218, 3162.601
799.3039, 3175.033
799.7860, 3176.006
800.2681, 3150.743
800.7502, 3137.395
801.2324, 3155.513
801.7145, 3172.633
802.1966, 3162.834
802.6787, 3133.348
803.1608, 3109.635
803.6429, 3097.933
804.1251, 3097.714
804.6072, 3115.932
805.0893, 3141.615
805.5714, 3165.410
806.0535, 3182.541
806.5356, 3179.064
807.0178, 3145.355
807.4999, 3100.077
807.9820, 3077.804
808.4641, 3079.214
808.9462, 3085.945
809.4283, 3099.814
809.9105, 3110.146
810.3926, 3111.908
810.8747, 3106.327
811.3568, 3093.861
811.8389, 3069.749
812.3210, 3055.598
812.8032, 3053.470
813.2853, 3060.460
813.7674, 3088.423
814.2495, 3118.374
814.7316, 3121.040
815.2137, 3092.621
815.6959, 3064.478
816.1780, 3062.093
816.6601, 3071.375
817.1422, 3074.649
817.6243, 3072.118
818.1064, 3063.266
818.5886, 3048.068
819.0707, 3033.182
819.5528, 3025.123
820.0349, 3023.128
820.5170, 3023.259
820.9991, 3029.048
821.4813, 3025.891
821.9634, 3000.969
822.4455, 2978.403
822.9276, 2982.597
823.4097, 3004.136
823.8918, 3012.489
824.3740, 2993.953
824.8561, 2980.066
825.3382, 2986.693
825.8203, 2995.918
826.3024, 2993.901
826.7845, 2981.490
827.2667, 2961.914
827.7488, 2935.615
828.2310, 2914.726
828.7131, 2918.756
829.1952, 2937.951
829.6773, 2943.795
830.1594, 2935.552
830.6415, 2926.067
831.1237, 2920.488
831.6058, 2918.859
832.0879, 2923.061
832.5700, 2935.044
833.0521, 2931.423
833.5342, 2896.307
834.0164, 2872.035
834.4985, 2879.263
834.9806, 2895.833
835.4627, 2904.177
835.9448, 2904.282
836.4269, 2903.412
836.9091, 2903.372
837.3912, 2902.691
837.8733, 2903.578
838.3554, 2901.667
838.8375, 2886.895
839.3196, 2863.318
839.8018, 2849.372
840.2839, 2857.857
840.7660, 2874.646
841.2481, 2879.496
841.7302, 2874.398
842.2123, 2865.656
842.6945, 2853.867
843.1766, 2848.185
843.6587, 2855.690
844.1408, 2867.507
844.6229, 2863.319
845.1050, 2835.076
845.5872, 2822.657
846.0693, 2837.240
846.5514, 2851.799
847.0335, 2862.111
847.5156, 2864.484
847.9977, 2847.927
848.4799, 2811.559
848.9620, 2792.951
849.4441, 2822.023
849.9262, 2849.301
850.4083, 2843.001
850.8904, 2821.660
851.3726, 2810.591
851.8547, 2811.579
852.3368, 2807.503
852.8189, 2782.552
853.3010, 2755.565
853.7831, 2760.801
854.2653, 2790.192
854.7474, 2813.874
855.2295, 2827.354
855.7116, 2827.361
856.1937, 2809.697
856.6758, 2782.667
857.1580, 2766.977
857.6401, 2766.523
858.1222, 2763.198
858.6043, 2755.399
859.0864, 2747.232
859.5685, 2739.981
860.0507, 2733.610
860.5328, 2726.150
861.0149, 2716.503
861.4970, 2717.435
861.9791, 2744.652
862.4612, 2767.551
862.9434, 2771.056
863.4255, 2762.860
863.9076, 2749.832
864.3897, 2734.716
864.8718, 2721.236
865.3539, 2710.844
865.8361, 2704.493
866.3182, 2707.078
866.8003, 2713.939
867.2824, 2711.709
867.7645, 2699.466
868.2466, 2687.964
868.7288, 2684.064
869.2109, 2684.080
869.6930, 2678.993
870.1751, 2667.436
870.6572, 2664.854
871.1393, 2675.620
871.6215, 2684.711
872.1036, 2687.421
872.5857, 2683.141
873.0678, 2668.458
873.5499, 2639.960
874.0320, 2621.500
874.5142, 2619.745
874.9963, 2619.823
875.4784, 2618.630
875.9605, 2616.760
876.4426, 2612.457
876.9247, 2607.610
877.4069, 2610.395
877.8890, 2630.030
878.3711, 2648.223
878.8532, 2651.796
879.3353, 2645.469
879.8174, 2634.582
880.2996, 2620.140
880.7817, 2600.044
881.2638, 2572.777
881.7459, 2548.716
882.2280, 2547.365
882.7101, 2563.576
883.1923, 2564.862
883.6744, 2549.590
884.1565, 2537.695
884.6386, 2535.702
885.1207, 2544.258
885.6028, 2567.971
886.0850, 2606.987
886.5671, 2620.021
887.0492, 2589.297
887.5313, 2565.665
888.0134, 2561.090
888.4955, 2563.546
888.9777, 2565.240
889.4598, 2567.148
889.9419, 2573.700
890.4240, 2593.416
890.9061, 2601.939
891.3882, 2582.924
891.8704, 2559.360
892.3525, 2548.643
892.8346, 2545.771
893.3167, 2538.590
893.7988, 2523.572
894.2809, 2508.495
894.7631, 2496.875
895.2452, 2490.525
895.7273, 2496.073
896.2094, 2508.838
896.6915, 2513.770
897.1736, 2508.034
897.6558, 2503.878
898.1379, 2512.934
898.6200, 2528.823
899.1021, 2532.448
899.5842, 2523.479
900.0663, 2512.873
900.5485, 2500.725
901.0306, 2492.812
901.5127, 2493.535
901.9948, 2499.726
902.4769, 2505.043
902.9590, 2511.772
903.4412, 2509.669
903.9233, 2487.630
904.4054, 2471.256
904.8875, 2472.759
905.3696, 2479.963
905.8517, 2479.284
906.3339, 2471.012
906.8160, 2467.929
907.2981, 2479.823
907.7802, 2489.000
908.2623, 2486.549
908.7444, 2479.493
909.2266, 2474.050
909.7087, 2470.335
910.1908, 2466.680
910.6729, 2462.834
911.1550, 2455.767
911.6371, 2434.654
912.1193, 2412.794
912.6014, 2416.210
913.0835, 2439.537
913.5656, 2461.182
914.0477, 2473.250
914.5298, 2474.719
915.0120, 2461.427
915.4941, 2438.483
915.9762, 2426.633
916.4583, 2426.118
916.9404, 2428.250
917.4225, 2432.443
917.9047, 2433.318
918.3868, 2425.596
918.8689, 2412.912
919.3510, 2407.615
919.8331, 2416.039
920.3152, 2415.287
920.7974, 2398.029
921.2795, 2381.903
921.7616, 2373.476
922.2437, 2370.368
922.7258, 2371.416
923.2079, 2376.859
923.6901, 2378.913
924.1722, 2368.196
924.6543, 2364.469
925.1364, 2383.008
925.6185, 2404.724
926.1006, 2413.144
926.5828, 2408.767
927.0649, 2398.801
927.5470, 2383.782
928.0291, 2371.229
928.5112, 2366.553
928.9933, 2366.927
929.4755, 2372.363
929.9576, 2379.436
930.4397, 2379.721
930.9218, 2370.903
931.4039, 2359.978
931.8860, 2351.758
932.3682, 2347.572
932.8503, 2353.763
933.3324, 2367.633
933.8145, 2374.249
934.2966, 2370.669
934.7787, 2363.486
935.2609, 2356.644
935.7430, 2351.521
936.2251, 2352.785
936.7072, 2361.674
937.1893, 2365.491
937.6714, 2363.112
938.1536, 2357.876
938.6357, 2350.427
939.1178, 2341.773
939.5999, 2332.974
940.0820, 2323.908
940.5641, 2316.549
941.0463, 2309.873
941.5284, 2306.456
942.0105, 2308.648
942.4926, 2312.141
942.9747, 2318.953
943.4568, 2324.335
943.9390, 2313.222
944.4211, 2271.025
944.9032, 2249.276
945.3853, 2280.686
945.8674, 2315.455
946.3495, 2325.935
946.8317, 2320.347
947.3138, 2307.969
947.7959, 2292.781
948.2780, 2285.699
948.7601, 2303.651
949.2422, 2318.444
949.7244, 2296.496
950.2065, 2261.868
950.6886, 2248.697
951.1707, 2257.830
951.6528, 2277.293
952.1349, 2302.007
952.6171, 2319.990
953.0992, 2312.394
953.5813, 2288.616
954.0634, 2270.962
954.5455, 2259.456
955.0276, 2250.003
955.5098, 2241.474
955.9919, 2236.730
956.4740, 2239.078
956.9561, 2246.179
957.4382, 2249.971
957.9203, 2250.199
958.4025, 2253.678
958.8846, 2261.897
959.3667, 2270.360
959.8488, 2278.823
960.3309, 2281.609
960.8130, 2266.281
961.2952, 2229.312
961.7773, 2208.704
962.2594, 2212.023
962.7415, 2216.377
963.2236, 2214.822
963.7057, 2214.441
964.1879, 2224.344
964.6700, 2241.002
965.1521, 2247.721
965.6342, 2236.053
966.1163, 2229.912
966.5984, 2236.673
967.0806, 2242.930
967.5627, 2240.017
968.0448, 2234.280
968.5269, 2238.276
969.0090, 2252.408
969.4911, 2252.553
969.9733, 2213.143
970.4554, 2180.082
970.9375, 2180.509
971.4196, 2193.217
971.9017, 2200.373
972.3839, 2200.727
972.8660, 2197.267
973.3481, 2190.507
973.8302, 2185.384
974.3123, 2186.725
974.7944, 2190.577
975.2766, 2192.465
975.7587, 2193.445
976.2408, 2198.442
976.7229, 2206.757
977.2050, 2207.514
977.6871, 2190.030
978.1693, 2168.666
978.6514, 2166.914
979.1335, 2177.969
979.6156, 2184.375
980.0977, 2184.923
980.5798, 2184.234
981.0620, 2184.298
981.5441, 2182.377
982.0262, 2173.777
982.5083, 2160.824
982.9904, 2154.520
983.4725, 2154.662
983.9547, 2154.366
984.4368, 2152.204
984.9189, 2150.215
985.4010, 2149.720
985.8831, 2150.623
986.3652, 2154.173
986.8474, 2162.019
987.3295, 2157.837
987.8116, 2135.348
988.2937, 2123.617
988.7758, 2137.275
989.2579, 2155.646
989.7401, 2156.616
990.2222, 2142.497
990.7043, 2133.125
991.1864, 2126.838
991.6685, 2129.596
992.1506, 2154.588
992.6328, 2171.436
993.1149, 2159.964
993.5970, 2134.134
994.0791, 2112.948
994.5612, 2095.099
995.0433, 2092.329
995.5255, 2126.634
996.0076, 2146.766
996.4897, 2127.059
996.9718, 2102.867
997.4539, 2100.549
997.9360, 2114.666
998.4182, 2129.246
998.9003, 2144.450
999.3824, 2149.822
999.8645, 2123.930
1000.347, 2108.282
1000.829, 2145.027
1001.311, 2191.727
1001.793, 2191.438
1002.275, 2146.953
1002.757, 2110.535
1003.239, 2105.823
1003.721, 2107.406
1004.204, 2099.914
1004.686, 2092.796
1005.168, 2101.144
1005.650, 2114.901
1006.132, 2110.887
1006.614, 2084.880
1007.096, 2060.127
1007.578, 2052.365
1008.060, 2053.380
1008.543, 2060.776
1009.025, 2068.548
1009.507, 2063.270
1009.989, 2048.711
1010.471, 2044.096
1010.953, 2057.930
1011.435, 2072.423
1011.917, 2063.013
1012.400, 2045.460
1012.882, 2051.314
1013.364, 2072.161
1013.846, 2082.088
1014.328, 2077.036
1014.810, 2069.156
1015.292, 2066.083
1015.774, 2066.202
1016.256, 2068.928
1016.739, 2072.534
1017.221, 2069.457
1017.703, 2060.496
1018.185, 2053.100
1018.667, 2049.641
1019.149, 2051.179
1019.631, 2060.199
1020.113, 2071.782
1020.596, 2068.993
1021.078, 2053.564
1021.560, 2050.857
1022.042, 2063.601
1022.524, 2076.890
1023.006, 2084.481
1023.488, 2087.415
1023.970, 2085.975
1024.452, 2081.275
1024.935, 2082.342
1025.417, 2089.934
1025.899, 2095.007
1026.381, 2095.552
1026.863, 2096.669
1027.345, 2102.264
1027.827, 2108.148
1028.309, 2105.891
1028.792, 2094.793
1029.274, 2086.803
1029.756, 2082.063
1030.238, 2080.265
1030.720, 2082.179
1031.202, 2085.129
1031.684, 2087.040
1032.166, 2088.443
1032.648, 2089.956
1033.130, 2088.209
1033.613, 2099.689
1034.095, 2130.024
1034.577, 2161.278
1035.059, 2183.146
1035.541, 2209.239
1036.023, 2241.855
1036.505, 2288.795
1036.987, 2396.120
1037.470, 2587.845
1037.952, 2792.376
1038.434, 3008.013
1038.916, 3235.890
1039.398, 3489.538
1039.880, 3745.006
1040.362, 3962.177
1040.844, 4142.279
1041.327, 4386.360
1041.809, 4717.206
1042.291, 5074.465
1042.773, 5464.671
1043.255, 5873.502
1043.737, 6264.659
1044.219, 6685.594
1044.701, 7193.823
1045.183, 7791.384
1045.666, 8507.961
1046.148, 9804.113
1046.630, 10571.74
1047.112, 10500.63
1047.594, 9944.464
1048.076, 8873.682
1048.558, 7565.560
1049.040, 6496.800
1049.522, 5728.994
1050.005, 5087.641
1050.487, 4621.562
1050.969, 4175.678
1051.451, 3672.288
1051.933, 3193.794
1052.415, 2784.624
1052.897, 2456.692
1053.379, 2227.507
1053.862, 2112.656
1054.344, 2044.016
1054.826, 2032.516
1055.308, 2029.636
1055.790, 2018.776
1056.272, 2003.174
1056.754, 1983.400
1057.236, 1962.468
1057.719, 1949.402
1058.201, 1949.103
1058.683, 1947.986
1059.165, 1938.893
1059.647, 1931.173
1060.129, 1931.488
1060.611, 1934.851
1061.093, 1934.618
1061.575, 1931.471
1062.057, 1931.830
1062.540, 1939.328
1063.022, 1946.352
1063.504, 1955.733
1063.986, 1957.644
1064.468, 1938.212
1064.950, 1911.786
1065.432, 1896.701
1065.914, 1894.399
1066.397, 1896.276
1066.879, 1903.357
1067.361, 1906.587
1067.843, 1896.367
1068.325, 1886.601
1068.807, 1887.707
1069.289, 1895.844
1069.771, 1906.180
1070.254, 1917.074
1070.736, 1924.248
1071.218, 1925.293
1071.700, 1923.561
1072.182, 1922.668
1072.664, 1917.703
1073.146, 1897.511
1073.628, 1873.646
1074.110, 1868.208
1074.593, 1883.387
1075.075, 1894.630
1075.557, 1889.621
1076.039, 1880.750
1076.521, 1871.644
1077.003, 1863.309
1077.485, 1857.040
1077.967, 1852.027
1078.450, 1846.441
1078.932, 1840.023
1079.414, 1834.781
1079.896, 1831.636
1080.378, 1829.860
1080.860, 1800.777
1081.342, 1835.159
1081.824, 1854.350
1082.307, 1859.163
1082.789, 1806.543
1083.271, 1828.087
1083.753, 1819.910
1084.235, 1810.514
1084.717, 1842.496
1085.199, 1798.230
1085.681, 1829.557
1086.163, 1830.708
1086.646, 1845.669
1087.128, 1830.725
1087.610, 1825.018
1088.092, 1849.226
1088.574, 1856.870
1089.056, 1838.484
1089.538, 1854.323
1090.020, 1809.012
1090.502, 1817.362
1090.985, 1848.862
1091.467, 1831.980
1091.949, 1848.366
1092.431, 1852.081
1092.913, 1798.215
1093.395, 1844.490
1093.877, 1847.456
1094.359, 1805.955
1094.842, 1848.798
1095.324, 1821.911
1095.806, 1826.215
1096.288, 1835.722
1096.770, 1841.533
1097.252, 1841.572
1097.734, 1836.411
1098.216, 1820.478
1098.698, 1804.633
1099.181, 1799.882
1099.663, 1801.713
1100.145, 1799.069
1100.627, 1789.511
1101.109, 1781.244
1101.591, 1774.623
1102.073, 1771.772
1102.555, 1774.016
1103.037, 1779.694
1103.520, 1789.678
1104.002, 1801.439
1104.484, 1810.652
1104.966, 1816.979
1105.448, 1818.968
1105.930, 1812.576
1106.412, 1807.011
1106.894, 1797.943
1107.377, 1797.166
1107.859, 1825.351
1108.341, 1863.951
1108.823, 1873.145
1109.305, 1845.449
1109.787, 1820.358
1110.269, 1795.462
1110.751, 1781.742
1111.234, 1786.991
1111.716, 1798.269
1112.198, 1810.975
1112.680, 1822.768
1113.162, 1828.813
1113.644, 1828.142
1114.126, 1827.666
1114.608, 1832.792
1115.090, 1829.445
1115.573, 1808.071
1116.055, 1787.259
1116.537, 1778.490
1117.019, 1776.325
1117.501, 1770.278
1117.983, 1759.204
1118.465, 1758.422
1118.947, 1778.468
1119.429, 1785.735
1119.912, 1767.664
1120.394, 1750.260
1120.876, 1747.934
1121.358, 1754.249
1121.840, 1759.668
1122.322, 1764.190
1122.804, 1768.131
1123.286, 1772.975
1123.769, 1770.930
1124.251, 1756.073
1124.733, 1748.969
1125.215, 1762.661
1125.697, 1784.141
1126.179, 1796.705
1126.661, 1800.257
1127.143, 1791.232
1127.625, 1766.145
1128.108, 1753.394
1128.590, 1757.821
1129.072, 1763.408
1129.554, 1762.641
1130.036, 1761.380
1130.518, 1767.819
1131.000, 1778.778
1131.482, 1778.378
1131.964, 1766.771
1132.447, 1756.137
1132.929, 1747.597
1133.411, 1740.851
1133.893, 1735.729
1134.375, 1734.140
1134.857, 1738.974
1135.339, 1746.831
1135.821, 1748.925
1136.304, 1745.965
1136.786, 1740.597
1137.268, 1733.662
1137.750, 1729.234
1138.232, 1728.628
1138.714, 1731.221
1139.196, 1737.169
1139.678, 1743.859
1140.161, 1747.941
1140.643, 1748.924
1141.125, 1743.093
1141.607, 1733.086
1142.089, 1729.166
1142.571, 1732.742
1143.053, 1734.237
1143.535, 1726.181
1144.017, 1718.921
1144.500, 1728.608
1144.982, 1743.460
1145.464, 1744.222
1145.946, 1737.207
1146.428, 1739.265
1146.910, 1749.907
1147.392, 1751.303
1147.874, 1732.881
1148.356, 1716.014
1148.839, 1720.426
1149.321, 1730.480
1149.803, 1735.907
1150.285, 1735.486
1150.767, 1722.679
1151.249, 1703.626
1151.731, 1698.413
1152.213, 1715.509
1152.696, 1729.516
1153.178, 1723.197
1153.660, 1717.187
1154.142, 1726.756
1154.624, 1738.037
1155.106, 1735.933
1155.588, 1725.658
1156.070, 1721.073
1156.552, 1724.910
1157.035, 1728.305
1157.517, 1733.014
1157.999, 1731.941
1158.481, 1715.577
1158.963, 1700.992
1159.445, 1705.081
1159.927, 1714.953
1160.409, 1704.003
1160.891, 1670.348
1161.374, 1660.830
1161.856, 1697.705
1162.338, 1716.870
1162.820, 1701.344
1163.302, 1688.797
1163.784, 1697.117
1164.266, 1713.941
1164.748, 1727.611
1165.231, 1736.663
1165.713, 1729.067
1166.195, 1697.677
1166.677, 1683.433
1167.159, 1691.258
1167.641, 1703.804
1168.123, 1717.775
1168.605, 1723.048
1169.088, 1708.694
1169.570, 1683.515
1170.052, 1669.396
1170.534, 1666.007
1171.016, 1671.049
1171.498, 1683.691
1171.980, 1688.640
1172.462, 1682.555
1172.944, 1672.740
1173.427, 1663.306
1173.909, 1657.526
1174.391, 1664.962
1174.873, 1677.707
1175.355, 1669.854
1175.837, 1650.987
1176.319, 1653.640
1176.801, 1676.725
1177.283, 1692.251
1177.766, 1688.312
1178.248, 1679.871
1178.730, 1682.272
1179.212, 1685.072
1179.694, 1673.347
1180.176, 1657.285
1180.658, 1646.757
1181.140, 1644.979
1181.623, 1661.380
1182.105, 1695.044
1182.587, 1715.703
1183.069, 1700.923
1183.551, 1681.987
1184.033, 1671.086
1184.515, 1665.710
1184.997, 1666.830
1185.479, 1670.550
1185.962, 1671.863
1186.444, 1670.773
1186.926, 1670.606
1187.408, 1672.043
1187.890, 1674.136
1188.372, 1682.019
1188.854, 1683.661
1189.336, 1667.621
1189.818, 1650.891
1190.301, 1648.667
1190.783, 1654.890
1191.265, 1652.435
1191.747, 1637.834
1192.229, 1636.520
1192.711, 1654.442
1193.193, 1667.228
1193.675, 1670.030
1194.158, 1668.705
1194.640, 1666.178
1195.122, 1662.417
1195.604, 1657.092
1196.086, 1650.601
1196.568, 1642.511
1197.050, 1633.614
1197.532, 1643.844
1198.015, 1673.477
1198.497, 1690.453
1198.979, 1683.238
1199.461, 1667.425
1199.943, 1655.619
1200.425, 1647.374
1200.907, 1642.694
1201.389, 1640.732
1201.871, 1639.710
1202.354, 1639.859
1202.836, 1643.806
1203.318, 1650.499
1203.800, 1651.959
1204.282, 1642.915
1204.764, 1635.686
1205.246, 1642.187
1205.728, 1651.885
1206.210, 1658.997
1206.693, 1661.855
1207.175, 1655.374
1207.657, 1644.168
1208.139, 1640.231
1208.621, 1646.589
1209.103, 1650.331
1209.585, 1643.267
1210.067, 1639.731
1210.550, 1646.839
1211.032, 1654.830
1211.514, 1660.721
1211.996, 1662.379
1212.478, 1655.039
1212.960, 1640.285
1213.442, 1633.179
1213.924, 1638.324
1214.406, 1637.462
1214.889, 1626.363
1215.371, 1621.580
1215.853, 1629.631
1216.335, 1640.409
1216.817, 1645.971
1217.299, 1648.736
1217.781, 1656.259
1218.263, 1666.790
1218.745, 1656.634
1219.228, 1628.852
1219.710, 1614.528
1220.192, 1617.685
1220.674, 1626.112
1221.156, 1634.014
1221.638, 1639.074
1222.120, 1639.221
1222.602, 1634.792
1223.085, 1619.985
1223.567, 1604.990
1224.049, 1611.539
1224.531, 1630.645
1225.013, 1639.343
1225.495, 1633.651
1225.977, 1623.643
1226.459, 1611.546
1226.942, 1603.229
1227.424, 1604.870
1227.906, 1607.728
1228.388, 1603.698
1228.870, 1600.454
1229.352, 1609.828
1229.834, 1626.060
1230.316, 1631.336
1230.798, 1621.722
1231.281, 1613.500
1231.763, 1607.359
1232.245, 1602.099
1232.727, 1595.766
1233.209, 1593.885
1233.691, 1600.402
1234.173, 1610.442
1234.655, 1618.518
1235.137, 1624.622
1235.620, 1630.597
1236.102, 1636.632
1236.584, 1624.669
1237.066, 1594.721
1237.548, 1582.781
1238.030, 1597.456
1238.512, 1612.376
1238.994, 1609.874
1239.477, 1601.443
1239.959, 1604.039
1240.441, 1610.174
1240.923, 1604.518
1241.405, 1593.297
1241.887, 1586.579
1242.369, 1586.084
1242.851, 1594.760
1243.333, 1612.197
1243.816, 1622.290
1244.298, 1608.170
1244.780, 1597.903
1245.262, 1612.906
1245.744, 1628.044
1246.226, 1623.930
1246.708, 1611.961
1247.190, 1605.193
1247.672, 1603.858
1248.155, 1605.130
1248.637, 1610.504
1249.119, 1612.570
1249.601, 1608.449
1250.083, 1607.790
1250.565, 1614.006
1251.047, 1620.307
1251.529, 1623.977
1252.012, 1622.173
1252.494, 1608.533
1252.976, 1588.084
1253.458, 1586.576
1253.940, 1600.798
1254.422, 1598.969
1254.904, 1583.169
1255.386, 1589.047
1255.869, 1622.856
1256.351, 1647.270
1256.833, 1636.897
1257.315, 1616.292
1257.797, 1607.837
1258.279, 1579.400
1258.761, 1613.142
1259.243, 1631.690
1259.725, 1635.863
1260.208, 1582.600
1260.690, 1603.503
1261.172, 1594.684
1261.654, 1584.646
1262.136, 1615.987
1262.618, 1571.079
1263.100, 1601.764
1263.582, 1602.274
1264.064, 1616.594
1264.547, 1601.007
1265.029, 1594.659
1265.511, 1618.225
1265.993, 1625.228
1266.475, 1606.200
1266.957, 1621.398
1267.439, 1575.446
1267.921, 1583.154
1268.404, 1614.012
1268.886, 1596.488
1269.368, 1594.678
1269.850, 1597.805
1270.332, 1574.049
1270.814, 1544.541
1271.296, 1550.295
1271.778, 1573.716
1272.260, 1583.937
1272.743, 1584.130
1273.225, 1585.773
1273.707, 1590.276
1274.189, 1592.731
1274.671, 1591.051
1275.153, 1588.881
1275.635, 1586.563
1276.117, 1585.951
1276.599, 1589.016
1277.082, 1592.819
1277.564, 1594.681
##END=



