##NAMES=Nitratine
##RRUFFID=R050394
##IDEAL CHEMISTRY=NaN^5+^O_3_
##LOCALITY=Tarapaca, Chile
##OWNER=RRUFF
##SOURCE=Mark Candee
##DESCRIPTION=Colorless coarse powder
##STATUS=The identification of this mineral has been confirmed by X-ray diffraction and chemical analysis
##URL=rruff.info/R050394
##MEASURED CHEMISTRY=Na_1.00_NO_3_ ; = darker grains. The lighter grains are NaCl ; N not analyzed but estimated by difference and stiochiometry
92.35352, 28.10015
92.83563, 27.70704
93.31775, 27.54034
93.79987, 27.67648
94.28198, 28.04926
94.76410, 28.38216
95.24622, 28.38464
95.72833, 28.55921
96.21045, 30.31217
96.69257, 33.74452
97.17468, 37.26678
97.65680, 39.06892
98.13892, 39.20510
98.62103, 40.05987
99.10315, 42.38191
99.58527, 45.96690
100.0674, 49.29668
100.5495, 52.20774
101.0316, 55.16056
101.5137, 58.80700
101.9958, 63.45383
102.4780, 67.75214
102.9601, 70.73463
103.4422, 71.80667
103.9243, 75.69188
104.4064, 83.60085
104.8885, 93.56850
105.3707, 102.2788
105.8528, 109.3085
106.3349, 115.5659
106.8170, 121.3709
107.2991, 127.1037
107.7813, 131.6273
108.2634, 134.1486
108.7455, 135.3626
109.2276, 137.5054
109.7097, 142.6055
110.1918, 147.1783
110.6740, 149.7847
111.1561, 147.6333
111.6382, 146.6087
112.1203, 147.5540
112.6024, 150.1981
113.0845, 152.8430
113.5667, 154.3116
114.0488, 156.1804
114.5309, 159.5375
115.0130, 166.5205
115.4951, 173.2006
115.9772, 178.0422
116.4594, 181.1302
116.9415, 184.7922
117.4236, 190.2207
117.9057, 196.5676
118.3878, 202.8974
118.8699, 208.7765
119.3521, 214.6918
119.8342, 221.3651
120.3163, 228.9796
120.7984, 235.7628
121.2805, 240.0488
121.7626, 242.8081
122.2448, 245.6999
122.7269, 250.2337
123.2090, 254.9217
123.6911, 257.9608
124.1732, 258.7737
124.6553, 259.5609
125.1375, 262.3691
125.6196, 266.8446
126.1017, 271.8676
126.5838, 277.1107
127.0659, 282.4124
127.5480, 287.5261
128.0302, 292.4697
128.5123, 297.1801
128.9944, 301.1669
129.4765, 304.5576
129.9586, 308.5415
130.4407, 314.2270
130.9229, 321.2994
131.4050, 328.5285
131.8871, 335.4882
132.3692, 342.4512
132.8513, 349.8519
133.3334, 357.1273
133.8156, 363.2056
134.2977, 368.6080
134.7798, 374.5734
135.2619, 380.2112
135.7440, 384.9688
136.2261, 389.2251
136.7083, 395.7730
137.1904, 405.3482
137.6725, 414.9769
138.1546, 421.0760
138.6367, 422.8182
139.1188, 425.9219
139.6010, 432.0497
140.0831, 441.1655
140.5652, 450.7580
141.0473, 461.3505
141.5294, 471.8651
142.0115, 480.6140
142.4937, 487.0175
142.9758, 493.2079
143.4579, 499.6318
143.9400, 505.9902
144.4221, 513.8082
144.9042, 523.3485
145.3864, 534.1523
145.8685, 545.1709
146.3506, 555.9347
146.8327, 567.6332
147.3148, 580.9583
147.7969, 596.8391
148.2791, 612.0613
148.7612, 626.5730
149.2433, 640.3969
149.7254, 653.7714
150.2075, 663.7103
150.6896, 675.7078
151.1718, 691.8643
151.6539, 716.9362
152.1360, 739.2308
152.6181, 756.3957
153.1002, 770.3287
153.5823, 786.6120
154.0645, 806.9899
154.5466, 828.9666
155.0287, 851.3347
155.5108, 874.3107
155.9929, 897.6678
156.4750, 919.5516
156.9572, 941.1195
157.4393, 966.7449
157.9214, 999.5228
158.4035, 1035.542
158.8856, 1072.435
159.3677, 1109.176
159.8499, 1147.399
160.3320, 1186.654
160.8141, 1227.122
161.2962, 1270.445
161.7783, 1318.555
162.2604, 1368.780
162.7426, 1418.915
163.2247, 1464.961
163.7068, 1513.714
164.1889, 1569.882
164.6710, 1632.529
165.1531, 1695.115
165.6353, 1751.041
166.1174, 1806.254
166.5995, 1867.154
167.0816, 1940.463
167.5637, 2016.856
168.0458, 2090.718
168.5280, 2161.308
169.0101, 2232.287
169.4922, 2304.257
169.9743, 2377.618
170.4564, 2452.523
170.9385, 2530.446
171.4207, 2609.080
171.9028, 2685.886
172.3849, 2760.268
172.8670, 2835.910
173.3491, 2915.567
173.8312, 2999.002
174.3134, 3086.155
174.7955, 3177.688
175.2776, 3271.749
175.7597, 3365.183
176.2418, 3458.368
176.7239, 3552.686
177.2061, 3655.278
177.6882, 3763.079
178.1703, 3865.676
178.6524, 3954.883
179.1345, 4037.819
179.6166, 4126.786
180.0988, 4224.778
180.5809, 4321.250
181.0630, 4404.392
181.5451, 4476.450
182.0272, 4542.831
182.5093, 4611.409
182.9915, 4677.026
183.4736, 4725.861
183.9557, 4756.830
184.4378, 4773.376
184.9199, 4782.095
185.4020, 4781.917
185.8842, 4766.111
186.3663, 4730.266
186.8484, 4675.537
187.3305, 4607.215
187.8126, 4524.831
188.2947, 4429.495
188.7769, 4319.609
189.2590, 4195.642
189.7411, 4067.179
190.2232, 3937.808
190.7053, 3807.769
191.1874, 3674.741
191.6696, 3536.075
192.1517, 3396.219
192.6338, 3261.393
193.1159, 3131.565
193.5980, 3007.000
194.0801, 2889.051
194.5623, 2777.827
195.0444, 2666.641
195.5265, 2554.201
196.0086, 2443.785
196.4907, 2342.917
196.9728, 2252.131
197.4550, 2166.137
197.9371, 2081.403
198.4192, 1997.854
198.9013, 1919.709
199.3834, 1847.811
199.8655, 1781.276
200.3477, 1717.042
200.8298, 1655.247
201.3119, 1595.785
201.7940, 1537.657
202.2761, 1480.681
202.7582, 1427.124
203.2404, 1377.271
203.7225, 1330.892
204.2046, 1287.759
204.6867, 1248.330
205.1688, 1210.413
205.6509, 1172.709
206.1331, 1134.599
206.6152, 1099.625
207.0973, 1068.707
207.5794, 1040.780
208.0615, 1012.669
208.5436, 984.2923
209.0258, 955.8118
209.5079, 927.0640
209.9900, 897.5786
210.4721, 870.6526
210.9542, 847.1390
211.4363, 826.1532
211.9185, 804.9109
212.4006, 783.5677
212.8827, 761.4166
213.3648, 738.0455
213.8469, 712.3038
214.3290, 688.6354
214.8112, 667.5581
215.2933, 648.8160
215.7754, 630.9374
216.2575, 614.2142
216.7396, 597.7267
217.2217, 580.7879
217.7038, 562.7274
218.1860, 546.4969
218.6681, 532.9363
219.1502, 521.3428
219.6323, 509.2408
220.1144, 496.2237
220.5965, 483.5849
221.0787, 472.2191
221.5608, 462.4891
222.0429, 453.2158
222.5250, 444.8262
223.0071, 436.8167
223.4892, 427.4551
223.9714, 415.6016
224.4535, 404.0746
224.9356, 394.3052
225.4177, 386.9033
225.8998, 379.9536
226.3819, 373.4158
226.8641, 367.2318
227.3462, 361.4102
227.8283, 355.9145
228.3104, 350.8365
228.7925, 346.5058
229.2746, 343.8592
229.7568, 339.5358
230.2389, 332.4187
230.7210, 323.6609
231.2031, 317.4211
231.6852, 315.5616
232.1673, 313.4686
232.6495, 308.5208
233.1316, 298.1634
233.6137, 290.8458
234.0958, 288.2436
234.5779, 288.5699
235.0600, 286.7438
235.5422, 281.4337
236.0243, 275.8687
236.5064, 271.4479
236.9885, 268.5163
237.4706, 266.0356
237.9527, 264.4357
238.4349, 263.1974
238.9170, 260.9497
239.3991, 256.9999
239.8812, 253.0725
240.3633, 249.8117
240.8454, 247.1366
241.3276, 245.4457
241.8097, 245.5101
242.2918, 246.2943
242.7739, 245.4453
243.2560, 242.1213
243.7381, 238.4662
244.2203, 235.3100
244.7024, 232.9445
245.1845, 230.2135
245.6666, 226.7751
246.1487, 223.1419
246.6308, 220.3271
247.1130, 218.9775
247.5951, 217.3742
248.0772, 214.8579
248.5593, 211.1091
249.0414, 207.4625
249.5235, 203.3820
250.0057, 199.7459
250.4878, 198.2153
250.9699, 200.2903
251.4520, 201.7859
251.9341, 201.1747
252.4162, 197.9198
252.8984, 195.2038
253.3805, 193.1075
253.8626, 191.4752
254.3447, 190.1747
254.8268, 189.3492
255.3089, 188.5294
255.7911, 187.6338
256.2732, 186.6803
256.7553, 185.4943
257.2374, 184.1329
257.7195, 182.4747
258.2017, 180.1644
258.6838, 176.4682
259.1659, 173.7871
259.6480, 173.0245
260.1301, 174.2882
260.6122, 174.7149
261.0944, 174.1157
261.5765, 172.9087
262.0586, 171.4880
262.5407, 169.8077
263.0228, 168.0141
263.5049, 165.9188
263.9871, 163.5599
264.4692, 162.5716
264.9513, 163.6844
265.4334, 164.9863
265.9155, 164.6064
266.3976, 162.0795
266.8798, 159.4389
267.3619, 156.9398
267.8440, 154.5960
268.3261, 152.6407
268.8082, 150.9601
269.2903, 149.9057
269.7725, 150.2241
270.2546, 152.5279
270.7367, 153.2489
271.2188, 151.3499
271.7009, 147.5883
272.1830, 145.0782
272.6652, 143.9859
273.1473, 143.7444
273.6294, 144.4054
274.1115, 146.3283
274.5936, 146.7038
275.0757, 144.7205
275.5579, 141.3913
276.0400, 139.9458
276.5221, 140.8660
277.0042, 141.7184
277.4863, 140.7930
277.9684, 137.9097
278.4506, 135.7498
278.9327, 134.5728
279.4148, 134.1070
279.8969, 134.0478
280.3790, 134.5257
280.8611, 134.5016
281.3433, 132.8215
281.8254, 129.5074
282.3075, 128.3629
282.7896, 130.0558
283.2717, 132.6849
283.7538, 133.1042
284.2360, 131.2408
284.7181, 129.0943
285.2002, 127.3037
285.6823, 125.8982
286.1644, 125.2287
286.6465, 125.3801
287.1287, 125.9745
287.6108, 126.7661
288.0929, 127.7223
288.5750, 128.2516
289.0571, 128.1152
289.5392, 127.3729
290.0214, 126.1454
290.5035, 124.3917
290.9856, 122.5431
291.4677, 120.6616
291.9498, 118.9030
292.4319, 118.3698
292.9141, 120.0437
293.3962, 122.7930
293.8783, 124.0306
294.3604, 123.7377
294.8425, 122.5990
295.3246, 120.3531
295.8068, 117.5760
296.2889, 116.4186
296.7710, 118.0948
297.2531, 120.7774
297.7352, 121.2573
298.2173, 119.7393
298.6995, 117.9621
299.1816, 117.4900
299.6637, 117.6453
300.1458, 116.8999
300.6279, 114.7009
301.1100, 112.1147
301.5922, 110.2996
302.0743, 109.2070
302.5564, 108.6461
303.0385, 108.6827
303.5206, 109.1149
304.0027, 109.8312
304.4849, 110.9677
304.9670, 111.7331
305.4491, 110.8232
305.9312, 108.9008
306.4133, 107.5560
306.8954, 108.1336
307.3776, 109.3807
307.8597, 110.1030
308.3418, 110.2176
308.8239, 109.9405
309.3060, 109.4186
309.7881, 108.6130
310.2703, 107.4816
310.7524, 105.0790
311.2345, 103.0117
311.7166, 102.9129
312.1987, 104.7177
312.6808, 106.1659
313.1630, 105.7029
313.6451, 104.3266
314.1272, 103.0993
314.6093, 102.0482
315.0914, 101.5373
315.5735, 102.1089
316.0557, 103.5471
316.5378, 104.7099
317.0199, 105.1148
317.5020, 105.0556
317.9841, 104.7419
318.4662, 104.2229
318.9484, 103.4549
319.4305, 102.0812
319.9126, 100.4121
320.3947, 99.26305
320.8768, 98.85388
321.3589, 99.03609
321.8411, 99.91893
322.3232, 102.0530
322.8053, 103.5333
323.2874, 103.7371
323.7695, 103.1149
324.2516, 102.3801
324.7338, 101.7469
325.2159, 100.9200
325.6980, 99.49127
326.1801, 97.01380
326.6622, 95.89153
327.1443, 97.67434
327.6265, 100.2762
328.1086, 101.6003
328.5907, 100.5260
329.0728, 99.37708
329.5549, 98.48837
330.0370, 97.85993
330.5192, 97.12681
331.0013, 95.65323
331.4834, 94.60532
331.9655, 94.91434
332.4476, 98.06610
332.9297, 99.99725
333.4119, 99.95200
333.8940, 98.37763
334.3761, 97.17081
334.8582, 96.33537
335.3403, 95.89385
335.8224, 95.98159
336.3046, 96.94182
336.7867, 97.35925
337.2688, 97.00117
337.7509, 96.24519
338.2330, 95.80205
338.7151, 95.66188
339.1973, 95.89154
339.6794, 96.75923
340.1615, 98.32601
340.6436, 98.99437
341.1257, 98.60941
341.6078, 97.66026
342.0899, 96.53760
342.5721, 95.20921
343.0542, 94.42714
343.5363, 94.57025
344.0184, 95.43137
344.5005, 96.19667
344.9826, 96.87564
345.4648, 97.34952
345.9469, 97.63548
346.4290, 97.68114
346.9111, 96.91973
347.3932, 94.85814
347.8753, 92.45480
348.3575, 91.72707
348.8396, 92.56572
349.3217, 93.73985
349.8038, 94.88186
350.2859, 95.71672
350.7680, 95.26497
351.2502, 93.09323
351.7323, 90.85979
352.2144, 90.82904
352.6965, 92.38297
353.1786, 93.65477
353.6607, 93.36262
354.1429, 92.43278
354.6250, 92.15800
355.1071, 92.62052
355.5892, 92.84492
356.0713, 91.61256
356.5534, 89.75771
357.0356, 88.51688
357.5177, 88.75139
357.9998, 89.41100
358.4819, 89.86339
358.9640, 90.12233
359.4461, 90.24684
359.9283, 90.33485
360.4104, 90.26504
360.8925, 89.86364
361.3746, 88.68813
361.8567, 87.87544
362.3388, 88.39847
362.8210, 89.63445
363.3031, 90.18304
363.7852, 88.88892
364.2673, 87.38149
364.7494, 86.37076
365.2315, 85.96293
365.7137, 85.93811
366.1958, 86.92935
366.6779, 88.04757
367.1600, 88.25580
367.6421, 86.35904
368.1242, 84.66071
368.6064, 83.46116
369.0885, 82.76176
369.5706, 82.94429
370.0527, 84.96536
370.5348, 87.12955
371.0169, 88.35045
371.4991, 88.19050
371.9812, 87.80361
372.4633, 87.19846
372.9454, 86.41845
373.4275, 85.50783
373.9096, 83.96053
374.3918, 83.15606
374.8739, 84.05690
375.3560, 87.33064
375.8381, 89.30128
376.3202, 89.71443
376.8023, 89.13166
377.2845, 88.25631
377.7666, 87.03011
378.2487, 85.82639
378.7308, 84.56909
379.2129, 83.38996
379.6950, 83.73766
380.1772, 85.95490
380.6593, 87.94481
381.1414, 87.02074
381.6235, 83.61685
382.1056, 81.85261
382.5877, 82.97984
383.0699, 85.63581
383.5520, 87.63195
384.0341, 88.97047
384.5162, 89.49156
384.9983, 88.62413
385.4804, 86.93546
385.9626, 85.48962
386.4447, 84.31179
386.9268, 83.80791
387.4089, 85.17818
387.8910, 87.56711
388.3731, 89.01782
388.8553, 87.83753
389.3374, 85.83950
389.8195, 84.58453
390.3016, 84.10164
390.7837, 84.16116
391.2658, 85.39006
391.7480, 86.77350
392.2301, 87.17218
392.7122, 85.34164
393.1943, 83.76254
393.6764, 83.83601
394.1585, 85.12356
394.6407, 86.36987
395.1228, 87.73601
395.6049, 88.49638
396.0870, 88.02747
396.5691, 85.66499
397.0512, 84.03271
397.5334, 83.94587
398.0155, 84.75529
398.4976, 85.64516
398.9797, 87.52017
399.4618, 88.41237
399.9439, 87.41183
400.4261, 84.53242
400.9082, 82.79129
401.3903, 82.68413
401.8724, 83.24193
402.3545, 83.89771
402.8366, 84.71043
403.3188, 85.51759
403.8009, 86.51402
404.2830, 87.41099
404.7651, 87.35707
405.2472, 86.05029
405.7293, 84.65202
406.2115, 83.52113
406.6936, 82.65857
407.1757, 82.46723
407.6578, 83.12697
408.1399, 83.97244
408.6220, 84.17510
409.1042, 83.75086
409.5863, 83.42027
410.0684, 83.40937
410.5505, 83.58466
411.0326, 83.72088
411.5147, 83.81056
411.9969, 83.64275
412.4790, 82.69930
412.9611, 81.40602
413.4432, 80.87379
413.9253, 81.35484
414.4074, 82.17329
414.8896, 82.84100
415.3717, 83.29647
415.8538, 83.38240
416.3359, 82.65490
416.8180, 81.75902
417.3001, 81.30928
417.7823, 81.30284
418.2644, 81.37025
418.7465, 81.39525
419.2286, 81.34099
419.7107, 81.14565
420.1928, 80.46086
420.6750, 80.07875
421.1571, 80.56721
421.6392, 81.60780
422.1213, 82.36333
422.6034, 82.63142
423.0855, 82.55293
423.5677, 81.99744
424.0498, 80.62157
424.5319, 80.00105
425.0140, 81.02188
425.4961, 82.48954
425.9782, 83.17856
426.4604, 82.33585
426.9425, 81.83582
427.4246, 82.14759
427.9067, 83.09964
428.3888, 83.43815
428.8709, 82.94081
429.3531, 82.22609
429.8352, 81.43548
430.3173, 80.36781
430.7994, 80.49187
431.2815, 82.24574
431.7636, 84.55272
432.2458, 85.59235
432.7279, 85.30034
433.2100, 84.80009
433.6921, 84.45917
434.1742, 84.21539
434.6563, 83.89274
435.1385, 83.49057
435.6206, 82.92236
436.1027, 81.84273
436.5848, 80.52944
437.0669, 79.86655
437.5490, 80.26103
438.0312, 80.74413
438.5133, 79.96535
438.9954, 78.34221
439.4775, 77.03263
439.9596, 76.63281
440.4417, 76.81267
440.9239, 77.46413
441.4060, 78.58099
441.8881, 79.56026
442.3702, 80.18134
442.8523, 80.43170
443.3344, 80.27839
443.8166, 78.82049
444.2987, 78.00502
444.7808, 79.17798
445.2629, 81.54631
445.7450, 82.79607
446.2271, 81.29344
446.7093, 79.57539
447.1914, 78.55510
447.6735, 78.38210
448.1556, 78.57684
448.6377, 79.69518
449.1198, 80.80586
449.6020, 80.79227
450.0841, 78.58324
450.5662, 77.57552
451.0483, 78.79113
451.5304, 81.58001
452.0125, 82.99175
452.4947, 82.82723
452.9768, 81.93819
453.4589, 80.51139
453.9410, 78.51060
454.4231, 77.15118
454.9052, 76.46532
455.3874, 76.33363
455.8695, 76.83075
456.3516, 77.85974
456.8337, 78.69033
457.3158, 79.06068
457.7979, 79.12750
458.2801, 79.12719
458.7622, 79.06585
459.2443, 78.98283
459.7264, 78.93510
460.2085, 78.87215
460.6906, 78.66598
461.1728, 78.23595
461.6549, 77.96491
462.1370, 78.35451
462.6191, 79.03453
463.1012, 79.45338
463.5833, 79.36691
464.0655, 79.01362
464.5476, 78.11870
465.0297, 76.83693
465.5118, 76.38464
465.9939, 78.36147
466.4760, 80.33717
466.9582, 80.88744
467.4403, 78.64577
467.9224, 77.24546
468.4045, 77.21935
468.8866, 77.87608
469.3687, 78.23804
469.8509, 78.12821
470.3330, 78.04003
470.8151, 78.12694
471.2972, 78.35594
471.7793, 78.30445
472.2614, 77.82817
472.7436, 77.46590
473.2257, 77.83765
473.7078, 78.96819
474.1899, 79.11845
474.6720, 77.91182
475.1541, 76.37981
475.6363, 76.23143
476.1184, 77.24969
476.6005, 78.03930
477.0826, 77.86406
477.5647, 77.23039
478.0468, 76.85941
478.5290, 76.75818
479.0111, 76.99233
479.4932, 77.97524
479.9753, 79.16186
480.4574, 79.89598
480.9395, 79.99771
481.4217, 79.85081
481.9038, 79.35666
482.3859, 78.83726
482.8680, 78.77647
483.3501, 79.95045
483.8322, 81.00919
484.3144, 81.52969
484.7965, 81.49973
485.2786, 81.06989
485.7607, 79.93484
486.2428, 78.65907
486.7249, 77.41719
487.2071, 75.65486
487.6892, 75.22047
488.1713, 76.88403
488.6534, 79.33733
489.1355, 80.70322
489.6176, 80.73695
490.0998, 80.38718
490.5819, 79.79006
491.0640, 78.99880
491.5461, 78.21245
492.0282, 77.38824
492.5103, 76.85168
492.9925, 77.09925
493.4746, 77.91792
493.9567, 78.10072
494.4388, 77.48026
494.9209, 76.67180
495.4030, 76.43464
495.8852, 76.56011
496.3673, 76.50266
496.8494, 75.81847
497.3315, 75.09400
497.8136, 74.83556
498.2957, 75.00584
498.7779, 75.46510
499.2600, 76.45628
499.7421, 77.49455
500.2242, 78.35318
500.7063, 79.11646
501.1884, 79.21535
501.6706, 77.51186
502.1527, 75.49077
502.6348, 74.68247
503.1169, 76.55779
503.5990, 78.13612
504.0811, 78.99062
504.5633, 79.29750
505.0454, 79.71790
505.5275, 80.29394
506.0096, 80.91777
506.4917, 81.79303
506.9738, 83.06369
507.4560, 82.49740
507.9381, 79.41669
508.4202, 76.32243
508.9023, 76.48280
509.3844, 79.64062
509.8665, 81.03150
510.3487, 79.13985
510.8308, 76.25963
511.3129, 76.80417
511.7950, 80.02897
512.2772, 82.45683
512.7593, 80.98257
513.2414, 78.37823
513.7235, 78.34779
514.2056, 80.84883
514.6877, 83.18490
515.1699, 83.44498
515.6520, 82.84676
516.1341, 82.59087
516.6162, 83.45418
517.0983, 83.65747
517.5804, 81.64877
518.0626, 78.79923
518.5447, 77.35825
519.0268, 79.26695
519.5089, 80.93373
519.9910, 81.60020
520.4731, 81.30794
520.9553, 80.47398
521.4374, 78.35793
521.9195, 76.81571
522.4016, 77.27666
522.8837, 80.40536
523.3658, 81.84682
523.8480, 81.15470
524.3301, 79.64766
524.8122, 79.00993
525.2943, 79.20403
525.7764, 79.67889
526.2585, 80.50109
526.7407, 81.27423
527.2228, 81.03709
527.7049, 79.96911
528.1870, 79.12612
528.6691, 79.44373
529.1512, 80.17438
529.6334, 80.36494
530.1155, 79.93071
530.5976, 79.58334
531.0797, 79.78745
531.5618, 80.26699
532.0439, 80.76294
532.5261, 81.40839
533.0082, 81.78648
533.4903, 81.72210
533.9724, 81.33031
534.4545, 80.85066
534.9366, 80.00297
535.4188, 79.42494
535.9009, 79.37823
536.3830, 79.84579
536.8651, 79.94121
537.3472, 79.29352
537.8293, 79.00294
538.3115, 80.30643
538.7936, 83.44729
539.2757, 84.46219
539.7578, 82.74512
540.2399, 80.05089
540.7220, 78.34561
541.2042, 77.64076
541.6863, 77.95448
542.1684, 79.79771
542.6505, 82.06310
543.1326, 83.26685
543.6147, 83.53596
544.0969, 83.36964
544.5790, 82.72075
545.0611, 81.97832
545.5432, 81.45768
546.0253, 81.19189
546.5074, 81.02798
546.9896, 81.09817
547.4717, 81.13539
547.9538, 80.90405
548.4359, 79.54420
548.9180, 79.05594
549.4001, 80.49846
549.8823, 82.62245
550.3644, 83.20407
550.8465, 81.26155
551.3286, 79.61954
551.8107, 78.93494
552.2928, 79.13943
552.7750, 79.86904
553.2571, 81.24561
553.7392, 82.56625
554.2213, 83.45700
554.7034, 83.91412
555.1855, 83.87126
555.6677, 83.28099
556.1498, 82.51712
556.6319, 82.00134
557.1140, 81.60646
557.5961, 81.03189
558.0782, 79.98888
558.5604, 79.08086
559.0425, 78.79914
559.5246, 79.02654
560.0067, 79.51281
560.4888, 80.84906
560.9709, 81.78868
561.4531, 81.32958
561.9352, 79.46098
562.4173, 78.54571
562.8994, 79.78526
563.3815, 81.34574
563.8636, 82.38322
564.3458, 82.90586
564.8279, 82.81343
565.3100, 81.90749
565.7921, 80.63728
566.2742, 79.46683
566.7563, 78.34978
567.2385, 77.71104
567.7206, 77.64641
568.2027, 78.11443
568.6848, 79.41939
569.1669, 81.40644
569.6490, 82.77383
570.1312, 82.16817
570.6133, 80.83740
571.0954, 80.77900
571.5775, 81.94650
572.0596, 82.97124
572.5417, 82.70890
573.0239, 82.07559
573.5060, 81.94020
573.9881, 82.73851
574.4702, 83.25111
574.9523, 82.82329
575.4344, 82.02030
575.9166, 81.56586
576.3987, 81.97816
576.8808, 82.09819
577.3629, 81.60765
577.8450, 80.75768
578.3271, 80.36487
578.8093, 80.48418
579.2914, 80.92447
579.7735, 81.93507
580.2556, 83.30116
580.7377, 83.02689
581.2198, 80.94384
581.7020, 79.05205
582.1841, 79.28698
582.6662, 80.94180
583.1483, 82.52234
583.6304, 83.90768
584.1125, 84.65145
584.5947, 83.91685
585.0768, 82.39890
585.5589, 81.11171
586.0410, 80.42427
586.5231, 80.01250
587.0052, 79.50452
587.4873, 79.16225
587.9694, 79.68736
588.4515, 83.04866
588.9337, 85.37968
589.4158, 85.20029
589.8979, 82.49239
590.3800, 80.63035
590.8621, 79.86790
591.3442, 79.49748
591.8264, 78.98214
592.3085, 78.26079
592.7906, 78.36486
593.2727, 79.43771
593.7548, 80.93618
594.2369, 82.47652
594.7191, 83.96313
595.2012, 84.98934
595.6833, 85.40726
596.1654, 85.44450
596.6475, 85.28860
597.1296, 84.94637
597.6118, 84.43085
598.0939, 83.19635
598.5760, 82.28367
599.0581, 82.64674
599.5402, 84.09770
600.0223, 84.88862
600.5045, 83.43663
600.9866, 82.29143
601.4687, 82.93603
601.9508, 86.19528
602.4329, 87.48047
602.9150, 85.82050
603.3972, 83.51873
603.8793, 82.57449
604.3614, 83.06035
604.8435, 84.25116
605.3256, 86.38937
605.8077, 88.41523
606.2899, 88.23630
606.7720, 86.29367
607.2541, 84.68397
607.7362, 84.40520
608.2183, 84.60303
608.7004, 84.26708
609.1826, 83.54956
609.6647, 82.99115
610.1468, 82.66634
610.6289, 82.74325
611.1110, 83.62083
611.5931, 85.36160
612.0753, 86.42340
612.5574, 85.97438
613.0395, 85.17241
613.5216, 84.64498
614.0037, 84.35274
614.4858, 84.47289
614.9680, 85.18806
615.4501, 86.06796
615.9322, 86.53786
616.4143, 86.56405
616.8964, 86.86940
617.3785, 87.78339
617.8607, 88.66608
618.3428, 88.21065
618.8249, 86.68188
619.3070, 85.18580
619.7891, 83.92847
620.2712, 83.17185
620.7534, 83.59879
621.2355, 84.91754
621.7176, 85.75374
622.1997, 84.84012
622.6818, 83.74612
623.1639, 83.39760
623.6461, 83.98399
624.1282, 84.53855
624.6103, 85.10320
625.0924, 85.49020
625.5745, 85.46031
626.0566, 84.54624
626.5388, 84.78041
627.0209, 86.81676
627.5030, 88.96223
627.9851, 88.26637
628.4672, 84.92855
628.9493, 83.10705
629.4315, 84.27220
629.9136, 86.50468
630.3957, 86.87767
630.8778, 85.84226
631.3599, 84.73567
631.8420, 83.74959
632.3242, 83.31173
632.8063, 84.18407
633.2884, 86.07322
633.7705, 87.41875
634.2526, 87.47180
634.7347, 87.02757
635.2169, 86.43634
635.6990, 85.73634
636.1811, 84.69900
636.6632, 82.65188
637.1453, 81.11357
637.6274, 81.54018
638.1096, 84.39842
638.5917, 85.93228
639.0738, 85.80382
639.5559, 84.84715
640.0380, 83.51975
640.5201, 82.12337
641.0023, 82.20201
641.4844, 84.77141
641.9665, 87.68326
642.4486, 88.72762
642.9307, 88.40620
643.4128, 87.80389
643.8950, 87.18120
644.3771, 86.58101
644.8592, 85.95542
645.3413, 85.34606
645.8234, 84.93121
646.3055, 84.45784
646.7877, 84.52110
647.2698, 85.61372
647.7519, 87.81564
648.2340, 88.76453
648.7161, 88.11720
649.1982, 87.15797
649.6804, 86.95557
650.1625, 87.38071
650.6446, 87.00134
651.1267, 85.63000
651.6088, 84.38762
652.0909, 84.83995
652.5731, 86.15288
653.0552, 86.70943
653.5373, 85.64104
654.0194, 84.92608
654.5015, 86.61353
654.9836, 89.20409
655.4658, 90.50607
655.9479, 88.42922
656.4300, 86.77402
656.9121, 86.36349
657.3942, 86.90167
657.8763, 87.70836
658.3585, 89.09602
658.8406, 89.99720
659.3227, 89.86610
659.8048, 88.98130
660.2869, 89.04041
660.7690, 90.09233
661.2512, 90.70525
661.7333, 89.62360
662.2154, 87.56278
662.6975, 85.59392
663.1796, 83.78677
663.6617, 82.80533
664.1439, 83.54248
664.6260, 85.05239
665.1081, 86.65957
665.5902, 88.46301
666.0723, 89.57407
666.5544, 89.22724
667.0366, 88.40434
667.5187, 88.03346
668.0008, 88.42558
668.4829, 88.60817
668.9650, 88.41148
669.4471, 88.12351
669.9293, 88.29671
670.4114, 88.93919
670.8935, 89.42763
671.3756, 89.78741
671.8577, 89.60864
672.3398, 87.35851
672.8220, 83.80299
673.3041, 81.58974
673.7862, 82.98006
674.2683, 85.37898
674.7504, 87.17908
675.2325, 88.41827
675.7147, 89.42472
676.1968, 90.56988
676.6789, 91.26379
677.1610, 91.09312
677.6431, 90.02615
678.1252, 89.16285
678.6074, 88.61473
679.0895, 88.07604
679.5716, 87.28707
680.0537, 86.24202
680.5358, 85.43171
681.0179, 84.82863
681.5001, 84.74316
681.9822, 86.03500
682.4643, 87.97932
682.9464, 89.06406
683.4285, 88.96442
683.9106, 88.26336
684.3928, 86.42168
684.8749, 84.59232
685.3570, 84.13622
685.8391, 87.71048
686.3212, 89.82992
686.8033, 88.06934
687.2855, 84.87176
687.7676, 84.22856
688.2497, 87.28935
688.7318, 90.10063
689.2139, 92.12482
689.6960, 93.20558
690.1782, 92.28008
690.6603, 89.47789
691.1424, 87.32286
691.6245, 87.40233
692.1066, 88.52838
692.5887, 88.84241
693.0709, 88.53378
693.5530, 88.42524
694.0351, 89.37023
694.5172, 90.32661
694.9993, 90.51501
695.4814, 89.86501
695.9636, 89.51828
696.4457, 89.75023
696.9278, 90.21983
697.4099, 90.84093
697.8920, 91.67172
698.3741, 92.25111
698.8563, 92.55428
699.3384, 92.68128
699.8205, 92.56644
700.3026, 92.31606
700.7847, 92.45728
701.2668, 93.07001
701.7490, 93.88406
702.2311, 94.84095
702.7132, 95.76894
703.1953, 96.39238
703.6774, 96.45943
704.1595, 96.60597
704.6417, 96.41711
705.1238, 96.68172
705.6059, 98.59363
706.0880, 103.5280
706.5701, 107.6904
707.0522, 109.6443
707.5344, 111.4423
708.0165, 117.3380
708.4986, 127.4187
708.9807, 139.6712
709.4628, 153.8654
709.9449, 169.4250
710.4271, 186.6734
710.9092, 204.6004
711.3913, 220.1022
711.8734, 230.5529
712.3555, 238.6102
712.8376, 244.9503
713.3198, 250.2290
713.8019, 257.2232
714.2840, 267.7960
714.7661, 279.2567
715.2482, 290.4960
715.7303, 301.5394
716.2125, 312.9603
716.6946, 323.7433
717.1767, 337.8809
717.6588, 356.9934
718.1409, 381.3139
718.6230, 411.4774
719.1052, 447.9135
719.5873, 488.7777
720.0694, 533.5419
720.5515, 582.2267
721.0336, 634.3713
721.5157, 689.0849
721.9979, 753.1827
722.4800, 833.9542
722.9621, 923.5455
723.4442, 1020.907
723.9263, 1157.626
724.4084, 1232.865
724.8906, 1251.948
725.3727, 1203.758
725.8548, 1054.011
726.3369, 791.8582
726.8190, 571.2643
727.3011, 411.9923
727.7833, 298.4047
728.2654, 225.4444
728.7475, 184.6945
729.2296, 157.2984
729.7117, 141.0259
730.1938, 130.2613
730.6760, 123.5692
731.1581, 119.5285
731.6402, 115.8277
732.1223, 111.4734
732.6044, 108.0470
733.0865, 106.1418
733.5687, 105.1428
734.0508, 103.6672
734.5329, 101.4551
735.0150, 99.91579
735.4971, 99.67139
735.9792, 100.0177
736.4614, 99.07031
736.9435, 97.13897
737.4256, 95.81808
737.9077, 96.66702
738.3898, 97.88770
738.8719, 97.61957
739.3541, 96.27558
739.8362, 95.31438
740.3183, 95.78667
740.8004, 96.20639
741.2825, 95.94868
741.7646, 95.08855
742.2468, 94.17194
742.7289, 92.99519
743.2110, 92.29555
743.6931, 92.68774
744.1752, 93.88353
744.6573, 94.06419
745.1395, 93.25872
745.6216, 92.51084
746.1037, 92.50986
746.5858, 93.00912
747.0679, 93.96861
747.5500, 95.33695
748.0322, 96.20537
748.5143, 95.61559
748.9964, 94.82800
749.4785, 94.60439
749.9606, 95.08791
750.4427, 95.66988
750.9249, 96.43664
751.4070, 97.17047
751.8891, 97.51116
752.3712, 97.48140
752.8533, 98.72935
753.3354, 101.5030
753.8176, 103.6821
754.2997, 102.5751
754.7818, 99.84039
755.2639, 97.95846
755.7460, 97.37098
756.2281, 97.34875
756.7103, 98.40920
757.1924, 99.34095
757.6745, 98.98186
758.1566, 95.97200
758.6387, 94.13695
759.1208, 93.88013
759.6030, 94.28838
760.0851, 94.53971
760.5672, 94.63966
761.0493, 94.19094
761.5314, 92.91571
762.0135, 92.08168
762.4957, 94.04048
762.9778, 97.35725
763.4599, 99.25835
763.9420, 98.59447
764.4241, 97.48048
764.9063, 96.40353
765.3884, 95.80625
765.8705, 96.25995
766.3526, 99.57452
766.8347, 101.3559
767.3168, 100.8927
767.7990, 99.31548
768.2811, 98.21209
768.7632, 97.59132
769.2453, 97.32120
769.7274, 97.47305
770.2095, 97.72630
770.6917, 97.47649
771.1738, 96.99191
771.6559, 96.90025
772.1380, 97.88224
772.6201, 98.66331
773.1022, 98.26926
773.5844, 97.27626
774.0665, 96.70318
774.5486, 96.72796
775.0307, 97.15084
775.5128, 98.19206
775.9949, 99.45914
776.4771, 99.92386
776.9592, 99.55270
777.4413, 99.59441
777.9234, 100.7380
778.4055, 101.9640
778.8876, 101.3501
779.3698, 99.53563
779.8519, 98.15993
780.3340, 97.94252
780.8161, 98.36926
781.2982, 99.81542
781.7803, 101.7271
782.2625, 102.5748
782.7446, 101.8653
783.2267, 100.7282
783.7088, 99.08352
784.1909, 97.31577
784.6730, 96.65366
785.1552, 97.08284
785.6373, 97.56281
786.1194, 97.78026
786.6015, 97.71604
787.0836, 97.11210
787.5657, 96.18135
788.0479, 95.51821
788.5300, 95.31237
789.0121, 95.53667
789.4942, 96.50518
789.9763, 97.95335
790.4584, 98.88837
790.9406, 99.33191
791.4227, 99.11479
791.9048, 97.89388
792.3869, 96.13741
792.8690, 95.45499
793.3511, 95.78062
793.8333, 96.17982
794.3154, 96.13537
794.7975, 95.99773
795.2796, 96.18793
795.7617, 96.64631
796.2438, 97.16942
796.7260, 98.13310
797.2081, 98.67867
797.6902, 98.13062
798.1723, 96.83676
798.6544, 96.16214
799.1365, 96.33678
799.6187, 96.52905
800.1008, 96.44145
800.5829, 96.19790
801.0650, 96.07869
801.5471, 96.10811
802.0292, 96.45416
802.5114, 97.87029
802.9935, 99.11727
803.4756, 98.69468
803.9577, 97.08332
804.4398, 95.90491
804.9219, 96.23697
805.4041, 96.39486
805.8862, 95.75999
806.3683, 94.56303
806.8504, 93.64881
807.3325, 92.92786
807.8146, 93.04298
808.2968, 94.85997
808.7789, 97.13838
809.2610, 96.52287
809.7431, 93.71339
810.2252, 91.56300
810.7073, 92.22037
811.1895, 93.41180
811.6716, 93.54693
812.1537, 92.98302
812.6358, 93.14476
813.1179, 95.32440
813.6000, 96.74370
814.0822, 96.55525
814.5643, 95.22188
815.0464, 94.45792
815.5285, 94.27926
816.0106, 93.92210
816.4927, 92.86463
816.9749, 91.67299
817.4570, 91.29102
817.9391, 91.50126
818.4212, 91.66554
818.9033, 91.00978
819.3854, 90.75758
819.8676, 91.84673
820.3497, 93.77455
820.8318, 94.79771
821.3139, 94.54751
821.7960, 94.23186
822.2781, 94.14619
822.7603, 94.17395
823.2424, 93.90073
823.7245, 93.41231
824.2066, 93.31786
824.6887, 94.41308
825.1708, 95.31677
825.6530, 94.39268
826.1351, 92.33540
826.6172, 90.72536
827.0993, 89.59726
827.5814, 89.53817
828.0635, 91.43297
828.5457, 94.06416
829.0278, 94.72247
829.5099, 93.08588
829.9920, 91.52651
830.4741, 90.47249
830.9562, 90.05830
831.4384, 90.99680
831.9205, 92.74314
832.4026, 93.89387
832.8847, 93.61504
833.3668, 93.10223
833.8489, 92.76379
834.3311, 92.64321
834.8132, 92.86337
835.2953, 93.78974
835.7774, 94.29962
836.2595, 94.12355
836.7416, 93.67912
837.2238, 93.68074
837.7059, 94.07454
838.1880, 94.36753
838.6701, 94.44774
839.1522, 94.40564
839.6343, 94.31595
840.1165, 94.16939
840.5986, 93.93770
841.0807, 93.42617
841.5628, 93.14312
842.0449, 93.11337
842.5270, 93.41245
843.0092, 94.39940
843.4913, 96.43484
843.9734, 96.86308
844.4555, 95.11652
844.9376, 92.98891
845.4197, 92.67047
845.9019, 93.55342
846.3840, 94.45153
846.8661, 95.21124
847.3482, 95.63271
847.8303, 95.12371
848.3124, 94.51613
848.7946, 94.68347
849.2767, 96.34669
849.7588, 96.90302
850.2409, 95.88606
850.7230, 94.64359
851.2051, 94.47843
851.6873, 95.20210
852.1694, 95.56306
852.6515, 95.47417
853.1336, 95.24322
853.6157, 94.90199
854.0978, 94.68156
854.5800, 94.91385
855.0621, 95.71473
855.5442, 96.24414
856.0263, 96.27342
856.5084, 96.03327
856.9905, 95.42818
857.4727, 94.45777
857.9548, 94.62325
858.4369, 96.03198
858.9190, 97.43578
859.4011, 98.00996
859.8832, 98.01070
860.3654, 97.87761
860.8475, 97.58784
861.3296, 96.83602
861.8117, 94.55164
862.2938, 92.64497
862.7759, 92.49120
863.2581, 93.76338
863.7402, 93.76482
864.2223, 91.89242
864.7044, 90.87847
865.1865, 92.41856
865.6686, 95.21711
866.1508, 95.58967
866.6329, 94.07880
867.1150, 93.01619
867.5971, 94.48039
868.0792, 95.92874
868.5613, 95.47316
869.0435, 93.76202
869.5256, 92.87015
870.0077, 93.03979
870.4898, 93.95684
870.9719, 96.06406
871.4540, 98.40727
871.9362, 98.49541
872.4183, 96.64333
872.9004, 95.37356
873.3825, 95.65566
873.8646, 96.39130
874.3467, 96.58549
874.8289, 96.51173
875.3110, 96.58047
875.7931, 97.05070
876.2752, 97.47945
876.7573, 97.85291
877.2394, 98.14673
877.7216, 98.34399
878.2037, 98.44545
878.6858, 98.37807
879.1679, 98.10387
879.6500, 97.80614
880.1321, 97.83969
880.6143, 97.91384
881.0964, 97.40601
881.5785, 95.92049
882.0606, 95.20242
882.5427, 96.93048
883.0248, 98.79962
883.5070, 99.14423
883.9891, 97.65824
884.4712, 96.47608
884.9533, 95.59721
885.4354, 95.07074
885.9175, 94.85036
886.3997, 95.04195
886.8818, 96.25797
887.3639, 98.38199
887.8460, 99.81972
888.3281, 98.69198
888.8102, 97.53102
889.2924, 98.20457
889.7745, 100.5366
890.2566, 101.1476
890.7387, 99.39636
891.2208, 97.85679
891.7029, 97.69237
892.1851, 98.40501
892.6672, 98.62490
893.1493, 98.51609
893.6314, 98.77428
894.1135, 100.6595
894.5956, 102.1067
895.0778, 101.3168
895.5599, 99.23779
896.0420, 98.38718
896.5241, 99.55803
897.0062, 100.5557
897.4883, 101.0738
897.9705, 101.1866
898.4526, 100.8603
898.9347, 100.1999
899.4168, 99.70988
899.8989, 99.55923
900.3810, 99.46605
900.8632, 98.95236
901.3453, 98.48730
901.8274, 98.65233
902.3095, 100.3299
902.7916, 101.1722
903.2737, 100.8885
903.7559, 100.1782
904.2380, 99.43207
904.7201, 98.72225
905.2022, 99.04279
905.6843, 100.4696
906.1664, 101.7974
906.6486, 101.7779
907.1307, 101.3714
907.6128, 101.6592
908.0949, 102.8121
908.5770, 103.0877
909.0591, 101.6288
909.5413, 100.1350
910.0234, 99.16421
910.5055, 98.73619
910.9876, 99.14943
911.4697, 100.3647
911.9518, 101.6336
912.4340, 102.7885
912.9161, 103.6020
913.3982, 103.6155
913.8803, 103.0740
914.3624, 102.6552
914.8445, 102.2978
915.3267, 102.4596
915.8088, 103.5347
916.2909, 104.9209
916.7730, 105.3060
917.2551, 104.7145
917.7372, 104.2514
918.2194, 104.1795
918.7015, 104.2703
919.1836, 104.7101
919.6657, 104.9861
920.1478, 104.2484
920.6299, 101.3517
921.1121, 99.55706
921.5942, 99.63630
922.0763, 100.5262
922.5584, 101.6154
923.0405, 102.9305
923.5226, 103.4964
924.0048, 103.2413
924.4869, 102.9525
924.9690, 103.2782
925.4511, 103.9148
925.9332, 104.5570
926.4153, 105.1807
926.8975, 105.7856
927.3796, 106.6813
927.8617, 107.1731
928.3438, 106.8490
928.8259, 105.9361
929.3080, 105.6954
929.7902, 106.1120
930.2723, 106.4651
930.7544, 106.3670
931.2365, 106.1272
931.7186, 105.7733
932.2007, 105.5938
932.6829, 106.1773
933.1650, 109.4585
933.6471, 111.0592
934.1292, 109.5511
934.6113, 106.9725
935.0934, 106.5807
935.5756, 108.3368
936.0577, 108.2102
936.5398, 105.3536
937.0219, 102.5773
937.5040, 103.1623
937.9861, 105.1409
938.4683, 106.0895
938.9504, 105.2715
939.4325, 105.3529
939.9146, 107.7901
940.3967, 109.8592
940.8788, 109.8585
941.3610, 108.0088
941.8431, 107.3132
942.3252, 107.7317
942.8073, 108.2739
943.2894, 108.6379
943.7715, 108.5639
944.2537, 107.2225
944.7358, 105.1386
945.2179, 104.2275
945.7000, 106.2262
946.1821, 107.6014
946.6642, 107.6495
947.1464, 106.8630
947.6285, 106.1025
948.1106, 105.3999
948.5927, 105.0578
949.0748, 105.2092
949.5569, 105.5517
950.0391, 105.5853
950.5212, 105.7786
951.0033, 106.8057
951.4854, 109.7433
951.9675, 111.0748
952.4496, 110.0057
952.9318, 108.6496
953.4139, 109.1495
953.8960, 110.9378
954.3781, 110.2090
954.8602, 107.0642
955.3423, 104.1597
955.8245, 103.2571
956.3066, 103.2407
956.7887, 103.5565
957.2708, 104.1257
957.7529, 104.6010
958.2350, 104.8479
958.7172, 105.3734
959.1993, 106.5859
959.6814, 107.8088
960.1635, 106.9756
960.6456, 104.8560
961.1277, 104.0667
961.6099, 106.2984
962.0920, 108.3345
962.5741, 107.8348
963.0562, 106.4480
963.5383, 106.1262
964.0204, 107.5007
964.5026, 108.0994
964.9847, 107.6180
965.4668, 107.3677
965.9489, 109.1850
966.4310, 111.9071
966.9131, 112.9582
967.3953, 112.2919
967.8774, 111.6348
968.3595, 112.0461
968.8416, 112.4679
969.3237, 112.1998
969.8058, 111.4914
970.2880, 111.6145
970.7701, 112.6844
971.2522, 113.6428
971.7343, 114.1876
972.2164, 114.3574
972.6985, 114.0592
973.1807, 113.4607
973.6628, 112.8755
974.1449, 112.1448
974.6270, 111.8398
975.1091, 112.0395
975.5912, 112.7150
976.0734, 114.2071
976.5555, 116.5563
977.0376, 117.2039
977.5197, 115.9364
978.0018, 114.6683
978.4839, 115.2975
978.9661, 116.4620
979.4482, 116.7115
979.9303, 116.0151
980.4124, 115.6087
980.8945, 115.8758
981.3766, 116.1289
981.8588, 116.1405
982.3409, 116.0277
982.8230, 116.1760
983.3051, 116.5216
983.7872, 116.6499
984.2693, 116.0106
984.7515, 115.8969
985.2336, 118.2759
985.7157, 121.2477
986.1978, 122.2004
986.6799, 120.0463
987.1620, 117.8766
987.6442, 115.2805
988.1263, 113.8302
988.6084, 115.9284
989.0905, 120.0427
989.5726, 122.5219
990.0547, 123.2456
990.5369, 123.0345
991.0190, 121.3711
991.5011, 119.8254
991.9832, 118.9764
992.4653, 118.8514
992.9474, 119.9019
993.4296, 122.3117
993.9117, 124.0761
994.3938, 124.5199
994.8759, 124.2442
995.3580, 123.7271
995.8401, 123.1503
996.3223, 122.8023
996.8044, 122.8678
997.2865, 122.9171
997.7686, 122.8118
998.2507, 122.7542
998.7328, 123.0841
999.2150, 123.7482
999.6971, 123.2744
1000.179, 121.7096
1000.661, 120.4727
1001.143, 120.6932
1001.626, 121.5046
1002.108, 122.5708
1002.590, 123.7011
1003.072, 124.0656
1003.554, 122.9661
1004.036, 122.8503
1004.518, 124.6449
1005.000, 126.8453
1005.482, 126.2237
1005.965, 123.9621
1006.447, 123.3104
1006.929, 125.3235
1007.411, 127.7526
1007.893, 130.5789
1008.375, 132.4893
1008.857, 132.1821
1009.339, 129.3613
1009.822, 128.8324
1010.304, 130.7864
1010.786, 132.9123
1011.268, 133.6218
1011.750, 133.7357
1012.232, 134.5739
1012.714, 135.7010
1013.196, 135.8675
1013.678, 133.1256
1014.161, 131.5837
1014.643, 132.2378
1015.125, 133.8424
1015.607, 134.5505
1016.089, 134.5399
1016.571, 135.1690
1017.053, 136.7406
1017.535, 137.6936
1018.018, 136.0414
1018.500, 133.9056
1018.982, 132.9160
1019.464, 133.2052
1019.946, 133.8673
1020.428, 134.9149
1020.910, 136.3498
1021.392, 138.4883
1021.874, 140.6747
1022.357, 141.3267
1022.839, 141.0201
1023.321, 141.1086
1023.803, 142.8069
1024.285, 143.8968
1024.767, 143.1855
1025.249, 142.1936
1025.731, 142.5845
1026.214, 144.3820
1026.696, 144.9624
1027.178, 144.1721
1027.660, 143.4352
1028.142, 143.9919
1028.624, 144.9912
1029.106, 145.4095
1029.588, 145.4290
1030.070, 146.8597
1030.553, 150.7207
1031.035, 153.6991
1031.517, 154.7530
1031.999, 154.9466
1032.481, 156.2787
1032.963, 158.3092
1033.445, 159.7375
1033.927, 159.8591
1034.410, 160.8464
1034.892, 164.3562
1035.374, 168.5124
1035.856, 171.9455
1036.338, 174.6464
1036.820, 177.8201
1037.302, 181.4267
1037.784, 185.0060
1038.266, 188.1107
1038.749, 191.1409
1039.231, 194.4767
1039.713, 198.0324
1040.195, 201.5022
1040.677, 204.3328
1041.159, 207.8559
1041.641, 211.9570
1042.123, 217.3170
1042.605, 225.1422
1043.088, 234.8962
1043.570, 244.6180
1044.052, 254.1070
1044.534, 265.0361
1045.016, 276.5590
1045.498, 291.6325
1045.980, 311.9757
1046.462, 336.8741
1046.945, 364.7897
1047.427, 396.1633
1047.909, 424.2799
1048.391, 446.4853
1048.873, 464.9989
1049.355, 485.4369
1049.837, 502.3465
1050.319, 507.7489
1050.802, 493.5110
1051.284, 480.2850
1051.766, 461.6103
1052.248, 459.3352
1052.730, 485.5301
1053.212, 541.1105
1053.694, 622.3943
1054.176, 733.7591
1054.658, 895.1403
1055.141, 1114.459
1055.623, 1389.703
1056.105, 1763.304
1056.587, 2169.586
1057.069, 2519.458
1057.551, 2812.553
1058.033, 3049.136
1058.515, 3224.430
1058.997, 3392.122
1059.480, 3586.104
1059.962, 3808.938
1060.444, 4060.938
1060.926, 4342.049
1061.408, 4664.915
1061.890, 5018.554
1062.372, 5434.955
1062.854, 5900.121
1063.337, 6465.719
1063.819, 7192.642
1064.301, 8092.112
1064.783, 9189.869
1065.265, 10521.05
1065.747, 11990.77
1066.229, 13559.34
1066.711, 15302.04
1067.193, 17625.16
1067.676, 20407.46
1068.158, 21686.25
1068.640, 21456.68
1069.122, 19700.36
1069.604, 15040.26
1070.086, 10208.36
1070.568, 6735.687
1071.050, 4441.784
1071.532, 2844.555
1072.015, 2030.316
1072.497, 1464.354
1072.979, 1115.502
1073.461, 894.6693
1073.943, 741.8284
1074.425, 636.3846
1074.907, 552.7634
1075.389, 488.7992
1075.872, 437.5048
1076.354, 403.2779
1076.836, 373.8356
1077.318, 346.2846
1077.800, 321.7839
1078.282, 302.7368
1078.764, 288.3421
1079.246, 275.6413
1079.729, 264.1403
1080.211, 252.7305
1080.693, 239.8747
1081.175, 227.6267
1081.657, 217.6632
1082.139, 209.9389
1082.621, 203.4204
1083.103, 198.0762
1083.585, 192.8339
1084.068, 186.3855
1084.550, 180.5170
1085.032, 177.6592
1085.514, 176.4498
1085.996, 174.5470
1086.478, 171.5474
1086.960, 167.9574
1087.442, 163.5309
1087.924, 159.3411
1088.406, 156.5536
1088.889, 154.6386
1089.371, 152.6526
1089.853, 150.5620
1090.335, 148.4841
1090.817, 146.5124
1091.299, 144.4402
1091.781, 141.9053
1092.263, 139.5714
1092.746, 139.0726
1093.228, 139.9647
1093.710, 140.1309
1094.192, 139.1775
1094.674, 137.7793
1095.156, 136.0771
1095.638, 134.3249
1096.120, 132.5866
1096.603, 130.9264
1097.085, 129.9044
1097.567, 129.5442
1098.049, 129.1781
1098.531, 128.5264
1099.013, 127.8454
1099.495, 127.5280
1099.977, 127.2780
1100.459, 126.6759
1100.942, 125.5096
1101.424, 124.4201
1101.906, 123.3068
1102.388, 122.6002
1102.870, 122.8837
1103.352, 123.5888
1103.834, 123.7190
1104.316, 123.3428
1104.798, 122.6489
1105.281, 120.8941
1105.763, 120.0502
1106.245, 120.7476
1106.727, 121.8330
1107.209, 121.9376
1107.691, 121.3126
1108.173, 121.0844
1108.655, 121.2758
1109.138, 121.2360
1109.620, 120.2069
1110.102, 119.2851
1110.584, 118.9916
1111.066, 119.1440
1111.548, 119.6344
1112.030, 120.4407
1112.512, 119.9316
1112.995, 117.5671
1113.477, 115.5263
1113.959, 116.1618
1114.441, 117.5956
1114.923, 118.1938
1115.405, 117.8987
1115.887, 118.1104
1116.369, 119.0573
1116.851, 119.0628
1117.333, 117.0062
1117.816, 114.8425
1118.298, 115.9043
1118.780, 118.2453
1119.262, 118.9038
1119.744, 116.4150
1120.226, 114.8005
1120.708, 114.2061
1121.190, 114.4994
1121.673, 116.2391
1122.155, 118.4384
1122.637, 118.4426
1123.119, 116.9493
1123.601, 115.8841
1124.083, 116.3773
1124.565, 116.8715
1125.047, 117.4365
1125.530, 117.5136
1126.012, 115.9745
1126.494, 113.3662
1126.976, 113.2199
1127.458, 115.3148
1127.940, 116.8703
1128.422, 115.8708
1128.904, 114.4511
1129.386, 112.9576
1129.869, 111.9704
1130.351, 113.0352
1130.833, 116.0841
1131.315, 116.8993
1131.797, 114.8877
1132.279, 112.4879
1132.761, 111.1073
1133.243, 110.5298
1133.725, 110.8996
1134.208, 112.0040
1134.690, 112.9162
1135.172, 113.6222
1135.654, 114.3353
1136.136, 115.2227
1136.618, 115.7201
1137.100, 114.8141
1137.582, 113.4298
1138.065, 112.7295
1138.547, 113.0333
1139.029, 112.1268
1139.511, 109.2412
1139.993, 107.7735
1140.475, 109.5333
1140.957, 112.6654
1141.439, 114.5831
1141.922, 115.6662
1142.404, 116.7280
1142.886, 118.5548
1143.368, 118.3292
1143.850, 114.7026
1144.332, 111.6866
1144.814, 112.4467
1145.296, 115.2708
1145.778, 115.7698
1146.260, 114.5293
1146.743, 113.2743
1147.225, 112.2096
1147.707, 111.9714
1148.189, 113.0635
1148.671, 114.3381
1149.153, 114.8503
1149.635, 114.6736
1150.117, 113.7705
1150.600, 112.3398
1151.082, 111.6846
1151.564, 113.7408
1152.046, 115.1138
1152.528, 113.7896
1153.010, 111.7747
1153.492, 112.1362
1153.974, 114.5742
1154.457, 115.2629
1154.939, 113.8954
1155.421, 113.2729
1155.903, 117.0719
1156.385, 120.3973
1156.867, 119.3669
1157.349, 115.9628
1157.831, 114.5628
1158.313, 115.1951
1158.796, 115.9389
1159.278, 116.5283
1159.760, 116.7238
1160.242, 115.4830
1160.724, 114.4512
1161.206, 115.4959
1161.688, 118.2325
1162.170, 119.3531
1162.652, 118.6998
1163.135, 118.2130
1163.617, 118.5125
1164.099, 118.8872
1164.581, 118.7354
1165.063, 118.1737
1165.545, 117.2073
1166.027, 115.7938
1166.509, 114.5739
1166.992, 113.4499
1167.474, 113.1296
1167.956, 114.3744
1168.438, 115.7074
1168.920, 114.6020
1169.402, 112.6149
1169.884, 112.0822
1170.366, 114.1115
1170.849, 115.3880
1171.331, 115.7464
1171.813, 115.9577
1172.295, 116.6781
1172.777, 117.3136
1173.259, 116.4879
1173.741, 114.9330
1174.223, 114.1241
1174.705, 115.1414
1175.188, 115.6933
1175.670, 115.6320
1176.152, 115.4253
1176.634, 115.4850
1177.116, 115.6143
1177.598, 115.4520
1178.080, 115.0198
1178.562, 114.3998
1179.044, 112.5542
1179.527, 112.4136
1180.009, 115.0824
1180.491, 117.6245
1180.973, 116.4422
1181.455, 113.3006
1181.937, 112.5178
1182.419, 113.7654
1182.901, 114.5999
1183.384, 113.2604
1183.866, 112.6848
1184.348, 113.6188
1184.830, 114.9804
1185.312, 115.5183
1185.794, 115.3838
1186.276, 114.5611
1186.758, 113.2038
1187.240, 112.8826
1187.723, 116.0187
1188.205, 117.8881
1188.687, 117.0599
1189.169, 114.8691
1189.651, 112.9190
1190.133, 111.4734
1190.615, 111.8293
1191.097, 114.1576
1191.579, 115.9324
1192.062, 115.8157
1192.544, 115.1803
1193.026, 114.4477
1193.508, 113.5435
1193.990, 111.8264
1194.472, 109.7813
1194.954, 109.2898
1195.436, 110.8192
1195.919, 112.6431
1196.401, 115.1021
1196.883, 116.2567
1197.365, 114.7534
1197.847, 111.8354
1198.329, 111.2403
1198.811, 112.4427
1199.293, 113.3881
1199.776, 113.5153
1200.258, 113.6095
1200.740, 114.1410
1201.222, 114.6200
1201.704, 114.8809
1202.186, 114.8655
1202.668, 113.8551
1203.150, 112.2850
1203.632, 112.1147
1204.115, 114.6856
1204.597, 116.6178
1205.079, 115.3459
1205.561, 113.9946
1206.043, 114.6943
1206.525, 116.8029
1207.007, 116.6321
1207.489, 114.7247
1207.971, 113.5677
1208.454, 114.6138
1208.936, 115.5935
1209.418, 115.5012
1209.900, 115.0232
1210.382, 114.4371
1210.864, 113.8219
1211.346, 113.8670
1211.828, 114.4574
1212.311, 115.0381
1212.793, 115.4855
1213.275, 115.6952
1213.757, 115.5128
1214.239, 115.1897
1214.721, 114.8074
1215.203, 114.4182
1215.685, 114.5970
1216.167, 115.2095
1216.650, 115.5431
1217.132, 115.0483
1217.614, 114.4552
1218.096, 113.5966
1218.578, 113.1452
1219.060, 114.0300
1219.542, 115.9636
1220.024, 117.0891
1220.506, 117.4119
1220.989, 117.1953
1221.471, 115.6437
1221.953, 114.8539
1222.435, 116.1662
1222.917, 117.5777
1223.399, 116.4283
1223.881, 113.4999
1224.363, 113.1673
1224.846, 115.0998
1225.328, 116.4074
1225.810, 114.8213
1226.292, 113.5683
1226.774, 113.4517
1227.256, 113.9417
1227.738, 114.6829
1228.220, 115.4910
1228.703, 115.5588
1229.185, 114.9634
1229.667, 114.5240
1230.149, 115.0955
1230.631, 115.1450
1231.113, 114.0740
1231.595, 112.7796
1232.077, 112.3824
1232.559, 112.6848
1233.042, 113.2762
1233.524, 114.0801
1234.006, 114.7848
1234.488, 115.0982
1234.970, 115.5401
1235.452, 116.2871
1235.934, 117.0468
1236.416, 117.3697
1236.898, 117.4173
1237.381, 117.6416
1237.863, 118.0217
1238.345, 118.0040
1238.827, 117.3361
1239.309, 116.2130
1239.791, 114.3241
1240.273, 112.7103
1240.755, 113.0202
1241.238, 114.4722
1241.720, 115.9632
1242.202, 117.2979
1242.684, 117.5218
1243.166, 115.6485
1243.648, 114.3845
1244.130, 114.2608
1244.612, 114.8201
1245.094, 116.1137
1245.577, 117.3458
1246.059, 117.0034
1246.541, 115.0994
1247.023, 113.8595
1247.505, 113.5023
1247.987, 113.7363
1248.469, 114.5834
1248.951, 115.6995
1249.433, 117.0519
1249.916, 118.1382
1250.398, 118.2293
1250.880, 117.3037
1251.362, 116.2819
1251.844, 114.9215
1252.326, 114.9446
1252.808, 117.0773
1253.290, 119.2279
1253.773, 119.1174
1254.255, 117.9159
1254.737, 116.4822
1255.219, 114.9834
1255.701, 113.9618
1256.183, 113.4106
1256.665, 113.4260
1257.147, 114.0604
1257.630, 115.0906
1258.112, 117.0912
1258.594, 118.7501
1259.076, 118.1729
1259.558, 116.1935
1260.040, 117.1544
1260.522, 120.9860
1261.004, 121.7898
1261.486, 117.7052
1261.969, 114.3754
1262.451, 117.7712
1262.933, 121.7323
1263.415, 121.9699
1263.897, 119.5872
1264.379, 117.9040
1264.861, 116.9595
1265.343, 117.4599
1265.825, 119.7872
1266.308, 121.6218
1266.790, 121.3075
1267.272, 120.4055
1267.754, 119.4738
1268.236, 118.7314
1268.718, 119.0415
1269.200, 120.0459
1269.682, 120.4431
1270.165, 119.9598
1270.647, 119.1432
1271.129, 117.3424
1271.611, 116.4684
1272.093, 117.4880
1272.575, 119.2901
1273.057, 119.4377
1273.539, 118.6962
1274.021, 118.9355
1274.504, 120.5955
1274.986, 121.5760
1275.468, 120.9190
1275.950, 120.9155
1276.432, 122.5615
1276.914, 124.5057
1277.396, 124.4665
1277.878, 123.4338
1278.360, 123.0745
1278.843, 123.6574
1279.325, 123.0192
1279.807, 120.5940
1280.289, 118.7926
1280.771, 118.3313
1281.253, 118.5230
1281.735, 118.6482
1282.217, 118.8941
1282.700, 119.7310
1283.182, 121.0716
1283.664, 121.1591
1284.146, 119.8334
1284.628, 119.1232
1285.110, 119.5942
1285.592, 120.4614
1286.074, 121.3668
1286.557, 122.0791
1287.039, 122.4107
1287.521, 122.4031
1288.003, 121.9609
1288.485, 121.1619
1288.967, 120.9793
1289.449, 121.6632
1289.931, 122.6303
1290.413, 124.5027
1290.896, 125.3215
1291.378, 123.5817
1291.860, 120.7475
1292.342, 121.0289
1292.824, 123.3870
1293.306, 123.9001
1293.788, 121.7421
1294.270, 120.3098
1294.752, 121.8292
1295.235, 123.1177
1295.717, 123.2373
1296.199, 122.8891
1296.681, 123.5050
1297.163, 124.4196
1297.645, 124.2041
1298.127, 122.6848
1298.609, 121.8869
1299.092, 122.6498
1299.574, 122.1036
1300.056, 118.9799
1300.538, 116.4055
1301.020, 119.5744
1301.502, 124.4428
1301.984, 126.2121
1302.466, 124.7460
1302.948, 123.8218
1303.431, 123.6030
1303.913, 122.8944
1304.395, 121.5038
1304.877, 119.3684
##END=



