##NAMES=Nobleite
##RRUFFID=R060847
##IDEAL CHEMISTRY=CaB_6_O_9_(OH)_2_&#183;3H_2_O
##LOCALITY=Hard Scramble claim, Death Valley USA
##OWNER=RRUFF
##SOURCE=Michael Scott
##DESCRIPTION=Colorless platy crystals
##STATUS=The identification of this mineral is confirmed by single-crystal X-ray diffraction and chemical analysis.
##URL=rruff.info/R060847
##MEASURED CHEMISTRY=Ca_1.00_B_6_O_9_((OH)_1.60_F_0.40_)_Σ=2_·3H_2_O ; trace amounts of Fe; B not measured but assumed by stoichiometry; OH estimated as 2-F
137.4373, 3984.253
137.9194, 4001.267
138.4015, 4071.411
138.8836, 4174.916
139.3657, 4286.590
139.8479, 4394.269
140.3300, 4507.633
140.8121, 4666.508
141.2942, 4887.753
141.7763, 5141.042
142.2584, 5438.088
142.7406, 5763.481
143.2227, 6096.918
143.7048, 6428.725
144.1869, 6759.844
144.6690, 7106.218
145.1511, 7479.087
145.6333, 7852.096
146.1154, 8237.691
146.5975, 8619.869
147.0796, 8974.630
147.5617, 9286.499
148.0438, 9556.738
148.5260, 9782.994
149.0081, 9990.048
149.4902, 10141.74
149.9723, 10216.54
150.4544, 10224.90
150.9365, 10191.76
151.4187, 10133.56
151.9008, 10048.18
152.3829, 9922.211
152.8650, 9722.486
153.3471, 9521.278
153.8292, 9351.658
154.3114, 9209.745
154.7935, 9075.264
155.2756, 8933.892
155.7577, 8786.688
156.2398, 8649.947
156.7219, 8513.606
157.2041, 8394.851
157.6862, 8308.956
158.1683, 8253.435
158.6504, 8211.538
159.1325, 8175.399
159.6146, 8143.437
160.0968, 8094.762
160.5789, 8019.550
161.0610, 7935.430
161.5431, 7850.478
162.0252, 7765.927
162.5073, 7687.877
162.9895, 7623.505
163.4716, 7572.307
163.9537, 7516.506
164.4358, 7454.223
164.9179, 7387.759
165.4000, 7317.158
165.8822, 7242.654
166.3643, 7169.658
166.8464, 7106.153
167.3285, 7049.899
167.8106, 6979.737
168.2927, 6890.896
168.7749, 6789.399
169.2570, 6678.032
169.7391, 6556.956
170.2212, 6433.183
170.7033, 6313.674
171.1854, 6196.821
171.6676, 6071.597
172.1497, 5923.550
172.6318, 5773.211
173.1139, 5645.203
173.5960, 5542.163
174.0781, 5449.992
174.5603, 5357.083
175.0424, 5265.229
175.5245, 5184.865
176.0066, 5121.851
176.4887, 5069.814
176.9708, 5020.206
177.4530, 4971.366
177.9351, 4929.481
178.4172, 4901.020
178.8993, 4883.608
179.3814, 4874.100
179.8635, 4873.324
180.3457, 4879.323
180.8278, 4889.923
181.3099, 4905.206
181.7920, 4923.846
182.2741, 4947.765
182.7562, 4974.638
183.2384, 4998.090
183.7205, 5004.839
184.2026, 5010.843
184.6847, 5044.284
185.1668, 5111.846
185.6489, 5186.025
186.1311, 5246.110
186.6132, 5296.553
187.0953, 5346.186
187.5774, 5394.643
188.0595, 5444.941
188.5416, 5502.262
189.0238, 5568.160
189.5059, 5637.020
189.9880, 5716.557
190.4701, 5797.593
190.9522, 5855.641
191.4343, 5854.579
191.9165, 5835.186
192.3986, 5868.441
192.8807, 5966.938
193.3628, 6079.680
193.8449, 6179.415
194.3270, 6267.950
194.8092, 6344.115
195.2913, 6404.219
195.7734, 6453.372
196.2555, 6498.425
196.7376, 6538.807
197.2197, 6577.931
197.7019, 6619.682
198.1840, 6661.983
198.6661, 6700.019
199.1482, 6735.717
199.6303, 6765.093
200.1124, 6778.729
200.5946, 6772.965
201.0767, 6766.757
201.5588, 6792.608
202.0409, 6824.314
202.5230, 6815.441
203.0051, 6735.629
203.4873, 6618.871
203.9694, 6508.571
204.4515, 6405.583
204.9336, 6306.020
205.4157, 6213.682
205.8978, 6122.011
206.3800, 6020.865
206.8621, 5901.098
207.3442, 5775.204
207.8263, 5659.025
208.3084, 5553.207
208.7905, 5451.604
209.2727, 5351.249
209.7548, 5253.617
210.2369, 5161.704
210.7190, 5079.723
211.2011, 5000.428
211.6832, 4914.535
212.1654, 4821.482
212.6475, 4732.578
213.1296, 4649.629
213.6117, 4576.951
214.0938, 4522.929
214.5760, 4497.778
215.0581, 4478.929
215.5402, 4440.600
216.0223, 4382.515
216.5044, 4333.264
216.9865, 4310.965
217.4687, 4302.625
217.9508, 4288.343
218.4329, 4265.747
218.9150, 4238.365
219.3971, 4205.062
219.8792, 4166.541
220.3614, 4136.214
220.8435, 4122.612
221.3256, 4118.532
221.8077, 4110.527
222.2898, 4094.854
222.7719, 4083.883
223.2541, 4091.515
223.7362, 4114.133
224.2183, 4128.634
224.7004, 4123.157
225.1825, 4109.220
225.6646, 4105.310
226.1468, 4113.731
226.6289, 4122.819
227.1110, 4124.685
227.5931, 4121.516
228.0752, 4120.292
228.5573, 4121.168
229.0395, 4127.778
229.5216, 4146.841
230.0037, 4180.020
230.4858, 4211.414
230.9679, 4235.854
231.4500, 4253.282
231.9322, 4262.773
232.4143, 4262.912
232.8964, 4257.625
233.3785, 4253.024
233.8606, 4249.934
234.3427, 4239.504
234.8249, 4213.721
235.3070, 4180.065
235.7891, 4153.678
236.2712, 4139.467
236.7533, 4122.211
237.2354, 4077.579
237.7176, 4005.951
238.1997, 3948.644
238.6818, 3917.905
239.1639, 3903.248
239.6460, 3893.752
240.1281, 3888.032
240.6103, 3885.054
241.0924, 3884.871
241.5745, 3887.507
242.0566, 3888.165
242.5387, 3879.405
243.0208, 3873.261
243.5030, 3884.672
243.9851, 3913.103
244.4672, 3938.381
244.9493, 3940.384
245.4314, 3920.397
245.9135, 3923.423
246.3957, 3974.930
246.8778, 4027.227
247.3599, 4048.568
247.8420, 4042.548
248.3241, 4030.637
248.8062, 4024.949
249.2884, 4025.706
249.7705, 4032.911
250.2526, 4051.854
250.7347, 4070.646
251.2168, 4083.750
251.6989, 4092.948
252.1811, 4101.502
252.6632, 4110.072
253.1453, 4120.681
253.6274, 4142.982
254.1095, 4188.613
254.5916, 4230.298
255.0738, 4264.960
255.5559, 4291.643
256.0380, 4308.342
256.5201, 4314.042
257.0022, 4311.095
257.4843, 4304.912
257.9665, 4303.908
258.4486, 4287.828
258.9307, 4251.689
259.4128, 4202.391
259.8949, 4143.425
260.3770, 4076.500
260.8592, 4008.083
261.3413, 3948.461
261.8234, 3906.340
262.3055, 3855.646
262.7876, 3785.599
263.2697, 3715.256
263.7519, 3659.481
264.2340, 3619.589
264.7161, 3585.973
265.1982, 3548.313
265.6803, 3505.591
266.1624, 3462.060
266.6446, 3415.890
267.1267, 3370.606
267.6088, 3322.604
268.0909, 3275.727
268.5730, 3241.714
269.0551, 3234.041
269.5373, 3253.593
270.0194, 3255.345
270.5015, 3213.290
270.9836, 3177.872
271.4657, 3165.637
271.9478, 3169.065
272.4300, 3173.264
272.9121, 3169.209
273.3942, 3158.502
273.8763, 3147.797
274.3584, 3134.660
274.8405, 3125.661
275.3227, 3125.706
275.8048, 3129.016
276.2869, 3128.603
276.7690, 3121.171
277.2511, 3109.964
277.7332, 3100.874
278.2154, 3093.752
278.6975, 3089.263
279.1796, 3085.548
279.6617, 3085.534
280.1438, 3094.031
280.6259, 3112.466
281.1081, 3131.508
281.5902, 3141.098
282.0723, 3140.898
282.5544, 3135.986
283.0365, 3122.330
283.5186, 3108.375
284.0008, 3099.323
284.4829, 3095.507
284.9650, 3096.182
285.4471, 3112.644
285.9292, 3136.836
286.4113, 3125.925
286.8935, 3059.789
287.3756, 2983.452
287.8577, 2927.148
288.3398, 2889.419
288.8219, 2867.839
289.3040, 2871.134
289.7862, 2886.757
290.2683, 2894.135
290.7504, 2891.125
291.2325, 2886.354
291.7146, 2884.668
292.1967, 2885.989
292.6789, 2890.039
293.1610, 2903.899
293.6431, 2915.086
294.1252, 2907.991
294.6073, 2885.519
295.0894, 2870.694
295.5716, 2877.438
296.0537, 2899.638
296.5358, 2916.179
297.0179, 2920.816
297.5000, 2929.204
297.9821, 2950.078
298.4643, 2978.780
298.9464, 3006.335
299.4285, 3029.339
299.9106, 3049.462
300.3927, 3068.511
300.8748, 3076.588
301.3570, 3105.102
301.8391, 3171.271
302.3212, 3251.766
302.8033, 3326.397
303.2854, 3390.650
303.7675, 3446.440
304.2497, 3494.430
304.7318, 3528.518
305.2139, 3581.334
305.6960, 3669.865
306.1781, 3759.689
306.6602, 3832.387
307.1424, 3889.141
307.6245, 3941.231
308.1066, 3997.196
308.5887, 4056.767
309.0708, 4113.059
309.5529, 4166.561
310.0351, 4215.730
310.5172, 4270.716
310.9993, 4318.356
311.4814, 4338.416
311.9635, 4319.747
312.4456, 4273.615
312.9278, 4228.787
313.4099, 4191.025
313.8920, 4142.996
314.3741, 4068.382
314.8562, 3992.325
315.3383, 3934.114
315.8205, 3898.590
316.3026, 3879.440
316.7847, 3871.032
317.2668, 3874.087
317.7489, 3882.033
318.2310, 3892.646
318.7132, 3910.223
319.1953, 3938.839
319.6774, 3977.226
320.1595, 4019.046
320.6416, 4053.108
321.1237, 4086.475
321.6059, 4144.057
322.0880, 4231.073
322.5701, 4333.628
323.0522, 4450.092
323.5343, 4575.275
324.0164, 4699.797
324.4986, 4816.919
324.9807, 4936.091
325.4628, 5074.602
325.9449, 5231.352
326.4270, 5372.766
326.9091, 5478.819
327.3913, 5560.182
327.8734, 5647.108
328.3555, 5753.829
328.8376, 5839.439
329.3197, 5892.218
329.8018, 5910.203
330.2840, 5884.525
330.7661, 5809.028
331.2482, 5705.426
331.7303, 5604.308
332.2124, 5509.640
332.6945, 5403.992
333.1767, 5271.110
333.6588, 5137.041
334.1409, 5022.179
334.6230, 4928.491
335.1051, 4846.645
335.5873, 4767.982
336.0694, 4692.753
336.5515, 4623.179
337.0336, 4565.244
337.5157, 4506.010
337.9979, 4438.668
338.4800, 4367.030
338.9621, 4296.966
339.4442, 4231.366
339.9263, 4170.806
340.4084, 4119.196
340.8906, 4089.188
341.3727, 4045.692
341.8548, 3971.000
342.3369, 3891.160
342.8190, 3827.086
343.3011, 3783.803
343.7833, 3753.641
344.2654, 3728.039
344.7475, 3706.827
345.2296, 3691.222
345.7117, 3682.359
346.1938, 3678.557
346.6760, 3678.363
347.1581, 3682.107
347.6402, 3691.121
348.1223, 3709.156
348.6044, 3732.652
349.0865, 3751.348
349.5687, 3763.274
350.0508, 3777.561
350.5329, 3803.385
351.0150, 3834.074
351.4971, 3858.794
351.9792, 3875.134
352.4614, 3885.803
352.9435, 3890.474
353.4256, 3890.478
353.9077, 3890.536
354.3898, 3890.012
354.8719, 3893.980
355.3541, 3913.697
355.8362, 3950.315
356.3183, 3990.721
356.8004, 4033.765
357.2825, 4078.055
357.7646, 4118.781
358.2468, 4156.295
358.7289, 4200.650
359.2110, 4263.634
359.6931, 4347.607
360.1752, 4422.357
360.6573, 4466.355
361.1395, 4524.111
361.6216, 4627.139
362.1037, 4756.495
362.5858, 4872.797
363.0679, 4953.751
363.5500, 5011.557
364.0322, 5085.376
364.5143, 5195.617
364.9964, 5289.249
365.4785, 5341.746
365.9606, 5390.293
366.4427, 5468.017
366.9249, 5579.989
367.4070, 5702.911
367.8891, 5808.930
368.3712, 5896.913
368.8533, 5991.568
369.3354, 6083.455
369.8176, 6196.852
370.2997, 6343.172
370.7818, 6518.598
371.2639, 6712.036
371.7460, 6924.237
372.2281, 7146.656
372.7103, 7366.259
373.1924, 7580.788
373.6745, 7803.365
374.1566, 8038.744
374.6387, 8287.196
375.1208, 8549.279
375.6030, 8829.321
376.0851, 9111.671
376.5672, 9392.352
377.0493, 9669.993
377.5314, 9943.917
378.0135, 10214.93
378.4957, 10476.65
378.9778, 10729.63
379.4599, 10981.77
379.9420, 11160.05
380.4241, 11249.31
380.9063, 11276.53
381.3884, 11264.17
381.8705, 11206.64
382.3526, 11078.68
382.8347, 10862.08
383.3168, 10564.56
383.7990, 10233.38
384.2811, 9842.740
384.7632, 9445.308
385.2453, 9045.455
385.7274, 8641.553
386.2095, 8225.846
386.6917, 7798.625
387.1738, 7382.495
387.6559, 7010.432
388.1380, 6683.524
388.6201, 6377.458
389.1022, 6080.952
389.5844, 5819.041
390.0665, 5613.386
390.5486, 5450.423
391.0307, 5296.704
391.5128, 5131.149
391.9949, 4964.629
392.4771, 4814.331
392.9592, 4680.485
393.4413, 4566.131
393.9234, 4480.538
394.4055, 4412.613
394.8876, 4342.226
395.3698, 4267.886
395.8519, 4193.754
396.3340, 4119.557
396.8161, 4048.024
397.2982, 3985.252
397.7803, 3932.906
398.2625, 3886.229
398.7446, 3840.200
399.2267, 3794.876
399.7088, 3750.539
400.1909, 3702.967
400.6730, 3660.174
401.1552, 3629.591
401.6373, 3607.270
402.1194, 3582.005
402.6015, 3547.121
403.0836, 3507.276
403.5657, 3478.969
404.0479, 3476.798
404.5300, 3461.914
405.0121, 3416.462
405.4942, 3368.683
405.9763, 3342.279
406.4584, 3339.202
406.9406, 3343.211
407.4227, 3336.679
407.9048, 3320.461
408.3869, 3315.907
408.8690, 3331.203
409.3511, 3344.928
409.8333, 3339.508
410.3154, 3326.065
410.7975, 3324.890
411.2796, 3346.957
411.7617, 3376.421
412.2438, 3395.188
412.7260, 3405.379
413.2081, 3423.193
413.6902, 3455.481
414.1723, 3495.147
414.6544, 3529.874
415.1365, 3557.510
415.6187, 3593.264
416.1008, 3649.694
416.5829, 3709.082
417.0650, 3753.228
417.5471, 3782.855
418.0292, 3813.771
418.5114, 3859.800
418.9935, 3917.366
419.4756, 3953.313
419.9577, 3948.899
420.4398, 3944.745
420.9219, 3957.203
421.4041, 3967.266
421.8862, 3951.102
422.3683, 3903.173
422.8504, 3842.736
423.3325, 3792.194
423.8146, 3751.906
424.2968, 3720.558
424.7789, 3702.909
425.2610, 3689.276
425.7431, 3674.418
426.2252, 3659.545
426.7073, 3647.411
427.1895, 3636.601
427.6716, 3631.766
428.1537, 3641.431
428.6358, 3665.371
429.1179, 3692.626
429.6000, 3721.192
430.0822, 3748.716
430.5643, 3772.409
431.0464, 3793.587
431.5285, 3807.112
432.0106, 3806.464
432.4927, 3800.506
432.9749, 3796.409
433.4570, 3795.822
433.9391, 3802.114
434.4212, 3820.025
434.9033, 3847.782
435.3854, 3860.728
435.8676, 3849.778
436.3497, 3834.661
436.8318, 3817.522
437.3139, 3798.300
437.7960, 3775.425
438.2781, 3748.919
438.7603, 3721.922
439.2424, 3697.182
439.7245, 3674.140
440.2066, 3659.582
440.6887, 3657.744
441.1708, 3660.053
441.6530, 3660.480
442.1351, 3661.328
442.6172, 3667.622
443.0993, 3680.332
443.5814, 3700.458
444.0635, 3730.341
444.5457, 3769.469
445.0278, 3811.641
445.5099, 3851.261
445.9920, 3897.661
446.4741, 3968.116
446.9562, 4064.350
447.4384, 4166.902
447.9205, 4270.274
448.4026, 4380.976
448.8847, 4502.773
449.3668, 4636.457
449.8489, 4780.140
450.3311, 4933.140
450.8132, 5095.784
451.2953, 5272.651
451.7774, 5461.732
452.2595, 5670.792
452.7416, 5912.107
453.2238, 6164.058
453.7059, 6413.044
454.1880, 6654.823
454.6701, 6892.938
455.1522, 7130.490
455.6343, 7367.376
456.1165, 7607.000
456.5986, 7865.811
457.0807, 8095.136
457.5628, 8277.315
458.0449, 8411.237
458.5270, 8488.469
459.0092, 8509.673
459.4913, 8469.276
459.9734, 8362.907
460.4555, 8192.053
460.9376, 7948.325
461.4197, 7627.463
461.9019, 7267.159
462.3840, 6908.111
462.8661, 6548.781
463.3482, 6211.788
463.8303, 5891.912
464.3124, 5599.296
464.7946, 5341.041
465.2767, 5114.003
465.7588, 4914.151
466.2409, 4738.905
466.7230, 4585.376
467.2051, 4449.143
467.6873, 4333.255
468.1694, 4223.839
468.6515, 4113.875
469.1336, 4016.576
469.6157, 3939.498
470.0978, 3881.199
470.5800, 3833.977
471.0621, 3794.487
471.5442, 3763.671
472.0263, 3748.554
472.5084, 3748.388
472.9905, 3736.887
473.4727, 3699.732
473.9548, 3650.526
474.4369, 3614.025
474.9190, 3591.043
475.4011, 3572.044
475.8832, 3560.203
476.3654, 3548.058
476.8475, 3528.463
477.3296, 3502.061
477.8117, 3474.135
478.2938, 3448.271
478.7759, 3423.748
479.2581, 3397.030
479.7402, 3363.889
480.2223, 3335.552
480.7044, 3313.827
481.1865, 3296.545
481.6686, 3284.119
482.1508, 3275.511
482.6329, 3265.692
483.1150, 3247.141
483.5971, 3224.186
484.0792, 3212.654
484.5613, 3214.862
485.0435, 3218.174
485.5256, 3217.489
486.0077, 3213.009
486.4898, 3205.929
486.9719, 3195.976
487.4540, 3183.962
487.9362, 3165.155
488.4183, 3146.836
488.9004, 3142.336
489.3825, 3151.613
489.8646, 3157.137
490.3467, 3142.063
490.8289, 3108.335
491.3110, 3089.349
491.7931, 3099.552
492.2752, 3107.682
492.7573, 3107.690
493.2394, 3104.656
493.7216, 3105.292
494.2037, 3110.507
494.6858, 3113.070
495.1679, 3100.668
495.6500, 3077.135
496.1321, 3070.636
496.6143, 3087.223
497.0964, 3107.080
497.5785, 3122.511
498.0606, 3132.203
498.5427, 3132.197
499.0248, 3115.444
499.5070, 3101.573
499.9891, 3105.197
500.4712, 3115.987
500.9533, 3116.601
501.4355, 3104.098
501.9176, 3088.475
502.3997, 3078.032
502.8818, 3072.684
503.3639, 3079.167
503.8460, 3108.834
504.3282, 3137.500
504.8103, 3162.649
505.2924, 3183.651
505.7745, 3198.891
506.2566, 3208.313
506.7387, 3216.139
507.2209, 3226.311
507.7030, 3238.689
508.1851, 3251.811
508.6672, 3264.293
509.1493, 3281.230
509.6314, 3308.957
510.1136, 3342.932
510.5957, 3372.098
511.0778, 3390.194
511.5599, 3413.056
512.0420, 3448.339
512.5241, 3492.857
513.0062, 3540.793
513.4883, 3591.360
513.9705, 3650.478
514.4526, 3723.506
514.9347, 3810.443
515.4168, 3903.554
515.8989, 4010.154
516.3810, 4113.355
516.8632, 4200.563
517.3453, 4287.800
517.8274, 4392.962
518.3095, 4518.963
518.7916, 4655.456
519.2737, 4794.049
519.7559, 4934.046
520.2380, 5073.569
520.7201, 5211.225
521.2022, 5352.236
521.6843, 5504.838
522.1664, 5660.571
522.6486, 5800.225
523.1307, 5935.995
523.6128, 6034.108
524.0949, 6085.822
524.5770, 6093.123
525.0591, 6054.915
525.5413, 5973.071
526.0234, 5856.739
526.5055, 5713.026
526.9876, 5541.189
527.4697, 5323.385
527.9518, 5011.356
528.4340, 4738.672
528.9161, 4550.642
529.3982, 4391.167
529.8803, 4209.834
530.3624, 4002.333
530.8445, 3808.937
531.3267, 3658.442
531.8088, 3538.156
532.2909, 3419.447
532.7730, 3301.400
533.2551, 3202.548
533.7372, 3136.154
534.2194, 3090.357
534.7015, 3037.031
535.1836, 2964.323
535.6657, 2911.631
536.1478, 2893.208
536.6299, 2887.749
537.1121, 2884.040
537.5942, 2879.389
538.0763, 2873.314
538.5584, 2866.113
539.0405, 2855.148
539.5226, 2828.416
540.0048, 2775.863
540.4869, 2747.900
540.9690, 2776.974
541.4511, 2810.730
541.9332, 2808.379
542.4153, 2775.371
542.8975, 2744.214
543.3796, 2726.689
543.8617, 2716.017
544.3438, 2709.197
544.8259, 2704.384
545.3080, 2692.795
545.7902, 2670.207
546.2723, 2650.220
546.7544, 2655.287
547.2365, 2697.426
547.7186, 2714.536
548.2007, 2685.789
548.6829, 2657.296
549.1650, 2645.840
549.6471, 2644.807
550.1292, 2641.616
550.6113, 2631.433
551.0934, 2624.399
551.5756, 2638.282
552.0577, 2668.475
552.5398, 2680.797
553.0219, 2666.188
553.5040, 2651.240
553.9861, 2656.798
554.4683, 2677.346
554.9504, 2687.557
555.4325, 2671.460
555.9146, 2667.002
556.3967, 2695.801
556.8788, 2736.672
557.3610, 2768.137
557.8431, 2786.269
558.3252, 2796.163
558.8073, 2801.159
559.2894, 2802.144
559.7715, 2804.084
560.2537, 2806.064
560.7358, 2811.020
561.2179, 2813.017
561.7000, 2823.095
562.1821, 2855.464
562.6642, 2909.249
563.1464, 2959.177
563.6285, 2993.673
564.1106, 3017.593
564.5927, 3031.617
565.0748, 3038.605
565.5569, 3051.046
566.0391, 3074.765
566.5212, 3104.853
567.0033, 3131.274
567.4854, 3145.415
567.9675, 3181.545
568.4496, 3255.386
568.9318, 3332.037
569.4139, 3392.712
569.8960, 3447.129
570.3781, 3514.852
570.8602, 3604.662
571.3423, 3699.077
571.8245, 3783.742
572.3066, 3856.441
572.7887, 3906.492
573.2708, 3931.386
573.7529, 3937.443
574.2350, 3929.183
574.7172, 3905.384
575.1993, 3862.984
575.6814, 3789.515
576.1635, 3714.709
576.6456, 3650.202
577.1277, 3584.410
577.6099, 3500.950
578.0920, 3401.847
578.5741, 3304.495
579.0562, 3221.570
579.5383, 3151.873
580.0204, 3093.259
580.5026, 3048.654
580.9847, 3002.023
581.4668, 2942.971
581.9489, 2886.648
582.4310, 2851.773
582.9132, 2836.355
583.3953, 2812.865
583.8774, 2758.647
584.3596, 2706.983
584.8417, 2687.145
585.3238, 2688.728
585.8059, 2687.811
586.2880, 2675.877
586.7701, 2656.626
587.2523, 2633.005
587.7344, 2603.018
588.2165, 2586.809
588.6986, 2593.694
589.1807, 2602.370
589.6628, 2603.023
590.1450, 2602.822
590.6271, 2612.384
591.1092, 2634.817
591.5913, 2655.724
592.0734, 2663.480
592.5555, 2664.655
593.0377, 2665.046
593.5198, 2666.826
594.0019, 2686.284
594.4840, 2736.334
594.9661, 2801.532
595.4482, 2840.332
595.9304, 2830.230
596.4125, 2836.083
596.8946, 2861.688
597.3767, 2897.648
597.8588, 2940.184
598.3409, 2989.232
598.8231, 3046.628
599.3052, 3115.633
599.7873, 3184.822
600.2694, 3236.514
600.7515, 3276.100
601.2336, 3331.308
601.7158, 3409.121
602.1979, 3485.326
602.6800, 3538.335
603.1621, 3572.142
603.6442, 3620.413
604.1263, 3707.537
604.6085, 3775.169
605.0906, 3805.366
605.5727, 3820.046
606.0548, 3839.774
606.5369, 3863.057
607.0190, 3873.356
607.5012, 3858.424
607.9833, 3824.882
608.4654, 3786.492
608.9475, 3743.442
609.4296, 3685.887
609.9117, 3603.818
610.3939, 3521.721
610.8760, 3465.396
611.3581, 3435.601
611.8402, 3409.619
612.3223, 3391.005
612.8044, 3371.483
613.2866, 3341.934
613.7687, 3312.724
614.2508, 3296.215
614.7329, 3294.945
615.2150, 3304.147
615.6971, 3320.932
616.1793, 3344.258
616.6614, 3367.041
617.1435, 3386.208
617.6256, 3421.213
618.1077, 3485.175
618.5898, 3561.483
619.0720, 3626.631
619.5541, 3680.339
620.0362, 3738.947
620.5183, 3799.906
621.0004, 3871.647
621.4825, 3958.993
621.9647, 4060.100
622.4468, 4170.981
622.9289, 4290.519
623.4110, 4421.376
623.8931, 4568.264
624.3752, 4730.555
624.8574, 4899.194
625.3395, 5068.934
625.8216, 5259.040
626.3037, 5471.261
626.7858, 5713.834
627.2679, 6002.131
627.7501, 6342.751
628.2322, 6677.659
628.7143, 6963.813
629.1964, 7264.943
629.6785, 7639.389
630.1606, 8069.104
630.6428, 8514.846
631.1249, 8961.213
631.6070, 9397.366
632.0891, 9808.947
632.5712, 10196.51
633.0533, 10555.23
633.5355, 10908.55
634.0176, 11187.12
634.4997, 11360.14
634.9818, 11432.91
635.4639, 11412.63
635.9460, 11298.58
636.4282, 11095.70
636.9103, 10789.04
637.3924, 10407.23
637.8745, 9949.666
638.3566, 9439.730
638.8387, 8917.903
639.3209, 8402.723
639.8030, 7902.092
640.2851, 7429.570
640.7672, 6982.854
641.2493, 6573.202
641.7314, 6201.552
642.2136, 5858.903
642.6957, 5536.453
643.1778, 5242.609
643.6599, 4992.878
644.1420, 4794.571
644.6241, 4616.876
645.1063, 4455.397
645.5884, 4305.375
646.0705, 4160.273
646.5526, 4022.552
647.0347, 3904.312
647.5168, 3812.254
647.9990, 3731.308
648.4811, 3634.653
648.9632, 3519.649
649.4453, 3416.248
649.9274, 3321.699
650.4095, 3246.382
650.8917, 3207.769
651.3738, 3188.492
651.8559, 3158.327
652.3380, 3114.602
652.8201, 3064.239
653.3022, 2996.672
653.7844, 2933.527
654.2665, 2896.845
654.7486, 2880.558
655.2307, 2866.458
655.7128, 2845.989
656.1949, 2822.592
656.6771, 2801.735
657.1592, 2783.493
657.6413, 2763.558
658.1234, 2742.535
658.6055, 2717.182
659.0876, 2679.942
659.5698, 2639.383
660.0519, 2614.696
660.5340, 2611.314
661.0161, 2606.720
661.4982, 2596.021
661.9803, 2582.853
662.4625, 2567.615
662.9446, 2552.387
663.4267, 2542.828
663.9088, 2541.301
664.3909, 2538.749
664.8730, 2519.370
665.3552, 2485.826
665.8373, 2463.028
666.3194, 2453.243
666.8015, 2449.062
667.2836, 2447.840
667.7657, 2449.124
668.2479, 2452.263
668.7300, 2457.772
669.2121, 2463.281
669.6942, 2473.960
670.1763, 2479.199
670.6584, 2469.971
671.1406, 2452.181
671.6227, 2434.167
672.1048, 2418.927
672.5869, 2409.220
673.0690, 2411.455
673.5511, 2421.495
674.0333, 2427.648
674.5154, 2429.744
674.9975, 2418.511
675.4796, 2384.569
675.9617, 2345.033
676.4438, 2330.891
676.9260, 2353.322
677.4081, 2361.145
677.8902, 2339.271
678.3723, 2321.336
678.8544, 2326.031
679.3365, 2338.010
679.8187, 2337.824
680.3008, 2321.291
680.7829, 2297.744
681.2650, 2267.469
681.7471, 2237.947
682.2292, 2223.475
682.7114, 2222.547
683.1935, 2227.201
683.6756, 2235.968
684.1577, 2236.956
684.6398, 2210.462
685.1219, 2151.877
685.6041, 2122.069
686.0862, 2141.858
686.5683, 2161.367
687.0504, 2170.905
687.5325, 2174.154
688.0146, 2173.106
688.4968, 2168.507
688.9789, 2164.024
689.4610, 2161.548
689.9431, 2159.627
690.4252, 2153.303
690.9073, 2147.231
691.3895, 2155.026
691.8716, 2178.689
692.3537, 2201.340
692.8358, 2205.995
693.3179, 2195.736
693.8000, 2189.900
694.2822, 2190.433
694.7643, 2189.322
695.2464, 2185.656
695.7285, 2178.843
696.2106, 2163.124
696.6927, 2142.280
697.1749, 2135.412
697.6570, 2161.773
698.1391, 2182.806
698.6212, 2181.690
699.1033, 2168.439
699.5854, 2148.958
700.0676, 2127.625
700.5497, 2113.204
701.0318, 2111.454
701.5139, 2119.490
701.9960, 2135.857
702.4781, 2159.797
702.9603, 2175.443
703.4424, 2181.675
703.9245, 2172.711
704.4066, 2132.422
704.8887, 2077.118
705.3708, 2069.832
705.8530, 2157.936
706.3351, 2214.506
706.8172, 2211.772
707.2993, 2198.488
707.7814, 2200.257
708.2635, 2213.954
708.7457, 2229.168
709.2278, 2242.506
709.7099, 2255.098
710.1920, 2271.392
710.6741, 2286.454
711.1563, 2285.656
711.6384, 2270.947
712.1205, 2265.549
712.6026, 2281.630
713.0847, 2306.543
713.5668, 2316.895
714.0490, 2307.303
714.5311, 2315.376
715.0132, 2358.488
715.4953, 2393.351
715.9774, 2396.382
716.4595, 2389.554
716.9417, 2395.871
717.4238, 2417.413
717.9059, 2442.641
718.3880, 2464.859
718.8701, 2491.973
719.3522, 2535.864
719.8344, 2586.574
720.3165, 2624.576
720.7986, 2646.732
721.2807, 2668.554
721.7628, 2704.358
722.2449, 2750.684
722.7271, 2793.977
723.2092, 2833.395
723.6913, 2881.363
724.1734, 2941.952
724.6555, 3008.864
725.1376, 3079.640
725.6198, 3152.645
726.1019, 3212.191
726.5840, 3242.909
727.0661, 3282.594
727.5482, 3351.564
728.0303, 3417.535
728.5125, 3450.542
728.9946, 3460.248
729.4767, 3477.719
729.9588, 3517.866
730.4409, 3562.786
730.9230, 3590.441
731.4052, 3612.381
731.8873, 3650.487
732.3694, 3706.961
732.8515, 3778.314
733.3336, 3863.463
733.8157, 3957.631
734.2979, 4047.764
734.7800, 4124.709
735.2621, 4243.791
735.7442, 4420.663
736.2263, 4612.640
736.7084, 4803.499
737.1906, 5001.224
737.6727, 5213.126
738.1548, 5438.377
738.6369, 5685.378
739.1190, 5957.817
739.6011, 6250.644
740.0833, 6574.844
740.5654, 6912.930
741.0475, 7251.622
741.5296, 7583.321
742.0117, 7884.430
742.4938, 8142.984
742.9760, 8352.391
743.4581, 8510.241
743.9402, 8611.650
744.4223, 8613.514
744.9044, 8504.132
745.3865, 8301.080
745.8687, 8012.132
746.3508, 7646.905
746.8329, 7254.971
747.3150, 6827.182
747.7971, 6393.777
748.2792, 5933.294
748.7614, 5492.930
749.2435, 5087.336
749.7256, 4722.591
750.2077, 4409.052
750.6898, 4160.613
751.1719, 3927.846
751.6541, 3669.919
752.1362, 3427.783
752.6183, 3248.269
753.1004, 3120.637
753.5825, 3013.798
754.0646, 2915.143
754.5468, 2820.875
755.0289, 2722.198
755.5110, 2623.629
755.9931, 2555.711
756.4752, 2520.647
756.9573, 2488.179
757.4395, 2448.813
757.9216, 2405.981
758.4037, 2362.952
758.8858, 2319.501
759.3679, 2281.146
759.8500, 2249.378
760.3322, 2221.109
760.8143, 2193.615
761.2964, 2171.672
761.7785, 2162.652
762.2606, 2162.624
762.7427, 2157.797
763.2249, 2143.310
763.7070, 2123.024
764.1891, 2094.922
764.6712, 2065.023
765.1533, 2045.074
765.6354, 2031.895
766.1176, 2007.200
766.5997, 1961.094
767.0818, 1912.064
767.5639, 1893.046
768.0460, 1901.209
768.5281, 1897.305
769.0103, 1877.272
769.4924, 1864.215
769.9745, 1870.548
770.4566, 1884.123
770.9387, 1885.961
771.4208, 1872.851
771.9030, 1871.040
772.3851, 1897.355
772.8672, 1912.965
773.3493, 1900.924
773.8314, 1881.904
774.3135, 1874.034
774.7957, 1876.807
775.2778, 1879.231
775.7599, 1883.629
776.2420, 1876.706
776.7241, 1833.295
777.2062, 1781.676
777.6884, 1763.920
778.1705, 1778.987
778.6526, 1799.866
779.1347, 1811.915
779.6168, 1819.799
780.0989, 1834.907
780.5811, 1854.810
781.0632, 1852.655
781.5453, 1824.078
782.0274, 1799.024
782.5095, 1792.640
782.9916, 1792.848
783.4738, 1777.469
783.9559, 1739.292
784.4380, 1733.320
784.9201, 1795.378
785.4022, 1842.384
785.8843, 1855.543
786.3665, 1848.787
786.8486, 1825.247
787.3307, 1790.435
787.8128, 1767.453
788.2949, 1765.899
788.7770, 1774.451
789.2592, 1792.229
789.7413, 1813.509
790.2234, 1836.802
790.7055, 1857.492
791.1876, 1861.769
791.6697, 1841.342
792.1519, 1815.597
792.6340, 1810.658
793.1161, 1821.931
793.5982, 1835.223
794.0803, 1849.530
794.5624, 1855.461
795.0446, 1847.660
795.5267, 1836.654
796.0088, 1836.884
796.4909, 1848.647
796.9730, 1864.274
797.4551, 1890.562
797.9373, 1906.336
798.4194, 1888.072
798.9015, 1875.039
799.3836, 1913.657
799.8657, 1988.769
800.3478, 2029.497
800.8300, 2001.235
801.3121, 1976.388
801.7942, 1974.159
802.2763, 1982.948
802.7584, 1991.321
803.2405, 2003.686
803.7227, 2038.431
804.2048, 2103.900
804.6869, 2157.085
805.1690, 2147.903
805.6511, 2110.194
806.1332, 2095.456
806.6154, 2101.438
807.0975, 2115.466
807.5796, 2132.685
808.0617, 2139.801
808.5438, 2119.174
809.0259, 2079.521
809.5081, 2064.992
809.9902, 2079.560
810.4723, 2090.214
810.9544, 2093.303
811.4365, 2084.263
811.9186, 2052.384
812.4008, 2008.115
812.8829, 1988.791
813.3650, 2012.096
813.8471, 2027.594
814.3292, 2033.233
814.8113, 2033.640
815.2935, 2021.807
815.7756, 2010.406
816.2577, 2018.232
816.7398, 2048.091
817.2219, 2078.383
817.7040, 2092.777
818.1862, 2112.753
818.6683, 2159.044
819.1504, 2217.120
819.6325, 2262.966
820.1146, 2296.484
820.5967, 2337.986
821.0789, 2402.043
821.5610, 2474.228
822.0431, 2533.179
822.5252, 2582.349
823.0073, 2632.581
823.4894, 2685.112
823.9716, 2735.820
824.4537, 2783.319
824.9358, 2824.166
825.4179, 2854.149
825.9000, 2873.556
826.3821, 2874.224
826.8643, 2854.451
827.3464, 2821.326
827.8285, 2779.442
828.3106, 2721.177
828.7927, 2630.523
829.2748, 2511.409
829.7570, 2413.824
830.2391, 2350.713
830.7212, 2289.430
831.2033, 2232.559
831.6854, 2171.334
832.1675, 2090.801
832.6497, 2004.990
833.1318, 1941.437
833.6139, 1908.162
834.0960, 1884.814
834.5781, 1867.287
835.0602, 1849.762
835.5424, 1828.365
836.0245, 1802.998
836.5066, 1764.955
836.9887, 1718.372
837.4708, 1697.402
837.9529, 1739.565
838.4351, 1801.864
838.9172, 1811.921
839.3993, 1780.164
839.8814, 1738.542
840.3635, 1693.292
840.8456, 1658.314
841.3278, 1642.280
841.8099, 1639.423
842.2920, 1641.534
842.7741, 1649.610
843.2562, 1645.922
843.7383, 1625.682
844.2205, 1610.505
844.7026, 1608.015
845.1847, 1613.414
845.6668, 1624.344
846.1489, 1640.323
846.6310, 1645.850
847.1132, 1630.378
847.5953, 1619.482
848.0774, 1612.321
848.5595, 1612.700
849.0416, 1630.432
849.5237, 1655.323
850.0059, 1665.076
850.4880, 1651.667
850.9701, 1644.388
851.4522, 1666.031
851.9343, 1684.410
852.4164, 1671.006
852.8986, 1643.937
853.3807, 1629.915
853.8628, 1632.934
854.3449, 1640.979
854.8270, 1648.888
855.3091, 1654.479
855.7913, 1651.781
856.2734, 1646.084
856.7555, 1650.647
857.2376, 1664.181
857.7197, 1673.035
858.2018, 1670.397
858.6840, 1659.998
859.1661, 1642.191
859.6482, 1620.154
860.1303, 1619.955
860.6124, 1642.400
861.0945, 1646.819
861.5767, 1616.907
862.0588, 1590.205
862.5409, 1607.402
863.0230, 1655.528
863.5051, 1660.933
863.9872, 1602.716
864.4694, 1566.639
864.9515, 1568.989
865.4336, 1578.539
865.9157, 1582.837
866.3978, 1581.988
866.8799, 1574.932
867.3621, 1560.152
867.8442, 1548.026
868.3263, 1540.589
868.8084, 1533.796
869.2905, 1522.735
869.7726, 1514.813
870.2548, 1518.552
870.7369, 1531.676
871.2190, 1545.220
871.7011, 1561.053
872.1832, 1566.633
872.6653, 1544.804
873.1475, 1520.133
873.6296, 1515.321
874.1117, 1523.856
874.5938, 1532.339
875.0759, 1536.487
875.5580, 1535.920
876.0402, 1527.990
876.5223, 1517.351
877.0044, 1505.962
877.4865, 1497.407
877.9686, 1504.117
878.4507, 1524.330
878.9329, 1536.681
879.4150, 1527.630
879.8971, 1513.720
880.3792, 1527.471
880.8613, 1560.932
881.3434, 1569.303
881.8256, 1551.758
882.3077, 1528.112
882.7898, 1503.332
883.2719, 1490.366
883.7540, 1506.438
884.2361, 1543.292
884.7183, 1552.370
885.2004, 1523.810
885.6825, 1516.271
886.1646, 1544.917
886.6467, 1573.930
887.1288, 1580.970
887.6110, 1578.064
888.0931, 1588.067
888.5752, 1612.992
889.0573, 1640.807
889.5394, 1679.921
890.0215, 1710.154
890.5037, 1718.568
890.9858, 1724.300
891.4679, 1744.430
891.9500, 1774.800
892.4321, 1796.949
892.9142, 1794.694
893.3964, 1813.056
893.8785, 1881.585
894.3606, 1951.936
894.8427, 2000.350
895.3248, 2030.891
895.8069, 2051.923
896.2891, 2064.661
896.7712, 2065.925
897.2533, 2045.715
897.7354, 2023.314
898.2175, 2016.766
898.6996, 2010.867
899.1818, 1982.260
899.6639, 1938.206
900.1460, 1907.003
900.6281, 1900.474
901.1102, 1892.620
901.5923, 1852.029
902.0745, 1801.116
902.5566, 1775.662
903.0387, 1766.616
903.5208, 1747.721
904.0029, 1714.629
904.4850, 1681.605
904.9672, 1659.149
905.4493, 1641.475
905.9314, 1616.443
906.4135, 1587.445
906.8956, 1569.910
907.3777, 1564.353
907.8599, 1563.972
908.3420, 1566.542
908.8241, 1565.949
909.3062, 1554.373
909.7883, 1534.111
910.2704, 1514.672
910.7526, 1495.175
911.2347, 1492.506
911.7169, 1515.441
912.1990, 1522.411
912.6811, 1481.159
913.1632, 1423.928
913.6453, 1415.816
914.1274, 1466.572
914.6096, 1481.471
915.0917, 1439.787
915.5738, 1413.801
916.0559, 1431.013
916.5380, 1455.330
917.0201, 1456.766
917.5023, 1440.480
917.9844, 1427.672
918.4665, 1416.650
918.9486, 1412.444
919.4307, 1418.257
919.9128, 1426.965
920.3950, 1441.637
920.8771, 1454.395
921.3592, 1453.617
921.8413, 1440.485
922.3234, 1434.096
922.8055, 1437.657
923.2877, 1447.338
923.7698, 1474.713
924.2519, 1495.617
924.7340, 1490.219
925.2161, 1469.221
925.6982, 1447.933
926.1804, 1429.073
926.6625, 1424.366
927.1446, 1452.249
927.6267, 1478.895
928.1088, 1487.077
928.5909, 1484.413
929.0731, 1471.851
929.5552, 1456.975
930.0373, 1458.962
930.5194, 1487.126
931.0015, 1512.896
931.4836, 1512.757
931.9658, 1505.109
932.4479, 1510.953
932.9300, 1520.661
933.4121, 1512.805
933.8942, 1488.306
934.3763, 1471.951
934.8585, 1481.361
935.3406, 1490.991
935.8227, 1466.285
936.3048, 1427.809
936.7869, 1406.694
937.2690, 1402.432
937.7512, 1407.329
938.2333, 1418.433
938.7154, 1433.631
939.1975, 1453.276
939.6796, 1471.986
940.1617, 1480.025
940.6439, 1479.346
941.1260, 1473.094
941.6081, 1463.192
942.0902, 1459.240
942.5723, 1465.368
943.0544, 1472.199
943.5366, 1466.643
944.0187, 1454.294
944.5008, 1456.500
944.9829, 1471.267
945.4650, 1479.541
945.9471, 1478.195
946.4293, 1478.085
946.9114, 1486.267
947.3935, 1494.147
947.8756, 1483.450
948.3577, 1456.549
948.8398, 1450.909
949.3220, 1467.754
949.8041, 1488.041
950.2862, 1509.192
950.7683, 1519.799
951.2504, 1509.169
951.7325, 1486.432
952.2147, 1474.224
952.6968, 1473.582
953.1789, 1476.631
953.6610, 1484.261
954.1431, 1492.999
954.6252, 1504.690
955.1074, 1508.560
955.5895, 1490.064
956.0716, 1457.626
956.5537, 1450.572
957.0358, 1479.984
957.5179, 1496.711
958.0001, 1492.875
958.4822, 1491.352
958.9643, 1502.419
959.4464, 1517.931
959.9285, 1529.120
960.4106, 1536.123
960.8928, 1539.496
961.3749, 1529.036
961.8570, 1538.088
962.3391, 1587.688
962.8212, 1628.588
963.3033, 1631.495
963.7855, 1617.695
964.2676, 1614.486
964.7497, 1621.883
965.2318, 1640.102
965.7139, 1685.221
966.1960, 1716.323
966.6782, 1712.994
967.1603, 1712.521
967.6424, 1739.656
968.1245, 1780.093
968.6066, 1808.828
969.0887, 1822.921
969.5709, 1844.900
970.0530, 1873.630
970.5351, 1913.499
971.0172, 1977.532
971.4993, 2041.141
971.9814, 2079.646
972.4636, 2107.729
972.9457, 2158.968
973.4278, 2240.720
973.9099, 2319.896
974.3920, 2387.880
974.8741, 2457.859
975.3563, 2538.527
975.8384, 2618.948
976.3205, 2693.489
976.8026, 2759.914
977.2847, 2814.284
977.7668, 2853.801
978.2490, 2889.175
978.7311, 2934.241
979.2132, 2961.798
979.6953, 2955.284
980.1774, 2930.278
980.6595, 2894.335
981.1417, 2853.393
981.6238, 2822.586
982.1059, 2809.371
982.5880, 2792.600
983.0701, 2760.949
983.5522, 2730.169
984.0344, 2698.018
984.5165, 2678.243
984.9986, 2688.073
985.4807, 2724.369
985.9628, 2769.792
986.4449, 2823.476
986.9271, 2876.188
987.4092, 2921.716
987.8913, 2968.883
988.3734, 3020.375
988.8555, 3078.007
989.3376, 3143.194
989.8198, 3216.239
990.3019, 3299.977
990.7840, 3403.313
991.2661, 3498.317
991.7482, 3572.818
992.2303, 3635.905
992.7125, 3691.285
993.1946, 3740.544
993.6767, 3785.266
994.1588, 3825.539
994.6409, 3861.892
995.1230, 3908.967
995.6052, 3922.748
996.0873, 3868.835
996.5694, 3788.996
997.0515, 3708.686
997.5336, 3624.779
998.0157, 3529.299
998.4979, 3421.716
998.9800, 3305.949
999.4621, 3174.389
999.9442, 3052.210
1000.426, 2955.010
1000.908, 2868.738
1001.391, 2788.898
1001.873, 2709.565
1002.355, 2620.109
1002.837, 2521.373
1003.319, 2428.892
1003.801, 2344.132
1004.283, 2276.082
1004.765, 2235.681
1005.247, 2206.859
1005.730, 2182.772
1006.212, 2158.407
1006.694, 2128.292
1007.176, 2091.534
1007.658, 2048.771
1008.140, 1988.073
1008.622, 1941.971
1009.104, 1936.477
1009.587, 1940.608
1010.069, 1936.750
1010.551, 1922.979
1011.033, 1891.169
1011.515, 1845.152
1011.997, 1820.885
1012.479, 1850.815
1012.961, 1874.906
1013.443, 1855.441
1013.926, 1832.177
1014.408, 1839.671
1014.890, 1860.812
1015.372, 1865.072
1015.854, 1850.221
1016.336, 1841.615
1016.818, 1854.425
1017.300, 1864.675
1017.783, 1861.017
1018.265, 1853.653
1018.747, 1844.012
1019.229, 1838.508
1019.711, 1853.854
1020.193, 1886.742
1020.675, 1895.324
1021.157, 1842.323
1021.639, 1803.432
1022.122, 1814.164
1022.604, 1836.200
1023.086, 1849.919
1023.568, 1857.196
1024.050, 1861.576
1024.532, 1863.865
1025.014, 1865.389
1025.496, 1855.375
1025.979, 1863.581
1026.461, 1909.721
1026.943, 1962.947
1027.425, 2016.703
1027.907, 2060.301
1028.389, 2072.278
1028.871, 2058.147
1029.353, 2068.659
1029.835, 2136.288
1030.318, 2187.641
1030.800, 2194.518
1031.282, 2200.069
1031.764, 2231.897
1032.246, 2268.439
1032.728, 2279.962
1033.210, 2270.600
1033.692, 2276.088
1034.174, 2315.588
1034.657, 2341.168
1035.139, 2328.781
1035.621, 2325.526
1036.103, 2363.786
1036.585, 2408.723
1037.067, 2425.149
1037.549, 2416.536
1038.031, 2404.701
1038.514, 2385.252
1038.996, 2372.784
1039.478, 2380.711
1039.960, 2377.001
1040.442, 2335.752
1040.924, 2295.624
1041.406, 2297.656
1041.888, 2327.747
1042.370, 2333.865
1042.853, 2308.401
1043.335, 2280.294
1043.817, 2242.945
1044.299, 2216.279
1044.781, 2213.164
1045.263, 2210.697
1045.745, 2188.301
1046.227, 2154.734
1046.709, 2134.359
1047.192, 2130.917
1047.674, 2121.648
1048.156, 2106.544
1048.638, 2084.865
1049.120, 2053.007
1049.602, 2023.292
1050.084, 2004.979
1050.566, 1993.032
1051.049, 1976.984
1051.531, 1956.658
1052.013, 1936.004
1052.495, 1914.259
1052.977, 1895.900
1053.459, 1881.936
1053.941, 1870.273
1054.423, 1859.904
1054.906, 1850.358
1055.388, 1840.789
1055.870, 1831.342
1056.352, 1823.516
1056.834, 1817.368
1057.316, 1808.677
1057.798, 1796.460
1058.280, 1793.286
1058.762, 1806.391
1059.245, 1819.429
1059.727, 1810.411
1060.209, 1786.967
1060.691, 1775.334
1061.173, 1773.831
1061.655, 1773.223
1062.137, 1771.890
1062.619, 1763.099
1063.101, 1744.585
1063.584, 1730.013
1064.066, 1734.900
1064.548, 1746.246
1065.030, 1735.062
1065.512, 1710.830
1065.994, 1703.832
1066.476, 1709.610
1066.958, 1699.743
1067.441, 1668.549
1067.923, 1640.303
1068.405, 1631.979
1068.887, 1634.381
1069.369, 1638.898
1069.851, 1644.550
1070.333, 1649.494
1070.815, 1654.412
1071.297, 1662.671
1071.780, 1673.219
1072.262, 1677.670
1072.744, 1670.311
1073.226, 1664.565
1073.708, 1679.072
1074.190, 1692.562
1074.672, 1679.132
1075.154, 1655.371
1075.636, 1642.049
1076.119, 1641.282
1076.601, 1650.534
1077.083, 1670.659
1077.565, 1683.776
1078.047, 1673.084
1078.529, 1663.011
1079.011, 1666.961
1079.494, 1677.867
1079.976, 1692.984
1080.458, 1708.353
1080.940, 1713.373
1081.422, 1705.553
1081.904, 1714.535
1082.386, 1767.972
1082.868, 1809.040
1083.350, 1820.637
1083.833, 1819.273
1084.315, 1797.835
1084.797, 1779.203
1085.279, 1799.707
1085.761, 1858.825
1086.243, 1908.938
1086.725, 1949.499
1087.207, 1980.754
1087.689, 1997.462
1088.172, 2014.031
1088.654, 2038.080
1089.136, 2060.289
1089.618, 2068.955
1090.100, 2069.457
1090.582, 2084.237
1091.064, 2119.436
1091.546, 2140.096
1092.029, 2142.492
1092.511, 2146.349
1092.993, 2157.802
1093.475, 2167.520
1093.957, 2169.491
1094.439, 2163.219
1094.921, 2143.141
1095.403, 2112.338
1095.885, 2113.844
1096.368, 2144.938
1096.850, 2140.175
1097.332, 2090.636
1097.814, 2047.733
1098.296, 2036.927
1098.778, 2030.817
1099.260, 1994.447
1099.742, 1943.912
1100.224, 1919.816
1100.707, 1910.846
1101.189, 1881.354
1101.671, 1835.566
1102.153, 1803.866
1102.635, 1794.090
1103.117, 1787.432
1103.599, 1772.507
1104.081, 1749.610
1104.564, 1710.766
1105.046, 1671.097
1105.528, 1651.641
1106.010, 1644.517
1106.492, 1636.276
1106.974, 1624.295
1107.456, 1609.482
1107.938, 1590.923
1108.421, 1576.159
1108.903, 1575.024
1109.385, 1571.780
1109.867, 1551.393
1110.349, 1529.176
1110.831, 1519.786
1111.313, 1520.579
1111.795, 1525.223
1112.277, 1533.892
1112.760, 1532.518
1113.242, 1508.352
1113.724, 1489.464
1114.206, 1479.394
1114.688, 1477.810
1115.170, 1482.702
1115.652, 1497.728
1116.134, 1537.844
1116.616, 1595.355
1117.099, 1601.813
1117.581, 1530.337
1118.063, 1496.134
1118.545, 1513.059
1119.027, 1533.228
1119.509, 1544.017
1119.991, 1546.737
1120.473, 1541.351
1120.956, 1531.348
1121.438, 1524.232
1121.920, 1519.835
1122.402, 1513.074
1122.884, 1504.935
1123.366, 1515.636
1123.848, 1546.803
1124.330, 1571.864
1124.813, 1577.631
1125.295, 1569.269
1125.777, 1545.742
1126.259, 1520.580
1126.741, 1523.373
1127.223, 1541.022
1127.705, 1549.880
1128.187, 1548.019
1128.669, 1534.273
1129.151, 1511.327
1129.634, 1493.911
1130.116, 1489.063
1130.598, 1496.925
1131.080, 1532.258
1131.562, 1565.029
1132.044, 1571.740
1132.526, 1559.547
1133.008, 1530.277
1133.491, 1492.786
1133.973, 1467.448
1134.455, 1459.236
1134.937, 1458.847
1135.419, 1472.135
1135.901, 1481.444
1136.383, 1482.335
1136.865, 1477.487
1137.348, 1464.293
1137.830, 1449.088
1138.312, 1441.315
1138.794, 1440.074
1139.276, 1433.290
1139.758, 1416.250
1140.240, 1408.343
1140.722, 1410.046
1141.204, 1424.288
1141.687, 1456.567
1142.169, 1482.649
1142.651, 1482.055
1143.133, 1466.298
1143.615, 1457.185
1144.097, 1454.506
1144.579, 1458.058
1145.061, 1466.662
1145.543, 1471.776
1146.026, 1472.696
1146.508, 1474.135
1146.990, 1478.235
1147.472, 1484.979
1147.954, 1492.263
1148.436, 1505.822
1148.918, 1544.048
1149.400, 1585.436
1149.883, 1596.550
1150.365, 1587.101
1150.847, 1574.487
1151.329, 1565.801
1151.811, 1573.639
1152.293, 1608.953
1152.775, 1636.545
1153.257, 1631.844
1153.740, 1625.788
1154.222, 1634.470
1154.704, 1647.892
1155.186, 1662.055
1155.668, 1672.544
1156.150, 1669.060
1156.632, 1649.699
1157.114, 1637.842
1157.596, 1632.408
1158.078, 1637.331
1158.561, 1656.604
1159.043, 1678.248
1159.525, 1700.124
1160.007, 1717.174
1160.489, 1725.458
1160.971, 1724.146
1161.453, 1705.038
1161.935, 1670.502
1162.418, 1665.873
1162.900, 1688.186
1163.382, 1704.637
1163.864, 1708.638
1164.346, 1696.704
1164.828, 1667.429
1165.310, 1638.953
1165.792, 1631.013
1166.275, 1630.925
1166.757, 1620.706
1167.239, 1607.565
1167.721, 1601.587
1168.203, 1601.335
1168.685, 1605.819
1169.167, 1611.857
1169.649, 1607.750
1170.131, 1586.767
1170.614, 1565.455
1171.096, 1549.392
1171.578, 1535.962
1172.060, 1523.542
1172.542, 1513.791
1173.024, 1507.158
1173.506, 1504.604
1173.988, 1511.015
1174.470, 1525.771
1174.953, 1523.409
1175.435, 1494.986
1175.917, 1477.406
1176.399, 1475.392
1176.881, 1473.252
1177.363, 1466.078
1177.845, 1456.828
1178.327, 1447.096
1178.810, 1439.556
1179.292, 1443.808
1179.774, 1453.787
1180.256, 1437.866
1180.738, 1405.139
1181.220, 1393.692
1181.702, 1401.776
1182.184, 1396.184
1182.667, 1367.950
1183.149, 1347.836
1183.631, 1361.214
1184.113, 1380.258
1184.595, 1388.550
1185.077, 1384.964
1185.559, 1357.578
1186.041, 1325.652
1186.523, 1309.834
1187.005, 1311.225
1187.488, 1330.497
1187.970, 1373.840
1188.452, 1391.221
1188.934, 1355.126
1189.416, 1325.306
1189.898, 1303.619
1190.380, 1298.701
1190.862, 1324.134
1191.345, 1349.691
1191.827, 1341.661
1192.309, 1312.980
1192.791, 1306.369
1193.273, 1321.211
1193.755, 1320.261
1194.237, 1304.798
1194.719, 1296.486
1195.202, 1297.870
1195.684, 1292.822
1196.166, 1274.341
1196.648, 1255.273
1197.130, 1245.851
1197.612, 1244.976
1198.094, 1261.023
1198.576, 1276.531
1199.058, 1261.502
1199.541, 1235.124
1200.023, 1233.554
1200.505, 1253.456
1200.987, 1266.789
1201.469, 1269.309
1201.951, 1248.567
1202.433, 1161.846
1202.915, 1109.549
1203.397, 1146.471
1203.880, 1185.344
1204.362, 1186.850
1204.844, 1171.269
1205.326, 1161.838
1205.808, 1154.204
1206.290, 1126.141
1206.772, 1075.616
1207.254, 1055.510
1207.737, 1065.993
1208.219, 1095.771
1208.701, 1140.830
1209.183, 1182.387
1209.665, 1211.369
1210.147, 1225.031
1210.629, 1216.091
1211.111, 1199.387
1211.594, 1192.121
1212.076, 1189.997
1212.558, 1186.243
1213.040, 1184.443
1213.522, 1195.417
1214.004, 1214.562
1214.486, 1221.767
1214.968, 1210.037
1215.450, 1200.136
1215.932, 1203.746
1216.415, 1199.152
1216.897, 1172.766
1217.379, 1150.415
1217.861, 1141.488
1218.343, 1144.302
1218.825, 1160.212
1219.307, 1182.823
1219.789, 1192.776
1220.272, 1190.211
1220.754, 1185.335
1221.236, 1178.601
1221.718, 1176.594
1222.200, 1178.984
1222.682, 1172.722
1223.164, 1153.752
1223.646, 1143.495
1224.129, 1165.120
1224.611, 1186.724
1225.093, 1166.283
1225.575, 1140.392
1226.057, 1148.660
1226.539, 1170.941
1227.021, 1182.841
1227.503, 1183.499
1227.985, 1176.692
1228.468, 1161.807
1228.950, 1155.546
1229.432, 1167.508
1229.914, 1172.713
1230.396, 1167.570
1230.878, 1160.470
1231.360, 1153.698
1231.842, 1147.088
1232.324, 1140.481
1232.807, 1134.067
1233.289, 1129.447
1233.771, 1124.708
1234.253, 1109.321
1234.735, 1088.041
1235.217, 1077.543
1235.699, 1076.381
1236.181, 1073.147
1236.664, 1065.749
1237.146, 1062.719
1237.628, 1070.448
1238.110, 1073.685
1238.592, 1052.542
1239.074, 1038.605
1239.556, 1060.636
1240.038, 1084.677
1240.521, 1073.822
1241.003, 1054.295
1241.485, 1071.346
1241.967, 1117.536
1242.449, 1146.054
1242.931, 1154.794
1243.413, 1155.519
1243.895, 1147.242
1244.377, 1144.909
1244.859, 1151.400
1245.342, 1153.192
1245.824, 1143.723
1246.306, 1129.404
1246.788, 1113.582
1247.270, 1103.123
1247.752, 1115.502
1248.234, 1131.925
1248.716, 1119.407
1249.199, 1099.856
1249.681, 1115.533
1250.163, 1154.386
1250.645, 1167.049
1251.127, 1141.896
1251.609, 1131.065
1252.091, 1158.059
1252.573, 1174.843
1253.056, 1177.632
1253.538, 1170.487
1254.020, 1150.676
1254.502, 1132.284
1254.984, 1125.404
1255.466, 1127.907
1255.948, 1138.841
1256.430, 1154.145
1256.912, 1159.349
1257.395, 1157.861
1257.877, 1163.311
1258.359, 1170.979
1258.841, 1158.598
1259.323, 1128.426
1259.805, 1114.163
1260.287, 1131.429
1260.769, 1149.894
1261.251, 1162.790
1261.734, 1162.906
1262.216, 1130.180
1262.698, 1104.246
1263.180, 1111.102
1263.662, 1132.949
1264.144, 1156.927
1264.626, 1179.174
1265.108, 1189.355
1265.591, 1187.550
1266.073, 1167.002
1266.555, 1130.808
1267.037, 1123.022
1267.519, 1143.804
1268.001, 1157.726
1268.483, 1154.189
1268.965, 1145.664
1269.448, 1137.860
1269.930, 1137.964
1270.412, 1168.664
1270.894, 1188.778
1271.376, 1154.607
1271.858, 1110.457
##END=



