##NAMES=Norbergite
##RRUFFID=R050280
##IDEAL CHEMISTRY=Mg_3_SiO_4_F_2_
##LOCALITY=Sterling mine, Ogdensburg, New Jersey, USA
##OWNER=RRUFF
##SOURCE=Marcus Origlieri
##DESCRIPTION=Brownish-orange granular
##STATUS=The identification of this mineral has been confirmed by X-ray diffraction and chemical analysis
##URL=rruff.info/R050280
##MEASURED CHEMISTRY=(Mg_0.993_Fe_0.006_Ca_0.001_)_3_(SiO_4_)(F_0.704_OH_0.296_)_2_
92.67285, 70.84225
93.15497, 70.10338
93.63708, 70.69633
94.11920, 74.30086
94.60132, 77.40201
95.08344, 79.40999
95.56555, 80.05099
96.04767, 80.27372
96.52979, 80.86636
97.01190, 81.47749
97.49402, 81.55246
97.97614, 80.98269
98.45825, 80.55322
98.94037, 80.57355
99.42249, 80.69051
99.90460, 80.35927
100.3867, 79.50628
100.8688, 78.57179
101.3510, 78.17842
101.8331, 78.45692
102.3152, 78.79482
102.7973, 78.68194
103.2794, 78.08616
103.7615, 77.59526
104.2437, 77.47679
104.7258, 77.56913
105.2079, 77.80938
105.6900, 78.22275
106.1721, 78.69405
106.6542, 78.95305
107.1364, 78.86504
107.6185, 78.71935
108.1006, 78.56555
108.5827, 78.41608
109.0648, 78.26916
109.5469, 78.10521
110.0291, 77.92619
110.5112, 77.96609
110.9933, 78.41997
111.4754, 78.89217
111.9575, 79.30355
112.4396, 79.63380
112.9218, 79.87512
113.4039, 80.00186
113.8860, 79.96847
114.3681, 80.07088
114.8502, 80.57491
115.3323, 81.03507
115.8144, 80.97620
116.2966, 80.30492
116.7787, 79.55748
117.2608, 79.53889
117.7429, 80.26731
118.2250, 80.91496
118.7071, 81.32929
119.1893, 81.52640
119.6714, 81.47335
120.1535, 80.96366
120.6356, 80.49802
121.1177, 80.61568
121.5998, 81.31349
122.0820, 82.19053
122.5641, 83.12496
123.0462, 84.14485
123.5283, 84.67477
124.0104, 84.09731
124.4925, 83.23343
124.9747, 82.44170
125.4568, 81.81102
125.9389, 81.39268
126.4210, 81.35226
126.9031, 82.06360
127.3852, 82.37351
127.8674, 81.83895
128.3495, 81.06365
128.8316, 80.59579
129.3137, 80.68794
129.7958, 81.17622
130.2780, 81.47140
130.7601, 81.44209
131.2422, 81.34429
131.7243, 81.06400
132.2064, 80.74635
132.6885, 80.63161
133.1707, 80.89130
133.6528, 81.48207
134.1349, 81.92586
134.6170, 82.14205
135.0991, 82.32462
135.5812, 82.62282
136.0633, 83.00123
136.5455, 83.22980
137.0276, 83.02237
137.5097, 82.49278
137.9918, 82.29942
138.4739, 82.72581
138.9560, 83.38029
139.4382, 83.94660
139.9203, 84.46273
140.4024, 84.65364
140.8845, 83.90730
141.3666, 82.68340
141.8487, 81.83262
142.3309, 81.94995
142.8130, 82.75533
143.2951, 83.30055
143.7772, 83.41195
144.2593, 83.48033
144.7414, 83.75955
145.2236, 84.16659
145.7057, 84.49471
146.1878, 84.54778
146.6699, 84.30442
147.1520, 84.14600
147.6341, 84.00442
148.1163, 84.01590
148.5984, 84.36560
149.0805, 84.97098
149.5626, 85.55034
150.0447, 85.77115
150.5268, 85.47249
151.0090, 85.28996
151.4911, 85.21352
151.9732, 85.22987
152.4553, 85.31936
152.9374, 85.48228
153.4195, 85.75369
153.9017, 86.19817
154.3838, 86.98142
154.8659, 87.60970
155.3480, 88.14373
155.8301, 88.50129
156.3122, 88.54555
156.7944, 88.21711
157.2765, 87.69218
157.7586, 87.28522
158.2407, 87.02634
158.7228, 86.73242
159.2049, 86.27186
159.6871, 85.73937
160.1692, 85.38156
160.6513, 85.36228
161.1334, 85.43552
161.6155, 85.16263
162.0976, 84.45154
162.5798, 83.88572
163.0619, 83.91652
163.5440, 84.50525
164.0261, 85.14410
164.5082, 85.81675
164.9903, 86.36026
165.4725, 86.62583
165.9546, 86.57840
166.4367, 86.35772
166.9188, 86.07710
167.4009, 85.69779
167.8830, 85.41755
168.3652, 85.30750
168.8473, 85.29446
169.3294, 85.36720
169.8115, 85.52377
170.2936, 85.69199
170.7757, 85.69960
171.2579, 85.32961
171.7400, 85.21175
172.2221, 85.64094
172.7042, 86.21723
173.1863, 86.53487
173.6684, 86.41444
174.1506, 86.02646
174.6327, 85.89354
175.1148, 86.34235
175.5969, 86.69750
176.0790, 86.92005
176.5611, 87.01940
177.0433, 86.97504
177.5254, 86.76254
178.0075, 86.44889
178.4896, 86.37448
178.9717, 86.68353
179.4538, 87.03568
179.9360, 87.39639
180.4181, 87.74509
180.9002, 88.05094
181.3823, 88.30214
181.8644, 88.48656
182.3465, 88.56306
182.8287, 88.43790
183.3108, 88.31441
183.7929, 88.20097
184.2750, 88.13226
184.7571, 88.31767
185.2392, 89.02544
185.7214, 90.03532
186.2035, 90.68534
186.6856, 90.90038
187.1677, 90.80775
187.6498, 90.36281
188.1319, 89.54238
188.6141, 88.87560
189.0962, 88.77520
189.5783, 88.98208
190.0604, 89.15955
190.5425, 89.25140
191.0246, 89.26971
191.5068, 89.17606
191.9889, 88.89164
192.4710, 88.76768
192.9531, 89.21548
193.4352, 89.81657
193.9173, 90.09701
194.3995, 89.80888
194.8816, 89.18632
195.3637, 88.74711
195.8458, 88.51774
196.3279, 88.45447
196.8100, 88.54161
197.2922, 88.74957
197.7743, 89.10658
198.2564, 89.67563
198.7385, 90.31032
199.2206, 90.41148
199.7027, 89.30458
200.1849, 88.52352
200.6670, 88.47751
201.1491, 88.88413
201.6312, 89.42509
202.1133, 89.93538
202.5954, 90.37798
203.0776, 90.52085
203.5597, 89.89791
204.0418, 89.45164
204.5239, 89.39565
205.0060, 89.60667
205.4881, 89.88001
205.9703, 90.08940
206.4524, 90.25159
206.9345, 90.50605
207.4166, 91.15939
207.8987, 91.56977
208.3808, 91.40850
208.8630, 90.86672
209.3451, 90.33414
209.8272, 90.03342
210.3093, 89.95930
210.7914, 90.05795
211.2735, 90.59106
211.7557, 90.99524
212.2378, 90.86653
212.7199, 90.37879
213.2020, 90.11166
213.6841, 90.46825
214.1662, 91.31011
214.6484, 91.91914
215.1305, 92.26508
215.6126, 92.43797
216.0947, 92.39368
216.5768, 92.16984
217.0589, 92.02187
217.5410, 92.15449
218.0232, 92.43423
218.5053, 92.48936
218.9874, 92.12160
219.4695, 91.76611
219.9516, 91.85961
220.4337, 92.39160
220.9159, 92.81001
221.3980, 92.76018
221.8801, 92.47421
222.3622, 92.27274
222.8443, 92.17948
223.3264, 92.20933
223.8086, 92.42716
224.2907, 92.85503
224.7728, 93.25285
225.2549, 93.50732
225.7370, 93.68543
226.2191, 93.84441
226.7013, 94.00056
227.1834, 94.12125
227.6655, 94.16642
228.1476, 94.13281
228.6297, 94.03310
229.1118, 93.76597
229.5940, 93.49209
230.0761, 93.33456
230.5582, 93.33134
231.0403, 93.41771
231.5224, 93.48164
232.0045, 93.47256
232.4867, 93.59914
232.9688, 94.05778
233.4509, 94.56152
233.9330, 94.92921
234.4151, 95.10613
234.8972, 95.11498
235.3794, 94.92481
235.8615, 94.29453
236.3436, 94.04279
236.8257, 94.61533
237.3078, 95.29039
237.7899, 95.47957
238.2721, 95.06199
238.7542, 94.43241
239.2363, 94.24840
239.7184, 94.75698
240.2005, 95.25119
240.6826, 95.78942
241.1648, 96.26043
241.6469, 96.58850
242.1290, 96.75328
242.6111, 96.76852
243.0932, 96.62212
243.5753, 96.08028
244.0575, 95.87730
244.5396, 96.21264
245.0217, 96.70394
245.5038, 97.09859
245.9859, 97.34190
246.4680, 97.51968
246.9502, 97.76907
247.4323, 98.23387
247.9144, 98.35682
248.3965, 98.01574
248.8786, 97.45273
249.3607, 96.71137
249.8429, 95.85208
250.3250, 95.12336
250.8071, 94.86234
251.2892, 95.29355
251.7713, 95.37991
252.2534, 94.81586
252.7356, 94.13779
253.2177, 93.75235
253.6998, 93.69820
254.1819, 93.72594
254.6640, 93.57092
255.1461, 93.18697
255.6283, 92.98313
256.1104, 93.19060
256.5925, 93.40997
257.0746, 93.24622
257.5567, 92.70632
258.0388, 92.25664
258.5210, 92.35827
259.0031, 93.02530
259.4852, 93.37536
259.9673, 93.16599
260.4494, 92.82335
260.9315, 92.61660
261.4137, 92.56203
261.8958, 92.64671
262.3779, 92.94882
262.8600, 93.39339
263.3421, 93.56606
263.8242, 93.15068
264.3064, 92.70121
264.7885, 92.66088
265.2706, 92.99915
265.7527, 93.37279
266.2348, 93.61687
266.7169, 93.72659
267.1991, 93.73717
267.6812, 93.56844
268.1633, 93.39733
268.6454, 93.34365
269.1275, 93.40257
269.6096, 93.53420
270.0918, 93.78393
270.5739, 94.05302
271.0560, 94.19218
271.5381, 94.20717
272.0202, 94.07262
272.5023, 93.62656
272.9845, 92.93140
273.4666, 92.49906
273.9487, 92.61922
274.4308, 92.99941
274.9129, 93.24394
275.3951, 93.33449
275.8772, 93.36809
276.3593, 93.32701
276.8414, 93.24689
277.3235, 93.38724
277.8056, 93.96301
278.2878, 94.60522
278.7699, 94.96305
279.2520, 95.04529
279.7341, 95.00451
280.2162, 94.88058
280.6983, 94.69632
281.1805, 94.55450
281.6626, 94.41696
282.1447, 94.41272
282.6268, 94.68147
283.1089, 95.16621
283.5910, 95.63086
284.0732, 95.79300
284.5553, 95.80154
285.0374, 96.31466
285.5195, 97.76099
286.0016, 99.00979
286.4837, 99.19794
286.9659, 98.71751
287.4480, 98.38860
287.9301, 98.74663
288.4122, 99.51248
288.8943, 99.89754
289.3764, 99.75029
289.8586, 99.54484
290.3407, 99.50854
290.8228, 99.55578
291.3049, 99.58428
291.7870, 99.57741
292.2691, 99.49796
292.7513, 99.26796
293.2334, 98.86804
293.7155, 98.36758
294.1976, 97.54526
294.6797, 96.75278
295.1618, 96.40075
295.6440, 96.68094
296.1261, 97.14272
296.6082, 97.07512
297.0903, 96.32209
297.5724, 95.69467
298.0545, 95.54963
298.5367, 95.50950
299.0188, 95.27739
299.5009, 94.80177
299.9830, 94.35271
300.4651, 94.30824
300.9472, 94.74770
301.4294, 94.97121
301.9115, 94.63612
302.3936, 94.24154
302.8757, 94.01891
303.3578, 93.98655
303.8399, 94.07536
304.3221, 94.32689
304.8042, 94.74753
305.2863, 94.84301
305.7684, 94.06346
306.2505, 93.53761
306.7326, 94.01304
307.2148, 95.18313
307.6969, 96.21987
308.1790, 96.53054
308.6611, 96.21616
309.1432, 95.88854
309.6253, 95.43643
310.1075, 95.15026
310.5896, 95.10524
311.0717, 95.27534
311.5538, 95.67099
312.0359, 96.37807
312.5180, 97.20030
313.0002, 97.54004
313.4823, 97.02418
313.9644, 96.80005
314.4465, 97.49287
314.9286, 98.45347
315.4107, 99.00827
315.8929, 98.91017
316.3750, 98.52201
316.8571, 98.41725
317.3392, 98.66016
317.8213, 98.97743
318.3034, 99.40810
318.7856, 99.83320
319.2677, 100.1242
319.7498, 100.2776
320.2319, 100.4717
320.7140, 100.9658
321.1961, 101.8179
321.6783, 102.4970
322.1604, 102.7951
322.6425, 103.0418
323.1246, 103.3811
323.6067, 103.8086
324.0888, 104.2542
324.5710, 104.6052
325.0531, 104.8803
325.5352, 105.4337
326.0173, 106.5138
326.4994, 107.5686
326.9815, 108.3796
327.4637, 109.0095
327.9458, 109.5674
328.4279, 110.0952
328.9100, 110.6091
329.3921, 111.2105
329.8742, 112.0879
330.3564, 112.6461
330.8385, 112.6786
331.3206, 112.3456
331.8027, 111.7614
332.2848, 110.9437
332.7669, 110.0086
333.2491, 109.1417
333.7312, 108.3667
334.2133, 107.5511
334.6954, 106.5853
335.1775, 105.6210
335.6596, 104.7011
336.1418, 103.8409
336.6239, 103.1796
337.1060, 103.0205
337.5881, 103.3924
338.0702, 103.3115
338.5523, 102.2616
339.0345, 101.1391
339.5165, 100.3958
339.9987, 100.0132
340.4808, 99.84905
340.9629, 99.97402
341.4450, 100.2793
341.9271, 100.1353
342.4092, 99.18491
342.8914, 98.41609
343.3735, 98.50767
343.8556, 99.03587
344.3377, 99.33371
344.8198, 99.06850
345.3019, 98.49693
345.7841, 98.02019
346.2662, 97.60931
346.7483, 97.40774
347.2304, 97.64399
347.7125, 98.04546
348.1946, 98.41235
348.6768, 98.71185
349.1589, 98.92796
349.6410, 98.96983
350.1231, 98.84034
350.6052, 98.89825
351.0873, 99.40121
351.5695, 99.94111
352.0516, 100.2014
352.5337, 100.1821
353.0158, 100.0061
353.4979, 99.62282
353.9800, 99.12779
354.4622, 98.84219
354.9443, 98.79490
355.4264, 98.96253
355.9085, 99.50960
356.3906, 100.2556
356.8727, 100.7794
357.3549, 100.8523
357.8370, 100.6697
358.3191, 100.4204
358.8012, 100.0725
359.2833, 99.94455
359.7654, 100.3998
360.2476, 101.0994
360.7297, 101.5085
361.2118, 101.5138
361.6939, 101.3455
362.1760, 101.0976
362.6581, 100.7965
363.1403, 100.5838
363.6224, 100.4843
364.1045, 100.5261
364.5866, 100.7845
365.0687, 101.2697
365.5508, 101.7044
366.0330, 101.9743
366.5151, 102.1191
366.9972, 102.1553
367.4793, 102.0513
367.9614, 102.0275
368.4435, 102.3632
368.9257, 102.9926
369.4078, 103.5184
369.8899, 103.7621
370.3720, 103.9704
370.8541, 104.3580
371.3362, 104.9178
371.8184, 105.5199
372.3005, 106.1260
372.7826, 106.7043
373.2647, 107.1428
373.7468, 107.2775
374.2289, 107.5435
374.7111, 108.1181
375.1932, 108.9432
375.6753, 109.9514
376.1574, 111.1360
376.6395, 112.3972
377.1216, 113.6395
377.6038, 114.9839
378.0859, 115.8265
378.5680, 115.9933
379.0501, 115.7015
379.5322, 115.0239
380.0143, 114.0168
380.4965, 112.9392
380.9786, 112.0403
381.4607, 111.3230
381.9428, 110.3398
382.4249, 108.7881
382.9070, 107.3204
383.3892, 106.1935
383.8713, 105.3572
384.3534, 104.7353
384.8355, 104.3094
385.3176, 103.9875
385.7997, 103.4980
386.2819, 102.5756
386.7640, 101.8196
387.2461, 101.1586
387.7282, 100.7265
388.2103, 100.7721
388.6924, 101.2961
389.1746, 101.9188
389.6567, 102.1784
390.1388, 102.0156
390.6209, 101.6952
391.1030, 100.9504
391.5851, 100.3270
392.0673, 100.0902
392.5494, 100.1790
393.0315, 100.4050
393.5136, 100.6517
393.9957, 100.9122
394.4778, 101.1499
394.9600, 101.4761
395.4421, 101.6145
395.9242, 101.3144
396.4063, 100.9196
396.8884, 100.8288
397.3705, 101.1590
397.8527, 101.6300
398.3348, 101.7759
398.8169, 101.4580
399.2990, 101.3113
399.7811, 101.6052
400.2632, 101.8857
400.7454, 101.8634
401.2275, 101.6073
401.7096, 101.4201
402.1917, 101.5822
402.6738, 102.0167
403.1559, 102.2310
403.6381, 102.0021
404.1202, 101.9502
404.6023, 102.5162
405.0844, 103.2998
405.5665, 103.7975
406.0486, 103.8055
406.5308, 103.5868
407.0129, 103.3916
407.4950, 103.2011
407.9771, 103.3306
408.4592, 104.2015
408.9413, 105.1158
409.4235, 105.3876
409.9056, 105.0404
410.3877, 104.7396
410.8698, 104.8467
411.3519, 105.2851
411.8340, 105.9286
412.3162, 106.8520
412.7983, 107.6919
413.2804, 108.1451
413.7625, 108.3207
414.2446, 108.4249
414.7267, 108.3355
415.2089, 108.3534
415.6910, 108.7681
416.1731, 109.5278
416.6552, 110.3872
417.1373, 111.3073
417.6194, 112.1956
418.1016, 112.8387
418.5837, 113.1813
419.0658, 113.5977
419.5479, 114.1197
420.0300, 114.8026
420.5121, 115.7877
420.9943, 117.0838
421.4764, 118.4186
421.9585, 119.5818
422.4406, 120.5557
422.9227, 121.2955
423.4048, 121.4553
423.8870, 121.7542
424.3691, 122.6293
424.8512, 123.8677
425.3333, 125.0362
425.8154, 125.9372
426.2975, 126.6227
426.7797, 127.2208
427.2618, 127.7180
427.7439, 128.1265
428.2260, 128.3990
428.7081, 128.6194
429.1902, 128.9680
429.6724, 129.3859
430.1545, 129.5318
430.6366, 129.0196
431.1187, 127.8306
431.6008, 126.9478
432.0829, 126.6991
432.5651, 126.4214
433.0472, 125.8759
433.5293, 125.2480
434.0114, 124.8249
434.4935, 124.7371
434.9756, 124.7957
435.4578, 124.6361
435.9399, 124.1763
436.4220, 123.7666
436.9041, 123.5511
437.3862, 123.3159
437.8683, 122.9403
438.3505, 122.4280
438.8326, 121.8581
439.3147, 121.3386
439.7968, 120.8161
440.2789, 119.9945
440.7610, 118.7020
441.2432, 117.5118
441.7253, 116.7208
442.2074, 116.1954
442.6895, 115.8693
443.1716, 115.8489
443.6537, 115.6804
444.1359, 114.7184
444.6180, 113.1276
445.1001, 112.0139
445.5822, 111.8432
446.0643, 111.9110
446.5464, 111.3767
447.0286, 110.3118
447.5107, 109.2699
447.9928, 108.2555
448.4749, 107.4259
448.9570, 107.0067
449.4391, 106.9794
449.9213, 107.0971
450.4034, 107.2889
450.8855, 107.4711
451.3676, 107.3106
451.8497, 106.5986
452.3318, 105.9272
452.8140, 105.4158
453.2961, 105.0388
453.7782, 104.7852
454.2603, 104.6473
454.7424, 104.5840
455.2245, 104.5443
455.7067, 104.5163
456.1888, 104.5901
456.6709, 104.9997
457.1530, 105.2523
457.6351, 105.0364
458.1172, 104.5322
458.5994, 104.0371
459.0815, 103.6957
459.5636, 103.5606
460.0457, 103.8430
460.5278, 105.0364
461.0099, 105.6183
461.4921, 105.0167
461.9742, 104.2257
462.4563, 103.8848
462.9384, 104.0117
463.4205, 104.2410
463.9026, 104.2489
464.3848, 104.0888
464.8669, 104.1637
465.3490, 104.6840
465.8311, 105.0338
466.3132, 104.7175
466.7953, 104.2165
467.2775, 104.1434
467.7596, 104.7174
468.2417, 105.3981
468.7238, 105.6274
469.2059, 105.4674
469.6880, 105.3900
470.1702, 105.5547
470.6523, 105.6882
471.1344, 105.3937
471.6165, 104.7982
472.0986, 104.4648
472.5807, 104.6609
473.0629, 105.0857
473.5450, 105.5759
474.0271, 106.0857
474.5092, 106.3686
474.9913, 106.2495
475.4734, 105.9198
475.9556, 105.8444
476.4377, 106.1536
476.9198, 106.3519
477.4019, 106.2764
477.8840, 106.1130
478.3661, 106.0276
478.8483, 106.0386
479.3304, 106.0846
479.8125, 106.1136
480.2946, 106.1287
480.7767, 106.1897
481.2589, 106.3551
481.7410, 106.4952
482.2231, 106.4116
482.7052, 106.3750
483.1873, 106.8413
483.6694, 107.8813
484.1516, 108.9083
484.6337, 109.0278
485.1158, 108.0116
485.5979, 107.4566
486.0800, 107.8762
486.5621, 108.2181
487.0443, 107.9461
487.5264, 107.3323
488.0085, 106.9147
488.4906, 106.9871
488.9727, 107.2440
489.4548, 107.2281
489.9370, 106.9305
490.4191, 106.5110
490.9012, 105.9506
491.3833, 105.3416
491.8654, 104.6999
492.3475, 104.0461
492.8297, 103.6067
493.3118, 103.6820
493.7939, 103.9205
494.2760, 103.7957
494.7581, 103.3054
495.2402, 102.9087
495.7224, 102.8913
496.2045, 103.1235
496.6866, 103.2000
497.1687, 103.0046
497.6508, 102.9129
498.1329, 103.1084
498.6151, 103.3983
499.0972, 103.6029
499.5793, 103.6819
500.0614, 103.6252
500.5435, 103.3988
501.0256, 103.0052
501.5078, 102.7644
501.9899, 102.9162
502.4720, 102.9362
502.9541, 102.5747
503.4362, 102.0973
503.9183, 101.8170
504.4004, 101.8233
504.8825, 101.9789
505.3647, 102.1324
505.8468, 102.2923
506.3289, 102.3877
506.8110, 102.3881
507.2931, 102.3557
507.7752, 102.2830
508.2574, 102.2049
508.7395, 102.2091
509.2216, 102.3835
509.7037, 102.5171
510.1858, 102.2228
510.6679, 101.5368
511.1501, 101.1532
511.6322, 101.3476
512.1143, 101.7481
512.5964, 101.9318
513.0786, 101.9359
513.5607, 102.0585
514.0428, 102.6137
514.5249, 103.1359
515.0070, 103.1804
515.4891, 102.8028
515.9713, 102.2379
516.4534, 101.5276
516.9355, 100.8706
517.4176, 100.7381
517.8997, 101.5529
518.3818, 102.0381
518.8640, 101.8909
519.3461, 101.6235
519.8282, 101.5604
520.3103, 101.7187
520.7924, 102.0268
521.2745, 102.4661
521.7567, 102.9494
522.2388, 103.0771
522.7209, 102.6270
523.2030, 102.2221
523.6851, 101.9540
524.1672, 101.7498
524.6494, 101.5004
525.1315, 101.2311
525.6136, 101.1391
526.0957, 101.5462
526.5778, 102.2492
527.0599, 102.4280
527.5421, 101.9146
528.0242, 101.4638
528.5063, 101.5183
528.9884, 101.7842
529.4705, 101.8167
529.9526, 101.4961
530.4348, 101.3537
530.9169, 101.8457
531.3990, 102.6376
531.8811, 103.1507
532.3632, 103.3103
532.8453, 103.4125
533.3275, 103.7068
533.8096, 104.1446
534.2917, 104.3300
534.7738, 103.8727
535.2559, 103.6963
535.7380, 104.2036
536.2202, 104.9937
536.7023, 105.6661
537.1844, 106.1173
537.6665, 106.4317
538.1486, 106.7048
538.6307, 106.9386
539.1129, 106.9117
539.5950, 106.2423
540.0771, 105.8154
540.5592, 105.9260
541.0413, 106.3347
541.5234, 106.8127
542.0056, 107.2938
542.4877, 107.7518
542.9698, 108.1680
543.4519, 108.5390
543.9340, 108.8128
544.4161, 108.9201
544.8983, 109.0882
545.3804, 109.5062
545.8625, 110.0851
546.3446, 110.6702
546.8267, 111.2404
547.3088, 111.8088
547.7910, 112.3531
548.2731, 112.9078
548.7552, 113.5681
549.2373, 114.3523
549.7194, 115.1706
550.2015, 115.9549
550.6837, 116.7048
551.1658, 117.3024
551.6479, 117.8261
552.1300, 118.1308
552.6121, 118.2325
553.0942, 118.0704
553.5764, 117.4929
554.0585, 116.4943
554.5406, 115.3429
555.0227, 114.3103
555.5048, 113.3815
555.9869, 112.7716
556.4691, 112.7977
556.9512, 112.7000
557.4333, 112.0229
557.9154, 111.1545
558.3975, 110.6287
558.8796, 110.6209
559.3618, 110.7228
559.8439, 110.4486
560.3260, 109.9614
560.8081, 109.9522
561.2902, 110.6130
561.7723, 111.3263
562.2545, 111.6101
562.7366, 111.5510
563.2187, 111.6223
563.7008, 111.8604
564.1829, 112.1893
564.6650, 112.7569
565.1472, 113.3241
565.6293, 113.4744
566.1114, 113.1581
566.5935, 112.7901
567.0756, 112.7775
567.5577, 113.1189
568.0399, 113.5222
568.5220, 114.1771
569.0041, 114.6573
569.4862, 114.7637
569.9683, 114.7376
570.4504, 114.8440
570.9326, 115.1259
571.4147, 115.3955
571.8968, 115.5151
572.3789, 115.4778
572.8610, 115.1918
573.3431, 114.5583
573.8253, 113.9745
574.3074, 113.7861
574.7895, 113.6940
575.2716, 113.1867
575.7537, 112.0762
576.2358, 111.2052
576.7180, 111.2268
577.2001, 111.6211
577.6822, 111.6624
578.1643, 111.2849
578.6464, 110.7561
579.1285, 110.2224
579.6107, 109.7160
580.0928, 109.3781
580.5749, 109.4831
581.0570, 109.3903
581.5391, 108.8577
582.0212, 108.2812
582.5034, 108.0245
582.9855, 108.0447
583.4676, 108.0227
583.9497, 107.7118
584.4318, 107.2085
584.9139, 106.8239
585.3961, 106.5586
585.8782, 106.4050
586.3602, 106.4156
586.8423, 106.4969
587.3245, 106.6719
587.8066, 106.8989
588.2887, 106.8791
588.7708, 106.1149
589.2529, 105.2803
589.7350, 105.3003
590.2172, 106.0413
590.6993, 106.7025
591.1814, 106.9992
591.6635, 106.9622
592.1456, 106.5618
592.6277, 105.5512
593.1099, 105.0519
593.5920, 105.4534
594.0741, 105.9639
594.5562, 106.1256
595.0383, 106.1180
595.5204, 106.4214
596.0026, 107.2342
596.4847, 108.0611
596.9668, 107.9484
597.4489, 106.6667
597.9310, 106.1212
598.4131, 106.8716
598.8953, 107.7218
599.3774, 107.9778
599.8595, 107.9540
600.3416, 108.1662
600.8237, 108.7383
601.3058, 109.5879
601.7880, 110.9788
602.2701, 112.5652
602.7522, 113.3305
603.2343, 113.0648
603.7164, 112.8347
604.1985, 113.5934
604.6807, 115.1613
605.1628, 116.0357
605.6449, 115.3817
606.1270, 115.2367
606.6091, 116.3701
607.0912, 117.8749
607.5734, 118.9465
608.0555, 119.4866
608.5376, 119.8055
609.0197, 120.1459
609.5018, 120.4637
609.9839, 120.5676
610.4661, 120.4190
610.9482, 120.1687
611.4303, 119.7893
611.9124, 119.3715
612.3945, 119.1072
612.8766, 118.9375
613.3588, 118.3911
613.8409, 116.9633
614.3230, 115.2697
614.8051, 113.9873
615.2872, 113.0474
615.7693, 112.1362
616.2515, 111.1324
616.7336, 110.1571
617.2157, 109.4048
617.6978, 108.9319
618.1799, 108.3972
618.6620, 107.6705
619.1442, 107.0308
619.6263, 106.5047
620.1084, 106.1636
620.5905, 106.1537
621.0726, 106.5032
621.5547, 106.9837
622.0369, 107.3844
622.5190, 107.6999
623.0011, 107.8075
623.4832, 107.7089
623.9653, 107.3881
624.4474, 106.5455
624.9296, 105.6088
625.4117, 105.2284
625.8938, 105.5907
626.3759, 105.8554
626.8580, 105.4631
627.3401, 104.8791
627.8223, 104.6932
628.3044, 104.8985
628.7865, 105.1416
629.2686, 105.2206
629.7507, 105.2095
630.2328, 105.3166
630.7150, 105.7977
631.1971, 105.8787
631.6792, 105.0973
632.1613, 104.4225
632.6434, 104.4863
633.1255, 105.0022
633.6077, 105.3216
634.0898, 105.1417
634.5719, 104.7772
635.0540, 104.6378
635.5361, 104.6963
636.0182, 104.6920
636.5004, 104.5511
636.9825, 104.4683
637.4646, 104.6791
637.9467, 105.0644
638.4288, 105.1363
638.9109, 104.5712
639.3931, 104.1962
639.8752, 104.4667
640.3573, 104.9360
640.8394, 105.1227
641.3215, 104.9958
641.8036, 104.7829
642.2858, 104.6430
642.7679, 104.5547
643.2500, 104.4420
643.7321, 104.2886
644.2142, 104.1521
644.6964, 103.9829
645.1785, 103.8862
645.6606, 103.9971
646.1427, 104.2370
646.6248, 104.3641
647.1069, 104.2400
647.5891, 104.0352
648.0712, 103.8312
648.5533, 103.6779
649.0354, 103.8156
649.5175, 104.3240
649.9996, 104.7572
650.4818, 104.6478
650.9639, 104.0423
651.4460, 103.7894
651.9281, 104.2986
652.4102, 104.6038
652.8923, 104.2800
653.3745, 103.8943
653.8566, 104.0249
654.3387, 104.6349
654.8208, 105.2407
655.3029, 105.5352
655.7850, 105.5506
656.2672, 105.2388
656.7493, 104.5468
657.2314, 104.2207
657.7135, 104.6769
658.1956, 105.2319
658.6777, 105.0539
659.1599, 104.2968
659.6420, 103.8078
660.1241, 103.7388
660.6062, 103.9263
661.0883, 104.4947
661.5704, 105.1897
662.0526, 105.6280
662.5347, 105.7398
663.0168, 105.7123
663.4989, 105.7177
663.9810, 105.7420
664.4631, 105.6546
664.9453, 105.3179
665.4274, 105.1616
665.9095, 105.6385
666.3916, 106.0482
666.8737, 105.6611
667.3558, 104.6485
667.8380, 104.0696
668.3201, 104.7743
668.8022, 105.7584
669.2843, 106.0264
669.7664, 105.7360
670.2485, 105.2760
670.7307, 104.7405
671.2128, 104.3908
671.6949, 104.5477
672.1770, 105.2074
672.6591, 105.6785
673.1412, 105.8831
673.6234, 105.9870
674.1055, 106.0082
674.5876, 105.9365
675.0697, 105.6677
675.5518, 105.2649
676.0339, 105.0252
676.5161, 105.2735
676.9982, 105.6717
677.4803, 105.4670
677.9624, 104.7054
678.4445, 104.3271
678.9266, 104.6753
679.4088, 105.2374
679.8909, 105.5024
680.3730, 105.4652
680.8551, 105.4447
681.3372, 105.3227
681.8193, 105.3612
682.3015, 105.7686
682.7836, 106.2966
683.2657, 106.7966
683.7478, 107.1704
684.2299, 107.1562
684.7120, 106.4278
685.1942, 105.3301
685.6763, 104.9404
686.1584, 105.3636
686.6405, 105.7739
687.1226, 106.0002
687.6047, 106.1402
688.0869, 106.2255
688.5690, 106.2865
689.0511, 106.4648
689.5332, 107.0994
690.0153, 107.4897
690.4974, 107.1368
690.9796, 106.4433
691.4617, 105.8694
691.9438, 105.5176
692.4259, 105.3373
692.9080, 105.2823
693.3901, 105.3752
693.8723, 105.7364
694.3544, 106.4800
694.8365, 107.1507
695.3186, 107.8028
695.8007, 108.2281
696.2828, 108.1338
696.7650, 107.7175
697.2471, 107.5769
697.7292, 108.1345
698.2113, 108.5359
698.6934, 107.9414
699.1755, 106.9328
699.6577, 106.5511
700.1398, 106.8775
700.6219, 107.1986
701.1040, 106.9941
701.5861, 106.4330
702.0682, 106.0781
702.5504, 105.9873
703.0325, 105.9762
703.5146, 106.0975
703.9967, 106.2355
704.4788, 106.2080
704.9609, 106.1823
705.4431, 106.6005
705.9252, 107.7913
706.4073, 108.7396
706.8894, 108.3561
707.3715, 107.2957
707.8536, 106.7961
708.3358, 106.9691
708.8179, 107.3890
709.3000, 107.8612
709.7821, 108.2546
710.2642, 108.2002
710.7463, 107.3535
711.2285, 106.8575
711.7106, 107.0498
712.1927, 107.2125
712.6748, 106.8542
713.1569, 106.3539
713.6390, 106.3852
714.1212, 107.1593
714.6033, 107.9441
715.0854, 108.1144
715.5675, 107.9018
716.0496, 107.7250
716.5317, 107.6095
717.0139, 107.5336
717.4960, 107.4848
717.9781, 107.4791
718.4602, 107.5461
718.9423, 107.6985
719.4244, 107.8726
719.9066, 108.2461
720.3887, 108.4304
720.8708, 108.1096
721.3529, 107.6425
721.8350, 107.4521
722.3171, 107.6091
722.7993, 107.8586
723.2814, 108.0572
723.7635, 108.2037
724.2456, 108.2759
724.7277, 108.2830
725.2098, 108.3093
725.6920, 108.3925
726.1741, 108.4634
726.6562, 108.4621
727.1383, 108.3939
727.6204, 108.1243
728.1025, 107.0913
728.5847, 106.5970
729.0668, 107.3167
729.5489, 108.3341
730.0310, 108.8735
730.5131, 108.9121
730.9952, 108.8428
731.4774, 108.8552
731.9595, 108.9269
732.4416, 109.0552
732.9237, 109.2220
733.4058, 109.3271
733.8879, 109.3436
734.3701, 109.3624
734.8522, 109.4381
735.3343, 109.5838
735.8164, 109.8696
736.2985, 110.4447
736.7806, 110.9472
737.2628, 111.5911
737.7449, 111.9612
738.2270, 111.5688
738.7091, 110.7414
739.1912, 110.1989
739.6733, 110.2379
740.1555, 110.4762
740.6376, 110.5544
741.1197, 110.5279
741.6018, 110.5080
742.0839, 110.5081
742.5660, 110.6481
743.0482, 111.0264
743.5303, 111.4998
744.0124, 111.7733
744.4945, 111.7645
744.9766, 111.8156
745.4587, 111.9677
745.9409, 112.1266
746.4230, 112.2775
746.9051, 112.4084
747.3872, 112.4527
747.8693, 112.4178
748.3514, 112.5291
748.8336, 113.1858
749.3157, 113.9423
749.7978, 114.0678
750.2799, 113.6554
750.7620, 113.1175
751.2441, 112.5645
751.7263, 112.1472
752.2084, 112.0150
752.6905, 112.1691
753.1726, 112.6440
753.6547, 114.0717
754.1368, 114.8398
754.6190, 114.2762
755.1011, 113.4260
755.5832, 112.9083
756.0653, 112.7523
756.5474, 112.8422
757.0295, 113.2144
757.5117, 113.6532
757.9938, 113.9179
758.4759, 114.1285
758.9580, 114.6814
759.4401, 115.5410
759.9222, 115.9797
760.4044, 115.4775
760.8865, 114.4322
761.3686, 113.8450
761.8507, 113.8634
762.3328, 113.8869
762.8149, 113.8660
763.2971, 113.9110
763.7792, 114.1218
764.2613, 114.3950
764.7434, 114.6209
765.2255, 114.7900
765.7076, 114.8139
766.1898, 114.4417
766.6719, 114.0775
767.1540, 114.2988
767.6361, 114.8306
768.1182, 114.8752
768.6003, 114.2079
769.0825, 113.3776
769.5646, 112.9421
770.0467, 112.8956
770.5288, 113.3322
771.0109, 114.5507
771.4930, 115.2949
771.9752, 115.0289
772.4573, 114.4361
772.9394, 114.0164
773.4215, 113.7623
773.9036, 113.6519
774.3857, 113.7708
774.8679, 113.9057
775.3500, 113.8941
775.8321, 113.9122
776.3142, 114.3002
776.7963, 114.9086
777.2784, 115.1526
777.7606, 114.6899
778.2427, 113.9835
778.7248, 113.7819
779.2069, 114.0562
779.6890, 114.4087
780.1711, 114.8707
780.6533, 115.1621
781.1354, 115.0378
781.6175, 114.7677
782.0996, 114.8733
782.5817, 115.4748
783.0638, 115.8641
783.5460, 115.6886
784.0281, 115.6675
784.5102, 116.3186
784.9923, 117.1518
785.4744, 117.5745
785.9565, 117.5117
786.4387, 117.2668
786.9208, 116.9458
787.4029, 116.6879
787.8850, 116.8136
788.3671, 117.2312
788.8492, 117.4309
789.3314, 117.2929
789.8135, 117.1451
790.2956, 117.2518
790.7777, 117.5509
791.2598, 117.7740
791.7419, 117.7460
792.2241, 117.9752
792.7062, 118.8547
793.1883, 119.5800
793.6704, 119.7770
794.1525, 119.5838
794.6346, 119.1231
795.1168, 118.3765
795.5989, 117.9261
796.0810, 118.3656
796.5631, 119.0927
797.0452, 119.4614
797.5273, 119.5226
798.0095, 119.5446
798.4916, 119.6098
798.9737, 119.5457
799.4558, 119.0937
799.9379, 118.3545
800.4200, 118.1819
800.9022, 118.7995
801.3843, 119.1553
801.8664, 118.7008
802.3485, 118.3271
802.8306, 119.0476
803.3127, 120.4700
803.7949, 121.3568
804.2770, 121.3669
804.7591, 121.2470
805.2412, 120.9729
805.7233, 120.8493
806.2054, 121.3169
806.6876, 122.1134
807.1697, 122.5741
807.6518, 122.4372
808.1339, 122.2073
808.6160, 122.5338
809.0981, 123.2262
809.5803, 123.5818
810.0624, 123.5896
810.5445, 123.7018
811.0266, 124.0932
811.5087, 124.6083
811.9908, 125.0610
812.4730, 125.4521
812.9551, 125.9400
813.4372, 126.9138
813.9193, 127.4247
814.4014, 126.9435
814.8835, 126.3533
815.3657, 126.1981
815.8478, 126.4554
816.3299, 126.9685
816.8120, 127.8008
817.2941, 128.5335
817.7762, 128.7645
818.2584, 128.7898
818.7405, 128.9223
819.2226, 129.2249
819.7047, 129.9030
820.1868, 131.0445
820.6689, 132.0440
821.1511, 131.8515
821.6332, 130.5775
822.1153, 130.5285
822.5974, 132.0731
823.0795, 133.4518
823.5616, 134.0734
824.0438, 134.4128
824.5259, 134.9816
825.0080, 135.7388
825.4901, 136.2661
825.9722, 136.2362
826.4543, 136.3998
826.9365, 136.7527
827.4186, 137.4978
827.9007, 139.1130
828.3828, 141.2069
828.8649, 142.8043
829.3470, 143.4881
829.8292, 144.1195
830.3113, 145.5105
830.7934, 147.4618
831.2755, 149.6508
831.7576, 152.0215
832.2397, 154.2838
832.7219, 156.3225
833.2040, 158.4243
833.6861, 160.8906
834.1682, 163.7314
834.6503, 167.0900
835.1324, 171.0447
835.6146, 175.3389
836.0967, 179.7713
836.5788, 184.6744
837.0609, 190.6897
837.5430, 197.3351
838.0251, 203.1757
838.5073, 207.2995
838.9894, 212.3642
839.4715, 219.9587
839.9536, 228.2457
840.4357, 235.6455
840.9178, 242.6154
841.4000, 250.2310
841.8821, 258.8727
842.3642, 268.1661
842.8463, 277.6685
843.3284, 287.6005
843.8105, 298.5440
844.2927, 310.5001
844.7748, 323.5332
845.2569, 337.7164
845.7390, 352.6433
846.2211, 367.9620
846.7032, 383.8042
847.1854, 401.3419
847.6675, 420.9420
848.1496, 441.2538
848.6317, 464.4940
849.1138, 485.8923
849.5959, 503.7242
850.0781, 518.4246
850.5602, 531.2772
851.0423, 542.7037
851.5244, 548.9606
852.0065, 549.1080
852.4886, 543.3389
852.9708, 530.8559
853.4529, 512.9939
853.9350, 490.5009
854.4171, 464.3521
854.8992, 437.1477
855.3813, 410.3141
855.8635, 384.3995
856.3456, 359.9289
856.8277, 337.0824
857.3098, 316.0449
857.7919, 296.9796
858.2740, 279.6322
858.7562, 263.9719
859.2383, 249.9280
859.7204, 237.2873
860.2025, 225.9905
860.6846, 216.3819
861.1667, 209.1174
861.6489, 202.5887
862.1310, 196.5596
862.6131, 190.9015
863.0952, 185.3775
863.5773, 180.0974
864.0594, 175.5342
864.5416, 172.0105
865.0237, 168.8448
865.5058, 165.8303
865.9879, 162.9790
866.4700, 160.3276
866.9521, 157.8516
867.4343, 155.4718
867.9164, 153.1689
868.3985, 151.0271
868.8806, 149.0637
869.3627, 147.3665
869.8448, 146.3194
870.3270, 145.8324
870.8091, 145.0650
871.2912, 143.7569
871.7733, 142.4284
872.2554, 141.5717
872.7375, 141.0766
873.2197, 140.3367
873.7018, 139.0686
874.1839, 138.3987
874.6660, 138.8474
875.1481, 139.3044
875.6302, 138.9103
876.1124, 138.2951
876.5945, 138.4844
877.0766, 139.6564
877.5587, 140.5582
878.0408, 140.5083
878.5229, 140.6470
879.0051, 141.7531
879.4872, 143.1772
879.9693, 144.1639
880.4514, 144.6950
880.9335, 145.1660
881.4156, 145.7479
881.8978, 146.4764
882.3799, 147.6881
882.8620, 148.9701
883.3441, 149.4512
883.8262, 149.1212
884.3083, 148.3181
884.7905, 147.1826
885.2726, 145.8688
885.7547, 144.5184
886.2368, 143.1729
886.7189, 142.3048
887.2010, 142.0298
887.6832, 141.6807
888.1653, 141.0113
888.6474, 140.4310
889.1295, 140.2095
889.6116, 140.3459
890.0938, 140.8677
890.5759, 142.1065
891.0580, 143.0474
891.5401, 143.5282
892.0222, 143.8639
892.5043, 144.0249
892.9865, 144.2133
893.4686, 144.7384
893.9507, 145.5946
894.4328, 146.3382
894.9149, 146.8735
895.3970, 147.1030
895.8792, 146.9079
896.3613, 146.3921
896.8434, 145.6174
897.3255, 144.6549
897.8076, 143.7035
898.2897, 142.8596
898.7719, 141.9292
899.2540, 140.6060
899.7361, 138.9765
900.2182, 137.3924
900.7003, 135.8422
901.1824, 134.0139
901.6646, 131.7587
902.1467, 129.5720
902.6288, 127.9223
903.1109, 126.7691
903.5930, 125.9504
904.0751, 125.6282
904.5573, 125.1610
905.0394, 124.4696
905.5215, 123.6726
906.0036, 122.5316
906.4857, 121.4818
906.9678, 121.4001
907.4500, 122.4522
907.9321, 122.8041
908.4142, 121.6435
908.8963, 120.4955
909.3784, 119.7108
909.8605, 119.3080
910.3427, 119.4062
910.8248, 119.8756
911.3069, 120.4365
911.7890, 121.0570
912.2711, 121.3885
912.7532, 120.9828
913.2354, 120.2763
913.7175, 119.8605
914.1996, 119.6021
914.6817, 118.9117
915.1638, 117.7118
915.6459, 116.8478
916.1280, 117.1922
916.6101, 118.1339
917.0922, 118.0295
917.5743, 117.0333
918.0565, 116.7871
918.5386, 117.5564
919.0207, 118.2016
919.5028, 118.0681
919.9849, 117.5802
920.4670, 117.4780
920.9492, 117.8103
921.4313, 117.9095
921.9134, 117.6986
922.3955, 117.4140
922.8776, 116.9734
923.3597, 116.6238
923.8419, 116.5405
924.3240, 116.7082
924.8061, 117.1612
925.2882, 118.2781
925.7703, 118.7864
926.2524, 117.9076
926.7346, 117.0429
927.2167, 116.8782
927.6988, 117.1415
928.1809, 117.6025
928.6630, 118.1443
929.1451, 118.4250
929.6273, 118.1623
930.1094, 117.7849
930.5915, 117.5274
931.0736, 117.3878
931.5557, 117.3712
932.0378, 117.4683
932.5200, 117.6955
933.0021, 118.0510
933.4842, 118.3700
933.9663, 118.4659
934.4484, 118.4078
934.9305, 118.4020
935.4127, 118.4052
935.8948, 118.0700
936.3769, 117.3403
936.8590, 116.8348
937.3411, 117.0044
937.8232, 117.5553
938.3054, 117.8289
938.7875, 117.7764
939.2696, 117.9378
939.7517, 118.3538
940.2338, 118.8288
940.7159, 119.2892
941.1981, 119.8127
941.6802, 120.5727
942.1623, 121.4917
942.6444, 121.9354
943.1265, 121.4748
943.6086, 121.2511
944.0908, 121.2914
944.5729, 121.5566
945.0550, 122.1465
945.5371, 122.8893
946.0192, 123.5124
946.5013, 124.0020
946.9835, 124.7441
947.4656, 125.9325
947.9477, 127.2657
948.4298, 128.8304
948.9119, 130.3100
949.3940, 131.4259
949.8762, 132.2263
950.3583, 132.8645
950.8404, 133.3898
951.3225, 133.8392
951.8046, 134.3797
952.2867, 134.7388
952.7689, 134.7001
953.2510, 134.2205
953.7331, 132.9500
954.2152, 131.0630
954.6973, 129.6019
955.1794, 129.2246
955.6616, 129.2439
956.1437, 128.4972
956.6258, 127.3171
957.1079, 126.9201
957.5900, 127.2946
958.0721, 127.9310
958.5543, 128.6824
959.0364, 129.2560
959.5185, 129.3304
960.0006, 129.1102
960.4827, 129.3679
960.9648, 130.1913
961.4470, 130.6721
961.9291, 130.6694
962.4112, 130.6119
962.8933, 130.7050
963.3754, 130.7991
963.8575, 130.6698
964.3397, 130.3235
964.8218, 130.1353
965.3039, 130.1126
965.7860, 130.2377
966.2681, 130.5620
966.7502, 130.9759
967.2324, 131.3092
967.7145, 131.7440
968.1966, 132.5923
968.6787, 133.8983
969.1608, 135.3226
969.6429, 136.7407
970.1251, 138.3850
970.6072, 140.3405
971.0893, 142.5483
971.5714, 144.9556
972.0535, 147.5828
972.5356, 150.5839
973.0178, 154.0664
973.4999, 157.3291
973.9820, 160.1471
974.4641, 162.5121
974.9462, 165.0616
975.4283, 166.7743
975.9105, 166.0329
976.3926, 162.9825
976.8747, 158.9281
977.3568, 154.4055
977.8389, 149.7846
978.3210, 145.1159
978.8032, 140.7852
979.2853, 137.4143
979.7674, 134.8396
980.2495, 132.5732
980.7316, 130.4731
981.2137, 128.6232
981.6959, 127.1185
982.1780, 125.8197
982.6601, 124.4123
983.1422, 123.0130
983.6243, 122.2282
984.1064, 122.0383
984.5886, 121.6779
985.0707, 120.8619
985.5528, 120.0412
986.0349, 119.7071
986.5170, 119.6925
986.9991, 119.3009
987.4813, 118.4844
987.9634, 118.1154
988.4455, 118.3725
988.9276, 118.5227
989.4097, 118.1584
989.8918, 117.7182
990.3740, 117.8548
990.8561, 118.5149
991.3382, 118.5961
991.8203, 117.8625
992.3024, 117.1490
992.7845, 116.3264
993.2667, 115.9292
993.7488, 116.5024
994.2309, 117.4901
994.7130, 117.9793
995.1951, 117.9218
995.6772, 117.7969
996.1594, 117.6219
996.6415, 117.3522
997.1236, 116.7158
997.6057, 116.2509
998.0878, 116.4481
998.5699, 116.9815
999.0521, 117.2212
999.5342, 117.0599
1000.016, 117.0123
1000.498, 117.3205
1000.981, 117.5724
1001.463, 117.7290
1001.945, 117.6769
1002.427, 117.1494
1002.909, 116.3796
1003.391, 115.8786
1003.873, 115.7862
1004.355, 115.8609
1004.837, 116.0271
1005.320, 116.2910
1005.802, 116.9132
1006.284, 117.4620
1006.766, 117.2975
1007.248, 116.5800
1007.730, 115.9412
1008.212, 115.6024
1008.694, 115.5676
1009.177, 115.9511
1009.659, 116.5394
1010.141, 117.3382
1010.623, 118.0803
1011.105, 118.2897
1011.587, 117.9526
1012.069, 117.2744
1012.551, 116.3025
1013.033, 115.5662
1013.516, 115.8710
1013.998, 116.6537
1014.480, 116.9528
1014.962, 116.8914
1015.444, 116.8814
1015.926, 117.0130
1016.408, 117.2075
1016.890, 117.4250
1017.372, 117.6005
1017.855, 117.6337
1018.337, 117.5475
1018.819, 117.3840
1019.301, 117.1615
1019.783, 116.9252
1020.265, 116.6997
1020.747, 116.7118
1021.229, 117.1722
1021.712, 117.7803
1022.194, 117.8783
1022.676, 117.5379
1023.158, 117.3187
1023.640, 117.2380
1024.122, 117.5255
1024.604, 118.2938
1025.086, 118.7362
1025.568, 118.0867
1026.051, 116.8688
1026.533, 116.5287
1027.015, 117.1195
1027.497, 117.4140
1027.979, 117.3405
1028.461, 117.2981
1028.943, 117.4245
1029.425, 117.5660
1029.908, 117.5950
1030.390, 117.5208
1030.872, 117.3547
1031.354, 117.0650
1031.836, 116.8302
1032.318, 116.6097
1032.800, 116.6036
1033.282, 116.9731
1033.765, 117.3759
1034.247, 117.4815
1034.729, 117.3672
1035.211, 117.3415
1035.693, 117.4705
1036.175, 117.4823
1036.657, 117.3140
1037.139, 117.1419
1037.621, 116.9012
1038.104, 116.8460
1038.586, 117.3856
1039.068, 118.2950
1039.550, 118.5675
1040.032, 117.7198
1040.514, 117.4144
1040.996, 118.1732
1041.478, 118.7041
1041.960, 118.3726
1042.443, 117.8890
1042.925, 117.9696
1043.407, 118.4528
1043.889, 118.6587
1044.371, 118.5678
1044.853, 118.2462
1045.335, 117.4372
1045.817, 116.7294
1046.300, 116.1370
1046.782, 115.8525
1047.264, 116.2426
1047.746, 117.0919
1048.228, 117.6170
1048.710, 117.6352
1049.192, 117.6664
1049.674, 117.6711
1050.156, 117.8178
1050.639, 118.4183
1051.121, 118.9744
1051.603, 118.9807
1052.085, 118.5667
1052.567, 118.1797
1053.049, 117.8179
1053.531, 117.6925
1054.013, 118.0843
1054.495, 118.4153
1054.978, 118.3316
1055.460, 118.1895
1055.942, 118.4058
1056.424, 118.8324
1056.906, 119.0056
1057.388, 118.8284
1057.870, 118.4638
1058.352, 117.5349
1058.835, 116.9533
1059.317, 117.4633
1059.799, 118.2085
1060.281, 118.3381
1060.763, 118.0531
1061.245, 118.0349
1061.727, 118.4672
1062.209, 118.8544
1062.692, 119.1043
1063.174, 119.1795
1063.656, 118.9096
1064.138, 118.5869
1064.620, 118.4680
1065.102, 118.5167
1065.584, 118.5962
1066.066, 118.6759
1066.548, 118.8129
1067.031, 119.2176
1067.513, 119.4466
1067.995, 119.1572
1068.477, 118.7131
1068.959, 118.2794
1069.441, 118.0048
1069.923, 118.2758
1070.405, 119.1553
1070.887, 119.5674
1071.370, 118.4540
1071.852, 117.5532
1072.334, 117.9467
1072.816, 118.6932
1073.298, 118.9682
1073.780, 118.9860
1074.262, 119.3182
1074.744, 120.0364
1075.227, 120.5802
1075.709, 120.6978
1076.191, 120.6008
1076.673, 120.2150
1077.155, 119.8229
1077.637, 119.6522
1078.119, 119.6363
1078.601, 119.6811
1079.083, 119.7492
1079.566, 119.7331
1080.048, 119.4807
1080.530, 119.3411
1081.012, 119.5490
1081.494, 119.8643
1081.976, 120.3073
1082.458, 120.6232
1082.940, 120.2897
1083.422, 119.4277
1083.905, 118.9518
1084.387, 119.3361
1084.869, 119.7426
1085.351, 119.7417
1085.833, 119.6745
1086.315, 119.7522
1086.797, 119.9150
1087.279, 120.1628
1087.761, 120.4131
1088.244, 120.3746
1088.726, 119.8431
1089.208, 119.5076
1089.690, 119.7957
1090.172, 120.2054
1090.654, 120.5413
1091.136, 120.7650
1091.618, 120.7599
1092.101, 120.6362
1092.583, 120.7148
1093.065, 121.1100
1093.547, 121.4044
1094.029, 121.4643
1094.511, 121.3512
1094.993, 120.8309
1095.475, 120.3817
1095.958, 120.6120
1096.440, 121.1827
1096.922, 121.3405
1097.404, 120.9351
1097.886, 120.4942
1098.368, 120.0387
1098.850, 119.7866
1099.332, 120.0409
1099.814, 120.3026
1100.297, 120.0612
1100.779, 119.6556
1101.261, 119.7086
1101.743, 120.2534
1102.225, 120.6466
1102.707, 120.4811
1103.189, 120.5307
1103.671, 121.5247
1104.153, 122.1881
1104.636, 121.4689
1105.118, 120.2335
1105.600, 119.4510
1106.082, 119.1778
1106.564, 119.1992
1107.046, 119.6386
1107.528, 120.0163
1108.010, 120.4211
1108.493, 120.5323
1108.975, 119.8043
1109.457, 119.0710
1109.939, 119.2870
1110.421, 120.1389
1110.903, 120.5057
1111.385, 120.0608
1111.867, 119.9680
1112.349, 120.8780
1112.832, 121.3950
1113.314, 120.6133
1113.796, 119.8930
1114.278, 120.5168
1114.760, 121.7477
1115.242, 121.9843
1115.724, 121.0112
1116.206, 120.5704
1116.688, 121.2949
1117.171, 121.5163
1117.653, 120.5853
1118.135, 119.7457
1118.617, 119.6033
1119.099, 119.8978
1119.581, 120.4385
1120.063, 121.1770
1120.545, 121.3138
1121.028, 120.4117
1121.510, 119.9304
1121.992, 120.1703
1122.474, 120.3293
1122.956, 119.9405
1123.438, 119.6574
1123.920, 120.2460
1124.402, 121.3869
1124.885, 121.9004
1125.367, 121.7064
1125.849, 121.1390
1126.331, 119.8802
1126.813, 119.4101
1127.295, 120.3945
1127.777, 121.3465
1128.259, 121.1558
1128.741, 120.3725
1129.224, 120.0383
1129.706, 120.1497
1130.188, 120.5469
1130.670, 121.3035
1131.152, 121.7197
1131.634, 121.6674
1132.116, 121.4072
1132.598, 121.0303
1133.080, 120.7092
1133.563, 120.6829
1134.045, 120.8599
1134.527, 120.8540
1135.009, 120.6772
1135.491, 120.5802
1135.973, 120.5817
1136.455, 120.6206
1136.937, 120.6763
1137.420, 120.8996
1137.902, 121.4836
1138.384, 122.0259
1138.866, 121.4343
1139.348, 120.1534
1139.830, 120.1706
1140.312, 121.2181
1140.794, 121.6639
1141.276, 121.2518
1141.759, 120.8355
1142.241, 120.8827
1142.723, 121.0632
1143.205, 120.8470
1143.687, 120.5998
1144.169, 121.2935
1144.651, 122.3954
1145.133, 122.6365
1145.615, 122.0833
1146.098, 121.4134
1146.580, 120.8975
1147.062, 120.7022
1147.544, 121.0830
1148.026, 121.5531
1148.508, 121.6611
1148.990, 121.5057
1149.472, 120.9322
1149.955, 120.3205
1150.437, 120.5318
1150.919, 121.4717
1151.401, 122.0661
1151.883, 121.7967
1152.365, 121.3665
1152.847, 121.0878
1153.329, 120.9615
1153.812, 121.0259
1154.294, 121.2183
1154.776, 121.6019
1155.258, 122.0203
1155.740, 122.0399
1156.222, 121.5595
1156.704, 121.4310
1157.186, 122.5839
1157.668, 123.2320
1158.151, 122.2654
1158.633, 121.1630
1159.115, 120.7898
1159.597, 120.8927
1160.079, 121.2187
1160.561, 121.6829
1161.043, 121.8973
1161.525, 121.6806
1162.007, 121.5107
1162.490, 121.3479
1162.972, 121.3311
1163.454, 121.5568
1163.936, 121.8756
1164.418, 122.2121
1164.900, 122.5493
1165.382, 122.9007
1165.864, 123.3094
1166.347, 123.2098
1166.829, 122.3384
1167.311, 121.7349
1167.793, 121.5229
1168.275, 121.6604
1168.757, 122.2448
1169.239, 122.8548
1169.721, 122.9681
1170.203, 122.7376
1170.686, 122.8502
1171.168, 123.3262
1171.650, 123.4251
1172.132, 123.1055
1172.614, 122.9148
1173.096, 123.0003
1173.578, 123.2247
1174.060, 123.5144
1174.542, 123.7350
1175.025, 123.5708
1175.507, 123.2111
1175.989, 123.4581
1176.471, 124.0657
1176.953, 123.9981
1177.435, 123.2834
1177.917, 122.7518
1178.399, 122.7018
1178.882, 122.8430
1179.364, 122.9989
1179.846, 123.0913
1180.328, 123.0333
1180.810, 122.8457
1181.292, 122.2885
1181.774, 121.7458
1182.256, 122.2266
1182.739, 123.5109
1183.221, 124.1329
1183.703, 123.4363
1184.185, 122.7380
1184.667, 122.9498
1185.149, 123.2738
1185.631, 123.1889
1186.113, 122.9952
1186.595, 122.9076
1187.078, 122.9592
1187.560, 123.2180
1188.042, 123.6639
1188.524, 124.0008
1189.006, 124.3580
1189.488, 124.2564
1189.970, 122.9892
1190.452, 122.0494
1190.934, 122.1358
1191.417, 122.6906
1191.899, 123.4036
1192.381, 124.1371
1192.863, 124.5561
1193.345, 124.6494
1193.827, 124.4691
1194.309, 123.8125
1194.791, 123.5083
1195.274, 123.8171
1195.756, 123.9882
1196.238, 123.5722
1196.720, 123.2040
1197.202, 123.6944
1197.684, 124.6545
1198.166, 124.6394
1198.648, 123.6991
1199.130, 123.3682
1199.613, 123.6527
1200.095, 123.6878
1200.577, 123.3072
1201.059, 123.2572
1201.541, 123.9845
1202.023, 124.7282
1202.505, 124.4296
1202.987, 123.6533
1203.469, 123.5459
1203.952, 123.7800
1204.434, 123.6175
1204.916, 123.1643
1205.398, 122.9018
1205.880, 122.9472
1206.362, 123.1764
1206.844, 123.6006
1207.326, 123.8677
1207.809, 123.6316
1208.291, 123.2281
1208.773, 122.6140
1209.255, 122.2345
1209.737, 122.8234
1210.219, 123.9635
1210.701, 124.6521
1211.183, 124.7111
1211.666, 124.6766
1212.148, 124.5862
1212.630, 124.5469
1213.112, 124.5826
1213.594, 124.6677
1214.076, 124.8531
1214.558, 125.0234
1215.040, 125.0223
1215.522, 124.9481
1216.005, 125.1335
1216.487, 125.6608
1216.969, 125.7419
1217.451, 125.2705
1217.933, 124.7222
1218.415, 124.0825
1218.897, 123.8749
1219.379, 124.4193
1219.861, 125.0226
1220.344, 124.9010
1220.826, 124.3896
1221.308, 124.4342
1221.790, 124.8703
1222.272, 124.7681
1222.754, 124.2640
1223.236, 124.2124
1223.718, 124.6867
1224.201, 125.0195
1224.683, 124.8976
1225.165, 124.7360
1225.647, 124.9666
1226.129, 125.2682
1226.611, 125.2437
1227.093, 125.1164
1227.575, 125.1925
1228.057, 125.3535
1228.540, 125.2850
1229.022, 125.0372
1229.504, 125.0585
1229.986, 125.5756
1230.468, 125.9339
1230.950, 125.8584
1231.432, 125.6604
1231.914, 125.1654
1232.396, 124.8934
1232.879, 125.5394
1233.361, 126.4023
1233.843, 126.3415
1234.325, 125.5212
1234.807, 125.2425
1235.289, 125.7216
1235.771, 126.0869
1236.253, 126.3753
1236.736, 126.3436
1237.218, 125.8557
1237.700, 125.4240
1238.182, 125.3685
1238.664, 125.5311
1239.146, 125.7517
1239.628, 125.9377
1240.110, 125.6378
1240.593, 125.0407
1241.075, 125.0293
1241.557, 125.5198
1242.039, 125.8843
1242.521, 125.9957
1243.003, 126.1512
1243.485, 126.5180
1243.967, 126.8734
1244.449, 127.1581
1244.932, 127.1903
1245.414, 126.5414
1245.896, 125.7774
1246.378, 125.5807
1246.860, 125.7061
1247.342, 125.5924
1247.824, 125.2413
1248.306, 125.2292
1248.788, 125.9619
1249.271, 126.2713
1249.753, 125.3264
1250.235, 124.8484
1250.717, 125.7157
1251.199, 126.5805
1251.681, 126.6999
1252.163, 126.3438
1252.645, 125.7516
1253.128, 125.0625
1253.610, 125.2062
1254.092, 126.2679
1254.574, 127.2340
1255.056, 128.0822
1255.538, 128.1343
1256.020, 127.2635
1256.502, 126.7259
1256.984, 127.2375
1257.467, 127.8976
1257.949, 127.6385
1258.431, 126.9701
1258.913, 126.6728
1259.395, 126.6151
1259.877, 126.6725
1260.359, 126.7393
1260.841, 126.5680
1261.323, 126.2180
1261.806, 126.0522
1262.288, 126.2023
1262.770, 126.5034
1263.252, 127.1658
1263.734, 127.5644
1264.216, 127.1139
1264.698, 126.6965
1265.180, 126.9970
1265.663, 127.5378
1266.145, 127.7668
1266.627, 127.7175
1267.109, 127.4769
1267.591, 126.9445
1268.073, 126.8503
1268.555, 127.2944
1269.037, 127.7475
1269.520, 128.1703
1270.002, 128.2114
1270.484, 127.6904
1270.966, 127.0126
1271.448, 126.4839
1271.930, 126.3356
1272.412, 127.4648
1272.894, 129.0543
1273.376, 128.9814
1273.859, 127.8704
1274.341, 127.0550
1274.823, 126.7375
1275.305, 126.8800
1275.787, 127.4087
1276.269, 127.8447
1276.751, 127.9865
1277.233, 127.8955
1277.715, 127.2737
1278.198, 126.8334
1278.680, 127.1986
1279.162, 127.7053
1279.644, 127.7205
1280.126, 127.4523
1280.608, 127.3226
1281.090, 127.3251
1281.572, 127.5428
1282.055, 128.1021
1282.537, 128.4711
1283.019, 128.6305
1283.501, 128.5361
1283.983, 128.1466
1284.465, 127.9064
1284.947, 128.1019
1285.429, 128.3605
1285.911, 128.2821
1286.394, 127.9292
##END=



