##NAMES=Nordstrandite
##RRUFFID=R050592
##IDEAL CHEMISTRY=Al(OH)_3_
##LOCALITY=Cerro Sapo, Cochabamba Department, Bolivia
##OWNER=RRUFF
##SOURCE=Marcus Origlieri
##DESCRIPTION=Single crystals as colorless radiating clusters and tan thick tabular crystals
##STATUS=The identification of this mineral has been confirmed by X-ray diffraction and chemical analysis
##URL=rruff.info/R050592
##MEASURED CHEMISTRY=Al_1.00_(OH)_3_; trace amounts of Fe; H_2_O estimated by difference
91.11523, 3.579200
91.59735, 3.365527
92.07947, 3.568706
92.56158, 4.054441
93.04370, 4.399484
93.52582, 4.183854
94.00793, 3.669595
94.49006, 3.490882
94.97218, 3.813776
95.45429, 4.253314
95.93641, 4.146158
96.41853, 3.504143
96.90064, 2.811319
97.38276, 2.337751
97.86488, 2.085510
98.34699, 2.101205
98.82911, 2.470598
99.31123, 3.072898
99.79334, 3.512581
100.2755, 3.768542
100.7576, 3.921571
101.2397, 4.017260
101.7218, 4.040491
102.2039, 4.082529
102.6861, 4.161106
103.1682, 4.276823
103.6503, 4.439547
104.1324, 4.741537
104.6145, 4.990674
105.0966, 4.910815
105.5788, 4.225262
106.0609, 3.690059
106.5430, 3.511372
107.0251, 3.764972
107.5072, 4.107944
107.9893, 4.637123
108.4715, 5.234068
108.9536, 5.685206
109.4357, 5.729163
109.9178, 5.864575
110.3999, 6.267436
110.8820, 7.142171
111.3642, 7.941235
111.8463, 8.596652
112.3284, 9.159574
112.8105, 9.777118
113.2926, 10.33998
113.7747, 11.05816
114.2569, 12.02702
114.7390, 13.19309
115.2211, 14.69372
115.7032, 16.48155
116.1853, 18.59247
116.6674, 21.19680
117.1496, 24.46255
117.6317, 28.23565
118.1138, 32.35336
118.5959, 37.44372
119.0780, 42.33552
119.5602, 46.86036
120.0423, 51.00051
120.5244, 53.75312
121.0065, 54.03724
121.4886, 52.71714
121.9707, 50.92455
122.4529, 48.84747
122.9350, 46.67180
123.4171, 44.49329
123.8992, 42.30278
124.3813, 40.28327
124.8634, 38.50502
125.3456, 37.00413
125.8277, 35.85825
126.3098, 35.17410
126.7919, 34.85802
127.2740, 34.78971
127.7561, 34.96255
128.2383, 35.37091
128.7204, 36.15961
129.2025, 37.25289
129.6846, 38.25287
130.1667, 38.84010
130.6488, 39.13007
131.1310, 39.53483
131.6131, 40.14497
132.0952, 40.81039
132.5773, 41.14074
133.0594, 41.12859
133.5416, 41.30614
134.0237, 42.28756
134.5058, 44.00063
134.9879, 45.20581
135.4700, 45.58389
135.9521, 45.41202
136.4343, 45.53721
136.9164, 45.98227
137.3985, 46.63874
137.8806, 47.48798
138.3627, 48.57778
138.8448, 49.58252
139.3270, 50.48566
139.8091, 51.27742
140.2912, 51.80800
140.7733, 52.01274
141.2554, 52.07907
141.7375, 52.17858
142.2197, 52.30038
142.7018, 52.47866
143.1839, 52.65889
143.6660, 52.81255
144.1481, 53.40031
144.6303, 54.61827
145.1124, 56.10159
145.5945, 57.37824
146.0766, 58.37457
146.5587, 59.29714
147.0408, 60.19696
147.5230, 61.07676
148.0051, 61.89235
148.4872, 62.30830
148.9693, 62.31396
149.4514, 62.41354
149.9335, 62.69228
150.4157, 62.97786
150.8978, 63.21035
151.3799, 63.33112
151.8620, 63.53773
152.3441, 63.91115
152.8262, 64.36424
153.3084, 64.72391
153.7905, 64.98499
154.2726, 65.15390
154.7547, 65.24660
155.2368, 65.34126
155.7189, 65.23031
156.2011, 64.58835
156.6832, 63.69791
157.1653, 63.28006
157.6474, 63.91778
158.1295, 64.73449
158.6117, 65.27438
159.0938, 65.17773
159.5759, 65.19724
160.0580, 65.55843
160.5401, 66.19106
161.0222, 66.86129
161.5044, 67.39343
161.9865, 67.99043
162.4686, 68.80058
162.9507, 70.12934
163.4328, 71.37154
163.9149, 72.30000
164.3971, 72.95360
164.8792, 73.46883
165.3613, 73.82520
165.8434, 74.11327
166.3255, 74.41661
166.8076, 74.74989
167.2898, 75.11218
167.7719, 75.47719
168.2540, 75.85448
168.7361, 76.32960
169.2182, 76.87082
169.7004, 77.56005
170.1825, 78.49545
170.6646, 79.99930
171.1467, 81.56696
171.6288, 82.72542
172.1109, 83.48196
172.5931, 84.32560
173.0752, 85.49862
173.5573, 86.99891
174.0394, 88.83354
174.5215, 90.89519
175.0036, 93.33351
175.4858, 96.24939
175.9679, 99.66470
176.4500, 103.5728
176.9321, 108.2291
177.4142, 113.4393
177.8963, 118.6720
178.3785, 124.4116
178.8606, 129.8990
179.3427, 134.4359
179.8248, 138.2415
180.3069, 139.4422
180.7891, 135.0893
181.2712, 126.2978
181.7533, 116.5770
182.2354, 106.5237
182.7175, 96.82492
183.1996, 89.32882
183.6818, 84.10317
184.1639, 80.45154
184.6460, 77.71889
185.1281, 75.84534
185.6102, 74.38758
186.0923, 73.19361
186.5745, 72.25706
187.0566, 71.62375
187.5387, 71.30800
188.0208, 71.22029
188.5029, 71.42233
188.9850, 71.86784
189.4672, 72.00317
189.9493, 71.16715
190.4314, 69.65185
190.9135, 69.10638
191.3956, 69.83586
191.8778, 70.98348
192.3599, 71.08862
192.8420, 70.14425
193.3241, 69.33965
193.8062, 69.45423
194.2883, 70.38985
194.7705, 71.00925
195.2526, 71.20507
195.7347, 71.15539
196.2168, 71.13332
196.6989, 71.13258
197.1810, 71.21618
197.6632, 71.45016
198.1453, 71.83515
198.6274, 72.18935
199.1095, 72.51115
199.5916, 72.78802
200.0737, 72.94822
200.5559, 72.96449
201.0380, 73.04690
201.5201, 73.41929
202.0022, 74.13254
202.4843, 74.40667
202.9665, 74.02428
203.4486, 73.36275
203.9307, 73.36173
204.4128, 74.16216
204.8949, 75.05126
205.3770, 75.64336
205.8592, 75.90195
206.3413, 76.10942
206.8234, 76.23097
207.3055, 76.34467
207.7876, 76.65358
208.2697, 77.17242
208.7519, 77.82996
209.2340, 78.54092
209.7161, 79.23769
210.1982, 80.35330
210.6803, 82.02254
211.1624, 84.05920
211.6446, 86.00407
212.1267, 87.88947
212.6088, 89.57003
213.0909, 90.97273
213.5730, 92.07032
214.0551, 92.97194
214.5373, 93.56808
215.0194, 94.02146
215.5015, 94.81925
215.9836, 96.03472
216.4657, 97.45951
216.9479, 99.00410
217.4300, 100.6415
217.9121, 102.4750
218.3942, 104.4267
218.8763, 106.5871
219.3584, 109.1813
219.8406, 112.1134
220.3227, 115.6228
220.8048, 119.8203
221.2869, 124.7836
221.7690, 130.2830
222.2511, 136.2481
222.7333, 142.7482
223.2154, 149.7864
223.6975, 157.4617
224.1796, 165.6418
224.6617, 174.3184
225.1438, 183.5754
225.6260, 193.1286
226.1081, 203.2849
226.5902, 213.6371
227.0723, 223.3582
227.5544, 235.2503
228.0366, 242.2548
228.5187, 240.4487
229.0008, 226.2598
229.4829, 211.7095
229.9650, 195.3137
230.4471, 179.0112
230.9293, 167.8128
231.4114, 162.5723
231.8935, 160.9535
232.3756, 162.0606
232.8577, 166.2685
233.3398, 172.3970
233.8220, 180.7502
234.3041, 190.9358
234.7862, 201.8555
235.2683, 213.7229
235.7504, 225.9414
236.2325, 238.7600
236.7147, 253.1266
237.1968, 265.3986
237.6789, 276.9782
238.1610, 285.9438
238.6431, 287.7597
239.1253, 280.1166
239.6074, 268.8886
240.0895, 255.3623
240.5716, 237.4126
241.0537, 223.6215
241.5358, 214.2928
242.0180, 208.9582
242.5001, 206.8341
242.9822, 208.3983
243.4643, 212.3843
243.9464, 218.3133
244.4285, 226.0327
244.9107, 236.2914
245.3928, 249.1631
245.8749, 264.5694
246.3570, 282.5107
246.8391, 303.5909
247.3212, 326.1487
247.8034, 349.6754
248.2855, 374.2276
248.7676, 400.3187
249.2497, 430.6583
249.7318, 460.7626
250.2140, 485.5418
250.6961, 511.3982
251.1782, 520.0783
251.6603, 504.1187
252.1424, 459.7057
252.6245, 411.5182
253.1067, 354.7575
253.5888, 298.1395
254.0709, 252.1215
254.5530, 218.3115
255.0351, 191.7830
255.5172, 172.3550
255.9994, 160.3537
256.4815, 150.7531
256.9636, 143.9247
257.4457, 139.2104
257.9278, 135.9235
258.4099, 134.2847
258.8921, 133.5610
259.3742, 133.5682
259.8563, 134.2999
260.3384, 136.0861
260.8205, 139.2633
261.3026, 143.0207
261.7848, 146.5488
262.2669, 149.5626
262.7490, 153.0908
263.2311, 157.5130
263.7132, 162.7579
264.1953, 167.6861
264.6775, 172.9964
265.1596, 176.7847
265.6417, 177.2900
266.1238, 174.0973
266.6059, 168.8899
267.0880, 161.0723
267.5702, 151.2546
268.0523, 144.1790
268.5344, 140.2314
269.0165, 138.0798
269.4987, 136.7986
269.9808, 136.4456
270.4629, 136.7063
270.9450, 137.6832
271.4271, 139.2118
271.9092, 140.5245
272.3914, 141.4594
272.8735, 142.6359
273.3556, 144.4094
273.8377, 146.7726
274.3198, 149.8171
274.8019, 153.7271
275.2841, 158.2302
275.7662, 162.5096
276.2483, 166.3860
276.7304, 170.7373
277.2125, 175.7979
277.6946, 181.5405
278.1768, 188.6543
278.6589, 197.2321
279.1410, 207.1315
279.6231, 218.0566
280.1052, 230.1146
280.5873, 243.2289
281.0695, 257.1461
281.5516, 271.9263
282.0337, 288.2104
282.5158, 306.2191
282.9979, 325.3000
283.4800, 345.2204
283.9622, 366.1088
284.4443, 385.1143
284.9264, 403.2554
285.4085, 419.4740
285.8906, 424.7596
286.3727, 418.0343
286.8549, 404.2442
287.3370, 386.9855
287.8191, 366.5778
288.3012, 349.6230
288.7833, 338.6253
289.2654, 333.0813
289.7476, 331.5201
290.2297, 334.1004
290.7118, 339.4043
291.1939, 346.1740
291.6761, 354.3932
292.1582, 364.3349
292.6403, 376.0853
293.1224, 389.5847
293.6045, 404.8854
294.0866, 421.8535
294.5688, 441.0453
295.0509, 462.4296
295.5330, 486.4048
296.0151, 513.7321
296.4972, 544.6672
296.9793, 579.5410
297.4615, 617.8126
297.9436, 659.7540
298.4257, 705.5244
298.9078, 755.3958
299.3899, 809.0555
299.8720, 864.6780
300.3542, 922.7899
300.8363, 982.3619
301.3184, 1043.948
301.8005, 1107.067
302.2826, 1167.054
302.7647, 1229.021
303.2469, 1284.143
303.7290, 1322.261
304.2111, 1342.777
304.6932, 1341.672
305.1753, 1311.196
305.6574, 1255.477
306.1396, 1185.255
306.6217, 1093.210
307.1038, 995.1173
307.5859, 905.3410
308.0680, 823.8137
308.5501, 753.4600
309.0323, 697.1454
309.5144, 653.1113
309.9965, 618.6949
310.4786, 595.7512
310.9607, 579.4910
311.4428, 569.4593
311.9250, 565.2496
312.4071, 557.4193
312.8892, 542.5514
313.3713, 520.5953
313.8534, 491.1729
314.3355, 447.6130
314.8177, 402.7935
315.2998, 361.4830
315.7819, 324.0105
316.2640, 291.0215
316.7462, 263.5035
317.2283, 240.6529
317.7104, 221.7013
318.1925, 207.6740
318.6746, 195.7787
319.1567, 185.5706
319.6389, 176.7792
320.1210, 168.9717
320.6031, 162.2847
321.0852, 156.3417
321.5673, 150.9004
322.0494, 145.9265
322.5316, 141.4702
323.0137, 137.6581
323.4958, 134.3521
323.9779, 131.3277
324.4600, 128.6283
324.9421, 126.1227
325.4243, 123.8041
325.9064, 121.6666
326.3885, 119.6761
326.8706, 117.7773
327.3527, 116.0511
327.8348, 114.5562
328.3170, 113.3915
328.7991, 112.3509
329.2812, 111.4402
329.7633, 110.6567
330.2454, 109.8861
330.7275, 109.0554
331.2097, 108.2997
331.6918, 107.7204
332.1739, 107.4019
332.6560, 107.1160
333.1381, 106.8478
333.6202, 106.5962
334.1024, 106.3720
334.5845, 106.1774
335.0666, 106.0083
335.5487, 105.8425
336.0308, 105.6201
336.5129, 105.5985
336.9951, 105.8649
337.4772, 106.2829
337.9593, 106.5569
338.4414, 106.6141
338.9236, 106.7494
339.4057, 107.0701
339.8878, 107.5756
340.3699, 108.3161
340.8520, 109.4101
341.3341, 110.5231
341.8163, 111.0479
342.2984, 110.8714
342.7805, 111.2878
343.2626, 112.9063
343.7447, 115.4606
344.2268, 117.3708
344.7090, 118.5443
345.1911, 119.7205
345.6732, 121.5239
346.1553, 123.9408
346.6374, 126.7508
347.1195, 130.1011
347.6017, 133.6337
348.0838, 136.6738
348.5659, 139.2576
349.0480, 141.5449
349.5301, 143.6326
350.0122, 145.5136
350.4944, 147.2862
350.9765, 149.1787
351.4586, 150.2408
351.9407, 148.8615
352.4228, 145.5454
352.9049, 141.9588
353.3871, 138.6020
353.8692, 135.6138
354.3513, 133.1639
354.8334, 131.2597
355.3155, 129.8849
355.7976, 129.1402
356.2798, 128.8840
356.7619, 128.8805
357.2440, 128.8373
357.7261, 129.1685
358.2082, 130.1970
358.6903, 131.8885
359.1725, 134.0150
359.6546, 136.6888
360.1367, 139.6245
360.6188, 142.5071
361.1009, 144.8939
361.5831, 147.7447
362.0652, 151.6450
362.5473, 156.3262
363.0294, 161.1276
363.5115, 165.6303
363.9937, 170.3698
364.4758, 175.6089
364.9579, 181.5541
365.4400, 187.5736
365.9221, 193.5065
366.4042, 199.4959
366.8864, 205.7229
367.3685, 211.2930
367.8506, 218.0336
368.3327, 226.6343
368.8148, 237.1995
369.2969, 248.0152
369.7791, 258.4182
370.2612, 269.5788
370.7433, 282.3653
371.2254, 296.9584
371.7075, 312.6836
372.1896, 329.7353
372.6718, 347.9780
373.1539, 366.5017
373.6360, 385.3087
374.1181, 404.3374
374.6002, 423.6807
375.0823, 444.2087
375.5645, 462.4758
376.0466, 478.4738
376.5287, 491.9895
377.0108, 503.1653
377.4929, 512.3956
377.9750, 516.4693
378.4572, 513.6144
378.9393, 504.3123
379.4214, 492.2912
379.9035, 477.2274
380.3856, 461.2379
380.8677, 445.7679
381.3499, 430.9595
381.8320, 418.7427
382.3141, 409.4194
382.7962, 402.8875
383.2783, 398.8520
383.7604, 397.3221
384.2426, 397.9985
384.7247, 401.5711
385.2068, 407.1027
385.6889, 412.6774
386.1711, 418.0565
386.6532, 423.3797
387.1353, 429.8356
387.6174, 436.4966
388.0995, 441.0272
388.5816, 443.4697
389.0638, 442.6259
389.5459, 437.2589
390.0280, 427.3360
390.5101, 413.8011
390.9922, 395.4988
391.4743, 374.6935
391.9565, 353.5362
392.4386, 331.8635
392.9207, 311.1519
393.4028, 292.0618
393.8849, 274.6671
394.3670, 259.1171
394.8492, 245.6095
395.3313, 234.0452
395.8134, 224.4979
396.2955, 217.2891
396.7776, 211.1717
397.2597, 205.8556
397.7419, 201.5494
398.2240, 198.5058
398.7061, 197.3303
399.1882, 196.8842
399.6703, 197.0501
400.1524, 197.8381
400.6346, 198.8233
401.1167, 199.7141
401.5988, 201.0414
402.0809, 203.1751
402.5630, 206.3439
403.0451, 209.8410
403.5273, 213.3167
404.0094, 217.1481
404.4915, 222.5275
404.9736, 229.9539
405.4557, 237.7478
405.9378, 245.2166
406.4200, 252.2992
406.9021, 259.8858
407.3842, 268.1076
407.8663, 276.3468
408.3484, 284.0020
408.8306, 291.1119
409.3127, 297.2167
409.7948, 302.6035
410.2769, 306.6958
410.7590, 307.9911
411.2411, 306.4865
411.7233, 302.0657
412.2054, 293.7409
412.6875, 282.3054
413.1696, 270.0953
413.6517, 257.0478
414.1339, 244.0257
414.6160, 231.6911
415.0981, 220.2144
415.5802, 210.1934
416.0623, 201.9960
416.5444, 195.4125
417.0266, 190.7833
417.5087, 188.0340
417.9908, 185.9258
418.4729, 183.5355
418.9550, 181.4471
419.4371, 180.3522
419.9193, 181.0978
420.4014, 182.0534
420.8835, 182.7431
421.3656, 183.1345
421.8477, 183.1361
422.3298, 182.7562
422.8120, 181.9537
423.2941, 180.5706
423.7762, 178.2941
424.2583, 176.4051
424.7404, 175.0385
425.2225, 174.1612
425.7047, 173.6904
426.1868, 173.7561
426.6689, 174.0519
427.1510, 174.3721
427.6331, 174.7873
428.1152, 176.1380
428.5974, 178.7132
429.0795, 181.8250
429.5616, 185.1833
430.0437, 188.8704
430.5258, 192.3667
431.0079, 195.5283
431.4901, 198.6046
431.9722, 202.1978
432.4543, 206.3808
432.9364, 210.2487
433.4185, 213.7538
433.9007, 216.6377
434.3828, 217.6629
434.8649, 216.8199
435.3470, 214.2588
435.8291, 209.6626
436.3112, 203.3794
436.7934, 196.4949
437.2755, 188.9409
437.7576, 181.4096
438.2397, 174.4708
438.7218, 168.2919
439.2039, 163.4314
439.6861, 160.6922
440.1682, 159.1294
440.6503, 157.8794
441.1324, 156.8579
441.6145, 156.2576
442.0966, 156.6446
442.5788, 157.3307
443.0609, 157.5864
443.5430, 158.1177
444.0251, 157.1885
444.5072, 153.6923
444.9893, 148.1184
445.4715, 142.2388
445.9536, 135.6062
446.4357, 129.4142
446.9178, 124.2208
447.3999, 120.3013
447.8820, 116.7189
448.3642, 113.2434
448.8463, 110.1887
449.3284, 107.8868
449.8105, 106.7431
450.2926, 105.6456
450.7747, 104.3064
451.2569, 102.8353
451.7390, 102.0084
452.2211, 102.0056
452.7032, 102.1675
453.1853, 102.1005
453.6674, 101.7852
454.1496, 101.5581
454.6317, 101.4546
455.1138, 101.3733
455.5959, 101.0506
456.0781, 100.5291
456.5602, 100.3521
457.0423, 100.9218
457.5244, 101.8193
458.0065, 102.1355
458.4886, 101.9181
458.9708, 101.7167
459.4529, 102.0362
459.9350, 102.6024
460.4171, 102.9543
460.8992, 102.9581
461.3813, 102.9986
461.8635, 103.4438
462.3456, 104.1200
462.8277, 104.7243
463.3098, 105.0393
463.7919, 105.3421
464.2740, 105.7663
464.7562, 106.3109
465.2383, 106.9102
465.7204, 107.5901
466.2025, 108.2850
466.6846, 108.9380
467.1667, 109.4190
467.6489, 110.0534
468.1310, 110.9925
468.6131, 112.0586
469.0952, 112.9596
469.5773, 113.3768
470.0594, 114.1548
470.5416, 115.7082
471.0237, 117.9828
471.5058, 119.4544
471.9879, 119.7496
472.4700, 120.0828
472.9521, 121.4171
473.4343, 123.8029
473.9164, 126.2542
474.3985, 128.7209
474.8806, 131.1919
475.3627, 133.5853
475.8448, 135.9281
476.3270, 138.5186
476.8091, 141.6371
477.2912, 145.0014
477.7733, 147.9177
478.2554, 150.4238
478.7375, 153.0961
479.2197, 156.3972
479.7018, 160.1366
480.1839, 164.0277
480.6660, 167.9977
481.1482, 172.1138
481.6303, 176.2786
482.1124, 180.6312
482.5945, 185.4071
483.0766, 190.8323
483.5587, 196.5936
484.0409, 202.5292
484.5230, 208.6104
485.0051, 214.9501
485.4872, 221.6031
485.9693, 228.5166
486.4514, 235.6299
486.9336, 243.3388
487.4157, 250.6031
487.8978, 257.1693
488.3799, 263.4023
488.8620, 270.1083
489.3441, 277.4315
489.8263, 284.9603
490.3084, 292.8297
490.7905, 300.9385
491.2726, 308.2383
491.7547, 314.7289
492.2368, 320.6690
492.7190, 326.1846
493.2011, 331.2949
493.6832, 335.4914
494.1653, 338.6577
494.6474, 341.3272
495.1295, 344.3375
495.6117, 347.4636
496.0938, 350.0320
496.5759, 351.2050
497.0580, 352.1611
497.5401, 354.1739
498.0222, 357.1223
498.5044, 360.2904
498.9865, 363.2813
499.4686, 366.3608
499.9507, 369.8129
500.4328, 373.7943
500.9149, 377.6868
501.3971, 381.4479
501.8792, 384.9811
502.3613, 388.1813
502.8434, 391.4300
503.3256, 393.9331
503.8077, 395.5365
504.2898, 396.2912
504.7719, 396.4580
505.2540, 396.5085
505.7361, 395.2721
506.2183, 392.0663
506.7004, 386.6429
507.1825, 380.9245
507.6646, 374.9717
508.1467, 368.6026
508.6288, 361.5009
509.1110, 353.6734
509.5931, 345.7137
510.0752, 337.5865
510.5573, 329.6281
511.0394, 322.4751
511.5215, 316.0838
512.0037, 310.1684
512.4858, 304.4515
512.9679, 299.1670
513.4500, 294.5399
513.9321, 290.5832
514.4142, 287.5629
514.8964, 285.9014
515.3785, 285.1601
515.8606, 284.8848
516.3427, 284.9029
516.8248, 285.4608
517.3069, 286.2978
517.7891, 287.7802
518.2712, 290.6005
518.7533, 295.4970
519.2354, 301.1367
519.7175, 307.0043
520.1996, 313.1103
520.6818, 320.3100
521.1639, 328.5309
521.6460, 337.9777
522.1281, 348.7173
522.6102, 360.9211
523.0923, 373.9040
523.5745, 387.6062
524.0566, 402.2641
524.5387, 418.0738
525.0208, 435.0909
525.5029, 453.8220
525.9850, 474.6977
526.4672, 497.1180
526.9493, 520.0154
527.4314, 543.7164
527.9135, 568.9029
528.3956, 597.2061
528.8777, 627.3819
529.3599, 657.0973
529.8420, 686.3262
530.3241, 716.6120
530.8062, 749.8558
531.2883, 784.9726
531.7704, 819.9069
532.2526, 855.0003
532.7347, 889.5964
533.2168, 924.4275
533.6989, 958.6874
534.1810, 991.4380
534.6631, 1023.816
535.1453, 1053.082
535.6274, 1078.258
536.1095, 1099.685
536.5916, 1116.621
537.0737, 1129.372
537.5558, 1137.426
538.0380, 1140.541
538.5201, 1138.753
539.0023, 1131.537
539.4844, 1118.558
539.9665, 1101.129
540.4486, 1081.080
540.9307, 1058.520
541.4128, 1033.373
541.8950, 1005.558
542.3771, 975.5680
542.8592, 943.2430
543.3413, 909.1210
543.8234, 873.8964
544.3055, 837.7761
544.7877, 800.9103
545.2698, 763.4849
545.7519, 725.3986
546.2340, 688.3685
546.7161, 652.9730
547.1982, 619.3864
547.6804, 586.9442
548.1625, 555.4454
548.6446, 525.6414
549.1267, 497.5552
549.6088, 471.2772
550.0909, 446.9920
550.5731, 424.5345
551.0552, 404.3018
551.5373, 386.8133
552.0194, 371.8399
552.5015, 357.9981
552.9836, 345.3404
553.4658, 333.6089
553.9479, 322.5396
554.4300, 312.1742
554.9121, 303.0360
555.3942, 295.2748
555.8763, 288.4883
556.3585, 282.6167
556.8406, 277.3976
557.3227, 272.1405
557.8048, 266.4422
558.2869, 260.8875
558.7690, 256.1249
559.2512, 251.9253
559.7333, 247.7635
560.2154, 243.1651
560.6975, 238.7557
561.1796, 234.8589
561.6617, 231.5013
562.1439, 228.2939
562.6260, 225.0888
563.1081, 222.0862
563.5902, 219.3394
564.0723, 216.9221
564.5544, 214.5955
565.0366, 212.3173
565.5187, 210.1400
566.0008, 208.0804
566.4829, 206.0389
566.9650, 204.6357
567.4471, 204.2411
567.9293, 204.3300
568.4114, 203.3883
568.8935, 201.5005
569.3756, 199.9194
569.8577, 199.5059
570.3398, 199.8197
570.8220, 200.2130
571.3041, 200.6656
571.7862, 201.0258
572.2683, 200.8338
572.7504, 200.6856
573.2325, 201.2605
573.7147, 202.9731
574.1968, 204.6595
574.6789, 205.8375
575.1610, 206.7601
575.6431, 207.7694
576.1252, 208.6545
576.6074, 209.9391
577.0895, 211.7785
577.5716, 214.0779
578.0537, 216.4847
578.5358, 218.9348
579.0179, 221.6480
579.5001, 224.7455
579.9822, 228.2310
580.4643, 231.7572
580.9464, 235.3261
581.4285, 238.9016
581.9106, 242.2522
582.3928, 245.6047
582.8749, 249.8173
583.3570, 255.1687
583.8391, 260.6606
584.3212, 265.1112
584.8033, 269.1075
585.2855, 273.6861
585.7676, 279.5820
586.2498, 285.7696
586.7319, 291.8384
587.2140, 297.8429
587.6961, 303.9394
588.1782, 310.0972
588.6603, 316.4161
589.1425, 323.0718
589.6246, 330.1501
590.1067, 336.6327
590.5888, 342.0562
591.0709, 347.4536
591.5530, 353.7863
592.0352, 361.3688
592.5173, 367.3640
592.9994, 371.4134
593.4815, 374.6620
593.9636, 378.8006
594.4457, 383.5003
594.9279, 387.1664
595.4100, 389.2704
595.8921, 390.4117
596.3742, 391.4443
596.8563, 392.1396
597.3384, 391.8637
597.8206, 390.0390
598.3027, 387.3750
598.7848, 384.1305
599.2669, 380.3661
599.7490, 376.5606
600.2311, 373.2386
600.7133, 369.5966
601.1954, 365.1795
601.6775, 359.8594
602.1596, 353.9858
602.6417, 347.1786
603.1238, 340.1100
603.6060, 333.5072
604.0881, 327.4364
604.5702, 321.2014
605.0523, 314.7482
605.5344, 308.1359
606.0165, 301.5074
606.4987, 294.8942
606.9808, 288.8669
607.4629, 283.9825
607.9450, 279.5349
608.4271, 274.5604
608.9092, 269.1908
609.3914, 264.1110
609.8735, 259.7771
610.3556, 255.8150
610.8377, 251.8923
611.3198, 247.9972
611.8019, 244.4772
612.2841, 241.4725
612.7662, 238.8103
613.2483, 236.3623
613.7304, 234.3039
614.2125, 232.0877
614.6946, 229.4651
615.1768, 226.9160
615.6589, 225.0847
616.1410, 224.0595
616.6231, 222.9849
617.1052, 221.6902
617.5873, 220.2944
618.0695, 218.8973
618.5516, 217.5732
619.0337, 216.7826
619.5158, 217.1164
619.9979, 217.8533
620.4800, 217.9922
620.9622, 217.6815
621.4443, 217.6723
621.9264, 218.5956
622.4085, 219.7636
622.8906, 220.8023
623.3727, 221.6682
623.8549, 222.3848
624.3370, 222.4174
624.8191, 222.6966
625.3012, 223.8586
625.7833, 226.3527
626.2654, 228.6910
626.7476, 230.8738
627.2297, 232.8723
627.7118, 234.6029
628.1939, 236.0593
628.6760, 237.4815
629.1581, 238.9076
629.6403, 240.3652
630.1224, 241.8898
630.6045, 243.5038
631.0866, 245.2810
631.5687, 247.6470
632.0509, 249.9232
632.5330, 251.2633
633.0151, 251.8489
633.4973, 252.6826
633.9794, 254.6214
634.4615, 256.5527
634.9436, 257.8807
635.4257, 258.4422
635.9078, 258.8832
636.3900, 259.0371
636.8721, 259.2676
637.3542, 259.8510
637.8363, 260.8855
638.3184, 261.8471
638.8005, 262.7138
639.2827, 263.4786
639.7648, 264.0906
640.2469, 264.5717
640.7290, 265.0366
641.2111, 265.4597
641.6932, 265.9872
642.1754, 266.7379
642.6575, 267.7410
643.1396, 269.0491
643.6217, 270.7748
644.1038, 272.7483
644.5859, 275.1048
645.0681, 277.6932
645.5502, 279.8898
646.0323, 280.9817
646.5144, 282.1942
646.9965, 283.9519
647.4786, 286.2971
647.9608, 288.7505
648.4429, 291.4487
648.9250, 294.0293
649.4071, 296.3133
649.8892, 298.2939
650.3713, 300.0868
650.8535, 301.7108
651.3356, 303.1655
651.8177, 304.5672
652.2998, 305.7931
652.7819, 306.6180
653.2640, 307.0669
653.7462, 306.8911
654.2283, 305.8343
654.7104, 304.0439
655.1925, 301.7498
655.6746, 299.0632
656.1567, 295.7903
656.6389, 291.8389
657.1210, 287.2640
657.6031, 282.2987
658.0852, 276.8327
658.5673, 271.0692
659.0494, 264.9871
659.5316, 258.6441
660.0137, 252.3545
660.4958, 246.1729
660.9779, 240.0544
661.4600, 233.8522
661.9421, 227.6758
662.4243, 221.7227
662.9064, 215.9976
663.3885, 210.4876
663.8706, 205.3230
664.3527, 200.3545
664.8348, 195.4363
665.3170, 190.5086
665.7991, 185.7898
666.2812, 181.2337
666.7633, 176.9832
667.2454, 173.1938
667.7275, 170.1617
668.2097, 167.0854
668.6918, 163.8390
669.1739, 160.6115
669.6560, 157.7278
670.1381, 155.2171
670.6202, 152.7037
671.1024, 150.0442
671.5845, 147.4562
672.0666, 145.5119
672.5487, 144.0686
673.0308, 142.6000
673.5129, 140.7146
673.9951, 138.8152
674.4772, 137.2296
674.9593, 135.9266
675.4414, 134.7928
675.9235, 133.9417
676.4056, 133.1031
676.8878, 132.1159
677.3699, 130.9503
677.8520, 130.0225
678.3341, 129.5084
678.8162, 128.9803
679.2984, 128.1354
679.7805, 126.9359
680.2626, 126.0706
680.7448, 125.5915
681.2269, 125.1988
681.7090, 124.6276
682.1911, 123.9168
682.6732, 123.1132
683.1553, 122.1676
683.6375, 121.4388
684.1196, 121.4217
684.6017, 121.7050
685.0838, 121.7824
685.5659, 121.5394
686.0480, 121.0398
686.5302, 120.0025
687.0123, 118.7976
687.4944, 118.0489
687.9765, 117.9517
688.4586, 117.9240
688.9407, 117.8867
689.4229, 117.8451
689.9050, 117.8064
690.3871, 117.7692
690.8692, 117.7590
691.3513, 117.8134
691.8334, 117.8784
692.3156, 117.8717
692.7977, 117.7928
693.2798, 117.6457
693.7619, 117.2291
694.2440, 116.9082
694.7261, 117.0788
695.2083, 117.7270
695.6904, 118.0911
696.1725, 117.7058
696.6546, 117.2539
697.1367, 117.0057
697.6188, 116.9530
698.1010, 117.2281
698.5831, 117.9747
699.0652, 118.7227
699.5473, 119.0643
700.0294, 119.0450
700.5115, 118.9916
700.9937, 118.8984
701.4758, 118.9935
701.9579, 119.7252
702.4400, 120.7261
702.9221, 121.3815
703.4042, 121.3735
703.8864, 121.4978
704.3685, 122.3123
704.8506, 123.4152
705.3327, 124.3307
705.8148, 124.8418
706.2969, 125.3476
706.7791, 125.8980
707.2612, 126.4361
707.7433, 126.7588
708.2254, 126.7805
708.7075, 127.2128
709.1896, 128.3604
709.6718, 129.8566
710.1539, 131.0023
710.6360, 131.8297
711.1181, 132.4852
711.6002, 132.8090
712.0823, 133.1742
712.5645, 133.9289
713.0466, 135.0101
713.5287, 136.1602
714.0108, 137.4037
714.4929, 138.6007
714.9750, 139.7319
715.4572, 140.7982
715.9393, 141.6272
716.4214, 142.1896
716.9035, 142.5809
717.3856, 142.7752
717.8677, 142.8042
718.3499, 143.0314
718.8320, 143.4651
719.3141, 143.8951
719.7962, 144.1830
720.2783, 144.3586
720.7604, 144.5166
721.2426, 144.6700
721.7247, 144.6050
722.2068, 144.0937
722.6889, 143.3906
723.1710, 142.6733
723.6531, 141.9673
724.1353, 141.2661
724.6174, 140.6161
725.0995, 139.9343
725.5816, 139.1136
726.0638, 138.1323
726.5459, 137.2868
727.0280, 136.6626
727.5101, 135.9324
727.9922, 134.5097
728.4744, 132.6451
728.9565, 131.0224
729.4386, 129.8407
729.9207, 128.9126
730.4028, 128.2980
730.8849, 127.7788
731.3671, 127.0614
731.8492, 125.7988
732.3313, 124.6466
732.8134, 123.8721
733.2955, 123.2297
733.7776, 122.2866
734.2598, 120.8607
734.7419, 119.7134
735.2240, 119.0706
735.7061, 118.7335
736.1882, 118.2715
736.6703, 117.7011
737.1525, 117.1623
737.6346, 116.7261
738.1167, 116.3292
738.5988, 115.8408
739.0809, 115.3277
739.5630, 114.9805
740.0452, 115.1917
740.5273, 115.2706
741.0094, 114.7195
741.4915, 113.6958
741.9736, 113.2582
742.4557, 113.7495
742.9379, 114.1643
743.4200, 114.1344
743.9021, 113.7242
744.3842, 113.2550
744.8663, 112.7226
745.3484, 112.3008
745.8306, 112.2062
746.3127, 112.2304
746.7948, 112.0414
747.2769, 111.6558
747.7590, 111.2736
748.2411, 111.0543
748.7233, 110.8319
749.2054, 110.4396
749.6875, 109.8205
750.1696, 109.4978
750.6517, 109.6740
751.1339, 109.8786
751.6160, 109.8459
752.0981, 109.5650
752.5802, 109.2594
753.0623, 108.9146
753.5444, 108.6529
754.0266, 108.6938
754.5087, 108.8548
754.9908, 108.7146
755.4729, 108.2116
755.9550, 107.8056
756.4371, 107.9724
756.9193, 108.2399
757.4014, 108.2068
757.8835, 107.6883
758.3656, 107.2122
758.8477, 106.7013
759.3298, 106.3512
759.8120, 106.3544
760.2941, 106.7530
760.7762, 107.2117
761.2583, 107.7683
761.7404, 108.1696
762.2225, 107.9908
762.7047, 107.4633
763.1868, 107.0982
763.6689, 106.9864
764.1510, 107.0732
764.6331, 107.5211
765.1152, 108.0525
765.5974, 108.3593
766.0795, 108.1003
766.5616, 108.0757
767.0437, 108.4832
767.5258, 109.0061
768.0079, 109.2247
768.4901, 109.0753
768.9722, 109.1498
769.4543, 109.5577
769.9364, 110.1032
770.4185, 110.5453
770.9006, 110.9092
771.3828, 111.2689
771.8649, 111.6615
772.3470, 112.0083
772.8291, 112.1442
773.3113, 112.2407
773.7934, 112.5352
774.2755, 113.3452
774.7576, 114.0088
775.2397, 114.4369
775.7219, 114.7226
776.2040, 114.9516
776.6861, 115.0879
777.1682, 115.5322
777.6503, 116.4283
778.1324, 117.5271
778.6146, 118.4568
779.0967, 119.2710
779.5788, 120.1388
780.0609, 121.3083
780.5430, 122.2815
781.0251, 122.3864
781.5073, 122.1599
781.9894, 122.5763
782.4715, 124.6164
782.9536, 126.2816
783.4357, 127.2596
783.9178, 127.7923
784.4000, 128.2879
784.8821, 128.7282
785.3642, 129.4662
785.8463, 130.6531
786.3284, 132.1137
786.8105, 133.7621
787.2927, 135.4335
787.7748, 136.6865
788.2569, 136.8422
788.7390, 137.0225
789.2211, 137.7182
789.7032, 138.8325
790.1854, 140.1902
790.6675, 142.2165
791.1496, 143.7331
791.6317, 144.4242
792.1138, 144.5716
792.5959, 144.7911
793.0781, 145.0858
793.5602, 145.4831
794.0423, 146.0515
794.5244, 146.6569
795.0065, 147.1140
795.4886, 147.4706
795.9708, 147.8259
796.4529, 148.3763
796.9350, 148.7779
797.4171, 148.8403
797.8992, 148.6481
798.3813, 148.4448
798.8635, 148.2114
799.3456, 148.0274
799.8277, 147.9583
800.3098, 147.9026
800.7919, 147.5413
801.2740, 146.9108
801.7562, 146.4205
802.2383, 146.4297
802.7204, 146.3935
803.2025, 145.4678
803.6846, 144.0529
804.1667, 143.0524
804.6489, 143.1524
805.1310, 143.3142
805.6131, 143.3479
806.0952, 143.2128
806.5773, 142.7050
807.0594, 141.6002
807.5416, 140.9292
808.0237, 141.0786
808.5058, 141.6416
808.9879, 141.7681
809.4700, 141.5338
809.9521, 141.2556
810.4343, 140.9704
810.9164, 140.7980
811.3985, 140.8928
811.8806, 141.1611
812.3627, 141.4064
812.8448, 141.4017
813.3270, 141.6028
813.8091, 142.1151
814.2912, 142.8465
814.7733, 143.6062
815.2554, 144.3933
815.7375, 145.1985
816.2197, 145.9837
816.7018, 146.8570
817.1839, 148.0457
817.6660, 149.4428
818.1481, 150.7785
818.6302, 151.9714
819.1124, 153.0505
819.5945, 153.8035
820.0767, 154.5057
820.5588, 155.7386
821.0409, 157.8720
821.5230, 159.8082
822.0051, 161.2885
822.4872, 162.6689
822.9694, 164.6399
823.4515, 167.1748
823.9336, 169.9312
824.4157, 172.9945
824.8978, 175.9018
825.3799, 177.9516
825.8621, 179.6387
826.3442, 181.7450
826.8263, 184.9419
827.3084, 188.0507
827.7905, 190.4904
828.2726, 192.8786
828.7548, 196.1376
829.2369, 200.4684
829.7190, 204.5397
830.2011, 208.0758
830.6832, 211.4824
831.1653, 215.3469
831.6475, 219.5619
832.1296, 224.0090
832.6117, 228.6786
833.0938, 233.2707
833.5759, 237.6850
834.0580, 241.9090
834.5402, 245.9311
835.0223, 249.6103
835.5044, 253.3822
835.9865, 257.3173
836.4686, 261.2584
836.9507, 265.1187
837.4329, 268.8862
837.9150, 272.1786
838.3971, 274.9513
838.8792, 277.4546
839.3613, 279.9476
839.8434, 282.3503
840.3256, 284.4828
840.8077, 286.2435
841.2898, 288.0426
841.7719, 290.5306
842.2540, 292.6783
842.7361, 293.7348
843.2183, 293.5322
843.7004, 292.8471
844.1825, 291.6481
844.6646, 290.1039
845.1467, 288.1820
845.6288, 286.0601
846.1110, 284.2607
846.5931, 282.8297
847.0752, 281.3485
847.5573, 279.5685
848.0394, 277.6114
848.5215, 275.6074
849.0037, 273.6253
849.4858, 271.1215
849.9679, 267.7252
850.4500, 264.4056
850.9321, 261.6611
851.4142, 259.4518
851.8964, 257.6403
852.3785, 256.2028
852.8606, 254.3658
853.3427, 250.9546
853.8248, 247.3163
854.3069, 245.0592
854.7891, 244.0945
855.2712, 242.9079
855.7533, 240.9679
856.2354, 238.7729
856.7175, 236.3449
857.1996, 233.7894
857.6818, 231.8695
858.1639, 230.6851
858.6460, 229.3187
859.1281, 227.1958
859.6102, 224.7005
860.0923, 222.4093
860.5745, 220.3293
861.0566, 218.5661
861.5387, 217.3921
862.0208, 216.2910
862.5029, 215.0222
862.9850, 213.6390
863.4672, 212.3365
863.9493, 211.1729
864.4314, 209.8942
864.9135, 208.3309
865.3956, 206.7529
865.8777, 205.9017
866.3599, 205.5639
866.8420, 204.8364
867.3242, 203.0594
867.8063, 201.3931
868.2884, 200.8161
868.7705, 200.8637
869.2526, 200.8596
869.7347, 200.7469
870.2169, 200.4299
870.6990, 199.8084
871.1811, 199.0961
871.6632, 198.5377
872.1453, 198.1347
872.6274, 197.8861
873.1096, 197.8032
873.5917, 197.8143
874.0738, 197.9136
874.5559, 198.0360
875.0380, 198.0743
875.5201, 197.9383
876.0023, 197.9565
876.4844, 198.1974
876.9665, 198.6373
877.4486, 199.3039
877.9307, 200.2388
878.4128, 201.1018
878.8950, 201.8749
879.3771, 202.7535
879.8592, 204.0293
880.3413, 205.4606
880.8234, 206.5580
881.3055, 207.3174
881.7877, 208.3369
882.2698, 210.1727
882.7519, 212.0826
883.2340, 213.4993
883.7161, 214.4775
884.1982, 216.3531
884.6804, 219.2993
885.1625, 222.4378
885.6446, 225.3866
886.1267, 228.1973
886.6088, 230.9527
887.0909, 233.7265
887.5731, 236.7491
888.0552, 240.3360
888.5373, 244.0409
889.0194, 247.5876
889.5015, 251.0748
889.9836, 254.8220
890.4658, 258.7758
890.9479, 263.2080
891.4300, 268.3153
891.9121, 273.7323
892.3942, 278.6975
892.8763, 283.4493
893.3585, 288.7492
893.8406, 295.0106
894.3227, 301.6430
894.8048, 308.3254
895.2869, 315.0113
895.7690, 321.6329
896.2512, 328.0914
896.7333, 334.5402
897.2154, 340.7871
897.6975, 347.1407
898.1796, 353.8785
898.6617, 360.9831
899.1439, 367.9223
899.6260, 374.7108
900.1081, 381.3308
900.5902, 388.0560
901.0723, 394.4234
901.5544, 400.0613
902.0366, 404.8365
902.5187, 409.1831
903.0008, 413.4824
903.4829, 416.9003
903.9650, 418.9691
904.4471, 419.7757
904.9293, 420.2213
905.4114, 420.2998
905.8935, 419.6858
906.3756, 418.2672
906.8577, 415.9900
907.3398, 412.5831
907.8220, 408.2152
908.3041, 403.6547
908.7862, 399.8792
909.2683, 394.7494
909.7504, 387.5120
910.2325, 378.8370
910.7147, 370.2853
911.1968, 361.7873
911.6789, 353.3764
912.1610, 345.2252
912.6431, 336.9648
913.1252, 327.9756
913.6074, 318.6972
914.0895, 309.8045
914.5717, 301.5991
915.0538, 293.6450
915.5359, 285.8167
916.0180, 278.1565
916.5001, 270.5215
916.9822, 262.8912
917.4644, 255.7365
917.9465, 249.0951
918.4286, 242.8227
918.9107, 236.9437
919.3928, 231.3586
919.8749, 225.9375
920.3571, 220.6732
920.8392, 215.4348
921.3213, 209.6551
921.8034, 204.4888
922.2855, 200.6216
922.7676, 197.8816
923.2498, 194.5257
923.7319, 190.5499
924.2140, 186.7060
924.6961, 183.5399
925.1782, 180.5950
925.6603, 177.0342
926.1425, 173.2253
926.6246, 170.1819
927.1067, 169.1242
927.5888, 167.8484
928.0709, 165.8194
928.5530, 163.3382
929.0352, 160.8555
929.5173, 158.3413
929.9994, 156.3267
930.4815, 154.9922
930.9636, 153.9278
931.4457, 152.7912
931.9279, 151.5814
932.4100, 150.2803
932.8921, 148.8534
933.3742, 147.4750
933.8563, 146.1925
934.3384, 144.9742
934.8206, 143.8159
935.3027, 142.6995
935.7848, 141.7887
936.2669, 141.0850
936.7490, 140.3838
937.2311, 139.4842
937.7133, 138.5285
938.1954, 137.7484
938.6775, 137.1010
939.1596, 136.3514
939.6417, 135.1338
940.1238, 134.1721
940.6060, 133.7348
941.0881, 133.6539
941.5702, 133.4664
942.0523, 133.1714
942.5344, 132.7478
943.0165, 132.1064
943.4987, 131.5006
943.9808, 131.2397
944.4629, 131.1824
944.9450, 131.1245
945.4271, 131.0692
945.9092, 130.9120
946.3914, 130.6006
946.8735, 130.2512
947.3556, 129.9695
947.8377, 129.7534
948.3198, 129.4675
948.8019, 129.0950
949.2841, 129.0138
949.7662, 129.9552
950.2483, 131.0258
950.7304, 131.3396
951.2125, 130.8451
951.6946, 130.4245
952.1768, 130.0413
952.6589, 129.9799
953.1410, 130.4235
953.6231, 131.2137
954.1052, 131.8520
954.5873, 132.3593
955.0695, 132.8591
955.5516, 133.3295
956.0337, 133.9178
956.5158, 135.0205
956.9979, 136.2213
957.4800, 136.8098
957.9622, 136.1550
958.4443, 135.9406
958.9264, 136.2645
959.4085, 137.0002
959.8906, 138.2047
960.3727, 139.7201
960.8549, 140.9354
961.3370, 141.7967
961.8192, 142.5076
962.3013, 142.8484
962.7834, 143.3891
963.2655, 144.6577
963.7476, 146.6804
964.2297, 148.4784
964.7119, 150.0445
965.1940, 151.2720
965.6761, 151.8593
966.1582, 152.3047
966.6403, 153.8898
967.1224, 156.2827
967.6046, 158.5468
968.0867, 159.8769
968.5688, 161.4304
969.0509, 164.0515
969.5330, 166.9454
970.0151, 168.9345
970.4973, 169.6713
970.9794, 171.2008
971.4615, 173.7834
971.9436, 176.7595
972.4257, 179.4021
972.9078, 181.9726
973.3900, 185.0553
973.8721, 188.7326
974.3542, 191.9973
974.8363, 194.0643
975.3184, 196.1264
975.8005, 198.6505
976.2827, 201.6169
976.7648, 204.8035
977.2469, 208.1928
977.7290, 211.3632
978.2111, 214.0539
978.6932, 216.4700
979.1754, 218.8155
979.6575, 221.0580
980.1396, 223.1336
980.6217, 225.1800
981.1038, 226.8153
981.5859, 227.9682
982.0681, 228.7895
982.5502, 229.4845
983.0323, 230.0133
983.5144, 230.1071
983.9965, 229.7458
984.4786, 228.8783
984.9608, 227.3766
985.4429, 225.4203
985.9250, 223.0362
986.4071, 220.2146
986.8892, 217.5009
987.3713, 215.0881
987.8535, 212.3042
988.3356, 208.8049
988.8177, 204.8665
989.2998, 201.0877
989.7819, 197.3994
990.2640, 193.5677
990.7462, 189.2766
991.2283, 185.2347
991.7104, 181.9495
992.1925, 178.9432
992.6746, 175.6698
993.1567, 172.0100
993.6389, 168.6393
994.1210, 165.5857
994.6031, 162.7624
995.0852, 160.0547
995.5673, 157.5412
996.0494, 155.4921
996.5316, 153.8596
997.0137, 151.9854
997.4958, 149.0383
997.9779, 146.5583
998.4600, 145.1950
998.9421, 144.5434
999.4243, 143.3593
999.9064, 141.7216
1000.388, 140.3236
1000.871, 139.3994
1001.353, 138.7412
1001.835, 138.3131
1002.317, 137.9695
1002.799, 137.5046
1003.281, 136.6803
1003.763, 136.2917
1004.245, 136.5015
1004.728, 136.7561
1005.210, 136.4928
1005.692, 135.9527
1006.174, 135.9620
1006.656, 136.4566
1007.138, 136.8755
1007.620, 136.8916
1008.102, 136.8032
1008.585, 136.6826
1009.067, 136.5734
1009.549, 136.6139
1010.031, 136.8432
1010.513, 136.8596
1010.995, 136.5192
1011.477, 136.1647
1011.959, 136.3187
1012.441, 136.6754
1012.924, 136.8215
1013.406, 136.6641
1013.888, 136.3590
1014.370, 135.8329
1014.852, 135.3225
1015.334, 135.0390
1015.816, 134.8811
1016.298, 134.0757
1016.781, 132.7263
1017.263, 131.5485
1017.745, 131.1485
1018.227, 130.8270
1018.709, 130.2317
1019.191, 129.3826
1019.673, 128.2802
1020.155, 126.6989
1020.637, 125.6027
1021.120, 125.1775
1021.602, 124.8508
1022.084, 123.9841
1022.566, 122.7699
1023.048, 121.4999
1023.530, 120.2083
1024.012, 119.0319
1024.494, 117.9400
1024.976, 117.1203
1025.459, 116.8020
1025.941, 116.7726
1026.423, 115.9937
1026.905, 114.5199
1027.387, 113.4789
1027.869, 113.4975
1028.351, 113.6077
1028.833, 112.7472
1029.316, 111.5141
1029.798, 110.6922
1030.280, 110.7063
1030.762, 110.3573
1031.244, 109.4688
1031.726, 108.6665
1032.208, 108.5734
1032.690, 108.8891
1033.172, 108.7803
1033.655, 108.2986
1034.137, 107.7924
1034.619, 107.5212
1035.101, 107.1609
1035.583, 106.5224
1036.065, 105.7601
1036.547, 105.1407
1037.029, 104.6706
1037.512, 104.2960
1037.994, 104.0087
1038.476, 103.8353
1038.958, 103.8680
1039.440, 103.9935
1039.922, 104.1272
1040.404, 104.2715
1040.886, 104.2759
1041.369, 104.1509
1041.851, 103.8445
1042.333, 103.2271
1042.815, 102.4960
1043.297, 102.2037
1043.779, 102.2388
1044.261, 102.2904
1044.743, 102.3118
1045.225, 102.2113
1045.708, 101.7493
1046.190, 101.2907
1046.672, 101.2552
1047.154, 101.7154
1047.636, 101.7173
1048.118, 101.2146
1048.600, 100.7885
1049.082, 101.1109
1049.564, 101.5478
1050.047, 101.3223
1050.529, 100.6109
1051.011, 100.3879
1051.493, 101.0462
1051.975, 101.5102
1052.457, 101.5285
1052.939, 101.4004
1053.421, 101.6351
1053.904, 102.0771
1054.386, 102.3558
1054.868, 102.3849
1055.350, 102.4149
1055.832, 102.5419
1056.314, 102.7297
1056.796, 103.0310
1057.278, 103.3944
1057.760, 103.2819
1058.243, 102.7190
1058.725, 102.3316
1059.207, 102.4083
1059.689, 102.7385
1060.171, 103.2990
1060.653, 103.9270
1061.135, 104.3730
1061.617, 104.4719
1062.099, 104.6801
1062.582, 104.9762
1063.064, 105.4505
1063.546, 106.3673
1064.028, 107.4407
1064.510, 108.0397
1064.992, 108.2283
1065.474, 108.4493
1065.956, 108.9582
1066.439, 109.4253
1066.921, 109.7731
1067.403, 110.0349
1067.885, 110.2205
1068.367, 110.3549
1068.849, 110.6991
1069.331, 111.3233
1069.813, 111.8527
1070.296, 112.0410
1070.778, 112.0070
1071.260, 111.7451
1071.742, 111.2882
1072.224, 111.0882
1072.706, 111.2192
1073.188, 111.1314
1073.670, 110.5061
1074.152, 109.7908
1074.635, 109.6388
1075.117, 109.8053
1075.599, 109.9184
1076.081, 109.9812
1076.563, 109.6963
1077.045, 108.8054
1077.527, 108.0236
1078.009, 108.0481
1078.491, 108.5785
1078.974, 108.2492
1079.456, 107.2518
1079.938, 106.5631
1080.420, 107.0610
1080.902, 107.4870
1081.384, 107.1725
1081.866, 106.6116
1082.349, 106.4223
1082.831, 106.6235
1083.313, 106.7735
1083.795, 106.8364
1084.277, 106.8281
1084.759, 106.8067
1085.241, 106.6820
1085.723, 106.3509
1086.205, 105.8240
1086.688, 105.2504
1087.170, 104.5710
1087.652, 104.0591
1088.134, 103.7886
1088.616, 103.6880
1089.098, 103.7348
1089.580, 103.8490
1090.062, 103.9678
1090.544, 104.1541
1091.027, 103.8730
1091.509, 102.6249
1091.991, 101.5006
1092.473, 101.0123
1092.955, 101.0076
1093.437, 101.1391
1093.919, 101.2985
1094.401, 100.9978
1094.884, 99.61962
1095.366, 98.46197
1095.848, 98.27840
1096.330, 98.47229
1096.812, 98.54858
1097.294, 98.52548
1097.776, 98.09621
1098.258, 97.25650
1098.740, 96.48119
1099.223, 96.06319
1099.705, 95.85664
1100.187, 95.88981
1100.669, 96.02560
1101.151, 95.88816
1101.633, 95.29483
1102.115, 94.98632
1102.597, 95.09924
1103.079, 95.20795
1103.562, 94.66659
1104.044, 93.93271
1104.526, 93.78804
1105.008, 94.23161
1105.490, 94.42824
1105.972, 94.09010
1106.454, 93.59902
1106.936, 92.94010
1107.419, 92.32584
1107.901, 92.30945
1108.383, 92.67358
1108.865, 92.80709
1109.347, 92.57024
1109.829, 92.19641
1110.311, 91.46409
1110.793, 90.97063
1111.276, 91.10630
1111.758, 91.73002
1112.240, 92.01081
1112.722, 91.98289
1113.204, 91.95439
1113.686, 92.07666
1114.168, 92.16595
1114.650, 92.03011
1115.132, 91.83427
1115.615, 91.79505
1116.097, 91.98579
1116.579, 91.79309
1117.061, 91.18169
1117.543, 90.69408
1118.025, 90.77091
1118.507, 91.08199
1118.989, 91.43913
1119.471, 91.73995
1119.954, 91.72401
1120.436, 91.18245
1120.918, 90.71516
1121.400, 90.31316
1121.882, 90.11756
1122.364, 90.45877
1122.846, 91.00004
1123.328, 91.12277
1123.811, 90.87049
1124.293, 90.68391
1124.775, 90.73431
1125.257, 90.82874
1125.739, 90.97544
1126.221, 91.09044
1126.703, 91.06213
1127.185, 90.89379
1127.667, 90.49841
1128.150, 89.85533
1128.632, 89.47806
1129.114, 89.95766
1129.596, 90.35988
1130.078, 90.20553
1130.560, 89.74399
1131.042, 89.85047
1131.524, 90.41062
1132.007, 90.63381
1132.489, 90.23744
1132.971, 89.82121
1133.453, 89.76497
1133.935, 89.88054
1134.417, 90.06470
1134.899, 90.30424
1135.381, 90.37626
1135.864, 90.28126
1136.346, 90.22977
1136.828, 90.39122
1137.310, 90.48463
1137.792, 90.14278
1138.274, 89.63309
1138.756, 89.30766
1139.238, 89.20042
1139.720, 89.19736
1140.203, 89.31564
1140.685, 89.43279
1141.167, 89.43784
1141.649, 89.42881
1142.131, 89.64375
1142.613, 89.91996
1143.095, 89.89481
1143.577, 89.12826
1144.059, 88.81886
1144.542, 89.08028
1145.024, 89.57585
1145.506, 90.16702
1145.988, 90.69588
1146.470, 90.81956
1146.952, 90.61596
1147.434, 90.47392
1147.916, 90.67509
1148.399, 90.69486
1148.881, 90.41069
1149.363, 90.02701
1149.845, 89.72633
1150.327, 89.55877
1150.809, 89.79379
1151.291, 90.41070
1151.773, 90.75246
1152.255, 90.22813
1152.738, 89.77246
1153.220, 89.68642
1153.702, 89.79372
1154.184, 89.71259
1154.666, 89.51357
1155.148, 89.51175
1155.630, 89.77493
1156.112, 90.01497
1156.594, 89.99510
1157.077, 90.00685
1157.559, 90.27272
1158.041, 90.65229
1158.523, 90.54478
1159.005, 90.02866
1159.487, 89.73949
1159.969, 89.90644
1160.451, 90.10168
1160.934, 90.06685
1161.416, 89.91634
1161.898, 89.70638
1162.380, 89.45547
1162.862, 89.31316
1163.344, 89.27900
1163.826, 89.31924
1164.308, 89.45504
1164.791, 89.59026
1165.273, 89.71162
1165.755, 89.74870
1166.237, 89.60808
1166.719, 89.27160
1167.201, 88.91167
1167.683, 88.51052
1168.165, 88.37693
1168.647, 88.86518
1169.130, 89.45117
1169.612, 89.69172
1170.094, 89.68691
1170.576, 89.54796
1171.058, 89.18214
1171.540, 89.13590
1172.022, 89.46328
1172.504, 89.70922
1172.987, 89.34597
1173.469, 88.90945
1173.951, 89.16481
1174.433, 89.78667
1174.915, 89.94431
1175.397, 89.35149
1175.879, 88.90978
1176.361, 88.64973
1176.844, 88.59230
1177.326, 88.88970
1177.808, 89.30245
1178.290, 89.58395
1178.772, 89.71607
1179.254, 89.66171
1179.736, 89.32505
1180.218, 89.04832
1180.700, 88.87021
1181.182, 88.73911
1181.665, 88.55051
1182.147, 88.39977
1182.629, 88.53373
1183.111, 88.89394
1183.593, 88.98119
1184.075, 88.50056
1184.557, 88.21609
1185.039, 88.29743
1185.522, 88.50852
1186.004, 88.53414
1186.486, 88.47220
1186.968, 88.48312
1187.450, 88.57996
1187.932, 88.67345
1188.414, 88.80924
1188.896, 88.81075
1189.379, 88.61131
1189.861, 88.30439
1190.343, 87.88416
1190.825, 87.52648
1191.307, 87.65538
1191.789, 88.37376
1192.271, 88.88286
1192.753, 88.97081
1193.235, 88.91279
1193.718, 88.74397
1194.200, 88.55509
1194.682, 88.57316
1195.164, 88.68658
1195.646, 88.63493
1196.128, 88.31946
1196.610, 88.13491
1197.092, 88.17632
1197.574, 88.35947
1198.057, 88.77282
1198.539, 89.16780
1199.021, 88.78211
1199.503, 87.98225
1199.985, 87.62708
1200.467, 88.05562
1200.949, 88.49533
1201.431, 88.88066
1201.914, 89.09605
1202.396, 89.02058
1202.878, 88.78967
1203.360, 88.82462
1203.842, 88.98365
1204.324, 88.87188
1204.806, 88.18542
1205.288, 87.72470
1205.771, 87.65933
1206.253, 87.78359
1206.735, 88.06820
1207.217, 88.40870
1207.699, 88.23459
1208.181, 87.88513
1208.663, 88.33047
1209.145, 90.70872
1209.627, 92.29035
1210.109, 92.73311
1210.592, 92.30251
1211.074, 90.70908
1211.556, 88.54140
1212.038, 87.69707
1212.520, 87.87073
1213.002, 88.25138
1213.484, 88.83435
1213.966, 89.11927
1214.449, 89.00481
1214.931, 88.71323
1215.413, 88.21306
1215.895, 87.72952
1216.377, 88.14526
1216.859, 89.14474
1217.341, 89.72602
1217.823, 88.98060
1218.306, 88.61272
1218.788, 88.94331
1219.270, 89.37330
1219.752, 89.34095
1220.234, 89.03870
1220.716, 88.95650
1221.198, 89.03855
1221.680, 89.06445
1222.162, 88.80117
1222.645, 88.74902
1223.127, 89.07271
1223.609, 89.34437
1224.091, 88.99340
1224.573, 88.36295
1225.055, 88.21713
1225.537, 88.47520
1226.019, 88.73400
1226.502, 88.81784
1226.984, 88.99929
1227.466, 89.39455
1227.948, 89.65144
1228.430, 89.22281
1228.912, 88.50549
1229.394, 88.30344
1229.876, 88.50600
1230.359, 88.48405
1230.841, 87.73827
1231.323, 87.45410
1231.805, 87.82356
1232.287, 88.41727
1232.769, 88.97301
1233.251, 89.36031
1233.733, 89.22804
1234.215, 88.69936
1234.698, 88.39417
1235.180, 88.54548
1235.662, 88.58676
1236.144, 88.44077
1236.626, 88.24019
1237.108, 88.12138
1237.590, 88.03474
1238.072, 87.82854
1238.554, 87.57361
1239.037, 87.69805
1239.519, 88.45120
1240.001, 88.78919
1240.483, 88.51256
1240.965, 88.16933
1241.447, 88.43349
1241.929, 88.83195
1242.411, 88.84016
1242.894, 88.50150
1243.376, 88.17934
1243.858, 87.85137
1244.340, 87.73953
1244.822, 87.90455
1245.304, 88.06444
1245.786, 87.90798
1246.268, 87.66604
1246.750, 87.47095
1247.233, 87.38289
1247.715, 87.61885
1248.197, 88.25129
1248.679, 88.49534
1249.161, 88.20632
1249.643, 87.93515
1250.125, 88.27994
1250.607, 88.71452
1251.089, 88.82919
1251.572, 88.71191
1252.054, 88.58921
1252.536, 88.45964
1253.018, 88.54034
1253.500, 88.87742
1253.982, 89.09822
1254.464, 88.83216
1254.946, 88.45237
1255.429, 88.07777
1255.911, 87.80650
1256.393, 87.96229
1256.875, 88.47716
1257.357, 88.65189
1257.839, 88.38779
1258.321, 88.14546
1258.803, 88.41025
1259.286, 88.49855
1259.768, 87.97303
1260.250, 87.26635
1260.732, 87.29444
1261.214, 87.87511
1261.696, 88.27710
1262.178, 88.40891
1262.660, 88.45893
1263.142, 88.39857
1263.625, 88.44186
1264.107, 88.72295
1264.589, 89.02277
1265.071, 88.90481
1265.553, 88.54351
1266.035, 88.37329
1266.517, 88.43350
1266.999, 88.53867
1267.482, 88.67961
1267.964, 88.77380
1268.446, 88.79241
1268.928, 88.78415
1269.410, 88.82271
1269.892, 88.87956
1270.374, 88.93797
1270.856, 88.98726
1271.339, 88.88405
1271.821, 88.47791
1272.303, 88.35380
1272.785, 88.68558
1273.267, 89.07384
1273.749, 89.01865
1274.231, 88.77259
1274.713, 88.54975
1275.195, 88.39709
1275.677, 88.47583
1276.160, 88.85542
1276.642, 89.08466
1277.124, 89.07813
1277.606, 88.97276
1278.088, 88.75257
1278.570, 88.61518
1279.052, 88.87454
1279.534, 89.33550
1280.017, 89.33398
1280.499, 88.85307
1280.981, 88.57645
1281.463, 88.59644
1281.945, 88.72275
1282.427, 88.89467
1282.909, 89.04884
1283.391, 89.13839
1283.874, 89.19370
1284.356, 89.28223
1284.838, 89.38941
1285.320, 89.42577
1285.802, 89.38249
1286.284, 89.29623
1286.766, 89.01416
1287.248, 88.95220
1287.730, 89.37341
1288.213, 89.85021
1288.695, 89.65602
1289.177, 89.05283
1289.659, 88.72487
1290.141, 88.70937
1290.623, 88.77714
1291.105, 88.90471
1291.587, 89.05099
1292.069, 89.24986
1292.552, 89.36028
1293.034, 89.06176
1293.516, 88.66478
1293.998, 88.76978
1294.480, 89.25452
1294.962, 89.26374
1295.444, 88.50024
1295.926, 88.09370
1296.409, 88.19744
1296.891, 88.46300
1297.373, 88.66084
1297.855, 88.78635
1298.337, 88.80031
1298.819, 88.75319
1299.301, 88.77016
1299.783, 88.86049
1300.266, 88.92765
1300.748, 88.96543
1301.230, 88.91182
1301.712, 88.71828
1302.194, 88.43574
1302.676, 88.09581
1303.158, 87.71675
##END=



