##NAMES=Nordstrandite
##RRUFFID=R050592
##IDEAL CHEMISTRY=Al(OH)_3_
##LOCALITY=Cerro Sapo, Cochabamba Department, Bolivia
##OWNER=RRUFF
##SOURCE=Marcus Origlieri
##DESCRIPTION=Single crystals as colorless radiating clusters and tan thick tabular crystals
##STATUS=The identification of this mineral has been confirmed by X-ray diffraction and chemical analysis
##URL=rruff.info/R050592
##MEASURED CHEMISTRY=Al_1.00_(OH)_3_; trace amounts of Fe; H_2_O estimated by difference
92.06543, 34.62550
92.54755, 34.64978
93.02966, 34.82250
93.51178, 34.80817
93.99390, 34.63189
94.47601, 34.31536
94.95813, 33.96272
95.44025, 33.71684
95.92236, 33.70481
96.40448, 33.93687
96.88660, 34.08269
97.36871, 34.02509
97.85082, 34.00970
98.33294, 34.28007
98.81506, 34.84646
99.29717, 35.33554
99.77929, 35.40782
100.2614, 35.12103
100.7435, 34.95996
101.2256, 35.11655
101.7078, 35.46972
102.1899, 35.73731
102.6720, 35.78724
103.1541, 35.84342
103.6362, 36.05653
104.1183, 36.42173
104.6005, 36.95752
105.0826, 37.77013
105.5647, 38.91874
106.0468, 39.88964
106.5289, 40.39757
107.0110, 40.79365
107.4931, 41.21044
107.9753, 41.69387
108.4574, 42.32179
108.9395, 43.26275
109.4216, 44.67644
109.9037, 46.19307
110.3858, 47.56590
110.8680, 49.07013
111.3501, 50.95148
111.8322, 53.34404
112.3143, 56.23834
112.7964, 59.71060
113.2785, 63.67130
113.7607, 68.22643
114.2428, 73.27333
114.7249, 78.90759
115.2070, 85.48315
115.6891, 93.30067
116.1712, 102.4718
116.6534, 111.7099
117.1355, 122.9999
117.6176, 133.0855
118.0997, 140.1158
118.5818, 144.0274
119.0639, 143.9350
119.5461, 137.0529
120.0282, 125.0466
120.5103, 111.9868
120.9924, 97.75985
121.4745, 83.36253
121.9566, 71.01390
122.4388, 61.17077
122.9209, 53.38114
123.4030, 47.07418
123.8851, 42.15049
124.3672, 38.21772
124.8493, 35.24250
125.3315, 33.27126
125.8136, 31.45613
126.2957, 29.72886
126.7778, 28.19496
127.2599, 26.91674
127.7420, 25.90392
128.2242, 25.09650
128.7063, 24.43588
129.1884, 23.96149
129.6705, 23.56957
130.1526, 23.38067
130.6347, 23.18458
131.1169, 22.80023
131.5990, 22.17390
132.0811, 21.41311
132.5632, 20.75358
133.0453, 20.08644
133.5274, 19.66884
134.0096, 19.66259
134.4917, 19.88761
134.9738, 20.12338
135.4559, 20.28918
135.9380, 20.35491
136.4201, 20.20432
136.9023, 19.69597
137.3844, 19.20792
137.8665, 18.87471
138.3486, 18.68858
138.8307, 18.63534
139.3128, 18.79568
139.7950, 19.05203
140.2771, 19.13505
140.7592, 18.95920
141.2413, 18.67913
141.7234, 18.43461
142.2055, 18.22821
142.6877, 18.04962
143.1698, 17.88128
143.6519, 17.74066
144.1340, 17.66167
144.6161, 17.68441
145.0982, 17.76170
145.5803, 17.76690
146.0625, 17.66155
146.5446, 17.53902
147.0267, 17.39670
147.5088, 17.26603
147.9909, 17.19918
148.4730, 17.24519
148.9552, 17.39625
149.4373, 17.49036
149.9194, 17.49139
150.4015, 17.46299
150.8836, 17.37912
151.3657, 17.27263
151.8479, 17.21091
152.3300, 17.26212
152.8121, 17.45387
153.2942, 17.59062
153.7763, 17.68134
154.2584, 17.72585
154.7406, 17.72676
155.2227, 17.68295
155.7048, 17.58613
156.1869, 17.41869
156.6690, 17.15036
157.1511, 16.91843
157.6333, 16.59353
158.1154, 16.37264
158.5975, 16.51223
159.0796, 17.07587
159.5617, 17.74653
160.0438, 18.07566
160.5260, 18.04810
161.0081, 18.08149
161.4902, 18.38501
161.9723, 18.79358
162.4544, 18.97488
162.9365, 18.78281
163.4187, 18.48534
163.9008, 18.40690
164.3829, 18.53583
164.8650, 18.66586
165.3471, 18.64671
165.8292, 18.50857
166.3113, 18.45772
166.7935, 18.59834
167.2756, 18.78596
167.7577, 18.88685
168.2398, 18.89994
168.7219, 18.94025
169.2040, 19.14162
169.6862, 19.53227
170.1683, 19.88775
170.6504, 20.04290
171.1325, 20.23869
171.6146, 20.65167
172.0967, 21.30274
172.5789, 22.03169
173.0610, 22.57551
173.5431, 22.75793
174.0252, 23.16918
174.5073, 23.80469
174.9894, 24.66123
175.4716, 25.71552
175.9537, 26.96249
176.4358, 28.45868
176.9179, 30.33172
177.4000, 32.93088
177.8821, 35.46647
178.3643, 38.70822
178.8464, 41.55500
179.3285, 42.82837
179.8106, 42.05470
180.2927, 39.68429
180.7748, 36.88744
181.2570, 33.00883
181.7391, 29.51359
182.2212, 26.55254
182.7033, 24.07379
183.1854, 22.02953
183.6675, 20.39786
184.1497, 19.18291
184.6318, 18.47935
185.1139, 18.52885
185.5960, 18.57718
186.0781, 18.34810
186.5602, 17.91250
187.0423, 17.45884
187.5245, 17.04839
188.0066, 16.70753
188.4887, 16.46957
188.9708, 16.34942
189.4529, 16.29979
189.9350, 16.32410
190.4172, 16.41419
190.8993, 16.47474
191.3814, 16.39693
191.8635, 16.30679
192.3456, 16.40639
192.8277, 16.80293
193.3099, 17.21506
193.7920, 17.32085
194.2741, 17.07485
194.7562, 16.86273
195.2383, 16.91764
195.7204, 17.05054
196.2026, 17.10795
196.6847, 17.04401
197.1668, 16.91146
197.6489, 16.74494
198.1310, 16.46388
198.6131, 16.39317
199.0953, 16.82907
199.5774, 17.40208
200.0595, 17.78467
200.5416, 17.84877
201.0237, 17.70538
201.5058, 17.58435
201.9880, 17.45949
202.4701, 17.41331
202.9522, 17.53352
203.4343, 17.69528
203.9164, 17.76841
204.3985, 17.69269
204.8807, 17.51545
205.3628, 17.37023
205.8449, 17.16442
206.3270, 17.13455
206.8091, 17.35635
207.2912, 17.73878
207.7733, 18.19874
208.2555, 18.69536
208.7376, 19.21667
209.2197, 19.71801
209.7018, 20.38148
210.1839, 20.80855
210.6660, 20.75110
211.1482, 20.47412
211.6303, 20.34472
212.1124, 20.55602
212.5945, 21.02901
213.0766, 21.45582
213.5587, 21.75709
214.0409, 22.10727
214.5230, 22.58488
215.0051, 23.13157
215.4872, 23.61221
215.9693, 23.92631
216.4514, 24.18047
216.9336, 24.79558
217.4157, 25.77080
217.8978, 26.99446
218.3799, 28.54587
218.8620, 30.32944
219.3441, 32.11970
219.8263, 33.78616
220.3084, 35.40781
220.7905, 37.17992
221.2726, 39.08087
221.7547, 41.14490
222.2368, 43.34560
222.7190, 45.70958
223.2011, 48.28994
223.6832, 50.92385
224.1653, 54.02299
224.6474, 58.25055
225.1295, 63.97904
225.6117, 69.91610
226.0938, 75.83735
226.5759, 81.57213
227.0580, 85.52817
227.5401, 86.95492
228.0222, 86.15923
228.5043, 83.47643
228.9865, 78.46177
229.4686, 73.44186
229.9507, 70.06502
230.4328, 68.33072
230.9149, 68.21844
231.3970, 70.12879
231.8792, 73.57642
232.3613, 78.08372
232.8434, 83.59462
233.3255, 90.27340
233.8076, 98.25130
234.2897, 107.5259
234.7719, 118.1229
235.2540, 131.2801
235.7361, 145.0848
236.2182, 159.8315
236.7003, 175.3217
237.1824, 187.7933
237.6646, 193.6638
238.1467, 192.8447
238.6288, 185.8285
239.1109, 166.7877
239.5930, 145.4460
240.0751, 125.4048
240.5573, 107.6134
241.0394, 92.58916
241.5215, 81.25709
242.0036, 74.05190
242.4857, 68.71795
242.9678, 65.68533
243.4500, 64.02679
243.9321, 63.50372
244.4142, 64.02334
244.8963, 65.47531
245.3784, 67.66782
245.8605, 70.42705
246.3427, 74.64207
246.8248, 80.87757
247.3069, 87.95489
247.7890, 95.81911
248.2711, 104.1822
248.7532, 112.4169
249.2354, 120.4803
249.7175, 129.5488
250.1996, 132.8447
250.6817, 129.1272
251.1638, 121.6640
251.6459, 110.2167
252.1281, 95.86050
252.6102, 81.15982
253.0923, 68.31904
253.5744, 57.30505
254.0565, 48.98180
254.5386, 44.17067
255.0208, 40.71437
255.5029, 37.86167
255.9850, 35.50834
256.4671, 33.79421
256.9492, 32.88087
257.4313, 32.83768
257.9135, 32.86093
258.3956, 32.78055
258.8777, 32.90565
259.3598, 33.31189
259.8419, 34.02842
260.3240, 35.08191
260.8062, 36.48257
261.2883, 38.23698
261.7704, 40.50352
262.2525, 43.67114
262.7346, 46.85368
263.2167, 49.94460
263.6989, 52.79479
264.1810, 55.14703
264.6631, 56.94104
265.1452, 58.07213
265.6273, 57.58629
266.1094, 54.79013
266.5916, 51.51731
267.0737, 48.00123
267.5558, 44.49274
268.0379, 41.49407
268.5200, 39.29723
269.0021, 37.80473
269.4843, 36.60957
269.9664, 35.69291
270.4485, 35.01183
270.9306, 34.57853
271.4127, 34.37386
271.8948, 34.38471
272.3770, 34.63487
272.8591, 35.04341
273.3412, 35.38902
273.8233, 35.53178
274.3054, 35.88776
274.7875, 36.57344
275.2697, 37.55767
275.7518, 38.82579
276.2339, 40.41428
276.7160, 42.17815
277.1981, 43.79155
277.6802, 45.16311
278.1623, 46.79659
278.6444, 48.77759
279.1266, 51.13111
279.6087, 53.86275
280.0908, 56.95584
280.5729, 60.48876
281.0550, 64.59258
281.5371, 69.18815
282.0193, 74.53616
282.5014, 81.16080
282.9835, 88.42957
283.4656, 95.79282
283.9477, 103.3355
284.4298, 109.9588
284.9120, 114.2872
285.3941, 116.5532
285.8762, 117.4302
286.3583, 116.2615
286.8404, 114.1312
287.3225, 112.0526
287.8047, 110.0355
288.2868, 108.7776
288.7689, 108.9690
289.2510, 110.4368
289.7331, 112.6085
290.2152, 115.5090
290.6974, 119.0094
291.1795, 122.8466
291.6616, 127.0019
292.1437, 131.9675
292.6258, 138.2187
293.1079, 145.5992
293.5901, 153.6014
294.0722, 161.9614
294.5543, 171.1815
295.0364, 181.5526
295.5185, 193.1235
296.0006, 205.9953
296.4828, 220.1365
296.9649, 235.8828
297.4470, 253.1477
297.9291, 271.6307
298.4112, 292.3473
298.8933, 316.0699
299.3755, 342.6209
299.8576, 371.6927
300.3397, 403.8127
300.8218, 437.9240
301.3039, 473.4921
301.7860, 511.0650
302.2682, 545.4711
302.7503, 577.4098
303.2324, 604.6323
303.7145, 620.0909
304.1966, 622.5265
304.6787, 611.5492
305.1609, 585.0758
305.6430, 544.6283
306.1251, 500.1616
306.6072, 452.1633
307.0893, 403.6156
307.5714, 360.5996
308.0536, 323.6312
308.5357, 292.8509
309.0178, 269.6316
309.4999, 252.6988
309.9820, 240.3854
310.4641, 234.6640
310.9463, 232.3016
311.4284, 229.6841
311.9105, 227.2681
312.3926, 221.6702
312.8747, 209.1978
313.3568, 192.1713
313.8390, 174.3258
314.3211, 155.2245
314.8032, 136.7432
315.2853, 120.4889
315.7674, 106.5034
316.2495, 94.59780
316.7317, 85.15268
317.2138, 77.63030
317.6959, 71.08542
318.1780, 65.52567
318.6601, 60.76821
319.1422, 56.84870
319.6243, 53.68586
320.1064, 50.84234
320.5886, 48.22281
321.0707, 45.85518
321.5528, 43.70670
322.0349, 41.76487
322.5170, 40.02369
322.9991, 38.51650
323.4813, 37.21132
323.9634, 36.00682
324.4455, 34.91080
324.9276, 33.87536
325.4097, 32.85558
325.8918, 31.85314
326.3740, 30.92943
326.8561, 30.08060
327.3382, 29.32923
327.8203, 28.73064
328.3024, 28.30971
328.7845, 27.93019
329.2667, 27.46297
329.7488, 26.95979
330.2309, 26.55421
330.7130, 26.37035
331.1951, 26.22551
331.6772, 25.92077
332.1594, 25.45858
332.6415, 24.98828
333.1236, 24.52406
333.6057, 24.14084
334.0878, 23.97846
334.5699, 24.16096
335.0521, 24.34635
335.5342, 24.32012
336.0163, 24.11171
336.4984, 23.81496
336.9805, 23.38479
337.4626, 22.99366
337.9448, 22.94752
338.4269, 23.28590
338.9090, 23.59932
339.3911, 23.72308
339.8732, 23.71290
340.3553, 23.63361
340.8375, 23.46893
341.3196, 23.35924
341.8017, 23.53622
342.2838, 23.96678
342.7659, 24.27894
343.2480, 24.21926
343.7302, 24.11087
344.2123, 24.34958
344.6944, 24.95937
345.1765, 25.59749
345.6586, 25.99196
346.1407, 26.19085
346.6229, 26.53961
347.1050, 26.98726
347.5871, 27.62977
348.0692, 28.74770
348.5513, 30.17070
349.0334, 31.26898
349.5156, 31.69017
349.9977, 31.61458
350.4798, 31.52607
350.9619, 31.46802
351.4440, 31.32190
351.9261, 30.99557
352.4083, 30.57025
352.8904, 30.17589
353.3725, 29.85348
353.8546, 29.56135
354.3367, 29.19975
354.8188, 28.68884
355.3010, 28.46975
355.7831, 28.79335
356.2652, 29.29389
356.7473, 29.61477
357.2294, 29.72914
357.7115, 29.88365
358.1937, 30.29535
358.6758, 30.98047
359.1579, 31.72397
359.6400, 32.54140
360.1221, 33.39579
360.6042, 34.25547
361.0863, 35.13581
361.5685, 36.06549
362.0506, 37.06365
362.5327, 38.12737
363.0148, 39.25127
363.4969, 40.46907
363.9790, 41.69701
364.4612, 42.82434
364.9433, 43.99611
365.4254, 45.34628
365.9075, 46.92368
366.3896, 48.74433
366.8717, 50.83780
367.3539, 53.25547
367.8360, 55.87729
368.3181, 58.47590
368.8002, 61.42041
369.2823, 65.01350
369.7644, 69.22269
370.2466, 73.78575
370.7287, 78.46245
371.2108, 83.22856
371.6929, 88.59204
372.1750, 94.85277
372.6571, 101.3585
373.1393, 107.9601
373.6214, 114.6992
374.1035, 121.9000
374.5856, 129.7599
375.0677, 137.8805
375.5498, 145.0333
376.0320, 150.9800
376.5141, 156.1838
376.9962, 161.2485
377.4783, 165.3537
377.9604, 167.5130
378.4425, 167.5984
378.9247, 166.5594
379.4068, 165.5622
379.8889, 164.5497
380.3710, 163.7867
380.8531, 162.3853
381.3352, 162.0330
381.8174, 163.5584
382.2995, 166.8316
382.7816, 171.2657
383.2637, 176.3997
383.7458, 182.2982
384.2279, 189.3866
384.7101, 197.9525
385.1922, 207.4148
385.6743, 218.4169
386.1564, 229.7589
386.6385, 240.4094
387.1206, 250.0178
387.6028, 258.0506
388.0849, 264.2184
388.5670, 269.0123
389.0491, 269.4645
389.5312, 263.3647
390.0133, 253.4040
390.4955, 240.3339
390.9776, 224.4723
391.4597, 207.5898
391.9418, 190.6123
392.4239, 173.5982
392.9060, 157.1455
393.3882, 140.7777
393.8703, 125.9948
394.3524, 113.8594
394.8345, 103.8471
395.3166, 95.00926
395.7987, 87.12211
396.2809, 80.17695
396.7630, 74.33401
397.2451, 69.57656
397.7272, 65.50195
398.2093, 62.00499
398.6914, 59.08065
399.1736, 56.63172
399.6557, 54.66254
400.1378, 53.07115
400.6199, 51.91960
401.1020, 51.09814
401.5841, 50.25117
402.0662, 49.22154
402.5483, 48.38304
403.0305, 48.29882
403.5126, 48.91310
403.9947, 49.56416
404.4768, 49.96295
404.9589, 50.46369
405.4410, 51.45462
405.9232, 52.91711
406.4053, 54.52625
406.8874, 56.11043
407.3695, 57.65171
407.8516, 59.12376
408.3337, 60.78471
408.8159, 62.08899
409.2980, 62.96430
409.7801, 63.35688
410.2622, 63.15866
410.7443, 62.32644
411.2264, 60.97619
411.7086, 59.27843
412.1907, 57.16575
412.6728, 54.80548
413.1549, 51.95431
413.6370, 49.05503
414.1191, 46.23433
414.6013, 43.60582
415.0834, 41.40896
415.5655, 39.84915
416.0476, 38.90089
416.5297, 38.23011
417.0118, 37.97688
417.4940, 37.85810
417.9761, 37.81482
418.4582, 37.88708
418.9403, 38.15133
419.4224, 38.63408
419.9045, 39.24780
420.3867, 39.89531
420.8688, 40.71582
421.3509, 41.17788
421.8330, 41.11449
422.3151, 40.83234
422.7972, 40.41069
423.2794, 39.90004
423.7615, 39.36931
424.2436, 38.81794
424.7257, 38.28675
425.2078, 38.05457
425.6899, 38.21240
426.1721, 38.52730
426.6542, 38.94057
427.1363, 39.43200
427.6184, 39.95267
428.1005, 40.46635
428.5826, 41.11467
429.0648, 42.05466
429.5469, 43.29187
430.0290, 44.75980
430.5111, 46.46304
430.9932, 48.38668
431.4753, 50.64278
431.9575, 53.16311
432.4396, 55.39547
432.9217, 57.13388
433.4038, 58.38993
433.8859, 59.23672
434.3680, 59.69527
434.8502, 59.53395
435.3323, 58.45969
435.8144, 56.63468
436.2965, 54.61995
436.7786, 52.17580
437.2607, 49.93333
437.7429, 48.19218
438.2250, 46.91358
438.7071, 45.99976
439.1892, 45.41455
439.6713, 45.22417
440.1534, 45.58832
440.6356, 46.63204
441.1177, 47.71526
441.5998, 49.10208
442.0819, 50.28162
442.5640, 51.05025
443.0461, 51.30125
443.5282, 50.80981
444.0103, 49.41588
444.4925, 47.17036
444.9746, 44.33556
445.4567, 40.18799
445.9388, 36.35064
446.4209, 32.90052
446.9030, 29.91101
447.3852, 27.45841
447.8673, 25.55991
448.3494, 24.06947
448.8315, 22.81401
449.3136, 21.79395
449.7957, 21.01334
450.2779, 20.71111
450.7600, 20.41284
451.2421, 19.85844
451.7242, 19.20043
452.2063, 18.75962
452.6884, 18.73952
453.1706, 18.96493
453.6527, 19.00189
454.1348, 18.75266
454.6169, 18.62421
455.0990, 18.87464
455.5811, 19.17972
456.0633, 19.29474
456.5454, 19.20552
457.0275, 19.12016
457.5096, 19.22188
457.9917, 19.45355
458.4738, 19.59902
458.9560, 19.61370
459.4381, 19.63233
459.9202, 19.73243
460.4023, 19.90204
460.8844, 20.13451
461.3665, 20.46516
461.8487, 20.80521
462.3308, 21.10686
462.8129, 21.36596
463.2950, 21.53886
463.7771, 21.57639
464.2592, 21.62312
464.7414, 21.94608
465.2235, 22.61203
465.7056, 23.06708
466.1877, 23.01540
466.6698, 22.91187
467.1519, 23.15636
467.6341, 23.70869
468.1162, 24.27305
468.5983, 24.66603
469.0804, 24.91387
469.5625, 25.12073
470.0446, 25.01684
470.5268, 25.22246
471.0089, 26.07518
471.4910, 27.09011
471.9731, 27.72063
472.4552, 27.91683
472.9373, 28.13275
473.4195, 28.87536
473.9016, 30.17691
474.3837, 31.54353
474.8658, 33.15623
475.3479, 34.62053
475.8300, 35.70532
476.3122, 36.60696
476.7943, 37.62451
477.2764, 38.88431
477.7585, 40.25984
478.2406, 41.55762
478.7227, 42.75483
479.2049, 44.03065
479.6870, 45.41144
480.1691, 46.89656
480.6512, 48.46416
481.1333, 50.11452
481.6154, 51.86673
482.0976, 53.66011
482.5797, 55.59254
483.0618, 57.89128
483.5439, 60.56716
484.0260, 63.23241
484.5081, 65.61530
484.9902, 67.95106
485.4724, 70.76331
485.9545, 74.19320
486.4366, 77.63081
486.9187, 80.83986
487.4008, 83.96928
487.8829, 87.21655
488.3651, 90.61590
488.8472, 94.06219
489.3293, 97.45960
489.8114, 100.8263
490.2935, 104.0300
490.7756, 107.0974
491.2578, 109.9963
491.7399, 112.7154
492.2220, 115.2494
492.7041, 117.6308
493.1862, 119.8524
493.6683, 121.7955
494.1505, 123.2361
494.6326, 124.0253
495.1147, 124.8884
495.5968, 125.7771
496.0789, 126.7868
496.5610, 127.9770
497.0432, 129.3112
497.5253, 130.7390
498.0074, 132.2339
498.4895, 133.7721
498.9716, 135.2880
499.4537, 136.7668
499.9359, 138.3320
500.4180, 140.0655
500.9001, 141.8729
501.3822, 143.7289
501.8643, 145.6172
502.3464, 147.3456
502.8286, 149.0186
503.3107, 150.4040
503.7928, 151.1790
504.2749, 151.3300
504.7570, 150.9538
505.2391, 150.0938
505.7213, 148.7269
506.2034, 146.8517
506.6855, 144.4956
507.1676, 141.6772
507.6497, 138.2231
508.1318, 134.4018
508.6140, 130.4100
509.0961, 126.3298
509.5782, 122.3735
510.0603, 118.7382
510.5424, 115.4180
511.0245, 112.3191
511.5067, 109.4728
511.9888, 106.8217
512.4709, 104.3201
512.9530, 102.0189
513.4351, 99.93542
513.9172, 98.08691
514.3994, 96.56190
514.8815, 95.42692
515.3636, 94.66615
515.8457, 94.47202
516.3278, 95.03307
516.8099, 95.95338
517.2921, 97.04356
517.7742, 98.34859
518.2563, 99.95352
518.7384, 101.9175
519.2205, 104.1089
519.7026, 106.3220
520.1848, 108.5986
520.6669, 111.2398
521.1490, 114.2432
521.6311, 117.7557
522.1132, 122.0520
522.5953, 127.0209
523.0775, 132.1601
523.5596, 137.0278
524.0417, 142.3304
524.5238, 148.6447
525.0059, 155.7694
525.4880, 163.1838
525.9702, 170.6389
526.4523, 178.3237
526.9344, 186.6192
527.4165, 195.2966
527.8986, 205.2508
528.3807, 217.1542
528.8629, 229.6465
529.3450, 241.8402
529.8271, 253.9873
530.3092, 266.8323
530.7913, 280.8124
531.2734, 295.6154
531.7556, 310.7290
532.2377, 326.4083
532.7198, 341.5606
533.2019, 355.8153
533.6840, 369.6452
534.1661, 384.0162
534.6483, 398.4687
535.1304, 411.1747
535.6125, 421.3105
536.0946, 428.9946
536.5767, 434.3893
537.0588, 437.4685
537.5410, 438.8642
538.0231, 439.1343
538.5052, 437.4240
538.9873, 432.3329
539.4694, 423.6935
539.9515, 413.8592
540.4337, 403.2665
540.9158, 391.8824
541.3979, 379.5475
541.8800, 366.3561
542.3621, 352.5945
542.8442, 338.4869
543.3264, 323.9935
543.8085, 308.9332
544.2906, 292.5064
544.7726, 276.7536
545.2548, 262.1542
545.7369, 247.9093
546.2190, 233.3156
546.7011, 218.5247
547.1832, 204.2156
547.6653, 190.9781
548.1475, 178.7577
548.6296, 167.6389
549.1117, 157.8635
549.5938, 148.6000
550.0759, 139.3038
550.5580, 130.6722
551.0402, 123.3047
551.5223, 117.2374
552.0044, 111.8655
552.4865, 106.9012
552.9686, 102.3580
553.4507, 98.28612
553.9329, 94.68802
554.4150, 91.37090
554.8971, 88.23291
555.3792, 85.31316
555.8613, 82.78347
556.3434, 80.74624
556.8256, 78.74754
557.3077, 76.60779
557.7898, 74.52016
558.2719, 72.71458
558.7540, 71.16391
559.2361, 69.68278
559.7183, 68.12595
560.2004, 66.54805
560.6825, 65.13356
561.1646, 63.91317
561.6467, 62.83691
562.1288, 61.97918
562.6110, 61.17770
563.0931, 60.29011
563.5752, 59.33270
564.0573, 58.43370
564.5394, 57.67038
565.0215, 57.03557
565.5037, 56.54779
565.9858, 56.23350
566.4679, 55.86872
566.9500, 55.26725
567.4321, 54.66746
567.9142, 54.37446
568.3964, 54.39987
568.8785, 54.53846
569.3606, 54.76801
569.8427, 55.04668
570.3248, 55.33051
570.8069, 55.62104
571.2891, 55.93608
571.7712, 56.27065
572.2533, 56.67076
572.7354, 57.25960
573.2175, 58.30094
573.6996, 59.06015
574.1818, 59.21284
574.6639, 59.39112
575.1460, 60.00257
575.6281, 60.97273
576.1102, 61.99775
576.5923, 62.89047
577.0745, 63.76665
577.5566, 64.92657
578.0387, 66.43832
578.5208, 67.84646
579.0029, 68.93401
579.4850, 70.01594
579.9672, 71.27835
580.4493, 72.72276
580.9314, 74.34518
581.4135, 76.22267
581.8956, 78.21197
582.3777, 80.15800
582.8599, 82.09496
583.3420, 84.16927
583.8241, 86.42374
584.3062, 88.89457
584.7883, 91.70075
585.2704, 95.00114
585.7526, 97.85774
586.2347, 99.70708
586.7168, 101.7579
587.1989, 104.6682
587.6810, 108.0863
588.1631, 111.4440
588.6453, 114.5220
589.1274, 117.4742
589.6095, 120.4765
590.0916, 123.5340
590.5737, 126.6464
591.0558, 129.8508
591.5380, 133.0733
592.0201, 136.5625
592.5022, 139.9389
592.9843, 142.5495
593.4664, 144.0966
593.9485, 145.3459
594.4307, 147.0179
594.9128, 148.7887
595.3949, 149.8732
595.8770, 150.1353
596.3591, 149.9733
596.8412, 149.6492
597.3234, 149.1629
597.8055, 148.5061
598.2876, 147.8640
598.7697, 146.8422
599.2518, 145.3019
599.7339, 143.3965
600.2161, 141.2318
600.6982, 138.8382
601.1803, 136.2491
601.6624, 133.4831
602.1445, 130.5294
602.6266, 127.3436
603.1088, 123.8022
603.5909, 120.3791
604.0730, 117.3777
604.5551, 114.4157
605.0372, 111.1986
605.5193, 107.7377
606.0015, 104.3808
606.4836, 101.2795
606.9657, 98.35683
607.4478, 95.55981
607.9299, 92.88222
608.4120, 90.23450
608.8942, 87.56681
609.3763, 85.00628
609.8584, 82.75292
610.3405, 80.91551
610.8226, 79.03477
611.3047, 76.92751
611.7869, 74.97208
612.2690, 73.43859
612.7511, 72.14966
613.2332, 70.77404
613.7153, 69.18945
614.1974, 67.62815
614.6796, 66.45696
615.1617, 65.69533
615.6438, 64.76228
616.1259, 63.47447
616.6080, 62.30065
617.0901, 61.47514
617.5723, 60.90371
618.0544, 60.50878
618.5365, 60.32951
619.0186, 60.13244
619.5007, 59.69371
619.9828, 59.18623
620.4650, 58.92132
620.9471, 58.91590
621.4292, 58.92743
621.9113, 58.79266
622.3934, 58.54942
622.8755, 58.34142
623.3577, 57.99517
623.8398, 57.95301
624.3219, 58.45832
624.8040, 59.05901
625.2861, 59.47714
625.7682, 59.72221
626.2504, 59.91335
626.7325, 60.09361
627.2145, 60.32082
627.6967, 60.70982
628.1788, 61.26583
628.6609, 61.91913
629.1430, 62.78570
629.6251, 63.54535
630.1072, 63.76184
630.5894, 63.59816
631.0715, 63.65144
631.5536, 64.16788
632.0357, 64.74738
632.5178, 65.17538
632.9999, 65.54033
633.4821, 66.05043
633.9642, 66.72022
634.4463, 67.27390
634.9284, 67.43120
635.4105, 67.21880
635.8926, 67.00990
636.3748, 66.70436
636.8569, 66.57252
637.3390, 66.93951
637.8211, 67.27644
638.3032, 67.04819
638.7853, 66.29735
639.2675, 65.61680
639.7496, 65.44698
640.2317, 65.52934
640.7138, 65.46354
641.1959, 65.25726
641.6780, 64.99746
642.1602, 64.69200
642.6423, 64.40236
643.1244, 64.22940
643.6065, 64.20855
644.0886, 64.06734
644.5707, 63.54559
645.0529, 63.19225
645.5350, 63.31725
646.0171, 63.71559
646.4992, 64.11115
646.9813, 64.41824
647.4634, 64.69920
647.9456, 65.04575
648.4277, 65.44133
648.9098, 65.66666
649.3919, 65.64668
649.8740, 65.64994
650.3561, 65.84036
650.8383, 66.06652
651.3204, 66.19766
651.8025, 66.23184
652.2846, 66.06396
652.7667, 65.48841
653.2488, 64.81790
653.7310, 64.38543
654.2131, 64.13419
654.6952, 63.88765
655.1773, 63.58329
655.6594, 63.06580
656.1415, 62.03944
656.6237, 60.36138
657.1058, 58.85244
657.5879, 57.75283
658.0700, 56.55906
658.5521, 55.10285
659.0342, 53.48976
659.5164, 51.83950
659.9985, 50.17888
660.4806, 48.55220
660.9627, 47.02755
661.4448, 45.55811
661.9269, 43.99625
662.4091, 42.33736
662.8912, 40.71295
663.3733, 39.17863
663.8554, 37.71315
664.3375, 36.27413
664.8196, 34.81785
665.3018, 33.52762
665.7839, 32.41870
666.2660, 31.45841
666.7481, 30.73161
667.2302, 30.11184
667.7123, 29.39334
668.1945, 28.49615
668.6766, 27.52314
669.1587, 26.52750
669.6408, 25.52587
670.1229, 24.81719
670.6050, 24.51094
671.0872, 24.20314
671.5693, 23.66462
672.0514, 23.02313
672.5335, 22.52111
673.0156, 22.20607
673.4977, 21.81673
673.9799, 21.12670
674.4620, 20.45880
674.9441, 20.14817
675.4262, 20.09324
675.9083, 19.96572
676.3904, 19.61881
676.8726, 19.18360
677.3547, 18.83772
677.8368, 18.55816
678.3189, 18.54721
678.8010, 19.09269
679.2831, 19.48688
679.7653, 19.40654
680.2474, 19.05747
680.7295, 18.64384
681.2116, 18.18718
681.6937, 17.80134
682.1758, 17.54778
682.6580, 17.40130
683.1401, 17.39130
683.6222, 17.47609
684.1043, 17.45740
684.5864, 17.23629
685.0685, 16.90775
685.5507, 16.61559
686.0328, 16.31772
686.5149, 16.22621
686.9970, 16.63092
687.4791, 16.91717
687.9612, 16.81298
688.4434, 16.53377
688.9255, 16.35787
689.4076, 16.34834
689.8897, 16.34361
690.3718, 16.18165
690.8539, 15.95225
691.3361, 15.82849
691.8182, 15.81347
692.3003, 15.88227
692.7824, 16.06289
693.2645, 16.21416
693.7466, 16.07055
694.2288, 15.48584
694.7109, 15.22581
695.1930, 15.58124
695.6751, 15.90066
696.1572, 15.96205
696.6393, 15.85396
697.1215, 15.63996
697.6036, 15.36273
698.0857, 15.18371
698.5678, 15.30175
699.0499, 15.61899
699.5320, 15.88343
700.0142, 16.09684
700.4963, 16.14528
700.9784, 15.90147
701.4605, 15.62665
701.9426, 15.72620
702.4247, 16.27525
702.9069, 16.59623
703.3890, 16.54405
703.8711, 16.42015
704.3532, 16.31766
704.8353, 16.22035
705.3174, 16.05345
705.7996, 15.83318
706.2817, 15.72291
706.7638, 15.90885
707.2459, 16.29124
707.7280, 16.56132
708.2101, 16.71281
708.6923, 16.79551
709.1743, 16.79049
709.6564, 16.77160
710.1385, 16.82140
710.6207, 16.93474
711.1028, 17.04930
711.5849, 17.23086
712.0670, 17.33015
712.5491, 17.15488
713.0313, 16.94496
713.5134, 17.01403
713.9955, 17.36690
714.4776, 17.74855
714.9597, 17.96488
715.4418, 18.08272
715.9240, 18.31240
716.4061, 18.67883
716.8882, 18.92456
717.3703, 18.96969
717.8524, 18.92966
718.3345, 18.85839
718.8167, 18.77552
719.2988, 18.75312
719.7809, 18.84304
720.2630, 18.92406
720.7451, 18.89599
721.2272, 18.88010
721.7094, 19.06638
722.1915, 19.39776
722.6736, 19.60926
723.1557, 19.53284
723.6378, 19.31203
724.1199, 19.27625
724.6021, 19.45673
725.0842, 19.39052
725.5663, 18.88606
726.0484, 18.42954
726.5305, 18.35781
727.0126, 18.52826
727.4948, 18.67832
727.9769, 18.84108
728.4590, 18.84866
728.9411, 18.50512
729.4232, 18.10864
729.9053, 17.92994
730.3875, 17.91072
730.8696, 17.83283
731.3517, 17.60630
731.8338, 17.39720
732.3159, 17.52603
732.7980, 17.99120
733.2802, 18.06887
733.7623, 17.60101
734.2444, 17.19307
734.7265, 17.11613
735.2086, 17.22432
735.6907, 17.33606
736.1729, 17.45751
736.6550, 17.49382
737.1371, 17.36744
737.6192, 17.21045
738.1013, 17.00073
738.5834, 16.85079
739.0656, 17.03221
739.5477, 17.55285
740.0298, 17.98224
740.5119, 17.87213
740.9940, 17.35452
741.4761, 16.94088
741.9583, 16.61177
742.4404, 16.52638
742.9225, 16.82949
743.4046, 17.24923
743.8867, 17.56650
744.3688, 17.78145
744.8510, 17.87257
745.3331, 17.83396
745.8152, 17.67660
746.2973, 17.23617
746.7794, 16.79161
747.2615, 16.67863
747.7437, 16.85798
748.2258, 17.04905
748.7079, 17.09070
749.1900, 17.00705
749.6721, 16.77935
750.1542, 16.41232
750.6364, 16.23220
751.1185, 16.31970
751.6006, 16.46220
752.0827, 16.57663
752.5648, 16.63267
753.0469, 16.52013
753.5291, 16.10845
754.0112, 15.88765
754.4933, 16.14464
754.9754, 16.38947
755.4575, 16.24082
755.9396, 15.88557
756.4218, 15.69692
756.9039, 15.79110
757.3860, 15.95139
757.8681, 15.93884
758.3502, 15.80583
758.8323, 15.73868
759.3145, 15.74069
759.7966, 15.76489
760.2787, 15.80851
760.7608, 15.83377
761.2429, 15.77956
761.7250, 15.63369
762.2072, 15.55503
762.6893, 15.63663
763.1714, 15.66100
763.6535, 15.51422
764.1356, 15.33401
764.6177, 15.22262
765.0999, 15.19993
765.5820, 15.26573
766.0641, 15.44155
766.5462, 15.66530
767.0283, 15.90070
767.5104, 16.11939
767.9926, 16.18538
768.4747, 16.07362
768.9568, 15.92296
769.4389, 15.81470
769.9210, 15.76302
770.4031, 15.82751
770.8853, 16.13701
771.3674, 16.31007
771.8495, 16.28913
772.3316, 16.20046
772.8137, 16.02527
773.2958, 15.84308
773.7780, 15.77326
774.2601, 15.84612
774.7422, 15.96728
775.2243, 16.05941
775.7064, 16.17854
776.1885, 16.44979
776.6707, 16.81818
777.1528, 17.07660
777.6349, 17.15357
778.1170, 17.14978
778.5991, 17.17610
779.0812, 17.23287
779.5634, 17.34459
780.0455, 17.58873
780.5276, 17.71039
781.0097, 17.53810
781.4918, 17.32213
781.9739, 17.19565
782.4561, 17.17928
782.9382, 17.35944
783.4203, 17.94669
783.9024, 18.44743
784.3845, 18.51888
784.8666, 18.44691
785.3488, 18.56799
785.8309, 18.87742
786.3130, 19.19276
786.7951, 19.41454
787.2772, 19.57938
787.7593, 19.74926
788.2415, 19.92266
788.7236, 20.05645
789.2057, 20.14708
789.6878, 20.18884
790.1699, 20.09318
790.6520, 20.02362
791.1342, 20.33158
791.6162, 21.12100
792.0983, 21.63691
792.5804, 21.53515
793.0626, 21.50731
793.5447, 22.02176
794.0268, 22.64119
794.5089, 22.75485
794.9910, 22.36933
795.4731, 22.09977
795.9553, 22.41677
796.4374, 22.98154
796.9195, 23.30454
797.4016, 23.42294
797.8837, 23.47178
798.3658, 23.47379
798.8480, 23.48725
799.3301, 23.54582
799.8122, 23.66014
800.2943, 23.88193
800.7764, 24.36993
801.2585, 24.62611
801.7407, 24.38425
802.2228, 24.19103
802.7049, 24.27746
803.1870, 24.52632
803.6691, 24.81495
804.1512, 25.12993
804.6334, 25.28879
805.1155, 24.97433
805.5976, 24.65736
806.0797, 24.87755
806.5618, 25.41798
807.0439, 25.78191
807.5261, 25.84259
808.0082, 25.83044
808.4903, 25.95238
808.9724, 26.18309
809.4545, 26.42695
809.9366, 26.68165
810.4188, 26.97815
810.9009, 27.34378
811.3830, 27.70549
811.8651, 27.99481
812.3472, 28.23761
812.8293, 28.52712
813.3115, 28.86493
813.7936, 29.24174
814.2757, 29.66070
814.7578, 30.11256
815.2399, 30.58857
815.7220, 31.09093
816.2042, 31.61687
816.6863, 32.16571
817.1684, 32.76914
817.6505, 33.49081
818.1326, 34.26098
818.6147, 34.92157
819.0969, 35.50091
819.5790, 36.18206
820.0611, 37.02226
820.5432, 37.84639
821.0253, 38.45905
821.5074, 38.91986
821.9896, 39.63009
822.4717, 40.74108
822.9538, 41.76337
823.4359, 42.42440
823.9180, 43.22429
824.4001, 44.53547
824.8823, 46.13993
825.3644, 47.59304
825.8465, 48.76162
826.3286, 50.03767
826.8107, 51.70907
827.2928, 53.42987
827.7750, 54.91853
828.2571, 56.23323
828.7392, 57.48867
829.2213, 58.73763
829.7034, 60.01727
830.1855, 61.28925
830.6677, 62.67470
831.1498, 64.63643
831.6319, 67.14398
832.1140, 69.50861
832.5961, 71.56278
833.0782, 73.47706
833.5604, 75.38316
834.0425, 77.27184
834.5246, 79.16167
835.0067, 81.05049
835.4888, 82.92083
835.9709, 84.79001
836.4531, 86.60769
836.9352, 88.39470
837.4173, 90.11256
837.8994, 91.69512
838.3815, 93.12892
838.8636, 94.55226
839.3458, 96.26476
839.8279, 97.80004
840.3100, 98.63255
840.7921, 99.00085
841.2742, 99.43587
841.7563, 100.0133
842.2385, 100.3674
842.7206, 100.2018
843.2027, 99.60925
843.6848, 98.80543
844.1669, 97.79573
844.6490, 96.52393
845.1312, 94.93211
845.6133, 93.28642
846.0954, 91.72743
846.5775, 90.24536
847.0596, 88.85661
847.5417, 87.69392
848.0239, 86.20837
848.5060, 83.91709
848.9881, 81.89478
849.4702, 80.73673
849.9523, 79.84867
850.4344, 78.60136
850.9166, 76.95927
851.3987, 75.25695
851.8808, 73.50440
852.3629, 71.93782
852.8450, 70.83853
853.3271, 70.00343
853.8093, 69.19537
854.2914, 68.33583
854.7735, 67.24353
855.2556, 65.81874
855.7377, 64.25733
856.2198, 62.82641
856.7020, 61.53014
857.1841, 60.61722
857.6662, 60.17908
858.1483, 59.65083
858.6304, 58.77326
859.1125, 57.82173
859.5947, 57.16703
860.0768, 56.81305
860.5589, 56.16522
861.0410, 54.90107
861.5231, 53.80740
862.0052, 53.11711
862.4874, 52.48562
862.9695, 51.59821
863.4516, 50.59972
863.9337, 49.88417
864.4158, 49.60653
864.8979, 49.31312
865.3801, 48.59152
865.8622, 47.82104
866.3443, 47.50139
866.8264, 47.46349
867.3085, 47.24458
867.7906, 46.72601
868.2728, 46.16796
868.7549, 45.82903
869.2370, 45.61595
869.7191, 45.24403
870.2012, 44.71524
870.6833, 44.19086
871.1655, 43.67883
871.6476, 43.26202
872.1297, 43.01606
872.6118, 42.88707
873.0939, 42.74273
873.5760, 42.57007
874.0581, 42.42024
874.5402, 42.20605
875.0223, 42.12412
875.5045, 42.46069
875.9866, 42.79685
876.4687, 42.57550
876.9508, 41.86237
877.4329, 41.44890
877.9150, 41.78517
878.3972, 42.23522
878.8793, 42.52615
879.3614, 42.70971
879.8435, 42.82540
880.3256, 42.88988
880.8077, 42.91471
881.2899, 42.90421
881.7720, 42.89534
882.2541, 42.89582
882.7362, 42.93910
883.2183, 43.10126
883.7004, 43.38921
884.1826, 43.89744
884.6647, 44.66956
885.1468, 45.50037
885.6289, 46.19647
886.1110, 46.76829
886.5931, 47.24088
887.0753, 47.53455
887.5574, 47.97528
888.0395, 48.64949
888.5216, 49.39079
889.0037, 50.12817
889.4858, 50.87491
889.9680, 51.63534
890.4501, 52.38965
890.9322, 53.28475
891.4143, 54.43049
891.8964, 55.61909
892.3785, 56.80159
892.8607, 57.95617
893.3428, 59.01891
893.8249, 60.02868
894.3070, 61.09973
894.7891, 62.26978
895.2712, 63.56857
895.7534, 65.07549
896.2355, 66.69358
896.7176, 68.21445
897.1997, 69.67835
897.6818, 71.37318
898.1639, 73.38693
898.6461, 75.36792
899.1282, 76.88076
899.6103, 78.03806
900.0924, 79.37891
900.5745, 80.91407
901.0566, 82.31506
901.5388, 83.49072
902.0209, 84.68000
902.5030, 86.13976
902.9851, 87.65947
903.4672, 88.61434
903.9493, 88.76209
904.4315, 89.04014
904.9136, 89.72884
905.3957, 90.18102
905.8778, 90.16365
906.3599, 89.85155
906.8420, 89.39908
907.3242, 88.81321
907.8063, 88.05315
908.2884, 87.13314
908.7705, 86.00986
909.2526, 84.67958
909.7347, 83.14021
910.2169, 81.38079
910.6990, 79.41065
911.1811, 77.14891
911.6632, 74.58409
912.1453, 72.09773
912.6274, 70.09992
913.1096, 68.29909
913.5917, 66.27121
914.0738, 64.07949
914.5559, 61.85313
915.0380, 59.63978
915.5201, 57.53106
916.0023, 55.56747
916.4844, 53.80230
916.9665, 52.47381
917.4486, 51.57090
917.9307, 50.04073
918.4128, 47.69091
918.8950, 45.48851
919.3771, 43.80583
919.8592, 42.45963
920.3413, 41.28165
920.8234, 40.25556
921.3055, 39.01235
921.7877, 37.23914
922.2698, 35.80318
922.7519, 35.00096
923.2340, 34.34998
923.7161, 33.68647
924.1982, 32.98225
924.6804, 32.16277
925.1625, 31.18647
925.6446, 30.33032
926.1267, 29.80892
926.6088, 29.25548
927.0909, 28.39130
927.5731, 27.46572
928.0552, 26.74759
928.5373, 26.24870
929.0194, 25.86815
929.5015, 25.59695
929.9836, 25.29933
930.4658, 24.84025
930.9479, 24.29124
931.4300, 23.66364
931.9121, 23.04185
932.3942, 22.69771
932.8763, 22.68969
933.3585, 22.72916
933.8406, 22.56256
934.3227, 22.23538
934.8048, 21.79557
935.2869, 21.27124
935.7690, 20.93372
936.2512, 20.82772
936.7333, 20.78472
937.2154, 20.73540
937.6975, 20.61208
938.1796, 20.25425
938.6617, 19.63656
939.1439, 19.39394
939.6260, 19.70158
940.1081, 19.89696
940.5902, 19.76341
941.0723, 19.57871
941.5544, 19.56551
942.0366, 19.67257
942.5187, 19.73443
943.0008, 19.79999
943.4829, 19.70684
943.9650, 19.30011
944.4471, 18.91275
944.9293, 18.65228
945.4114, 18.48433
945.8935, 18.41369
946.3756, 18.40999
946.8577, 18.32521
947.3398, 18.00277
947.8220, 17.79033
948.3041, 17.94406
948.7862, 18.20383
949.2683, 18.36260
949.7504, 18.43461
950.2325, 18.47639
950.7147, 18.51035
951.1968, 18.57267
951.6789, 18.72513
952.1610, 18.88199
952.6431, 18.86899
953.1252, 18.80062
953.6074, 19.00753
954.0895, 19.44847
954.5716, 19.66285
955.0537, 19.41425
955.5358, 19.09690
956.0179, 19.34072
956.5000, 19.97767
956.9821, 20.19789
957.4642, 20.01979
957.9464, 19.84265
958.4285, 19.74850
958.9106, 19.83616
959.3927, 20.21936
959.8748, 20.74785
960.3569, 20.96560
960.8391, 20.75715
961.3212, 20.93476
961.8033, 21.70310
962.2854, 22.25448
962.7675, 22.17082
963.2496, 21.97141
963.7318, 22.20002
964.2139, 22.79602
964.6960, 23.30569
965.1781, 23.69218
965.6602, 24.04930
966.1423, 24.26527
966.6245, 24.58268
967.1066, 25.19021
967.5887, 25.90251
968.0708, 26.46900
968.5529, 26.88497
969.0350, 27.37078
969.5172, 28.05480
969.9993, 28.70394
970.4814, 29.22316
970.9635, 29.69648
971.4456, 30.10888
971.9277, 30.54932
972.4099, 31.19154
972.8920, 32.07255
973.3741, 32.97242
973.8562, 33.71141
974.3383, 34.48147
974.8204, 35.54321
975.3026, 36.66162
975.7847, 37.48148
976.2668, 38.03620
976.7489, 38.57717
977.2310, 39.21247
977.7131, 39.90718
978.1953, 40.67834
978.6774, 41.45397
979.1595, 42.09844
979.6416, 42.64930
980.1237, 43.21229
980.6058, 43.80835
981.0880, 44.42267
981.5701, 45.06176
982.0522, 45.57845
982.5343, 45.62868
983.0164, 45.30972
983.4985, 45.21235
983.9807, 45.33552
984.4628, 45.25394
984.9449, 44.83584
985.4270, 44.27704
985.9091, 43.75227
986.3912, 43.20381
986.8734, 42.44176
987.3555, 41.44828
987.8376, 40.36238
988.3197, 39.13967
988.8018, 38.03741
989.2839, 37.22533
989.7661, 36.40442
990.2482, 35.20118
990.7303, 33.69510
991.2124, 32.44995
991.6945, 31.60788
992.1766, 30.68835
992.6588, 29.61470
993.1409, 28.53243
993.6230, 27.40135
994.1051, 26.36957
994.5872, 25.70004
995.0693, 25.38686
995.5515, 24.93959
996.0336, 24.30150
996.5157, 23.59823
996.9978, 22.70155
997.4799, 21.89908
997.9620, 21.37267
998.4442, 21.02362
998.9263, 20.72573
999.4084, 20.46539
999.8905, 20.20233
1000.373, 19.93718
1000.855, 19.65582
1001.337, 19.34863
1001.819, 19.03029
1002.301, 18.68752
1002.783, 18.35279
1003.265, 18.06507
1003.747, 17.83555
1004.230, 17.72655
1004.712, 17.90739
1005.194, 18.05935
1005.676, 17.89211
1006.158, 17.63970
1006.640, 17.59044
1007.122, 17.70270
1007.604, 17.76631
1008.086, 17.70848
1008.569, 17.69140
1009.051, 17.89322
1009.533, 18.15067
1010.015, 18.30371
1010.497, 18.37644
1010.979, 18.35340
1011.461, 18.29026
1011.943, 18.42299
1012.426, 18.86352
1012.908, 19.21447
1013.390, 18.94687
1013.872, 18.36218
1014.354, 18.00446
1014.836, 17.80610
1015.318, 17.51167
1015.800, 17.11547
1016.282, 16.93710
1016.765, 17.17278
1017.247, 17.43917
1017.729, 17.05137
1018.211, 16.26603
1018.693, 16.09174
1019.175, 16.42524
1019.657, 16.56379
1020.139, 16.35737
1020.622, 15.95214
1021.104, 15.42366
1021.586, 14.87721
1022.068, 14.49123
1022.550, 14.26017
1023.032, 14.15795
1023.514, 14.18856
1023.996, 14.04856
1024.478, 13.64900
1024.961, 13.22133
1025.443, 12.91635
1025.925, 12.73757
1026.407, 12.72059
1026.889, 12.87612
1027.371, 12.98136
1027.853, 13.04750
1028.335, 12.99508
1028.818, 12.79326
1029.300, 12.48378
1029.782, 12.04592
1030.264, 11.60279
1030.746, 11.52371
1031.228, 11.90286
1031.710, 12.06052
1032.192, 11.93404
1032.674, 11.76746
1033.156, 11.60765
1033.639, 11.45794
1034.121, 11.32213
1034.603, 11.19740
1035.085, 11.07010
1035.567, 10.92234
1036.049, 10.84737
1036.531, 10.92252
1037.013, 10.91508
1037.496, 10.68422
1037.978, 10.45711
1038.460, 10.46095
1038.942, 10.60079
1039.424, 10.56947
1039.906, 10.28772
1040.388, 10.07425
1040.870, 9.893190
1041.353, 9.834455
1041.835, 10.09772
1042.317, 10.32754
1042.799, 10.14287
1043.281, 9.715027
1043.763, 9.574787
1044.245, 9.880261
1044.727, 10.01099
1045.209, 9.759580
1045.692, 9.573348
1046.174, 9.645492
1046.656, 9.760565
1047.138, 9.742452
1047.620, 9.631376
1048.102, 9.571755
1048.584, 9.633567
1049.066, 9.522523
1049.548, 8.863357
1050.031, 8.466761
1050.513, 8.864595
1050.995, 9.381195
1051.477, 9.419815
1051.959, 9.142592
1052.441, 9.033705
1052.923, 9.187408
1053.405, 9.364267
1053.888, 9.537324
1054.370, 9.695775
1054.852, 9.872910
1055.334, 10.00082
1055.816, 9.965397
1056.298, 9.849374
1056.780, 9.869860
1057.262, 10.09382
1057.745, 10.22339
1058.227, 9.989096
1058.709, 9.883661
1059.191, 10.31077
1059.673, 10.77323
1060.155, 10.80132
1060.637, 10.53934
1061.119, 10.33812
1061.601, 10.26359
1062.083, 10.29195
1062.566, 10.53108
1063.048, 10.72157
1063.530, 10.62094
1064.012, 10.53916
1064.494, 10.86343
1064.976, 11.37391
1065.458, 11.57569
1065.940, 11.37177
1066.423, 11.18752
1066.905, 11.13888
1067.387, 11.20852
1067.869, 11.55546
1068.351, 11.86379
1068.833, 11.75103
1069.315, 11.44478
1069.797, 11.41348
1070.280, 11.72918
1070.762, 12.00519
1071.244, 12.11353
1071.726, 12.10585
1072.208, 11.94724
1072.690, 11.73926
1073.172, 11.48417
1073.654, 11.27468
1074.136, 11.33168
1074.619, 11.63528
1075.101, 11.72706
1075.583, 11.27915
1076.065, 10.82553
1076.547, 10.58905
1077.029, 10.47900
1077.511, 10.49717
1077.993, 10.55491
1078.475, 10.49835
1078.958, 10.34050
1079.440, 10.29701
1079.922, 10.53821
1080.404, 10.69919
1080.886, 10.56040
1081.368, 10.32832
1081.850, 10.04285
1082.332, 9.822995
1082.814, 9.895545
1083.297, 10.18882
1083.779, 10.29182
1084.261, 9.981722
1084.743, 9.758664
1085.225, 10.02075
1085.707, 10.25461
1086.189, 10.04177
1086.671, 9.678763
1087.154, 9.519736
1087.636, 9.544178
1088.118, 9.534222
1088.600, 9.414423
1089.082, 9.337198
1089.564, 9.451043
1090.046, 9.521595
1090.528, 9.327334
1091.010, 9.099764
1091.493, 9.137326
1091.975, 9.325544
1092.457, 9.309759
1092.939, 8.988162
1093.421, 8.762949
1093.903, 8.874555
1094.385, 8.995274
1094.867, 9.055623
1095.349, 8.991699
1095.832, 8.639227
1096.314, 8.170401
1096.796, 7.922319
1097.278, 7.946702
1097.760, 7.920903
1098.242, 7.650962
1098.724, 7.447567
1099.206, 7.463902
1099.689, 7.526362
1100.171, 7.521638
1100.653, 7.483604
1101.135, 7.466741
1101.617, 7.477318
1102.099, 7.505203
1102.581, 7.547175
1103.063, 7.607741
1103.546, 7.799799
1104.028, 7.881475
1104.510, 7.646583
1104.992, 7.290490
1105.474, 6.956840
1105.956, 6.697699
1106.438, 6.685997
1106.920, 7.080148
1107.402, 7.385812
1107.885, 7.497059
1108.367, 7.546297
1108.849, 7.621137
1109.331, 7.619508
1109.813, 7.357890
1110.295, 6.960860
1110.777, 6.791731
1111.259, 6.939360
1111.741, 7.037928
1112.224, 7.028193
1112.706, 7.014752
1113.188, 7.034303
1113.670, 7.041267
1114.152, 7.009736
1114.634, 6.944963
1115.116, 6.851336
1115.598, 6.726674
1116.081, 6.600884
1116.563, 6.370395
1117.045, 6.323199
1117.527, 6.612167
1118.009, 6.911129
1118.491, 7.117032
1118.973, 7.208742
1119.455, 7.125977
1119.938, 6.892393
1120.420, 6.724236
1120.902, 6.615283
1121.384, 6.599017
1121.866, 6.743441
1122.348, 6.825967
1122.830, 6.717878
1123.312, 6.623355
1123.794, 6.769185
1124.276, 7.045625
1124.759, 7.093111
1125.241, 6.863790
1125.723, 6.677009
1126.205, 6.537857
1126.687, 6.424742
1127.169, 6.338593
1127.651, 6.251415
1128.133, 6.130160
1128.616, 6.032722
1129.098, 6.073017
1129.580, 6.242120
1130.062, 6.421352
1130.544, 6.624968
1131.026, 6.599448
1131.508, 6.275057
1131.990, 6.099651
1132.473, 6.300855
1132.955, 6.617895
1133.437, 6.754437
1133.919, 6.744868
1134.401, 6.673797
1134.883, 6.552396
1135.365, 6.552388
1135.847, 6.672208
1136.329, 6.674551
1136.812, 6.487290
1137.294, 6.221916
1137.776, 5.937800
1138.258, 5.771345
1138.740, 6.099523
1139.222, 6.717840
1139.704, 6.909837
1140.186, 6.757725
1140.668, 6.650716
1141.151, 6.663079
1141.633, 6.741848
1142.115, 6.861382
1142.597, 6.919336
1143.079, 6.773170
1143.561, 6.519762
1144.043, 6.204718
1144.525, 5.956407
1145.008, 6.172905
1145.490, 6.693216
1145.972, 6.888530
1146.454, 6.607362
1146.936, 6.358123
1147.418, 6.536779
1147.900, 6.779539
1148.382, 6.708286
1148.865, 6.536196
1149.347, 6.509676
1149.829, 6.566977
1150.311, 6.548061
1150.793, 6.465448
1151.275, 6.506522
1151.757, 6.787265
1152.239, 6.973108
1152.721, 6.799697
1153.203, 6.557967
1153.686, 6.370223
1154.168, 6.265781
1154.650, 6.323182
1155.132, 6.463835
1155.614, 6.500185
1156.096, 6.396343
1156.578, 6.367604
1157.060, 6.632915
1157.543, 6.752894
1158.025, 6.413291
1158.507, 6.111210
1158.989, 6.211560
1159.471, 6.462109
1159.953, 6.522289
1160.435, 6.413725
1160.917, 6.397897
1161.400, 6.587703
1161.882, 6.656438
1162.364, 6.507863
1162.846, 6.379372
1163.328, 6.295820
1163.810, 6.303712
1164.292, 6.508272
1164.774, 6.770736
1165.256, 6.783401
1165.739, 6.528564
1166.221, 6.322469
1166.703, 6.145645
1167.185, 6.107950
1167.667, 6.259135
1168.149, 6.423137
1168.631, 6.529821
1169.113, 6.574789
1169.595, 6.534521
1170.078, 6.457509
1170.560, 6.543960
1171.042, 6.786439
1171.524, 6.923205
1172.006, 6.944100
1172.488, 6.848662
1172.970, 6.639552
1173.452, 6.447230
1173.934, 6.354590
1174.417, 6.337496
1174.899, 6.404955
1175.381, 6.497139
1175.863, 6.414449
1176.345, 6.228327
1176.827, 6.131523
1177.309, 6.147354
1177.791, 6.298873
1178.274, 6.568423
1178.756, 6.724709
1179.238, 6.539494
1179.720, 6.303998
1180.202, 6.373432
1180.684, 6.539995
1181.166, 6.539866
1181.648, 6.446594
1182.130, 6.418256
1182.613, 6.454832
1183.095, 6.441043
1183.577, 6.325795
1184.059, 6.249717
1184.541, 6.301123
1185.023, 6.392186
1185.505, 6.535133
1185.987, 6.639873
1186.469, 6.555359
1186.952, 6.418374
1187.434, 6.507746
1187.916, 6.826746
1188.398, 7.003649
1188.880, 6.935846
1189.362, 6.800605
1189.844, 6.546724
1190.326, 6.317617
1190.809, 6.120080
1191.291, 6.010818
1191.773, 6.073434
1192.255, 6.238348
1192.737, 6.338650
1193.219, 6.366066
1193.701, 6.429309
1194.183, 6.568623
1194.666, 6.563289
1195.148, 6.330559
1195.630, 6.202872
1196.112, 6.369737
1196.594, 6.517534
1197.076, 6.260809
1197.558, 5.814410
1198.040, 5.861960
1198.522, 6.332530
1199.005, 6.641853
1199.487, 6.767132
1199.969, 6.685785
1200.451, 6.412452
1200.933, 6.063219
1201.415, 5.698224
1201.897, 5.519415
1202.379, 5.857254
1202.861, 6.408402
1203.344, 6.761375
1203.826, 6.938032
1204.308, 6.917173
1204.790, 6.770363
1205.272, 6.635467
1205.754, 6.549625
1206.236, 6.501303
1206.718, 6.495938
1207.201, 6.486547
1207.683, 6.443449
1208.165, 6.387698
1208.647, 6.304197
1209.129, 6.240149
1209.611, 6.265069
1210.093, 6.338948
1210.575, 6.346451
1211.057, 6.268621
1211.540, 6.308962
1212.022, 6.724556
1212.504, 6.902167
1212.986, 6.557482
1213.468, 6.252640
1213.950, 6.211565
1214.432, 6.249001
1214.914, 6.198947
1215.396, 6.100995
1215.879, 6.057842
1216.361, 6.068006
1216.843, 6.181737
1217.325, 6.436299
1217.807, 6.508875
1218.289, 6.327496
1218.771, 6.196354
1219.253, 6.255773
1219.736, 6.383037
1220.218, 6.462687
1220.700, 6.490137
1221.182, 6.393636
1221.664, 6.251342
1222.146, 6.394229
1222.628, 6.719860
1223.110, 6.814759
1223.593, 6.658950
1224.075, 6.568194
1224.557, 6.679936
1225.039, 6.764829
1225.521, 6.566187
1226.003, 6.353418
1226.485, 6.367946
1226.967, 6.492449
1227.449, 6.689985
1227.932, 6.863445
1228.414, 6.888234
1228.896, 6.759322
1229.378, 6.501000
1229.860, 6.013482
1230.342, 5.821860
1230.824, 6.406350
1231.306, 6.794439
1231.788, 6.529867
1232.271, 6.187870
1232.753, 6.070412
1233.235, 6.092834
1233.717, 6.169723
1234.199, 6.287277
1234.681, 6.345253
1235.163, 6.316791
1235.645, 6.369693
1236.128, 6.523509
1236.610, 6.653230
1237.092, 6.728535
1237.574, 6.801239
1238.056, 6.910753
1238.538, 6.952717
1239.020, 6.762666
1239.502, 6.441056
1239.984, 6.193542
1240.467, 6.036961
1240.949, 6.045300
1241.431, 6.182516
1241.913, 6.376807
1242.395, 6.574759
1242.877, 6.629649
1243.359, 6.459738
1243.841, 6.232801
1244.323, 5.999784
1244.806, 5.842949
1245.288, 5.815351
1245.770, 5.899496
1246.252, 6.188320
1246.734, 6.515085
1247.216, 6.567122
1247.698, 6.370020
1248.180, 6.338493
1248.662, 6.644096
1249.145, 6.834800
1249.627, 6.863912
1250.109, 6.806729
1250.591, 6.629310
1251.073, 6.455230
1251.555, 6.354242
1252.037, 6.293023
1252.519, 6.221009
1253.002, 6.152910
1253.484, 6.161405
1253.966, 6.245293
1254.448, 6.391241
1254.930, 6.583226
1255.412, 6.575799
1255.894, 6.339079
1256.376, 6.142876
1256.859, 6.131754
1257.341, 6.259278
1257.823, 6.575730
1258.305, 6.863969
1258.787, 6.708297
1259.269, 6.445291
1259.751, 6.624781
1260.233, 6.992070
1260.715, 7.030559
1261.198, 6.740242
1261.680, 6.438659
1262.162, 6.194096
1262.644, 6.096526
1263.126, 6.322030
1263.608, 6.482419
1264.090, 6.375452
1264.572, 6.281687
1265.054, 6.432656
1265.537, 6.582959
1266.019, 6.405571
1266.501, 6.053859
1266.983, 6.088360
1267.465, 6.569177
1267.947, 6.736985
1268.429, 6.555549
1268.911, 6.508453
1269.394, 6.671253
1269.876, 6.794173
1270.358, 6.774164
1270.840, 6.728607
1271.322, 6.769670
1271.804, 6.815069
1272.286, 6.692968
1272.768, 6.523667
1273.250, 6.508927
1273.733, 6.602778
1274.215, 6.754438
1274.697, 6.917828
1275.179, 7.045186
1275.661, 7.111423
1276.143, 6.982551
1276.625, 6.387121
1277.107, 6.022859
1277.589, 6.367978
1278.072, 6.664969
1278.554, 6.460351
1279.036, 6.197678
1279.518, 6.230268
1280.000, 6.427735
1280.482, 6.579040
1280.964, 6.688368
1281.446, 6.824544
1281.929, 7.008068
1282.411, 7.006519
1282.893, 6.796020
1283.375, 6.705175
1283.857, 6.813044
1284.339, 6.909233
1284.821, 6.872925
1285.303, 6.753334
1285.786, 6.597610
1286.268, 6.403894
##END=



