##NAMES=Nordenskioldine
##RRUFFID=R061079
##IDEAL CHEMISTRY=CaSn^4+^(BO_3_)_2_
##LOCALITY=MW Claim, Cassiar Mountains, Yukon, Canada
##OWNER=RRUFF
##SOURCE=Lloyd Twaites
##DESCRIPTION=Colorless aggregates of tabular crystals
##STATUS=The identification of this mineral has been confirmed by single-crystal X-ray diffraction.
##URL=rruff.info/R061079
157.2048, 888.0749
157.6869, 893.5609
158.1690, 899.6625
158.6511, 900.2896
159.1332, 888.5818
159.6153, 873.8681
160.0975, 874.6539
160.5796, 898.6237
161.0617, 922.2634
161.5438, 930.8813
162.0259, 926.0142
162.5080, 917.0112
162.9902, 907.2107
163.4723, 895.7197
163.9544, 880.5007
164.4365, 857.8832
164.9186, 838.6068
165.4007, 832.7244
165.8829, 839.4409
166.3650, 847.1298
166.8471, 852.5158
167.3292, 855.2886
167.8113, 855.0745
168.2934, 850.9006
168.7756, 845.5986
169.2577, 842.4436
169.7398, 841.5176
170.2219, 838.0556
170.7040, 827.0458
171.1861, 813.8270
171.6683, 805.2576
172.1504, 803.5958
172.6325, 804.2608
173.1146, 802.0309
173.5967, 796.4501
174.0788, 792.8719
174.5610, 795.6948
175.0431, 800.7432
175.5252, 803.2780
176.0073, 801.7784
176.4894, 798.7653
176.9715, 796.8715
177.4537, 796.1590
177.9358, 795.9024
178.4179, 795.6326
178.9000, 795.7534
179.3821, 797.0663
179.8642, 800.3927
180.3464, 803.5464
180.8285, 804.7321
181.3106, 804.4108
181.7927, 799.5203
182.2748, 779.9556
182.7569, 758.9021
183.2391, 749.6574
183.7212, 757.9158
184.2033, 772.7971
184.6854, 780.6342
185.1675, 780.2432
185.6496, 778.9634
186.1318, 779.3181
186.6139, 780.1194
187.0960, 780.2764
187.5781, 779.3492
188.0602, 778.2057
188.5423, 778.0094
189.0245, 778.9255
189.5066, 780.0298
189.9887, 780.0692
190.4708, 780.6145
190.9529, 783.8574
191.4350, 791.1259
191.9172, 798.3018
192.3993, 798.9516
192.8814, 791.3390
193.3635, 785.3686
193.8456, 786.2216
194.3277, 789.0556
194.8099, 789.1336
195.2920, 784.4895
195.7741, 781.0620
196.2562, 788.5701
196.7383, 810.0833
197.2204, 827.5128
197.7026, 831.5914
198.1847, 831.4753
198.6668, 833.3250
199.1489, 838.6349
199.6310, 845.6193
200.1131, 851.8455
200.5953, 856.8210
201.0774, 863.7117
201.5595, 874.4176
202.0416, 886.8942
202.5237, 898.3428
203.0058, 907.8778
203.4880, 921.3075
203.9701, 946.8974
204.4522, 986.3808
204.9343, 1025.927
205.4164, 1057.344
205.8985, 1090.790
206.3807, 1133.795
206.8628, 1187.902
207.3449, 1247.357
207.8270, 1303.943
208.3091, 1356.251
208.7912, 1420.407
209.2734, 1509.252
209.7555, 1605.103
210.2376, 1694.829
210.7197, 1777.164
211.2018, 1860.450
211.6839, 1959.581
212.1660, 2076.023
212.6482, 2170.156
213.1303, 2245.424
213.6124, 2282.993
214.0945, 2270.250
214.5766, 2207.275
215.0587, 2105.695
215.5409, 1962.445
216.0230, 1779.249
216.5051, 1604.055
216.9872, 1434.011
217.4693, 1286.202
217.9514, 1170.017
218.4336, 1084.895
218.9157, 1020.496
219.3978, 974.7834
219.8799, 946.0853
220.3620, 918.6802
220.8441, 888.2604
221.3263, 862.6483
221.8084, 848.2029
222.2905, 843.2015
222.7726, 839.0653
223.2547, 830.0341
223.7368, 817.0942
224.2190, 805.1413
224.7011, 793.8848
225.1832, 784.6541
225.6653, 777.9369
226.1474, 773.5346
226.6295, 770.9739
227.1117, 771.7499
227.5938, 774.2657
228.0759, 773.1426
228.5580, 766.3290
229.0401, 759.6465
229.5222, 756.9949
230.0044, 757.2466
230.4865, 758.1597
230.9686, 759.0384
231.4507, 759.8778
231.9328, 761.1313
232.4149, 763.5086
232.8971, 764.1774
233.3792, 759.6721
233.8613, 752.4400
234.3434, 746.3802
234.8255, 742.2526
235.3076, 740.2568
235.7898, 741.8837
236.2719, 748.0560
236.7540, 752.4458
237.2361, 747.1966
237.7182, 738.8354
238.2003, 738.5765
238.6825, 754.2717
239.1646, 772.7137
239.6467, 780.0481
240.1288, 776.1577
240.6109, 768.9894
241.0930, 759.8423
241.5752, 750.7803
242.0573, 745.2206
242.5394, 744.2387
243.0215, 745.3896
243.5036, 747.2064
243.9857, 749.6693
244.4679, 752.9978
244.9500, 758.6758
245.4321, 763.9558
245.9142, 763.7477
246.3963, 755.7068
246.8784, 748.3474
247.3606, 746.2725
247.8427, 748.5120
248.3248, 752.4285
248.8069, 757.8254
249.2890, 763.5098
249.7711, 768.0759
250.2533, 772.1227
250.7354, 773.2471
251.2175, 767.3046
251.6996, 758.4089
252.1817, 754.3596
252.6638, 757.6058
253.1460, 764.1137
253.6281, 768.3443
254.1102, 769.7750
254.5923, 773.2065
255.0744, 783.0313
255.5565, 793.7396
256.0387, 797.4097
256.5208, 792.6031
257.0029, 786.7317
257.4850, 787.6096
257.9671, 796.4648
258.4492, 804.7242
258.9314, 813.0941
259.4135, 820.1290
259.8956, 823.3724
260.3777, 823.3015
260.8598, 824.3132
261.3419, 830.1688
261.8241, 841.1072
262.3062, 852.2732
262.7883, 862.3340
263.2704, 873.7357
263.7525, 885.9545
264.2346, 900.2742
264.7168, 919.8371
265.1989, 946.3388
265.6810, 979.9871
266.1631, 1022.330
266.6452, 1071.581
267.1273, 1130.237
267.6095, 1200.845
268.0916, 1281.080
268.5737, 1365.859
269.0558, 1452.079
269.5379, 1544.156
270.0201, 1653.680
270.5022, 1795.530
270.9843, 1939.651
271.4664, 2085.789
271.9485, 2233.154
272.4306, 2377.727
272.9128, 2518.218
273.3949, 2664.390
273.8770, 2836.598
274.3591, 3076.151
274.8412, 3265.124
275.3233, 3445.037
275.8055, 3553.973
276.2876, 3542.975
276.7697, 3408.670
277.2518, 3187.069
277.7339, 2903.297
278.2160, 2532.315
278.6982, 2207.560
279.1803, 1929.925
279.6624, 1696.651
280.1445, 1511.991
280.6266, 1372.404
281.1087, 1268.174
281.5909, 1196.508
282.0730, 1156.080
282.5551, 1118.133
283.0372, 1079.348
283.5193, 1047.318
284.0014, 1028.015
284.4836, 1016.344
284.9657, 1003.440
285.4478, 983.5040
285.9299, 960.1267
286.4120, 944.5719
286.8941, 939.7004
287.3763, 936.4848
287.8584, 933.7344
288.3405, 930.0986
288.8226, 923.4449
289.3047, 912.4041
289.7868, 900.4682
290.2690, 892.3895
290.7511, 888.5102
291.2332, 885.4880
291.7153, 883.9738
292.1974, 881.7202
292.6795, 875.6920
293.1617, 865.1123
293.6438, 855.6819
294.1259, 853.0764
294.6080, 855.9190
295.0901, 857.0826
295.5722, 855.6263
296.0544, 851.2550
296.5365, 840.7192
297.0186, 824.6829
297.5007, 815.2904
297.9828, 823.6639
298.4649, 839.6799
298.9471, 845.2563
299.4292, 837.1364
299.9113, 827.6346
300.3934, 828.8293
300.8755, 838.7980
301.3576, 843.0519
301.8398, 835.8530
302.3219, 825.6030
302.8040, 818.4620
303.2861, 814.3518
303.7682, 810.6501
304.2503, 804.9612
304.7325, 798.7004
305.2146, 798.7859
305.6967, 812.2970
306.1788, 823.2625
306.6609, 824.7961
307.1430, 820.4375
307.6252, 816.5880
308.1073, 815.9142
308.5894, 817.0888
309.0715, 817.2407
309.5536, 815.2650
310.0357, 813.8799
310.5179, 812.9819
311.0000, 812.7891
311.4821, 814.0168
311.9642, 816.5788
312.4463, 819.0156
312.9284, 819.3583
313.4106, 816.7504
313.8927, 815.1215
314.3748, 815.5826
314.8569, 815.8195
315.3390, 814.6883
315.8211, 812.3104
316.3033, 809.1187
316.7854, 804.8466
317.2675, 799.9221
317.7496, 799.9756
318.2317, 812.2727
318.7138, 820.5854
319.1960, 816.2781
319.6781, 807.1807
320.1602, 804.8757
320.6423, 815.5593
321.1244, 831.7037
321.6065, 836.5644
322.0887, 825.3217
322.5708, 817.9141
323.0529, 822.8496
323.5350, 831.3340
324.0171, 837.4575
324.4992, 840.1186
324.9814, 841.0369
325.4635, 841.5967
325.9456, 841.7828
326.4277, 841.0507
326.9098, 838.2358
327.3919, 836.0055
327.8741, 836.9446
328.3562, 840.5469
328.8383, 843.9280
329.3204, 846.4910
329.8025, 847.8552
330.2846, 846.2701
330.7668, 841.0869
331.2489, 837.5692
331.7310, 840.6149
332.2131, 848.5264
332.6952, 854.3382
333.1773, 856.6447
333.6595, 857.5428
334.1415, 857.1069
334.6237, 856.0564
335.1058, 857.4604
335.5879, 863.4672
336.0700, 871.4983
336.5521, 874.3363
337.0342, 868.3014
337.5164, 864.3588
337.9985, 864.4462
338.4806, 867.5251
338.9627, 873.2947
339.4448, 881.4532
339.9269, 890.0171
340.4091, 896.3644
340.8912, 899.4866
341.3733, 904.0103
341.8554, 913.4508
342.3375, 920.9067
342.8196, 920.1450
343.3018, 913.9215
343.7839, 910.4429
344.2660, 916.0535
344.7481, 929.5063
345.2302, 940.9112
345.7123, 950.5511
346.1945, 957.3318
346.6766, 959.1990
347.1587, 959.1140
347.6408, 960.5980
348.1229, 965.0275
348.6050, 970.6561
349.0872, 974.7224
349.5693, 976.9606
350.0514, 979.0471
350.5335, 981.4745
351.0156, 983.6848
351.4977, 985.8030
351.9799, 987.6732
352.4620, 987.9924
352.9441, 983.0067
353.4262, 975.3669
353.9083, 976.5245
354.3904, 991.1977
354.8726, 1004.670
355.3547, 1001.378
355.8368, 988.2949
356.3189, 981.1056
356.8010, 989.4903
357.2831, 1000.438
357.7653, 1000.118
358.2474, 990.3820
358.7295, 984.5148
359.2116, 989.5869
359.6937, 1001.660
360.1758, 1011.073
360.6580, 1019.422
361.1401, 1022.769
361.6222, 1015.144
362.1043, 1003.878
362.5864, 997.9692
363.0685, 999.5828
363.5507, 1006.399
364.0328, 1016.118
364.5149, 1029.891
364.9970, 1041.674
365.4791, 1052.370
365.9612, 1060.660
366.4434, 1064.193
366.9255, 1064.692
367.4076, 1066.289
367.8897, 1071.879
368.3718, 1080.401
368.8539, 1086.699
369.3361, 1088.826
369.8182, 1091.652
370.3003, 1094.743
370.7824, 1099.476
371.2645, 1107.843
371.7466, 1120.303
372.2288, 1133.973
372.7109, 1144.716
373.1930, 1152.191
373.6751, 1161.956
374.1572, 1171.734
374.6393, 1187.742
375.1215, 1216.890
375.6036, 1256.002
376.0857, 1292.719
376.5678, 1315.679
377.0499, 1334.122
377.5320, 1364.806
378.0142, 1408.827
378.4963, 1456.433
378.9784, 1500.456
379.4605, 1545.284
379.9426, 1600.051
380.4247, 1663.749
380.9069, 1739.242
381.3890, 1832.823
381.8711, 1939.095
382.3532, 2048.031
382.8353, 2157.142
383.3174, 2267.541
383.7996, 2381.027
384.2817, 2499.276
384.7638, 2617.390
385.2459, 2732.635
385.7280, 2849.859
386.2101, 2978.251
386.6923, 3112.965
387.1744, 3238.557
387.6565, 3345.357
388.1386, 3432.625
388.6207, 3495.961
389.1028, 3546.754
389.5850, 3553.287
390.0671, 3508.053
390.5492, 3420.349
391.0313, 3292.261
391.5134, 3126.139
391.9955, 2940.823
392.4777, 2755.016
392.9598, 2567.194
393.4419, 2392.972
393.9240, 2233.456
394.4061, 2090.026
394.8882, 1962.117
395.3704, 1850.203
395.8525, 1755.916
396.3346, 1685.356
396.8167, 1630.466
397.2988, 1579.238
397.7809, 1531.471
398.2631, 1491.989
398.7452, 1465.660
399.2273, 1448.472
399.7094, 1429.640
400.1915, 1408.910
400.6736, 1387.193
401.1558, 1361.595
401.6379, 1336.092
402.1200, 1317.679
402.6021, 1307.832
403.0842, 1301.980
403.5663, 1295.004
404.0485, 1286.492
404.5306, 1278.778
405.0127, 1267.915
405.4948, 1261.485
405.9769, 1265.904
406.4590, 1277.190
406.9412, 1287.909
407.4233, 1294.244
407.9054, 1295.791
408.3875, 1289.398
408.8696, 1265.802
409.3517, 1254.156
409.8339, 1266.601
410.3160, 1285.590
410.7981, 1299.796
411.2802, 1307.643
411.7623, 1312.923
412.2444, 1318.312
412.7266, 1323.698
413.2087, 1328.223
413.6908, 1330.905
414.1729, 1335.039
414.6550, 1344.242
415.1371, 1356.218
415.6193, 1366.903
416.1014, 1373.603
416.5835, 1381.233
417.0656, 1392.464
417.5477, 1407.417
418.0298, 1428.113
418.5120, 1456.947
418.9941, 1486.328
419.4762, 1503.456
419.9583, 1501.613
420.4404, 1508.538
420.9225, 1532.622
421.4047, 1559.769
421.8868, 1578.778
422.3689, 1591.410
422.8510, 1607.223
423.3331, 1633.103
423.8152, 1667.002
424.2974, 1696.908
424.7795, 1714.375
425.2616, 1740.807
425.7437, 1783.840
426.2258, 1833.388
426.7079, 1879.459
427.1901, 1920.250
427.6722, 1963.638
428.1543, 2017.469
428.6364, 2081.227
429.1185, 2151.778
429.6006, 2232.224
430.0828, 2313.964
430.5649, 2385.928
431.0470, 2455.284
431.5291, 2538.002
432.0112, 2632.063
432.4933, 2747.399
432.9755, 2900.673
433.4576, 3084.553
433.9397, 3265.594
434.4218, 3427.719
434.9039, 3596.391
435.3860, 3810.940
435.8682, 4075.972
436.3503, 4378.161
436.8324, 4712.197
437.3145, 5087.643
437.7966, 5508.622
438.2787, 5976.896
438.7609, 6485.299
439.2430, 7032.325
439.7251, 7622.950
440.2072, 8291.499
440.6893, 9079.578
441.1714, 9887.481
441.6536, 10689.64
442.1357, 11513.53
442.6178, 12400.04
443.0999, 13349.40
443.5820, 14296.92
444.0641, 15175.80
444.5463, 15999.94
445.0284, 16842.08
445.5105, 17726.97
445.9926, 18579.10
446.4747, 19408.73
446.9568, 20163.09
447.4390, 20728.41
447.9211, 21141.00
448.4032, 21281.68
448.8853, 21051.39
449.3674, 20494.13
449.8495, 19672.99
450.3317, 18599.55
450.8138, 17363.92
451.2959, 16070.82
451.7780, 14696.63
452.2601, 13385.42
452.7422, 12123.13
453.2244, 10942.90
453.7065, 9845.374
454.1886, 8846.098
454.6707, 7970.728
455.1528, 7239.593
455.6349, 6624.821
456.1171, 6061.670
456.5992, 5543.633
457.0813, 5097.575
457.5634, 4761.694
458.0455, 4472.180
458.5276, 4197.056
459.0098, 3935.515
459.4919, 3703.747
459.9740, 3522.369
460.4561, 3373.565
460.9382, 3222.795
461.4203, 3068.366
461.9025, 2926.623
462.3846, 2805.087
462.8667, 2701.452
463.3488, 2609.955
463.8309, 2533.519
464.3130, 2461.023
464.7952, 2387.793
465.2773, 2318.050
465.7594, 2257.266
466.2415, 2205.881
466.7236, 2161.277
467.2057, 2122.351
467.6879, 2088.658
468.1700, 2048.853
468.6521, 1995.793
469.1342, 1945.140
469.6163, 1897.174
470.0984, 1853.833
470.5806, 1817.628
471.0627, 1789.254
471.5448, 1764.444
472.0269, 1739.108
472.5090, 1713.304
472.9911, 1689.547
473.4733, 1669.352
473.9554, 1648.003
474.4375, 1619.292
474.9196, 1587.232
475.4017, 1560.391
475.8839, 1540.978
476.3660, 1525.924
476.8481, 1515.007
477.3302, 1506.767
477.8123, 1498.403
478.2944, 1489.178
478.7766, 1478.683
479.2587, 1466.221
479.7408, 1451.008
480.2229, 1437.884
480.7050, 1427.995
481.1871, 1418.656
481.6693, 1410.292
482.1514, 1401.487
482.6335, 1389.353
483.1156, 1372.548
483.5977, 1354.737
484.0798, 1341.622
484.5620, 1333.317
485.0441, 1329.245
485.5262, 1332.649
486.0083, 1336.560
486.4904, 1336.353
486.9725, 1332.800
487.4547, 1328.640
487.9368, 1325.484
488.4189, 1321.637
488.9010, 1313.746
489.3831, 1303.165
489.8652, 1297.331
490.3474, 1300.386
490.8295, 1304.759
491.3116, 1297.223
491.7937, 1269.252
492.2758, 1253.764
492.7579, 1261.857
493.2401, 1272.055
493.7222, 1271.097
494.2043, 1262.300
494.6864, 1256.230
495.1685, 1259.049
495.6506, 1265.928
496.1328, 1265.101
496.6149, 1253.763
497.0970, 1244.930
497.5791, 1241.179
498.0612, 1240.127
498.5433, 1240.783
499.0254, 1242.878
499.5075, 1245.515
499.9897, 1251.607
500.4718, 1255.924
500.9539, 1249.115
501.4360, 1233.096
501.9181, 1221.078
502.4002, 1218.780
502.8824, 1223.046
503.3645, 1228.670
503.8466, 1236.939
504.3287, 1243.253
504.8108, 1247.716
505.2929, 1250.014
505.7751, 1248.499
506.2572, 1244.673
506.7393, 1242.403
507.2214, 1244.279
507.7035, 1247.818
508.1856, 1246.417
508.6678, 1238.563
509.1499, 1231.361
509.6320, 1225.139
510.1141, 1220.797
510.5962, 1220.050
511.0783, 1222.140
511.5605, 1223.012
512.0426, 1219.125
512.5247, 1214.344
513.0068, 1213.592
513.4890, 1216.244
513.9711, 1218.555
514.4532, 1218.951
514.9353, 1218.406
515.4174, 1218.782
515.8995, 1221.312
516.3817, 1221.519
516.8638, 1215.477
517.3459, 1210.801
517.8280, 1213.274
518.3101, 1220.509
518.7922, 1226.695
519.2744, 1228.793
519.7565, 1228.193
520.2386, 1227.793
520.7207, 1227.908
521.2028, 1225.794
521.6849, 1216.861
522.1671, 1210.435
522.6492, 1216.858
523.1313, 1232.575
523.6134, 1241.869
524.0955, 1234.146
524.5776, 1222.848
525.0598, 1218.259
525.5419, 1219.319
526.0240, 1223.437
526.5061, 1230.000
526.9882, 1236.559
527.4703, 1239.579
527.9525, 1238.606
528.4346, 1235.713
528.9167, 1227.765
529.3988, 1221.497
529.8809, 1219.622
530.3630, 1221.146
530.8452, 1225.452
531.3273, 1232.635
531.8094, 1238.080
532.2915, 1233.500
532.7736, 1219.558
533.2557, 1210.980
533.7379, 1211.291
534.2200, 1213.543
534.7021, 1212.288
535.1842, 1208.692
535.6663, 1206.633
536.1484, 1208.842
536.6306, 1209.979
537.1127, 1203.431
537.5948, 1195.668
538.0769, 1199.600
538.5590, 1217.112
539.0411, 1234.162
539.5233, 1235.006
540.0054, 1219.464
540.4875, 1211.050
540.9696, 1215.072
541.4517, 1219.260
541.9338, 1222.081
542.4160, 1222.829
542.8981, 1219.957
543.3802, 1213.196
543.8623, 1206.550
544.3444, 1199.199
544.8265, 1194.954
545.3087, 1207.696
545.7908, 1239.334
546.2729, 1263.596
546.7550, 1263.680
547.2371, 1246.458
547.7192, 1232.866
548.2014, 1220.310
548.6835, 1215.218
549.1656, 1226.018
549.6477, 1238.686
550.1298, 1240.356
550.6119, 1232.960
551.0941, 1227.896
551.5762, 1233.416
552.0583, 1245.216
552.5404, 1251.495
553.0225, 1251.432
553.5046, 1249.710
553.9868, 1246.867
554.4689, 1243.118
554.9510, 1237.827
555.4331, 1231.432
555.9152, 1227.183
556.3973, 1226.810
556.8795, 1228.363
557.3616, 1230.707
557.8437, 1233.707
558.3258, 1237.492
558.8079, 1242.182
559.2900, 1246.428
559.7722, 1248.275
560.2543, 1247.330
560.7364, 1245.963
561.2185, 1241.058
561.7006, 1239.177
562.1827, 1246.169
562.6649, 1255.896
563.1470, 1258.888
563.6291, 1251.885
564.1112, 1243.674
564.5933, 1244.463
565.0754, 1250.660
565.5576, 1249.350
566.0397, 1238.310
566.5218, 1228.699
567.0039, 1228.593
567.4860, 1235.776
567.9681, 1240.396
568.4503, 1241.417
568.9324, 1241.709
569.4145, 1241.267
569.8966, 1240.470
570.3787, 1239.185
570.8608, 1237.758
571.3430, 1236.880
571.8251, 1236.536
572.3072, 1237.888
572.7893, 1246.139
573.2714, 1263.399
573.7535, 1274.184
574.2357, 1272.099
574.7178, 1264.901
575.1999, 1258.251
575.6820, 1252.498
576.1641, 1251.798
576.6462, 1261.526
577.1284, 1272.416
577.6105, 1279.741
578.0926, 1283.490
578.5747, 1283.562
579.0568, 1280.024
579.5389, 1274.236
580.0211, 1267.200
580.5032, 1258.483
580.9852, 1254.437
581.4673, 1258.973
581.9495, 1262.601
582.4316, 1261.826
582.9137, 1258.768
583.3958, 1254.972
583.8779, 1250.433
584.3600, 1248.795
584.8422, 1254.839
585.3243, 1264.135
585.8064, 1270.098
586.2885, 1272.309
586.7706, 1271.363
587.2527, 1266.676
587.7349, 1261.116
588.2170, 1262.821
588.6991, 1281.871
589.1812, 1289.269
589.6633, 1274.472
590.1454, 1259.279
590.6276, 1255.023
591.1097, 1259.502
591.5918, 1266.832
592.0739, 1275.613
592.5560, 1282.232
593.0381, 1279.614
593.5203, 1270.091
594.0024, 1266.622
594.4845, 1272.482
594.9666, 1279.319
595.4487, 1280.258
595.9308, 1275.937
596.4130, 1272.782
596.8951, 1269.602
597.3772, 1268.953
597.8593, 1274.296
598.3414, 1280.349
598.8235, 1281.571
599.3057, 1278.198
599.7878, 1275.009
600.2699, 1275.737
600.7520, 1278.883
601.2341, 1279.937
601.7162, 1278.482
602.1984, 1280.902
602.6805, 1292.889
603.1626, 1303.758
603.6447, 1296.660
604.1268, 1272.637
604.6089, 1261.499
605.0911, 1276.368
605.5732, 1293.839
606.0553, 1306.749
606.5374, 1313.448
607.0195, 1308.630
607.5016, 1292.521
607.9838, 1277.703
608.4659, 1278.942
608.9480, 1294.389
609.4301, 1306.076
609.9122, 1314.554
610.3943, 1317.656
610.8765, 1311.850
611.3586, 1301.865
611.8407, 1292.798
612.3228, 1284.435
612.8049, 1279.694
613.2870, 1281.730
613.7692, 1285.687
614.2513, 1288.521
614.7334, 1290.064
615.2155, 1289.518
615.6976, 1286.632
616.1797, 1284.966
616.6619, 1291.597
617.1440, 1308.226
617.6261, 1316.184
618.1082, 1309.294
618.5903, 1303.730
619.0724, 1310.029
619.5546, 1320.293
620.0367, 1323.410
620.5188, 1316.213
621.0009, 1311.549
621.4830, 1317.222
621.9651, 1327.004
622.4473, 1335.407
622.9294, 1341.604
623.4115, 1344.461
623.8936, 1343.170
624.3757, 1340.235
624.8578, 1341.461
625.3400, 1349.338
625.8221, 1351.675
626.3042, 1342.589
626.7863, 1334.955
627.2684, 1336.253
627.7505, 1342.304
628.2327, 1345.946
628.7148, 1345.048
629.1969, 1343.864
629.6790, 1343.876
630.1611, 1345.570
630.6432, 1350.677
631.1254, 1358.623
631.6075, 1365.973
632.0896, 1370.831
632.5717, 1373.195
633.0538, 1372.109
633.5359, 1364.192
634.0181, 1362.402
634.5002, 1370.894
634.9823, 1382.145
635.4644, 1396.162
635.9465, 1409.617
636.4286, 1414.256
636.9108, 1402.481
637.3929, 1395.772
637.8750, 1414.439
638.3571, 1444.763
638.8392, 1465.799
639.3214, 1475.286
639.8035, 1478.238
640.2856, 1476.850
640.7677, 1474.350
641.2498, 1481.284
641.7319, 1501.540
642.2141, 1521.248
642.6962, 1543.064
643.1783, 1560.330
643.6604, 1567.277
644.1425, 1567.389
644.6246, 1568.939
645.1068, 1575.335
645.5889, 1581.124
646.0710, 1582.360
646.5531, 1580.775
647.0352, 1578.973
647.5173, 1577.295
647.9995, 1575.121
648.4816, 1572.127
648.9637, 1568.077
649.4458, 1562.896
649.9279, 1559.075
650.4100, 1546.944
650.8922, 1515.562
651.3743, 1485.996
651.8564, 1470.165
652.3385, 1464.758
652.8206, 1461.597
653.3027, 1460.255
653.7849, 1457.519
654.2670, 1451.186
654.7491, 1442.405
655.2312, 1431.174
655.7133, 1418.508
656.1954, 1409.086
656.6776, 1406.418
657.1597, 1407.921
657.6418, 1405.343
658.1239, 1395.679
658.6060, 1393.385
659.0881, 1408.684
659.5703, 1420.923
660.0524, 1411.925
660.5345, 1391.548
661.0166, 1383.410
661.4987, 1398.442
661.9808, 1412.279
662.4630, 1412.165
662.9451, 1405.328
663.4272, 1399.542
663.9093, 1395.592
664.3914, 1390.692
664.8735, 1382.700
665.3557, 1375.303
665.8378, 1379.290
666.3199, 1397.521
666.8020, 1406.353
667.2841, 1398.619
667.7662, 1389.641
668.2484, 1389.579
668.7305, 1395.232
669.2126, 1400.345
669.6947, 1405.654
670.1768, 1407.729
670.6589, 1402.732
671.1411, 1396.148
671.6232, 1392.478
672.1053, 1391.688
672.5874, 1391.973
673.0695, 1392.395
673.5516, 1393.816
674.0338, 1398.870
674.5159, 1407.383
674.9980, 1411.761
675.4801, 1411.066
675.9622, 1407.283
676.4443, 1399.465
676.9265, 1390.252
677.4086, 1386.402
677.8907, 1388.980
678.3728, 1393.346
678.8549, 1402.106
679.3370, 1409.443
679.8192, 1410.359
680.3013, 1407.414
680.7834, 1405.829
681.2655, 1407.565
681.7476, 1410.363
682.2297, 1411.394
682.7119, 1411.368
683.1940, 1414.105
683.6761, 1420.108
684.1582, 1421.799
684.6403, 1413.858
685.1224, 1402.663
685.6046, 1400.104
686.0867, 1410.084
686.5688, 1416.278
687.0509, 1417.825
687.5330, 1416.903
688.0151, 1411.736
688.4973, 1405.771
688.9794, 1403.009
689.4615, 1404.354
689.9436, 1408.474
690.4257, 1417.169
690.9078, 1426.542
691.3900, 1429.000
691.8721, 1426.033
692.3542, 1426.648
692.8363, 1434.307
693.3184, 1442.738
693.8005, 1443.585
694.2827, 1436.488
694.7648, 1430.430
695.2469, 1423.583
695.7290, 1420.800
696.2111, 1425.481
696.6932, 1432.928
697.1754, 1440.575
697.6575, 1447.777
698.1396, 1451.705
698.6217, 1450.098
699.1038, 1446.060
699.5859, 1438.951
700.0681, 1431.973
700.5502, 1431.763
701.0323, 1438.950
701.5144, 1447.299
701.9965, 1451.774
702.4786, 1452.887
702.9608, 1452.300
703.4429, 1449.816
703.9250, 1446.271
704.4071, 1439.829
704.8892, 1435.417
705.3713, 1438.267
705.8535, 1446.957
706.3356, 1454.559
706.8177, 1461.080
707.2998, 1466.123
707.7819, 1468.955
708.2640, 1470.784
708.7462, 1473.644
709.2283, 1476.468
709.7104, 1475.348
710.1925, 1467.615
710.6746, 1458.653
711.1567, 1454.142
711.6389, 1454.449
712.1210, 1463.757
712.6031, 1483.193
713.0852, 1498.952
713.5673, 1502.226
714.0494, 1497.694
714.5316, 1496.868
715.0137, 1503.574
715.4958, 1504.516
715.9779, 1493.342
716.4600, 1483.670
716.9421, 1480.345
717.4243, 1481.745
717.9064, 1485.560
718.3885, 1491.327
718.8706, 1499.040
719.3527, 1513.669
719.8348, 1526.583
720.3170, 1525.344
720.7991, 1513.873
721.2812, 1504.063
721.7633, 1500.097
722.2454, 1500.322
722.7275, 1503.742
723.2097, 1509.848
723.6918, 1511.477
724.1739, 1506.069
724.6560, 1505.176
725.1381, 1516.407
725.6202, 1528.741
726.1024, 1527.597
726.5845, 1514.956
727.0666, 1509.107
727.5487, 1515.531
728.0308, 1524.114
728.5129, 1532.885
728.9951, 1541.370
729.4772, 1549.132
729.9593, 1556.200
730.4414, 1562.862
730.9235, 1568.926
731.4056, 1575.418
731.8878, 1582.793
732.3699, 1591.720
732.8520, 1606.148
733.3341, 1626.860
733.8162, 1645.908
734.2983, 1656.379
734.7805, 1664.886
735.2626, 1690.368
735.7447, 1740.289
736.2268, 1789.392
736.7089, 1832.332
737.1910, 1880.601
737.6732, 1936.636
738.1553, 2001.679
738.6374, 2077.042
739.1195, 2163.318
739.6016, 2259.105
740.0837, 2361.849
740.5659, 2475.647
741.0480, 2604.867
741.5301, 2746.675
742.0122, 2894.750
742.4943, 3047.388
742.9764, 3207.791
743.4586, 3378.860
743.9407, 3561.370
744.4228, 3767.007
744.9049, 3997.651
745.3870, 4217.517
745.8691, 4433.184
746.3513, 4597.700
746.8334, 4667.728
747.3155, 4644.367
747.7976, 4542.825
748.2797, 4327.619
748.7618, 4082.842
749.2440, 3782.768
749.7261, 3484.445
750.2082, 3217.500
750.6903, 2983.966
751.1724, 2780.891
751.6545, 2607.281
752.1367, 2463.365
752.6188, 2356.108
753.1009, 2274.232
753.5830, 2202.046
754.0651, 2138.831
754.5472, 2090.752
755.0294, 2060.999
755.5115, 2041.685
755.9936, 2020.804
756.4757, 1998.395
756.9578, 1982.288
757.4399, 1973.586
757.9221, 1966.783
758.4042, 1957.961
758.8863, 1952.162
759.3684, 1957.156
759.8505, 1974.307
760.3326, 1990.176
760.8148, 1997.906
761.2969, 2012.985
761.7790, 2039.774
762.2611, 2075.571
762.7432, 2119.699
763.2253, 2170.783
763.7075, 2225.679
764.1896, 2283.760
764.6717, 2343.408
765.1538, 2411.045
765.6359, 2476.501
766.1180, 2521.125
766.6002, 2542.564
767.0823, 2545.270
767.5644, 2532.040
768.0465, 2501.116
768.5286, 2445.370
769.0107, 2362.819
769.4929, 2280.006
769.9750, 2195.814
770.4571, 2117.648
770.9392, 2048.286
771.4213, 1987.372
771.9034, 1935.226
772.3856, 1892.711
772.8677, 1852.569
773.3498, 1808.801
773.8319, 1774.455
774.3140, 1760.052
774.7961, 1753.409
775.2783, 1742.052
775.7604, 1724.988
776.2425, 1708.255
776.7246, 1693.500
777.2067, 1682.584
777.6888, 1679.121
778.1710, 1680.135
778.6531, 1679.959
779.1352, 1677.803
779.6173, 1675.261
780.0994, 1673.378
780.5815, 1671.630
781.0637, 1668.493
781.5458, 1663.821
782.0279, 1661.101
782.5100, 1660.724
782.9921, 1661.768
783.4742, 1664.569
783.9564, 1667.758
784.4385, 1669.138
784.9206, 1668.666
785.4027, 1666.349
785.8848, 1659.680
786.3669, 1654.317
786.8491, 1651.498
787.3312, 1651.037
787.8133, 1653.774
788.2954, 1659.013
788.7775, 1663.227
789.2596, 1665.502
789.7418, 1665.358
790.2239, 1658.586
790.7060, 1651.064
791.1881, 1654.072
791.6702, 1666.304
792.1523, 1675.801
792.6345, 1675.513
793.1166, 1670.352
793.5987, 1667.955
794.0808, 1668.111
794.5629, 1668.789
795.0450, 1669.814
795.5272, 1672.322
796.0093, 1677.403
796.4914, 1683.048
796.9735, 1686.777
797.4556, 1689.047
797.9377, 1685.017
798.4199, 1661.981
798.9020, 1651.208
799.3841, 1672.993
799.8662, 1697.369
800.3483, 1695.578
800.8304, 1673.296
801.3126, 1662.536
801.7947, 1678.861
802.2768, 1696.097
802.7589, 1702.224
803.2410, 1704.508
803.7231, 1710.548
804.2053, 1719.037
804.6874, 1723.973
805.1695, 1722.601
805.6516, 1720.988
806.1337, 1730.264
806.6158, 1742.703
807.0980, 1735.580
807.5801, 1711.754
808.0622, 1697.019
808.5443, 1700.366
809.0264, 1711.116
809.5085, 1718.217
809.9907, 1721.724
810.4728, 1721.290
810.9549, 1715.157
811.4370, 1711.484
811.9191, 1712.277
812.4012, 1715.059
812.8834, 1719.123
813.3655, 1723.677
813.8476, 1725.429
814.3297, 1721.231
814.8118, 1720.594
815.2939, 1727.355
815.7761, 1734.609
816.2582, 1740.141
816.7403, 1743.274
817.2224, 1742.323
817.7045, 1737.145
818.1866, 1733.310
818.6688, 1732.659
819.1509, 1735.774
819.6330, 1746.821
820.1151, 1760.664
820.5972, 1767.769
821.0793, 1767.154
821.5615, 1764.252
822.0436, 1762.342
822.5257, 1761.854
823.0078, 1764.325
823.4899, 1769.176
823.9720, 1771.979
824.4542, 1772.166
824.9363, 1776.734
825.4184, 1791.457
825.9005, 1805.080
826.3826, 1795.384
826.8647, 1757.858
827.3469, 1740.738
827.8290, 1753.726
828.3111, 1767.726
828.7932, 1778.456
829.2753, 1783.510
829.7574, 1777.434
830.2396, 1762.349
830.7217, 1752.244
831.2038, 1746.831
831.6859, 1748.224
832.1680, 1764.552
832.6501, 1780.597
833.1323, 1783.234
833.6144, 1778.104
834.0965, 1778.975
834.5786, 1790.564
835.0607, 1799.359
835.5428, 1790.854
836.0250, 1780.078
836.5071, 1785.531
836.9892, 1800.629
837.4713, 1810.964
837.9534, 1812.836
838.4355, 1809.218
838.9177, 1801.062
839.3998, 1791.727
839.8819, 1787.690
840.3640, 1788.752
840.8461, 1794.795
841.3282, 1805.864
841.8104, 1817.376
842.2925, 1827.702
842.7746, 1833.183
843.2567, 1824.176
843.7388, 1796.918
844.2209, 1785.611
844.7031, 1797.115
845.1852, 1808.362
845.6673, 1810.732
846.1494, 1811.266
846.6315, 1818.634
847.1136, 1832.300
847.5958, 1840.713
848.0779, 1843.984
848.5600, 1841.831
849.0421, 1827.554
849.5242, 1814.259
850.0063, 1810.195
850.4885, 1813.206
850.9706, 1818.502
851.4527, 1825.134
851.9348, 1832.921
852.4169, 1844.968
852.8990, 1855.016
853.3812, 1854.741
853.8633, 1850.637
854.3454, 1854.919
854.8275, 1868.167
855.3096, 1879.168
855.7917, 1880.283
856.2739, 1875.937
856.7560, 1870.401
857.2381, 1864.628
857.7202, 1861.347
858.2023, 1860.603
858.6844, 1859.931
859.1666, 1857.987
859.6487, 1857.823
860.1308, 1866.825
860.6129, 1883.177
861.0950, 1881.995
861.5771, 1860.419
862.0593, 1848.947
862.5414, 1858.418
863.0235, 1872.096
863.5056, 1874.603
863.9877, 1868.460
864.4698, 1867.350
864.9520, 1875.703
865.4341, 1878.544
865.9162, 1868.824
866.3983, 1862.020
866.8804, 1870.650
867.3625, 1884.103
867.8447, 1885.988
868.3268, 1874.243
868.8089, 1867.589
869.2910, 1871.493
869.7731, 1876.728
870.2552, 1882.415
870.7374, 1886.434
871.2195, 1884.003
871.7016, 1878.267
872.1837, 1880.511
872.6658, 1898.567
873.1479, 1912.216
873.6301, 1905.475
874.1122, 1892.545
874.5943, 1884.857
875.0764, 1882.717
875.5585, 1885.709
876.0406, 1893.013
876.5228, 1900.107
877.0049, 1903.079
877.4870, 1904.166
877.9691, 1907.137
878.4512, 1910.903
878.9333, 1911.614
879.4155, 1909.345
879.8976, 1909.357
880.3797, 1914.888
880.8618, 1920.880
881.3439, 1917.157
881.8260, 1905.302
882.3082, 1900.120
882.7903, 1901.786
883.2724, 1911.069
883.7545, 1930.280
884.2366, 1946.002
884.7188, 1943.600
885.2009, 1927.706
885.6830, 1923.479
886.1651, 1937.643
886.6472, 1939.346
887.1293, 1918.359
887.6115, 1900.251
888.0936, 1898.812
888.5757, 1906.948
889.0578, 1913.572
889.5399, 1918.438
890.0220, 1923.356
890.5042, 1927.636
890.9863, 1932.937
891.4684, 1940.779
891.9505, 1948.653
892.4326, 1957.492
892.9147, 1964.648
893.3969, 1962.453
893.8790, 1946.305
894.3611, 1930.365
894.8432, 1915.285
895.3253, 1905.312
895.8074, 1906.203
896.2896, 1912.182
896.7717, 1914.709
897.2538, 1913.342
897.7359, 1915.516
898.2180, 1927.375
898.7001, 1940.165
899.1823, 1946.437
899.6644, 1950.453
900.1465, 1960.618
900.6286, 1973.172
901.1107, 1974.410
901.5928, 1959.648
902.0750, 1943.977
902.5571, 1943.669
903.0392, 1950.384
903.5213, 1948.058
904.0034, 1941.038
904.4855, 1944.101
904.9677, 1958.448
905.4498, 1970.886
905.9319, 1972.596
906.4140, 1969.170
906.8961, 1971.349
907.3782, 1977.376
907.8604, 1973.905
908.3425, 1960.995
908.8246, 1959.463
909.3067, 1977.296
909.7888, 1998.706
910.2709, 2008.167
910.7530, 2007.317
911.2351, 2001.675
911.7172, 1989.670
912.1993, 1986.969
912.6815, 1999.268
913.1636, 2004.834
913.6457, 1988.186
914.1278, 1966.056
914.6099, 1966.952
915.0920, 1993.329
915.5742, 2006.813
916.0563, 2001.183
916.5384, 1995.711
917.0205, 1994.173
917.5026, 1993.401
917.9847, 1990.794
918.4669, 1987.293
918.9490, 1985.080
919.4311, 1981.424
919.9132, 1986.275
920.3953, 2010.863
920.8774, 2030.084
921.3596, 2034.703
921.8417, 2031.567
922.3238, 2024.204
922.8059, 2014.471
923.2880, 2009.770
923.7701, 2015.418
924.2523, 2019.018
924.7344, 2009.696
925.2165, 2005.470
925.6986, 2026.645
926.1807, 2055.627
926.6628, 2063.752
927.1450, 2048.084
927.6271, 2035.018
928.1092, 2040.020
928.5913, 2045.584
929.0734, 2039.482
929.5555, 2031.356
930.0377, 2031.530
930.5198, 2038.220
931.0019, 2045.135
931.4840, 2050.265
931.9661, 2054.387
932.4482, 2058.501
932.9304, 2061.527
933.4125, 2061.537
933.8946, 2060.118
934.3767, 2059.670
934.8588, 2060.545
935.3409, 2062.199
935.8231, 2064.388
936.3052, 2066.983
936.7873, 2068.324
937.2694, 2070.828
937.7515, 2083.750
938.2336, 2101.096
938.7158, 2102.531
939.1979, 2085.091
939.6800, 2065.539
940.1621, 2055.195
940.6442, 2053.441
941.1263, 2063.695
941.6085, 2081.289
942.0906, 2089.509
942.5727, 2088.299
943.0548, 2084.646
943.5369, 2081.148
944.0190, 2081.125
944.5012, 2089.299
944.9833, 2101.572
945.4654, 2103.569
945.9475, 2096.648
946.4296, 2097.757
946.9117, 2108.944
947.3939, 2117.996
947.8760, 2118.810
948.3581, 2116.180
948.8402, 2116.941
949.3223, 2120.298
949.8044, 2117.292
950.2866, 2106.539
950.7687, 2108.297
951.2508, 2128.766
951.7329, 2147.581
952.2150, 2152.087
952.6971, 2147.166
953.1793, 2140.549
953.6614, 2131.582
954.1435, 2133.238
954.6256, 2149.928
955.1077, 2159.031
955.5898, 2151.656
956.0720, 2144.489
956.5541, 2150.362
957.0362, 2165.868
957.5183, 2183.309
958.0004, 2207.223
958.4825, 2212.729
958.9647, 2189.545
959.4468, 2170.569
959.9289, 2165.788
960.4110, 2168.622
960.8931, 2176.252
961.3752, 2186.273
961.8574, 2186.610
962.3395, 2170.770
962.8216, 2159.470
963.3037, 2153.253
963.7858, 2151.132
964.2679, 2159.153
964.7501, 2165.600
965.2322, 2153.640
965.7143, 2125.803
966.1964, 2111.014
966.6785, 2116.886
967.1606, 2124.048
967.6428, 2135.162
968.1249, 2144.019
968.6070, 2147.562
969.0891, 2147.669
969.5712, 2145.736
970.0533, 2141.881
970.5355, 2139.886
971.0176, 2142.742
971.4997, 2143.429
971.9818, 2131.265
972.4639, 2127.159
972.9460, 2154.018
973.4282, 2190.538
973.9103, 2201.865
974.3924, 2184.428
974.8745, 2172.051
975.3566, 2173.013
975.8387, 2175.291
976.3209, 2177.712
976.8030, 2178.810
977.2851, 2174.607
977.7672, 2169.565
978.2493, 2172.554
978.7314, 2185.365
979.2136, 2197.218
979.6957, 2207.398
980.1778, 2214.053
980.6599, 2216.957
981.1420, 2215.719
981.6241, 2206.226
982.1063, 2193.382
982.5884, 2187.296
983.0705, 2190.177
983.5526, 2196.448
984.0347, 2211.655
984.5168, 2220.856
984.9990, 2208.806
985.4811, 2195.198
985.9632, 2202.317
986.4453, 2222.207
986.9274, 2230.934
987.4095, 2221.145
987.8917, 2211.918
988.3738, 2208.590
988.8559, 2209.363
989.3380, 2217.002
989.8201, 2225.382
990.3022, 2226.233
990.7844, 2222.591
991.2665, 2226.116
991.7486, 2242.443
992.2307, 2252.579
992.7128, 2241.415
993.1949, 2230.203
993.6771, 2234.912
994.1592, 2243.500
994.6413, 2241.305
995.1234, 2230.196
995.6055, 2220.071
996.0876, 2211.657
996.5698, 2214.155
997.0519, 2246.376
997.5340, 2274.369
998.0161, 2272.085
998.4982, 2256.794
998.9803, 2245.474
999.4625, 2241.153
999.9446, 2244.662
1000.427, 2259.028
1000.909, 2270.339
1001.391, 2268.814
1001.873, 2265.948
1002.355, 2271.668
1002.837, 2278.862
1003.319, 2278.275
1003.802, 2270.398
1004.284, 2260.633
1004.766, 2248.584
1005.248, 2242.655
1005.730, 2251.667
1006.212, 2262.725
1006.694, 2270.062
1007.176, 2272.485
1007.658, 2265.642
1008.141, 2252.706
1008.623, 2246.005
1009.105, 2251.232
1009.587, 2257.597
1010.069, 2258.129
1010.551, 2260.552
1011.033, 2273.153
1011.515, 2288.311
1011.997, 2296.011
1012.480, 2297.042
1012.962, 2299.878
1013.444, 2309.205
1013.926, 2313.910
1014.408, 2303.098
1014.890, 2293.298
1015.372, 2297.336
1015.854, 2306.250
1016.337, 2308.524
1016.819, 2305.005
1017.301, 2303.971
1017.783, 2307.785
1018.265, 2314.089
1018.747, 2328.145
1019.229, 2337.375
1019.711, 2329.680
1020.193, 2317.030
1020.676, 2311.220
1021.158, 2312.944
1021.640, 2320.593
1022.122, 2338.290
1022.604, 2346.748
1023.086, 2329.024
1023.568, 2313.616
1024.050, 2316.632
1024.533, 2327.356
1025.015, 2335.996
1025.497, 2342.082
1025.979, 2347.141
1026.461, 2349.941
1026.943, 2357.161
1027.425, 2376.398
1027.907, 2393.014
1028.390, 2397.263
1028.872, 2399.122
1029.354, 2411.517
1029.836, 2429.287
1030.318, 2434.256
1030.800, 2420.031
1031.282, 2407.220
1031.764, 2394.275
1032.246, 2389.566
1032.729, 2402.511
1033.211, 2418.958
1033.693, 2426.210
1034.175, 2427.862
1034.657, 2435.573
1035.139, 2453.108
1035.621, 2465.162
1036.103, 2462.516
1036.585, 2465.359
1037.068, 2486.568
1037.550, 2507.101
1038.032, 2513.807
1038.514, 2509.713
1038.996, 2499.510
1039.478, 2478.729
1039.960, 2473.331
1040.442, 2494.363
1040.925, 2513.580
1041.407, 2531.164
1041.889, 2539.665
1042.371, 2528.907
1042.853, 2509.270
1043.335, 2499.583
1043.817, 2500.389
1044.299, 2506.029
1044.781, 2520.201
1045.264, 2531.297
1045.746, 2539.457
1046.228, 2540.645
1046.710, 2530.484
1047.192, 2514.389
1047.674, 2499.465
1048.156, 2485.858
1048.638, 2480.461
1049.120, 2485.121
1049.603, 2492.532
1050.085, 2504.284
1050.567, 2510.954
1051.049, 2506.606
1051.531, 2498.379
1052.013, 2495.402
1052.495, 2497.026
1052.977, 2500.668
1053.460, 2508.098
1053.942, 2500.511
1054.424, 2473.419
1054.906, 2451.702
1055.388, 2445.800
1055.870, 2446.070
1056.352, 2441.589
1056.834, 2436.359
1057.317, 2448.107
1057.799, 2475.579
1058.281, 2484.329
1058.763, 2472.501
1059.245, 2463.925
1059.727, 2466.327
1060.209, 2471.188
1060.691, 2471.412
1061.173, 2469.167
1061.656, 2467.665
1062.138, 2467.679
1062.620, 2476.333
1063.102, 2490.988
1063.584, 2492.964
1064.066, 2479.004
1064.548, 2464.073
1065.030, 2457.605
1065.512, 2457.728
1065.995, 2467.169
1066.477, 2478.591
1066.959, 2472.509
1067.441, 2455.469
1067.923, 2446.865
1068.405, 2448.450
1068.887, 2448.375
1069.369, 2440.621
1069.852, 2438.575
1070.334, 2467.191
1070.816, 2498.322
1071.298, 2489.334
1071.780, 2462.691
1072.262, 2454.161
1072.744, 2463.065
1073.226, 2471.578
1073.708, 2473.924
1074.191, 2479.803
1074.673, 2504.468
1075.155, 2524.650
1075.637, 2519.753
1076.119, 2504.469
1076.601, 2489.630
1077.083, 2478.000
1077.565, 2471.593
1078.047, 2470.766
1078.530, 2474.461
1079.012, 2486.390
1079.494, 2496.108
1079.976, 2497.576
1080.458, 2497.623
1080.940, 2503.002
1081.422, 2508.107
1081.904, 2503.772
1082.386, 2491.286
1082.869, 2482.500
1083.351, 2478.781
1083.833, 2480.112
1084.315, 2490.429
1084.797, 2500.769
1085.279, 2509.697
1085.761, 2515.728
1086.243, 2516.345
1086.726, 2513.292
1087.208, 2512.306
1087.690, 2515.364
1088.172, 2511.792
1088.654, 2495.369
1089.136, 2485.390
1089.618, 2486.995
1090.100, 2492.997
1090.583, 2497.699
1091.065, 2506.124
1091.547, 2529.861
1092.029, 2568.116
1092.511, 2586.723
1092.993, 2583.920
1093.475, 2570.337
1093.957, 2544.035
1094.439, 2532.819
1094.922, 2551.383
1095.404, 2576.586
1095.886, 2582.237
1096.368, 2573.809
1096.850, 2567.435
1097.332, 2563.196
1097.814, 2560.638
1098.296, 2560.240
1098.778, 2568.514
1099.261, 2586.507
1099.743, 2600.610
1100.225, 2599.536
1100.707, 2594.893
1101.189, 2608.323
1101.671, 2628.174
1102.153, 2629.293
1102.635, 2617.481
1103.118, 2604.476
1103.600, 2595.597
1104.082, 2602.184
1104.564, 2630.218
1105.046, 2658.138
1105.528, 2666.178
1106.010, 2668.383
1106.492, 2677.493
1106.974, 2688.492
1107.457, 2694.345
1107.939, 2696.892
1108.421, 2700.552
1108.903, 2706.618
1109.385, 2718.258
1109.867, 2744.400
1110.349, 2765.610
1110.831, 2768.232
1111.313, 2770.722
1111.796, 2787.395
1112.278, 2809.163
1112.760, 2825.068
1113.242, 2834.453
1113.724, 2838.935
1114.206, 2831.396
1114.688, 2834.633
1115.170, 2863.239
1115.653, 2880.129
1116.135, 2865.979
1116.617, 2850.488
1117.099, 2856.193
1117.581, 2875.746
1118.063, 2892.973
1118.545, 2907.765
1119.027, 2923.058
1119.510, 2940.528
1119.992, 2948.966
1120.474, 2945.740
1120.956, 2936.626
1121.438, 2922.182
1121.920, 2918.770
1122.402, 2951.805
1122.884, 3003.777
1123.366, 3014.900
1123.849, 2993.511
1124.331, 2984.840
1124.813, 2990.659
1125.295, 3001.189
1125.777, 3012.379
1126.259, 3016.421
1126.741, 3006.713
1127.223, 2993.804
1127.705, 2991.435
1128.188, 2993.306
1128.670, 2990.159
1129.152, 2984.420
1129.634, 2982.315
1130.116, 2982.454
1130.598, 2977.433
1131.080, 2964.638
1131.562, 2951.250
1132.045, 2941.862
1132.527, 2932.301
1133.009, 2917.918
1133.491, 2904.734
1133.973, 2901.558
1134.455, 2900.856
1134.937, 2886.291
1135.419, 2859.273
1135.901, 2848.448
1136.384, 2874.369
1136.866, 2886.677
1137.348, 2874.891
1137.830, 2858.017
1138.312, 2834.841
1138.794, 2817.057
1139.276, 2816.480
1139.758, 2825.727
1140.240, 2826.937
1140.723, 2819.307
1141.205, 2818.116
1141.687, 2825.197
1142.169, 2825.301
1142.651, 2815.515
1143.133, 2803.853
1143.615, 2793.764
1144.097, 2787.100
1144.580, 2786.657
1145.062, 2789.795
1145.544, 2790.286
1146.026, 2788.693
1146.508, 2786.478
1146.990, 2784.019
1147.472, 2781.503
1147.954, 2779.458
1148.437, 2780.501
1148.919, 2786.376
1149.401, 2793.084
1149.883, 2793.672
1150.365, 2796.744
1150.847, 2816.504
1151.329, 2839.370
1151.811, 2846.982
1152.293, 2844.089
1152.776, 2846.485
1153.258, 2857.011
1153.740, 2861.196
1154.222, 2842.482
1154.704, 2835.016
1155.186, 2862.123
1155.668, 2884.217
1156.150, 2874.228
1156.632, 2856.468
1157.115, 2855.306
1157.597, 2866.678
1158.079, 2876.694
1158.561, 2883.584
1159.043, 2899.927
1159.525, 2929.765
1160.007, 2952.524
1160.489, 2963.514
1160.972, 2972.253
1161.454, 2983.936
1161.936, 2994.316
1162.418, 2995.645
1162.900, 2995.211
1163.382, 3023.250
1163.864, 3068.323
1164.346, 3076.425
1164.828, 3054.559
1165.311, 3048.448
1165.793, 3067.372
1166.275, 3092.089
1166.757, 3112.999
1167.239, 3124.631
1167.721, 3108.412
1168.203, 3094.857
1168.685, 3124.067
1169.167, 3165.012
1169.650, 3182.936
1170.132, 3180.635
1170.614, 3167.704
1171.096, 3147.262
1171.578, 3137.622
1172.060, 3151.748
1172.542, 3164.310
1173.024, 3172.390
1173.507, 3176.085
1173.989, 3171.844
1174.471, 3167.422
1174.953, 3170.451
1175.435, 3177.131
1175.917, 3177.797
1176.399, 3172.066
1176.881, 3165.243
1177.364, 3155.709
1177.846, 3161.760
1178.328, 3186.792
1178.810, 3209.521
1179.292, 3220.852
1179.774, 3229.835
1180.256, 3246.995
1180.738, 3261.495
1181.220, 3244.406
1181.703, 3214.834
1182.185, 3216.706
1182.667, 3239.610
1183.149, 3258.971
1183.631, 3269.265
1184.113, 3268.224
1184.595, 3254.544
1185.077, 3246.048
1185.559, 3257.581
1186.042, 3270.940
1186.524, 3274.217
1187.006, 3278.536
1187.488, 3299.177
1187.970, 3321.275
1188.452, 3320.092
1188.934, 3299.573
1189.416, 3292.724
1189.899, 3305.498
1190.381, 3314.571
1190.863, 3321.217
1191.345, 3319.723
1191.827, 3306.660
1192.309, 3293.415
1192.791, 3286.128
1193.273, 3282.506
1193.755, 3279.469
1194.238, 3277.889
1194.720, 3284.830
1195.202, 3295.246
1195.684, 3282.615
1196.166, 3253.760
1196.648, 3244.758
1197.130, 3258.234
1197.612, 3260.077
1198.094, 3232.204
1198.577, 3204.453
1199.059, 3200.786
1199.541, 3205.659
1200.023, 3209.413
1200.505, 3214.215
1200.987, 3229.978
1201.469, 3244.066
1201.951, 3231.422
1202.434, 3194.262
1202.916, 3168.545
1203.398, 3159.100
1203.880, 3161.019
1204.362, 3185.590
1204.844, 3196.417
1205.326, 3179.891
1205.808, 3163.499
##END=



