##NAMES=Norrishite
##RRUFFID=R130089
##IDEAL CHEMISTRY=KLiMn^3+^_2_Si_4_O_12_
##LOCALITY=Wessels mine, Kalahari Manganese Field, South Africa
##OWNER=RRUFF
##SOURCE=Marcus Origlieri
##DESCRIPTION=Dark brown platy massive cleavages associated with purple sugilite and blue wesselsite.
##STATUS=The identification of this mineral has been confirmed only by single crystal X-ray diffraction.
##URL=rruff.info/R130089
113.3769, 92.54811
113.8591, 92.44515
114.3412, 91.49312
114.8233, 90.59682
115.3054, 89.70565
115.7875, 88.88290
116.2696, 88.23203
116.7517, 87.79700
117.2339, 87.45274
117.7160, 86.86037
118.1981, 85.78581
118.6802, 84.97340
119.1623, 84.78490
119.6444, 85.04796
120.1266, 85.31515
120.6087, 85.46276
121.0908, 85.41190
121.5729, 85.10061
122.0550, 84.47073
122.5371, 83.68176
123.0193, 82.80266
123.5014, 81.80576
123.9835, 80.93513
124.4656, 80.47047
124.9477, 80.14265
125.4298, 79.67786
125.9120, 78.90655
126.3941, 78.04842
126.8762, 77.66158
127.3583, 78.12533
127.8404, 78.43289
128.3225, 78.22774
128.8047, 77.72203
129.2868, 77.21104
129.7689, 76.90117
130.2510, 76.76388
130.7331, 76.37270
131.2152, 75.19092
131.6974, 74.25850
132.1795, 73.99715
132.6616, 74.23283
133.1437, 74.49837
133.6258, 74.36459
134.1079, 73.72536
134.5901, 73.40038
135.0722, 73.52147
135.5543, 73.78081
136.0364, 74.11166
136.5185, 74.46636
137.0006, 74.67953
137.4828, 74.53865
137.9649, 73.96729
138.4470, 73.34003
138.9291, 72.64469
139.4112, 71.91418
139.8933, 71.13529
140.3755, 70.27217
140.8576, 69.50535
141.3397, 69.15579
141.8218, 69.18192
142.3039, 69.20174
142.7860, 69.04910
143.2681, 68.76254
143.7503, 68.47997
144.2324, 68.23183
144.7145, 67.99506
145.1966, 67.69991
145.6787, 67.34936
146.1608, 67.09824
146.6430, 67.12895
147.1251, 67.47504
147.6072, 67.77560
148.0893, 68.06525
148.5714, 68.21901
149.0535, 68.04538
149.5357, 67.53000
150.0178, 66.97976
150.4999, 66.92017
150.9820, 67.73107
151.4641, 68.19810
151.9462, 68.04758
152.4284, 67.67209
152.9105, 67.34452
153.3926, 67.17390
153.8747, 67.12815
154.3568, 67.13412
154.8389, 67.36625
155.3211, 67.43005
155.8032, 67.11769
156.2853, 66.68400
156.7674, 66.45700
157.2495, 66.60942
157.7316, 67.03726
158.2138, 67.29952
158.6959, 67.19042
159.1780, 67.16995
159.6601, 67.33672
160.1422, 67.67342
160.6243, 68.17625
161.1065, 68.90593
161.5886, 69.75715
162.0707, 70.27641
162.5528, 70.08920
163.0349, 69.95075
163.5170, 70.31431
163.9991, 71.14670
164.4813, 72.12655
164.9634, 73.10143
165.4455, 74.08646
165.9276, 75.11710
166.4097, 76.26588
166.8918, 77.41329
167.3740, 78.40901
167.8561, 79.22945
168.3382, 80.00204
168.8203, 80.78920
169.3024, 81.57140
169.7845, 82.31702
170.2667, 82.96597
170.7488, 83.59555
171.2309, 84.36991
171.7130, 85.26700
172.1951, 86.37908
172.6772, 87.72265
173.1594, 89.26775
173.6415, 91.00391
174.1236, 92.96207
174.6057, 95.09653
175.0878, 97.08998
175.5699, 98.64274
176.0521, 100.4071
176.5342, 102.6110
177.0163, 105.1389
177.4984, 107.7929
177.9805, 110.4911
178.4626, 113.2419
178.9448, 115.5234
179.4269, 117.0734
179.9090, 118.4226
180.3911, 119.4985
180.8732, 120.4659
181.3553, 121.6786
181.8375, 123.5069
182.3196, 126.0777
182.8017, 127.9457
183.2838, 128.8261
183.7659, 129.4348
184.2480, 130.4889
184.7301, 131.7842
185.2123, 132.2770
185.6944, 131.0058
186.1765, 127.7035
186.6586, 123.5468
187.1407, 118.1373
187.6228, 112.2416
188.1050, 106.1098
188.5871, 99.84574
189.0692, 94.02013
189.5513, 89.19532
190.0334, 85.41920
190.5155, 82.34312
190.9977, 80.17176
191.4798, 78.59786
191.9619, 77.31320
192.4440, 76.29512
192.9261, 75.49946
193.4082, 74.88079
193.8904, 74.43529
194.3725, 74.29203
194.8546, 74.64468
195.3367, 75.30172
195.8188, 75.83907
196.3009, 76.09725
196.7831, 76.52908
197.2652, 77.55764
197.7473, 79.01820
198.2294, 80.49742
198.7115, 81.63180
199.1936, 82.57755
199.6758, 84.03752
200.1579, 86.35860
200.6400, 88.76824
201.1221, 90.74187
201.6042, 92.44261
202.0863, 94.27685
202.5685, 96.79895
203.0506, 99.92227
203.5327, 102.0889
204.0148, 103.5353
204.4969, 103.5448
204.9790, 101.1470
205.4612, 97.05578
205.9433, 92.82518
206.4254, 89.59828
206.9075, 87.37911
207.3896, 86.10137
207.8717, 86.32021
208.3539, 87.04273
208.8360, 88.19103
209.3181, 89.62843
209.8002, 91.13779
210.2823, 92.51218
210.7644, 93.70200
211.2466, 95.13607
211.7287, 96.85320
212.2108, 98.74357
212.6929, 100.7225
213.1750, 102.8264
213.6571, 105.2227
214.1393, 108.1113
214.6214, 111.6162
215.1035, 114.7591
215.5856, 117.3238
216.0677, 119.8147
216.5498, 122.4592
217.0320, 125.2647
217.5141, 128.2468
217.9962, 131.5461
218.4783, 135.2819
218.9604, 137.6155
219.4425, 139.4590
219.9247, 139.4094
220.4068, 136.1320
220.8889, 129.8133
221.3710, 122.0584
221.8531, 113.8740
222.3352, 105.2758
222.8174, 97.85645
223.2995, 91.68899
223.7816, 86.59862
224.2637, 82.65352
224.7458, 79.80807
225.2279, 77.62611
225.7100, 75.81761
226.1922, 74.44056
226.6743, 73.52688
227.1564, 73.21983
227.6385, 73.29565
228.1206, 73.63752
228.6027, 74.24503
229.0849, 74.92559
229.5670, 75.54282
230.0491, 76.12514
230.5312, 76.75548
231.0133, 77.35082
231.4954, 78.05200
231.9776, 79.01879
232.4597, 80.26099
232.9418, 81.69596
233.4239, 83.27216
233.9060, 85.02387
234.3881, 87.06168
234.8703, 89.57212
235.3524, 92.24690
235.8345, 94.87074
236.3166, 97.62312
236.7987, 99.61678
237.2808, 100.7968
237.7630, 100.8413
238.2451, 99.04298
238.7272, 94.83107
239.2093, 89.18814
239.6914, 83.37864
240.1735, 77.03153
240.6557, 71.67286
241.1378, 68.14093
241.6199, 65.72000
242.1020, 63.92638
242.5841, 62.67045
243.0662, 61.77336
243.5484, 60.92449
244.0305, 60.06713
244.5126, 59.43069
244.9947, 59.20997
245.4768, 59.14972
245.9589, 59.06591
246.4410, 58.90007
246.9232, 58.64700
247.4053, 58.25633
247.8874, 57.60952
248.3695, 57.11861
248.8516, 56.77229
249.3337, 56.63189
249.8159, 56.83585
250.2980, 57.41331
250.7801, 58.12415
251.2622, 58.58164
251.7443, 58.73452
252.2264, 58.71938
252.7086, 58.38398
253.1907, 58.02186
253.6728, 57.77122
254.1549, 57.69287
254.6370, 57.85723
255.1191, 58.44283
255.6013, 59.79850
256.0834, 60.81163
256.5655, 61.48658
257.0476, 61.87250
257.5297, 61.91084
258.0118, 61.63573
258.4940, 61.23676
258.9761, 60.95266
259.4582, 60.76712
259.9403, 60.76289
260.4224, 60.87943
260.9045, 61.17781
261.3867, 61.77007
261.8688, 62.62591
262.3509, 63.54910
262.8330, 64.30599
263.3151, 64.80311
263.7972, 65.48463
264.2794, 66.49509
264.7615, 67.52850
265.2436, 68.40578
265.7257, 69.12746
266.2078, 69.80204
266.6899, 70.52391
267.1721, 71.28242
267.6542, 72.16751
268.1363, 73.09947
268.6184, 74.19603
269.1005, 75.61276
269.5826, 77.27283
270.0648, 78.91758
270.5469, 80.32939
271.0290, 81.48827
271.5111, 82.73924
271.9932, 84.20981
272.4753, 85.62495
272.9575, 87.28309
273.4396, 88.84887
273.9217, 89.49321
274.4038, 88.63560
274.8859, 86.34204
275.3680, 83.34037
275.8501, 78.96426
276.3322, 74.76997
276.8144, 71.04385
277.2965, 67.87087
277.7786, 65.46138
278.2607, 63.98867
278.7428, 63.27289
279.2249, 62.57011
279.7071, 61.68362
280.1892, 61.02641
280.6713, 60.81438
281.1534, 60.88778
281.6355, 60.95054
282.1176, 60.86382
282.5998, 60.73381
283.0819, 60.85871
283.5640, 61.37970
284.0461, 61.84499
284.5282, 62.15601
285.0103, 62.35927
285.4925, 62.49380
285.9746, 62.56133
286.4567, 62.63267
286.9388, 62.81999
287.4209, 63.09742
287.9030, 63.55072
288.3852, 64.31714
288.8673, 65.21707
289.3494, 66.03395
289.8315, 66.71839
290.3136, 67.33031
290.7957, 67.90694
291.2779, 68.42010
291.7600, 69.13303
292.2421, 70.26441
292.7242, 71.49861
293.2063, 72.50157
293.6884, 73.23725
294.1706, 73.92698
294.6527, 74.77760
295.1348, 75.79491
295.6169, 76.77441
296.0990, 77.74957
296.5811, 78.65562
297.0633, 79.37447
297.5454, 79.92437
298.0275, 80.55835
298.5096, 81.51720
298.9917, 82.71794
299.4738, 83.63749
299.9560, 84.71359
300.4381, 85.12291
300.9202, 84.31306
301.4023, 82.38605
301.8844, 79.73103
302.3665, 76.27773
302.8487, 72.40671
303.3308, 69.20796
303.8129, 66.69459
304.2950, 64.69499
304.7771, 63.28872
305.2592, 62.34750
305.7414, 61.53864
306.2235, 60.73207
306.7056, 60.01548
307.1877, 59.59866
307.6698, 59.51670
308.1519, 59.48705
308.6341, 59.44537
309.1162, 59.39246
309.5983, 59.34815
310.0804, 59.33068
310.5625, 59.26499
311.0446, 58.98961
311.5268, 58.48997
312.0089, 58.13385
312.4910, 58.04189
312.9731, 58.10859
313.4552, 58.24955
313.9373, 58.45725
314.4195, 58.63085
314.9016, 58.64121
315.3837, 58.50437
315.8658, 58.47404
316.3479, 58.67302
316.8300, 58.91326
317.3121, 58.99270
317.7943, 58.92353
318.2764, 58.95562
318.7585, 59.33690
319.2406, 59.94558
319.7227, 60.21915
320.2048, 59.87182
320.6870, 59.48714
321.1691, 59.37984
321.6512, 59.50090
322.1333, 59.67183
322.6154, 59.80045
323.0975, 59.94251
323.5797, 60.25454
324.0618, 60.84323
324.5439, 61.34577
325.0260, 61.56409
325.5081, 61.61987
325.9902, 61.76403
326.4724, 62.09332
326.9545, 62.46338
327.4366, 62.60540
327.9187, 62.46002
328.4008, 62.46465
328.8829, 62.85084
329.3651, 63.35836
329.8472, 63.70339
330.3293, 63.83686
330.8114, 63.82150
331.2935, 63.70124
331.7756, 63.46487
332.2578, 63.18125
332.7399, 62.66078
333.2220, 62.24019
333.7041, 62.18499
334.1862, 62.48427
334.6683, 62.95958
335.1505, 63.51891
335.6326, 64.15147
336.1147, 64.75076
336.5968, 65.27192
337.0789, 65.81724
337.5610, 66.46359
338.0432, 67.17033
338.5253, 67.86022
339.0074, 68.51987
339.4895, 69.09055
339.9716, 69.38042
340.4537, 69.30692
340.9359, 69.15815
341.4180, 69.02956
341.9001, 68.84040
342.3822, 68.46351
342.8643, 67.86409
343.3464, 67.14425
343.8286, 66.42653
344.3107, 65.67332
344.7928, 65.06663
345.2749, 64.57952
345.7570, 64.26373
346.2391, 64.27479
346.7213, 64.56508
347.2034, 64.79624
347.6855, 64.62257
348.1676, 64.01089
348.6497, 63.76995
349.1318, 64.14309
349.6140, 64.57375
350.0961, 64.82969
350.5782, 64.95454
351.0603, 65.10405
351.5424, 65.38043
352.0245, 65.72238
352.5067, 65.86140
352.9888, 65.45860
353.4709, 65.27273
353.9530, 65.50886
354.4351, 65.96432
354.9172, 66.45041
355.3994, 66.89375
355.8815, 67.24466
356.3636, 67.40329
356.8457, 67.16689
357.3278, 67.15825
357.8099, 67.51985
358.2920, 67.97914
358.7741, 68.41403
359.2563, 68.77749
359.7384, 68.98919
360.2205, 68.91970
360.7026, 68.49509
361.1847, 68.52242
361.6668, 69.38527
362.1490, 70.26865
362.6311, 70.84069
363.1132, 71.24061
363.5953, 71.78069
364.0774, 72.66740
364.5595, 73.79265
365.0417, 74.71210
365.5238, 75.57700
366.0059, 75.96999
366.4880, 75.73077
366.9701, 75.08588
367.4522, 74.28297
367.9344, 73.39606
368.4165, 72.26576
368.8986, 70.50970
369.3807, 67.68849
369.8628, 65.46423
370.3449, 64.20618
370.8271, 63.24514
371.3092, 62.25747
371.7913, 61.23058
372.2734, 60.29496
372.7555, 59.58517
373.2376, 59.09627
373.7198, 58.62442
374.2019, 58.17246
374.6840, 57.73600
375.1661, 57.31987
375.6482, 56.91510
376.1303, 56.48829
376.6125, 55.99263
377.0946, 55.53178
377.5767, 55.36418
378.0588, 55.58947
378.5409, 55.82794
379.0230, 56.04237
379.5052, 56.18865
379.9873, 56.23424
380.4694, 56.17199
380.9515, 55.99560
381.4336, 55.58422
381.9157, 54.94696
382.3979, 54.63139
382.8800, 54.86245
383.3621, 55.26696
383.8442, 55.64736
384.3263, 55.98360
384.8084, 56.22555
385.2906, 56.30798
385.7727, 56.28106
386.2548, 56.24472
386.7369, 56.18768
387.2190, 56.16254
387.7011, 56.21277
388.1833, 56.31173
388.6654, 56.42251
389.1475, 56.52485
389.6296, 56.66264
390.1117, 56.92160
390.5938, 57.27892
391.0760, 57.52633
391.5581, 57.52602
392.0402, 57.47548
392.5223, 57.68270
393.0044, 58.16866
393.4865, 58.59219
393.9687, 58.81742
394.4508, 58.89844
394.9329, 58.84581
395.4150, 58.63752
395.8971, 58.55243
396.3792, 58.93158
396.8614, 59.72059
397.3435, 60.23475
397.8256, 60.29160
398.3077, 60.20392
398.7898, 60.14998
399.2719, 60.12177
399.7540, 60.06710
400.2361, 59.95815
400.7183, 59.80835
401.2004, 59.65601
401.6825, 59.50206
402.1646, 59.34398
402.6467, 59.11678
403.1288, 58.91460
403.6110, 58.86238
404.0931, 58.98414
404.5752, 59.19665
405.0573, 59.42256
405.5394, 59.69020
406.0215, 59.79984
406.5037, 59.65399
406.9858, 59.46532
407.4679, 59.26340
407.9500, 59.10268
408.4321, 59.09088
408.9142, 59.30544
409.3964, 59.69818
409.8785, 60.05269
410.3606, 60.44512
410.8427, 60.68489
411.3248, 60.59419
411.8069, 60.43514
412.2891, 60.47643
412.7712, 60.77804
413.2533, 61.17914
413.7354, 61.48159
414.2175, 61.68554
414.6996, 61.79216
415.1818, 61.62013
415.6639, 61.51845
416.1460, 61.65320
416.6281, 61.97237
417.1102, 62.34092
417.5923, 62.70271
418.0745, 63.02562
418.5566, 63.15841
419.0387, 62.93147
419.5208, 62.89595
420.0029, 63.35651
420.4850, 63.99828
420.9672, 64.57813
421.4493, 65.04153
421.9314, 65.35564
422.4135, 65.39897
422.8956, 65.19069
423.3777, 65.14050
423.8599, 65.37930
424.3420, 65.69653
424.8241, 65.92500
425.3062, 66.08936
425.7883, 66.28105
426.2704, 66.53128
426.7526, 66.83480
427.2347, 67.21818
427.7168, 67.69236
428.1989, 68.10091
428.6810, 68.37801
429.1631, 68.51550
429.6453, 68.52360
430.1274, 68.34902
430.6095, 68.16578
431.0916, 68.15865
431.5737, 68.18935
432.0558, 67.95224
432.5380, 67.35670
433.0201, 66.59132
433.5022, 65.80864
433.9843, 64.98678
434.4664, 64.45279
434.9485, 64.61304
435.4307, 64.72771
435.9128, 64.13500
436.3949, 63.03080
436.8770, 62.16128
437.3591, 61.98732
437.8412, 62.31876
438.3234, 62.43547
438.8055, 62.08024
439.2876, 61.83791
439.7697, 61.83930
440.2518, 61.91903
440.7339, 61.94735
441.2160, 61.88627
441.6982, 61.72570
442.1803, 61.40728
442.6624, 60.85857
443.1445, 60.68003
443.6266, 61.32918
444.1087, 61.87856
444.5909, 62.03294
445.0730, 61.89570
445.5551, 61.63215
446.0372, 61.30838
446.5193, 60.99985
447.0014, 60.91781
447.4836, 61.19056
447.9657, 61.30585
448.4478, 61.05704
448.9299, 60.70175
449.4120, 60.34122
449.8941, 60.00665
450.3763, 59.76715
450.8584, 59.72210
451.3405, 59.82503
451.8226, 59.85950
452.3047, 59.76516
452.7868, 59.74331
453.2690, 60.07416
453.7511, 60.51357
454.2332, 60.66457
454.7153, 60.28623
455.1974, 59.91050
455.6795, 60.07811
456.1617, 60.65516
456.6438, 61.04631
457.1259, 61.05153
457.6080, 60.88296
458.0901, 60.77595
458.5722, 60.72389
459.0544, 60.76130
459.5365, 60.95855
460.0186, 61.20257
460.5007, 61.39346
460.9828, 61.53503
461.4649, 61.68398
461.9471, 61.87550
462.4292, 62.10207
462.9113, 62.33780
463.3934, 62.72551
463.8755, 62.93702
464.3576, 62.71832
464.8398, 62.42430
465.3219, 62.51507
465.8040, 63.02880
466.2861, 63.51628
466.7682, 63.43657
467.2503, 62.69152
467.7325, 62.32153
468.2146, 62.69462
468.6967, 63.05574
469.1788, 63.15784
469.6609, 63.13386
470.1430, 63.19422
470.6252, 63.43199
471.1073, 63.78090
471.5894, 64.11689
472.0715, 64.41600
472.5536, 64.80819
473.0357, 65.43593
473.5179, 66.05595
474.0000, 66.48625
474.4821, 66.76832
474.9642, 67.10995
475.4463, 67.69355
475.9284, 68.39592
476.4106, 68.90677
476.8927, 69.17545
477.3748, 69.56520
477.8569, 70.33052
478.3390, 71.27699
478.8211, 72.06251
479.3033, 72.60696
479.7854, 73.23068
480.2675, 74.19229
480.7496, 75.31620
481.2317, 76.24183
481.7138, 76.89637
482.1959, 77.56445
482.6780, 78.48985
483.1602, 79.68124
483.6423, 80.99463
484.1244, 82.61055
484.6065, 84.14163
485.0886, 85.40719
485.5707, 86.49255
486.0529, 87.56268
486.5350, 88.68239
487.0171, 89.76138
487.4992, 90.62577
487.9813, 91.15426
488.4634, 91.81876
488.9456, 92.99171
489.4277, 93.92451
489.9098, 94.24939
490.3919, 94.03680
490.8740, 93.49155
491.3561, 92.71593
491.8383, 91.75102
492.3204, 90.70450
492.8025, 89.58216
493.2846, 88.37003
493.7667, 87.06288
494.2488, 85.67313
494.7310, 84.11503
495.2131, 82.42912
495.6952, 80.87884
496.1773, 79.71967
496.6594, 78.83929
497.1415, 77.89668
497.6237, 76.82803
498.1058, 75.96928
498.5879, 75.58984
499.0700, 75.51091
499.5521, 75.38253
500.0342, 75.17999
500.5164, 74.94385
500.9985, 74.68008
501.4806, 74.39870
501.9627, 74.10275
502.4448, 73.79311
502.9269, 73.50381
503.4091, 73.25908
503.8912, 73.05909
504.3733, 72.95623
504.8554, 73.05824
505.3375, 73.12589
505.8196, 73.19368
506.3018, 73.13707
506.7839, 72.69958
507.2660, 71.80622
507.7481, 70.75791
508.2302, 70.02926
508.7123, 69.71245
509.1945, 69.37946
509.6766, 68.90182
510.1587, 68.53784
510.6408, 68.50014
511.1229, 68.63289
511.6050, 68.63601
512.0872, 68.34911
512.5693, 67.89742
513.0514, 67.46323
513.5335, 67.02757
514.0156, 66.74659
514.4977, 66.70065
514.9799, 66.78290
515.4620, 66.98515
515.9441, 67.26587
516.4262, 67.36811
516.9083, 67.02363
517.3904, 66.53409
517.8726, 66.28452
518.3547, 66.26868
518.8368, 66.32623
519.3189, 66.41288
519.8010, 66.49048
520.2831, 66.42423
520.7653, 66.07376
521.2474, 66.00328
521.7295, 66.67168
522.2116, 67.40405
522.6937, 67.45876
523.1758, 66.92202
523.6580, 66.52077
524.1401, 66.80605
524.6222, 67.62173
525.1043, 68.17317
525.5864, 68.37814
526.0685, 68.40201
526.5507, 68.00427
527.0328, 67.61880
527.5149, 67.68669
527.9970, 68.19551
528.4791, 68.70505
528.9612, 68.77145
529.4434, 68.49303
529.9255, 68.49510
530.4076, 68.88856
530.8897, 69.30633
531.3718, 69.65539
531.8539, 69.91683
532.3361, 70.02953
532.8182, 69.95872
533.3003, 69.91897
533.7824, 70.02326
534.2645, 70.26360
534.7466, 70.68864
535.2288, 71.32383
535.7109, 71.87043
536.1930, 72.02238
536.6751, 71.88519
537.1572, 72.10515
537.6393, 72.95390
538.1215, 73.79316
538.6036, 74.43616
539.0857, 74.97658
539.5678, 75.51073
540.0499, 76.06711
540.5320, 76.66725
541.0142, 77.34396
541.4963, 78.10189
541.9784, 78.76885
542.4604, 79.33944
542.9426, 79.80955
543.4247, 80.18110
543.9068, 80.44894
544.3889, 80.62264
544.8710, 80.70178
545.3531, 80.63187
545.8353, 80.33074
546.3174, 79.80919
546.7995, 79.20454
547.2816, 78.51212
547.7637, 77.76511
548.2458, 76.84915
548.7280, 75.92220
549.2101, 75.28154
549.6922, 75.11831
550.1743, 74.94877
550.6564, 74.36701
551.1385, 73.57780
551.6207, 72.98859
552.1028, 72.68401
552.5849, 72.59707
553.0670, 72.70824
553.5491, 73.01920
554.0313, 73.19923
554.5134, 73.25323
554.9955, 73.19397
555.4776, 72.82478
555.9597, 72.43491
556.4418, 72.41353
556.9240, 72.84071
557.4061, 73.45570
557.8882, 73.99582
558.3703, 74.46072
558.8524, 74.76363
559.3345, 74.68746
559.8167, 74.76173
560.2988, 75.31835
560.7809, 76.03584
561.2630, 76.51566
561.7451, 76.64421
562.2272, 76.66398
562.7094, 76.76474
563.1915, 76.92564
563.6736, 77.09752
564.1557, 77.29144
564.6378, 77.41138
565.1199, 77.37300
565.6021, 77.19881
566.0842, 77.02084
566.5663, 76.87199
567.0484, 76.67451
567.5305, 76.30261
568.0126, 75.91557
568.4948, 75.76163
568.9769, 75.85738
569.4590, 75.97066
569.9411, 75.89478
570.4232, 75.63359
570.9053, 75.25498
571.3875, 74.49673
571.8696, 73.98087
572.3517, 74.01628
572.8338, 74.18980
573.3159, 74.07478
573.7980, 73.62943
574.2802, 73.19054
574.7623, 73.07545
575.2444, 73.21318
575.7265, 73.30188
576.2086, 73.31938
576.6907, 73.37906
577.1729, 73.52584
577.6550, 73.75504
578.1371, 74.08400
578.6192, 74.56251
579.1013, 74.91579
579.5834, 74.91628
580.0656, 74.81053
580.5477, 74.90745
581.0298, 75.20208
581.5119, 75.47269
581.9940, 75.56911
582.4761, 75.55741
582.9583, 75.66142
583.4404, 75.88399
583.9225, 76.23185
584.4046, 76.85300
584.8867, 77.46822
585.3688, 77.83427
585.8510, 78.01974
586.3331, 78.29144
586.8152, 78.83731
587.2973, 79.53250
587.7794, 80.10490
588.2615, 80.55327
588.7437, 80.86935
589.2258, 80.90073
589.7079, 80.96902
590.1900, 81.35670
590.6721, 82.03636
591.1542, 82.84776
591.6364, 83.83226
592.1185, 84.85194
592.6006, 85.81200
593.0827, 86.70305
593.5648, 87.45017
594.0469, 88.00429
594.5291, 88.61010
595.0112, 89.62891
595.4933, 91.15778
595.9754, 92.68425
596.4575, 93.95870
596.9396, 95.50576
597.4218, 97.64878
597.9039, 100.1367
598.3860, 102.5622
598.8681, 104.8008
599.3502, 107.1604
599.8323, 109.9897
600.3145, 113.2964
600.7966, 117.0844
601.2787, 121.5907
601.7608, 126.0433
602.2429, 129.7448
602.7250, 133.1818
603.2072, 137.0621
603.6893, 141.6241
604.1714, 146.2129
604.6535, 150.3860
605.1356, 154.4580
605.6177, 158.7159
606.0999, 163.2444
606.5820, 168.4185
607.0641, 174.5441
607.5462, 181.4387
608.0283, 188.3575
608.5104, 195.1423
608.9926, 202.1605
609.4747, 209.2774
609.9568, 216.7379
610.4389, 224.9309
610.9210, 233.6594
611.4031, 242.2947
611.8853, 250.4849
612.3674, 258.2761
612.8495, 266.1042
613.3316, 274.1390
613.8137, 280.7092
614.2958, 285.5460
614.7780, 288.6194
615.2601, 290.1396
615.7422, 290.0948
616.2243, 287.6397
616.7064, 282.4657
617.1885, 274.9881
617.6707, 264.8641
618.1528, 252.7284
618.6349, 239.3509
619.1170, 225.0388
619.5991, 210.8821
620.0812, 198.1883
620.5634, 186.9721
621.0455, 176.2683
621.5276, 165.7073
622.0097, 156.1775
622.4918, 148.0318
622.9739, 140.9281
623.4561, 134.5762
623.9382, 128.9426
624.4203, 124.1321
624.9023, 120.6271
625.3845, 117.9818
625.8666, 114.9198
626.3487, 111.3463
626.8308, 108.1415
627.3129, 105.7148
627.7950, 103.8618
628.2772, 102.2519
628.7593, 100.9258
629.2414, 99.60234
629.7235, 98.08666
630.2056, 96.69180
630.6877, 95.65034
631.1699, 94.90069
631.6520, 94.27058
632.1341, 93.68411
632.6162, 93.15261
633.0983, 92.78738
633.5804, 92.71846
634.0626, 92.07788
634.5447, 90.07712
635.0268, 88.54454
635.5089, 88.68085
635.9910, 89.60983
636.4731, 89.94671
636.9553, 89.25598
637.4374, 88.45741
637.9195, 88.15881
638.4016, 88.21889
638.8837, 88.46328
639.3658, 88.85545
639.8480, 89.10257
640.3301, 88.95340
640.8122, 88.58621
641.2943, 88.60285
641.7764, 89.36031
642.2585, 89.98961
642.7407, 90.44736
643.2228, 90.81469
643.7049, 90.99859
644.1870, 91.14304
644.6691, 91.60581
645.1512, 92.61476
645.6334, 93.82259
646.1155, 94.62306
646.5976, 95.02087
647.0797, 95.56013
647.5618, 96.36326
648.0439, 97.22344
648.5261, 97.92182
649.0082, 98.55308
649.4903, 99.39796
649.9724, 100.5800
650.4545, 101.8190
650.9366, 102.9927
651.4188, 104.1675
651.9009, 105.5227
652.3830, 107.0034
652.8651, 108.2121
653.3472, 108.8045
653.8293, 109.0028
654.3115, 109.6768
654.7936, 111.0561
655.2757, 112.3481
655.7578, 113.5366
656.2399, 114.5251
656.7220, 115.3297
657.2042, 115.8885
657.6863, 116.0097
658.1684, 115.4895
658.6505, 114.7212
659.1326, 113.9972
659.6147, 113.3255
660.0969, 112.8372
660.5790, 112.5767
661.0611, 112.0072
661.5432, 110.5843
662.0253, 108.3990
662.5074, 106.4649
662.9896, 104.9135
663.4717, 103.4493
663.9538, 102.1255
664.4359, 100.8139
664.9180, 99.38036
665.4001, 97.85404
665.8823, 96.37119
666.3644, 94.97433
666.8465, 93.72290
667.3286, 92.72970
667.8107, 91.99035
668.2928, 91.38320
668.7750, 90.94609
669.2571, 90.48311
669.7392, 89.75124
670.2213, 88.79392
670.7034, 88.07776
671.1855, 87.67236
671.6677, 87.43077
672.1498, 87.46269
672.6319, 87.54649
673.1140, 87.39858
673.5961, 87.02366
674.0782, 86.65213
674.5604, 86.43724
675.0425, 86.39104
675.5246, 86.58630
676.0067, 87.08189
676.4888, 87.57209
676.9709, 88.12452
677.4531, 88.50848
677.9352, 88.42002
678.4173, 88.00542
678.8994, 87.79125
679.3815, 87.98956
679.8636, 88.29826
680.3458, 88.55997
680.8279, 88.80980
681.3100, 89.08630
681.7921, 89.40405
682.2742, 89.80154
682.7563, 90.31091
683.2385, 90.92588
683.7206, 91.62439
684.2027, 92.42547
684.6848, 93.26369
685.1669, 94.04638
685.6490, 94.93340
686.1312, 96.08652
686.6133, 97.42474
687.0954, 98.70766
687.5775, 99.79560
688.0596, 100.8818
688.5417, 102.0853
689.0239, 103.4213
689.5060, 104.9689
689.9881, 106.7453
690.4702, 108.5138
690.9523, 110.0714
691.4344, 111.4961
691.9166, 113.2111
692.3987, 115.2707
692.8808, 117.5586
693.3629, 120.0703
693.8450, 122.7747
694.3271, 125.6813
694.8093, 128.7756
695.2914, 132.0155
695.7735, 135.3929
696.2556, 138.8767
696.7377, 142.4923
697.2198, 146.1933
697.7020, 149.9256
698.1841, 153.6693
698.6662, 157.3031
699.1483, 160.8412
699.6304, 164.1407
700.1125, 166.6100
700.5947, 168.3749
701.0768, 169.0368
701.5589, 168.8972
702.0410, 167.3736
702.5231, 163.7150
703.0052, 158.4595
703.4874, 152.5743
703.9695, 146.4668
704.4516, 140.2547
704.9337, 133.8834
705.4158, 127.5498
705.8979, 122.2184
706.3801, 118.0552
706.8622, 114.4557
707.3442, 111.0542
707.8264, 107.9700
708.3085, 105.5477
708.7906, 104.0097
709.2727, 102.5188
709.7548, 100.9665
710.2369, 99.48705
710.7191, 98.19545
711.2012, 97.02740
711.6833, 95.78365
712.1654, 94.39668
712.6475, 93.25502
713.1296, 93.06287
713.6118, 93.57446
714.0939, 93.28306
714.5760, 91.99926
715.0581, 90.87132
715.5402, 90.46214
716.0223, 90.46331
716.5045, 90.40020
716.9866, 90.28232
717.4687, 90.06312
717.9508, 89.62699
718.4329, 89.20817
718.9150, 88.94576
719.3972, 88.76480
719.8793, 88.50756
720.3614, 88.15537
720.8435, 87.90879
721.3256, 88.07661
721.8077, 88.48393
722.2899, 88.36289
722.7720, 87.63584
723.2541, 87.00903
723.7362, 86.69620
724.2183, 86.59025
724.7004, 86.66185
725.1826, 86.90379
725.6647, 86.90447
726.1468, 86.38914
726.6289, 85.93339
727.1110, 85.67070
727.5931, 85.62015
728.0753, 85.90116
728.5574, 86.44905
729.0395, 86.96054
729.5216, 87.21688
730.0037, 87.28690
730.4858, 87.31104
730.9680, 87.28806
731.4501, 87.26417
731.9322, 87.28201
732.4143, 87.21533
732.8964, 86.88445
733.3785, 86.36827
733.8607, 86.07944
734.3428, 86.10122
734.8249, 86.21968
735.3070, 86.48344
735.7891, 86.75404
736.2712, 86.87531
736.7534, 86.90313
737.2355, 87.04637
737.7176, 87.42441
738.1997, 87.81919
738.6818, 87.85058
739.1639, 87.56618
739.6461, 87.45932
740.1282, 87.61858
740.6103, 87.72518
741.0924, 87.58402
741.5745, 87.29049
742.0566, 87.02672
742.5388, 86.73891
743.0209, 86.65455
743.5030, 86.96982
743.9851, 87.30843
744.4672, 87.43609
744.9493, 87.46996
745.4315, 87.63068
745.9136, 87.96835
746.3957, 88.30589
746.8778, 88.42661
747.3599, 88.42021
747.8420, 88.62681
748.3242, 89.05617
748.8063, 89.25686
749.2884, 89.01273
749.7705, 88.63747
750.2526, 88.44739
750.7347, 88.44270
751.2169, 88.73125
751.6990, 89.71317
752.1811, 90.44273
752.6632, 90.60320
753.1453, 90.50623
753.6274, 90.34031
754.1096, 90.18709
754.5917, 90.17161
755.0738, 90.40627
755.5559, 90.72436
756.0380, 90.83488
756.5201, 90.81416
757.0023, 90.99925
757.4844, 91.44939
757.9665, 92.07104
758.4486, 92.88236
758.9307, 93.73514
759.4128, 94.10812
759.8950, 93.40425
760.3771, 93.31617
760.8592, 94.39202
761.3413, 95.46159
761.8234, 96.00857
762.3055, 96.16882
762.7877, 96.14040
763.2698, 95.96453
763.7519, 95.89216
764.2340, 96.34377
764.7161, 96.89399
765.1982, 96.75880
765.6804, 96.03501
766.1625, 95.38968
766.6446, 95.07395
767.1267, 94.97367
767.6088, 94.95662
768.0909, 95.02590
768.5731, 95.09524
769.0552, 95.16322
769.5373, 95.23371
770.0194, 95.40979
770.5015, 95.50816
770.9836, 95.37085
771.4658, 95.01514
771.9479, 94.55928
772.4300, 93.84328
772.9121, 93.30967
773.3942, 93.43227
773.8763, 93.86719
774.3585, 94.12139
774.8406, 94.11735
775.3227, 93.95803
775.8048, 93.70924
776.2869, 93.35468
776.7690, 92.75924
777.2512, 91.81262
777.7333, 91.38808
778.2154, 91.74051
778.6975, 92.25382
779.1796, 92.65272
779.6617, 92.98180
780.1439, 93.36552
780.6260, 93.88890
781.1081, 94.07174
781.5902, 93.39522
782.0723, 92.74465
782.5544, 92.81608
783.0366, 93.26026
783.5187, 93.44451
784.0008, 93.21691
784.4829, 92.90238
784.9650, 92.81222
785.4471, 92.85561
785.9293, 92.71555
786.4114, 92.38754
786.8935, 92.23173
787.3756, 92.36758
787.8577, 92.60418
788.3398, 92.74794
788.8220, 92.82901
789.3040, 93.09781
789.7861, 93.78069
790.2682, 94.31950
790.7504, 94.68407
791.2325, 94.88335
791.7146, 94.90472
792.1967, 94.77135
792.6788, 94.46500
793.1609, 93.94630
793.6431, 93.55128
794.1252, 93.69188
794.6073, 94.10793
795.0894, 94.28207
795.5715, 94.23000
796.0536, 94.30504
796.5358, 94.66965
797.0179, 95.04440
797.5000, 95.01205
797.9821, 94.54681
798.4642, 94.29034
798.9464, 94.30608
799.4285, 94.41344
799.9106, 94.64050
800.3927, 94.88815
800.8748, 95.12224
801.3569, 95.32092
801.8391, 95.38845
802.3212, 95.19960
802.8033, 95.02331
803.2854, 94.94250
803.7675, 94.98780
804.2496, 95.29939
804.7318, 95.78468
805.2139, 96.14086
805.6960, 96.20199
806.1781, 96.05331
806.6602, 95.68388
807.1423, 95.14062
807.6245, 95.19935
808.1066, 96.02992
808.5887, 96.75394
809.0708, 96.98299
809.5529, 96.90205
810.0350, 96.73494
810.5172, 96.44581
810.9993, 96.32248
811.4814, 96.53759
811.9635, 96.69662
812.4456, 96.66765
812.9277, 96.55300
813.4099, 96.35401
813.8920, 96.14999
814.3741, 96.19557
814.8562, 96.70357
815.3383, 97.32453
815.8204, 97.74516
816.3026, 97.98669
816.7847, 98.04061
817.2668, 97.93309
817.7489, 97.80892
818.2310, 97.72581
818.7131, 97.82493
819.1953, 98.52296
819.6774, 100.0489
820.1595, 100.6647
820.6416, 99.89953
821.1237, 99.11746
821.6058, 98.85359
822.0880, 98.80328
822.5701, 98.61472
823.0522, 98.29205
823.5343, 98.10469
824.0164, 98.13136
824.4985, 98.27381
824.9807, 98.51260
825.4628, 98.83048
825.9449, 99.32178
826.4270, 99.88919
826.9091, 100.1952
827.3912, 100.0219
827.8734, 99.64939
828.3555, 99.42124
828.8376, 99.33122
829.3197, 99.39834
829.8018, 99.62481
830.2839, 99.78177
830.7661, 99.73135
831.2482, 99.62592
831.7303, 99.73778
832.2124, 100.1198
832.6945, 100.3198
833.1766, 100.0550
833.6588, 100.0180
834.1409, 100.5636
834.6230, 101.2209
835.1051, 101.6502
835.5872, 101.8439
836.0693, 101.9019
836.5515, 101.7811
837.0336, 101.6469
837.5157, 101.4634
837.9978, 101.3988
838.4799, 101.7764
838.9620, 102.4655
839.4442, 102.9735
839.9263, 103.0663
840.4084, 103.0570
840.8905, 103.3808
841.3726, 103.9837
841.8547, 104.5803
842.3369, 105.1686
842.8190, 105.6528
843.3011, 105.9721
843.7832, 106.2369
844.2653, 106.5753
844.7474, 106.9847
845.2296, 107.3478
845.7117, 107.6178
846.1938, 107.9060
846.6759, 108.1128
847.1580, 108.4429
847.6401, 109.2646
848.1223, 110.2670
848.6044, 110.6828
849.0865, 110.1614
849.5686, 109.7520
850.0507, 110.1412
850.5328, 110.8224
851.0150, 111.4049
851.4971, 111.8296
851.9792, 111.9741
852.4613, 111.8394
852.9434, 111.7694
853.4255, 112.1937
853.9077, 112.8602
854.3898, 112.9275
854.8719, 112.3965
855.3540, 111.7747
855.8361, 111.1198
856.3182, 110.5871
856.8004, 110.3285
857.2825, 110.2577
857.7646, 110.1027
858.2467, 109.8954
858.7288, 109.5302
859.2109, 108.7430
859.6931, 108.1103
860.1752, 107.8584
860.6573, 107.8561
861.1394, 108.0635
861.6215, 108.4385
862.1036, 108.5151
862.5858, 107.7835
863.0679, 107.0413
863.5500, 106.9609
864.0321, 107.1423
864.5142, 106.9821
864.9963, 106.4758
865.4785, 106.0242
865.9606, 105.8621
866.4427, 105.8503
866.9248, 105.8213
867.4069, 105.7625
867.8890, 105.5653
868.3712, 105.2165
868.8533, 104.9559
869.3354, 104.8778
869.8175, 104.9534
870.2996, 105.1875
870.7817, 105.5837
871.2639, 105.7074
871.7459, 105.3285
872.2280, 105.0816
872.7101, 105.2098
873.1923, 105.3705
873.6744, 105.3584
874.1565, 105.2217
874.6386, 105.0878
875.1207, 104.9806
875.6028, 104.8672
876.0850, 104.6166
876.5671, 104.4714
877.0492, 104.7682
877.5313, 105.2382
878.0134, 105.3868
878.4955, 105.1289
878.9777, 104.8162
879.4598, 104.6773
879.9419, 104.6943
880.4240, 104.9346
880.9061, 105.3096
881.3882, 105.4330
881.8704, 105.2619
882.3525, 105.1588
882.8346, 105.3518
883.3167, 105.7566
883.7988, 106.2709
884.2809, 106.9727
884.7631, 107.1429
885.2452, 106.4998
885.7273, 106.0266
886.2094, 106.1577
886.6915, 106.5072
887.1736, 106.6694
887.6558, 106.6530
888.1379, 106.6132
888.6200, 106.5578
889.1021, 106.4734
889.5842, 106.2484
890.0663, 106.0961
890.5485, 106.2277
891.0306, 106.5261
891.5127, 106.7402
891.9948, 106.7987
892.4769, 106.8654
892.9590, 107.0917
893.4412, 107.3396
893.9233, 107.4328
894.4054, 107.4407
894.8875, 107.5567
895.3696, 107.7904
895.8517, 107.9001
896.3339, 107.6696
896.8160, 107.3313
897.2981, 107.3925
897.7802, 107.8108
898.2623, 108.2216
898.7444, 108.6122
899.2266, 108.6680
899.7087, 108.1290
900.1908, 107.5088
900.6729, 107.6537
901.1550, 108.6247
901.6371, 108.9410
902.1193, 108.1240
902.6014, 107.5430
903.0835, 107.6421
903.5656, 107.8665
904.0477, 107.8133
904.5298, 107.5972
905.0120, 107.5299
905.4941, 107.7062
905.9762, 107.8539
906.4583, 107.8152
906.9404, 107.8279
907.4225, 108.2055
907.9047, 108.6333
908.3868, 108.5789
908.8689, 108.0414
909.3510, 107.6195
909.8331, 107.7068
910.3152, 107.9939
910.7974, 108.2884
911.2795, 108.5072
911.7616, 108.4310
912.2437, 108.1028
912.7258, 107.7643
913.2079, 107.5294
913.6901, 107.4780
914.1722, 107.7777
914.6543, 108.3597
915.1364, 108.8825
915.6185, 109.3517
916.1006, 109.5469
916.5828, 109.3539
917.0649, 109.1706
917.5470, 109.3771
918.0291, 109.8099
918.5112, 109.8276
918.9933, 109.0769
919.4755, 108.8390
919.9576, 109.5865
920.4397, 110.1722
920.9218, 109.9600
921.4039, 109.4821
921.8860, 109.3227
922.3682, 109.4770
922.8503, 109.5621
923.3324, 109.5235
923.8145, 109.4134
924.2966, 109.0730
924.7787, 108.8203
925.2609, 108.9729
925.7430, 109.3925
926.2251, 109.8091
926.7072, 110.1481
927.1893, 110.3053
927.6714, 110.0192
928.1536, 109.6873
928.6357, 109.7065
929.1178, 109.9849
929.5999, 110.3975
930.0820, 110.8731
930.5641, 111.2385
931.0463, 111.3715
931.5284, 111.4111
932.0105, 111.4927
932.4926, 111.6653
932.9747, 112.3197
933.4568, 113.4192
933.9390, 113.9168
934.4211, 113.3681
934.9032, 112.6725
935.3853, 112.8465
935.8674, 113.7089
936.3495, 114.1614
936.8317, 114.0807
937.3138, 114.1431
937.7959, 114.4903
938.2780, 114.8312
938.7601, 114.9222
939.2422, 114.9835
939.7244, 115.4947
940.2065, 116.6192
940.6886, 117.2173
941.1707, 116.6305
941.6528, 116.4364
942.1349, 117.1799
942.6171, 118.1892
943.0992, 119.1566
943.5813, 119.9668
944.0634, 120.2968
944.5455, 119.8398
945.0276, 119.8521
945.5098, 121.2631
945.9919, 122.7764
946.4740, 123.4292
946.9561, 123.7044
947.4382, 124.3188
947.9203, 125.3236
948.4025, 126.2967
948.8846, 127.0073
949.3667, 127.6246
949.8488, 128.2576
950.3309, 128.9365
950.8130, 129.7436
951.2952, 130.6448
951.7773, 131.4873
952.2594, 132.2345
952.7415, 133.1053
953.2236, 134.3953
953.7057, 135.8578
954.1878, 136.9682
954.6699, 137.7198
955.1520, 137.9556
955.6342, 137.6579
956.1163, 137.4158
956.5984, 137.5541
957.0805, 137.8840
957.5626, 138.1804
958.0447, 138.4354
958.5269, 138.0470
959.0090, 136.9131
959.4911, 135.5261
959.9732, 133.8670
960.4553, 132.2580
960.9374, 130.9115
961.4196, 129.8279
961.9017, 129.0155
962.3838, 128.5076
962.8659, 128.1672
963.3480, 128.0722
963.8301, 128.0395
964.3123, 128.1326
964.7944, 128.1732
965.2765, 127.8795
965.7586, 127.3719
966.2407, 127.2116
966.7228, 127.6161
967.2050, 128.0645
967.6871, 128.6345
968.1692, 129.0168
968.6513, 128.9421
969.1334, 128.6250
969.6155, 128.3061
970.0977, 128.0390
970.5798, 127.8622
971.0619, 127.9319
971.5440, 127.8735
972.0261, 127.4588
972.5082, 126.7920
972.9904, 125.7729
973.4725, 124.6473
973.9546, 123.9141
974.4367, 123.7115
974.9188, 123.7619
975.4009, 123.9600
975.8831, 124.1667
976.3652, 124.2889
976.8473, 124.2458
977.3294, 123.6544
977.8115, 122.6531
978.2936, 122.1205
978.7758, 122.4686
979.2579, 123.0964
979.7400, 123.2580
980.2221, 123.0981
980.7042, 123.1031
981.1863, 123.2490
981.6685, 123.3591
982.1506, 123.3986
982.6327, 123.2788
983.1148, 122.9168
983.5969, 122.4853
984.0790, 122.3625
984.5612, 122.5531
985.0433, 122.3903
985.5254, 121.7598
986.0075, 121.4917
986.4896, 121.8798
986.9717, 122.4457
987.4539, 122.8559
987.9360, 123.0961
988.4181, 123.1329
988.9002, 123.0005
989.3823, 122.4787
989.8644, 121.0828
990.3466, 120.2357
990.8287, 120.4723
991.3108, 121.3439
991.7929, 122.7999
992.2750, 124.6067
992.7571, 125.3296
993.2393, 124.2978
993.7214, 123.3974
994.2035, 122.5509
994.6856, 121.9605
995.1677, 121.7091
995.6498, 121.7515
996.1320, 122.2761
996.6141, 123.1446
997.0962, 123.4087
997.5783, 122.3065
998.0604, 121.5605
998.5425, 121.8648
999.0247, 122.3803
999.5068, 122.8013
999.9889, 122.9825
1000.471, 122.5627
1000.953, 121.6213
1001.435, 121.1456
1001.917, 121.9603
1002.399, 122.6973
1002.882, 122.4479
1003.364, 121.9258
1003.846, 121.7586
1004.328, 121.8584
1004.810, 121.8418
1005.292, 121.6624
1005.774, 121.8382
1006.256, 123.0153
1006.739, 124.2572
1007.221, 124.6676
1007.703, 124.6021
1008.185, 124.4193
1008.667, 124.2417
1009.149, 124.2283
1009.631, 124.4295
1010.113, 124.7284
1010.595, 124.9442
1011.078, 125.2819
1011.560, 126.2837
1012.042, 127.5811
1012.524, 128.3052
1013.006, 128.4208
1013.488, 128.2163
1013.970, 127.8356
1014.452, 127.7446
1014.935, 128.5775
1015.417, 129.9974
1015.899, 131.3726
1016.381, 132.5998
1016.863, 132.9629
1017.345, 132.4529
1017.827, 132.2054
1018.309, 132.8179
1018.791, 133.7102
1019.274, 134.0898
1019.756, 134.0561
1020.238, 134.0321
1020.720, 134.0261
1021.202, 134.3144
1021.684, 134.9658
1022.166, 135.5203
1022.648, 135.7023
1023.130, 135.6982
1023.613, 135.8109
1024.095, 136.0284
1024.577, 136.1440
1025.059, 136.1447
1025.541, 136.1417
1026.023, 136.1561
1026.505, 136.1209
1026.987, 135.9106
1027.469, 135.8233
1027.952, 136.5350
1028.434, 138.1175
1028.916, 138.7594
1029.398, 138.2558
1029.880, 137.5292
1030.362, 136.7374
1030.844, 135.7666
1031.326, 134.4474
1031.809, 133.0053
1032.291, 131.9093
1032.773, 131.2097
1033.255, 130.4479
1033.737, 129.5564
1034.219, 128.7365
1034.701, 127.8941
1035.183, 127.3470
1035.666, 127.5080
1036.148, 127.9916
1036.630, 127.9587
1037.112, 127.2900
1037.594, 126.7702
1038.076, 126.4225
1038.558, 126.1949
1039.040, 126.3300
1039.522, 126.3049
1040.005, 125.4397
1040.487, 124.2818
1040.969, 124.0799
1041.451, 125.0658
1041.933, 125.7666
1042.415, 126.1376
1042.897, 126.2488
1043.379, 125.8399
1043.861, 125.4499
1044.344, 125.7246
1044.826, 126.1675
1045.308, 125.6077
1045.790, 123.7235
1046.272, 122.6639
1046.754, 123.2941
1047.236, 123.8936
1047.718, 124.0405
1048.201, 124.0272
1048.683, 123.9021
1049.165, 123.8242
1049.647, 124.1616
1050.129, 125.0131
1050.611, 125.5289
1051.093, 125.3216
1051.575, 125.0569
1052.057, 124.8230
1052.540, 124.7022
1053.022, 124.8237
1053.504, 125.0683
1053.986, 125.2150
1054.468, 125.2299
1054.950, 125.2703
1055.432, 125.3883
1055.914, 125.5242
1056.396, 125.6923
1056.879, 125.8386
1057.361, 125.9891
1057.843, 126.0615
1058.325, 125.7870
1058.807, 125.1488
1059.289, 124.9521
1059.771, 125.9169
1060.253, 126.7504
1060.736, 126.9056
1061.218, 126.8056
1061.700, 126.7877
1062.182, 126.7386
1062.664, 126.3608
1063.146, 125.6421
1063.628, 125.0439
1064.110, 124.7247
1064.593, 124.5645
1065.075, 124.5260
1065.557, 124.6155
1066.039, 124.9301
1066.521, 125.3296
1067.003, 125.5542
1067.485, 125.6028
1067.967, 125.8141
1068.449, 126.4507
1068.932, 127.0327
1069.414, 127.2848
1069.896, 127.4629
1070.378, 127.7022
1070.860, 128.0245
1071.342, 128.5602
1071.824, 129.2302
1072.306, 129.5435
1072.788, 129.0914
1073.271, 128.7834
1073.753, 129.1230
1074.235, 129.6759
1074.717, 130.1780
1075.199, 130.6679
1075.681, 131.3279
1076.163, 132.0765
1076.645, 132.4634
1077.127, 132.1720
1077.610, 132.0400
1078.092, 132.7128
1078.574, 133.3973
1079.056, 133.5454
1079.538, 133.4106
1080.020, 133.3741
1080.502, 133.3771
1080.984, 133.0319
1081.467, 132.1406
1081.949, 131.3028
1082.431, 130.7570
1082.913, 130.3770
1083.395, 130.1621
1083.877, 130.0162
1084.359, 129.8802
1084.841, 129.7205
1085.323, 129.4444
1085.806, 129.0012
1086.288, 128.7175
1086.770, 128.8792
1087.252, 129.0510
1087.734, 128.8574
1088.216, 128.6991
1088.698, 129.1810
1089.180, 129.9287
1089.662, 130.0302
1090.145, 129.2963
1090.627, 128.6947
1091.109, 128.3844
1091.591, 128.5483
1092.073, 129.7372
1092.555, 130.9733
1093.037, 131.5905
1093.519, 131.6538
1094.002, 131.1717
1094.484, 130.2292
1094.966, 129.6907
1095.448, 130.2674
1095.930, 130.6396
1096.412, 130.1616
1096.894, 129.5768
1097.376, 129.0729
1097.859, 128.9237
1098.341, 129.7349
1098.823, 131.3227
1099.305, 132.2832
1099.787, 131.9005
1100.269, 131.7010
1100.751, 132.2458
1101.233, 132.8595
1101.715, 133.4559
1102.198, 133.7684
1102.680, 133.3529
1103.162, 132.4117
1103.644, 131.7253
1104.126, 131.4409
1104.608, 131.2979
1105.090, 131.1110
1105.572, 131.2444
1106.054, 131.9970
1106.537, 132.9596
1107.019, 134.0731
1107.501, 135.0812
1107.983, 135.3192
1108.465, 134.5621
1108.947, 134.0729
1109.429, 134.1090
1109.911, 134.2095
1110.394, 134.0269
1110.876, 134.1525
1111.358, 135.2084
1111.840, 136.6764
1112.322, 137.7486
1112.804, 138.4059
1113.286, 138.7915
1113.768, 138.1748
1114.250, 138.5163
1114.733, 140.7246
1115.215, 142.8497
1115.697, 144.0429
1116.179, 144.7625
1116.661, 145.4051
1117.143, 146.0224
1117.625, 147.0211
1118.107, 148.6991
1118.589, 150.0287
1119.072, 150.8504
1119.554, 151.6671
1120.036, 152.9200
1120.518, 153.7533
1121.000, 153.3563
1121.482, 152.0298
1121.964, 150.6051
1122.446, 149.0098
1122.929, 147.7686
1123.411, 146.9429
1123.893, 146.2712
1124.375, 145.7629
1124.857, 145.1979
1125.339, 144.4334
1125.821, 143.5334
1126.303, 142.6029
1126.786, 141.6443
1127.268, 140.6679
1127.750, 139.6475
1128.232, 138.9170
1128.714, 138.5591
1129.196, 138.2512
1129.678, 137.8720
1130.160, 137.3257
1130.642, 136.4141
1131.125, 135.3852
1131.607, 135.2790
1132.089, 136.0204
1132.571, 136.1795
1133.053, 135.6940
1133.535, 135.3870
1134.017, 135.5105
1134.499, 135.7676
1134.981, 135.9172
1135.464, 136.1199
1135.946, 136.8763
1136.428, 137.9107
1136.910, 137.9514
1137.392, 137.2361
1137.874, 137.0715
1138.356, 137.6089
1138.838, 138.0301
1139.321, 137.9166
1139.803, 137.4866
1140.285, 136.8465
1140.767, 136.1791
1141.249, 135.8371
1141.731, 135.7178
1142.213, 135.6084
1142.695, 135.5027
1143.177, 135.4861
1143.660, 135.5779
1144.142, 135.6835
1144.624, 135.6986
1145.106, 135.7943
1145.588, 136.3134
1146.070, 136.8850
1146.552, 137.0061
1147.034, 136.8361
1147.516, 136.6637
1147.999, 136.5627
1148.481, 136.5539
1148.963, 136.6637
1149.445, 136.7526
1149.927, 136.5766
1150.409, 136.5238
1150.891, 137.1843
1151.373, 137.8645
1151.856, 137.5814
1152.338, 136.7506
1152.820, 136.4987
1153.302, 137.0593
1153.784, 137.5872
1154.266, 137.8426
1154.748, 137.9599
1155.230, 137.9946
1155.713, 137.8934
1156.195, 137.3586
1156.677, 136.8407
1157.159, 137.0559
1157.641, 137.8997
1158.123, 138.3862
1158.605, 138.2085
1159.087, 138.1432
1159.569, 138.2177
1160.052, 138.4437
1160.534, 138.9679
1161.016, 139.4885
1161.498, 139.8401
1161.980, 139.9966
1162.462, 139.8616
1162.944, 139.3940
1163.426, 139.0529
1163.908, 138.7856
1164.391, 138.8367
1164.873, 139.3594
1165.355, 139.8422
1165.837, 140.0343
1166.319, 140.1114
1166.801, 140.2939
1167.283, 140.5235
1167.765, 140.5035
1168.247, 140.2163
1168.730, 140.2924
1169.212, 140.7737
1169.694, 140.9751
1170.176, 140.7028
1170.658, 140.4160
1171.140, 140.4116
1171.622, 140.7169
1172.104, 141.5954
1172.587, 142.7369
1173.069, 143.0821
1173.551, 142.7654
1174.033, 142.1089
1174.515, 141.2946
1174.997, 140.9538
1175.479, 141.2817
1175.961, 141.5858
1176.443, 141.2171
1176.926, 140.7170
1177.408, 140.8114
1177.890, 141.1634
1178.372, 141.3511
1178.854, 141.3781
1179.336, 141.2688
1179.818, 141.0799
1180.300, 140.9489
1180.782, 140.9168
1181.265, 141.0791
1181.747, 141.7964
1182.229, 142.3633
1182.711, 142.1655
1183.193, 141.7334
1183.675, 141.3717
1184.157, 141.2578
1184.639, 141.8306
1185.122, 143.0766
1185.604, 143.7231
1186.086, 143.1283
1186.568, 142.4939
1187.050, 141.7076
1187.532, 141.3062
1188.014, 141.8672
1188.496, 142.6066
1188.979, 142.6727
1189.461, 142.3797
1189.943, 142.6824
1190.425, 143.7391
1190.907, 144.4878
1191.389, 145.0468
1191.871, 144.8419
1192.353, 143.4043
1192.835, 142.3337
1193.318, 142.5034
1193.800, 143.2115
1194.282, 143.6357
1194.764, 143.8439
1195.246, 144.0748
1195.728, 144.3306
1196.210, 144.7763
1196.692, 145.3884
1197.174, 145.5102
1197.657, 145.0066
1198.139, 144.5377
1198.621, 144.5104
1199.103, 144.7482
1199.585, 145.1025
1200.067, 145.4894
1200.549, 145.7521
1201.031, 145.9139
1201.514, 145.9225
1201.996, 145.8961
1202.478, 146.2720
1202.960, 147.0789
1203.442, 147.6587
1203.924, 147.6478
1204.406, 147.2435
1204.888, 146.2382
1205.370, 145.2872
1205.853, 144.9017
1206.335, 144.9235
1206.817, 145.3748
1207.299, 145.9816
1207.781, 146.0583
1208.263, 145.4276
1208.745, 145.0560
1209.227, 145.4358
1209.709, 145.7037
1210.192, 145.5337
1210.674, 145.3838
1211.156, 145.4703
1211.638, 145.6970
1212.120, 146.0150
1212.602, 146.3831
1213.084, 146.6245
1213.566, 146.6775
1214.049, 146.9605
1214.531, 147.6216
1215.013, 147.8871
1215.495, 147.5480
1215.977, 147.0699
1216.459, 146.6521
1216.941, 146.4940
1217.423, 146.9366
1217.906, 147.6736
1218.388, 147.6062
1218.870, 146.9567
1219.352, 146.9068
1219.834, 147.4013
1220.316, 147.8035
1220.798, 147.9754
1221.280, 148.0856
1221.762, 148.2192
1222.245, 148.4777
1222.727, 149.0892
1223.209, 149.7508
1223.691, 150.0648
1224.173, 150.2569
1224.655, 150.7169
1225.137, 151.2489
1225.619, 151.4258
1226.101, 151.2009
1226.584, 150.8086
1227.066, 150.2506
1227.548, 149.7720
1228.030, 149.5264
1228.512, 149.2905
1228.994, 148.9895
1229.476, 148.6454
1229.958, 148.0551
1230.441, 147.5524
1230.923, 147.8247
1231.405, 148.8398
1231.887, 149.4325
1232.369, 149.4825
1232.851, 149.4485
1233.333, 149.2890
1233.815, 149.2432
1234.297, 149.3657
1234.780, 149.7511
1235.262, 150.5456
1235.744, 151.3160
1236.226, 151.1965
1236.708, 150.4787
1237.190, 150.4784
1237.672, 151.0036
1238.154, 151.2504
1238.636, 151.1458
1239.119, 150.6641
1239.601, 149.9115
1240.083, 149.6646
1240.565, 150.5403
1241.047, 151.4255
1241.529, 150.9163
1242.011, 150.2518
1242.493, 150.7563
1242.975, 151.7451
1243.458, 152.6292
1243.940, 153.1644
1244.422, 152.9126
1244.904, 151.8854
1245.386, 151.0993
1245.868, 150.8503
1246.350, 150.8021
1246.832, 151.0057
1247.315, 151.2572
1247.797, 151.5397
1248.279, 151.7723
1248.761, 151.8011
1249.243, 151.8411
1249.725, 152.3427
1250.207, 153.2599
1250.689, 153.8715
1251.172, 154.1896
1251.654, 153.8623
1252.136, 152.8203
1252.618, 152.4286
1253.100, 153.0926
1253.582, 153.7993
1254.064, 153.8559
1254.546, 153.5568
1255.028, 153.2032
1255.510, 152.8552
1255.993, 152.5341
1256.475, 152.3574
1256.957, 152.5931
1257.439, 153.1590
1257.921, 153.9361
1258.403, 154.7993
1258.885, 155.3750
1259.367, 155.5246
1259.850, 155.2870
1260.332, 154.0614
1260.814, 153.2685
1261.296, 153.9683
1261.778, 154.9626
1262.260, 155.1644
1262.742, 155.1524
1263.224, 156.1734
1263.707, 157.9938
1264.189, 158.4672
1264.671, 156.9741
1265.153, 156.2960
1265.635, 156.6554
1266.117, 156.8897
1266.599, 156.7194
1267.081, 156.5675
1267.563, 156.6850
1268.046, 156.7652
1268.528, 156.3571
1269.010, 155.8088
1269.492, 156.0730
1269.974, 156.7763
1270.456, 156.8518
1270.938, 156.5634
1271.420, 156.8462
1271.902, 157.6933
1272.385, 158.3762
1272.867, 158.6160
1273.349, 158.8127
1273.831, 159.3962
1274.313, 159.7344
1274.795, 159.2568
1275.277, 158.7207
1275.759, 158.7289
1276.242, 158.8753
1276.724, 158.6289
1277.206, 158.1140
1277.688, 157.7775
1278.170, 157.6144
1278.652, 157.6764
1279.134, 157.9495
1279.616, 158.5894
1280.099, 159.7547
1280.581, 160.4345
1281.063, 160.1998
1281.545, 160.0176
1282.027, 160.7149
1282.509, 161.5675
1282.991, 161.1746
1283.473, 160.1026
1283.955, 159.5982
##END=



