##NAMES=Northupite
##RRUFFID=R060156
##IDEAL CHEMISTRY=Na_3_Mg(CO_3_)_2_Cl
##LOCALITY=Searles Lake, San Bernardino County, California, USA
##OWNER=RRUFF
##SOURCE=Marcus Origlieri
##DESCRIPTION=Gray octahedron
##STATUS=The identification of this mineral has been confirmed by X-ray diffraction and chemical analysis
##URL=rruff.info/R060156
##MEASURED CHEMISTRY=(Na_2.98_Ca_0.02_)_Î£=3_Mg_1.00_(CO_3_)_2_Cl_1.00_
90.26367, 76.18794
90.74579, 75.76130
91.22791, 75.87953
91.71002, 76.49572
92.19214, 77.20727
92.67426, 77.71033
93.15637, 78.05701
93.63850, 78.36503
94.12061, 78.62596
94.60273, 78.88901
95.08485, 79.29603
95.56696, 79.85831
96.04908, 80.46260
96.53120, 81.02193
97.01331, 81.52330
97.49543, 81.89864
97.97755, 82.03795
98.45966, 81.95918
98.94178, 82.01028
99.42390, 82.18312
99.90602, 82.50349
100.3881, 83.10018
100.8703, 84.07491
101.3524, 84.97694
101.8345, 85.57879
102.3166, 85.82126
102.7987, 85.97257
103.2808, 85.96819
103.7630, 85.88664
104.2451, 86.09969
104.7272, 86.77961
105.2093, 87.52930
105.6914, 88.09145
106.1735, 88.32099
106.6557, 88.57963
107.1378, 88.63728
107.6199, 88.45750
108.1020, 89.45567
108.5841, 92.73648
109.0662, 96.62482
109.5484, 99.65854
110.0305, 99.93968
110.5126, 101.2830
110.9947, 104.4505
111.4768, 109.7448
111.9590, 115.6335
112.4411, 121.9533
112.9232, 128.8504
113.4053, 136.3237
113.8874, 143.6196
114.3695, 152.1648
114.8517, 162.3411
115.3338, 174.0403
115.8159, 187.7248
116.2980, 201.1501
116.7801, 216.7053
117.2622, 239.3075
117.7444, 281.3901
118.2265, 325.0276
118.7086, 357.1559
119.1907, 367.8448
119.6728, 378.0940
120.1549, 398.1349
120.6371, 427.1548
121.1192, 462.0120
121.6013, 501.8212
122.0834, 545.8769
122.5655, 593.4034
123.0477, 646.1269
123.5298, 700.5135
124.0119, 753.9239
124.4940, 806.3466
124.9761, 857.8387
125.4582, 908.0559
125.9404, 957.0313
126.4225, 1004.383
126.9046, 1049.415
127.3867, 1092.899
127.8688, 1136.956
128.3509, 1181.900
128.8331, 1224.334
129.3152, 1257.997
129.7973, 1284.847
130.2794, 1313.824
130.7615, 1347.698
131.2436, 1386.788
131.7258, 1432.161
132.2079, 1484.223
132.6900, 1541.492
133.1721, 1602.622
133.6542, 1667.381
134.1364, 1734.223
134.6185, 1802.631
135.1006, 1872.956
135.5827, 1946.096
136.0648, 2023.429
136.5469, 2102.873
137.0291, 2179.909
137.5112, 2253.995
137.9933, 2325.857
138.4754, 2397.826
138.9575, 2470.274
139.4396, 2537.294
139.9218, 2599.500
140.4039, 2655.430
140.8860, 2694.268
141.3681, 2709.367
141.8502, 2718.659
142.3323, 2735.371
142.8145, 2761.610
143.2966, 2790.406
143.7787, 2820.801
144.2608, 2853.047
144.7429, 2886.006
145.2251, 2919.789
145.7072, 2954.589
146.1893, 2990.364
146.6714, 3024.100
147.1535, 3063.297
147.6356, 3110.618
148.1178, 3167.342
148.5999, 3222.168
149.0820, 3272.206
149.5641, 3321.363
150.0462, 3373.731
150.5283, 3431.576
151.0105, 3489.705
151.4926, 3514.919
151.9747, 3533.466
152.4568, 3553.387
152.9389, 3577.196
153.4210, 3601.851
153.9032, 3623.465
154.3853, 3641.009
154.8674, 3655.848
155.3495, 3668.289
155.8316, 3678.328
156.3138, 3686.544
156.7959, 3691.191
157.2780, 3694.179
157.7601, 3699.114
158.2422, 3706.777
158.7243, 3716.454
159.2065, 3728.354
159.6886, 3745.275
160.1707, 3759.351
160.6528, 3765.496
161.1349, 3766.678
161.6170, 3770.823
162.0992, 3783.580
162.5813, 3798.430
163.0634, 3811.055
163.5455, 3819.427
164.0276, 3826.886
164.5097, 3834.231
164.9919, 3841.677
165.4740, 3850.085
165.9561, 3859.955
166.4382, 3870.937
166.9203, 3882.835
167.4025, 3895.655
167.8846, 3909.339
168.3667, 3924.829
168.8488, 3941.762
169.3309, 3957.698
169.8130, 3969.593
170.2952, 3980.112
170.7773, 3992.420
171.2594, 4009.626
171.7415, 4027.506
172.2236, 4041.914
172.7057, 4053.079
173.1879, 4064.900
173.6700, 4080.852
174.1521, 4099.285
174.6342, 4117.478
175.1163, 4133.852
175.5984, 4149.839
176.0806, 4169.082
176.5627, 4191.746
177.0448, 4209.958
177.5269, 4215.508
178.0090, 4211.186
178.4911, 4203.703
178.9733, 4197.642
179.4554, 4189.801
179.9375, 4174.216
180.4196, 4150.666
180.9017, 4123.017
181.3839, 4094.095
181.8660, 4064.375
182.3481, 4034.306
182.8302, 4002.653
183.3123, 3971.241
183.7944, 3944.441
184.2766, 3922.346
184.7587, 3903.852
185.2408, 3887.359
185.7229, 3873.075
186.2050, 3861.273
186.6871, 3852.341
187.1693, 3846.023
187.6514, 3842.318
188.1335, 3841.473
188.6156, 3841.947
189.0977, 3841.025
189.5798, 3838.802
190.0620, 3837.941
190.5441, 3840.241
191.0262, 3845.255
191.5083, 3850.341
191.9904, 3855.481
192.4725, 3860.422
192.9547, 3864.458
193.4368, 3867.588
193.9189, 3871.230
194.4010, 3876.224
194.8831, 3882.546
195.3652, 3889.327
195.8474, 3896.323
196.3295, 3904.127
196.8116, 3915.044
197.2937, 3929.564
197.7758, 3942.386
198.2579, 3949.649
198.7401, 3951.225
199.2222, 3952.532
199.7043, 3953.345
200.1864, 3954.647
200.6685, 3959.128
201.1507, 3967.187
201.6328, 3976.272
202.1149, 3985.100
202.5970, 3993.675
203.0791, 4001.777
203.5612, 4009.306
204.0434, 4016.340
204.5255, 4022.812
205.0076, 4028.542
205.4897, 4034.444
205.9718, 4040.870
206.4539, 4047.700
206.9361, 4056.392
207.4182, 4068.416
207.9003, 4081.812
208.3824, 4090.322
208.8645, 4093.011
209.3466, 4093.388
209.8288, 4093.099
210.3109, 4091.702
210.7930, 4091.849
211.2751, 4094.722
211.7572, 4099.066
212.2393, 4100.148
212.7215, 4097.131
213.2036, 4092.637
213.6857, 4087.886
214.1678, 4082.269
214.6499, 4078.752
215.1321, 4079.429
215.6142, 4082.186
216.0963, 4077.125
216.5784, 4061.070
217.0605, 4043.289
217.5426, 4029.762
218.0248, 4022.007
218.5069, 4014.336
218.9890, 4005.897
219.4711, 3997.165
219.9532, 3990.567
220.4353, 3987.524
220.9175, 3984.258
221.3996, 3977.480
221.8817, 3964.062
222.3638, 3955.673
222.8459, 3954.536
223.3280, 3959.429
223.8102, 3964.532
224.2923, 3970.992
224.7744, 3976.014
225.2565, 3977.144
225.7386, 3971.570
226.2208, 3968.844
226.7029, 3970.388
227.1850, 3975.487
227.6671, 3980.547
228.1492, 3985.590
228.6313, 3990.548
229.1135, 3995.464
229.5956, 4000.831
230.0777, 4005.027
230.5598, 4006.899
231.0419, 4007.419
231.5240, 4011.700
232.0062, 4022.281
232.4883, 4033.271
232.9704, 4040.881
233.4525, 4042.891
233.9346, 4046.521
234.4167, 4052.735
234.8989, 4061.019
235.3810, 4068.954
235.8631, 4076.505
236.3452, 4083.814
236.8273, 4091.129
237.3095, 4098.931
237.7916, 4105.388
238.2737, 4109.573
238.7558, 4112.241
239.2379, 4116.923
239.7200, 4124.997
240.2022, 4133.142
240.6843, 4139.491
241.1664, 4142.822
241.6485, 4147.058
242.1306, 4152.607
242.6127, 4159.265
243.0949, 4165.889
243.5770, 4171.935
244.0591, 4178.916
244.5412, 4188.025
245.0233, 4201.795
245.5054, 4212.272
245.9876, 4218.011
246.4697, 4220.511
246.9518, 4224.795
247.4339, 4232.467
247.9160, 4239.568
248.3981, 4244.263
248.8803, 4246.541
249.3624, 4246.514
249.8445, 4244.517
250.3266, 4240.045
250.8087, 4231.161
251.2909, 4215.186
251.7730, 4199.058
252.2551, 4186.030
252.7372, 4176.861
253.2193, 4168.445
253.7014, 4160.862
254.1836, 4154.027
254.6657, 4147.879
255.1478, 4142.494
255.6299, 4137.662
256.1120, 4132.771
256.5941, 4126.597
257.0763, 4125.205
257.5584, 4131.848
258.0405, 4141.282
258.5226, 4142.022
259.0047, 4129.559
259.4868, 4117.806
259.9690, 4112.549
260.4511, 4115.490
260.9332, 4117.194
261.4153, 4117.298
261.8974, 4116.499
262.3795, 4116.025
262.8617, 4116.136
263.3438, 4115.877
263.8259, 4114.696
264.3080, 4112.337
264.7901, 4110.859
265.2722, 4110.519
265.7544, 4110.706
266.2365, 4110.498
266.7186, 4109.665
267.2007, 4109.128
267.6829, 4109.410
268.1650, 4110.618
268.6471, 4110.733
269.1292, 4109.333
269.6113, 4107.542
270.0934, 4106.801
270.5756, 4107.348
271.0577, 4108.021
271.5398, 4108.349
272.0219, 4108.375
272.5040, 4109.216
272.9861, 4110.670
273.4683, 4113.317
273.9504, 4118.642
274.4325, 4127.437
274.9146, 4134.078
275.3967, 4136.369
275.8788, 4135.077
276.3610, 4136.558
276.8431, 4141.419
277.3252, 4147.146
277.8073, 4151.007
278.2894, 4152.734
278.7715, 4156.167
279.2537, 4162.856
279.7358, 4171.752
280.2179, 4178.527
280.7000, 4183.102
281.1821, 4186.173
281.6642, 4187.712
282.1464, 4187.716
282.6285, 4188.715
283.1106, 4191.114
283.5927, 4194.746
284.0748, 4199.792
284.5569, 4206.481
285.0391, 4212.278
285.5212, 4214.416
286.0033, 4213.278
286.4854, 4214.465
286.9675, 4219.514
287.4496, 4225.776
287.9318, 4227.361
288.4139, 4224.184
288.8960, 4220.832
289.3781, 4219.896
289.8602, 4221.110
290.3424, 4223.304
290.8245, 4226.667
291.3066, 4230.408
291.7887, 4233.563
292.2708, 4236.141
292.7530, 4237.730
293.2351, 4237.313
293.7172, 4235.705
294.1993, 4235.244
294.6814, 4236.015
295.1635, 4238.056
295.6457, 4241.869
296.1278, 4247.122
296.6099, 4252.468
297.0920, 4257.009
297.5741, 4261.158
298.0562, 4266.121
298.5384, 4271.986
299.0205, 4276.996
299.5026, 4278.375
299.9847, 4277.384
300.4668, 4277.415
300.9489, 4280.158
301.4311, 4284.537
301.9132, 4289.564
302.3953, 4295.257
302.8774, 4300.282
303.3595, 4303.689
303.8416, 4305.754
304.3238, 4306.990
304.8059, 4307.373
305.2880, 4307.174
305.7701, 4306.437
306.2522, 4305.223
306.7343, 4304.005
307.2165, 4303.654
307.6986, 4303.236
308.1807, 4301.430
308.6628, 4297.107
309.1449, 4292.493
309.6270, 4288.604
310.1092, 4285.580
310.5913, 4284.071
311.0734, 4286.474
311.5555, 4289.379
312.0376, 4289.341
312.5197, 4284.520
313.0019, 4279.968
313.4840, 4278.778
313.9661, 4279.861
314.4482, 4280.976
314.9304, 4281.514
315.4125, 4281.599
315.8946, 4281.337
316.3767, 4280.794
316.8588, 4279.836
317.3409, 4278.209
317.8231, 4276.243
318.3052, 4274.362
318.7873, 4272.639
319.2694, 4271.104
319.7515, 4269.045
320.2336, 4266.233
320.7158, 4266.104
321.1979, 4272.634
321.6800, 4280.878
322.1621, 4286.349
322.6442, 4285.724
323.1263, 4284.690
323.6085, 4284.385
324.0906, 4284.797
324.5727, 4285.409
325.0548, 4286.149
325.5369, 4287.094
326.0190, 4288.305
326.5012, 4289.972
326.9833, 4291.787
327.4654, 4293.457
327.9475, 4295.221
328.4296, 4297.982
328.9117, 4303.934
329.3939, 4308.933
329.8760, 4311.114
330.3581, 4307.965
330.8402, 4306.466
331.3223, 4306.928
331.8044, 4308.818
332.2866, 4311.284
332.7687, 4315.282
333.2508, 4318.140
333.7329, 4318.165
334.2150, 4313.873
334.6971, 4314.280
335.1793, 4322.507
335.6614, 4332.439
336.1435, 4335.370
336.6256, 4328.256
337.1077, 4322.547
337.5899, 4321.475
338.0720, 4324.874
338.5541, 4328.487
339.0362, 4332.845
339.5183, 4336.661
340.0005, 4338.325
340.4826, 4337.502
340.9647, 4337.563
341.4468, 4339.373
341.9289, 4342.317
342.4110, 4344.398
342.8932, 4345.482
343.3753, 4346.167
343.8574, 4346.484
344.3395, 4346.432
344.8216, 4346.953
345.3037, 4347.941
345.7859, 4349.675
346.2680, 4353.198
346.7501, 4358.360
347.2322, 4363.038
347.7143, 4365.165
348.1964, 4365.843
348.6786, 4369.198
349.1607, 4375.792
349.6428, 4382.866
350.1249, 4388.161
350.6070, 4391.619
351.0891, 4393.025
351.5713, 4391.130
352.0534, 4387.744
352.5355, 4385.121
353.0176, 4383.341
353.4997, 4382.706
353.9818, 4384.777
354.4640, 4387.899
354.9461, 4389.445
355.4282, 4387.939
355.9103, 4385.562
356.3924, 4383.185
356.8745, 4381.261
357.3567, 4381.530
357.8388, 4388.103
358.3209, 4395.565
358.8030, 4398.410
359.2851, 4393.398
359.7672, 4389.898
360.2494, 4395.847
360.7315, 4406.599
361.2136, 4413.486
361.6957, 4409.314
362.1779, 4403.741
362.6600, 4401.509
363.1421, 4403.302
363.6242, 4405.981
364.1063, 4409.313
364.5884, 4412.740
365.0706, 4415.662
365.5527, 4416.209
366.0348, 4417.982
366.5169, 4422.695
366.9990, 4430.081
367.4811, 4435.795
367.9633, 4439.685
368.4454, 4441.591
368.9275, 4441.314
369.4096, 4435.736
369.8917, 4432.291
370.3738, 4431.358
370.8560, 4432.634
371.3381, 4435.433
371.8202, 4441.358
372.3023, 4446.705
372.7844, 4450.141
373.2665, 4451.594
373.7487, 4451.167
374.2308, 4447.480
374.7129, 4443.344
375.1950, 4442.756
375.6771, 4446.698
376.1592, 4451.296
376.6414, 4456.250
377.1235, 4461.289
377.6056, 4463.345
378.0877, 4461.847
378.5698, 4459.411
379.0519, 4458.247
379.5341, 4458.386
380.0162, 4458.745
380.4983, 4459.296
380.9804, 4459.792
381.4625, 4459.274
381.9446, 4457.759
382.4268, 4456.891
382.9089, 4457.755
383.3910, 4460.044
383.8731, 4462.933
384.3553, 4466.390
384.8374, 4470.126
385.3195, 4473.875
385.8016, 4477.611
386.2837, 4481.373
386.7658, 4486.134
387.2480, 4490.400
387.7301, 4491.570
388.2122, 4489.772
388.6943, 4488.243
389.1764, 4490.119
389.6585, 4493.431
390.1407, 4495.471
390.6228, 4493.973
391.1049, 4493.175
391.5870, 4497.162
392.0691, 4504.347
392.5512, 4509.963
393.0334, 4510.626
393.5155, 4509.857
393.9976, 4509.594
394.4797, 4509.853
394.9618, 4511.522
395.4439, 4516.864
395.9261, 4523.236
396.4082, 4527.112
396.8903, 4525.547
397.3724, 4523.675
397.8545, 4522.902
398.3366, 4523.324
398.8188, 4523.786
399.3009, 4524.362
399.7830, 4524.853
400.2651, 4525.002
400.7472, 4522.583
401.2293, 4523.252
401.7115, 4528.721
402.1936, 4537.296
402.6757, 4543.808
403.1578, 4547.252
403.6399, 4550.346
404.1220, 4554.695
404.6042, 4561.121
405.0863, 4563.567
405.5684, 4560.614
406.0505, 4555.903
406.5326, 4554.172
407.0147, 4555.716
407.4969, 4558.148
407.9790, 4561.069
408.4611, 4564.383
408.9432, 4568.352
409.4254, 4573.213
409.9075, 4576.243
410.3896, 4572.789
410.8717, 4564.987
411.3538, 4563.157
411.8359, 4570.183
412.3181, 4580.204
412.8002, 4585.542
413.2823, 4586.781
413.7644, 4586.673
414.2465, 4584.654
414.7286, 4582.942
415.2108, 4585.502
415.6929, 4592.598
416.1750, 4599.180
416.6571, 4600.836
417.1392, 4599.749
417.6213, 4598.924
418.1035, 4599.544
418.5856, 4600.487
419.0677, 4600.538
419.5498, 4600.217
420.0319, 4601.462
420.5140, 4608.080
420.9962, 4614.396
421.4783, 4616.484
421.9604, 4611.864
422.4425, 4608.304
422.9246, 4607.950
423.4067, 4609.493
423.8889, 4611.144
424.3710, 4613.209
424.8531, 4614.819
425.3352, 4615.189
425.8173, 4614.298
426.2994, 4615.386
426.7816, 4619.523
427.2637, 4624.548
427.7458, 4629.315
428.2279, 4634.686
428.7100, 4637.590
429.1921, 4636.929
429.6743, 4634.266
430.1564, 4633.584
430.6385, 4635.618
431.1206, 4636.778
431.6028, 4634.846
432.0849, 4630.033
432.5670, 4627.830
433.0491, 4628.508
433.5312, 4630.727
434.0133, 4633.926
434.4955, 4637.806
434.9776, 4640.024
435.4597, 4639.337
435.9418, 4637.604
436.4239, 4637.864
436.9060, 4640.005
437.3882, 4643.237
437.8703, 4648.577
438.3524, 4654.120
438.8345, 4656.521
439.3166, 4654.940
439.7987, 4653.285
440.2809, 4654.490
440.7630, 4657.647
441.2451, 4661.345
441.7272, 4666.968
442.2093, 4671.200
442.6914, 4671.171
443.1736, 4667.570
443.6557, 4665.029
444.1378, 4665.305
444.6199, 4667.200
445.1020, 4670.304
445.5841, 4676.208
446.0663, 4680.250
446.5484, 4678.475
447.0305, 4675.239
447.5126, 4678.034
447.9947, 4696.268
448.4768, 4709.112
448.9590, 4709.783
449.4411, 4697.900
449.9232, 4691.512
450.4053, 4692.212
450.8874, 4695.880
451.3695, 4700.180
451.8517, 4705.841
452.3338, 4708.334
452.8159, 4706.043
453.2980, 4701.643
453.7801, 4700.459
454.2622, 4702.583
454.7444, 4706.414
455.2265, 4712.150
455.7086, 4719.141
456.1907, 4724.300
456.6729, 4727.655
457.1550, 4729.948
457.6371, 4732.340
458.1192, 4734.288
458.6013, 4734.180
459.0834, 4730.675
459.5656, 4726.751
460.0477, 4725.771
460.5298, 4727.052
461.0119, 4728.618
461.4940, 4729.649
461.9761, 4730.431
462.4583, 4730.766
462.9404, 4730.536
463.4225, 4731.622
463.9046, 4736.745
464.3867, 4742.772
464.8688, 4746.623
465.3510, 4746.677
465.8331, 4745.630
466.3152, 4743.021
466.7973, 4739.540
467.2794, 4737.629
467.7615, 4738.693
468.2437, 4740.099
468.7258, 4740.710
469.2079, 4739.898
469.6900, 4741.249
470.1721, 4745.933
470.6542, 4751.435
471.1364, 4754.986
471.6185, 4756.038
472.1006, 4757.278
472.5827, 4759.295
473.0648, 4761.729
473.5469, 4763.510
474.0291, 4764.642
474.5112, 4765.297
474.9933, 4765.605
475.4754, 4765.556
475.9575, 4764.302
476.4396, 4761.491
476.9218, 4760.114
477.4039, 4764.985
477.8860, 4773.707
478.3681, 4780.505
478.8503, 4782.128
479.3324, 4782.764
479.8145, 4787.420
480.2966, 4794.846
480.7787, 4800.360
481.2608, 4800.990
481.7430, 4799.278
482.2251, 4795.891
482.7072, 4790.088
483.1893, 4787.462
483.6714, 4792.970
484.1535, 4801.303
484.6357, 4807.106
485.1178, 4808.758
485.5999, 4808.903
486.0820, 4807.100
486.5641, 4804.029
487.0462, 4801.871
487.5284, 4800.162
488.0105, 4800.195
488.4926, 4803.407
488.9747, 4810.929
489.4568, 4813.731
489.9389, 4809.755
490.4211, 4804.745
490.9032, 4805.675
491.3853, 4812.906
491.8674, 4819.601
492.3495, 4824.394
492.8316, 4827.708
493.3138, 4830.138
493.7959, 4831.729
494.2780, 4833.222
494.7601, 4834.633
495.2422, 4836.296
495.7243, 4839.022
496.2065, 4842.901
496.6886, 4846.896
497.1707, 4850.449
497.6528, 4853.587
498.1349, 4856.292
498.6170, 4858.069
499.0992, 4860.149
499.5813, 4863.814
500.0634, 4868.330
500.5455, 4871.942
501.0276, 4874.009
501.5097, 4875.114
501.9919, 4875.436
502.4740, 4874.952
502.9561, 4873.930
503.4382, 4870.453
503.9203, 4867.846
504.4025, 4868.899
504.8846, 4877.649
505.3667, 4881.451
505.8488, 4877.446
506.3309, 4869.433
506.8130, 4865.681
507.2952, 4866.886
507.7773, 4869.386
508.2594, 4872.183
508.7415, 4875.191
509.2236, 4878.363
509.7057, 4881.805
510.1879, 4884.217
510.6700, 4883.003
511.1521, 4879.853
511.6342, 4880.329
512.1163, 4886.104
512.5984, 4892.703
513.0806, 4895.250
513.5627, 4895.107
514.0448, 4895.111
514.5269, 4897.469
515.0090, 4899.555
515.4911, 4898.148
515.9733, 4894.064
516.4554, 4892.962
516.9375, 4900.980
517.4196, 4909.644
517.9017, 4913.607
518.3839, 4909.952
518.8660, 4907.125
519.3481, 4905.720
519.8302, 4905.712
520.3123, 4907.380
520.7944, 4912.571
521.2766, 4916.194
521.7587, 4917.431
522.2408, 4916.646
522.7229, 4914.701
523.2050, 4911.123
523.6871, 4908.481
524.1693, 4908.483
524.6514, 4910.965
525.1335, 4913.485
525.6156, 4916.140
526.0977, 4918.427
526.5798, 4918.880
527.0620, 4918.480
527.5441, 4920.722
528.0262, 4927.967
528.5083, 4934.791
528.9904, 4932.852
529.4725, 4925.652
529.9547, 4921.818
530.4368, 4928.662
530.9189, 4937.706
531.4010, 4943.847
531.8831, 4946.885
532.3652, 4948.496
532.8474, 4948.130
533.3295, 4947.305
533.8116, 4947.007
534.2937, 4947.869
534.7758, 4948.433
535.2579, 4948.516
535.7401, 4948.452
536.2222, 4948.650
536.7043, 4949.022
537.1865, 4950.169
537.6686, 4952.511
538.1507, 4955.818
538.6328, 4958.924
539.1149, 4962.015
539.5970, 4964.314
540.0792, 4964.626
540.5613, 4963.591
541.0434, 4964.423
541.5255, 4967.370
542.0076, 4970.644
542.4897, 4972.519
542.9719, 4973.387
543.4540, 4973.900
543.9361, 4973.414
544.4182, 4973.892
544.9003, 4977.350
545.3824, 4982.866
545.8646, 4988.468
546.3467, 4994.508
546.8288, 4999.334
547.3109, 5001.749
547.7930, 5001.641
548.2751, 5001.425
548.7573, 5001.029
549.2394, 5000.977
549.7215, 5001.611
550.2036, 5003.351
550.6857, 5005.011
551.1678, 5006.749
551.6500, 5008.375
552.1321, 5009.633
552.6142, 5010.583
553.0963, 5011.190
553.5784, 5011.543
554.0605, 5011.550
554.5427, 5010.576
555.0248, 5008.708
555.5069, 5007.257
555.9890, 5007.138
556.4711, 5007.909
556.9532, 5008.429
557.4354, 5008.636
557.9175, 5010.184
558.3996, 5016.511
558.8817, 5023.773
559.3638, 5027.438
559.8459, 5024.578
560.3281, 5021.726
560.8102, 5021.625
561.2923, 5023.179
561.7744, 5024.664
562.2565, 5025.438
562.7386, 5026.536
563.2208, 5028.445
563.7029, 5031.003
564.1850, 5033.061
564.6671, 5034.628
565.1492, 5035.694
565.6313, 5035.507
566.1135, 5033.711
566.5956, 5036.675
567.0777, 5045.799
567.5598, 5054.650
568.0419, 5054.831
568.5240, 5048.189
569.0062, 5044.627
569.4883, 5046.796
569.9704, 5051.030
570.4525, 5053.367
570.9346, 5054.133
571.4167, 5054.073
571.8989, 5051.634
572.3810, 5050.101
572.8631, 5053.211
573.3452, 5060.044
573.8273, 5064.517
574.3094, 5061.089
574.7916, 5057.234
575.2737, 5057.413
575.7558, 5063.897
576.2379, 5068.401
576.7200, 5069.952
577.2021, 5070.051
577.6843, 5069.600
578.1664, 5067.594
578.6485, 5068.136
579.1306, 5072.334
579.6127, 5078.432
580.0948, 5083.557
580.5770, 5087.680
581.0591, 5089.896
581.5412, 5088.737
582.0233, 5086.008
582.5054, 5086.100
582.9875, 5088.640
583.4697, 5090.833
583.9518, 5088.711
584.4340, 5086.367
584.9161, 5089.229
585.3982, 5098.530
585.8803, 5106.977
586.3624, 5112.282
586.8445, 5114.365
587.3267, 5113.102
587.8088, 5104.169
588.2909, 5097.465
588.7730, 5094.478
589.2551, 5094.291
589.7372, 5095.835
590.2194, 5100.842
590.7015, 5103.880
591.1836, 5102.372
591.6657, 5097.781
592.1478, 5098.565
592.6299, 5105.313
593.1121, 5112.612
593.5942, 5117.942
594.0763, 5121.177
594.5584, 5121.468
595.0405, 5118.702
595.5226, 5114.886
596.0048, 5109.983
596.4869, 5105.790
596.9690, 5105.318
597.4511, 5110.641
597.9332, 5116.330
598.4153, 5119.770
598.8975, 5121.570
599.3796, 5122.722
599.8617, 5123.593
600.3438, 5123.839
600.8259, 5122.333
601.3080, 5119.940
601.7902, 5120.334
602.2723, 5125.428
602.7544, 5129.979
603.2365, 5131.542
603.7186, 5130.127
604.2007, 5130.893
604.6829, 5134.001
605.1650, 5137.900
605.6471, 5141.720
606.1292, 5145.202
606.6113, 5147.740
607.0934, 5149.219
607.5756, 5149.480
608.0577, 5147.550
608.5398, 5144.456
609.0219, 5142.036
609.5040, 5141.589
609.9861, 5141.087
610.4683, 5139.550
610.9504, 5137.281
611.4325, 5134.812
611.9146, 5130.756
612.3967, 5128.385
612.8788, 5129.271
613.3610, 5133.181
613.8431, 5137.252
614.3252, 5142.153
614.8073, 5146.148
615.2894, 5147.842
615.7715, 5146.969
616.2537, 5148.791
616.7358, 5153.909
617.2179, 5158.451
617.7000, 5156.721
618.1821, 5150.788
618.6642, 5148.291
619.1464, 5150.758
619.6285, 5155.507
620.1106, 5161.000
620.5927, 5166.621
621.0748, 5171.341
621.5569, 5174.860
622.0391, 5177.354
622.5212, 5178.385
623.0033, 5178.473
623.4854, 5179.135
623.9675, 5181.197
624.4496, 5183.498
624.9318, 5185.836
625.4139, 5188.275
625.8960, 5191.005
626.3781, 5194.667
626.8602, 5197.276
627.3423, 5196.697
627.8245, 5193.095
628.3066, 5192.275
628.7887, 5194.558
629.2708, 5198.221
629.7529, 5202.260
630.2350, 5206.147
630.7172, 5208.524
631.1993, 5208.359
631.6815, 5208.396
632.1636, 5212.291
632.6457, 5217.483
633.1278, 5220.000
633.6099, 5214.139
634.0920, 5210.042
634.5742, 5212.717
635.0563, 5220.083
635.5384, 5223.969
636.0205, 5222.657
636.5026, 5220.210
636.9847, 5217.563
637.4669, 5214.836
637.9490, 5212.628
638.4311, 5210.820
638.9132, 5210.320
639.3953, 5212.692
639.8774, 5217.115
640.3596, 5219.343
640.8417, 5219.059
641.3238, 5218.685
641.8059, 5220.648
642.2880, 5223.833
642.7701, 5226.448
643.2523, 5227.544
643.7344, 5229.524
644.2165, 5236.170
644.6986, 5243.588
645.1807, 5246.556
645.6628, 5237.974
646.1450, 5232.196
646.6271, 5231.687
647.1092, 5235.061
647.5913, 5239.434
648.0734, 5246.165
648.5555, 5249.985
649.0377, 5247.858
649.5198, 5241.753
650.0019, 5241.422
650.4840, 5246.810
650.9661, 5251.597
651.4482, 5249.875
651.9304, 5245.565
652.4125, 5245.883
652.8946, 5251.088
653.3767, 5257.183
653.8588, 5263.034
654.3409, 5267.728
654.8231, 5270.148
655.3052, 5268.966
655.7873, 5268.792
656.2694, 5271.015
656.7515, 5274.467
657.2336, 5278.075
657.7158, 5282.104
658.1979, 5285.557
658.6800, 5288.351
659.1621, 5290.358
659.6442, 5290.991
660.1263, 5290.156
660.6085, 5289.804
661.0906, 5290.482
661.5727, 5291.903
662.0548, 5293.729
662.5369, 5295.909
663.0190, 5298.306
663.5012, 5301.288
663.9833, 5304.209
664.4654, 5307.000
664.9475, 5309.560
665.4296, 5310.956
665.9117, 5310.168
666.3939, 5308.966
666.8760, 5308.261
667.3581, 5308.221
667.8402, 5308.083
668.3223, 5307.009
668.8044, 5307.273
669.2866, 5311.978
669.7687, 5321.508
670.2508, 5324.664
670.7329, 5319.616
671.2150, 5313.337
671.6971, 5313.579
672.1793, 5318.688
672.6614, 5324.827
673.1435, 5331.722
673.6256, 5337.638
674.1077, 5341.361
674.5898, 5343.191
675.0720, 5343.587
675.5541, 5341.860
676.0362, 5339.702
676.5183, 5336.854
677.0004, 5334.008
677.4825, 5332.922
677.9647, 5334.208
678.4468, 5336.367
678.9290, 5339.263
679.4111, 5342.778
679.8932, 5346.601
680.3753, 5350.827
680.8574, 5354.113
681.3395, 5354.806
681.8217, 5354.252
682.3038, 5355.543
682.7859, 5358.538
683.2680, 5361.224
683.7501, 5361.747
684.2322, 5361.645
684.7144, 5361.534
685.1965, 5360.970
685.6786, 5363.555
686.1607, 5373.099
686.6428, 5384.072
687.1249, 5392.705
687.6071, 5398.721
688.0892, 5403.074
688.5713, 5406.212
689.0534, 5407.109
689.5355, 5402.962
690.0176, 5394.131
690.4998, 5388.917
690.9819, 5389.350
691.4640, 5392.568
691.9461, 5395.934
692.4282, 5399.046
692.9103, 5400.855
693.3925, 5399.014
693.8746, 5397.999
694.3567, 5399.880
694.8388, 5404.466
695.3209, 5411.360
695.8030, 5423.914
696.2852, 5434.748
696.7673, 5442.545
697.2494, 5447.352
697.7315, 5448.088
698.2136, 5442.489
698.6957, 5440.374
699.1779, 5447.985
699.6600, 5462.522
700.1421, 5471.033
700.6242, 5473.825
701.1063, 5475.407
701.5884, 5478.504
702.0706, 5482.472
702.5527, 5486.624
703.0348, 5490.921
703.5169, 5495.273
703.9990, 5499.916
704.4811, 5504.376
704.9633, 5508.010
705.4454, 5509.815
705.9275, 5513.749
706.4096, 5521.438
706.8917, 5529.411
707.3738, 5534.771
707.8560, 5537.273
708.3381, 5538.113
708.8202, 5536.659
709.3023, 5536.123
709.7844, 5541.439
710.2665, 5550.971
710.7487, 5560.377
711.2308, 5568.662
711.7129, 5576.198
712.1950, 5583.636
712.6771, 5590.495
713.1592, 5596.063
713.6414, 5601.260
714.1235, 5603.704
714.6056, 5599.898
715.0877, 5593.466
715.5698, 5592.524
716.0519, 5600.933
716.5341, 5604.280
717.0162, 5597.766
717.4983, 5584.768
717.9804, 5574.863
718.4625, 5567.779
718.9446, 5561.045
719.4268, 5552.664
719.9089, 5544.476
720.3910, 5539.481
720.8731, 5537.014
721.3552, 5534.016
721.8373, 5527.660
722.3195, 5521.621
722.8016, 5518.239
723.2837, 5517.729
723.7658, 5516.808
724.2479, 5514.950
724.7300, 5513.279
725.2122, 5512.185
725.6943, 5511.677
726.1765, 5512.263
726.6586, 5513.962
727.1407, 5516.690
727.6228, 5521.934
728.1049, 5527.906
728.5870, 5529.823
729.0692, 5527.229
729.5513, 5523.607
730.0334, 5519.750
730.5155, 5516.993
730.9976, 5517.136
731.4797, 5521.814
731.9619, 5525.117
732.4440, 5523.604
732.9261, 5522.092
733.4082, 5524.789
733.8903, 5533.841
734.3724, 5539.846
734.8546, 5541.884
735.3367, 5541.898
735.8188, 5541.313
736.3009, 5540.579
736.7830, 5542.362
737.2651, 5548.102
737.7473, 5553.486
738.2294, 5551.493
738.7115, 5547.085
739.1936, 5547.803
739.6757, 5562.558
740.1578, 5574.278
740.6400, 5576.316
741.1221, 5572.768
741.6042, 5571.078
742.0863, 5572.624
742.5684, 5572.502
743.0505, 5568.789
743.5327, 5564.081
744.0148, 5565.156
744.4969, 5571.522
744.9790, 5577.040
745.4611, 5579.641
745.9432, 5580.063
746.4254, 5578.610
746.9075, 5575.808
747.3896, 5572.986
747.8717, 5570.125
748.3538, 5568.161
748.8359, 5568.007
749.3181, 5569.369
749.8002, 5570.313
750.2823, 5570.251
750.7644, 5570.993
751.2465, 5573.805
751.7286, 5577.837
752.2108, 5577.845
752.6929, 5573.730
753.1750, 5570.884
753.6571, 5572.728
754.1392, 5577.542
754.6213, 5583.360
755.1035, 5589.864
755.5856, 5595.225
756.0677, 5597.528
756.5498, 5599.112
757.0319, 5601.395
757.5140, 5604.410
757.9962, 5606.628
758.4783, 5606.654
758.9604, 5607.593
759.4425, 5611.506
759.9246, 5618.192
760.4067, 5621.747
760.8889, 5621.900
761.3710, 5621.085
761.8531, 5620.363
762.3352, 5620.206
762.8173, 5622.447
763.2994, 5627.056
763.7816, 5630.007
764.2637, 5626.467
764.7458, 5622.096
765.2279, 5621.856
765.7100, 5627.753
766.1921, 5630.203
766.6743, 5626.313
767.1564, 5621.964
767.6385, 5621.046
768.1206, 5623.987
768.6027, 5626.095
769.0848, 5627.148
769.5670, 5628.382
770.0491, 5630.956
770.5312, 5634.474
771.0133, 5638.751
771.4954, 5643.921
771.9775, 5647.370
772.4597, 5644.968
772.9418, 5641.595
773.4240, 5641.758
773.9061, 5648.536
774.3882, 5652.434
774.8703, 5651.597
775.3524, 5649.631
775.8345, 5649.688
776.3167, 5652.031
776.7988, 5653.685
777.2809, 5654.313
777.7630, 5655.244
778.2451, 5657.890
778.7272, 5661.887
779.2094, 5667.208
779.6915, 5674.604
780.1736, 5679.588
780.6557, 5675.491
781.1378, 5669.702
781.6199, 5669.631
782.1021, 5682.755
782.5842, 5690.594
783.0663, 5690.240
783.5484, 5687.732
784.0305, 5690.185
784.5126, 5697.815
784.9948, 5703.622
785.4769, 5706.842
785.9590, 5707.839
786.4411, 5705.325
786.9232, 5701.296
787.4053, 5699.477
787.8875, 5701.435
788.3696, 5703.922
788.8517, 5706.344
789.3338, 5708.005
789.8159, 5707.939
790.2980, 5703.095
790.7802, 5702.315
791.2623, 5707.922
791.7444, 5714.907
792.2265, 5715.532
792.7086, 5710.308
793.1907, 5708.475
793.6729, 5712.253
794.1550, 5716.829
794.6371, 5716.491
795.1192, 5713.394
795.6013, 5710.983
796.0834, 5710.251
796.5656, 5710.306
797.0477, 5710.999
797.5298, 5712.308
798.0119, 5714.218
798.4940, 5717.239
798.9761, 5719.592
799.4583, 5720.731
799.9404, 5721.903
800.4225, 5725.346
800.9046, 5730.567
801.3867, 5734.727
801.8688, 5737.083
802.3510, 5738.748
802.8331, 5739.898
803.3152, 5741.304
803.7973, 5744.143
804.2794, 5750.253
804.7615, 5755.212
805.2437, 5758.443
805.7258, 5759.876
806.2079, 5758.710
806.6900, 5753.463
807.1721, 5751.702
807.6542, 5754.701
808.1364, 5759.982
808.6185, 5764.977
809.1006, 5769.554
809.5827, 5773.816
810.0648, 5778.570
810.5469, 5780.255
811.0291, 5771.262
811.5112, 5759.922
811.9933, 5756.033
812.4754, 5769.674
812.9575, 5778.150
813.4396, 5778.542
813.9218, 5775.307
814.4039, 5772.977
814.8860, 5771.546
815.3681, 5771.879
815.8502, 5774.635
816.3323, 5776.876
816.8145, 5773.788
817.2966, 5768.153
817.7787, 5764.565
818.2608, 5763.811
818.7429, 5766.143
819.2251, 5774.725
819.7072, 5784.774
820.1893, 5791.432
820.6714, 5793.091
821.1536, 5794.354
821.6357, 5795.092
822.1178, 5795.579
822.5999, 5795.161
823.0820, 5794.347
823.5641, 5797.999
824.0463, 5807.356
824.5284, 5815.140
825.0105, 5811.934
825.4926, 5804.608
825.9747, 5800.911
826.4568, 5802.641
826.9390, 5806.616
827.4211, 5813.813
827.9032, 5821.667
828.3853, 5829.268
828.8674, 5837.550
829.3495, 5839.472
829.8317, 5833.554
830.3138, 5827.558
830.7959, 5830.903
831.2780, 5839.357
831.7601, 5843.976
832.2422, 5843.745
832.7244, 5841.469
833.2065, 5835.399
833.6886, 5830.564
834.1707, 5831.853
834.6528, 5842.332
835.1349, 5848.419
835.6171, 5849.321
836.0992, 5847.259
836.5813, 5841.369
837.0634, 5832.351
837.5455, 5832.407
838.0276, 5841.686
838.5098, 5852.204
838.9919, 5858.226
839.4740, 5862.000
839.9561, 5866.069
840.4382, 5870.561
840.9203, 5873.517
841.4025, 5872.359
841.8846, 5871.325
842.3667, 5872.797
842.8488, 5876.695
843.3309, 5877.832
843.8130, 5875.836
844.2952, 5873.435
844.7773, 5871.915
845.2594, 5871.320
845.7415, 5872.138
846.2236, 5874.155
846.7057, 5875.979
847.1879, 5876.375
847.6700, 5876.869
848.1521, 5878.645
848.6342, 5881.515
849.1163, 5883.534
849.5984, 5884.461
850.0806, 5884.636
850.5627, 5883.222
851.0448, 5881.553
851.5269, 5885.673
852.0090, 5894.679
852.4911, 5901.330
852.9733, 5899.600
853.4554, 5896.196
853.9375, 5897.346
854.4196, 5901.596
854.9017, 5905.428
855.3839, 5906.710
855.8660, 5908.885
856.3481, 5914.042
856.8302, 5919.786
857.3123, 5920.229
857.7944, 5914.971
858.2766, 5909.868
858.7587, 5905.807
859.2408, 5903.886
859.7229, 5907.579
860.2050, 5914.413
860.6871, 5919.228
861.1693, 5919.490
861.6514, 5918.910
862.1335, 5918.406
862.6156, 5918.096
863.0977, 5918.008
863.5798, 5917.858
864.0620, 5918.720
864.5441, 5920.661
865.0262, 5923.586
865.5083, 5928.662
865.9904, 5934.634
866.4726, 5937.078
866.9547, 5934.477
867.4368, 5932.411
867.9189, 5935.097
868.4011, 5939.946
868.8832, 5944.772
869.3653, 5949.920
869.8474, 5953.144
870.3295, 5953.643
870.8116, 5953.563
871.2938, 5954.478
871.7759, 5956.374
872.2580, 5959.301
872.7401, 5963.352
873.2222, 5965.712
873.7043, 5961.870
874.1865, 5956.794
874.6686, 5956.162
875.1507, 5960.460
875.6328, 5962.782
876.1149, 5958.629
876.5970, 5955.189
877.0792, 5955.328
877.5613, 5958.674
878.0434, 5961.430
878.5255, 5963.536
879.0076, 5966.307
879.4897, 5970.979
879.9719, 5976.437
880.4540, 5982.529
880.9361, 5988.298
881.4182, 5990.381
881.9003, 5980.530
882.3824, 5974.362
882.8646, 5980.619
883.3467, 5993.908
883.8288, 6000.322
884.3109, 5998.550
884.7930, 5997.117
885.2751, 5998.285
885.7573, 6000.683
886.2394, 6001.939
886.7215, 6002.586
887.2036, 6003.971
887.6857, 6006.628
888.1678, 6009.925
888.6500, 6015.483
889.1321, 6020.656
889.6142, 6021.426
890.0963, 6014.125
890.5784, 6013.266
891.0605, 6021.857
891.5427, 6031.995
892.0248, 6033.838
892.5069, 6029.938
892.9890, 6027.645
893.4711, 6028.117
893.9532, 6029.616
894.4354, 6031.032
894.9175, 6032.962
895.3996, 6036.277
895.8817, 6041.693
896.3638, 6045.149
896.8459, 6045.938
897.3281, 6046.070
897.8102, 6046.276
898.2923, 6046.728
898.7744, 6048.794
899.2565, 6052.309
899.7386, 6056.119
900.2208, 6059.783
900.7029, 6063.113
901.1850, 6066.029
901.6671, 6068.460
902.1492, 6070.398
902.6313, 6072.126
903.1135, 6072.817
903.5956, 6071.829
904.0777, 6070.052
904.5598, 6070.331
905.0419, 6072.401
905.5240, 6073.757
906.0062, 6073.391
906.4883, 6072.273
906.9704, 6070.011
907.4525, 6067.991
907.9346, 6068.396
908.4167, 6074.718
908.8989, 6079.435
909.3810, 6081.729
909.8631, 6082.578
910.3452, 6082.258
910.8273, 6080.988
911.3094, 6083.272
911.7916, 6090.018
912.2737, 6096.958
912.7558, 6100.167
913.2380, 6101.392
913.7201, 6101.917
914.2022, 6101.363
914.6843, 6103.588
915.1664, 6112.208
915.6486, 6119.927
916.1307, 6122.546
916.6128, 6120.408
917.0949, 6118.493
917.5770, 6116.819
918.0591, 6116.610
918.5413, 6121.252
919.0234, 6125.817
919.5055, 6122.986
919.9876, 6114.897
920.4697, 6110.891
920.9518, 6118.859
921.4340, 6124.542
921.9161, 6123.772
922.3982, 6119.299
922.8803, 6118.111
923.3624, 6120.094
923.8445, 6122.265
924.3267, 6123.667
924.8088, 6125.195
925.2909, 6129.353
925.7730, 6133.799
926.2551, 6134.955
926.7372, 6129.141
927.2194, 6125.163
927.7015, 6125.290
928.1836, 6126.315
928.6657, 6124.587
929.1478, 6120.186
929.6299, 6120.300
930.1121, 6125.536
930.5942, 6131.812
931.0763, 6136.966
931.5584, 6140.487
932.0405, 6140.443
932.5226, 6136.767
933.0048, 6136.666
933.4869, 6145.778
933.9690, 6153.579
934.4511, 6155.592
934.9332, 6153.239
935.4153, 6153.561
935.8975, 6156.452
936.3796, 6161.358
936.8617, 6170.083
937.3438, 6178.136
937.8259, 6179.518
938.3080, 6177.036
938.7902, 6176.303
939.2723, 6182.287
939.7544, 6185.005
940.2365, 6181.677
940.7186, 6176.776
941.2007, 6177.373
941.6829, 6182.885
942.1650, 6185.707
942.6471, 6184.628
943.1292, 6182.843
943.6113, 6182.485
944.0934, 6183.421
944.5756, 6185.846
945.0577, 6190.167
945.5398, 6193.981
946.0219, 6197.758
946.5040, 6200.040
946.9861, 6199.614
947.4683, 6197.008
947.9504, 6195.085
948.4325, 6193.865
948.9146, 6193.641
949.3967, 6195.342
949.8788, 6197.387
950.3610, 6198.165
950.8431, 6198.339
951.3252, 6200.082
951.8073, 6205.376
952.2894, 6208.690
952.7715, 6208.795
953.2537, 6207.271
953.7358, 6206.493
954.2179, 6206.342
954.7000, 6206.211
955.1821, 6205.901
955.6642, 6206.136
956.1464, 6207.752
956.6285, 6209.938
957.1106, 6211.987
957.5927, 6213.794
958.0748, 6215.092
958.5569, 6214.804
959.0391, 6216.747
959.5212, 6226.415
960.0033, 6239.655
960.4855, 6242.458
960.9676, 6236.495
961.4497, 6231.546
961.9318, 6233.901
962.4139, 6237.409
962.8961, 6238.431
963.3782, 6238.351
963.8603, 6241.755
964.3424, 6250.247
964.8245, 6255.537
965.3066, 6255.764
965.7888, 6253.096
966.2709, 6247.884
966.7530, 6242.820
967.2351, 6244.236
967.7172, 6256.163
968.1993, 6265.301
968.6815, 6264.521
969.1636, 6260.854
969.6457, 6258.459
970.1278, 6257.122
970.6099, 6259.563
971.0920, 6265.829
971.5742, 6273.813
972.0563, 6284.230
972.5384, 6293.868
973.0205, 6297.607
973.5026, 6296.652
973.9847, 6296.461
974.4669, 6298.924
974.9490, 6302.247
975.4311, 6306.662
975.9132, 6311.292
976.3953, 6313.975
976.8774, 6314.954
977.3596, 6317.478
977.8417, 6323.002
978.3238, 6327.226
978.8059, 6323.055
979.2880, 6317.281
979.7701, 6318.300
980.2523, 6331.312
980.7344, 6337.468
981.2165, 6333.677
981.6986, 6327.803
982.1807, 6324.086
982.6628, 6322.247
983.1450, 6321.187
983.6271, 6320.891
984.1092, 6321.517
984.5913, 6323.992
985.0734, 6326.453
985.5555, 6327.356
986.0377, 6327.472
986.5198, 6329.198
987.0019, 6333.609
987.4840, 6335.697
987.9661, 6334.079
988.4482, 6331.849
988.9304, 6334.540
989.4125, 6339.391
989.8946, 6340.242
990.3767, 6335.202
990.8588, 6332.347
991.3409, 6338.106
991.8231, 6344.309
992.3052, 6345.778
992.7873, 6342.771
993.2694, 6342.862
993.7515, 6346.177
994.2336, 6348.278
994.7158, 6344.019
995.1979, 6339.558
995.6800, 6343.276
996.1621, 6352.169
996.6442, 6359.300
997.1263, 6362.134
997.6085, 6363.290
998.0906, 6361.601
998.5727, 6360.086
999.0548, 6363.033
999.5369, 6369.842
1000.019, 6378.078
1000.501, 6387.780
1000.983, 6393.049
1001.465, 6384.668
1001.948, 6374.201
1002.430, 6371.570
1002.912, 6377.467
1003.394, 6379.312
1003.876, 6375.661
1004.358, 6372.991
1004.840, 6374.305
1005.322, 6377.502
1005.804, 6378.387
1006.287, 6377.813
1006.769, 6377.896
1007.251, 6379.758
1007.733, 6381.835
1008.215, 6384.061
1008.697, 6385.960
1009.179, 6386.423
1009.661, 6384.987
1010.144, 6388.467
1010.626, 6397.528
1011.108, 6405.052
1011.590, 6404.728
1012.072, 6400.511
1012.554, 6394.119
1013.036, 6386.643
1013.518, 6384.776
1014.000, 6393.837
1014.483, 6400.942
1014.965, 6402.662
1015.447, 6401.381
1015.929, 6401.845
1016.411, 6403.576
1016.893, 6404.320
1017.375, 6402.732
1017.857, 6402.929
1018.340, 6409.619
1018.822, 6417.604
1019.304, 6421.719
1019.786, 6420.881
1020.268, 6425.085
1020.750, 6435.425
1021.232, 6443.342
1021.714, 6441.052
1022.196, 6434.360
1022.679, 6432.687
1023.161, 6434.236
1023.643, 6433.935
1024.125, 6426.268
1024.607, 6421.933
1025.089, 6423.997
1025.571, 6428.636
1026.053, 6430.084
1026.536, 6428.979
1027.018, 6430.571
1027.500, 6435.667
1027.982, 6440.838
1028.464, 6443.358
1028.946, 6445.022
1029.428, 6446.786
1029.910, 6448.814
1030.392, 6452.550
1030.875, 6458.704
1031.357, 6463.999
1031.839, 6467.452
1032.321, 6469.088
1032.803, 6467.695
1033.285, 6464.683
1033.767, 6463.144
1034.249, 6464.492
1034.732, 6466.396
1035.214, 6467.904
1035.696, 6470.211
1036.178, 6475.321
1036.660, 6483.160
1037.142, 6486.268
1037.624, 6484.708
1038.106, 6481.208
1038.589, 6475.281
1039.071, 6470.272
1039.553, 6468.755
1040.035, 6470.336
1040.517, 6473.368
1040.999, 6478.747
1041.481, 6482.348
1041.963, 6482.701
1042.445, 6483.558
1042.927, 6492.273
1043.410, 6504.383
1043.892, 6509.795
1044.374, 6506.202
1044.856, 6506.336
1045.338, 6522.478
1045.820, 6534.946
1046.302, 6533.043
1046.784, 6520.394
1047.267, 6516.190
1047.749, 6519.796
1048.231, 6524.893
1048.713, 6530.027
1049.195, 6533.760
1049.677, 6533.728
1050.159, 6532.240
1050.641, 6532.755
1051.124, 6537.538
1051.606, 6538.446
1052.088, 6534.348
1052.570, 6530.878
1053.052, 6533.936
1053.534, 6539.997
1054.016, 6542.459
1054.498, 6541.765
1054.980, 6540.650
1055.463, 6539.605
1055.945, 6538.904
1056.427, 6538.013
1056.909, 6537.928
1057.391, 6541.530
1057.873, 6548.028
1058.355, 6550.290
1058.837, 6546.764
1059.319, 6544.150
1059.802, 6549.702
1060.284, 6556.548
1060.766, 6558.720
1061.248, 6556.464
1061.730, 6557.395
1062.212, 6561.987
1062.694, 6567.940
1063.176, 6575.640
1063.659, 6582.117
1064.141, 6580.219
1064.623, 6574.922
1065.105, 6575.037
1065.587, 6586.353
1066.069, 6595.135
1066.551, 6599.581
1067.033, 6601.700
1067.516, 6601.618
1067.998, 6600.154
1068.480, 6602.685
1068.962, 6608.500
1069.444, 6613.936
1069.926, 6615.772
1070.408, 6618.008
1070.890, 6625.104
1071.372, 6632.524
1071.854, 6632.609
1072.337, 6624.576
1072.819, 6617.692
1073.301, 6612.934
1073.783, 6610.219
1074.265, 6609.882
1074.747, 6611.456
1075.229, 6615.426
1075.711, 6621.503
1076.194, 6625.729
1076.676, 6628.365
1077.158, 6627.513
1077.640, 6621.197
1078.122, 6613.761
1078.604, 6613.757
1079.086, 6618.141
1079.568, 6620.329
1080.051, 6618.176
1080.533, 6616.696
1081.015, 6617.540
1081.497, 6619.667
1081.979, 6622.999
1082.461, 6627.295
1082.943, 6630.225
1083.425, 6632.286
1083.907, 6636.940
1084.390, 6648.989
1084.872, 6659.718
1085.354, 6661.006
1085.836, 6659.071
1086.318, 6662.198
1086.800, 6671.612
1087.282, 6681.956
1087.764, 6693.502
1088.247, 6702.585
1088.729, 6703.562
1089.211, 6702.364
1089.693, 6706.884
1090.175, 6715.500
1090.657, 6721.024
1091.139, 6717.901
1091.621, 6719.843
1092.104, 6729.445
1092.586, 6743.063
1093.068, 6756.960
1093.550, 6770.818
1094.032, 6783.826
1094.514, 6795.907
1094.996, 6809.026
1095.478, 6824.678
1095.960, 6840.676
1096.443, 6855.854
1096.925, 6870.890
1097.407, 6888.283
1097.889, 6907.903
1098.371, 6927.584
1098.853, 6945.936
1099.335, 6967.627
1099.817, 6994.376
1100.299, 7027.322
1100.782, 7067.720
1101.264, 7115.590
1101.746, 7165.344
1102.228, 7216.080
1102.710, 7283.023
1103.192, 7375.474
1103.674, 7484.666
1104.156, 7612.999
1104.639, 7745.511
1105.121, 7859.116
1105.603, 7946.984
1106.085, 8018.124
1106.567, 8071.421
1107.049, 8111.817
1107.531, 8134.618
1108.013, 8151.705
1108.495, 8186.334
1108.978, 8237.636
1109.460, 8300.018
1109.942, 8363.743
1110.424, 8451.128
1110.906, 8567.102
1111.388, 8705.557
1111.870, 8859.444
1112.352, 9029.160
1112.834, 9217.146
1113.317, 9424.838
1113.799, 9645.657
1114.281, 9953.366
1114.763, 10191.33
1115.245, 10318.46
1115.727, 10308.28
1116.209, 10037.62
1116.691, 9512.103
1117.174, 8968.126
1117.656, 8441.329
1118.138, 7986.550
1118.620, 7657.943
1119.102, 7416.468
1119.584, 7242.946
1120.066, 7132.130
1120.548, 7046.557
1121.031, 6987.765
1121.513, 6944.212
1121.995, 6914.562
1122.477, 6892.193
1122.959, 6868.187
1123.441, 6845.652
1123.923, 6829.146
1124.405, 6821.484
1124.887, 6814.486
1125.370, 6807.600
1125.852, 6802.515
1126.334, 6800.552
1126.816, 6800.882
1127.298, 6803.582
1127.780, 6806.985
1128.262, 6807.011
1128.744, 6797.839
1129.227, 6791.845
1129.709, 6791.628
1130.191, 6792.455
1130.673, 6788.848
1131.155, 6782.813
1131.637, 6782.574
1132.119, 6787.601
1132.601, 6793.993
1133.083, 6804.279
1133.566, 6809.737
1134.048, 6804.806
1134.530, 6796.086
1135.012, 6793.122
1135.494, 6795.134
1135.976, 6791.508
1136.458, 6781.437
1136.940, 6774.514
1137.422, 6782.297
1137.905, 6790.420
1138.387, 6787.667
1138.869, 6779.298
1139.351, 6779.628
1139.833, 6789.191
1140.315, 6795.201
1140.797, 6795.173
1141.279, 6792.959
1141.762, 6788.898
1142.244, 6786.561
1142.726, 6790.466
1143.208, 6800.136
1143.690, 6805.791
1144.172, 6806.289
1144.654, 6809.454
1145.136, 6818.556
1145.619, 6828.152
1146.101, 6831.869
1146.583, 6831.771
1147.065, 6829.356
1147.547, 6823.632
1148.029, 6823.515
1148.511, 6831.131
1148.993, 6837.537
1149.475, 6838.826
1149.958, 6836.769
1150.440, 6832.313
1150.922, 6827.275
1151.404, 6825.244
1151.886, 6829.593
1152.368, 6830.900
1152.850, 6827.483
1153.332, 6823.838
1153.814, 6823.849
1154.297, 6825.176
1154.779, 6820.318
1155.261, 6811.657
1155.743, 6805.972
1156.225, 6806.800
1156.707, 6809.396
1157.189, 6813.595
1157.671, 6818.137
1158.154, 6822.287
1158.636, 6825.816
1159.118, 6826.996
1159.600, 6826.467
1160.082, 6827.648
1160.564, 6835.847
1161.046, 6841.079
1161.528, 6839.220
1162.010, 6834.870
1162.493, 6832.698
1162.975, 6832.657
1163.457, 6834.403
1163.939, 6837.871
1164.421, 6842.497
1164.903, 6848.985
1165.385, 6855.421
1165.867, 6862.083
1166.349, 6867.317
1166.832, 6867.278
1167.314, 6862.403
1167.796, 6858.811
1168.278, 6857.139
1168.760, 6856.719
1169.242, 6857.438
1169.724, 6858.901
1170.206, 6861.370
1170.689, 6864.315
1171.171, 6866.692
1171.653, 6868.536
1172.135, 6868.421
1172.617, 6865.575
1173.099, 6865.197
1173.581, 6876.258
1174.063, 6887.525
1174.546, 6887.265
1175.028, 6879.023
1175.510, 6882.256
1175.992, 6897.792
1176.474, 6904.369
1176.956, 6894.955
1177.438, 6881.932
1177.920, 6874.100
1178.402, 6870.157
1178.885, 6869.893
1179.367, 6872.967
1179.849, 6875.089
1180.331, 6876.162
1180.813, 6878.075
1181.295, 6882.116
1181.777, 6885.818
1182.259, 6886.307
1182.742, 6885.283
1183.224, 6883.775
1183.706, 6881.517
1184.188, 6885.761
1184.670, 6898.002
1185.152, 6905.803
1185.634, 6900.503
1186.116, 6893.532
1186.599, 6899.790
1187.081, 6911.548
1187.563, 6918.235
1188.045, 6917.613
1188.527, 6914.795
1189.009, 6908.789
1189.491, 6906.270
1189.973, 6913.040
1190.455, 6922.611
1190.938, 6927.517
1191.420, 6929.524
1191.902, 6931.609
1192.384, 6935.103
1192.866, 6936.035
1193.348, 6934.024
1193.830, 6931.688
1194.312, 6930.282
1194.794, 6929.966
1195.277, 6931.165
1195.759, 6933.572
1196.241, 6936.493
1196.723, 6939.271
1197.205, 6944.544
1197.687, 6953.427
1198.169, 6959.830
1198.651, 6955.750
1199.134, 6948.672
1199.616, 6948.223
1200.098, 6952.896
1200.580, 6959.239
1201.062, 6969.848
1201.544, 6973.625
1202.026, 6968.893
1202.508, 6962.082
1202.990, 6956.539
1203.473, 6953.815
1203.955, 6958.250
1204.437, 6967.322
1204.919, 6972.524
1205.401, 6970.179
1205.883, 6970.688
1206.365, 6975.660
1206.847, 6980.332
1207.329, 6979.589
1207.812, 6976.320
1208.294, 6973.104
1208.776, 6970.578
1209.258, 6970.844
1209.740, 6975.054
1210.222, 6979.635
1210.704, 6984.594
1211.186, 6988.737
1211.669, 6989.603
1212.151, 6989.925
1212.633, 6994.931
1213.115, 7003.226
1213.597, 7004.834
1214.079, 6995.453
1214.561, 6990.852
1215.043, 6993.949
1215.526, 6998.852
1216.008, 6998.245
1216.490, 6996.478
1216.972, 6999.667
1217.454, 7007.185
1217.936, 7011.857
1218.418, 7012.317
1218.900, 7013.142
1219.382, 7015.247
1219.865, 7017.022
1220.347, 7015.925
1220.829, 7014.089
1221.311, 7013.478
1221.793, 7014.471
1222.275, 7017.883
1222.757, 7024.443
1223.239, 7030.665
1223.722, 7035.995
1224.204, 7040.549
1224.686, 7046.019
1225.168, 7049.673
1225.650, 7047.450
1226.132, 7039.761
1226.614, 7034.752
1227.096, 7032.739
1227.578, 7032.234
1228.061, 7033.188
1228.543, 7034.087
1229.025, 7031.152
1229.507, 7028.967
1229.989, 7033.550
1230.471, 7044.084
1230.953, 7049.739
1231.435, 7049.920
1231.917, 7050.398
1232.400, 7052.677
1232.882, 7054.426
1233.364, 7052.579
1233.846, 7049.852
1234.328, 7048.533
1234.810, 7048.631
1235.292, 7049.583
1235.774, 7051.479
1236.257, 7053.878
1236.739, 7057.275
1237.221, 7058.328
1237.703, 7050.865
1238.185, 7042.846
1238.667, 7041.658
1239.149, 7045.757
1239.631, 7048.333
1240.114, 7049.450
1240.596, 7051.675
1241.078, 7056.021
1241.560, 7059.021
1242.042, 7054.698
1242.524, 7051.284
1243.006, 7054.938
1243.488, 7063.704
1243.970, 7071.469
1244.453, 7077.981
1244.935, 7080.031
1245.417, 7075.616
1245.899, 7074.109
1246.381, 7087.260
1246.863, 7098.342
1247.345, 7096.630
1247.827, 7087.071
1248.309, 7085.985
1248.792, 7091.638
1249.274, 7096.396
1249.756, 7098.384
1250.238, 7100.128
1250.720, 7105.612
1251.202, 7107.325
1251.684, 7099.914
1252.166, 7088.792
1252.649, 7087.670
1253.131, 7094.588
1253.613, 7105.292
1254.095, 7120.114
1254.577, 7129.484
1255.059, 7127.092
1255.541, 7123.540
1256.023, 7122.420
1256.505, 7122.322
1256.988, 7119.602
1257.470, 7115.905
1257.952, 7114.602
1258.434, 7116.392
1258.916, 7120.991
1259.398, 7131.209
1259.880, 7137.294
1260.362, 7134.450
1260.844, 7129.144
1261.327, 7132.455
1261.809, 7140.250
1262.291, 7146.602
1262.773, 7150.511
1263.255, 7152.909
1263.737, 7153.433
1264.219, 7153.677
1264.701, 7153.685
1265.184, 7154.478
1265.666, 7157.307
1266.148, 7161.559
1266.630, 7166.743
1267.112, 7172.768
1267.594, 7178.888
1268.076, 7185.234
1268.558, 7190.375
1269.041, 7193.678
1269.523, 7196.349
1270.005, 7200.921
1270.487, 7204.468
1270.969, 7202.744
1271.451, 7197.183
1271.933, 7196.173
1272.415, 7199.707
1272.897, 7201.272
1273.380, 7198.836
1273.862, 7197.227
1274.344, 7203.088
1274.826, 7207.728
1275.308, 7204.397
1275.790, 7196.139
1276.272, 7192.684
1276.754, 7193.464
1277.237, 7196.188
1277.719, 7200.759
1278.201, 7203.514
1278.683, 7199.606
1279.165, 7197.101
1279.647, 7199.905
1280.129, 7205.220
1280.611, 7207.812
1281.094, 7207.944
1281.576, 7205.141
1282.058, 7199.083
1282.540, 7197.038
1283.022, 7201.894
1283.504, 7210.554
1283.986, 7224.268
1284.468, 7237.185
1284.950, 7237.391
1285.432, 7231.945
1285.915, 7233.901
1286.397, 7244.269
1286.879, 7246.358
1287.361, 7235.451
1287.843, 7228.301
1288.325, 7229.000
1288.807, 7233.116
1289.289, 7237.836
1289.772, 7241.546
1290.254, 7241.865
1290.736, 7239.173
1291.218, 7237.264
1291.700, 7235.990
1292.182, 7235.896
1292.664, 7236.897
1293.146, 7240.829
1293.629, 7253.800
1294.111, 7265.705
1294.593, 7267.826
1295.075, 7264.260
1295.557, 7262.778
1296.039, 7263.204
1296.521, 7263.730
1297.003, 7264.601
1297.485, 7266.159
1297.968, 7269.083
1298.450, 7269.612
1298.932, 7265.020
1299.414, 7260.024
1299.896, 7263.578
1300.378, 7272.440
1300.860, 7274.456
1301.342, 7269.752
1301.824, 7268.297
1302.307, 7266.159
##END=



