##NAMES=Nosean
##RRUFFID=R050422
##IDEAL CHEMISTRY=Na_8_(Si_6_Al_6_)O_24_(S^6+^O_4_)&#183;H_2_O
##LOCALITY=Laacher See, Mendig Area, Eifel Mountains, Rhineland-Palatinate, Germany
##OWNER=RRUFF
##SOURCE=Marcus Origlieri
##DESCRIPTION=Colorless prismatic single crystals
##STATUS=The identification of this mineral is confirmed by single-crystal X-ray diffraction and chemical analysis.
##URL=rruff.info/R050422
##MEASURED CHEMISTRY=(Na_0.92_Ca_0.03_[box]_0.03_K_0.01_)_8_Al_5.99_Si_6.01_O_24_(S_1.00_O_4_)Â·H_2_O
93.78320, 651.4995
94.26532, 657.5823
94.74744, 659.9662
95.22955, 656.9636
95.71167, 652.2969
96.19379, 648.3785
96.67590, 647.6094
97.15802, 644.7407
97.64014, 638.2621
98.12225, 629.3951
98.60437, 619.9953
99.08649, 610.4200
99.56860, 601.5059
100.0507, 594.2518
100.5328, 587.7528
101.0150, 581.8105
101.4971, 576.7188
101.9792, 572.5223
102.4613, 568.1658
102.9434, 562.3341
103.4255, 556.4401
103.9077, 551.7355
104.3898, 548.7682
104.8719, 546.5314
105.3540, 542.9186
105.8361, 536.9604
106.3182, 531.0955
106.8004, 526.2196
107.2825, 521.6039
107.7646, 516.3041
108.2467, 509.6942
108.7288, 501.8519
109.2109, 493.9887
109.6931, 485.8308
110.1752, 477.8219
110.6573, 470.0493
111.1394, 462.5024
111.6215, 455.1127
112.1036, 447.8681
112.5858, 440.7232
113.0679, 433.8239
113.5500, 427.1083
114.0321, 420.6654
114.5142, 414.5269
114.9964, 408.6958
115.4785, 403.2355
115.9606, 398.1929
116.4427, 393.5332
116.9248, 389.6905
117.4069, 387.3190
117.8891, 385.8081
118.3712, 383.8983
118.8533, 381.3553
119.3354, 378.3069
119.8175, 374.7456
120.2996, 370.7152
120.7818, 366.8755
121.2639, 363.8711
121.7460, 361.7406
122.2281, 359.3413
122.7102, 356.0213
123.1923, 352.6681
123.6745, 349.8358
124.1566, 347.5907
124.6387, 345.5339
125.1208, 343.0827
125.6029, 340.1201
126.0850, 336.9580
126.5672, 333.3757
127.0493, 329.7742
127.5314, 326.5124
128.0135, 323.7126
128.4956, 321.2602
128.9777, 318.7701
129.4599, 316.0670
129.9420, 313.5562
130.4241, 311.3756
130.9062, 309.3854
131.3883, 307.3780
131.8705, 305.2272
132.3526, 302.9686
132.8347, 300.7717
133.3168, 298.5554
133.7989, 296.4567
134.2810, 294.5879
134.7632, 292.9102
135.2453, 291.2271
135.7274, 289.4033
136.2095, 287.4624
136.6916, 285.5307
137.1737, 283.5407
137.6559, 281.5987
138.1380, 279.8855
138.6201, 278.4778
139.1022, 276.9172
139.5843, 274.6581
140.0664, 272.0657
140.5486, 269.6900
141.0307, 267.8549
141.5128, 266.3746
141.9949, 264.6853
142.4770, 262.4773
142.9591, 260.5356
143.4413, 259.3151
143.9234, 258.5644
144.4055, 257.8083
144.8876, 256.6810
145.3697, 255.1813
145.8518, 253.8666
146.3340, 253.0267
146.8161, 252.1293
147.2982, 251.0140
147.7803, 249.6922
148.2624, 248.2471
148.7445, 246.7141
149.2267, 245.0110
149.7088, 243.6431
150.1909, 242.5753
150.6730, 241.7754
151.1551, 241.3603
151.6372, 241.2827
152.1194, 241.2463
152.6015, 240.8597
153.0836, 239.8949
153.5657, 239.2017
154.0478, 239.1891
154.5299, 239.2533
155.0121, 238.6584
155.4942, 237.1807
155.9763, 235.4689
156.4584, 234.5903
156.9405, 234.5895
157.4227, 234.5437
157.9048, 234.2624
158.3869, 233.7612
158.8690, 233.0022
159.3511, 231.8048
159.8332, 230.6173
160.3154, 229.9675
160.7975, 229.8501
161.2796, 229.9274
161.7617, 230.1928
162.2438, 230.6029
162.7259, 230.5429
163.2081, 229.4180
163.6902, 228.1194
164.1723, 227.3089
164.6544, 227.0443
165.1365, 227.0283
165.6186, 226.9976
166.1008, 226.9810
166.5829, 226.8196
167.0650, 226.2613
167.5471, 225.7003
168.0292, 225.4534
168.5113, 225.5834
168.9935, 225.8215
169.4756, 225.6668
169.9577, 224.7063
170.4398, 224.1600
170.9219, 224.4802
171.4040, 224.9870
171.8862, 225.0842
172.3683, 224.5573
172.8504, 223.6666
173.3325, 223.0222
173.8146, 222.7918
174.2967, 222.6525
174.7789, 222.8210
175.2610, 223.0027
175.7431, 222.8162
176.2252, 222.0760
176.7073, 220.9524
177.1894, 220.0025
177.6716, 218.9782
178.1537, 218.3844
178.6358, 218.6111
179.1179, 219.3235
179.6000, 219.9097
180.0821, 220.0942
180.5643, 219.9097
181.0464, 219.4632
181.5285, 218.4957
182.0106, 217.6777
182.4927, 217.4279
182.9749, 217.6398
183.4570, 217.8550
183.9391, 217.9405
184.4212, 217.8129
184.9033, 217.3672
185.3854, 216.4341
185.8676, 215.4591
186.3497, 214.8038
186.8318, 214.4746
187.3139, 214.2467
187.7960, 214.1066
188.2781, 213.9788
188.7603, 213.7528
189.2424, 213.3549
189.7245, 212.9693
190.2066, 212.8868
190.6887, 213.2124
191.1708, 213.4561
191.6530, 213.4325
192.1351, 213.2576
192.6172, 213.0011
193.0993, 212.6803
193.5814, 212.3196
194.0635, 211.9527
194.5457, 211.5173
195.0278, 211.2136
195.5099, 211.1554
195.9920, 211.1921
196.4741, 211.1826
196.9562, 211.0638
197.4384, 210.8642
197.9205, 210.6601
198.4026, 210.4204
198.8847, 210.2245
199.3668, 210.1479
199.8489, 210.0957
200.3311, 209.9626
200.8132, 209.6946
201.2953, 209.3143
201.7774, 208.9134
202.2595, 208.4777
202.7416, 208.0341
203.2238, 207.6125
203.7059, 207.1770
204.1880, 206.6375
204.6701, 205.9341
205.1522, 205.1433
205.6344, 204.6241
206.1165, 204.4502
206.5986, 204.4182
207.0807, 204.6899
207.5628, 205.0649
208.0449, 205.1404
208.5271, 204.6660
209.0092, 203.7966
209.4913, 203.1762
209.9734, 202.8651
210.4555, 202.6642
210.9376, 202.6783
211.4198, 202.7779
211.9019, 202.5707
212.3840, 201.7946
212.8661, 200.6309
213.3482, 199.6043
213.8303, 198.6523
214.3125, 197.9151
214.7946, 197.6041
215.2767, 197.6418
215.7588, 197.6220
216.2409, 197.3856
216.7230, 196.9561
217.2052, 196.3876
217.6873, 195.5736
218.1694, 194.8574
218.6515, 194.5859
219.1336, 194.7397
219.6157, 194.8329
220.0979, 194.6891
220.5800, 194.3781
221.0621, 193.9297
221.5442, 193.2964
222.0263, 192.7323
222.5084, 192.5977
222.9906, 192.9514
223.4727, 193.0767
223.9548, 192.5120
224.4369, 191.7660
224.9190, 191.1447
225.4011, 190.6949
225.8833, 190.4650
226.3654, 190.5744
226.8475, 191.1017
227.3296, 191.5847
227.8117, 191.9285
228.2938, 192.1950
228.7760, 192.4839
229.2581, 192.8007
229.7402, 192.9345
230.2223, 192.4548
230.7044, 190.9891
231.1866, 190.1143
231.6687, 190.6307
232.1508, 191.2989
232.6329, 191.3109
233.1150, 190.5397
233.5971, 189.4715
234.0793, 188.8007
234.5614, 188.7502
235.0435, 188.5551
235.5256, 187.8786
236.0077, 187.3008
236.4898, 187.3385
236.9720, 188.0007
237.4541, 188.7649
237.9362, 188.8697
238.4183, 187.8763
238.9004, 187.2887
239.3825, 187.5531
239.8647, 187.8188
240.3468, 187.3795
240.8289, 186.2271
241.3110, 185.0353
241.7931, 184.6981
242.2752, 185.7608
242.7574, 186.0825
243.2395, 185.0417
243.7216, 183.8407
244.2037, 183.3397
244.6858, 183.5857
245.1679, 183.9399
245.6501, 183.6620
246.1322, 182.5087
246.6143, 181.6916
247.0964, 181.5103
247.5785, 181.3996
248.0606, 180.9179
248.5428, 180.0663
249.0249, 179.2270
249.5070, 178.8163
249.9891, 178.9337
250.4712, 178.6804
250.9533, 177.7226
251.4355, 176.6785
251.9176, 176.0283
252.3997, 175.7605
252.8818, 175.4308
253.3639, 174.5818
253.8460, 173.2206
254.3282, 172.4174
254.8103, 172.4935
255.2924, 172.8544
255.7745, 173.2388
256.2566, 173.5996
256.7387, 173.7488
257.2209, 173.5306
257.7030, 172.9498
258.1851, 172.2878
258.6672, 171.2933
259.1493, 170.4218
259.6314, 170.0766
260.1136, 170.2093
260.5957, 170.3568
261.0778, 170.2262
261.5599, 169.9163
262.0420, 169.7676
262.5241, 169.9553
263.0063, 170.0993
263.4884, 169.8669
263.9705, 168.5385
264.4526, 169.3658
264.9347, 169.7721
265.4168, 169.7798
265.8990, 168.1955
266.3811, 168.6670
266.8632, 168.3146
267.3453, 167.9285
267.8275, 168.6893
268.3096, 167.3366
268.7917, 168.0792
269.2738, 167.9854
269.7559, 168.2744
270.2380, 167.7345
270.7202, 167.4506
271.2023, 167.9959
271.6844, 168.0820
272.1665, 167.4467
272.6486, 167.7601
273.1307, 166.3784
273.6129, 166.4841
274.0950, 167.2316
274.5771, 166.6379
275.0592, 166.9664
275.5413, 166.9437
276.0234, 165.3249
276.5056, 166.0962
276.9877, 166.2669
277.4698, 166.1791
277.9519, 165.8697
278.4340, 165.5282
278.9161, 165.2661
279.3983, 165.0656
279.8804, 164.8192
280.3625, 164.4219
280.8446, 164.1464
281.3267, 164.2582
281.8088, 164.6060
282.2910, 164.8318
282.7731, 164.6719
283.2552, 164.2443
283.7373, 163.9376
284.2194, 163.7806
284.7015, 163.6984
285.1837, 163.7359
285.6658, 163.7990
286.1479, 163.7402
286.6300, 163.4755
287.1121, 163.0658
287.5942, 162.6133
288.0764, 162.0397
288.5585, 161.6167
289.0406, 161.6415
289.5227, 161.7761
290.0048, 161.6002
290.4869, 160.8981
290.9691, 159.4919
291.4512, 160.2517
291.9333, 160.5903
292.4154, 160.5305
292.8975, 158.8786
293.3796, 159.2825
293.8618, 158.8625
294.3439, 158.4088
294.8260, 159.1020
295.3081, 157.6817
295.7902, 158.3568
296.2723, 158.1954
296.7545, 157.6987
297.2366, 157.7308
297.7187, 157.6256
298.2008, 157.3487
298.6829, 157.0337
299.1650, 156.8181
299.6472, 156.7097
300.1293, 156.6127
300.6114, 156.5595
301.0935, 156.4811
301.5756, 156.3518
302.0577, 156.1707
302.5399, 155.9417
303.0220, 155.6493
303.5041, 155.2991
303.9862, 154.9997
304.4683, 154.7959
304.9504, 154.5964
305.4326, 154.3502
305.9147, 154.0871
306.3968, 153.8580
306.8789, 153.6855
307.3610, 153.5764
307.8431, 153.5708
308.3253, 153.7366
308.8074, 153.9075
309.2895, 154.0821
309.7716, 154.2205
310.2537, 154.2648
310.7358, 154.1840
311.2180, 154.0234
311.7001, 153.8932
312.1822, 153.8427
312.6643, 153.7024
313.1464, 153.4031
313.6285, 153.0330
314.1107, 152.6071
314.5928, 152.1387
315.0749, 151.7472
315.5570, 151.6491
316.0392, 151.9487
316.5213, 152.1584
317.0034, 152.2540
317.4855, 152.2289
317.9676, 151.9482
318.4497, 151.4704
318.9319, 151.1053
319.4140, 151.2784
319.8961, 152.0793
320.3782, 152.5304
320.8603, 152.3511
321.3424, 152.0547
321.8246, 151.7059
322.3067, 151.3903
322.7888, 151.2817
323.2709, 151.6055
323.7530, 152.2629
324.2351, 152.4858
324.7173, 151.9516
325.1994, 151.4110
325.6815, 151.1162
326.1636, 150.9551
326.6457, 150.7171
327.1278, 150.2571
327.6100, 149.7771
328.0921, 149.8527
328.5742, 150.8774
329.0563, 151.6020
329.5384, 151.6576
330.0205, 151.3723
330.5027, 150.9492
330.9848, 150.4482
331.4669, 149.9751
331.9490, 149.7250
332.4311, 149.7826
332.9132, 149.6906
333.3954, 149.1276
333.8775, 148.5842
334.3596, 148.4184
334.8417, 148.6036
335.3238, 148.7642
335.8059, 148.3734
336.2881, 147.4137
336.7702, 147.1085
337.2523, 148.0300
337.7344, 149.0301
338.2165, 149.6743
338.6986, 149.9882
339.1808, 150.0800
339.6629, 149.9431
340.1450, 149.6512
340.6271, 149.4780
341.1092, 149.4452
341.5913, 149.4970
342.0735, 149.7040
342.5556, 149.9405
343.0377, 150.0298
343.5198, 149.8761
344.0019, 149.6415
344.4840, 149.6275
344.9662, 149.9126
345.4483, 150.0733
345.9304, 149.8813
346.4125, 149.5701
346.8946, 149.2449
347.3767, 148.9235
347.8589, 148.7087
348.3410, 148.8050
348.8231, 149.1992
349.3052, 149.3186
349.7873, 148.8352
350.2694, 148.3379
350.7516, 148.2764
351.2337, 148.5683
351.7158, 148.8429
352.1979, 148.8498
352.6800, 148.6667
353.1621, 148.5523
353.6443, 148.5337
354.1264, 148.5311
354.6085, 148.4297
355.0906, 148.3235
355.5727, 148.3877
356.0548, 148.7615
356.5370, 149.2335
357.0191, 149.5313
357.5012, 149.6460
357.9833, 149.6780
358.4654, 149.6234
358.9475, 149.5290
359.4297, 149.4741
359.9118, 149.4901
360.3939, 149.4292
360.8760, 149.1030
361.3581, 148.5766
361.8402, 148.1875
362.3224, 148.0573
362.8045, 148.0213
363.2866, 147.8818
363.7687, 147.6535
364.2508, 147.5056
364.7329, 147.5408
365.2151, 147.6861
365.6972, 147.8054
366.1793, 147.8750
366.6614, 148.0034
367.1436, 148.3648
367.6257, 148.8542
368.1078, 149.1450
368.5899, 149.1772
369.0720, 149.0131
369.5541, 148.5020
370.0363, 147.7344
370.5184, 147.3566
371.0005, 147.7808
371.4826, 148.6928
371.9647, 149.3973
372.4468, 149.9289
372.9290, 150.2076
373.4111, 149.9911
373.8932, 149.5366
374.3753, 149.3130
374.8574, 149.4463
375.3395, 149.7994
375.8217, 150.2397
376.3038, 150.7786
376.7859, 151.2882
377.2680, 151.9575
377.7501, 152.4546
378.2322, 152.3093
378.7144, 151.5889
379.1965, 150.9989
379.6786, 151.1046
380.1607, 151.8357
380.6428, 152.3113
381.1249, 152.2514
381.6071, 152.2798
382.0892, 152.7365
382.5713, 153.4246
383.0534, 153.9534
383.5355, 154.1518
384.0176, 154.1509
384.4998, 154.2285
384.9819, 154.3579
385.4640, 154.6307
385.9461, 155.1197
386.4282, 155.7098
386.9103, 156.3363
387.3925, 156.9697
387.8746, 157.5745
388.3567, 158.1127
388.8388, 158.5923
389.3209, 158.9349
389.8030, 159.0373
390.2852, 159.1339
390.7673, 159.3019
391.2494, 159.5335
391.7315, 159.8008
392.2136, 160.0883
392.6957, 160.3928
393.1779, 160.7034
393.6600, 161.1055
394.1421, 161.3815
394.6242, 161.3414
395.1063, 161.2731
395.5884, 161.4822
396.0706, 162.0236
396.5527, 162.6527
397.0348, 163.0513
397.5169, 163.1702
397.9990, 163.2431
398.4811, 163.1501
398.9633, 163.1192
399.4454, 163.2292
399.9275, 163.4785
400.4096, 163.8415
400.8917, 164.3048
401.3738, 164.8653
401.8560, 165.5330
402.3381, 166.4151
402.8202, 167.1966
403.3023, 167.6444
403.7844, 168.0261
404.2665, 168.6401
404.7487, 169.5838
405.2308, 170.6563
405.7129, 171.5794
406.1950, 172.3439
406.6771, 173.2558
407.1592, 174.4722
407.6414, 175.7451
408.1235, 176.7815
408.6056, 177.6572
409.0877, 178.7938
409.5698, 180.6170
410.0519, 182.8380
410.5341, 184.7575
411.0162, 186.2738
411.4983, 187.7873
411.9804, 189.5186
412.4625, 191.4095
412.9446, 193.3716
413.4268, 195.4425
413.9089, 197.4917
414.3910, 199.2868
414.8731, 200.9177
415.3553, 202.8532
415.8374, 205.3203
416.3195, 208.0251
416.8016, 210.5786
417.2837, 212.9942
417.7658, 215.2808
418.2480, 217.3707
418.7301, 219.3680
419.2122, 221.3225
419.6943, 223.2559
420.1764, 225.4329
420.6585, 228.1753
421.1407, 231.3911
421.6228, 233.9731
422.1049, 235.3600
422.5870, 236.8214
423.0691, 238.9589
423.5512, 241.4978
424.0334, 243.9746
424.5155, 246.1971
424.9976, 248.2143
425.4797, 250.0929
425.9618, 251.7914
426.4439, 253.4098
426.9261, 254.8515
427.4082, 256.2997
427.8903, 257.9893
428.3724, 259.8566
428.8545, 261.5661
429.3366, 262.8346
429.8188, 263.6888
430.3009, 264.5328
430.7830, 265.4648
431.2651, 266.2797
431.7472, 266.7985
432.2293, 267.2386
432.7115, 267.9478
433.1936, 269.0389
433.6757, 270.1307
434.1578, 270.5412
434.6399, 270.0733
435.1220, 269.6112
435.6042, 269.0296
436.0863, 268.6247
436.5684, 268.7325
437.0505, 269.1843
437.5326, 269.4579
438.0147, 269.2610
438.4969, 268.5920
438.9790, 267.3292
439.4611, 265.1742
439.9432, 263.1839
440.4253, 261.9876
440.9074, 261.0860
441.3896, 259.9859
441.8717, 258.5721
442.3538, 257.0221
442.8359, 255.5411
443.3180, 254.0804
443.8001, 252.3987
444.2823, 250.3854
444.7644, 248.2431
445.2465, 246.0826
445.7286, 243.9165
446.2107, 241.9366
446.6928, 240.2952
447.1750, 238.7917
447.6571, 237.3100
448.1392, 235.8282
448.6213, 234.1774
449.1034, 232.2595
449.5855, 230.1297
450.0677, 227.9130
450.5498, 225.5093
451.0319, 223.2430
451.5140, 221.2749
451.9961, 219.4568
452.4782, 217.7154
452.9604, 216.0035
453.4425, 214.0761
453.9246, 211.6092
454.4067, 208.5058
454.8888, 205.9194
455.3709, 204.0717
455.8531, 202.4129
456.3352, 200.8547
456.8173, 199.3317
457.2994, 197.7465
457.7815, 196.0596
458.2636, 194.3159
458.7458, 192.5809
459.2279, 190.7578
459.7100, 189.1553
460.1921, 187.8000
460.6742, 186.6182
461.1563, 185.7260
461.6385, 185.0011
462.1206, 184.0922
462.6027, 182.6861
463.0848, 180.8780
463.5669, 179.1248
464.0491, 177.3235
464.5312, 175.8160
465.0133, 175.0280
465.4954, 174.4176
465.9775, 173.3622
466.4597, 171.6829
466.9418, 169.9743
467.4239, 168.8358
467.9060, 168.1855
468.3881, 167.4499
468.8702, 166.5088
469.3524, 165.5397
469.8345, 164.7486
470.3166, 164.0614
470.7987, 163.2597
471.2808, 162.1268
471.7629, 160.9861
472.2451, 160.1604
472.7272, 159.6033
473.2093, 159.0741
473.6914, 158.4764
474.1735, 157.8512
474.6556, 157.2903
475.1378, 156.8424
475.6199, 156.2890
476.1020, 155.4269
476.5841, 154.5596
477.0662, 153.9853
477.5483, 153.6992
478.0305, 153.4875
478.5126, 153.2178
478.9947, 152.8690
479.4768, 152.2729
479.9589, 151.0384
480.4410, 150.0222
480.9232, 149.4600
481.4053, 149.1011
481.8874, 148.7183
482.3695, 148.2422
482.8516, 147.7052
483.3337, 147.1236
483.8159, 146.4802
484.2980, 145.9406
484.7801, 145.5513
485.2622, 145.2230
485.7443, 144.9850
486.2264, 144.7733
486.7086, 144.4829
487.1907, 144.0584
487.6728, 143.5802
488.1549, 143.1758
488.6370, 142.8537
489.1191, 142.4657
489.6013, 141.9679
490.0834, 141.4006
490.5655, 140.7974
491.0476, 140.1606
491.5297, 139.5104
492.0118, 138.7363
492.4940, 138.0191
492.9761, 137.6572
493.4582, 137.6366
493.9403, 137.6157
494.4224, 137.4070
494.9045, 137.0994
495.3867, 136.9629
495.8688, 137.1783
496.3509, 137.0985
496.8330, 136.2119
497.3151, 135.1614
497.7972, 134.7030
498.2794, 134.8761
498.7615, 135.1641
499.2436, 135.1350
499.7257, 134.8049
500.2078, 134.4701
500.6899, 134.1461
501.1721, 133.7966
501.6542, 133.3561
502.1363, 132.9171
502.6184, 132.5807
503.1005, 132.3712
503.5826, 132.2318
504.0648, 132.0796
504.5469, 131.9017
505.0290, 131.8637
505.5111, 132.1894
505.9932, 132.3727
506.4753, 132.1503
506.9575, 131.6851
507.4396, 131.2301
507.9217, 130.8744
508.4038, 130.5693
508.8859, 130.2643
509.3680, 129.9588
509.8502, 129.6580
510.3323, 129.3564
510.8144, 129.0676
511.2965, 128.7929
511.7786, 128.5359
512.2607, 128.3221
512.7429, 128.1938
513.2250, 128.0825
513.7071, 127.9048
514.1892, 127.6840
514.6713, 127.5533
515.1534, 127.6057
515.6356, 127.6759
516.1177, 127.4058
516.5998, 126.4854
517.0819, 125.9273
517.5640, 126.0437
518.0461, 126.2969
518.5283, 126.3229
519.0104, 126.1466
519.4925, 125.9785
519.9746, 125.9606
520.4567, 126.0453
520.9388, 126.0589
521.4210, 125.9908
521.9031, 125.8637
522.3852, 125.6625
522.8673, 125.4232
523.3494, 125.1163
523.8315, 124.7753
524.3137, 124.5401
524.7958, 124.5806
525.2779, 124.8044
525.7600, 124.8992
526.2421, 124.8622
526.7242, 124.6992
527.2064, 124.2397
527.6885, 123.7508
528.1706, 123.6632
528.6527, 124.1196
529.1348, 124.3436
529.6169, 123.5665
530.0991, 122.4345
530.5812, 122.1048
531.0633, 122.7084
531.5454, 123.4703
532.0275, 123.8584
532.5096, 123.9150
532.9918, 123.9202
533.4739, 123.8235
533.9560, 123.7492
534.4381, 123.7561
534.9202, 123.7801
535.4023, 123.7516
535.8845, 123.6583
536.3666, 123.5191
536.8487, 123.3242
537.3308, 123.0736
537.8129, 123.0797
538.2951, 123.6693
538.7772, 124.0876
539.2593, 124.1258
539.7415, 123.9365
540.2236, 123.5943
540.7057, 123.1338
541.1878, 122.8064
541.6699, 122.9118
542.1520, 123.3982
542.6342, 123.9674
543.1163, 124.7197
543.5984, 125.2559
544.0805, 125.1508
544.5626, 124.6782
545.0447, 124.3352
545.5269, 124.2323
546.0090, 124.1782
546.4911, 124.0537
546.9732, 123.9014
547.4553, 123.7969
547.9374, 123.7557
548.4196, 123.7843
548.9017, 123.9164
549.3838, 124.1582
549.8659, 124.2217
550.3480, 123.9239
550.8301, 123.6993
551.3123, 123.6997
551.7944, 123.8254
552.2765, 123.9511
552.7586, 124.0426
553.2407, 124.1543
553.7228, 124.4115
554.2050, 124.8417
554.6871, 124.8825
555.1692, 124.2158
555.6513, 123.6030
556.1334, 123.3742
556.6155, 123.3309
557.0977, 123.2132
557.5798, 122.9457
558.0619, 122.6512
558.5440, 122.4165
559.0261, 122.2438
559.5082, 122.1599
559.9904, 122.1915
560.4725, 122.2085
560.9546, 122.0810
561.4367, 121.8508
561.9188, 121.7334
562.4009, 121.8849
562.8831, 121.9563
563.3652, 121.6694
563.8473, 121.2862
564.3294, 121.2733
564.8115, 121.6836
565.2936, 122.0208
565.7758, 121.7443
566.2579, 120.8501
566.7400, 120.2804
567.2221, 120.2352
567.7042, 120.2984
568.1863, 120.4435
568.6685, 120.6404
569.1506, 120.8898
569.6327, 121.1796
570.1148, 121.4366
570.5969, 121.5903
571.0790, 121.6474
571.5612, 121.6670
572.0433, 121.6850
572.5254, 121.5534
573.0075, 121.0277
573.4896, 120.3794
573.9717, 120.0330
574.4539, 120.0998
574.9360, 120.1893
575.4181, 120.1445
575.9002, 120.0007
576.3823, 119.7301
576.8644, 119.3583
577.3466, 119.1459
577.8287, 119.3086
578.3108, 119.7579
578.7929, 120.0559
579.2750, 119.9629
579.7571, 120.0342
580.2393, 120.5837
580.7214, 121.0950
581.2035, 121.0375
581.6856, 120.4941
582.1677, 120.0442
582.6498, 120.1792
583.1320, 120.6791
583.6141, 120.7166
584.0962, 120.0988
584.5783, 119.6808
585.0604, 119.8034
585.5425, 120.1421
586.0247, 120.5204
586.5068, 120.9077
586.9889, 121.0800
587.4710, 120.7388
587.9531, 120.2660
588.4352, 120.1389
588.9174, 120.3120
589.3995, 120.4771
589.8816, 120.5170
590.3637, 120.4340
590.8458, 120.2010
591.3279, 119.6776
591.8101, 119.4237
592.2922, 119.5921
592.7743, 119.8718
593.2564, 120.2302
593.7385, 120.5518
594.2206, 120.5508
594.7028, 120.0907
595.1849, 119.6160
595.6670, 120.0715
596.1491, 121.6821
596.6312, 122.4988
597.1133, 121.8406
597.5955, 121.0929
598.0776, 120.9993
598.5597, 121.3520
599.0418, 121.7919
599.5239, 122.3085
600.0060, 122.7038
600.4882, 122.6921
600.9703, 122.4528
601.4524, 122.4538
601.9345, 122.7917
602.4166, 123.2046
602.8987, 123.4602
603.3809, 123.5735
603.8630, 123.7581
604.3451, 124.1276
604.8272, 124.4117
605.3093, 124.4415
605.7914, 124.4353
606.2736, 124.6033
606.7557, 124.9720
607.2378, 125.4530
607.7199, 126.0071
608.2020, 126.5981
608.6841, 127.0366
609.1663, 127.2938
609.6484, 127.4804
610.1305, 127.5350
610.6126, 127.6032
611.0947, 127.8022
611.5768, 128.1377
612.0590, 128.5635
612.5411, 129.2042
613.0232, 129.8315
613.5053, 130.1311
613.9874, 130.1627
614.4695, 130.2057
614.9517, 130.3523
615.4338, 130.6701
615.9159, 131.2945
616.3980, 132.3320
616.8801, 133.3145
617.3622, 134.6286
617.8444, 135.4955
618.3265, 135.2029
618.8086, 134.3661
619.2907, 133.9792
619.7728, 134.3980
620.2549, 135.0916
620.7371, 135.3946
621.2192, 135.3209
621.7013, 135.2313
622.1834, 135.1170
622.6655, 135.0438
623.1476, 135.0470
623.6298, 135.1192
624.1119, 135.3316
624.5940, 135.8730
625.0761, 135.9926
625.5582, 134.9622
626.0403, 133.5313
626.5225, 132.5862
627.0046, 132.2063
627.4867, 132.2065
627.9688, 132.5290
628.4509, 132.9922
628.9330, 132.9607
629.4152, 131.8422
629.8973, 131.3214
630.3794, 131.7625
630.8615, 132.4388
631.3436, 132.9700
631.8257, 133.3967
632.3079, 133.9117
632.7900, 134.6064
633.2721, 135.4436
633.7542, 136.3688
634.2363, 137.3862
634.7184, 138.5337
635.2006, 139.8425
635.6827, 141.2072
636.1648, 142.4870
636.6469, 143.7219
637.1291, 145.1555
637.6112, 147.3951
638.0933, 149.0884
638.5754, 149.6874
639.0576, 149.5567
639.5397, 149.1652
640.0218, 148.5374
640.5039, 147.2700
640.9860, 144.9101
641.4681, 141.7292
641.9503, 139.0123
642.4324, 136.8166
642.9145, 134.9445
643.3966, 133.5254
643.8787, 132.2866
644.3608, 131.0556
644.8430, 129.8419
645.3251, 128.7404
645.8072, 127.7531
646.2893, 126.9223
646.7714, 126.3333
647.2535, 125.9417
647.7357, 125.6206
648.2178, 125.3385
648.6999, 125.0791
649.1820, 124.8239
649.6641, 124.5704
650.1462, 124.3749
650.6284, 124.4443
651.1105, 124.3114
651.5926, 123.6134
652.0747, 122.8330
652.5568, 122.5455
653.0389, 122.7654
653.5211, 122.9524
654.0032, 122.6427
654.4853, 121.9882
654.9674, 121.3644
655.4495, 120.7592
655.9316, 120.3367
656.4138, 120.2281
656.8959, 120.2333
657.3780, 120.0821
657.8601, 119.7810
658.3422, 119.5209
658.8243, 119.3119
659.3065, 119.1669
659.7886, 119.1004
660.2707, 119.1001
660.7528, 119.1307
661.2349, 119.1881
661.7170, 119.3314
662.1992, 119.6447
662.6813, 120.1199
663.1634, 120.5739
663.6455, 121.0926
664.1276, 121.4259
664.6097, 121.2494
665.0919, 121.0097
665.5740, 121.1835
666.0561, 121.7776
666.5382, 122.2146
667.0203, 122.0494
667.5024, 121.7372
667.9846, 121.7582
668.4667, 122.0562
668.9488, 122.4382
669.4309, 122.8453
669.9130, 123.1610
670.3951, 123.2165
670.8773, 122.9769
671.3594, 122.7668
671.8415, 122.7933
672.3236, 122.6003
672.8057, 121.8213
673.2878, 120.9335
673.7700, 120.4925
674.2521, 120.5586
674.7342, 120.6579
675.2163, 120.3964
675.6984, 119.9378
676.1805, 119.6306
676.6627, 119.4679
677.1448, 119.2672
677.6269, 118.9600
678.1090, 118.5817
678.5911, 118.1393
679.0732, 117.5786
679.5554, 117.3037
680.0375, 117.5964
680.5196, 117.8414
681.0017, 117.7626
681.4838, 117.5258
681.9659, 117.3438
682.4481, 117.2669
682.9302, 117.2135
683.4123, 117.1103
683.8944, 116.9674
684.3765, 116.7863
684.8586, 116.5349
685.3408, 116.4767
685.8229, 116.8933
686.3050, 117.3267
686.7871, 117.0348
687.2692, 116.0456
687.7513, 115.4501
688.2335, 115.7549
688.7156, 116.1262
689.1977, 116.1861
689.6798, 115.9941
690.1619, 115.5720
690.6440, 114.9752
691.1262, 114.4662
691.6083, 114.3068
692.0904, 114.4690
692.5725, 114.8168
693.0546, 115.5047
693.5367, 115.9162
694.0189, 115.6735
694.5010, 115.2617
694.9831, 115.1863
695.4652, 115.3903
695.9473, 115.3719
696.4294, 114.7398
696.9116, 114.0840
697.3937, 113.7417
697.8758, 113.6808
698.3579, 113.9634
698.8400, 114.5487
699.3221, 115.0045
699.8043, 114.8722
700.2864, 114.2568
700.7685, 113.9852
701.2506, 114.2654
701.7327, 114.4446
702.2148, 114.2873
702.6970, 114.0786
703.1791, 114.0039
703.6612, 114.0399
704.1433, 114.0599
704.6254, 114.0286
705.1075, 113.9506
705.5897, 113.8182
706.0718, 113.6448
706.5539, 113.3943
707.0360, 113.0794
707.5181, 112.9713
708.0002, 113.3499
708.4824, 114.0592
708.9645, 114.2796
709.4466, 113.6028
709.9287, 113.2214
710.4108, 113.5581
710.8929, 113.9081
711.3751, 113.7895
711.8572, 113.3715
712.3393, 113.1573
712.8214, 113.4221
713.3035, 113.6852
713.7856, 113.4692
714.2678, 112.9620
714.7499, 112.5165
715.2320, 112.1910
715.7141, 111.9849
716.1962, 111.8772
716.6783, 111.9308
717.1605, 112.3911
717.6426, 113.8355
718.1247, 114.5422
718.6068, 113.8463
719.0889, 113.1441
719.5710, 113.0693
720.0532, 113.4160
720.5353, 113.8400
721.0174, 114.2681
721.4995, 114.4983
721.9816, 114.1745
722.4637, 113.6049
722.9459, 113.4190
723.4280, 113.6373
723.9101, 113.9567
724.3922, 114.2515
724.8743, 114.4888
725.3564, 114.5983
725.8386, 114.5378
726.3207, 114.5004
726.8028, 114.3448
727.2849, 114.3750
727.7670, 114.8512
728.2491, 115.4789
728.7313, 115.9326
729.2134, 116.1479
729.6955, 116.1951
730.1776, 116.0050
730.6597, 115.7426
731.1418, 115.6386
731.6240, 115.6952
732.1061, 115.9350
732.5882, 116.3857
733.0703, 116.8674
733.5524, 117.1248
734.0345, 117.1358
734.5167, 117.4716
734.9988, 118.7082
735.4809, 119.5132
735.9631, 119.5029
736.4452, 119.1256
736.9273, 118.7413
737.4094, 118.3564
737.8915, 117.7541
738.3737, 116.6630
738.8558, 115.5288
739.3379, 114.8196
739.8200, 114.4718
740.3021, 114.3841
740.7842, 114.5312
741.2664, 114.5027
741.7485, 113.9049
742.2306, 112.9109
742.7127, 112.3959
743.1948, 112.7912
743.6769, 112.8787
744.1591, 112.2319
744.6412, 111.6357
745.1233, 111.6242
745.6054, 111.9475
746.0875, 112.0258
746.5696, 111.6175
747.0518, 111.2051
747.5339, 111.1778
748.0160, 111.3842
748.4981, 111.6201
748.9802, 111.8503
749.4623, 112.0083
749.9445, 112.0640
750.4266, 112.0144
750.9087, 111.8224
751.3908, 111.4096
751.8729, 111.2360
752.3550, 111.5184
752.8372, 111.7549
753.3193, 111.6797
753.8014, 111.5428
754.2835, 111.6457
754.7656, 112.0182
755.2477, 112.3870
755.7299, 112.7697
756.2120, 112.9682
756.6941, 112.5905
757.1762, 111.9028
757.6583, 111.6048
758.1404, 111.8672
758.6226, 112.2159
759.1047, 112.1731
759.5868, 111.8049
760.0689, 111.5498
760.5510, 111.4116
761.0331, 111.3874
761.5153, 111.5598
761.9974, 111.7660
762.4795, 111.9344
762.9616, 112.0435
763.4437, 112.0170
763.9258, 111.7578
764.4080, 111.5066
764.8901, 111.3915
765.3722, 111.3380
765.8543, 111.2726
766.3364, 111.1854
766.8185, 111.0570
767.3007, 110.8686
767.7828, 110.7362
768.2649, 110.9345
768.7470, 111.4813
769.2291, 111.7996
769.7112, 111.7979
770.1934, 111.7540
770.6755, 111.8508
771.1576, 111.9484
771.6397, 111.7350
772.1218, 111.1226
772.6039, 110.8332
773.0861, 111.2752
773.5682, 111.7528
774.0503, 111.9510
774.5324, 111.9321
775.0145, 111.7107
775.4966, 111.3517
775.9788, 111.1415
776.4609, 111.3960
776.9430, 111.8925
777.4251, 112.1260
777.9072, 112.0983
778.3893, 111.8261
778.8715, 111.2268
779.3536, 110.7090
779.8357, 110.6746
780.3178, 111.0403
780.7999, 111.2355
781.2820, 111.1414
781.7642, 111.0511
782.2463, 110.8910
782.7284, 110.8192
783.2105, 111.0344
783.6926, 111.3928
784.1747, 111.5611
784.6569, 111.3987
785.1390, 111.2623
785.6211, 111.6272
786.1032, 112.1791
786.5853, 112.2306
787.0674, 111.8143
787.5496, 111.4254
788.0317, 111.2641
788.5138, 111.3497
788.9959, 111.7813
789.4780, 112.6147
789.9601, 112.9733
790.4423, 112.4696
790.9244, 112.1149
791.4065, 112.2782
791.8886, 112.5761
792.3707, 112.6672
792.8528, 112.5931
793.3350, 112.6817
793.8171, 113.1905
794.2992, 113.6892
794.7813, 113.8829
795.2634, 113.9211
795.7455, 113.8907
796.2277, 113.8903
796.7098, 114.2699
797.1919, 115.2860
797.6740, 116.4965
798.1561, 116.9744
798.6382, 116.6859
799.1204, 116.5065
799.6025, 116.3859
800.0846, 116.6857
800.5667, 117.8128
801.0488, 119.3090
801.5309, 120.3171
802.0131, 120.7798
802.4952, 121.2695
802.9773, 121.8241
803.4594, 122.4320
803.9415, 122.9804
804.4236, 123.6418
804.9058, 124.7977
805.3879, 126.3628
805.8700, 127.6155
806.3521, 127.9701
806.8342, 127.8984
807.3163, 128.0710
807.7985, 128.4407
808.2806, 128.8423
808.7627, 129.2491
809.2448, 129.5548
809.7269, 129.6933
810.2090, 129.6627
810.6912, 129.4254
811.1733, 128.7733
811.6554, 128.4097
812.1375, 128.5136
812.6196, 128.7085
813.1017, 128.8775
813.5839, 129.0409
814.0660, 129.1597
814.5481, 129.2192
815.0302, 129.5692
815.5123, 130.6184
815.9944, 131.7655
816.4766, 132.4689
816.9587, 132.9429
817.4408, 133.5658
817.9229, 134.4287
818.4050, 135.4646
818.8871, 136.6835
819.3693, 137.9144
819.8514, 138.6913
820.3335, 138.9988
820.8156, 139.1627
821.2977, 139.2157
821.7798, 139.1838
822.2620, 139.0971
822.7441, 138.9308
823.2262, 138.5925
823.7083, 137.9138
824.1904, 137.4515
824.6725, 137.4207
825.1547, 137.3851
825.6368, 137.1545
826.1189, 136.7978
826.6010, 136.3929
827.0831, 135.9643
827.5652, 135.5648
828.0474, 135.1895
828.5295, 134.8912
829.0116, 134.8101
829.4937, 134.8487
829.9758, 134.6611
830.4579, 134.2108
830.9401, 133.9967
831.4222, 134.4581
831.9043, 135.2929
832.3864, 135.5383
832.8685, 135.0357
833.3506, 134.7314
833.8328, 134.7330
834.3149, 134.8759
834.7971, 135.2280
835.2792, 135.5912
835.7613, 135.5445
836.2434, 134.9671
836.7255, 134.6619
837.2076, 134.8899
837.6898, 135.2672
838.1719, 135.9462
838.6540, 136.4759
839.1361, 136.1608
839.6182, 135.0515
840.1003, 133.9926
840.5825, 133.5704
841.0646, 133.3858
841.5467, 132.8793
842.0288, 132.1534
842.5109, 131.6158
842.9930, 131.3026
843.4752, 130.7639
843.9573, 129.6897
844.4394, 128.3787
844.9215, 127.4947
845.4036, 127.1139
845.8857, 126.7778
846.3679, 126.6029
846.8500, 126.2593
847.3321, 125.3953
847.8142, 124.4701
848.2963, 124.0413
848.7784, 124.0851
849.2606, 123.9589
849.7427, 123.4826
850.2248, 122.8936
850.7069, 122.2045
851.1890, 121.5063
851.6711, 120.8476
852.1533, 120.2648
852.6354, 119.8363
853.1175, 119.6125
853.5996, 119.4623
854.0817, 119.2962
854.5638, 119.0720
855.0460, 118.6052
855.5281, 117.9217
856.0102, 117.3748
856.4923, 117.1037
856.9744, 117.0312
857.4565, 117.0920
857.9387, 117.2761
858.4208, 117.2916
858.9029, 117.0665
859.3850, 116.8437
859.8671, 116.6616
860.3492, 116.5029
860.8314, 116.3798
861.3135, 116.2684
861.7956, 116.0930
862.2777, 115.7968
862.7598, 115.5544
863.2419, 115.4881
863.7241, 115.4165
864.2062, 115.1610
864.6883, 114.8353
865.1704, 114.6722
865.6525, 114.7126
866.1346, 114.7167
866.6168, 114.4418
867.0989, 114.0611
867.5810, 113.8487
868.0631, 113.7659
868.5452, 113.7075
869.0273, 113.6463
869.5095, 113.5118
869.9916, 113.2400
870.4737, 112.8976
870.9558, 112.6648
871.4379, 112.5625
871.9200, 112.4395
872.4022, 112.2657
872.8843, 112.1266
873.3664, 112.0810
873.8485, 112.0729
874.3306, 111.9983
874.8127, 111.8495
875.2949, 111.8133
875.7770, 112.0101
876.2591, 112.1802
876.7412, 112.3248
877.2233, 112.3512
877.7054, 112.0750
878.1876, 111.6165
878.6697, 111.3014
879.1518, 111.2651
879.6339, 111.3765
880.1160, 111.8048
880.5981, 112.1475
881.0803, 111.5923
881.5624, 110.4224
882.0445, 109.6918
882.5266, 109.7498
883.0087, 110.1035
883.4908, 110.2784
883.9730, 110.2980
884.4551, 110.2293
884.9372, 110.0659
885.4193, 109.9201
885.9014, 109.8001
886.3835, 109.7562
886.8657, 109.8789
887.3478, 110.0586
887.8299, 109.9816
888.3120, 109.5177
888.7941, 109.1464
889.2762, 108.8250
889.7584, 108.6475
890.2405, 108.7578
890.7226, 108.9479
891.2047, 109.0259
891.6868, 108.9782
892.1689, 108.8537
892.6511, 108.5232
893.1332, 108.3136
893.6153, 108.5694
894.0974, 108.8994
894.5795, 108.8304
895.0616, 108.4540
895.5438, 108.1408
896.0259, 108.0421
896.5080, 108.0444
896.9901, 108.0973
897.4722, 108.1350
897.9543, 107.9440
898.4365, 107.5735
898.9186, 107.2990
899.4007, 107.1981
899.8828, 107.2448
900.3649, 107.4353
900.8470, 107.7237
901.3292, 107.9740
901.8113, 108.2196
902.2934, 108.2060
902.7755, 107.7038
903.2576, 107.4313
903.7397, 107.9797
904.2219, 108.7887
904.7040, 108.8731
905.1861, 108.0943
905.6682, 107.6479
906.1503, 107.8390
906.6324, 107.9866
907.1146, 107.8998
907.5967, 107.7301
908.0788, 107.4971
908.5609, 107.2975
909.0430, 107.3501
909.5251, 107.7378
910.0073, 108.3165
910.4894, 109.3307
910.9715, 110.2219
911.4536, 110.1706
911.9357, 109.6259
912.4178, 109.6027
912.9000, 110.3110
913.3821, 111.1285
913.8642, 111.5771
914.3463, 111.7750
914.8284, 111.9260
915.3105, 112.0212
915.7927, 112.0325
916.2748, 111.9544
916.7569, 111.7147
917.2390, 111.2492
917.7211, 110.7289
918.2032, 110.4367
918.6854, 110.3821
919.1675, 110.3883
919.6496, 110.5314
920.1317, 110.4777
920.6138, 109.9834
921.0959, 109.5024
921.5781, 109.4889
922.0602, 109.8287
922.5423, 109.9561
923.0244, 109.6907
923.5065, 109.5588
923.9886, 109.6266
924.4708, 109.7796
924.9529, 110.0757
925.4350, 110.3663
925.9171, 110.3702
926.3992, 110.1072
926.8813, 110.1099
927.3635, 110.9136
927.8456, 111.6486
928.3277, 111.6571
928.8098, 111.4500
929.2919, 111.6525
929.7740, 112.1621
930.2562, 112.4690
930.7383, 112.3658
931.2204, 112.3078
931.7025, 112.8980
932.1846, 113.7566
932.6667, 114.1390
933.1489, 114.1509
933.6310, 114.2681
934.1132, 114.5769
934.5953, 114.6813
935.0774, 114.2572
935.5595, 113.5462
936.0416, 113.1002
936.5237, 112.9195
937.0059, 112.8444
937.4880, 112.8919
937.9701, 112.8967
938.4522, 112.7731
938.9343, 112.6297
939.4164, 112.5987
939.8986, 112.6734
940.3807, 112.7437
940.8628, 112.9386
941.3449, 112.8691
941.8270, 112.2586
942.3091, 111.6598
942.7913, 111.4150
943.2734, 111.3471
943.7555, 111.1709
944.2376, 110.8565
944.7197, 110.5710
945.2018, 110.3095
945.6840, 110.1223
946.1661, 110.0912
946.6482, 110.0926
947.1303, 109.9289
947.6124, 109.7010
948.0945, 109.7574
948.5767, 110.2763
949.0588, 110.7720
949.5409, 110.8730
950.0230, 110.8701
950.5051, 111.1311
950.9872, 111.4831
951.4694, 111.5021
951.9515, 111.1697
952.4336, 110.9278
952.9157, 111.1000
953.3978, 111.4573
953.8799, 111.6936
954.3621, 111.8466
954.8442, 111.9682
955.3263, 112.0911
955.8084, 112.3656
956.2905, 112.8518
956.7726, 113.5376
957.2548, 114.5107
957.7369, 115.5970
958.2190, 115.8987
958.7011, 115.3585
959.1832, 115.2694
959.6653, 115.8783
960.1475, 116.6475
960.6296, 117.2226
961.1117, 117.8691
961.5938, 119.1364
962.0759, 121.1258
962.5580, 122.7642
963.0402, 123.9246
963.5223, 124.9716
964.0044, 125.7631
964.4865, 126.7207
964.9686, 128.0455
965.4507, 129.7988
965.9329, 132.1870
966.4150, 135.4325
966.8971, 138.6962
967.3792, 141.8191
967.8613, 145.0693
968.3434, 148.5970
968.8256, 152.2733
969.3077, 155.9077
969.7898, 159.5595
970.2719, 163.4755
970.7540, 167.6323
971.2361, 172.2973
971.7183, 177.8645
972.2004, 183.7410
972.6825, 189.3313
973.1646, 194.9350
973.6467, 201.0747
974.1288, 207.8485
974.6110, 215.1092
975.0931, 222.7908
975.5752, 230.8786
976.0573, 239.4357
976.5394, 248.3930
977.0215, 257.8362
977.5037, 267.6136
977.9858, 277.2880
978.4679, 286.7474
978.9500, 295.9122
979.4321, 304.8493
979.9142, 313.2697
980.3964, 320.5228
980.8785, 326.6895
981.3606, 332.2946
981.8427, 337.2793
982.3248, 340.3099
982.8069, 340.6602
983.2891, 339.0020
983.7712, 336.2489
984.2533, 332.3602
984.7354, 327.0387
985.2175, 320.2857
985.6996, 311.8317
986.1818, 301.3969
986.6639, 290.4855
987.1460, 280.2242
987.6281, 270.1229
988.1102, 258.9070
988.5923, 246.1396
989.0745, 235.1203
989.5566, 226.0247
990.0387, 218.1140
990.5208, 211.4692
991.0029, 205.5229
991.4850, 199.8640
991.9672, 194.5628
992.4493, 189.8635
992.9314, 185.9964
993.4135, 182.2198
993.8956, 178.5716
994.3777, 174.9861
994.8599, 171.5236
995.3420, 168.0371
995.8241, 164.2908
996.3062, 160.3634
996.7883, 156.5946
997.2704, 152.9177
997.7526, 149.5742
998.2347, 146.7041
998.7168, 144.0330
999.1989, 141.2945
999.6810, 138.7355
1000.163, 136.7182
1000.645, 135.2201
1001.127, 133.9120
1001.609, 132.6817
1002.092, 131.6314
1002.574, 130.8328
1003.056, 130.1984
1003.538, 129.7144
1004.020, 129.3320
1004.502, 128.9781
1004.984, 128.6439
1005.466, 128.3931
1005.949, 128.3369
1006.431, 128.2669
1006.913, 127.9667
1007.395, 127.6148
1007.877, 127.3727
1008.359, 127.2736
1008.841, 127.2768
1009.323, 127.3935
1009.805, 127.8979
1010.288, 129.5717
1010.770, 131.0582
1011.252, 130.1576
1011.734, 128.1304
1012.216, 127.2728
1012.698, 127.6101
1013.180, 128.1174
1013.662, 128.3621
1014.145, 128.4839
1014.627, 128.6482
1015.109, 128.7668
1015.591, 128.6567
1016.073, 128.3475
1016.555, 127.8590
1017.037, 127.2407
1017.519, 126.7510
1018.001, 126.5216
1018.484, 126.4614
1018.966, 126.4934
1019.448, 126.5791
1019.930, 126.6442
1020.412, 126.6599
1020.894, 126.2492
1021.376, 125.3593
1021.858, 124.7006
1022.341, 124.7003
1022.823, 125.0217
1023.305, 125.1852
1023.787, 125.1826
1024.269, 124.8491
1024.751, 124.1541
1025.233, 123.7509
1025.715, 123.8011
1026.198, 123.9232
1026.680, 123.8796
1027.162, 123.7519
1027.644, 123.6783
1028.126, 123.6578
1028.608, 123.8180
1029.090, 124.2656
1029.572, 124.3087
1030.054, 123.6078
1030.536, 123.0536
1031.019, 123.2881
1031.501, 124.0288
1031.983, 124.7147
1032.465, 125.3649
1032.947, 125.7407
1033.429, 125.6613
1033.911, 125.7985
1034.393, 126.4175
1034.876, 127.0661
1035.358, 127.3598
1035.840, 127.5005
1036.322, 128.0084
1036.804, 129.0255
1037.286, 129.7310
1037.768, 130.0047
1038.250, 130.1844
1038.733, 130.3808
1039.215, 130.4527
1039.697, 130.2130
1040.179, 129.7990
1040.661, 129.5864
1041.143, 129.6882
1041.625, 129.5717
1042.107, 129.1069
1042.589, 128.6017
1043.072, 128.1740
1043.554, 127.6711
1044.036, 126.9778
1044.518, 126.1359
1045.000, 125.2239
1045.482, 124.2008
1045.964, 123.2935
1046.446, 122.4189
1046.928, 121.7992
1047.411, 121.5872
1047.893, 121.5604
1048.375, 121.7019
1048.857, 121.8692
1049.339, 121.7053
1049.821, 121.0825
1050.303, 120.6191
1050.785, 120.4327
1051.268, 120.3856
1051.750, 120.6199
1052.232, 120.8077
1052.714, 120.4970
1053.196, 119.9884
1053.678, 120.1085
1054.160, 121.1474
1054.642, 121.5985
1055.125, 120.4921
1055.607, 119.5497
1056.089, 119.6369
1056.571, 119.9337
1057.053, 119.7536
1057.535, 119.2487
1058.017, 118.8441
1058.499, 118.6239
1058.981, 118.4130
1059.464, 118.0203
1059.946, 117.8088
1060.428, 118.1426
1060.910, 118.5243
1061.392, 118.4944
1061.874, 118.1981
1062.356, 117.9728
1062.838, 117.8834
1063.320, 117.8901
1063.803, 118.2761
1064.285, 118.3706
1064.767, 117.5157
1065.249, 116.5693
1065.731, 116.2222
1066.213, 116.3653
1066.695, 116.7879
1067.177, 117.4329
1067.660, 117.7911
1068.142, 117.3977
1068.624, 117.0129
1069.106, 117.0548
1069.588, 117.1946
1070.070, 117.2361
1070.552, 117.1353
1071.034, 116.7786
1071.516, 116.1778
1071.999, 115.7655
1072.481, 115.8366
1072.963, 115.9816
1073.445, 116.1100
1073.927, 116.1395
1074.409, 115.9329
1074.891, 115.6118
1075.373, 115.3302
1075.855, 115.1343
1076.338, 115.1135
1076.820, 115.4289
1077.302, 115.7192
1077.784, 115.7314
1078.266, 115.7289
1078.748, 115.9712
1079.230, 116.3095
1079.712, 116.5209
1080.195, 116.5725
1080.677, 116.5039
1081.159, 116.1982
1081.641, 116.0603
1082.123, 116.4167
1082.605, 116.8700
1083.087, 117.2587
1083.569, 117.4843
1084.052, 117.3521
1084.534, 116.9352
1085.016, 116.6106
1085.498, 116.4533
1085.980, 116.5524
1086.462, 117.2839
1086.944, 117.9110
1087.426, 117.8122
1087.908, 117.4366
1088.391, 117.2967
1088.873, 117.4104
1089.355, 117.6291
1089.837, 117.9822
1090.319, 118.1230
1090.801, 117.6856
1091.283, 117.2714
1091.765, 117.3778
1092.248, 117.5460
1092.730, 117.1023
1093.212, 116.3373
1093.694, 116.1859
1094.176, 116.9552
1094.658, 117.5734
1095.140, 117.4570
1095.622, 117.3667
1096.104, 117.7766
1096.587, 118.2409
1097.069, 118.2945
1097.551, 118.1188
1098.033, 118.1713
1098.515, 118.5410
1098.997, 118.8096
1099.479, 118.7246
1099.961, 118.7010
1100.443, 118.7770
1100.926, 119.0665
1101.408, 119.7808
1101.890, 120.6969
1102.372, 121.4682
1102.854, 122.0585
1103.336, 122.6395
1103.818, 123.2833
1104.300, 123.8631
1104.783, 124.0397
1105.265, 124.4960
1105.747, 125.8807
1106.229, 127.5765
1106.711, 128.7124
1107.193, 129.3573
1107.675, 130.4065
1108.157, 132.2424
1108.640, 133.9698
1109.122, 135.4328
1109.604, 136.8219
1110.086, 138.4302
1110.568, 139.8280
1111.050, 140.4838
1111.532, 140.5675
1112.014, 140.7946
1112.496, 141.3703
1112.979, 141.6134
1113.461, 141.4531
1113.943, 141.0175
1114.425, 140.2342
1114.907, 139.2927
1115.389, 138.2780
1115.871, 137.2173
1116.353, 136.1763
1116.835, 135.1720
1117.318, 134.0873
1117.800, 132.9102
1118.282, 131.6654
1118.764, 130.2176
1119.246, 128.9143
1119.728, 127.9626
1120.210, 127.2570
1120.692, 126.7030
1121.175, 126.2908
1121.657, 125.5782
1122.139, 124.3610
1122.621, 123.3966
1123.103, 122.7921
1123.585, 122.3308
1124.067, 121.9288
1124.549, 121.6294
1125.031, 121.5039
1125.514, 121.5123
1125.996, 121.4675
1126.478, 121.3539
1126.960, 121.3071
1127.442, 121.4112
1127.924, 121.1293
1128.406, 120.1698
1128.888, 119.3199
1129.370, 119.2423
1129.853, 119.6176
1130.335, 119.7020
1130.817, 119.4968
1131.299, 119.4103
1131.781, 119.4562
1132.263, 119.2434
1132.745, 118.6651
1133.227, 118.3537
1133.710, 118.7046
1134.192, 119.2677
1134.674, 119.3326
1135.156, 119.0984
1135.638, 119.5378
1136.120, 120.5168
1136.602, 120.9423
1137.084, 120.7315
1137.567, 120.4293
1138.049, 120.2549
1138.531, 120.2100
1139.013, 120.3621
1139.495, 120.4799
1139.977, 119.8658
1140.459, 118.9150
1140.941, 118.8470
1141.423, 119.5168
1141.906, 120.1285
1142.388, 120.4732
1142.870, 120.7374
1143.352, 121.0460
1143.834, 121.2825
1144.316, 121.2801
1144.798, 121.1420
1145.280, 120.9480
1145.762, 120.7745
1146.245, 120.8198
1146.727, 121.0289
1147.209, 121.1270
1147.691, 121.0081
1148.173, 120.8259
1148.655, 120.6852
1149.137, 120.5446
1149.619, 120.3969
1150.102, 120.2081
1150.584, 119.8659
1151.066, 119.4792
1151.548, 119.2598
1152.030, 119.2433
1152.512, 119.3277
1152.994, 119.5321
1153.476, 119.6954
1153.958, 119.7467
1154.441, 119.7196
1154.923, 119.5827
1155.405, 119.4178
1155.887, 119.2953
1156.369, 119.2319
1156.851, 119.2711
1157.333, 119.4785
1157.815, 119.5598
1158.297, 119.4386
1158.780, 119.2012
1159.262, 118.5921
1159.744, 118.1588
1160.226, 118.4667
1160.708, 119.1506
1161.190, 119.4750
1161.672, 119.3907
1162.154, 119.5686
1162.637, 120.2572
1163.119, 120.7456
1163.601, 120.9893
1164.083, 121.0053
1164.565, 120.6901
1165.047, 120.3095
1165.529, 120.1506
1166.011, 120.1544
1166.494, 120.0714
1166.976, 119.8610
1167.458, 119.7900
1167.940, 119.9072
1168.422, 119.8803
1168.904, 119.5762
1169.386, 119.4261
1169.868, 119.7500
1170.350, 120.2575
1170.833, 120.4594
1171.315, 120.4136
1171.797, 120.4624
1172.279, 120.5920
1172.761, 120.6316
1173.243, 120.5688
1173.725, 120.4419
1174.207, 120.2783
1174.689, 120.4866
1175.172, 121.5710
1175.654, 122.8411
1176.136, 122.8278
1176.618, 122.2220
1177.100, 122.7465
1177.582, 124.0498
1178.064, 124.9031
1178.546, 125.1562
1179.029, 125.4148
1179.511, 125.9605
1179.993, 126.8703
1180.475, 128.5484
1180.957, 130.2808
1181.439, 131.3086
1181.921, 132.0270
1182.403, 132.9655
1182.885, 134.0187
1183.368, 134.7995
1183.850, 135.2534
1184.332, 135.8026
1184.814, 137.0126
1185.296, 137.6267
1185.778, 136.4229
1186.260, 135.2823
1186.742, 135.6392
1187.225, 136.4221
1187.707, 136.5140
1188.189, 135.9552
1188.671, 135.1903
1189.153, 134.2495
1189.635, 133.1477
1190.117, 131.4427
1190.599, 130.2591
1191.082, 130.2977
1191.564, 130.1060
1192.046, 128.6494
1192.528, 126.8431
1193.010, 125.9998
1193.492, 125.9776
1193.974, 125.5458
1194.456, 124.6188
1194.938, 123.7261
1195.421, 122.8846
1195.903, 122.0935
1196.385, 121.3264
1196.867, 120.8276
1197.349, 120.8000
1197.831, 121.0593
1198.313, 121.3507
1198.795, 121.6196
1199.277, 121.5196
1199.760, 121.1375
1200.242, 120.8974
1200.724, 120.8617
1201.206, 121.0815
1201.688, 121.5433
1202.170, 121.8482
1202.652, 121.5738
1203.134, 121.2244
1203.617, 121.5023
1204.099, 122.0553
1204.581, 122.4563
1205.063, 122.7067
1205.545, 122.8258
1206.027, 122.8614
1206.509, 122.8799
1206.991, 122.8795
1207.474, 123.1998
1207.956, 124.3544
1208.438, 125.4357
1208.920, 126.0135
1209.402, 126.2932
1209.884, 126.1455
1210.366, 125.9779
1210.848, 126.5554
1211.330, 127.8038
1211.813, 128.4870
1212.295, 127.9615
1212.777, 127.9161
1213.259, 128.7463
1213.741, 129.4848
1214.223, 129.8961
1214.705, 130.1205
1215.187, 130.1342
1215.669, 130.1835
1216.152, 130.7808
1216.634, 131.8749
1217.116, 132.5034
1217.598, 132.6004
1218.080, 133.1244
1218.562, 134.2049
1219.044, 134.8472
1219.526, 134.6936
1220.009, 134.4579
1220.491, 134.7067
1220.973, 135.2882
1221.455, 136.1425
1221.937, 137.0344
1222.419, 137.2099
1222.901, 136.9502
1223.383, 137.0045
1223.865, 137.4183
1224.348, 137.9134
1224.830, 138.3856
1225.312, 138.8413
1225.794, 139.3069
1226.276, 139.7160
1226.758, 139.9879
1227.240, 140.2135
1227.722, 140.5143
1228.204, 140.7865
1228.687, 140.7610
1229.169, 140.5839
1229.651, 140.8083
1230.133, 141.6241
1230.615, 142.3094
1231.097, 143.0034
1231.579, 143.1553
1232.061, 142.1761
1232.544, 141.2436
1233.026, 140.9034
1233.508, 140.8533
1233.990, 140.7879
1234.472, 140.7128
1234.954, 140.6478
1235.436, 140.5895
1235.918, 140.5645
1236.401, 140.5714
1236.883, 140.6341
1237.365, 140.7592
1237.847, 140.8804
1238.329, 140.9587
1238.811, 141.0917
1239.293, 141.4595
1239.775, 141.8346
1240.257, 141.6055
1240.740, 141.0781
1241.222, 140.9934
1241.704, 141.2422
1242.186, 141.4556
1242.668, 141.5326
1243.150, 141.3621
1243.632, 140.8504
1244.114, 140.7236
1244.596, 141.9662
1245.079, 143.1122
1245.561, 142.9420
1246.043, 142.5662
1246.525, 143.0219
1247.007, 143.8549
1247.489, 144.3410
1247.971, 144.4491
1248.453, 144.4499
1248.936, 144.2082
1249.418, 144.2760
1249.900, 144.9098
1250.382, 145.3544
1250.864, 145.3943
1251.346, 145.3606
1251.828, 145.4469
1252.310, 145.5173
1252.792, 145.3239
1253.275, 145.0347
1253.757, 145.5015
1254.239, 146.6274
1254.721, 147.1826
1255.203, 147.1487
1255.685, 146.7406
1256.167, 146.0907
1256.649, 145.7769
1257.131, 146.1004
1257.614, 146.6121
1258.096, 147.0018
1258.578, 147.1763
1259.060, 146.8843
1259.542, 146.4340
1260.024, 146.1008
1260.506, 145.9548
1260.988, 146.2065
1261.471, 146.7172
1261.953, 146.8274
1262.435, 146.2215
1262.917, 145.8902
1263.399, 146.2564
1263.881, 146.6754
1264.363, 146.9941
1264.845, 147.3071
1265.328, 147.7122
1265.810, 148.0882
1266.292, 148.3448
1266.774, 148.4342
1267.256, 148.0454
1267.738, 147.0679
1268.220, 146.9129
1268.702, 147.6158
1269.184, 147.8968
1269.667, 147.5458
1270.149, 147.5753
1270.631, 148.4458
1271.113, 149.4035
1271.595, 149.7310
1272.077, 149.7525
1272.559, 149.7840
1273.041, 149.9525
1273.523, 150.5321
1274.006, 151.3492
1274.488, 152.1575
1274.970, 152.8875
1275.452, 153.4565
1275.934, 153.8429
1276.416, 154.3744
1276.898, 155.5038
1277.380, 156.2903
1277.863, 156.1060
1278.345, 155.9869
1278.827, 156.7697
1279.309, 157.4591
1279.791, 157.0914
1280.273, 156.1692
1280.755, 155.8579
1281.237, 156.1453
1281.719, 155.8054
1282.202, 154.7306
1282.684, 154.7106
1283.166, 155.9136
1283.648, 156.9666
1284.130, 157.4359
1284.612, 157.8032
1285.094, 158.4115
1285.576, 159.0141
1286.059, 159.2578
1286.541, 159.3345
1287.023, 159.5095
1287.505, 159.8140
##END=



