##NAMES=Nuffieldite
##RRUFFID=R100113
##IDEAL CHEMISTRY=Pb^2+^_2_Cu^1+^_1.4_(Pb^2+^_0.4_Bi^3+^_0.4_Sb^3+^_0.2_)Bi^3+^_2_S^2-^_7_
##LOCALITY=British Columbia Molybdenum mine, Kitsault, British Columbia, Canada
##OWNER=RRUFF
##SOURCE=Robert Woodside
##DESCRIPTION=Steel-gray striated prismatic crystals in quartz
##STATUS=The identification of this mineral is confirmed by single-crystal X-ray diffraction and chemical analysis.
##URL=rruff.info/R100113
##MEASURED CHEMISTRY=Pb_2.00_(Cu_1.22_Sb_0.06_)_Σ=1.28_(Bi_0.71_Pb_0.23_Sb_0.06_)_Σ=1.00_Bi_2.00_S_7_ (Light phases are galena)
84.23633, 60.13768
84.71844, 59.52466
85.20056, 59.31420
85.68268, 60.71420
86.16479, 62.22638
86.64691, 60.55630
87.12903, 55.29604
87.61115, 49.62414
88.09327, 47.36395
88.57539, 48.16748
89.05750, 49.62429
89.53962, 51.03846
90.02174, 52.27842
90.50385, 52.64427
90.98597, 52.17295
91.46809, 50.68610
91.95020, 46.43684
92.43232, 38.70411
92.91444, 33.62395
93.39655, 37.39238
93.87867, 51.56921
94.36079, 59.50956
94.84290, 58.02579
95.32503, 49.35398
95.80714, 42.20615
96.28926, 36.13263
96.77138, 32.30647
97.25349, 32.11840
97.73561, 37.57972
98.21773, 41.95207
98.69984, 44.27526
99.18196, 44.55188
99.66408, 43.48687
100.1462, 39.51392
100.6283, 35.34837
101.1104, 33.67704
101.5925, 37.66381
102.0747, 40.43073
102.5568, 39.68944
103.0389, 33.64326
103.5210, 31.41786
104.0031, 37.19153
104.4853, 45.57740
104.9674, 50.05180
105.4495, 46.37966
105.9316, 41.93837
106.4137, 38.91936
106.8958, 38.07656
107.3780, 37.25598
107.8601, 36.16970
108.3422, 34.82802
108.8243, 33.24558
109.3064, 30.56090
109.7885, 28.21485
110.2707, 27.10201
110.7528, 27.97091
111.2349, 29.07316
111.7170, 29.66550
112.1991, 29.91681
112.6812, 30.34165
113.1634, 32.43597
113.6455, 34.24987
114.1276, 33.81841
114.6097, 28.40094
115.0918, 23.08986
115.5739, 22.46785
116.0561, 25.80993
116.5382, 28.75912
117.0203, 27.78855
117.5024, 24.70463
117.9845, 22.12809
118.4667, 20.59218
118.9488, 20.23092
119.4309, 22.12971
119.9130, 26.24408
120.3951, 29.61942
120.8772, 28.56005
121.3594, 24.47502
121.8415, 21.28824
122.3236, 20.82615
122.8057, 22.34913
123.2878, 24.62531
123.7699, 27.86809
124.2521, 30.71501
124.7342, 30.88427
125.2163, 28.73963
125.6984, 27.46622
126.1805, 29.67990
126.6626, 34.58905
127.1448, 36.42822
127.6269, 34.34164
128.1090, 30.85552
128.5911, 30.79899
129.0732, 34.57617
129.5553, 37.26607
130.0375, 35.02962
130.5196, 27.37353
131.0017, 23.47411
131.4838, 24.54746
131.9659, 28.90305
132.4480, 32.72962
132.9302, 36.31744
133.4123, 38.60738
133.8944, 38.45058
134.3765, 34.75782
134.8586, 32.82981
135.3408, 33.69004
135.8229, 36.58228
136.3050, 37.78516
136.7871, 35.64091
137.2692, 34.27900
137.7513, 37.08490
138.2335, 48.13181
138.7156, 54.92722
139.1977, 54.23532
139.6798, 46.81340
140.1619, 43.55241
140.6440, 47.18231
141.1262, 52.62902
141.6083, 56.05536
142.0904, 55.09215
142.5725, 55.18936
143.0546, 57.63678
143.5367, 62.66867
144.0189, 66.35352
144.5010, 67.57778
144.9831, 67.98895
145.4652, 68.92053
145.9473, 72.10393
146.4294, 74.10481
146.9116, 72.80460
147.3937, 67.15022
147.8758, 66.13764
148.3579, 75.83559
148.8400, 88.65541
149.3221, 97.12814
149.8043, 96.74979
150.2864, 94.74648
150.7685, 93.00198
151.2506, 91.67787
151.7327, 90.55242
152.2149, 89.71169
152.6970, 89.02102
153.1791, 88.28963
153.6612, 86.73221
154.1433, 85.70179
154.6254, 85.81987
155.1076, 87.25034
155.5897, 89.42440
156.0718, 92.81616
156.5539, 96.74614
157.0360, 100.1573
157.5181, 102.9859
158.0003, 104.9288
158.4824, 105.0330
158.9645, 101.9368
159.4466, 100.9354
159.9287, 107.9299
160.4108, 119.2465
160.8930, 127.3034
161.3751, 125.2223
161.8572, 119.9719
162.3393, 117.4361
162.8214, 119.3920
163.3035, 121.1933
163.7857, 120.6412
164.2678, 118.6464
164.7499, 116.5240
165.2320, 114.9076
165.7141, 113.5757
166.1963, 111.9776
166.6784, 109.2729
167.1605, 107.8201
167.6426, 111.3512
168.1247, 118.5419
168.6068, 124.3397
169.0890, 126.5032
169.5711, 125.2087
170.0532, 119.7329
170.5353, 107.3359
171.0174, 95.08642
171.4995, 92.68012
171.9817, 98.73960
172.4638, 106.1119
172.9459, 110.7637
173.4280, 112.9672
173.9101, 112.8495
174.3922, 109.8612
174.8744, 105.4149
175.3565, 100.8068
175.8386, 96.13115
176.3207, 93.13450
176.8028, 94.47473
177.2849, 98.70065
177.7671, 101.4551
178.2492, 101.4058
178.7313, 99.67970
179.2134, 97.77567
179.6955, 95.67797
180.1777, 94.70311
180.6598, 97.20435
181.1419, 102.2854
181.6240, 105.2081
182.1061, 104.2479
182.5882, 100.8544
183.0704, 98.58669
183.5525, 97.49064
184.0346, 96.77617
184.5167, 95.68942
184.9988, 94.29391
185.4809, 93.23830
185.9631, 92.60737
186.4452, 92.44416
186.9273, 93.24886
187.4094, 95.21133
187.8915, 96.92046
188.3736, 97.10975
188.8558, 95.78429
189.3379, 93.40536
189.8200, 89.13855
190.3021, 84.00860
190.7842, 83.08112
191.2663, 87.05099
191.7485, 92.27571
192.2306, 95.25358
192.7127, 95.86372
193.1948, 96.10885
193.6769, 96.55849
194.1591, 97.06039
194.6412, 96.22633
195.1233, 93.54833
195.6054, 91.02524
196.0875, 90.89560
196.5696, 93.49184
197.0518, 96.29484
197.5339, 99.27284
198.0160, 102.1544
198.4981, 101.6992
198.9802, 96.83762
199.4623, 91.14143
199.9445, 88.33120
200.4266, 88.93826
200.9087, 89.96690
201.3908, 90.98727
201.8729, 91.94341
202.3550, 92.09576
202.8372, 91.29131
203.3193, 89.99001
203.8014, 88.52785
204.2835, 86.75678
204.7656, 85.38675
205.2477, 84.74353
205.7299, 84.78166
206.2120, 84.14671
206.6941, 82.38420
207.1762, 80.68616
207.6583, 80.28152
208.1405, 81.42380
208.6226, 83.15116
209.1047, 85.62775
209.5868, 88.82063
210.0689, 90.54166
210.5510, 90.26096
211.0332, 89.33745
211.5153, 89.13843
211.9974, 90.02812
212.4795, 90.65975
212.9616, 90.62169
213.4437, 89.93594
213.9259, 89.97807
214.4080, 91.54600
214.8901, 92.78960
215.3722, 91.47146
215.8543, 85.55584
216.3364, 81.87388
216.8186, 82.06681
217.3007, 86.02446
217.7828, 89.83813
218.2649, 93.92360
218.7470, 97.41547
219.2291, 99.45890
219.7113, 99.51180
220.1934, 99.36951
220.6755, 99.46844
221.1576, 99.76513
221.6397, 99.06310
222.1218, 97.06438
222.6040, 94.45753
223.0861, 91.49631
223.5682, 87.13025
224.0503, 84.76387
224.5324, 85.76601
225.0146, 89.78447
225.4967, 91.66573
225.9788, 90.03196
226.4609, 87.87741
226.9430, 87.60863
227.4251, 90.54464
227.9073, 92.67307
228.3894, 93.37843
228.8715, 92.78084
229.3536, 91.78673
229.8357, 89.36319
230.3178, 87.78954
230.8000, 89.07832
231.2821, 95.77883
231.7642, 100.0027
232.2463, 100.4417
232.7284, 97.51366
233.2105, 94.07024
233.6927, 89.32121
234.1748, 85.03538
234.6569, 82.33306
235.1390, 81.66861
235.6211, 81.63643
236.1032, 82.22384
236.5854, 83.37160
237.0675, 84.91782
237.5496, 87.63272
238.0317, 89.74247
238.5138, 89.90236
238.9960, 86.42696
239.4781, 84.86307
239.9602, 86.79854
240.4423, 90.86645
240.9244, 91.47036
241.4065, 86.30611
241.8887, 81.02987
242.3708, 78.75320
242.8529, 80.96438
243.3350, 82.60671
243.8171, 83.43800
244.2992, 83.62194
244.7814, 83.53362
245.2635, 82.75602
245.7456, 82.37761
246.2277, 83.15984
246.7098, 86.21223
247.1919, 87.39146
247.6741, 85.49331
248.1562, 82.24972
248.6383, 81.96964
249.1204, 86.11471
249.6025, 90.55183
250.0846, 93.68027
250.5668, 95.27314
251.0489, 96.12651
251.5310, 96.06850
252.0131, 95.38609
252.4952, 94.34023
252.9774, 92.12004
253.4595, 91.24799
253.9416, 93.17934
254.4237, 98.75761
254.9058, 102.3612
255.3879, 103.4691
255.8701, 103.0953
256.3522, 102.7669
256.8343, 102.6132
257.3164, 102.1253
257.7985, 100.6328
258.2806, 97.76331
258.7628, 97.99447
259.2449, 102.7075
259.7270, 108.6554
260.2091, 111.4709
260.6912, 110.1345
261.1733, 109.0903
261.6555, 109.9456
262.1376, 112.6640
262.6197, 112.9162
263.1018, 109.6486
263.5839, 105.8438
264.0660, 104.8788
264.5482, 107.4593
265.0303, 109.8509
265.5124, 110.8753
265.9945, 110.8411
266.4766, 112.8946
266.9587, 117.5196
267.4409, 122.9297
267.9230, 127.9991
268.4051, 133.0073
268.8872, 135.5975
269.3693, 134.6917
269.8514, 131.1746
270.3336, 128.8203
270.8157, 127.6458
271.2978, 127.6389
271.7799, 129.0007
272.2620, 131.7781
272.7441, 135.1629
273.2263, 139.5632
273.7084, 144.0758
274.1905, 145.9582
274.6726, 144.9464
275.1548, 143.0133
275.6369, 140.8978
276.1190, 138.6272
276.6011, 137.9403
277.0832, 139.5504
277.5653, 141.9111
278.0475, 141.8101
278.5296, 139.1292
279.0117, 135.9193
279.4938, 133.2984
279.9759, 131.1568
280.4580, 128.3348
280.9402, 124.4947
281.4223, 120.7377
281.9044, 119.1667
282.3865, 119.6742
282.8686, 119.8554
283.3507, 118.5840
283.8329, 116.0738
284.3150, 113.1612
284.7971, 109.8223
285.2792, 106.1849
285.7613, 101.7266
286.2434, 96.75840
286.7256, 93.15430
287.2077, 92.38018
287.6898, 93.30885
288.1719, 93.23775
288.6540, 92.12791
289.1361, 90.69253
289.6183, 89.80566
290.1004, 89.18194
290.5825, 87.86268
291.0646, 85.30900
291.5467, 82.10233
292.0288, 78.91528
292.5110, 75.78432
292.9931, 73.35825
293.4752, 73.12164
293.9573, 73.90760
294.4394, 73.19502
294.9215, 69.96655
295.4037, 65.76557
295.8858, 61.19000
296.3679, 56.76860
296.8500, 54.71224
297.3321, 59.82824
297.8142, 67.16740
298.2964, 68.86209
298.7785, 61.95549
299.2606, 54.22953
299.7427, 53.56045
300.2248, 57.73151
300.7069, 61.01043
301.1891, 59.81452
301.6712, 56.50532
302.1533, 52.63614
302.6354, 48.06963
303.1176, 45.23270
303.5997, 47.29999
304.0818, 52.05009
304.5639, 55.75307
305.0460, 56.35862
305.5281, 55.72532
306.0103, 54.99213
306.4924, 54.21910
306.9745, 53.34279
307.4566, 52.28233
307.9387, 51.11718
308.4208, 49.93940
308.9030, 48.89695
309.3851, 47.72795
309.8672, 46.00871
310.3493, 43.86574
310.8314, 42.35334
311.3135, 42.27959
311.7957, 42.74839
312.2778, 43.11535
312.7599, 43.29531
313.2420, 43.27305
313.7241, 42.89980
314.2062, 42.29265
314.6884, 41.82181
315.1705, 41.11475
315.6526, 40.92524
316.1347, 41.95551
316.6168, 45.87242
317.0989, 47.72599
317.5811, 44.31780
318.0632, 38.66206
318.5453, 36.10343
319.0274, 40.51770
319.5095, 45.20650
319.9916, 48.35824
320.4738, 49.84237
320.9559, 50.02438
321.4380, 48.47497
321.9201, 45.82676
322.4022, 42.64376
322.8843, 36.48407
323.3665, 32.84376
323.8486, 34.07880
324.3307, 40.34597
324.8128, 42.94767
325.2949, 39.30915
325.7770, 34.33772
326.2592, 31.67061
326.7413, 32.11187
327.2234, 33.36570
327.7055, 35.79975
328.1876, 38.91483
328.6697, 40.39869
329.1519, 39.44043
329.6340, 38.24586
330.1161, 38.00752
330.5982, 38.99530
331.0803, 40.14381
331.5625, 41.82143
332.0446, 43.30238
332.5267, 42.85311
333.0088, 39.92922
333.4909, 37.11604
333.9731, 35.61964
334.4552, 35.47939
334.9373, 34.35048
335.4194, 31.70648
335.9015, 29.48325
336.3836, 30.92396
336.8658, 36.17600
337.3479, 40.24170
337.8300, 41.38558
338.3121, 40.28976
338.7942, 39.43476
339.2763, 38.85393
339.7585, 38.28749
340.2406, 37.23889
340.7227, 35.90981
341.2048, 35.26754
341.6869, 35.49792
342.1690, 36.53504
342.6512, 39.09508
343.1333, 42.90382
343.6154, 45.50263
344.0975, 44.37505
344.5796, 41.11203
345.0617, 39.08841
345.5439, 38.89840
346.0260, 38.94679
346.5081, 36.83458
346.9902, 33.54663
347.4723, 31.55908
347.9544, 32.77130
348.4366, 35.48755
348.9187, 38.34575
349.4008, 41.29374
349.8829, 43.39142
350.3650, 43.89679
350.8471, 43.17009
351.3293, 41.64890
351.8114, 38.17955
352.2935, 35.20638
352.7756, 34.70813
353.2577, 36.22396
353.7398, 37.58181
354.2220, 37.60828
354.7041, 37.16759
355.1862, 36.84811
355.6683, 36.62058
356.1504, 36.80061
356.6325, 38.29229
357.1147, 40.21472
357.5968, 40.85494
358.0789, 38.97351
358.5610, 36.38810
359.0431, 33.29733
359.5252, 29.14114
360.0074, 27.14559
360.4895, 29.55796
360.9716, 33.55966
361.4537, 36.27597
361.9359, 36.46589
362.4180, 36.49583
362.9001, 36.61927
363.3822, 36.83851
363.8643, 37.27621
364.3464, 38.49122
364.8286, 39.39390
365.3107, 39.32912
365.7928, 37.96859
366.2749, 36.21269
366.7570, 33.70228
367.2391, 30.94909
367.7213, 29.15733
368.2034, 28.34619
368.6855, 28.50050
369.1676, 29.93970
369.6497, 32.88737
370.1318, 35.03418
370.6140, 36.29412
371.0961, 36.87643
371.5782, 37.18599
372.0603, 37.30614
372.5424, 36.18902
373.0245, 33.02462
373.5067, 28.49101
373.9888, 25.49777
374.4709, 24.09562
374.9530, 23.48807
375.4351, 22.87978
375.9172, 22.43936
376.3994, 23.03627
376.8815, 24.85449
377.3636, 27.66399
377.8457, 32.15205
378.3278, 37.77715
378.8099, 41.65626
379.2921, 40.94364
379.7742, 37.82958
380.2563, 35.91161
380.7384, 35.47695
381.2205, 35.45092
381.7026, 35.28932
382.1848, 34.83031
382.6669, 33.77273
383.1490, 30.56246
383.6311, 27.86723
384.1132, 28.23610
384.5953, 31.23673
385.0775, 34.32511
385.5596, 36.70331
386.0417, 38.25614
386.5238, 38.91704
387.0059, 38.77721
387.4880, 37.53533
387.9702, 33.59487
388.4523, 28.58640
388.9344, 25.62833
389.4165, 27.97181
389.8987, 30.40002
390.3808, 30.90071
390.8629, 29.04528
391.3450, 26.79487
391.8271, 22.37003
392.3092, 18.64726
392.7914, 18.28484
393.2735, 24.78210
393.7556, 30.40553
394.2377, 34.45558
394.7198, 37.01558
395.2019, 38.45393
395.6841, 38.12907
396.1662, 37.55023
396.6483, 37.71399
397.1304, 39.64183
397.6125, 39.10984
398.0946, 35.00901
398.5768, 29.57498
399.0589, 26.65495
399.5410, 26.69052
400.0231, 27.36880
400.5052, 28.06498
400.9873, 28.78292
401.4695, 29.73007
401.9516, 31.00323
402.4337, 32.01323
402.9158, 31.83657
403.3979, 30.69835
403.8800, 30.52623
404.3622, 32.10923
404.8443, 34.07233
405.3264, 33.47116
405.8085, 30.73611
406.2906, 28.59305
406.7727, 29.74805
407.2549, 32.24976
407.7370, 32.40767
408.2191, 29.76650
408.7012, 27.26910
409.1833, 28.38111
409.6654, 31.24167
410.1476, 32.80106
410.6297, 30.93030
411.1118, 28.17215
411.5939, 25.80745
412.0760, 23.91769
412.5581, 23.01144
413.0403, 24.35219
413.5224, 26.09097
414.0045, 26.82123
414.4866, 25.73058
414.9687, 24.97608
415.4508, 25.48401
415.9330, 26.65375
416.4151, 27.57038
416.8972, 28.84736
417.3793, 29.08060
417.8614, 26.88216
418.3436, 21.84175
418.8257, 19.91811
419.3078, 23.71618
419.7899, 28.53462
420.2720, 31.17654
420.7542, 30.18211
421.2363, 29.96158
421.7184, 31.56207
422.2005, 33.79528
422.6826, 33.06825
423.1647, 27.89842
423.6469, 23.81961
424.1290, 23.48861
424.6111, 26.94048
425.0932, 29.91550
425.5753, 32.69807
426.0574, 34.21004
426.5396, 32.15730
427.0217, 26.80941
427.5038, 23.74048
427.9859, 24.90734
428.4680, 28.16622
428.9501, 29.53399
429.4323, 29.11735
429.9144, 27.81301
430.3965, 24.73237
430.8786, 21.52824
431.3607, 21.72840
431.8428, 26.02189
432.3250, 30.77691
432.8071, 32.61065
433.2892, 32.71846
433.7713, 33.11913
434.2534, 36.49376
434.7355, 38.86525
435.2177, 36.37978
435.6998, 30.08796
436.1819, 25.11625
436.6640, 24.52261
437.1461, 25.45181
437.6282, 26.10442
438.1104, 26.09858
438.5925, 26.04407
439.0746, 25.99375
439.5567, 25.99866
440.0388, 26.13189
440.5209, 26.77558
441.0031, 27.13816
441.4852, 26.80957
441.9673, 25.81370
442.4494, 25.63348
442.9315, 26.74328
443.4136, 28.10209
443.8958, 29.15310
444.3779, 29.97015
444.8600, 30.13203
445.3421, 29.23301
445.8242, 28.07722
446.3063, 28.64176
446.7885, 31.35856
447.2706, 32.89616
447.7527, 31.54388
448.2348, 27.97397
448.7169, 25.57870
449.1991, 24.38854
449.6812, 23.76280
450.1633, 23.09074
450.6454, 22.51182
451.1275, 22.55936
451.6096, 23.48014
452.0918, 24.63380
452.5739, 25.26271
453.0560, 25.49744
453.5381, 25.68192
454.0202, 25.83405
454.5023, 26.11801
454.9845, 26.94173
455.4666, 28.28301
455.9487, 29.09115
456.4308, 28.37869
456.9129, 27.09698
457.3951, 26.07315
457.8772, 25.40751
458.3593, 25.13452
458.8414, 25.63664
459.3235, 26.52479
459.8056, 26.95466
460.2878, 25.78884
460.7699, 25.12511
461.2520, 25.70401
461.7341, 27.67161
462.2162, 29.73804
462.6983, 32.79130
463.1805, 35.00957
463.6626, 34.56134
464.1447, 29.94367
464.6268, 26.99301
465.1089, 26.42139
465.5910, 27.60741
466.0732, 29.61331
466.5553, 32.76468
467.0374, 34.81001
467.5195, 34.52525
468.0016, 32.28174
468.4837, 29.82825
468.9659, 27.09459
469.4480, 24.91361
469.9301, 24.15386
470.4122, 24.57485
470.8943, 25.75120
471.3764, 28.12383
471.8586, 29.99563
472.3407, 28.66392
472.8228, 25.22350
473.3049, 22.54195
473.7870, 22.35321
474.2691, 23.28662
474.7513, 24.31740
475.2334, 25.40753
475.7155, 26.95677
476.1976, 30.14070
476.6797, 33.28566
477.1619, 35.11274
477.6440, 35.37619
478.1261, 34.26251
478.6082, 30.29815
479.0903, 25.11512
479.5724, 22.13201
480.0546, 23.02335
480.5367, 24.19314
481.0188, 24.73741
481.5009, 24.62982
481.9830, 25.16040
482.4651, 26.86781
482.9473, 28.34538
483.4294, 28.42329
483.9115, 26.87671
484.3936, 25.36859
484.8757, 23.85090
485.3578, 22.70653
485.8400, 22.82525
486.3221, 24.16482
486.8042, 25.57931
487.2863, 27.09068
487.7684, 28.18745
488.2505, 27.24569
488.7327, 24.39675
489.2148, 21.59449
489.6969, 19.58645
490.1790, 18.76151
490.6611, 20.04124
491.1432, 24.17325
491.6254, 28.08964
492.1075, 29.27777
492.5896, 29.02163
493.0717, 29.24523
493.5538, 32.33681
494.0359, 34.39197
494.5181, 33.34028
495.0002, 29.58636
495.4823, 25.84476
495.9644, 21.29033
496.4465, 17.99551
496.9286, 17.08326
497.4108, 19.50140
497.8929, 21.82047
498.3750, 24.30429
498.8571, 26.44493
499.3392, 27.55288
499.8214, 27.40848
500.3035, 26.85348
500.7856, 25.75425
501.2677, 24.49555
501.7498, 24.73068
502.2319, 26.65889
502.7141, 28.07682
503.1962, 27.23176
503.6783, 24.82381
504.1604, 23.59783
504.6425, 23.67806
505.1246, 24.20399
505.6068, 24.64515
506.0889, 24.89447
506.5710, 24.58250
507.0531, 23.00135
507.5352, 21.97825
508.0174, 24.02653
508.4995, 27.78837
508.9816, 30.19582
509.4637, 28.83678
509.9458, 26.70186
510.4279, 25.31630
510.9101, 24.76921
511.3922, 24.12448
511.8743, 22.15854
512.3564, 20.71164
512.8385, 21.15149
513.3206, 25.77683
513.8027, 28.28281
514.2849, 27.35346
514.7670, 25.07452
515.2491, 25.10031
515.7312, 28.70306
516.2133, 30.69372
516.6954, 29.09845
517.1776, 24.92043
517.6597, 23.14948
518.1418, 24.03256
518.6239, 25.26389
519.1060, 25.18803
519.5881, 24.18529
520.0703, 23.69372
520.5524, 23.84260
521.0345, 24.22452
521.5167, 24.56326
521.9988, 24.82033
522.4809, 24.94350
522.9630, 25.04244
523.4451, 24.83177
523.9272, 23.50553
524.4094, 21.64680
524.8915, 20.80747
525.3736, 22.46621
525.8557, 24.54179
526.3378, 26.43818
526.8199, 28.18289
527.3021, 28.55184
527.7842, 25.89916
528.2663, 22.82837
528.7484, 20.97049
529.2305, 20.58559
529.7126, 20.95242
530.1948, 22.31743
530.6769, 24.21970
531.1590, 26.19219
531.6411, 28.55816
532.1232, 29.43913
532.6053, 27.91837
533.0875, 24.68586
533.5696, 21.79203
534.0517, 19.23293
534.5338, 17.78446
535.0159, 18.53374
535.4980, 20.65821
535.9802, 22.67786
536.4623, 24.52491
536.9444, 25.60200
537.4265, 24.40590
537.9086, 22.43069
538.3907, 21.82031
538.8729, 24.20488
539.3550, 26.60786
539.8371, 27.83274
540.3192, 28.01662
540.8013, 27.42302
541.2834, 24.78422
541.7656, 22.68468
542.2477, 22.40532
542.7298, 24.02189
543.2119, 24.50776
543.6940, 22.82749
544.1761, 21.25056
544.6583, 21.11511
545.1404, 22.71131
545.6225, 24.88238
546.1046, 28.08275
546.5867, 30.95907
547.0688, 31.34519
547.5510, 29.33313
548.0331, 27.26454
548.5152, 25.35906
548.9973, 24.24083
549.4794, 26.14416
549.9615, 30.29444
550.4437, 33.03393
550.9258, 30.82469
551.4079, 26.96546
551.8900, 25.13007
552.3721, 25.42143
552.8542, 25.78304
553.3364, 25.29614
553.8185, 24.28021
554.3006, 22.84979
554.7827, 20.24877
555.2648, 18.77698
555.7469, 19.73613
556.2291, 21.79391
556.7112, 22.98383
557.1933, 22.33277
557.6754, 22.37894
558.1575, 23.94289
558.6396, 26.48841
559.1218, 27.71638
559.6039, 27.44003
560.0860, 26.50905
560.5681, 25.08393
561.0502, 23.26245
561.5323, 21.86339
562.0145, 20.87796
562.4966, 20.45749
562.9787, 21.08345
563.4608, 22.34633
563.9429, 23.27719
564.4250, 23.57514
564.9072, 23.97393
565.3893, 25.97295
565.8714, 28.31710
566.3535, 29.02533
566.8356, 25.36117
567.3177, 21.88894
567.7999, 20.52725
568.2820, 20.95938
568.7641, 21.68738
569.2462, 23.68944
569.7283, 24.72565
570.2104, 23.65308
570.6926, 20.12629
571.1747, 17.66973
571.6568, 16.42117
572.1389, 16.05041
572.6210, 16.18162
573.1031, 16.75342
573.5853, 19.13316
574.0674, 24.06521
574.5495, 29.04217
575.0316, 29.96113
575.5137, 27.52450
575.9958, 24.91193
576.4780, 23.16300
576.9601, 21.80065
577.4422, 19.94626
577.9243, 17.91688
578.4065, 16.77355
578.8886, 17.73549
579.3707, 19.24444
579.8528, 20.41604
580.3350, 21.18195
580.8171, 21.63712
581.2992, 21.37977
581.7813, 21.12018
582.2634, 21.40080
582.7455, 22.99759
583.2277, 23.42833
583.7098, 21.88206
584.1919, 19.91581
584.6740, 19.75512
585.1561, 21.87781
585.6382, 23.20897
586.1204, 22.94752
586.6025, 21.83360
587.0846, 21.70078
587.5667, 22.41150
588.0488, 22.51689
588.5309, 19.85142
589.0131, 16.77400
589.4952, 18.20543
589.9773, 23.48801
590.4594, 27.11028
590.9415, 23.08355
591.4236, 17.49175
591.9058, 15.98948
592.3879, 20.55332
592.8700, 23.77506
593.3521, 21.69574
593.8342, 18.19806
594.3163, 17.03404
594.7985, 21.19670
595.2806, 23.29736
595.7627, 21.71722
596.2448, 18.62036
596.7269, 18.57381
597.2090, 22.39914
597.6912, 25.49288
598.1733, 26.19273
598.6554, 25.40277
599.1375, 26.09181
599.6196, 28.18435
600.1017, 30.14264
600.5839, 31.39115
601.0660, 31.71025
601.5481, 30.33655
602.0302, 27.27070
602.5123, 24.10726
602.9944, 20.98442
603.4766, 18.75341
603.9587, 18.46870
604.4408, 21.37958
604.9229, 23.54532
605.4050, 23.31898
605.8871, 22.01401
606.3693, 21.26750
606.8514, 22.45692
607.3335, 21.93277
607.8156, 17.95475
608.2977, 12.64501
608.7798, 11.81505
609.2620, 16.50348
609.7441, 20.32233
610.2262, 20.50400
610.7083, 18.20761
611.1904, 17.25967
611.6725, 17.62029
612.1547, 18.50945
612.6368, 19.63332
613.1189, 20.87280
613.6010, 22.30187
614.0831, 23.95487
614.5652, 24.85574
615.0474, 23.28086
615.5295, 21.30073
616.0116, 20.94930
616.4937, 23.76839
616.9758, 26.00002
617.4579, 27.27439
617.9401, 27.47585
618.4222, 26.31520
618.9043, 22.71316
619.3864, 19.83431
619.8685, 17.83080
620.3506, 17.04510
620.8328, 19.26899
621.3149, 24.82269
621.7970, 29.02656
622.2791, 29.69793
622.7612, 27.75660
623.2433, 24.42707
623.7255, 20.03878
624.2076, 17.18901
624.6897, 19.01860
625.1718, 22.47515
625.6539, 24.44505
626.1360, 24.56020
626.6182, 24.17547
627.1003, 23.68848
627.5824, 23.07561
628.0645, 22.24707
628.5466, 20.52243
629.0287, 19.88255
629.5109, 21.46364
629.9930, 23.37833
630.4751, 22.82817
630.9572, 18.49176
631.4393, 16.72196
631.9214, 19.19135
632.4036, 24.00025
632.8857, 27.66945
633.3678, 30.21860
633.8499, 31.77753
634.3320, 32.42867
634.8141, 32.12506
635.2963, 30.19645
635.7784, 27.02765
636.2606, 24.44526
636.7427, 24.22430
637.2248, 24.33245
637.7069, 23.18434
638.1890, 20.57900
638.6711, 18.51854
639.1533, 17.16592
639.6354, 16.75582
640.1175, 17.48502
640.5996, 19.89584
641.0817, 21.81370
641.5638, 23.08407
642.0460, 24.12910
642.5281, 25.87019
643.0102, 28.34463
643.4923, 28.56605
643.9744, 25.52950
644.4565, 21.72400
644.9387, 20.89920
645.4208, 22.21122
645.9029, 23.15440
646.3850, 22.15924
646.8671, 21.18981
647.3492, 22.46369
647.8314, 25.00712
648.3135, 26.36219
648.7956, 24.12613
649.2777, 22.01305
649.7598, 21.83010
650.2419, 23.44786
650.7241, 23.80313
651.2062, 22.27411
651.6883, 20.40027
652.1704, 18.46354
652.6525, 16.42996
653.1346, 16.88723
653.6168, 20.16888
654.0989, 23.97670
654.5810, 26.99101
655.0631, 28.88645
655.5452, 28.05054
656.0273, 23.87786
656.5095, 20.27227
656.9916, 21.59163
657.4737, 25.11917
657.9558, 27.38825
658.4379, 26.81945
658.9200, 26.04813
659.4022, 25.65234
659.8843, 25.66740
660.3664, 26.23295
660.8485, 28.53070
661.3306, 29.48966
661.8127, 28.43113
662.2949, 25.89095
662.7770, 22.87143
663.2591, 19.06859
663.7412, 17.17707
664.2233, 19.31782
664.7054, 23.45294
665.1876, 23.83342
665.6697, 21.01053
666.1518, 18.87378
666.6339, 21.35757
667.1160, 24.75876
667.5981, 24.83746
668.0803, 21.54617
668.5624, 19.51632
669.0445, 22.10088
669.5266, 25.41557
670.0087, 26.88857
670.4908, 25.49948
670.9730, 25.32158
671.4551, 27.41581
671.9372, 29.41049
672.4193, 29.02448
672.9014, 25.93261
673.3835, 23.43082
673.8657, 21.73549
674.3478, 20.83965
674.8299, 21.28437
675.3120, 22.56670
675.7941, 22.93938
676.2762, 21.36702
676.7584, 20.08752
677.2405, 21.98124
677.7226, 25.36649
678.2047, 27.31898
678.6868, 25.05900
679.1689, 23.17243
679.6511, 23.48243
680.1332, 25.27365
680.6153, 26.20077
681.0974, 26.18262
681.5795, 25.33052
682.0616, 23.15246
682.5438, 20.19738
683.0259, 19.44783
683.5080, 21.01139
683.9901, 22.95718
684.4722, 24.66287
684.9543, 25.83545
685.4365, 25.41902
685.9186, 23.55054
686.4007, 21.77874
686.8828, 21.15801
687.3649, 21.02718
687.8470, 20.61678
688.3292, 19.65855
688.8113, 19.95901
689.2934, 24.14975
689.7755, 28.06424
690.2576, 28.87921
690.7397, 24.96968
691.2219, 22.63641
691.7040, 22.31338
692.1861, 22.74775
692.6682, 22.41216
693.1503, 21.42837
693.6324, 21.50927
694.1146, 23.18600
694.5967, 24.93550
695.0789, 24.70279
695.5610, 23.29930
696.0431, 22.21888
696.5252, 21.93165
697.0073, 22.09285
697.4894, 23.14086
697.9716, 24.40785
698.4537, 24.68873
698.9358, 21.98024
699.4179, 20.56721
699.9000, 21.65860
700.3821, 24.26615
700.8643, 25.47914
701.3464, 25.04095
701.8285, 24.48826
702.3106, 24.28451
702.7927, 24.39114
703.2748, 24.95141
703.7570, 25.84634
704.2391, 26.34381
704.7212, 25.52536
705.2033, 24.45500
705.6854, 24.61011
706.1675, 25.73590
706.6497, 25.55579
707.1318, 20.60524
707.6139, 16.37040
708.0960, 16.19307
708.5781, 20.48388
709.0602, 24.17588
709.5424, 27.86989
710.0245, 29.84818
710.5066, 28.18351
710.9887, 22.96687
711.4708, 19.33345
711.9529, 17.31305
712.4351, 16.88935
712.9172, 19.11921
713.3993, 22.57088
713.8814, 24.97387
714.3635, 25.95023
714.8456, 25.97482
715.3278, 25.02414
715.8099, 23.40908
716.2920, 21.25569
716.7741, 16.53623
717.2562, 15.04933
717.7383, 18.70378
718.2205, 24.22661
718.7026, 28.15230
719.1847, 30.51970
719.6668, 30.76269
720.1489, 28.27863
720.6310, 24.87998
721.1132, 23.28652
721.5953, 23.14697
722.0774, 23.29553
722.5595, 22.97481
723.0416, 23.51651
723.5237, 28.22241
724.0059, 34.27383
724.4880, 36.36947
724.9701, 27.49338
725.4522, 20.62754
725.9343, 20.32966
726.4164, 24.12100
726.8986, 26.49253
727.3807, 27.23967
727.8628, 26.96558
728.3449, 25.50032
728.8270, 23.36944
729.3091, 21.97722
729.7913, 21.31339
730.2734, 21.27552
730.7555, 22.25738
731.2376, 23.54585
731.7197, 24.32671
732.2018, 24.67157
732.6840, 24.90752
733.1661, 24.75661
733.6482, 24.92253
734.1303, 26.17736
734.6124, 28.44480
735.0945, 29.29685
735.5767, 28.12424
736.0588, 26.56654
736.5409, 25.00980
737.0230, 23.56767
737.5051, 24.03992
737.9872, 26.52032
738.4694, 28.40136
738.9515, 27.04198
739.4336, 24.15630
739.9157, 22.55417
740.3978, 22.33530
740.8799, 22.51022
741.3621, 22.53197
741.8442, 22.74567
742.3263, 23.79852
742.8084, 26.40952
743.2905, 26.49636
743.7726, 21.76536
744.2548, 17.31248
744.7369, 17.05989
745.2190, 21.50470
745.7011, 24.27601
746.1832, 25.23378
746.6653, 25.02894
747.1475, 23.18531
747.6296, 20.87724
748.1117, 21.04232
748.5938, 24.45720
749.0759, 27.34376
749.5580, 26.25943
750.0402, 24.07938
750.5223, 23.54276
751.0044, 26.37643
751.4865, 28.30823
751.9686, 29.08685
752.4508, 28.91221
752.9329, 27.44595
753.4150, 24.25348
753.8972, 23.43748
754.3793, 25.82361
754.8614, 29.13478
755.3435, 31.00264
755.8256, 31.52978
756.3077, 30.62641
756.7899, 27.65078
757.2720, 25.24838
757.7541, 26.13195
758.2362, 28.33405
758.7183, 29.47712
759.2004, 28.41398
759.6826, 26.98049
760.1647, 24.39023
760.6468, 22.17388
761.1289, 23.05182
761.6110, 27.81123
762.0931, 30.40298
762.5753, 29.41804
763.0574, 26.83011
763.5395, 25.26829
764.0216, 24.53197
764.5037, 24.05980
764.9858, 23.61262
765.4680, 23.48862
765.9501, 24.10895
766.4322, 25.13478
766.9143, 26.01241
767.3964, 27.03829
767.8785, 27.29053
768.3607, 25.95450
768.8428, 24.21926
769.3249, 24.88862
769.8070, 28.51688
770.2891, 30.03208
770.7712, 27.49014
771.2534, 23.54865
771.7355, 22.92714
772.2176, 24.64903
772.6997, 25.86393
773.1818, 24.74107
773.6639, 23.54599
774.1461, 23.60826
774.6282, 24.60757
775.1103, 25.87656
775.5924, 28.88432
776.0745, 29.95792
776.5566, 27.58945
777.0388, 23.43610
777.5209, 21.64795
778.0030, 22.34693
778.4851, 23.95259
778.9672, 26.45545
779.4493, 28.88366
779.9315, 29.37420
780.4136, 28.40197
780.8957, 27.31295
781.3778, 27.04056
781.8599, 26.48439
782.3420, 24.43644
782.8242, 21.65966
783.3063, 20.25484
783.7884, 21.24850
784.2705, 22.26178
784.7526, 22.57290
785.2347, 22.76265
785.7169, 25.09377
786.1990, 29.57681
786.6811, 32.41702
787.1632, 31.52185
787.6453, 29.15765
788.1274, 28.72672
788.6096, 29.56242
789.0917, 29.83967
789.5738, 28.42185
790.0559, 26.62519
790.5380, 23.88058
791.0201, 21.14907
791.5023, 21.60964
791.9844, 28.00979
792.4665, 31.97805
792.9486, 30.80812
793.4307, 26.54298
793.9128, 24.59640
794.3950, 24.77522
794.8771, 25.08443
795.3592, 24.63708
795.8413, 24.02028
796.3234, 23.84590
796.8055, 24.03549
797.2877, 24.39307
797.7698, 25.13308
798.2519, 25.71170
798.7340, 26.20836
799.2161, 26.39617
799.6982, 25.40228
800.1804, 22.48308
800.6625, 20.97799
801.1446, 22.39858
801.6267, 24.99995
802.1088, 24.32473
802.5909, 21.19854
803.0731, 19.22497
803.5552, 20.40380
804.0373, 22.78150
804.5194, 26.11876
805.0015, 29.38956
805.4836, 30.42915
805.9658, 25.72439
806.4479, 22.45857
806.9300, 22.67446
807.4121, 24.71912
807.8942, 24.10842
808.3763, 20.30163
808.8585, 19.31734
809.3406, 23.81524
809.8227, 30.09803
810.3049, 32.25210
810.7870, 31.30720
811.2691, 29.87924
811.7512, 28.27892
812.2333, 27.32601
812.7155, 28.47156
813.1976, 30.35049
813.6797, 30.14390
814.1618, 25.86204
814.6439, 23.10754
815.1260, 22.80760
815.6082, 24.14894
816.0903, 26.39056
816.5724, 29.28379
817.0545, 29.97414
817.5366, 26.91008
818.0187, 23.39914
818.5009, 23.39946
818.9830, 25.38929
819.4651, 26.91544
819.9472, 26.86812
820.4293, 26.75089
820.9114, 27.10161
821.3936, 27.45815
821.8757, 27.17949
822.3578, 26.04996
822.8399, 25.13072
823.3220, 24.49768
823.8041, 24.27516
824.2863, 25.12744
824.7684, 26.52591
825.2505, 26.73622
825.7326, 24.67377
826.2147, 23.52685
826.6968, 27.26950
827.1790, 32.23951
827.6611, 34.41347
828.1432, 29.98803
828.6253, 27.43384
829.1074, 27.07061
829.5895, 28.16434
830.0717, 30.89863
830.5538, 35.12605
831.0359, 35.83992
831.5180, 32.13219
832.0001, 27.54261
832.4822, 24.83870
832.9644, 23.72975
833.4465, 24.34876
833.9286, 27.42859
834.4107, 29.04693
834.8928, 26.12010
835.3749, 22.56908
835.8571, 21.35910
836.3392, 23.25007
836.8213, 23.95456
837.3034, 23.12795
837.7855, 22.40820
838.2676, 23.73148
838.7498, 26.20709
839.2319, 27.46511
839.7140, 27.35673
840.1961, 26.60925
840.6782, 24.99777
841.1603, 23.45508
841.6425, 22.66317
842.1246, 22.76327
842.6067, 23.22483
843.0888, 24.26859
843.5709, 25.22567
844.0530, 25.39888
844.5352, 25.03624
845.0173, 26.95565
845.4994, 31.05370
845.9815, 34.05245
846.4636, 32.77206
846.9457, 29.91286
847.4279, 27.92457
847.9100, 26.87858
848.3921, 26.43367
848.8742, 27.06652
849.3563, 27.66990
849.8384, 27.84380
850.3206, 27.66713
850.8027, 27.58149
851.2848, 27.58538
851.7669, 27.68781
852.2490, 27.87918
852.7311, 28.18535
853.2133, 28.81516
853.6954, 29.61722
854.1775, 30.12406
854.6596, 30.16275
855.1417, 29.79329
855.6238, 28.29068
856.1060, 26.45988
856.5881, 26.64279
857.0702, 30.27797
857.5523, 32.04198
858.0344, 30.27511
858.5165, 27.05469
858.9987, 26.67933
859.4808, 28.31778
859.9629, 28.39948
860.4450, 24.81744
860.9271, 21.54544
861.4092, 21.81832
861.8914, 24.12306
862.3735, 26.35334
862.8556, 28.78313
863.3377, 30.06289
863.8198, 29.66363
864.3019, 28.73492
864.7841, 28.64671
865.2662, 29.35189
865.7483, 30.01755
866.2304, 30.52092
866.7125, 31.13631
867.1946, 32.46128
867.6768, 33.88213
868.1589, 35.07841
868.6411, 36.54678
869.1232, 35.28545
869.6053, 26.16814
870.0874, 18.13018
870.5695, 17.05060
871.0516, 23.73027
871.5338, 26.96158
872.0159, 26.48244
872.4980, 25.00628
872.9801, 24.12509
873.4622, 23.83943
873.9443, 24.49439
874.4265, 25.95706
874.9086, 26.89386
875.3907, 26.66029
875.8728, 25.77192
876.3549, 23.65568
876.8370, 20.77163
877.3192, 21.11841
877.8013, 25.61868
878.2834, 29.19094
878.7655, 29.60830
879.2476, 27.79866
879.7297, 24.60776
880.2119, 20.75546
880.6940, 18.73705
881.1761, 22.10682
881.6582, 25.19247
882.1403, 24.59487
882.6224, 21.84229
883.1046, 20.84965
883.5867, 22.91752
884.0688, 23.47125
884.5509, 20.90043
885.0330, 17.98997
885.5151, 20.39258
885.9973, 26.50537
886.4794, 30.66198
886.9615, 31.47513
887.4436, 29.73708
887.9257, 22.52502
888.4078, 14.84641
888.8900, 12.45286
889.3721, 20.45197
889.8542, 24.95211
890.3363, 24.66298
890.8184, 23.02614
891.3005, 23.76405
891.7827, 26.18533
892.2648, 24.47732
892.7469, 18.24353
893.2290, 13.39773
893.7111, 15.51606
894.1932, 20.24713
894.6754, 24.64653
895.1575, 28.43905
895.6396, 29.63551
896.1217, 26.09878
896.6038, 23.08132
897.0859, 23.12060
897.5681, 25.43044
898.0502, 25.38460
898.5323, 23.11663
899.0144, 20.77673
899.4965, 19.20874
899.9786, 18.36901
900.4608, 18.06462
900.9429, 18.42455
901.4250, 19.79997
901.9071, 24.35777
902.3892, 27.22088
902.8713, 27.42612
903.3535, 25.69943
903.8356, 22.82966
904.3177, 18.89487
904.7998, 15.95033
905.2819, 14.29898
905.7640, 14.28757
906.2462, 17.96076
906.7283, 22.79920
907.2104, 25.37798
907.6925, 23.79688
908.1746, 22.35044
908.6567, 21.75135
909.1389, 21.44738
909.6210, 20.69978
910.1031, 19.39632
910.5852, 20.65030
911.0673, 24.71919
911.5494, 28.56343
912.0316, 29.71893
912.5137, 29.30112
912.9958, 28.35842
913.4779, 27.00651
913.9600, 25.56415
914.4421, 24.17204
914.9243, 22.60999
915.4064, 20.49992
915.8885, 18.15245
916.3706, 17.46030
916.8527, 18.44181
917.3348, 19.14483
917.8170, 18.28473
918.2991, 17.31894
918.7812, 18.68459
919.2633, 21.23531
919.7454, 22.65299
920.2275, 21.35361
920.7097, 19.87601
921.1918, 18.23422
921.6739, 16.93185
922.1560, 16.62668
922.6381, 17.31895
923.1202, 19.26143
923.6024, 22.78634
924.0845, 25.55109
924.5666, 24.28286
925.0487, 21.26412
925.5308, 19.03196
926.0129, 17.86802
926.4951, 18.46444
926.9772, 24.10760
927.4594, 28.08528
927.9415, 25.83325
928.4236, 17.81534
928.9057, 15.58536
929.3878, 19.15393
929.8699, 23.18364
930.3521, 23.87785
930.8342, 23.64336
931.3163, 25.95115
931.7984, 29.68501
932.2805, 30.98242
932.7626, 26.38586
933.2448, 22.10977
933.7269, 19.07457
934.2090, 17.29015
934.6911, 17.34560
935.1732, 19.11762
935.6553, 20.32146
936.1375, 20.38550
936.6196, 19.93105
937.1017, 19.41030
937.5838, 18.83694
938.0659, 18.18783
938.5480, 17.35621
939.0302, 16.67234
939.5123, 15.59450
939.9944, 15.42288
940.4765, 18.08706
940.9586, 23.24572
941.4407, 23.83091
941.9229, 19.96477
942.4050, 16.23947
942.8871, 16.22509
943.3692, 17.45517
943.8513, 18.10869
944.3334, 18.16105
944.8156, 18.06484
945.2977, 17.64215
945.7798, 17.56888
946.2619, 18.26828
946.7440, 19.14777
947.2261, 17.99985
947.7083, 15.52550
948.1904, 15.62964
948.6725, 20.88926
949.1546, 25.80887
949.6367, 25.83911
950.1188, 23.48023
950.6010, 21.64585
951.0831, 20.52275
951.5652, 20.48697
952.0473, 22.15830
952.5294, 23.50280
953.0115, 21.64755
953.4937, 18.07395
953.9758, 18.14981
954.4579, 21.85792
954.9400, 25.40478
955.4221, 26.93995
955.9042, 27.24997
956.3864, 26.63785
956.8685, 25.15155
957.3506, 22.70949
957.8327, 18.83798
958.3148, 15.87267
958.7969, 14.63398
959.2791, 14.52635
959.7612, 14.22476
960.2433, 14.19854
960.7254, 15.77126
961.2075, 21.00144
961.6896, 24.84277
962.1718, 24.50080
962.6539, 22.44962
963.1360, 21.12987
963.6181, 20.85945
964.1002, 19.15843
964.5823, 15.62627
965.0645, 13.26650
965.5466, 16.32453
966.0287, 21.29930
966.5108, 23.07147
966.9929, 21.64136
967.4750, 20.63914
967.9572, 22.40367
968.4393, 23.42514
968.9214, 21.91847
969.4035, 19.13494
969.8856, 20.30629
970.3677, 25.21723
970.8499, 27.00632
971.3320, 22.17621
971.8141, 16.32703
972.2962, 15.05611
972.7783, 16.27422
973.2604, 17.05474
973.7426, 16.19975
974.2247, 15.99477
974.7068, 16.68175
975.1889, 17.75448
975.6710, 19.16921
976.1531, 20.69591
976.6353, 20.84648
977.1174, 19.63889
977.5995, 18.07882
978.0816, 16.01429
978.5637, 14.56041
979.0458, 14.88173
979.5280, 16.66629
980.0101, 17.63515
980.4922, 17.28185
980.9743, 17.88357
981.4564, 20.72455
981.9385, 23.46910
982.4207, 20.67186
982.9028, 14.77371
983.3849, 11.44530
983.8670, 12.89770
984.3491, 15.15713
984.8313, 16.97533
985.3134, 18.64381
985.7955, 20.58422
986.2776, 22.93050
986.7598, 23.97846
987.2419, 23.69572
987.7240, 22.48426
988.2061, 19.99178
988.6882, 17.15655
989.1703, 14.56773
989.6525, 12.53497
990.1346, 12.21663
990.6167, 15.92675
991.0988, 18.83621
991.5809, 19.94123
992.0630, 19.93526
992.5452, 19.93728
993.0273, 19.96900
993.5094, 20.33364
993.9915, 21.22795
994.4736, 21.72374
994.9557, 20.03773
995.4379, 18.28089
995.9200, 18.78542
996.4021, 22.43495
996.8842, 24.76695
997.3663, 25.75339
997.8484, 25.48332
998.3306, 22.98201
998.8127, 19.81102
999.2948, 20.69576
999.7769, 24.44585
1000.259, 26.97076
1000.741, 25.95586
1001.223, 23.82449
1001.705, 19.62477
1002.188, 15.71897
1002.670, 15.94888
1003.152, 21.00065
1003.634, 23.57577
1004.116, 22.69163
1004.598, 21.07153
1005.080, 21.77177
1005.562, 23.06283
1006.044, 22.72463
1006.527, 20.48867
1007.009, 18.95065
1007.491, 18.66383
1007.973, 18.97952
1008.455, 20.09262
1008.937, 21.38834
1009.419, 20.39477
1009.901, 17.72327
1010.383, 16.32108
1010.866, 17.84291
1011.348, 19.82998
1011.830, 21.14482
1012.312, 21.82886
1012.794, 21.86749
1013.276, 20.85253
1013.758, 20.73597
1014.240, 21.76197
1014.723, 22.56026
1015.205, 21.49676
1015.687, 19.69993
1016.169, 18.94578
1016.651, 19.22922
1017.133, 20.13845
1017.615, 23.13676
1018.097, 24.62480
1018.579, 23.01343
1019.062, 19.89509
1019.544, 18.89981
1020.026, 19.78695
1020.508, 19.38152
1020.990, 16.55848
1021.472, 14.72699
1021.954, 18.26272
1022.436, 23.25898
1022.919, 25.96584
1023.401, 25.71161
1023.883, 24.46582
1024.365, 21.68541
1024.847, 19.58198
1025.329, 19.56787
1025.811, 20.77859
1026.293, 21.68468
1026.776, 22.19672
1027.258, 22.03486
1027.740, 19.56603
1028.222, 18.38022
1028.704, 20.71872
1029.186, 23.74994
1029.668, 24.10743
1030.150, 21.74185
1030.632, 20.97063
1031.115, 22.13944
1031.597, 23.48921
1032.079, 23.74543
1032.561, 23.45116
1033.043, 23.45049
1033.525, 23.54346
1034.007, 21.51623
1034.489, 15.71670
1034.971, 11.82020
1035.454, 11.56047
1035.936, 13.17555
1036.418, 13.58372
1036.900, 13.44790
1037.382, 14.40681
1037.864, 17.16894
1038.346, 19.95315
1038.828, 23.44138
1039.311, 25.37745
1039.793, 23.66543
1040.275, 18.53278
1040.757, 16.25398
1041.239, 16.75167
1041.721, 18.03233
1042.203, 19.56567
1042.685, 20.77852
1043.167, 20.89277
1043.650, 20.40293
1044.132, 20.43778
1044.614, 21.95665
1045.096, 21.79013
1045.578, 19.17969
1046.060, 16.43885
1046.542, 16.28194
1047.024, 17.61180
1047.506, 17.99044
1047.989, 17.33149
1048.471, 17.18680
1048.953, 18.80178
1049.435, 20.41947
1049.917, 21.62559
1050.399, 22.28255
1050.881, 21.45907
1051.363, 19.37248
1051.846, 18.81148
1052.328, 20.89548
1052.810, 23.17137
1053.292, 24.44459
1053.774, 24.26984
1054.256, 21.19098
1054.738, 14.20860
1055.220, 12.34392
1055.703, 16.85194
1056.185, 21.25267
1056.667, 21.43438
1057.149, 19.75451
1057.631, 20.82598
1058.113, 23.26112
1058.595, 23.77064
1059.077, 18.32481
1059.559, 15.00588
1060.042, 15.65818
1060.524, 17.46750
1061.006, 17.29132
1061.488, 15.59639
1061.970, 15.68754
1062.452, 17.60367
1062.934, 19.29974
1063.416, 19.10391
1063.898, 18.60922
1064.381, 18.79738
1064.863, 19.42161
1065.345, 19.54638
1065.827, 18.96684
1066.309, 19.82003
1066.791, 22.99865
1067.273, 25.73108
1067.755, 23.54527
1068.238, 19.79745
1068.720, 18.91675
1069.202, 22.02647
1069.684, 23.26049
1070.166, 21.59873
1070.648, 19.36557
1071.130, 17.20865
1071.612, 15.45764
1072.094, 14.86887
1072.577, 15.35480
1073.059, 16.84642
1073.541, 20.73789
1074.023, 22.99956
1074.505, 20.73516
1074.987, 17.52381
1075.469, 15.96102
1075.951, 16.05634
1076.434, 15.89938
1076.916, 15.52021
1077.398, 15.54826
1077.880, 16.86934
1078.362, 18.27168
1078.844, 18.92294
1079.326, 18.99973
1079.808, 19.04821
1080.291, 19.17000
1080.773, 18.72532
1081.255, 17.42175
1081.737, 16.64304
1082.219, 19.12774
1082.701, 22.28555
1083.183, 21.71034
1083.665, 17.42642
1084.147, 15.62798
1084.630, 19.94139
1085.112, 22.54538
1085.594, 20.91344
1086.076, 17.24409
1086.558, 16.01153
1087.040, 16.39022
1087.522, 15.55605
1088.004, 12.20935
1088.486, 10.90203
1088.969, 16.79764
1089.451, 22.35953
1089.933, 22.84272
1090.415, 19.02808
1090.897, 17.16722
1091.379, 17.18955
1091.861, 18.35979
1092.343, 21.76138
1092.826, 23.91446
1093.308, 20.04303
1093.790, 14.46921
1094.272, 13.28367
1094.754, 18.66706
1095.236, 20.23995
1095.718, 17.46758
1096.200, 14.67999
1096.682, 15.87208
1097.165, 18.32859
1097.647, 18.19131
1098.129, 16.39483
1098.611, 15.98780
1099.093, 19.94446
1099.575, 20.85883
1100.057, 16.92091
1100.539, 12.18580
1101.021, 11.75756
1101.504, 14.02571
1101.986, 15.33959
1102.468, 15.43727
1102.950, 15.51532
1103.432, 16.94855
1103.914, 17.22445
1104.396, 14.89921
1104.878, 11.56237
1105.361, 11.45352
1105.843, 13.78955
1106.325, 13.57364
1106.807, 9.175347
1107.289, 6.470758
1107.771, 11.96407
1108.253, 18.16863
1108.735, 19.19765
1109.218, 15.81894
1109.700, 15.26318
1110.182, 17.58201
1110.664, 18.85585
1111.146, 17.21350
1111.628, 14.85765
1112.110, 13.01178
1112.592, 12.15444
1113.074, 13.22676
1113.557, 16.95053
1114.039, 19.51960
1114.521, 20.88104
1115.003, 21.32281
1115.485, 20.56855
1115.967, 19.37109
1116.449, 19.28816
1116.931, 19.54866
1117.413, 18.45330
1117.896, 12.96144
1118.378, 10.14492
1118.860, 10.70649
1119.342, 12.97911
1119.824, 16.89225
1120.306, 20.92995
1120.788, 20.04443
1121.270, 15.20491
1121.753, 12.13721
1122.235, 15.48360
1122.717, 17.98248
1123.199, 17.72390
1123.681, 16.11957
1124.163, 14.93788
1124.645, 14.19790
1125.127, 14.17821
1125.609, 14.89655
1126.092, 15.23826
1126.574, 13.29755
1127.056, 12.17386
1127.538, 14.23227
1128.020, 17.92503
1128.502, 18.73752
1128.984, 16.82212
1129.466, 15.42662
1129.949, 15.26299
1130.431, 15.63037
1130.913, 16.49173
1131.395, 17.21193
1131.877, 17.28774
1132.359, 16.73551
1132.841, 15.29317
1133.323, 12.77090
1133.806, 11.41291
1134.288, 12.18451
1134.770, 14.01217
1135.252, 16.75435
1135.734, 19.33261
1136.216, 20.44639
1136.698, 19.79650
1137.180, 17.91870
1137.662, 14.46416
1138.145, 11.31774
1138.627, 9.482969
1139.109, 8.620433
1139.591, 8.638198
1140.073, 9.192732
1140.555, 9.600313
1141.037, 8.592103
1141.519, 9.830948
1142.001, 14.36418
1142.484, 18.64161
1142.966, 19.84386
1143.448, 18.93180
1143.930, 17.75583
1144.412, 16.29464
1144.894, 14.41100
1145.376, 10.04862
1145.858, 8.424374
1146.341, 11.11641
1146.823, 15.00815
1147.305, 16.99126
1147.787, 17.43570
1148.269, 17.24197
1148.751, 16.56120
1149.233, 16.08615
1149.715, 16.37991
1150.198, 16.59985
1150.680, 16.29929
1151.162, 16.01925
1151.644, 16.93394
1152.126, 18.69262
1152.608, 19.31455
1153.090, 18.58343
1153.572, 17.67953
1154.054, 17.07559
1154.536, 16.72212
1155.019, 16.72621
1155.501, 16.87818
1155.983, 16.74080
1156.465, 16.30569
1156.947, 15.28180
1157.429, 13.47986
1157.911, 12.25033
1158.393, 13.22980
1158.876, 14.50341
1159.358, 14.61771
1159.840, 13.86484
1160.322, 13.72499
1160.804, 14.18745
1161.286, 14.50999
1161.768, 14.38286
1162.250, 14.45310
1162.733, 15.11948
1163.215, 16.34510
1163.697, 18.82843
1164.179, 22.38673
1164.661, 22.19065
1165.143, 18.03059
1165.625, 15.01503
1166.107, 15.65967
1166.589, 17.24890
1167.072, 17.46073
1167.554, 16.90960
1168.036, 16.21075
1168.518, 15.35244
1169.000, 15.05439
1169.482, 15.44098
1169.964, 15.25101
1170.446, 13.74454
1170.928, 11.44846
1171.411, 6.886399
1171.893, 2.735753
1172.375, 3.976903
1172.857, 14.49010
1173.339, 18.46807
1173.821, 14.82250
1174.303, 10.88562
1174.785, 12.38066
1175.268, 15.70157
1175.750, 16.57754
1176.232, 15.83262
1176.714, 15.12202
1177.196, 14.20967
1177.678, 14.81899
1178.160, 17.48771
1178.642, 19.63594
1179.125, 18.46563
1179.607, 15.95402
1180.089, 14.82813
1180.571, 14.64508
1181.053, 13.81909
1181.535, 10.82795
1182.017, 10.16780
1182.499, 12.78891
1182.981, 15.55765
1183.464, 14.83605
1183.946, 12.67465
1184.428, 11.92884
1184.910, 12.54692
1185.392, 13.67559
1185.874, 15.74495
1186.356, 17.12372
1186.838, 17.63770
1187.320, 17.36931
1187.803, 15.54938
1188.285, 13.47250
1188.767, 13.72133
1189.249, 16.08028
1189.731, 17.19523
1190.213, 15.65003
1190.695, 14.44822
1191.177, 14.12157
1191.660, 14.26846
1192.142, 14.05280
1192.624, 14.08081
1193.106, 16.14401
1193.588, 20.19602
1194.070, 21.75383
1194.552, 19.00270
1195.034, 15.49769
1195.516, 11.24052
1195.999, 8.311042
1196.481, 12.00867
1196.963, 18.39532
1197.445, 20.24471
1197.927, 16.40139
1198.409, 13.88002
1198.891, 14.70703
1199.373, 15.08805
1199.856, 13.63540
1200.338, 11.86302
1200.820, 12.85685
1201.302, 15.10692
1201.784, 15.54131
1202.266, 13.27795
1202.748, 13.52135
1203.230, 18.97797
1203.713, 22.44907
1204.195, 21.05263
1204.677, 17.10871
1205.159, 13.57736
1205.641, 10.90398
1206.123, 10.36983
1206.605, 12.81898
1207.087, 13.65471
1207.569, 11.40818
1208.052, 9.983617
1208.534, 11.12841
1209.016, 13.65367
1209.498, 16.49915
1209.980, 18.84382
1210.462, 18.97551
1210.944, 15.83549
1211.426, 13.36584
1211.908, 11.92221
1212.391, 11.08278
1212.873, 10.53924
1213.355, 10.65013
1213.837, 13.11076
1214.319, 16.33611
1214.801, 17.30588
1215.283, 14.23814
1215.765, 12.53624
1216.248, 12.76809
1216.730, 13.38971
1217.212, 13.73563
1217.694, 13.86323
1218.176, 13.51810
1218.658, 13.14244
1219.140, 13.50447
1219.622, 14.98372
1220.104, 17.12093
1220.587, 20.65351
1221.069, 22.04763
1221.551, 17.66740
1222.033, 11.89620
1222.515, 12.26041
1222.997, 15.73941
1223.479, 17.14158
1223.961, 14.13662
1224.443, 13.04154
1224.926, 14.07814
1225.408, 15.98624
1225.890, 19.11459
1226.372, 21.53208
1226.854, 20.17265
1227.336, 16.59055
1227.818, 13.24693
1228.300, 10.14055
1228.783, 8.247849
1229.265, 7.555144
1229.747, 8.310315
1230.229, 12.51985
1230.711, 16.32566
1231.193, 14.39100
1231.675, 9.725924
1232.157, 7.614777
1232.640, 9.159109
1233.122, 9.684649
1233.604, 9.099321
1234.086, 8.642740
1234.568, 9.039283
1235.050, 9.978857
1235.532, 11.20725
1236.014, 12.81793
1236.496, 15.20329
1236.979, 18.98608
1237.461, 19.63208
1237.943, 17.12188
1238.425, 15.00586
1238.907, 16.38429
1239.389, 18.02633
1239.871, 17.19039
1240.353, 15.55975
1240.835, 15.83269
1241.318, 18.31532
1241.800, 17.92126
1242.282, 14.81012
1242.764, 12.24501
1243.246, 13.06485
1243.728, 14.02589
1244.210, 13.02761
1244.692, 11.51225
1245.175, 10.92664
1245.657, 11.25390
1246.139, 12.48095
1246.621, 14.43847
1247.103, 15.77469
1247.585, 14.94058
1248.067, 14.35971
1248.549, 15.39129
1249.031, 16.63282
1249.514, 16.88943
1249.996, 16.20039
1250.478, 14.28592
1250.960, 11.48260
1251.442, 9.590117
1251.924, 10.31220
1252.406, 10.75210
1252.888, 9.607761
1253.371, 8.994702
1253.853, 11.80577
1254.335, 16.56984
1254.817, 18.40553
1255.299, 17.77998
1255.781, 16.85799
1256.263, 16.78159
1256.745, 15.73136
1257.228, 12.86614
1257.710, 10.52978
1258.192, 11.32503
1258.674, 13.84833
1259.156, 16.17163
1259.638, 17.85495
1260.120, 17.69869
1260.602, 12.93836
1261.084, 11.01408
1261.567, 12.68112
1262.049, 15.15884
1262.531, 16.38986
1263.013, 16.93583
1263.495, 18.35664
1263.977, 19.56817
1264.459, 17.28104
1264.941, 8.624958
1265.423, 5.720618
1265.906, 9.482398
1266.388, 14.11293
1266.870, 16.35330
1267.352, 16.63952
1267.834, 13.30803
1268.316, 9.139696
1268.798, 9.229260
1269.280, 14.58937
1269.763, 17.91628
1270.245, 19.08969
1270.727, 18.60805
1271.209, 14.74438
1271.691, 11.60682
1272.173, 12.99329
1272.655, 15.65933
1273.137, 15.48295
1273.620, 12.58744
1274.102, 12.29793
1274.584, 14.38962
1275.066, 16.58764
1275.548, 18.69437
1276.030, 19.32095
1276.512, 16.85195
1276.994, 13.99484
1277.476, 13.07731
1277.958, 13.68583
1278.441, 14.08859
1278.923, 14.27184
1279.405, 14.20120
1279.887, 13.78675
1280.369, 13.14222
1280.851, 11.99935
1281.333, 11.27032
1281.815, 12.00916
1282.298, 13.48334
1282.780, 14.14645
1283.262, 14.23906
1283.744, 14.32194
1284.226, 14.60763
1284.708, 14.72163
1285.190, 14.62147
1285.672, 14.54272
1286.155, 15.01987
1286.637, 15.21728
1287.119, 12.81849
1287.601, 9.932131
1288.083, 10.53963
1288.565, 15.68846
1289.047, 19.34043
1289.529, 21.51703
1290.011, 21.54831
1290.494, 17.62013
1290.976, 13.52171
1291.458, 12.26116
1291.940, 10.73690
1292.422, 12.16632
1292.904, 11.61484
1293.386, 13.25313
1293.868, 16.60576
1294.350, 18.16133
1294.833, 15.41627
1295.315, 12.56134
1295.797, 10.90283
##END=



