##NAMES=Nuffieldite
##RRUFFID=R110088
##IDEAL CHEMISTRY=Pb^2+^_2_Cu^1+^_1.4_(Pb^2+^_0.4_Bi^3+^_0.4_Sb^3+^_0.2_)Bi^3+^_2_S^2-^_7_
##LOCALITY=Crabtree quarry, Wake County, North Carolina, USA
##OWNER=RRUFF
##SOURCE=Mark N. Feinglos 
##DESCRIPTION=Bright silvery-white metallic massive associated with quartz
##STATUS=The identification of this mineral is confirmed by single-crystal X-ray diffraction and chemical analysis.
##URL=rruff.info/R110088
##MEASURED CHEMISTRY=Pb_2.00_(Cu_1.16_Sb_0.05_)_Σ=1.21_(Bi_0.64_Pb_0.18_Sb_0.18_)_Σ=1.00_Bi_2.00_S_7_
207.7936, 121.5360
208.2758, 121.3739
208.7579, 121.5883
209.2400, 122.4619
209.7221, 123.0934
210.2042, 123.3278
210.6863, 123.4718
211.1685, 123.7856
211.6506, 124.2971
212.1327, 124.7881
212.6148, 124.9195
213.0969, 124.3723
213.5790, 124.1368
214.0612, 124.4357
214.5433, 124.8827
215.0254, 125.1316
215.5075, 125.1126
215.9896, 125.0761
216.4717, 125.4089
216.9539, 126.4212
217.4360, 127.0400
217.9181, 126.8394
218.4002, 126.4418
218.8823, 126.5546
219.3644, 127.3521
219.8466, 128.2938
220.3287, 128.6251
220.8108, 128.2536
221.2929, 127.8294
221.7750, 127.1942
222.2571, 126.6431
222.7393, 126.6768
223.2214, 127.4742
223.7035, 128.4057
224.1856, 128.5800
224.6677, 128.0638
225.1498, 127.6716
225.6320, 127.6215
226.1141, 127.8206
226.5962, 128.1850
227.0783, 128.7789
227.5604, 129.3102
228.0425, 129.3701
228.5247, 129.0747
229.0068, 128.8985
229.4889, 129.1995
229.9710, 129.7318
230.4531, 129.9110
230.9352, 129.5632
231.4174, 129.0992
231.8995, 128.7944
232.3816, 128.6217
232.8637, 128.5263
233.3458, 128.5318
233.8279, 128.5991
234.3101, 128.6223
234.7922, 128.6644
235.2743, 128.5317
235.7564, 127.9070
236.2385, 127.0501
236.7206, 126.5083
237.2028, 126.7927
237.6849, 127.6545
238.1670, 127.9796
238.6491, 127.3462
239.1312, 126.7897
239.6133, 126.9788
240.0955, 127.4983
240.5776, 127.5999
241.0597, 126.6868
241.5418, 125.0454
242.0239, 124.0962
242.5060, 124.2259
242.9882, 124.5839
243.4703, 125.2364
243.9524, 125.8682
244.4345, 125.9781
244.9166, 125.1921
245.3987, 123.7632
245.8809, 122.9203
246.3630, 123.2211
246.8451, 123.4255
247.3272, 123.2307
247.8093, 122.8091
248.2914, 122.4020
248.7736, 122.1442
249.2557, 121.9775
249.7378, 121.6670
250.2199, 121.0682
250.7020, 120.4920
251.1841, 120.0505
251.6663, 119.6331
252.1484, 119.0239
252.6305, 118.1061
253.1126, 117.1040
253.5947, 116.7239
254.0768, 117.9308
254.5590, 118.6199
255.0411, 118.2674
255.5232, 117.4930
256.0053, 117.0194
256.4874, 117.1514
256.9695, 117.6055
257.4517, 117.6965
257.9338, 116.8992
258.4159, 116.3491
258.8980, 116.3079
259.3801, 116.4064
259.8622, 116.2691
260.3444, 115.7654
260.8265, 114.9952
261.3086, 114.1324
261.7907, 112.9137
262.2728, 112.0372
262.7549, 111.6324
263.2371, 111.5101
263.7192, 111.5242
264.2013, 111.6289
264.6834, 111.8061
265.1655, 112.0826
265.6476, 112.7195
266.1298, 112.7130
266.6119, 111.4966
267.0940, 109.9308
267.5761, 108.7915
268.0582, 108.2294
268.5403, 107.9698
269.0225, 107.7106
269.5046, 107.4420
269.9867, 107.2534
270.4688, 107.2518
270.9509, 107.2672
271.4330, 107.2242
271.9152, 107.0993
272.3973, 106.7449
272.8794, 105.9578
273.3615, 104.6936
273.8436, 103.5749
274.3257, 102.5665
274.8079, 101.7312
275.2900, 101.2156
275.7721, 100.9986
276.2542, 100.7669
276.7363, 100.1975
277.2184, 99.38545
277.7006, 99.01045
278.1827, 99.49502
278.6648, 100.0849
279.1469, 100.3448
279.6290, 100.2672
280.1111, 99.83409
280.5933, 98.82973
281.0754, 97.52300
281.5575, 96.80764
282.0396, 97.11989
282.5217, 97.48711
283.0038, 97.28965
283.4860, 96.61189
283.9681, 95.90320
284.4502, 95.39651
284.9323, 94.94620
285.4144, 94.23560
285.8965, 93.14943
286.3787, 92.09633
286.8608, 91.31290
287.3429, 90.75172
287.8250, 90.26724
288.3071, 89.91054
288.7892, 89.46795
289.2714, 88.55882
289.7535, 87.11892
290.2356, 85.80964
290.7177, 85.03487
291.1998, 84.62666
291.6819, 84.12364
292.1641, 83.39761
292.6462, 82.60766
293.1283, 81.93485
293.6104, 81.36562
294.0925, 80.78488
294.5746, 80.11211
295.0568, 79.40523
295.5389, 78.81783
296.0210, 78.42489
296.5031, 77.98069
296.9852, 77.29386
297.4673, 76.39698
297.9495, 75.29762
298.4316, 73.70399
298.9137, 72.02592
299.3958, 70.99462
299.8779, 70.75976
300.3600, 70.51350
300.8422, 69.60149
301.3243, 68.32877
301.8064, 67.21928
302.2885, 66.44318
302.7706, 65.80763
303.2527, 65.09749
303.7349, 64.30461
304.2170, 63.50965
304.6991, 62.71132
305.1812, 61.95583
305.6633, 61.30114
306.1454, 60.75786
306.6276, 60.31437
307.1097, 60.02745
307.5918, 59.88385
308.0739, 59.63054
308.5560, 59.14264
309.0381, 58.54202
309.5203, 57.94728
310.0024, 57.35114
310.4845, 56.84155
310.9666, 56.53125
311.4487, 56.37728
311.9308, 56.19031
312.4130, 55.99506
312.8951, 55.65749
313.3772, 54.99195
313.8593, 54.04985
314.3414, 53.18707
314.8235, 52.56981
315.3057, 52.16080
315.7878, 51.88446
316.2699, 51.78532
316.7520, 51.70227
317.2341, 51.50905
317.7162, 51.24363
318.1984, 50.98356
318.6805, 50.84448
319.1626, 50.68750
319.6447, 50.20279
320.1268, 49.29718
320.6089, 48.53592
321.0911, 48.40629
321.5732, 48.57644
322.0553, 48.61312
322.5374, 48.43893
323.0195, 48.09387
323.5016, 47.49047
323.9838, 46.62072
324.4659, 46.02563
324.9480, 46.09370
325.4301, 46.42620
325.9122, 46.56559
326.3943, 46.49110
326.8765, 46.21071
327.3586, 45.52396
327.8407, 44.55018
328.3228, 44.02692
328.8049, 44.35054
329.2870, 44.86343
329.7692, 44.84806
330.2513, 44.35230
330.7334, 43.88106
331.2155, 43.69957
331.6976, 43.71519
332.1797, 43.74603
332.6619, 43.81329
333.1440, 43.78233
333.6261, 43.41739
334.1082, 42.85790
334.5903, 42.43879
335.0724, 42.42301
335.5546, 42.52277
336.0367, 42.32718
336.5188, 41.80732
337.0009, 41.29047
337.4830, 40.91931
337.9651, 40.69603
338.4473, 40.63834
338.9294, 40.85932
339.4115, 41.07145
339.8936, 40.98637
340.3757, 40.64911
340.8578, 40.41484
341.3400, 40.47497
341.8221, 40.63888
342.3042, 40.55556
342.7863, 40.14787
343.2684, 39.91714
343.7505, 40.35081
344.2327, 41.13462
344.7148, 41.46181
345.1969, 41.07330
345.6790, 40.44032
346.1611, 40.04462
346.6432, 39.85262
347.1254, 39.78230
347.6075, 40.07235
348.0896, 40.34733
348.5717, 40.02145
349.0538, 39.02287
349.5359, 38.01960
350.0181, 37.46764
350.5002, 37.33490
350.9823, 37.34540
351.4644, 37.73526
351.9465, 38.05092
352.4286, 37.83423
352.9108, 37.21440
353.3929, 36.83797
353.8750, 37.09745
354.3571, 37.71707
354.8392, 38.00430
355.3214, 37.87971
355.8035, 37.66951
356.2856, 37.40274
356.7677, 37.14377
357.2498, 37.03107
357.7319, 37.11826
358.2141, 37.28327
358.6962, 37.39725
359.1783, 37.48718
359.6604, 37.36005
360.1425, 36.76005
360.6246, 36.07667
361.1068, 35.62702
361.5889, 35.45082
362.0710, 35.55302
362.5531, 36.04102
363.0352, 36.89124
363.5173, 37.22673
363.9995, 36.62952
364.4816, 35.98637
364.9637, 35.81969
365.4458, 35.95219
365.9279, 35.84571
366.4100, 35.17563
366.8922, 34.18388
367.3743, 33.68158
367.8564, 34.04436
368.3385, 34.32571
368.8206, 34.36461
369.3027, 34.27822
369.7849, 34.16315
370.2670, 34.05422
370.7491, 34.00849
371.2312, 34.12274
371.7133, 34.49431
372.1954, 34.72247
372.6776, 34.75813
373.1597, 34.70452
373.6418, 34.54483
374.1239, 34.33458
374.6060, 34.24558
375.0881, 34.44593
375.5703, 34.91921
376.0524, 35.11270
376.5345, 34.74928
377.0166, 34.43213
377.4987, 34.33036
377.9808, 34.34949
378.4630, 34.36899
378.9451, 34.33431
379.4272, 34.21439
379.9093, 33.91997
380.3914, 33.26437
380.8735, 32.74308
381.3557, 32.39507
381.8378, 32.15576
382.3199, 31.96258
382.8020, 31.81386
383.2841, 31.77360
383.7662, 31.95414
384.2484, 32.41465
384.7305, 32.68308
385.2126, 32.47288
385.6947, 32.34235
386.1768, 32.59978
386.6589, 33.06499
387.1411, 33.34580
387.6232, 33.17218
388.1053, 32.69781
388.5874, 32.47149
389.0695, 32.55856
389.5516, 32.78900
390.0338, 33.35662
390.5159, 33.90379
390.9980, 34.09436
391.4801, 33.83590
391.9622, 33.29622
392.4443, 32.50581
392.9265, 31.38208
393.4086, 30.83576
393.8907, 31.51921
394.3728, 32.31995
394.8549, 32.59896
395.3370, 32.42419
395.8192, 32.16682
396.3013, 31.97173
396.7834, 31.87698
397.2655, 32.09201
397.7476, 32.80518
398.2297, 33.33550
398.7119, 33.12591
399.1940, 32.58091
399.6761, 32.20346
400.1582, 32.14658
400.6403, 32.22788
401.1224, 32.31370
401.6046, 32.39916
402.0867, 32.38182
402.5688, 32.18051
403.0509, 31.91680
403.5330, 31.74125
404.0151, 31.65513
404.4973, 31.56909
404.9794, 31.36325
405.4615, 31.15478
405.9436, 31.18655
406.4257, 31.50908
406.9078, 31.88533
407.3900, 32.14764
407.8721, 32.29920
408.3542, 32.39022
408.8363, 32.50343
409.3184, 32.48486
409.8005, 31.99647
410.2827, 31.23969
410.7648, 30.99580
411.2469, 31.72051
411.7290, 32.92753
412.2111, 33.49008
412.6932, 33.22068
413.1754, 32.90128
413.6575, 32.49583
414.1396, 32.19338
414.6217, 32.34037
415.1038, 32.94172
415.5859, 33.44365
416.0681, 33.22007
416.5502, 32.15350
417.0323, 31.70661
417.5144, 32.33079
417.9965, 32.99456
418.4786, 33.36991
418.9608, 33.46832
419.4429, 33.31828
419.9250, 32.91898
420.4071, 32.41459
420.8892, 32.21614
421.3713, 32.63874
421.8535, 32.90038
422.3356, 32.99206
422.8177, 32.92001
423.2998, 32.56243
423.7819, 31.98068
424.2640, 31.49823
424.7462, 31.48795
425.2283, 31.99045
425.7104, 32.35833
426.1925, 32.44730
426.6746, 32.55096
427.1567, 32.80418
427.6389, 33.11543
428.1210, 33.34350
428.6031, 33.42302
429.0852, 33.37904
429.5673, 33.24158
430.0494, 32.98055
430.5316, 32.73483
431.0137, 32.41062
431.4958, 32.20620
431.9779, 32.33893
432.4600, 32.79061
432.9421, 33.23581
433.4243, 33.44844
433.9064, 33.45374
434.3885, 33.35487
434.8706, 33.13898
435.3527, 32.85824
435.8348, 32.37300
436.3170, 31.87059
436.7991, 31.71654
437.2812, 32.17673
437.7633, 32.76456
438.2454, 32.97807
438.7275, 32.87947
439.2097, 32.93275
439.6918, 33.39381
440.1739, 33.92850
440.6560, 33.94055
441.1381, 33.38233
441.6202, 33.03141
442.1024, 33.28174
442.5845, 33.75313
443.0666, 34.01142
443.5487, 34.02177
444.0308, 33.98922
444.5129, 34.07488
444.9951, 34.25673
445.4772, 34.32757
445.9593, 34.14756
446.4414, 34.03540
446.9235, 34.28919
447.4056, 34.61317
447.8878, 34.49653
448.3699, 33.77362
448.8520, 32.80040
449.3341, 32.08926
449.8162, 31.61975
450.2983, 31.52970
450.7805, 32.18291
451.2626, 32.82079
451.7447, 32.97487
452.2268, 32.77021
452.7089, 32.66493
453.1910, 33.00615
453.6732, 33.60087
454.1553, 33.56838
454.6374, 32.26865
455.1195, 31.43978
455.6016, 31.51925
456.0837, 32.00954
456.5659, 32.60320
457.0480, 33.20443
457.5301, 33.69182
458.0122, 33.91139
458.4943, 33.86853
458.9764, 33.79913
459.4586, 33.67493
459.9407, 33.57878
460.4228, 33.60336
460.9049, 33.67458
461.3870, 33.65354
461.8691, 33.46628
462.3513, 33.21007
462.8334, 33.01668
463.3155, 32.88160
463.7976, 32.65145
464.2797, 32.13900
464.7618, 31.68589
465.2440, 31.81880
465.7261, 32.54854
466.2082, 33.10743
466.6903, 33.22219
467.1724, 33.03915
467.6545, 32.64890
468.1367, 32.07972
468.6188, 31.52570
469.1009, 31.06171
469.5830, 30.73902
470.0651, 30.80358
470.5472, 31.67250
471.0294, 32.34492
471.5115, 32.51663
471.9936, 32.37410
472.4757, 32.12637
472.9578, 31.83379
473.4399, 31.46318
473.9221, 30.92750
474.4042, 30.12016
474.8863, 29.78829
475.3684, 30.29349
475.8505, 30.82765
476.3326, 31.19391
476.8148, 31.36401
477.2969, 31.30391
477.7790, 30.99210
478.2611, 30.53562
478.7432, 30.11903
479.2253, 29.65033
479.7075, 29.49409
480.1896, 30.02853
480.6717, 30.60748
481.1538, 30.84738
481.6359, 30.78942
482.1180, 30.74558
482.6002, 31.01859
483.0823, 31.42974
483.5644, 31.39888
484.0465, 30.78261
484.5286, 30.24711
485.0107, 30.02556
485.4929, 30.08514
485.9750, 30.50827
486.4571, 31.41470
486.9392, 32.09712
487.4213, 31.94559
487.9034, 31.28619
488.3856, 30.83026
488.8677, 30.69317
489.3498, 30.71341
489.8319, 30.81228
490.3140, 30.96915
490.7961, 30.97928
491.2783, 30.65632
491.7604, 30.38518
492.2425, 30.46256
492.7246, 30.69229
493.2067, 30.68296
493.6888, 30.29781
494.1710, 29.73151
494.6531, 29.26822
495.1352, 28.87935
495.6173, 28.70953
496.0994, 28.97679
496.5815, 29.21885
497.0637, 29.06861
497.5458, 28.72669
498.0279, 28.72476
498.5100, 29.40922
498.9921, 30.36808
499.4742, 30.45901
499.9564, 29.17321
500.4385, 28.31180
500.9206, 28.47588
501.4027, 28.85792
501.8848, 28.98753
502.3669, 28.86341
502.8491, 28.74873
503.3312, 28.89820
503.8133, 29.17148
504.2954, 29.10602
504.7775, 28.59423
505.2596, 28.26245
505.7418, 28.52989
506.2239, 29.08032
506.7060, 29.50739
507.1881, 29.82551
507.6702, 29.86670
508.1523, 29.35470
508.6345, 28.57342
509.1166, 27.92197
509.5987, 27.45720
510.0808, 27.33041
510.5629, 27.80740
511.0450, 28.78876
511.5272, 29.14700
512.0093, 28.33679
512.4914, 27.64158
512.9735, 27.48962
513.4556, 27.64344
513.9377, 27.86068
514.4199, 28.04662
514.9020, 28.08277
515.3841, 27.74948
515.8662, 26.92207
516.3483, 26.58722
516.8304, 27.26974
517.3126, 27.90164
517.7947, 28.27985
518.2768, 28.39151
518.7589, 28.20790
519.2410, 27.70766
519.7231, 27.06392
520.2053, 26.44271
520.6874, 25.82652
521.1695, 25.52541
521.6516, 25.67605
522.1337, 26.04534
522.6158, 26.54442
523.0980, 27.11903
523.5801, 27.61543
524.0622, 27.98956
524.5443, 28.25055
525.0264, 28.41395
525.5085, 28.47543
525.9907, 28.38262
526.4728, 28.08660
526.9549, 27.69367
527.4370, 27.31645
527.9191, 26.91488
528.4012, 26.75559
528.8834, 27.08122
529.3655, 27.47234
529.8476, 27.60353
530.3297, 27.54719
530.8118, 27.58294
531.2939, 27.87061
531.7761, 28.28027
532.2582, 28.48295
532.7403, 28.41529
533.2224, 28.24105
533.7045, 27.84888
534.1866, 27.46562
534.6688, 27.17902
535.1509, 27.01703
535.6330, 27.03647
536.1151, 27.34898
536.5972, 27.76961
537.0793, 27.73852
537.5615, 27.11928
538.0436, 26.61108
538.5257, 26.45524
539.0078, 26.47080
539.4899, 26.49501
539.9720, 26.52593
540.4542, 26.65355
540.9363, 27.07180
541.4184, 27.53801
541.9005, 27.65726
542.3826, 27.43296
542.8647, 27.20020
543.3469, 27.14266
543.8290, 27.17758
544.3111, 27.08621
544.7932, 26.83045
545.2753, 26.56209
545.7574, 26.21858
546.2396, 25.92857
546.7217, 25.80778
547.2038, 25.85210
547.6859, 25.99523
548.1680, 26.19599
548.6501, 26.44776
549.1323, 26.74146
549.6144, 27.25136
550.0965, 27.48367
550.5786, 27.25138
551.0607, 26.86717
551.5428, 26.48347
552.0250, 26.15319
552.5071, 25.95196
552.9892, 25.97813
553.4713, 26.15890
553.9534, 26.27874
554.4355, 26.32226
554.9177, 26.38909
555.3998, 26.59211
555.8819, 26.78130
556.3640, 26.74369
556.8461, 26.44943
557.3282, 26.14895
557.8104, 25.98750
558.2925, 25.84153
558.7746, 25.49039
559.2567, 24.96336
559.7388, 24.58036
560.2209, 24.53820
560.7031, 24.76518
561.1852, 25.03252
561.6673, 25.45547
562.1494, 25.75619
562.6315, 25.86317
563.1136, 25.90002
563.5958, 26.07271
564.0779, 26.28334
564.5600, 26.12731
565.0421, 25.22791
565.5242, 23.91236
566.0063, 23.30959
566.4885, 23.61700
566.9706, 24.06860
567.4527, 24.76844
567.9348, 25.34032
568.4169, 25.44785
568.8990, 25.13043
569.3812, 24.77757
569.8633, 24.50483
570.3454, 24.36210
570.8275, 24.48141
571.3096, 24.84517
571.7917, 25.26760
572.2739, 25.81839
572.7560, 26.14963
573.2381, 25.44193
573.7202, 23.23758
574.2023, 21.84902
574.6844, 21.95704
575.1666, 22.53448
575.6487, 23.08816
576.1308, 23.51259
576.6129, 23.69782
577.0950, 23.57695
577.5771, 23.30657
578.0593, 23.26691
578.5414, 23.63171
579.0235, 23.75079
579.5056, 23.25302
579.9877, 22.81965
580.4698, 22.81718
580.9520, 23.11811
581.4341, 23.39468
581.9162, 23.49816
582.3983, 23.51952
582.8804, 23.63742
583.3625, 23.82405
583.8447, 23.73210
584.3268, 23.18453
584.8089, 22.56073
585.2910, 22.29601
585.7731, 22.34831
586.2552, 22.27840
586.7374, 21.57837
587.2195, 21.23930
587.7016, 22.16329
588.1837, 23.69856
588.6658, 24.69629
589.1479, 24.81731
589.6301, 24.53405
590.1122, 24.40077
590.5943, 24.42766
591.0764, 24.51579
591.5585, 24.88710
592.0406, 25.05156
592.5228, 24.75979
593.0049, 24.26364
593.4870, 23.81377
593.9691, 23.47971
594.4512, 23.30429
594.9333, 23.42307
595.4155, 23.75087
595.8976, 23.85673
596.3797, 23.63876
596.8618, 23.56728
597.3439, 24.08134
597.8260, 24.86446
598.3082, 25.11412
598.7903, 24.57009
599.2724, 24.15301
599.7545, 24.41611
600.2366, 24.79324
600.7188, 24.61822
601.2009, 23.90197
601.6830, 23.08337
602.1651, 22.42607
602.6472, 21.96317
603.1293, 21.82920
603.6115, 22.14845
604.0936, 22.58321
604.5757, 23.40858
605.0578, 24.06956
605.5399, 24.04168
606.0220, 23.52423
606.5042, 23.22863
606.9863, 23.68570
607.4684, 24.37015
607.9505, 24.34999
608.4326, 23.64460
608.9147, 23.04573
609.3969, 22.75909
609.8790, 22.64282
610.3611, 22.56347
610.8432, 22.52135
611.3253, 22.54765
611.8074, 22.73587
612.2896, 22.89927
612.7717, 23.02166
613.2538, 23.02959
613.7359, 22.69592
614.2180, 21.98759
614.7001, 21.31366
615.1823, 21.16764
615.6644, 21.57285
616.1465, 22.03875
616.6286, 22.81684
617.1107, 23.28988
617.5928, 23.03149
618.0750, 22.56664
618.5571, 22.51306
619.0392, 22.96750
619.5213, 23.34779
620.0034, 23.08762
620.4855, 22.47027
620.9677, 22.12116
621.4498, 22.07149
621.9319, 22.17200
622.4140, 22.43743
622.8961, 22.71488
623.3782, 22.60459
623.8604, 21.88568
624.3425, 21.52449
624.8246, 21.97942
625.3067, 22.51585
625.7888, 22.66098
626.2709, 22.47327
626.7531, 22.21879
627.2352, 22.03083
627.7173, 21.78583
628.1994, 21.06766
628.6815, 19.60537
629.1636, 19.23314
629.6458, 21.02444
630.1279, 22.66129
630.6100, 22.70322
631.0921, 21.89610
631.5742, 21.63525
632.0563, 22.49053
632.5385, 23.25318
633.0206, 22.79303
633.5027, 21.68963
633.9848, 21.12902
634.4669, 21.27749
634.9490, 21.56128
635.4312, 21.55326
635.9133, 21.34609
636.3954, 21.38161
636.8775, 21.93168
637.3596, 22.36535
637.8417, 22.72374
638.3239, 22.90927
638.8060, 22.72841
639.2881, 22.29906
639.7702, 21.97048
640.2523, 21.95603
640.7344, 22.14590
641.2166, 22.37012
641.6987, 22.63450
642.1808, 22.82648
642.6629, 22.95985
643.1450, 22.95821
643.6271, 22.63559
644.1093, 22.09504
644.5914, 21.72660
645.0735, 21.64676
645.5556, 21.67816
646.0377, 21.78336
646.5198, 21.93103
647.0020, 22.09420
647.4841, 22.25821
647.9662, 22.38717
648.4483, 22.45075
648.9304, 22.44980
649.4125, 22.37381
649.8947, 22.10436
650.3768, 21.98754
650.8589, 22.33763
651.3410, 22.65064
651.8231, 22.44450
652.3052, 21.82096
652.7874, 21.39007
653.2695, 21.52000
653.7516, 21.93243
654.2337, 22.47396
654.7158, 23.04663
655.1979, 23.11902
655.6801, 22.48357
656.1622, 21.63271
656.6443, 21.05902
657.1264, 20.76585
657.6085, 20.73797
658.0906, 21.16691
658.5728, 21.58130
659.0549, 21.96953
659.5370, 22.23107
660.0191, 22.16365
660.5012, 21.81088
660.9833, 21.56388
661.4655, 21.84682
661.9476, 22.42059
662.4297, 22.45448
662.9118, 21.86399
663.3939, 21.41469
663.8760, 21.41931
664.3582, 21.56987
664.8403, 21.47766
665.3224, 21.16613
665.8045, 20.94174
666.2866, 20.84932
666.7687, 20.85912
667.2509, 20.98163
667.7330, 21.18708
668.2151, 21.48378
668.6972, 21.85061
669.1793, 22.12098
669.6614, 22.09748
670.1436, 21.80568
670.6257, 21.62752
671.1078, 21.64303
671.5899, 21.60557
672.0720, 21.37819
672.5541, 21.11826
673.0363, 20.91554
673.5184, 20.78507
674.0005, 20.77331
674.4826, 21.04575
674.9647, 21.32873
675.4468, 21.25105
675.9290, 20.95236
676.4111, 20.90911
676.8932, 21.27423
677.3753, 21.70491
677.8574, 21.78628
678.3395, 21.50156
678.8217, 21.30373
679.3038, 21.25855
679.7859, 21.22009
680.2680, 21.09118
680.7501, 21.00834
681.2322, 21.16270
681.7144, 21.52663
682.1965, 21.81955
682.6786, 21.86981
683.1607, 21.72793
683.6428, 21.36269
684.1249, 20.82017
684.6071, 20.53761
685.0892, 20.68240
685.5713, 21.00097
686.0534, 21.24665
686.5355, 21.42266
687.0176, 21.40726
687.4998, 20.82001
687.9819, 20.53478
688.4640, 21.16478
688.9461, 21.95421
689.4282, 22.04757
689.9103, 21.42042
690.3925, 20.75211
690.8746, 20.56004
691.3567, 20.68205
691.8388, 20.74074
692.3209, 20.73209
692.8030, 20.76310
693.2852, 20.85383
693.7673, 21.01242
694.2494, 21.33115
694.7315, 21.78122
695.2136, 21.94075
695.6957, 21.53144
696.1779, 21.14921
696.6600, 21.01978
697.1421, 21.01087
697.6242, 21.00602
698.1063, 20.96844
698.5884, 20.88291
699.0706, 20.74982
699.5527, 20.54032
700.0348, 20.05485
700.5169, 19.17890
700.9990, 18.81256
701.4811, 19.37064
701.9633, 20.14472
702.4454, 20.58371
702.9275, 20.75155
703.4096, 20.84427
703.8917, 20.90956
704.3738, 20.87279
704.8560, 20.55512
705.3381, 20.20256
705.8202, 20.19256
706.3023, 20.49019
706.7844, 20.67607
707.2665, 20.44058
707.7487, 19.97591
708.2308, 19.83427
708.7129, 20.09680
709.1950, 20.31850
709.6771, 20.56198
710.1592, 20.59855
710.6414, 20.06389
711.1235, 19.25906
711.6056, 18.85766
712.0877, 19.12930
712.5698, 19.43509
713.0519, 19.42484
713.5341, 19.30558
714.0162, 19.31770
714.4983, 19.46673
714.9804, 19.65668
715.4625, 19.83883
715.9446, 19.99233
716.4268, 20.08116
716.9089, 20.11327
717.3910, 20.02622
717.8731, 19.59653
718.3552, 19.35772
718.8373, 19.81337
719.3195, 20.49894
719.8016, 20.69943
720.2837, 20.23663
720.7658, 19.74964
721.2479, 19.41908
721.7300, 19.30544
722.2122, 19.73179
722.6943, 20.46290
723.1764, 20.62122
723.6585, 19.81528
724.1406, 18.72056
724.6227, 18.39791
725.1049, 18.93734
725.5870, 19.38319
726.0691, 19.74591
726.5512, 19.99184
727.0333, 20.11958
727.5154, 20.12272
727.9976, 19.92222
728.4797, 19.52259
728.9618, 19.22519
729.4439, 19.24416
729.9260, 19.34506
730.4081, 19.37644
730.8903, 19.31388
731.3724, 19.05484
731.8545, 18.58627
732.3366, 18.14633
732.8187, 17.97760
733.3008, 18.07167
733.7830, 18.35905
734.2651, 19.04246
734.7472, 19.47833
735.2293, 19.14635
735.7114, 18.83135
736.1935, 19.26618
736.6757, 20.25915
737.1578, 20.89355
737.6399, 20.83484
738.1220, 20.41051
738.6041, 19.51350
739.0862, 18.52409
739.5684, 18.10987
740.0505, 18.32098
740.5326, 18.72369
741.0147, 19.01549
741.4968, 19.24286
741.9789, 19.56338
742.4611, 20.02317
742.9432, 20.41263
743.4253, 20.79754
743.9074, 20.99217
744.3895, 20.75706
744.8716, 20.30609
745.3538, 20.07477
745.8359, 20.24683
746.3180, 20.25399
746.8001, 19.52474
747.2822, 18.73617
747.7643, 18.73437
748.2465, 19.32432
748.7286, 19.69911
749.2107, 19.49068
749.6928, 19.06711
750.1749, 18.98871
750.6570, 19.27472
751.1392, 19.52142
751.6213, 19.77136
752.1034, 19.88210
752.5855, 19.70776
753.0676, 19.42387
753.5497, 19.27360
754.0319, 19.26605
754.5140, 19.14300
754.9961, 18.57161
755.4782, 18.15030
755.9603, 18.35000
756.4424, 18.89315
756.9246, 19.46481
757.4067, 19.92915
757.8888, 20.03901
758.3709, 19.45899
758.8530, 18.50251
759.3351, 18.31123
759.8173, 18.98405
760.2994, 19.60074
760.7815, 20.05382
761.2636, 20.24822
761.7457, 20.02364
762.2278, 19.44865
762.7100, 18.87562
763.1921, 18.07260
763.6742, 17.64575
764.1563, 18.01807
764.6384, 18.59088
765.1205, 18.96472
765.6027, 19.10189
766.0848, 19.02502
766.5669, 18.73308
767.0490, 18.42259
767.5311, 18.30759
768.0132, 18.39249
768.4954, 18.79369
768.9775, 19.57404
769.4596, 20.19551
769.9417, 20.41771
770.4238, 20.30872
770.9059, 19.92050
771.3881, 19.10315
771.8702, 18.63058
772.3523, 18.50343
772.8344, 18.70228
773.3165, 19.59789
773.7986, 20.59372
774.2808, 21.04856
774.7629, 20.87809
775.2450, 20.39486
775.7271, 19.61365
776.2092, 18.82399
776.6913, 18.52162
777.1735, 18.60240
777.6556, 18.57793
778.1377, 18.32494
778.6198, 18.29285
779.1019, 18.93357
779.5840, 20.06874
780.0662, 20.77934
780.5483, 20.92620
781.0304, 20.90570
781.5125, 20.57368
781.9946, 20.25218
782.4767, 20.15020
782.9589, 20.15670
783.4410, 20.02877
783.9231, 19.66968
784.4052, 19.36582
784.8873, 19.24711
785.3694, 19.30520
785.8516, 19.68767
786.3337, 20.25104
786.8158, 20.53148
787.2979, 20.34483
787.7800, 19.87957
788.2621, 19.25891
788.7443, 18.51303
789.2264, 18.63964
789.7085, 20.15481
790.1906, 21.07768
790.6727, 20.41329
791.1548, 19.33351
791.6370, 19.07232
792.1191, 19.50018
792.6012, 19.71980
793.0833, 19.31971
793.5654, 19.04019
794.0475, 19.36992
794.5297, 19.81029
795.0118, 19.75431
795.4939, 19.29416
795.9760, 19.01650
796.4581, 19.27548
796.9402, 19.65920
797.4224, 19.36795
797.9045, 18.56991
798.3866, 18.56023
798.8687, 19.55236
799.3508, 20.32484
799.8329, 20.19804
800.3151, 19.57269
800.7972, 19.15403
801.2793, 18.93520
801.7614, 18.95693
802.2435, 19.46029
802.7256, 19.88507
803.2078, 20.01695
803.6899, 20.02446
804.1720, 20.03512
804.6541, 20.09191
805.1362, 20.29349
805.6183, 20.93944
806.1005, 21.46339
806.5826, 21.06383
807.0647, 20.13445
807.5468, 19.56220
808.0289, 19.48594
808.5110, 19.57740
808.9932, 19.61017
809.4753, 19.62988
809.9574, 19.78594
810.4395, 20.14213
810.9216, 20.34746
811.4037, 20.34723
811.8859, 20.25662
812.3680, 20.10226
812.8501, 19.90427
813.3322, 19.65280
813.8143, 19.31772
814.2964, 19.15463
814.7786, 19.31884
815.2607, 19.56678
815.7428, 19.82988
816.2249, 20.05280
816.7070, 20.17619
817.1891, 20.18576
817.6713, 20.05706
818.1534, 19.65474
818.6355, 19.28224
819.1176, 19.76362
819.5997, 20.93648
820.0818, 21.42384
820.5640, 20.92066
821.0461, 20.30263
821.5282, 20.20525
822.0103, 20.42084
822.4924, 20.28483
822.9745, 19.36810
823.4567, 19.05945
823.9388, 20.00490
824.4209, 20.81279
824.9030, 20.81891
825.3851, 20.49865
825.8672, 20.53689
826.3494, 21.02137
826.8315, 21.31247
827.3136, 20.92997
827.7957, 20.40587
828.2778, 20.09575
828.7599, 20.00102
829.2421, 20.16300
829.7242, 20.55132
830.2063, 20.99272
830.6884, 21.38160
831.1705, 21.66527
831.6526, 21.64365
832.1348, 21.30130
832.6169, 21.16397
833.0990, 21.36056
833.5811, 21.54986
834.0632, 21.56449
834.5453, 21.41460
835.0275, 21.08867
835.5096, 20.46865
835.9917, 20.03432
836.4738, 19.82435
836.9559, 19.75553
837.4380, 19.80035
837.9202, 19.96711
838.4023, 20.43017
838.8844, 21.10251
839.3665, 21.38999
839.8486, 20.68082
840.3307, 19.81464
840.8129, 19.73993
841.2950, 20.10470
841.7771, 20.21708
842.2592, 19.98972
842.7413, 19.62578
843.2234, 19.23052
843.7056, 18.93176
844.1877, 19.06395
844.6698, 19.67644
845.1519, 20.08845
845.6340, 20.24146
846.1161, 20.29445
846.5983, 20.25593
847.0804, 20.20600
847.5625, 20.28450
848.0446, 20.50475
848.5267, 20.62258
849.0089, 20.60070
849.4910, 20.51073
849.9731, 20.26435
850.4552, 20.04167
850.9373, 20.06057
851.4194, 20.25264
851.9016, 20.33073
852.3837, 20.11783
852.8658, 19.95253
853.3479, 20.32732
853.8300, 20.87594
854.3121, 20.85086
854.7943, 20.33065
855.2764, 19.92615
855.7585, 19.90161
856.2406, 20.12430
856.7227, 20.50005
857.2048, 20.98793
857.6870, 20.98091
858.1691, 20.29318
858.6512, 19.85647
859.1333, 19.97519
859.6154, 20.29873
860.0975, 20.63693
860.5797, 20.93532
861.0618, 20.90600
861.5439, 20.24554
862.0260, 19.77335
862.5081, 19.50910
862.9902, 19.52109
863.4724, 20.15123
863.9545, 20.96764
864.4366, 21.24682
864.9187, 20.82394
865.4008, 20.29236
865.8829, 19.95011
866.3651, 19.77983
866.8472, 19.75406
867.3293, 19.88284
867.8114, 20.31581
868.2935, 21.01733
868.7756, 21.51162
869.2578, 21.42559
869.7399, 20.92032
870.2220, 20.25789
870.7041, 19.40870
871.1862, 19.19247
871.6683, 19.89440
872.1505, 20.42501
872.6326, 20.16117
873.1147, 19.47638
873.5968, 18.95048
874.0789, 18.56582
874.5610, 18.44854
875.0432, 18.66965
875.5253, 19.04951
876.0074, 19.96350
876.4895, 20.68816
876.9716, 20.34754
877.4537, 19.24214
877.9359, 18.59843
878.4180, 18.92267
878.9001, 19.53472
879.3822, 20.30230
879.8643, 20.93024
880.3464, 21.00959
880.8286, 20.65988
881.3107, 20.22538
881.7928, 19.84469
882.2749, 19.54155
882.7570, 19.37328
883.2391, 19.29057
883.7213, 19.13444
884.2034, 18.90957
884.6855, 18.62221
885.1676, 18.22677
885.6497, 18.17438
886.1318, 18.95292
886.6140, 20.19082
887.0961, 20.55993
887.5782, 19.53669
888.0603, 19.00712
888.5424, 19.41615
889.0245, 19.71829
889.5067, 19.28396
889.9888, 18.65015
890.4709, 18.42974
890.9530, 18.64593
891.4351, 18.96742
891.9172, 19.54444
892.3994, 19.94358
892.8815, 19.97921
893.3636, 19.76255
893.8457, 19.27150
894.3278, 18.63805
894.8099, 18.15915
895.2921, 17.96538
895.7742, 17.91576
896.2563, 17.89306
896.7384, 17.91843
897.2205, 18.05549
897.7026, 18.27856
898.1848, 18.53202
898.6669, 18.78792
899.1490, 18.84175
899.6311, 18.42220
900.1132, 17.73758
900.5953, 17.64198
901.0775, 18.19431
901.5596, 18.65932
902.0417, 18.92608
902.5238, 19.14444
903.0059, 19.45164
903.4880, 19.71455
903.9702, 19.61540
904.4523, 18.99230
904.9344, 18.66100
905.4165, 19.02169
905.8986, 19.15461
906.3807, 18.62548
906.8629, 17.96902
907.3450, 17.62158
907.8271, 17.56640
908.3092, 17.62429
908.7913, 17.85386
909.2734, 17.97311
909.7556, 17.65980
910.2377, 17.35312
910.7198, 17.40752
911.2019, 17.78663
911.6840, 18.53719
912.1661, 19.59038
912.6483, 20.25453
913.1304, 19.70550
913.6125, 18.63827
914.0946, 18.15681
914.5767, 18.12189
915.0588, 18.10894
915.5410, 18.04235
916.0231, 17.98887
916.5052, 17.98172
916.9873, 18.06608
917.4694, 18.47872
917.9515, 19.25719
918.4337, 19.13905
918.9158, 17.83742
919.3979, 16.97804
919.8800, 17.27804
920.3621, 17.90031
920.8442, 17.95288
921.3264, 17.50169
921.8085, 17.24566
922.2906, 17.35248
922.7727, 17.37939
923.2548, 17.11415
923.7369, 16.97817
924.2191, 17.24931
924.7012, 17.73921
925.1833, 18.18858
925.6654, 18.56997
926.1475, 18.85604
926.6296, 19.27402
927.1118, 19.31424
927.5939, 18.20426
928.0760, 16.94412
928.5581, 16.76378
929.0402, 17.48674
929.5223, 18.09700
930.0045, 18.14626
930.4866, 18.00238
930.9687, 17.99330
931.4508, 18.01010
931.9329, 17.84210
932.4150, 17.54896
932.8972, 17.32347
933.3793, 17.22434
933.8614, 17.24447
934.3435, 17.40954
934.8256, 17.61916
935.3077, 17.57229
935.7899, 17.29559
936.2720, 17.19368
936.7541, 17.32074
937.2362, 17.48697
937.7183, 17.58715
938.2004, 17.73388
938.6826, 18.17860
939.1647, 18.00942
939.6468, 17.71554
940.1289, 17.76500
940.6110, 16.83835
941.0931, 16.47863
941.5753, 16.38123
942.0574, 16.41185
942.5395, 16.53204
943.0216, 16.64825
943.5037, 16.79522
943.9858, 16.83086
944.4680, 16.56561
944.9501, 16.40440
945.4322, 16.58799
945.9143, 16.88490
946.3964, 17.02464
946.8785, 17.03643
947.3607, 17.18788
947.8428, 17.70145
948.3249, 18.08160
948.8070, 17.87326
949.2891, 17.57014
949.7712, 17.76669
950.2534, 18.19587
950.7355, 18.21872
951.2176, 17.70700
951.6997, 17.15320
952.1818, 16.93206
952.6639, 16.86678
953.1461, 16.66388
953.6282, 16.44479
954.1103, 16.60922
954.5924, 17.10761
955.0745, 17.36043
955.5566, 17.07611
956.0388, 16.68000
956.5209, 16.81851
957.0030, 17.34517
957.4851, 17.49780
957.9672, 17.27856
958.4493, 16.89922
958.9315, 16.35026
959.4136, 16.14933
959.8957, 16.77749
960.3778, 17.81953
960.8599, 18.14892
961.3420, 17.56190
961.8242, 17.35087
962.3063, 17.79777
962.7884, 17.89286
963.2705, 17.02070
963.7526, 16.04890
964.2347, 15.90429
964.7169, 16.46462
965.1990, 16.83099
965.6811, 16.79803
966.1632, 16.88414
966.6453, 17.40403
967.1274, 17.68259
967.6096, 17.20740
968.0917, 16.46615
968.5738, 16.03086
969.0559, 15.94517
969.5380, 16.06007
970.0201, 16.56332
970.5023, 16.96280
970.9844, 16.96096
971.4665, 16.90028
971.9486, 17.13437
972.4307, 17.50535
972.9128, 17.59730
973.3950, 17.31140
973.8771, 17.15645
974.3592, 17.61505
974.8413, 18.15167
975.3234, 18.33621
975.8055, 18.27414
976.2877, 18.08985
976.7698, 17.82278
977.2519, 17.47677
977.7340, 17.04835
978.2161, 16.68816
978.6982, 16.60361
979.1804, 16.67648
979.6625, 16.70781
980.1446, 16.69769
980.6267, 16.64806
981.1088, 16.56752
981.5909, 16.53721
982.0731, 16.63087
982.5552, 16.69728
983.0373, 16.33815
983.5194, 15.65751
984.0015, 15.43456
984.4836, 15.69151
984.9658, 16.14106
985.4479, 16.72449
985.9300, 17.17825
986.4121, 17.23145
986.8942, 17.00538
987.3763, 16.95331
987.8585, 17.12049
988.3406, 17.15400
988.8227, 17.00358
989.3048, 16.81639
989.7869, 16.60036
990.2690, 16.47438
990.7512, 16.61252
991.2333, 16.98769
991.7154, 17.25089
992.1975, 17.30066
992.6796, 17.46937
993.1617, 18.05694
993.6439, 18.37823
994.1260, 17.89548
994.6081, 17.08407
995.0902, 16.55897
995.5723, 16.31847
996.0544, 16.38068
996.5366, 17.19921
997.0187, 17.67087
997.5008, 17.37833
997.9829, 16.93563
998.4650, 16.65748
998.9471, 16.50982
999.4293, 16.40828
999.9114, 16.34073
1000.393, 16.32894
1000.876, 16.43007
1001.358, 16.52304
1001.840, 16.54987
1002.322, 16.55260
1002.804, 16.64100
1003.286, 16.72078
1003.768, 16.50309
1004.250, 15.88407
1004.733, 15.46192
1005.215, 15.73329
1005.697, 16.13231
1006.179, 16.22191
1006.661, 16.19497
1007.143, 16.33220
1007.625, 16.60915
1008.107, 16.85011
1008.589, 16.98764
1009.072, 16.98647
1009.554, 16.60468
1010.036, 16.24267
1010.518, 16.51186
1011.000, 17.12377
1011.482, 17.61586
1011.964, 17.83228
1012.446, 17.51701
1012.929, 16.46815
1013.411, 15.41906
1013.893, 15.32569
1014.375, 15.82451
1014.857, 16.30248
1015.339, 16.70300
1015.821, 16.94790
1016.303, 17.01236
1016.785, 16.81454
1017.268, 16.25202
1017.750, 15.69310
1018.232, 15.90149
1018.714, 16.63110
1019.196, 16.78459
1019.678, 16.40189
1020.160, 16.13519
1020.642, 16.16531
1021.125, 16.41702
1021.607, 16.87256
1022.089, 17.35665
1022.571, 17.48703
1023.053, 17.26989
1023.535, 16.69081
1024.017, 15.72184
1024.499, 15.09413
1024.981, 15.04385
1025.464, 15.35631
1025.946, 15.88282
1026.428, 16.53935
1026.910, 17.12405
1027.392, 17.67743
1027.874, 17.65118
1028.356, 16.84015
1028.838, 16.42047
1029.321, 16.94448
1029.803, 17.55310
1030.285, 17.34733
1030.767, 16.55945
1031.249, 16.26635
1031.731, 16.64642
1032.213, 16.85206
1032.695, 16.89710
1033.177, 16.61353
1033.660, 15.64998
1034.142, 14.82964
1034.624, 15.16915
1035.106, 16.41167
1035.588, 16.93046
1036.070, 16.41443
1036.552, 15.90456
1037.034, 15.30091
1037.516, 14.91013
1037.999, 14.88429
1038.481, 15.09171
1038.963, 15.49862
1039.445, 16.04779
1039.927, 16.28161
1040.409, 15.69242
1040.891, 15.69522
1041.373, 17.11611
1041.855, 18.07919
1042.338, 17.37535
1042.820, 16.26237
1043.302, 16.12136
1043.784, 16.80547
1044.266, 17.13888
1044.748, 16.84500
1045.230, 16.60865
1045.712, 16.39683
1046.195, 16.32967
1046.677, 16.66302
1047.159, 17.01684
1047.641, 16.91293
1048.123, 16.41561
1048.605, 16.05771
1049.087, 15.83970
1049.569, 15.86368
1050.052, 16.50368
1050.534, 16.96576
1051.016, 16.73075
1051.498, 16.23877
1051.980, 15.92496
1052.462, 15.81927
1052.944, 15.86824
1053.426, 16.22419
1053.908, 16.40368
1054.391, 16.24931
1054.873, 15.94947
1055.355, 15.45447
1055.837, 14.96565
1056.319, 14.60625
1056.801, 14.44427
1057.283, 14.72785
1057.765, 15.82333
1058.248, 16.62787
1058.730, 16.68268
1059.212, 16.52215
1059.694, 16.39597
1060.176, 16.25057
1060.658, 15.92430
1061.140, 15.48885
1061.622, 15.27566
1062.104, 15.43131
1062.587, 15.65130
1063.069, 15.68165
1063.551, 15.90925
1064.033, 17.07357
1064.515, 18.19682
1064.997, 17.86564
1065.479, 16.41554
1065.961, 15.50123
1066.443, 15.69735
1066.926, 16.09742
1067.408, 16.66015
1067.890, 16.94580
1068.372, 16.42186
1068.854, 15.67380
1069.336, 15.27580
1069.818, 15.28076
1070.300, 15.61559
1070.782, 16.34056
1071.265, 16.99562
1071.747, 17.55147
1072.229, 17.78074
1072.711, 17.21580
1073.193, 16.50422
1073.675, 16.43563
1074.157, 16.84375
1074.639, 17.06013
1075.122, 16.88648
1075.604, 16.61245
1076.086, 16.28539
1076.568, 15.99729
1077.050, 15.89025
1077.532, 15.77899
1078.014, 15.31207
1078.496, 14.70896
1078.979, 14.57916
1079.461, 15.09880
1079.943, 15.66319
1080.425, 16.10339
1080.907, 16.38039
1081.389, 16.28436
1081.871, 16.17330
1082.353, 16.49310
1082.835, 17.03875
1083.318, 17.31028
1083.800, 17.19719
1084.282, 17.04580
1084.764, 17.04713
1085.246, 16.99174
1085.728, 16.67568
1086.210, 16.34966
1086.692, 16.27899
1087.175, 16.34013
1087.657, 16.26089
1088.139, 16.00643
1088.621, 15.83998
1089.103, 15.95188
1089.585, 16.05177
1090.067, 16.02614
1090.549, 15.92920
1091.031, 15.74458
1091.514, 15.54732
1091.996, 15.46097
1092.478, 15.48495
1092.960, 15.47954
1093.442, 15.41146
1093.924, 15.28309
1094.406, 14.78632
1094.888, 14.56298
1095.370, 15.40115
1095.853, 16.52121
1096.335, 16.86143
1096.817, 16.47016
1097.299, 16.20599
1097.781, 16.42180
1098.263, 16.45111
1098.745, 15.72265
1099.227, 15.18074
1099.709, 15.69460
1100.192, 16.36201
1100.674, 15.92497
1101.156, 14.77685
1101.638, 14.58182
1102.120, 16.04649
1102.602, 16.95679
1103.084, 16.32601
1103.566, 15.62206
1104.049, 15.32904
1104.531, 15.28713
1105.013, 15.47837
1105.495, 15.76427
1105.977, 15.83893
1106.459, 15.63000
1106.941, 15.46016
1107.423, 15.39276
1107.906, 15.35638
1108.388, 15.32179
1108.870, 15.32351
1109.352, 15.37982
1109.834, 15.49065
1110.316, 15.74328
1110.798, 16.16600
1111.280, 16.17480
1111.762, 15.11341
1112.245, 14.55898
1112.727, 15.02923
1113.209, 15.67072
1113.691, 16.23440
1114.173, 16.63599
1114.655, 16.67452
1115.137, 16.39134
1115.619, 16.35881
1116.102, 16.82421
1116.584, 17.10275
1117.066, 17.13808
1117.548, 17.04803
1118.030, 16.70598
1118.512, 16.44413
1118.994, 16.74235
1119.476, 17.36096
1119.958, 17.27271
1120.441, 16.06779
1120.923, 15.50178
1121.405, 15.94780
1121.887, 16.19562
1122.369, 15.78610
1122.851, 15.37988
1123.333, 15.46376
1123.815, 15.89708
1124.297, 16.44209
1124.780, 17.15284
1125.262, 17.21841
1125.744, 16.44057
1126.226, 15.70154
1126.708, 15.05432
1127.190, 14.81079
1127.672, 15.21799
1128.154, 15.95154
1128.636, 16.60787
1129.119, 17.14376
1129.601, 17.06708
1130.083, 16.27935
1130.565, 16.01326
1131.047, 16.44169
1131.529, 16.97940
1132.011, 17.43337
1132.493, 17.58415
1132.976, 17.13971
1133.458, 16.36605
1133.940, 16.03647
1134.422, 16.11996
1134.904, 16.25275
1135.386, 16.41788
1135.868, 16.70844
1136.350, 17.13970
1136.833, 17.20010
1137.315, 16.47208
1137.797, 15.53459
1138.279, 15.48318
1138.761, 16.00714
1139.243, 15.93687
1139.725, 15.44772
1140.207, 15.38092
1140.689, 15.80415
1141.172, 16.13518
1141.654, 16.09911
1142.136, 15.98380
1142.618, 16.08645
1143.100, 16.31452
1143.582, 16.56996
1144.064, 16.80615
1144.546, 16.93566
1145.029, 16.95312
1145.511, 16.86698
1145.993, 16.68590
1146.475, 16.41280
1146.957, 15.92628
1147.439, 15.66697
1147.921, 16.32784
1148.403, 17.24597
1148.885, 17.76306
1149.368, 17.86242
1149.850, 17.37963
1150.332, 16.52619
1150.814, 16.11353
1151.296, 16.55130
1151.778, 17.00573
1152.260, 16.99989
1152.742, 16.81390
1153.224, 16.52130
1153.707, 16.24249
1154.189, 16.04451
1154.671, 15.97289
1155.153, 16.09973
1155.635, 16.44040
1156.117, 16.91939
1156.599, 17.76913
1157.081, 18.38865
1157.563, 18.60746
1158.046, 18.52317
1158.528, 18.02259
1159.010, 17.36369
1159.492, 16.76402
1159.974, 16.28181
1160.456, 16.20112
1160.938, 16.76617
1161.420, 17.30929
1161.903, 17.92410
1162.385, 18.34200
1162.867, 18.42162
1163.349, 18.35434
1163.831, 18.25336
1164.313, 18.13258
1164.795, 18.01544
1165.277, 17.88755
1165.760, 17.88357
1166.242, 18.01723
1166.724, 18.26346
1167.206, 18.70250
1167.688, 18.97242
1168.170, 18.86371
1168.652, 18.55156
1169.134, 18.23524
1169.616, 17.93377
1170.099, 17.73596
1170.581, 17.64183
1171.063, 17.70732
1171.545, 17.93802
1172.027, 17.87350
1172.509, 17.36593
1172.991, 17.07921
1173.473, 17.56683
1173.956, 18.28391
1174.438, 18.21745
1174.920, 17.62979
1175.402, 17.29947
1175.884, 17.21918
1176.366, 17.37046
1176.848, 17.71403
1177.330, 18.20896
1177.813, 18.81312
1178.295, 19.01131
1178.777, 17.99276
1179.259, 16.85654
1179.741, 17.25091
1180.223, 18.20296
1180.705, 18.26563
1181.187, 17.75396
1181.669, 17.51610
1182.151, 17.70965
1182.634, 18.06715
1183.116, 18.51229
1183.598, 18.93081
1184.080, 19.40151
1184.562, 19.65137
1185.044, 19.41653
1185.526, 18.93538
1186.008, 18.29782
1186.490, 17.66610
1186.973, 17.33572
1187.455, 17.36229
1187.937, 17.57029
1188.419, 18.22925
1188.901, 18.61394
1189.383, 18.23361
1189.865, 17.95991
1190.347, 18.48483
1190.830, 19.13557
1191.312, 19.08450
1191.794, 19.34212
1192.276, 19.43844
1192.758, 19.09231
1193.240, 19.21687
1193.722, 18.61071
1194.204, 17.99498
1194.687, 17.44690
1195.169, 17.24429
1195.651, 17.65577
1196.133, 18.24885
1196.615, 18.31229
1197.097, 17.94216
1197.579, 17.68226
1198.061, 17.53610
1198.543, 17.66565
1199.026, 18.05682
1199.508, 18.24457
1199.990, 18.08342
1200.472, 17.94418
1200.954, 18.13294
1201.436, 18.44240
1201.918, 18.56915
1202.400, 18.58520
1202.883, 18.68860
1203.365, 18.78079
1203.847, 18.51679
1204.329, 17.99915
1204.811, 17.77846
1205.293, 18.04391
1205.775, 18.25093
1206.257, 17.81320
1206.740, 17.48287
1207.222, 18.07666
1207.704, 18.75988
1208.186, 18.61633
1208.668, 18.14682
1209.150, 18.17102
1209.632, 18.68538
1210.114, 19.15393
1210.596, 19.45803
1211.078, 19.71156
1211.561, 20.12909
1212.043, 20.23738
1212.525, 19.77090
1213.007, 19.06984
1213.489, 18.03339
1213.971, 17.14584
1214.453, 17.37756
1214.935, 16.86800
1215.417, 16.61287
1215.900, 17.14674
1216.382, 16.52847
1216.864, 17.20333
1217.346, 17.98924
1217.828, 18.55601
1218.310, 18.96441
1218.792, 19.28921
1219.274, 19.38141
1219.757, 18.75252
1220.239, 19.02117
1220.721, 19.03522
1221.203, 18.79840
1221.685, 19.18293
1222.167, 18.86005
1222.649, 18.40533
1223.131, 18.04332
1223.614, 17.79653
1224.096, 17.69869
1224.578, 17.66942
1225.060, 17.57803
1225.542, 17.54301
1226.024, 17.82232
1226.506, 18.18637
1226.988, 18.23345
1227.470, 18.02987
1227.953, 17.89270
1228.435, 17.90767
1228.917, 18.04682
1229.399, 18.38425
1229.881, 18.72093
1230.363, 19.18608
1230.845, 19.41302
1231.327, 18.92278
1231.810, 18.27384
1232.292, 18.22878
1232.774, 17.94823
1233.256, 17.78296
1233.738, 17.99019
1234.220, 17.81731
1234.702, 18.19018
1235.184, 18.60203
1235.667, 19.02822
1236.149, 19.18521
1236.631, 18.87474
1237.113, 18.46489
1237.595, 18.39863
1238.077, 18.57016
1238.559, 18.65898
1239.041, 18.69498
1239.523, 18.73541
1240.005, 18.86134
1240.488, 19.71047
1240.970, 21.16701
1241.452, 21.70079
1241.934, 20.54901
1242.416, 19.26991
1242.898, 19.57962
1243.380, 20.13103
1243.862, 19.36078
1244.344, 18.27300
1244.827, 17.95114
1245.309, 18.18018
1245.791, 18.49699
1246.273, 18.82574
1246.755, 19.32434
1247.237, 20.30580
1247.719, 20.50350
1248.201, 18.71573
1248.684, 17.39927
1249.166, 17.47319
1249.648, 18.00850
1250.130, 18.68590
1250.612, 19.32625
1251.094, 19.68337
1251.576, 19.78905
1252.058, 19.86307
1252.541, 19.93521
1253.023, 19.64823
1253.505, 18.92336
1253.987, 18.82452
1254.469, 19.61700
1254.951, 20.08572
1255.433, 19.51065
1255.915, 18.68056
1256.397, 18.60632
1256.880, 18.85103
1257.362, 18.33437
1257.844, 18.79307
1258.326, 18.07934
1258.808, 19.23963
1259.290, 19.84164
1259.772, 19.71662
1260.254, 19.41191
1260.737, 19.12739
1261.219, 18.84757
1261.701, 18.68715
1262.183, 18.36528
1262.665, 17.24119
1263.147, 16.43824
1263.629, 17.21655
1264.111, 18.53582
1264.594, 18.77435
1265.076, 18.13023
1265.558, 18.04770
1266.040, 18.76448
1266.522, 19.19208
1267.004, 19.32188
1267.486, 19.12438
1267.968, 18.47921
1268.450, 18.08045
1268.932, 18.29935
1269.415, 18.80487
1269.897, 19.25948
1270.379, 19.65769
1270.861, 20.07954
1271.343, 20.41026
1271.825, 20.09445
1272.307, 19.41669
1272.789, 19.32940
1273.271, 19.83797
1273.754, 20.25050
1274.236, 20.30721
1274.718, 20.26324
1275.200, 20.34879
1275.682, 20.28635
1276.164, 19.80229
1276.646, 19.23181
1277.128, 18.74232
1277.611, 18.35943
1278.093, 17.93618
1278.575, 17.64696
1279.057, 18.24362
1279.539, 19.96052
1280.021, 20.67441
1280.503, 19.95209
1280.985, 19.42074
1281.468, 19.22144
1281.950, 19.41716
1282.432, 20.15274
1282.914, 20.53446
1283.396, 19.72532
1283.878, 18.50953
1284.360, 18.44640
1284.842, 19.09223
1285.324, 19.20066
##END=



