##NAMES=Obradovicite-KCu
##RRUFFID=R100015
##IDEAL CHEMISTRY=[K_2_(H_2_O)_17_Cu^2+^(H_2_O)_6_][Mo^6+^_8_As^5+^_2_Fe^3+^_3_O_34_(OH)_3_]
##LOCALITY=Chuquicamata, Chile
##OWNER=Colorado School of Mines
##SOURCE=Colorado School of Mines
##DESCRIPTION=Aggregates of pea-green grains associated with quartz and jarosite, type material
##STATUS=The identification of this mineral has been confirmed by single-crystal X-ray diffraction.
##URL=rruff.info/R100015
91.18097, 0.0000000E+00
91.66309, 214.2771
92.14520, 212.3759
92.62732, 213.1502
93.10944, 216.7546
93.59155, 220.1868
94.07367, 220.7954
94.55579, 218.8675
95.03790, 216.1964
95.52002, 214.5530
96.00214, 214.3138
96.48425, 213.2564
96.96637, 210.0669
97.44849, 206.8334
97.93060, 205.2088
98.41272, 205.5299
98.89484, 206.6239
99.37695, 206.2071
99.85907, 202.6545
100.3412, 199.7304
100.8233, 198.1081
101.3054, 197.1885
101.7875, 196.0956
102.2697, 194.2013
102.7518, 191.5814
103.2339, 190.0796
103.7160, 190.2144
104.1981, 190.5629
104.6802, 190.4652
105.1624, 189.9555
105.6445, 189.5234
106.1266, 189.6256
106.6087, 190.2549
107.0908, 190.6862
107.5729, 191.1797
108.0551, 191.3326
108.5372, 190.3370
109.0193, 187.6792
109.5014, 185.1093
109.9835, 184.5161
110.4656, 185.4660
110.9478, 186.5457
111.4299, 186.9512
111.9120, 186.7847
112.3941, 186.8757
112.8762, 187.6999
113.3583, 188.4713
113.8405, 188.6025
114.3226, 188.1190
114.8047, 187.5855
115.2868, 187.7536
115.7689, 189.0173
116.2510, 189.8071
116.7332, 189.9523
117.2153, 189.6949
117.6974, 189.0861
118.1795, 188.1657
118.6616, 187.0684
119.1437, 186.1098
119.6259, 185.4039
120.1080, 184.7149
120.5901, 183.5575
121.0722, 182.5199
121.5543, 182.6468
122.0364, 184.6424
122.5186, 187.8738
123.0007, 188.7297
123.4828, 185.5688
123.9649, 182.3970
124.4470, 180.7415
124.9291, 180.3199
125.4113, 179.9181
125.8934, 178.6233
126.3755, 176.7064
126.8576, 175.5036
127.3397, 175.5925
127.8218, 176.0782
128.3040, 176.1214
128.7861, 175.6567
129.2682, 175.0703
129.7503, 174.6935
130.2324, 174.3870
130.7145, 173.8995
131.1967, 172.9606
131.6788, 171.7601
132.1609, 170.8275
132.6430, 169.9619
133.1251, 169.7382
133.6072, 170.6698
134.0894, 172.3836
134.5715, 174.0423
135.0536, 174.8060
135.5357, 174.5399
136.0178, 175.1694
136.4999, 178.0902
136.9821, 180.7651
137.4642, 182.1728
137.9463, 182.3582
138.4284, 181.9937
138.9105, 181.7747
139.3926, 181.4753
139.8748, 182.0599
140.3569, 183.9411
140.8390, 186.2386
141.3211, 188.5473
141.8032, 190.7035
142.2853, 192.5708
142.7675, 193.8654
143.2496, 194.1384
143.7317, 194.6487
144.2138, 195.6189
144.6959, 196.8089
145.1780, 197.9178
145.6602, 198.8335
146.1423, 199.6397
146.6244, 200.4906
147.1065, 201.3255
147.5886, 202.3183
148.0707, 203.7382
148.5529, 205.4259
149.0350, 206.7838
149.5171, 207.4205
149.9992, 207.7236
150.4813, 208.3759
150.9634, 209.5132
151.4456, 210.6763
151.9277, 211.4513
152.4098, 211.8088
152.8919, 212.1322
153.3740, 212.5623
153.8561, 213.0317
154.3383, 213.5784
154.8204, 214.2840
155.3025, 214.8427
155.7846, 214.6230
156.2667, 213.1563
156.7488, 211.9255
157.2310, 211.6420
157.7131, 211.6258
158.1952, 211.1501
158.6773, 209.8253
159.1594, 207.8983
159.6415, 206.3056
160.1237, 205.1573
160.6058, 204.2648
161.0879, 203.5686
161.5700, 203.1021
162.0521, 203.0337
162.5342, 203.5367
163.0164, 204.5190
163.4985, 204.5063
163.9806, 203.0779
164.4627, 201.1861
164.9448, 198.6663
165.4269, 195.8245
165.9091, 193.3448
166.3912, 191.7351
166.8733, 191.0417
167.3554, 190.6041
167.8375, 190.6718
168.3196, 190.7411
168.8018, 190.6224
169.2839, 190.2814
169.7660, 189.6039
170.2481, 188.2805
170.7302, 186.3882
171.2123, 185.2375
171.6945, 185.6551
172.1766, 186.4307
172.6587, 186.2410
173.1408, 184.8678
173.6229, 183.3502
174.1050, 182.6877
174.5872, 182.6243
175.0693, 182.5451
175.5514, 182.1694
176.0335, 181.6696
176.5156, 181.3979
176.9977, 181.4173
177.4799, 181.5891
177.9620, 181.8543
178.4441, 182.1834
178.9262, 182.5032
179.4083, 182.6718
179.8904, 182.7492
180.3726, 183.1618
180.8547, 184.2875
181.3368, 185.3145
181.8189, 185.9127
182.3010, 186.1104
182.7831, 186.0143
183.2653, 185.5686
183.7474, 184.7236
184.2295, 184.2853
184.7116, 184.3833
185.1937, 184.8280
185.6758, 185.9733
186.1580, 187.5439
186.6401, 188.7677
187.1222, 188.7546
187.6043, 187.1111
188.0864, 185.9293
188.5685, 185.1197
189.0507, 184.7569
189.5328, 184.7963
190.0149, 185.2890
190.4970, 186.4674
190.9791, 188.8045
191.4612, 193.2084
191.9434, 195.7434
192.4255, 195.0415
192.9076, 193.7138
193.3897, 193.3809
193.8718, 194.3573
194.3539, 196.0902
194.8361, 197.9498
195.3182, 200.0641
195.8003, 201.9400
196.2824, 203.5587
196.7645, 204.9444
197.2466, 205.9467
197.7288, 206.5237
198.2109, 207.1875
198.6930, 208.7755
199.1751, 211.4515
199.6572, 213.8149
200.1393, 215.5886
200.6215, 216.9349
201.1036, 217.9462
201.5857, 218.5275
202.0678, 219.1917
202.5499, 220.5102
203.0320, 222.3784
203.5142, 225.0015
203.9963, 229.1223
204.4784, 234.0513
204.9605, 237.9898
205.4426, 240.1940
205.9247, 242.0597
206.4069, 245.0409
206.8890, 249.0042
207.3711, 252.9583
207.8532, 256.3606
208.3353, 259.2990
208.8174, 262.0411
209.2996, 264.0829
209.7817, 266.6578
210.2638, 270.9843
210.7459, 276.7476
211.2280, 282.2604
211.7101, 286.0154
212.1923, 288.0625
212.6744, 290.5569
213.1565, 294.1458
213.6386, 297.7500
214.1207, 300.8028
214.6028, 303.3344
215.0850, 305.7338
215.5671, 308.2639
216.0492, 310.9302
216.5313, 313.7734
217.0134, 317.1076
217.4955, 320.3873
217.9777, 323.4450
218.4598, 326.2569
218.9419, 328.9246
219.4240, 331.7195
219.9061, 334.9505
220.3882, 336.6838
220.8704, 335.7534
221.3525, 334.4253
221.8346, 333.6270
222.3167, 333.3917
222.7988, 333.2445
223.2809, 332.6711
223.7631, 331.5269
224.2452, 330.5441
224.7273, 329.7960
225.2094, 329.1119
225.6915, 328.6954
226.1736, 328.3749
226.6558, 327.5527
227.1379, 325.5100
227.6200, 321.8624
228.1021, 318.7128
228.5842, 316.3992
229.0663, 314.2214
229.5485, 312.0907
230.0306, 309.8524
230.5127, 306.9682
230.9948, 302.7255
231.4769, 296.6398
231.9590, 292.1168
232.4412, 290.9319
232.9233, 289.7897
233.4054, 285.9653
233.8875, 279.5794
234.3696, 273.3647
234.8517, 270.0967
235.3339, 270.2147
235.8160, 269.2295
236.2981, 266.9190
236.7802, 263.7130
237.2623, 259.4444
237.7444, 254.2476
238.2266, 249.3264
238.7087, 245.6954
239.1908, 243.4378
239.6729, 241.5293
240.1550, 240.7779
240.6371, 239.8256
241.1193, 237.0384
241.6014, 232.3608
242.0835, 228.0971
242.5656, 226.1719
243.0477, 226.1721
243.5298, 226.0220
244.0120, 225.3765
244.4941, 224.6065
244.9762, 224.1707
245.4583, 224.0996
245.9404, 223.8076
246.4225, 222.8642
246.9047, 221.4144
247.3868, 219.7761
247.8689, 217.8268
248.3510, 215.8376
248.8331, 213.9660
249.3152, 212.1721
249.7974, 210.8903
250.2795, 210.9480
250.7616, 211.4698
251.2437, 211.1748
251.7258, 209.4736
252.2079, 207.3739
252.6901, 206.1504
253.1722, 205.9575
253.6543, 205.5069
254.1364, 203.5977
254.6185, 201.4314
255.1006, 200.3957
255.5828, 201.1331
256.0649, 202.0843
256.5470, 201.1513
257.0291, 198.0051
257.5112, 195.0383
257.9933, 192.8620
258.4755, 191.3233
258.9576, 190.5250
259.4397, 190.5515
259.9218, 190.8261
260.4039, 190.7861
260.8860, 190.4669
261.3682, 189.6333
261.8503, 187.4506
262.3324, 185.1976
262.8145, 183.6581
263.2966, 182.9679
263.7787, 182.7361
264.2609, 182.5761
264.7430, 182.4965
265.2251, 182.4365
265.7072, 182.1814
266.1893, 182.1010
266.6714, 182.6746
267.1536, 183.8208
267.6357, 184.7422
268.1178, 184.4870
268.5999, 182.8444
269.0820, 181.2652
269.5641, 179.6329
270.0463, 178.2319
270.5284, 177.1353
271.0105, 176.3855
271.4926, 176.0723
271.9747, 176.4924
272.4568, 177.8137
272.9390, 178.3979
273.4211, 177.2131
273.9032, 176.1622
274.3853, 175.9104
274.8674, 176.3691
275.3495, 177.1176
275.8317, 177.8223
276.3138, 178.4772
276.7959, 179.3145
277.2780, 180.4384
277.7601, 181.6631
278.2422, 183.1243
278.7244, 184.6445
279.2065, 185.8601
279.6886, 186.4624
280.1707, 186.5385
280.6528, 186.9793
281.1349, 187.1207
281.6171, 188.4650
282.0992, 192.8161
282.5813, 198.2580
283.0634, 201.9178
283.5455, 202.0107
284.0276, 199.3487
284.5098, 197.5966
284.9919, 197.1513
285.4740, 197.2675
285.9561, 198.4955
286.4382, 199.9899
286.9203, 200.7083
287.4025, 200.1692
287.8846, 198.8474
288.3667, 198.0567
288.8488, 199.0249
289.3309, 198.7144
289.8130, 195.9884
290.2952, 192.4817
290.7773, 189.8232
291.2594, 188.5228
291.7415, 187.7107
292.2236, 185.7669
292.7057, 181.7032
293.1879, 178.1209
293.6700, 175.7219
294.1521, 173.2849
294.6342, 169.7570
295.1163, 165.0145
295.5984, 159.8457
296.0806, 155.2557
296.5627, 151.3488
297.0448, 147.8218
297.5269, 144.5803
298.0090, 141.7201
298.4911, 139.8238
298.9733, 138.5836
299.4554, 136.7616
299.9375, 132.9701
300.4196, 126.7361
300.9017, 121.6438
301.3839, 117.5506
301.8660, 114.4745
302.3481, 113.0957
302.8302, 112.8251
303.3123, 112.1263
303.7944, 109.7082
304.2766, 105.6587
304.7587, 103.0006
305.2408, 102.4117
305.7229, 102.3553
306.2050, 103.0357
306.6871, 103.9124
307.1693, 104.0493
307.6514, 102.8655
308.1335, 100.7145
308.6156, 99.23732
309.0977, 98.70267
309.5798, 98.57371
310.0620, 98.99736
310.5441, 99.73567
311.0262, 100.5314
311.5083, 101.2810
311.9904, 102.0038
312.4725, 102.7551
312.9547, 104.1344
313.4368, 104.6563
313.9189, 103.4556
314.4010, 101.9359
314.8831, 101.3279
315.3652, 101.9175
315.8474, 103.1307
316.3295, 104.1571
316.8116, 104.8067
317.2937, 105.8070
317.7758, 107.3101
318.2579, 108.9878
318.7401, 110.8214
319.2222, 112.6920
319.7043, 114.2752
320.1864, 115.2400
320.6685, 115.5295
321.1506, 115.6242
321.6328, 114.5537
322.1149, 114.2567
322.5970, 116.0721
323.0791, 119.3429
323.5612, 122.4809
324.0433, 124.4472
324.5255, 125.2921
325.0076, 125.5791
325.4897, 123.5070
325.9718, 122.9271
326.4539, 125.8367
326.9360, 130.3643
327.4182, 133.7640
327.9003, 134.7126
328.3824, 134.0567
328.8645, 134.1684
329.3466, 135.2232
329.8287, 136.9450
330.3109, 139.7268
330.7930, 142.9214
331.2751, 146.2066
331.7572, 149.3954
332.2393, 152.0152
332.7214, 153.1191
333.2036, 151.2218
333.6857, 151.3221
334.1678, 154.3742
334.6499, 158.2799
335.1320, 162.1365
335.6141, 165.6545
336.0963, 168.6461
336.5784, 170.8774
337.0605, 172.2951
337.5426, 173.4390
338.0247, 173.9556
338.5068, 174.5671
338.9890, 175.2775
339.4711, 176.2828
339.9532, 178.1093
340.4353, 181.3108
340.9174, 185.4201
341.3995, 187.4319
341.8817, 185.0276
342.3638, 183.1921
342.8459, 183.3692
343.3280, 184.2531
343.8101, 183.9751
344.2922, 181.7419
344.7744, 178.8340
345.2565, 178.2788
345.7386, 182.1922
346.2207, 184.3148
346.7028, 183.1297
347.1849, 181.0334
347.6671, 179.6258
348.1492, 179.2451
348.6313, 179.4227
349.1134, 179.7011
349.5955, 180.1858
350.0776, 180.2960
350.5598, 179.1488
351.0419, 178.4150
351.5240, 179.1726
352.0061, 181.0105
352.4882, 182.6457
352.9703, 182.9177
353.4525, 182.0434
353.9346, 182.2823
354.4167, 184.7868
354.8988, 186.8919
355.3809, 187.4832
355.8630, 187.3405
356.3452, 187.6362
356.8273, 189.0156
357.3094, 190.7613
357.7915, 191.0964
358.2736, 189.2226
358.7557, 188.0183
359.2379, 189.1341
359.7200, 190.5164
360.2021, 190.3150
360.6842, 188.1859
361.1663, 185.7831
361.6484, 185.2415
362.1306, 186.7995
362.6127, 187.3491
363.0948, 185.9662
363.5769, 183.9834
364.0590, 181.9985
364.5411, 180.0521
365.0233, 178.1317
365.5054, 176.0049
365.9875, 173.8543
366.4696, 172.6806
366.9517, 173.2047
367.4338, 173.2680
367.9160, 171.2582
368.3981, 168.2339
368.8802, 165.8216
369.3623, 164.8553
369.8444, 164.3413
370.3265, 162.5563
370.8087, 159.2610
371.2908, 156.7782
371.7729, 156.5007
372.2550, 157.1610
372.7371, 157.6043
373.2192, 157.7740
373.7014, 157.3753
374.1835, 155.7232
374.6656, 153.1806
375.1477, 151.4361
375.6298, 151.0737
376.1119, 151.1939
376.5941, 150.9716
377.0762, 150.4603
377.5583, 149.9078
378.0404, 149.1731
378.5225, 148.5445
379.0046, 148.6718
379.4868, 149.6845
379.9689, 150.4198
380.4510, 149.8993
380.9331, 148.4868
381.4152, 147.3481
381.8973, 146.1440
382.3795, 145.7054
382.8616, 147.3120
383.3437, 150.3681
383.8258, 152.3321
384.3079, 151.8957
384.7900, 150.2727
385.2722, 149.9785
385.7543, 151.3130
386.2364, 152.4976
386.7185, 152.8149
387.2006, 152.8064
387.6827, 153.1011
388.1649, 153.8284
388.6470, 155.0115
389.1291, 156.8679
389.6112, 159.5419
390.0933, 161.2368
390.5754, 160.6712
391.0576, 160.2689
391.5397, 162.0375
392.0218, 165.3741
392.5039, 167.9604
392.9860, 168.2283
393.4681, 166.8354
393.9503, 166.9586
394.4324, 170.1023
394.9145, 172.7672
395.3966, 174.3554
395.8787, 175.2382
396.3608, 175.6794
396.8430, 175.8036
397.3251, 175.9565
397.8072, 176.6912
398.2893, 178.3304
398.7714, 179.6945
399.2535, 181.0314
399.7357, 181.9324
400.2178, 181.7781
400.6999, 180.9009
401.1820, 180.3754
401.6641, 181.1405
402.1462, 183.0372
402.6284, 184.0187
403.1105, 183.2373
403.5926, 182.4836
404.0747, 181.8060
404.5568, 181.4279
405.0389, 181.7164
405.5211, 182.8083
406.0032, 184.2165
406.4853, 185.1109
406.9674, 185.4344
407.4495, 185.4268
407.9316, 184.8624
408.4138, 184.1747
408.8959, 183.5077
409.3780, 182.9114
409.8601, 182.4864
410.3422, 182.4614
410.8243, 182.7404
411.3065, 182.4971
411.7886, 181.4108
412.2707, 180.3310
412.7528, 179.6523
413.2349, 179.2077
413.7170, 178.7599
414.1992, 178.2088
414.6813, 177.6642
415.1634, 177.4536
415.6455, 177.6238
416.1276, 177.1842
416.6097, 175.4661
417.0919, 173.3278
417.5740, 171.6236
418.0561, 170.3760
418.5382, 169.3477
419.0203, 168.4507
419.5024, 167.6810
419.9846, 166.9619
420.4667, 166.2233
420.9488, 165.8494
421.4309, 166.4838
421.9130, 167.7841
422.3951, 168.4679
422.8773, 168.0573
423.3594, 167.2824
423.8415, 166.4787
424.3236, 165.6968
424.8057, 165.1652
425.2878, 165.0436
425.7700, 165.1029
426.2521, 164.9152
426.7342, 164.6631
427.2163, 163.7561
427.6984, 161.1051
428.1805, 158.2956
428.6627, 157.2623
429.1448, 158.1476
429.6269, 159.2857
430.1090, 159.0726
430.5911, 157.3994
431.0732, 156.5737
431.5554, 157.3975
432.0375, 158.0096
432.5196, 157.4576
433.0017, 156.3281
433.4838, 155.6929
433.9659, 156.0553
434.4481, 156.9507
434.9302, 157.3936
435.4123, 157.4143
435.8944, 156.8541
436.3765, 155.1762
436.8586, 153.4251
437.3408, 152.5279
437.8229, 152.3393
438.3050, 151.8564
438.7871, 150.0857
439.2692, 147.1202
439.7513, 144.5908
440.2335, 142.4620
440.7156, 140.8736
441.1977, 140.1289
441.6798, 139.7742
442.1619, 139.1850
442.6440, 138.0986
443.1262, 137.0042
443.6083, 136.6140
444.0904, 136.9802
444.5725, 137.4290
445.0546, 138.0964
445.5367, 138.5241
446.0189, 138.1556
446.5010, 137.1575
446.9831, 136.4646
447.4652, 136.7752
447.9473, 137.6429
448.4294, 138.4782
448.9116, 139.3634
449.3937, 139.3376
449.8758, 137.0765
450.3579, 133.8130
450.8400, 132.3022
451.3221, 133.3484
451.8043, 134.7067
452.2864, 135.4754
452.7685, 135.6758
453.2506, 135.1924
453.7327, 133.9256
454.2148, 132.4998
454.6970, 131.6481
455.1791, 131.4802
455.6612, 131.2761
456.1433, 131.2516
456.6254, 130.9880
457.1075, 130.0612
457.5897, 128.6595
458.0718, 127.2775
458.5539, 126.1544
459.0360, 125.3396
459.5181, 124.9840
460.0002, 125.6416
460.4824, 126.0381
460.9645, 125.6221
461.4466, 125.3021
461.9287, 126.1034
462.4108, 127.9513
462.8929, 129.6557
463.3751, 129.8573
463.8572, 128.5344
464.3393, 128.6052
464.8214, 132.0338
465.3035, 134.4403
465.7856, 133.7460
466.2678, 131.7400
466.7499, 130.7944
467.2320, 131.8245
467.7141, 133.7330
468.1962, 134.7975
468.6783, 134.8678
469.1605, 135.8629
469.6426, 138.8896
470.1247, 142.0571
470.6068, 143.9499
471.0889, 144.7889
471.5710, 145.5760
472.0532, 146.9607
472.5353, 148.5010
473.0174, 149.3979
473.4995, 149.6244
473.9816, 149.8460
474.4637, 150.2388
474.9459, 150.9326
475.4280, 152.1370
475.9101, 153.9339
476.3922, 155.9496
476.8743, 158.3998
477.3564, 160.8555
477.8386, 162.5399
478.3207, 163.3565
478.8028, 164.0605
479.2849, 165.3498
479.7670, 167.2354
480.2491, 168.9126
480.7313, 170.3330
481.2134, 171.6434
481.6955, 173.1641
482.1776, 174.5264
482.6597, 174.8760
483.1418, 173.9510
483.6240, 172.8329
484.1061, 173.5180
484.5882, 177.1934
485.0703, 179.2827
485.5524, 179.0738
486.0345, 178.1111
486.5167, 176.7782
486.9988, 175.2556
487.4809, 173.7646
487.9630, 172.4641
488.4451, 171.2187
488.9272, 169.5030
489.4094, 166.9534
489.8915, 165.0807
490.3736, 165.2248
490.8557, 165.5462
491.3378, 164.7686
491.8199, 162.8165
492.3021, 160.4176
492.7842, 158.0489
493.2663, 155.2330
493.7484, 152.6319
494.2305, 149.0438
494.7126, 145.4778
495.1948, 141.9583
495.6769, 138.8862
496.1590, 137.2574
496.6411, 138.1973
497.1232, 138.5075
497.6053, 136.1817
498.0875, 132.3385
498.5696, 128.7120
499.0517, 125.7193
499.5338, 123.4031
500.0159, 122.0282
500.4980, 121.7596
500.9802, 120.4653
501.4623, 117.0392
501.9444, 113.9135
502.4265, 112.3098
502.9086, 111.5545
503.3907, 110.4452
503.8729, 108.5007
504.3550, 106.2233
504.8371, 104.5195
505.3192, 103.6029
505.8013, 102.6598
506.2834, 101.4645
506.7656, 100.4573
507.2477, 100.1928
507.7298, 100.2679
508.2119, 99.71848
508.6940, 97.86501
509.1761, 95.36147
509.6583, 93.51499
510.1404, 92.40962
510.6225, 91.49714
511.1046, 90.55211
511.5867, 89.84019
512.0688, 89.77193
512.5510, 90.30797
513.0331, 90.54014
513.5152, 89.88693
513.9973, 88.75178
514.4794, 87.58659
514.9615, 86.41790
515.4437, 85.63839
515.9258, 85.74123
516.4079, 86.18888
516.8900, 85.23655
517.3721, 81.93698
517.8542, 79.39257
518.3364, 78.73901
518.8185, 78.88998
519.3006, 78.82865
519.7827, 78.39387
520.2648, 77.82954
520.7469, 77.32728
521.2291, 76.88997
521.7112, 76.56338
522.1933, 76.62097
522.6754, 76.45040
523.1575, 75.72273
523.6396, 74.86829
524.1218, 74.44119
524.6039, 74.50172
525.0860, 74.47792
525.5681, 73.47579
526.0502, 71.53878
526.5323, 70.73897
527.0145, 71.94432
527.4966, 72.78487
527.9787, 71.66722
528.4608, 69.67895
528.9429, 68.29606
529.4250, 67.90788
529.9072, 68.02970
530.3893, 68.57987
530.8714, 69.34677
531.3535, 69.64595
531.8356, 69.34226
532.3177, 68.53915
532.7999, 67.04481
533.2820, 64.94370
533.7641, 63.75650
534.2462, 64.26906
534.7283, 64.90005
535.2104, 64.94061
535.6926, 64.60451
536.1747, 64.19328
536.6568, 63.82274
537.1389, 63.68633
537.6210, 64.16178
538.1031, 65.59531
538.5853, 66.09666
539.0674, 64.92504
539.5495, 63.66578
540.0316, 62.48826
540.5137, 61.67261
540.9958, 61.79744
541.4780, 63.15699
541.9601, 64.73818
542.4422, 64.77361
542.9243, 63.10605
543.4064, 62.13113
543.8885, 62.50571
544.3707, 63.18013
544.8528, 63.60064
545.3349, 63.75140
545.8170, 63.55624
546.2991, 62.79862
546.7813, 61.90559
547.2634, 61.18388
547.7455, 60.64944
548.2276, 60.33348
548.7097, 60.22653
549.1918, 60.42834
549.6740, 61.17970
550.1561, 62.65730
550.6382, 63.63916
551.1203, 64.08176
551.6024, 64.06554
552.0845, 63.50298
552.5667, 62.53720
553.0488, 61.22985
553.5309, 59.61953
554.0130, 58.19999
554.4951, 57.99720
554.9772, 59.55468
555.4594, 60.67159
555.9415, 61.40215
556.4236, 61.60903
556.9057, 60.72912
557.3878, 59.34209
557.8699, 58.65248
558.3521, 59.41118
558.8342, 60.41779
559.3163, 59.56274
559.7984, 56.95658
560.2805, 55.70437
560.7626, 56.91375
561.2448, 58.88789
561.7269, 60.17170
562.2090, 60.86073
562.6911, 61.27235
563.1732, 61.20694
563.6553, 61.12585
564.1375, 61.48071
564.6196, 62.04816
565.1017, 62.30050
565.5838, 62.05354
566.0659, 61.41196
566.5480, 60.42301
567.0302, 58.79310
567.5123, 58.12660
567.9944, 59.56076
568.4765, 60.58935
568.9586, 59.59150
569.4407, 57.79816
569.9229, 57.33991
570.4050, 59.02572
570.8871, 61.33303
571.3692, 61.95461
571.8513, 60.79543
572.3334, 60.10904
572.8156, 60.35951
573.2977, 60.64420
573.7798, 60.38486
574.2619, 59.79651
574.7440, 59.25936
575.2261, 58.85264
575.7083, 58.54325
576.1904, 58.41738
576.6725, 58.36129
577.1546, 58.06504
577.6367, 57.45177
578.1188, 56.70620
578.6010, 55.87110
579.0831, 54.95639
579.5652, 54.94403
580.0473, 56.66369
580.5294, 58.14655
581.0115, 58.68320
581.4937, 58.78985
581.9758, 59.20605
582.4579, 60.02507
582.9400, 60.55296
583.4221, 59.85547
583.9042, 58.02065
584.3864, 57.28379
584.8685, 58.45561
585.3506, 59.28278
585.8327, 58.53905
586.3148, 57.33846
586.7969, 56.92787
587.2791, 57.53127
587.7612, 58.05284
588.2433, 57.35108
588.7254, 56.18816
589.2075, 56.37839
589.6896, 58.05916
590.1718, 59.26821
590.6539, 58.68984
591.1360, 56.93192
591.6181, 55.78100
592.1002, 55.26875
592.5823, 55.19038
593.0645, 56.02825
593.5466, 56.90504
594.0287, 56.96486
594.5108, 56.36371
594.9929, 55.95800
595.4750, 56.36378
595.9572, 57.15754
596.4393, 57.00457
596.9214, 55.51225
597.4035, 54.16294
597.8856, 52.63497
598.3677, 51.78218
598.8499, 52.62211
599.3320, 54.66352
599.8141, 56.18210
600.2962, 56.25744
600.7783, 55.60613
601.2604, 54.89442
601.7426, 54.17362
602.2247, 53.76976
602.7068, 53.83125
603.1889, 54.08037
603.6710, 54.26680
604.1531, 54.40751
604.6353, 54.12517
605.1174, 52.92873
605.5995, 51.85032
606.0816, 51.27956
606.5637, 51.12431
607.0458, 51.41280
607.5280, 52.07876
608.0101, 52.57512
608.4922, 52.08889
608.9743, 50.56705
609.4564, 49.65315
609.9385, 49.61791
610.4207, 49.76701
610.9028, 49.89916
611.3849, 50.03915
611.8670, 50.19167
612.3491, 50.35107
612.8312, 50.62334
613.3134, 51.57119
613.7955, 52.50914
614.2776, 51.83594
614.7597, 49.50249
615.2418, 47.35954
615.7239, 46.44402
616.2061, 46.47842
616.6882, 46.73584
617.1703, 47.41298
617.6524, 47.94394
618.1345, 48.19863
618.6166, 48.39357
619.0988, 48.74270
619.5809, 49.15749
620.0630, 49.37849
620.5451, 49.25657
621.0272, 48.91050
621.5093, 48.50454
621.9915, 47.98933
622.4736, 47.78625
622.9557, 48.17589
623.4378, 48.59381
623.9199, 48.65331
624.4020, 48.45295
624.8842, 48.22419
625.3663, 47.97577
625.8484, 47.78817
626.3305, 47.94989
626.8126, 48.16435
627.2947, 47.46054
627.7769, 45.69869
628.2590, 44.61831
628.7411, 46.02576
629.2232, 49.61148
629.7053, 51.48177
630.1874, 49.89821
630.6696, 48.73052
631.1517, 48.39610
631.6338, 48.54731
632.1159, 49.15281
632.5980, 50.01378
633.0801, 50.54389
633.5623, 50.29826
634.0444, 49.47059
634.5265, 48.27146
635.0086, 46.62543
635.4907, 45.78539
635.9728, 46.44596
636.4550, 47.62596
636.9371, 48.15992
637.4192, 48.11522
637.9013, 48.12123
638.3834, 48.14925
638.8655, 48.38078
639.3477, 49.39336
639.8298, 50.55878
640.3119, 50.49820
640.7940, 48.90271
641.2761, 47.16919
641.7582, 47.04988
642.2404, 48.58566
642.7225, 49.16236
643.2046, 48.00951
643.6867, 47.07753
644.1688, 47.05385
644.6509, 47.35716
645.1331, 47.34059
645.6152, 46.95191
646.0973, 46.82621
646.5794, 47.68592
647.0615, 48.88537
647.5436, 49.27196
648.0258, 48.91819
648.5079, 48.78163
648.9900, 49.31951
649.4721, 50.11916
649.9542, 50.56213
650.4363, 50.69695
650.9185, 50.20293
651.4006, 47.97049
651.8827, 46.34289
652.3648, 46.75188
652.8469, 48.24391
653.3290, 49.47216
653.8112, 49.99038
654.2933, 50.03392
654.7754, 49.59205
655.2575, 48.78886
655.7396, 48.87757
656.2217, 50.21761
656.7039, 51.24516
657.1860, 50.98610
657.6681, 50.10899
658.1502, 49.76332
658.6323, 50.04838
659.1144, 50.32442
659.5966, 50.31928
660.0787, 50.30608
660.5608, 50.44902
661.0429, 50.78263
661.5250, 51.50684
662.0071, 52.72517
662.4893, 53.81950
662.9714, 53.52496
663.4535, 51.31547
663.9356, 50.53307
664.4177, 52.29936
664.8998, 54.05286
665.3820, 54.79799
665.8641, 55.00331
666.3462, 55.26103
666.8283, 55.69352
667.3104, 56.12958
667.7925, 56.49244
668.2747, 56.77289
668.7568, 56.79050
669.2389, 56.61147
669.7210, 56.95361
670.2031, 58.32053
670.6852, 60.02934
671.1674, 60.62014
671.6495, 59.36669
672.1316, 58.93386
672.6137, 59.92714
673.0958, 61.00406
673.5779, 61.42023
674.0601, 61.60896
674.5422, 62.45536
675.0243, 64.24870
675.5064, 65.91739
675.9885, 65.87470
676.4706, 64.75845
676.9528, 65.26402
677.4349, 67.75908
677.9170, 69.96840
678.3991, 70.60027
678.8812, 70.33376
679.3633, 70.56157
679.8455, 71.30596
680.3276, 72.38351
680.8097, 74.57971
681.2918, 76.33956
681.7739, 75.92471
682.2560, 74.53716
682.7382, 74.70930
683.2203, 77.37507
683.7024, 80.78091
684.1845, 82.53132
684.6666, 82.68819
685.1487, 83.48043
685.6309, 85.26942
686.1130, 86.75111
686.5951, 86.86449
687.0772, 86.56921
687.5593, 87.44878
688.0414, 89.76971
688.5236, 91.73237
689.0057, 92.41765
689.4878, 92.88970
689.9699, 94.04578
690.4520, 95.69367
690.9341, 97.23596
691.4163, 98.44246
691.8984, 99.48512
692.3805, 100.5430
692.8626, 101.5937
693.3447, 103.1001
693.8268, 105.5902
694.3090, 107.5958
694.7911, 108.2702
695.2732, 108.3805
695.7553, 108.6074
696.2374, 109.0190
696.7195, 109.6298
697.2017, 110.5897
697.6838, 111.6437
698.1659, 112.5115
698.6480, 113.2451
699.1301, 113.9913
699.6122, 114.8009
700.0944, 115.8039
700.5765, 117.2758
701.0586, 119.2875
701.5407, 120.4682
702.0228, 120.5336
702.5049, 120.1462
702.9871, 118.6605
703.4692, 117.3764
703.9513, 117.8100
704.4334, 119.9049
704.9155, 121.8168
705.3976, 122.5137
705.8798, 122.5348
706.3619, 122.4249
706.8440, 122.1709
707.3261, 121.6851
707.8082, 120.9305
708.2903, 120.0340
708.7725, 119.0750
709.2546, 118.0582
709.7367, 117.4773
710.2188, 117.4611
710.7009, 117.7270
711.1830, 118.5955
711.6652, 119.4439
712.1473, 119.8975
712.6294, 119.8799
713.1115, 119.2892
713.5936, 117.7102
714.0757, 116.0210
714.5579, 115.4902
715.0400, 115.7884
715.5221, 115.6034
716.0042, 114.6089
716.4863, 113.8034
716.9684, 114.1907
717.4506, 115.4994
717.9327, 115.8234
718.4148, 114.0464
718.8969, 112.8623
719.3790, 112.9501
719.8611, 113.1769
720.3433, 112.6937
720.8254, 111.7222
721.3075, 110.9560
721.7896, 110.6516
722.2717, 110.8152
722.7538, 111.9626
723.2360, 113.5871
723.7181, 113.7216
724.2002, 112.0519
724.6823, 110.7062
725.1644, 111.1477
725.6465, 112.7944
726.1287, 113.9062
726.6108, 114.2402
727.0929, 114.4756
727.5750, 115.0208
728.0571, 115.0590
728.5392, 113.4385
729.0214, 111.2677
729.5035, 110.5338
729.9856, 111.9050
730.4677, 113.7444
730.9498, 114.5301
731.4319, 114.6777
731.9141, 115.1834
732.3962, 116.0840
732.8783, 117.0227
733.3604, 117.8812
733.8425, 118.5576
734.3246, 118.8212
734.8068, 118.4815
735.2889, 118.5814
735.7710, 119.6386
736.2531, 120.4766
736.7352, 120.5882
737.2173, 120.3919
737.6995, 120.3019
738.1816, 120.4071
738.6637, 120.6550
739.1458, 120.9928
739.6279, 121.4616
740.1100, 122.3259
740.5922, 123.4540
741.0743, 123.9880
741.5564, 123.6185
742.0385, 123.1101
742.5206, 123.3502
743.0027, 124.2699
743.4849, 124.2929
743.9670, 122.6375
744.4491, 121.1371
744.9312, 120.0253
745.4133, 119.0692
745.8954, 118.2353
746.3776, 117.4093
746.8597, 116.2825
747.3418, 114.5680
747.8239, 112.8720
748.3060, 111.9915
748.7881, 111.5947
749.2703, 110.8183
749.7524, 109.5609
750.2345, 108.2986
750.7166, 107.3738
751.1987, 106.5861
751.6808, 105.3676
752.1630, 103.5705
752.6451, 101.6904
753.1272, 99.48289
753.6093, 97.44572
754.0914, 95.47523
754.5735, 93.91006
755.0557, 93.31284
755.5378, 93.83041
756.0199, 94.71129
756.5020, 96.02500
756.9841, 97.08332
757.4662, 96.86228
757.9484, 95.54305
758.4305, 93.68235
758.9126, 91.46665
759.3947, 89.74874
759.8768, 89.77847
760.3589, 91.57597
760.8411, 92.30582
761.3232, 90.96912
761.8053, 90.38246
762.2874, 92.07673
762.7695, 94.10838
763.2516, 95.00220
763.7338, 94.86974
764.2159, 94.67263
764.6980, 94.71033
765.1801, 94.78822
765.6622, 94.34116
766.1443, 94.04969
766.6265, 95.25610
767.1086, 97.89040
767.5907, 100.5397
768.0728, 102.2732
768.5549, 103.2679
769.0370, 103.8983
769.5192, 104.1225
770.0013, 104.1095
770.4834, 103.2186
770.9655, 103.2418
771.4476, 105.8898
771.9297, 109.8781
772.4119, 113.0417
772.8940, 115.1396
773.3761, 117.0481
773.8582, 118.9052
774.3403, 120.7451
774.8224, 122.8761
775.3046, 124.9205
775.7867, 125.8975
776.2688, 125.6383
776.7509, 125.5172
777.2330, 127.1369
777.7151, 130.0098
778.1973, 132.2183
778.6794, 133.7178
779.1615, 134.9804
779.6436, 136.0639
780.1257, 137.1211
780.6078, 138.2982
781.0900, 139.5967
781.5721, 140.9513
782.0542, 142.4085
782.5363, 143.8520
783.0184, 145.6941
783.5005, 147.1582
783.9827, 147.1889
784.4648, 146.3264
784.9469, 146.2753
785.4290, 147.9921
785.9111, 149.7510
786.3932, 149.3013
786.8754, 147.4139
787.3575, 146.2276
787.8396, 145.9097
788.3217, 145.8845
788.8038, 145.9410
789.2859, 145.8655
789.7681, 145.2429
790.2502, 143.9517
790.7323, 142.7534
791.2144, 141.8886
791.6965, 140.8101
792.1786, 139.4659
792.6608, 137.7990
793.1429, 135.5437
793.6250, 132.7928
794.1071, 130.3489
794.5892, 128.6405
795.0714, 127.2915
795.5535, 126.3928
796.0356, 125.5103
796.5177, 123.5405
796.9998, 120.5184
797.4819, 117.9031
797.9641, 116.7672
798.4462, 116.5728
798.9283, 115.8875
799.4104, 114.5870
799.8925, 113.7405
800.3746, 113.8611
800.8568, 113.5666
801.3389, 111.5888
801.8210, 108.9181
802.3031, 107.4143
802.7852, 107.2375
803.2673, 107.5015
803.7495, 108.3088
804.2316, 109.2380
804.7137, 110.2838
805.1958, 111.1934
805.6779, 111.4145
806.1600, 110.9750
806.6422, 110.8003
807.1243, 111.8087
807.6064, 113.3716
808.0885, 114.0942
808.5706, 114.1186
809.0527, 114.6785
809.5349, 116.0687
810.0170, 117.7019
810.4991, 119.1207
810.9812, 120.4175
811.4633, 121.9695
811.9454, 123.8906
812.4276, 125.8653
812.9097, 128.2112
813.3918, 130.2665
813.8739, 131.3505
814.3560, 132.1078
814.8381, 133.5716
815.3203, 135.9733
815.8024, 138.4728
816.2845, 140.8053
816.7666, 142.8901
817.2487, 144.5198
817.7308, 145.8668
818.2130, 147.3583
818.6951, 149.0805
819.1772, 150.6656
819.6593, 151.7241
820.1414, 152.4393
820.6235, 153.6593
821.1057, 155.5672
821.5878, 156.5061
822.0699, 155.6799
822.5520, 154.9586
823.0341, 155.9637
823.5162, 158.0334
823.9984, 159.0450
824.4805, 158.6880
824.9626, 158.0747
825.4447, 156.6955
825.9268, 155.7460
826.4089, 156.2094
826.8911, 157.3852
827.3732, 158.4186
827.8553, 159.0287
828.3374, 158.8548
828.8195, 157.0363
829.3016, 154.6584
829.7838, 153.5268
830.2659, 153.2686
830.7480, 152.5914
831.2301, 151.1878
831.7122, 149.3014
832.1943, 147.0657
832.6765, 144.6453
833.1586, 142.7398
833.6407, 141.5371
834.1228, 140.2683
834.6049, 139.1075
835.0870, 137.5571
835.5692, 134.8100
836.0513, 131.7397
836.5334, 129.7854
837.0155, 129.2805
837.4976, 128.3381
837.9797, 126.4658
838.4619, 124.0769
838.9440, 120.8529
839.4261, 117.5563
839.9082, 115.1396
840.3903, 113.7616
840.8724, 113.1313
841.3546, 113.4525
841.8367, 113.6386
842.3188, 111.5755
842.8009, 107.7315
843.2830, 104.2061
843.7651, 101.2987
844.2473, 99.05369
844.7294, 97.61997
845.2115, 96.58455
845.6936, 95.03134
846.1757, 92.79037
846.6578, 90.73716
847.1400, 88.90989
847.6221, 87.23139
848.1042, 85.78230
848.5863, 84.39120
849.0684, 82.73317
849.5505, 80.86919
850.0327, 79.53962
850.5148, 79.64366
850.9969, 79.48907
851.4790, 78.03150
851.9611, 76.05824
852.4432, 74.28794
852.9254, 72.84710
853.4075, 71.68703
853.8896, 70.79810
854.3717, 70.02527
854.8538, 68.95827
855.3359, 67.84115
855.8181, 67.77905
856.3002, 68.77107
856.7823, 69.54979
857.2644, 69.63493
857.7465, 69.20449
858.2286, 68.36873
858.7108, 67.15113
859.1929, 66.55957
859.6750, 66.99557
860.1571, 67.26643
860.6392, 66.90971
861.1213, 66.60515
861.6035, 66.94838
862.0856, 67.63323
862.5677, 67.95177
863.0498, 67.81955
863.5319, 67.25640
864.0140, 65.54771
864.4962, 64.10405
864.9783, 64.21259
865.4604, 65.25069
865.9425, 66.18879
866.4246, 66.70025
866.9067, 66.80431
867.3889, 66.36604
867.8710, 65.67777
868.3531, 65.22580
868.8352, 64.99471
869.3173, 64.85833
869.7994, 64.79576
870.2816, 65.16604
870.7637, 66.30963
871.2458, 67.79226
871.7279, 68.53590
872.2100, 68.40285
872.6921, 68.08464
873.1743, 67.46169
873.6564, 66.87000
874.1385, 66.33369
874.6206, 65.97010
875.1027, 65.80145
875.5848, 65.84538
876.0670, 66.53724
876.5491, 68.51067
877.0312, 70.38658
877.5133, 72.06599
877.9954, 73.17471
878.4775, 72.92129
878.9597, 71.88025
879.4418, 71.54976
879.9239, 72.56287
880.4060, 73.82470
880.8881, 74.20033
881.3702, 74.29469
881.8524, 75.10860
882.3345, 76.54367
882.8166, 78.19849
883.2987, 79.92181
883.7808, 81.32722
884.2629, 82.02808
884.7451, 82.15819
885.2272, 82.13657
885.7093, 81.91555
886.1914, 81.92004
886.6735, 82.14167
887.1556, 82.79869
887.6378, 84.21291
888.1199, 86.00382
888.6020, 87.29529
889.0841, 87.76648
889.5662, 88.91441
890.0483, 91.39078
890.5305, 93.68944
891.0126, 95.43077
891.4947, 96.78768
891.9768, 97.67551
892.4589, 98.30423
892.9410, 99.46400
893.4232, 101.6377
893.9053, 103.9640
894.3874, 106.0956
894.8695, 107.9884
895.3516, 109.4136
895.8337, 110.5812
896.3159, 111.8705
896.7980, 113.4664
897.2801, 115.6435
897.7622, 118.8346
898.2443, 122.7413
898.7264, 126.8886
899.2086, 131.1632
899.6907, 134.6371
900.1728, 137.0734
900.6549, 139.5723
901.1370, 142.9830
901.6191, 146.9515
902.1013, 150.3691
902.5834, 152.8731
903.0655, 156.3338
903.5476, 161.2900
904.0297, 166.1702
904.5118, 170.5105
904.9940, 174.3479
905.4761, 177.3305
905.9582, 179.5424
906.4403, 182.9595
906.9224, 189.3410
907.4045, 194.6954
907.8867, 197.1117
908.3688, 199.1812
908.8509, 202.8427
909.3330, 207.6373
909.8151, 212.4140
910.2972, 216.8384
910.7794, 221.1210
911.2615, 225.4172
911.7436, 229.6452
912.2257, 233.8340
912.7078, 237.8338
913.1899, 241.1423
913.6721, 243.8392
914.1542, 246.8574
914.6363, 250.9380
915.1184, 255.3100
915.6005, 258.5074
916.0826, 260.7643
916.5648, 263.6560
917.0469, 267.2829
917.5290, 270.1359
918.0111, 271.4803
918.4932, 272.2895
918.9753, 273.8023
919.4575, 275.9752
919.9396, 277.8711
920.4217, 279.0797
920.9038, 281.3069
921.3859, 286.2321
921.8680, 290.1875
922.3502, 290.0382
922.8323, 287.5111
923.3144, 286.5289
923.7965, 287.4088
924.2786, 288.5439
924.7607, 290.2267
925.2429, 291.5967
925.7250, 292.6527
926.2071, 293.0186
926.6892, 291.7816
927.1713, 289.4378
927.6534, 287.9771
928.1356, 288.3864
928.6177, 289.1246
929.0998, 289.4370
929.5819, 289.4083
930.0640, 289.2040
930.5461, 288.7223
931.0283, 287.5651
931.5104, 285.7045
931.9925, 283.9105
932.4746, 283.0495
932.9567, 280.9121
933.4388, 280.3397
933.9210, 277.2944
934.4031, 274.7602
934.8852, 272.9096
935.3673, 270.9120
935.8494, 268.2900
936.3315, 265.5262
936.8137, 263.4957
937.2958, 262.1677
937.7779, 260.5783
938.2600, 258.7078
938.7421, 256.6869
939.2242, 254.6134
939.7064, 252.1864
940.1885, 248.8984
940.6706, 245.1512
941.1527, 242.5479
941.6348, 241.5942
942.1169, 240.6164
942.5991, 239.9676
943.0812, 238.8639
943.5633, 237.0435
944.0454, 234.6792
944.5275, 231.1749
945.0096, 226.9708
945.4918, 225.0547
945.9739, 227.4692
946.4560, 230.1012
946.9381, 230.9480
947.4202, 232.2298
947.9023, 236.1048
948.3845, 241.4866
948.8666, 246.1953
949.3487, 249.7605
949.8308, 253.4089
950.3129, 257.7156
950.7950, 262.6992
951.2772, 268.6425
951.7593, 275.1576
952.2414, 281.4012
952.7235, 287.5116
953.2056, 294.3315
953.6877, 302.3067
954.1699, 310.9395
954.6520, 320.2402
955.1341, 329.5602
955.6162, 336.7803
956.0983, 342.1913
956.5804, 347.8302
957.0626, 354.1906
957.5447, 361.4185
958.0268, 369.8370
958.5089, 378.6458
958.9910, 386.0888
959.4731, 392.1058
959.9553, 397.6535
960.4374, 403.1426
960.9195, 406.1678
961.4016, 405.3233
961.8837, 402.9964
962.3658, 401.9406
962.8480, 401.6701
963.3301, 398.5876
963.8122, 391.5766
964.2943, 384.1234
964.7764, 376.6682
965.2585, 368.3901
965.7407, 359.7220
966.2228, 349.5721
966.7049, 336.1151
967.1870, 319.3800
967.6691, 302.5336
968.1512, 286.1344
968.6334, 269.3875
969.1155, 251.4449
969.5976, 233.7108
970.0797, 216.6181
970.5618, 200.4815
971.0439, 185.6754
971.5261, 172.3768
972.0082, 159.3151
972.4903, 145.1144
972.9724, 132.0575
973.4545, 121.7781
973.9366, 113.3681
974.4188, 106.1049
974.9009, 99.58186
975.3830, 92.95267
975.8651, 85.82935
976.3472, 79.40061
976.8293, 74.86131
977.3115, 71.49593
977.7936, 68.69009
978.2757, 66.18046
978.7578, 63.31709
979.2399, 60.09426
979.7220, 57.29810
980.2042, 55.44835
980.6863, 54.10797
981.1684, 52.61151
981.6505, 51.09474
982.1326, 50.28118
982.6147, 50.04243
983.0969, 49.02895
983.5790, 46.85229
984.0611, 44.49835
984.5432, 42.75008
985.0253, 41.53679
985.5074, 40.68113
985.9896, 40.18490
986.4717, 40.01969
986.9538, 40.22171
987.4359, 40.56429
987.9180, 41.07072
988.4001, 41.34832
988.8823, 40.97517
989.3644, 39.99568
989.8465, 38.64515
990.3286, 36.62341
990.8107, 35.13458
991.2928, 34.18621
991.7750, 33.91680
992.2571, 34.62765
992.7392, 35.83633
993.2213, 37.16386
993.7034, 38.60545
994.1855, 38.87428
994.6677, 36.70152
995.1498, 35.26431
995.6319, 35.33098
996.1140, 35.53753
996.5961, 35.40919
997.0782, 34.91988
997.5604, 33.88535
998.0425, 32.28532
998.5246, 31.10902
999.0067, 30.38618
999.4888, 30.27933
999.9709, 31.35922
1000.453, 32.56571
1000.935, 33.16808
1001.417, 33.31726
1001.899, 33.37681
1002.382, 33.41993
1002.864, 33.30160
1003.346, 32.99847
1003.828, 32.47445
1004.310, 31.28695
1004.792, 30.19798
1005.274, 30.45335
1005.756, 31.41878
1006.238, 31.11929
1006.721, 28.91178
1007.203, 27.25537
1007.685, 28.41440
1008.167, 30.30135
1008.649, 31.31648
1009.131, 31.55148
1009.613, 30.65948
1010.095, 29.16317
1010.578, 28.81689
1011.060, 30.41659
1011.542, 32.11647
1012.024, 32.07652
1012.506, 31.02947
1012.988, 29.70520
1013.470, 28.37678
1013.952, 27.78178
1014.434, 27.90772
1014.917, 28.05131
1015.399, 27.83295
1015.881, 27.42811
1016.363, 27.01212
1016.845, 26.60675
1017.327, 26.21982
1017.809, 25.89193
1018.291, 25.87472
1018.773, 26.18897
1019.256, 26.44381
1019.738, 26.38591
1020.220, 26.18305
1020.702, 26.06764
1021.184, 26.04924
1021.666, 26.26401
1022.148, 26.69639
1022.630, 26.98370
1023.113, 27.05439
1023.595, 26.63005
1024.077, 25.39563
1024.559, 24.01286
1025.041, 23.94439
1025.523, 25.20353
1026.005, 26.21490
1026.487, 27.01072
1026.969, 27.23096
1027.452, 26.70819
1027.934, 25.94176
1028.416, 25.29978
1028.898, 24.68129
1029.380, 23.70791
1029.862, 23.69461
1030.344, 21.98657
1030.826, 23.52678
1031.309, 24.59336
1031.791, 24.50290
1032.273, 24.04981
1032.755, 23.74536
1033.237, 23.62925
1033.719, 23.86487
1034.201, 24.61736
1034.683, 24.92379
1035.166, 24.56304
1035.648, 24.24948
1036.130, 24.23699
1036.612, 24.19486
1037.094, 23.68190
1037.576, 23.01665
1038.058, 23.22159
1038.540, 24.77630
1039.022, 25.49830
1039.505, 24.72536
1039.987, 24.17748
1040.469, 24.55161
1040.951, 24.97645
1041.433, 24.63157
1041.915, 23.84175
1042.397, 23.62841
1042.879, 24.35551
1043.361, 24.46898
1043.844, 23.13625
1044.326, 22.29183
1044.808, 22.71375
1045.290, 23.47193
1045.772, 24.00075
1046.254, 24.30886
1046.736, 24.40879
1047.218, 24.17656
1047.700, 24.24360
1048.183, 25.59653
1048.665, 26.02272
1049.147, 23.73540
1049.629, 21.36690
1050.111, 21.11335
1050.593, 22.32409
1051.075, 23.41770
1051.557, 24.28107
1052.040, 24.63546
1052.522, 24.22294
1053.004, 23.56340
1053.486, 22.43110
1053.968, 21.47965
1054.450, 21.40307
1054.932, 21.85184
1055.414, 22.04146
1055.896, 21.83186
1056.379, 21.54776
1056.861, 20.73789
1057.343, 20.57243
1057.825, 22.23067
1058.307, 24.02155
1058.789, 24.69411
1059.271, 24.44290
1059.753, 23.72133
1060.236, 22.59371
1060.718, 21.67175
1061.200, 21.01037
1061.682, 20.77694
1062.164, 21.20081
1062.646, 21.93181
1063.128, 23.06973
1063.610, 24.15240
1064.093, 24.34049
1064.575, 23.50076
1065.057, 22.51575
1065.539, 21.26608
1066.021, 20.52733
1066.503, 21.29797
1066.985, 22.07947
1067.467, 21.46427
1067.949, 20.10037
1068.432, 19.01670
1068.914, 18.44517
1069.396, 18.53518
1069.878, 20.00575
1070.360, 21.16287
1070.842, 20.83715
1071.324, 20.31922
1071.806, 20.84059
1072.288, 21.75430
1072.771, 21.80741
1073.253, 20.97788
1073.735, 20.56896
1074.217, 21.50179
1074.699, 22.11550
1075.181, 20.96489
1075.663, 19.88588
1076.145, 20.53580
1076.627, 21.97891
1077.110, 22.96397
1077.592, 23.30881
1078.074, 23.23667
1078.556, 22.70886
1079.038, 22.10171
1079.520, 21.41565
1080.002, 20.89968
1080.484, 20.85183
1080.967, 21.00035
1081.449, 21.12984
1081.931, 21.12595
1082.413, 20.69920
1082.895, 19.60274
1083.377, 18.74702
1083.859, 18.94422
1084.341, 19.05639
1084.823, 17.65388
1085.306, 16.33438
1085.788, 17.45473
1086.270, 20.18495
1086.752, 21.61744
1087.234, 20.81172
1087.716, 20.18978
1088.198, 21.10138
1088.680, 22.08212
1089.163, 22.31412
1089.645, 22.27410
1090.127, 22.50178
1090.609, 22.82285
1091.091, 22.75288
1091.573, 22.18600
1092.055, 21.46945
1092.537, 20.42294
1093.020, 19.66508
1093.502, 19.41469
1093.984, 19.60899
1094.466, 20.98000
1094.948, 22.40000
1095.430, 21.38945
1095.912, 17.88867
1096.394, 16.13975
1096.876, 19.12897
1097.359, 21.60811
1097.841, 21.72761
1098.323, 20.88557
1098.805, 19.14361
1099.287, 17.51198
1099.769, 17.42597
1100.251, 18.77442
1100.733, 19.98048
1101.215, 20.84658
1101.698, 21.18274
1102.180, 20.56461
1102.662, 19.84769
1103.144, 19.30794
1103.626, 18.99566
1104.108, 19.18126
1104.590, 19.62009
1105.072, 19.34430
1105.554, 17.71590
1106.037, 17.05095
1106.519, 18.58182
1107.001, 20.07187
1107.483, 20.83669
1107.965, 21.17786
1108.447, 21.41071
1108.929, 21.40314
1109.411, 20.75791
1109.894, 19.34500
1110.376, 17.96553
1110.858, 15.62829
1111.340, 14.85543
1111.822, 17.90954
1112.304, 20.74048
1112.786, 20.56523
1113.268, 18.92255
1113.750, 18.15668
1114.233, 18.32513
1114.715, 18.53492
1115.197, 18.88767
1115.679, 19.10259
1116.161, 19.18867
1116.643, 19.09941
1117.125, 18.69086
1117.607, 18.21308
1118.090, 17.92820
1118.572, 17.81290
1119.054, 17.72842
1119.536, 17.69870
1120.018, 17.63986
1120.500, 17.54602
1120.982, 17.39867
1121.464, 16.93244
1121.947, 16.86396
1122.429, 17.98996
1122.911, 19.76363
1123.393, 20.81415
1123.875, 21.11532
1124.357, 20.72314
1124.839, 19.17266
1125.321, 18.62984
1125.803, 19.98234
1126.286, 20.94011
1126.768, 19.91205
1127.250, 18.32202
1127.732, 18.57567
1128.214, 20.38295
1128.696, 20.23423
1129.178, 17.79606
1129.660, 15.92062
1130.142, 14.81007
1130.625, 15.05327
1131.107, 17.17691
1131.589, 19.07466
1132.071, 18.41015
1132.553, 16.13712
1133.035, 15.05902
1133.517, 15.15363
1133.999, 16.20098
1134.481, 18.14504
1134.964, 18.44815
1135.446, 16.41985
1135.928, 15.25456
1136.410, 17.37267
1136.892, 15.64969
1137.374, 19.22911
1137.856, 15.46557
1138.338, 14.10923
1138.821, 14.77868
1139.303, 15.79368
1139.785, 16.85853
1140.267, 18.30213
1140.749, 20.25051
1141.231, 21.62138
1141.713, 21.15775
1142.195, 19.63787
1142.677, 17.88944
1143.160, 16.39528
1143.642, 16.82478
1144.124, 18.49946
1144.606, 18.77989
1145.088, 17.15783
1145.570, 15.50227
1146.052, 14.90840
1146.534, 15.12871
1147.017, 16.26091
1147.499, 17.75696
1147.981, 19.35607
1148.463, 20.60088
1148.945, 20.46890
1149.427, 19.24476
1149.909, 18.25325
1150.391, 17.99859
1150.874, 18.01504
1151.356, 18.24075
1151.838, 18.35951
1152.320, 17.92693
1152.802, 17.47013
1153.284, 17.62442
1153.766, 18.11850
1154.248, 18.38525
1154.730, 18.32753
1155.213, 18.14771
1155.695, 17.72695
1156.177, 17.52136
1156.659, 17.78316
1157.141, 18.18395
1157.623, 19.07003
1158.105, 19.59542
1158.587, 18.41920
1159.069, 16.06129
1159.552, 14.56827
1160.034, 14.25673
1160.516, 14.47220
1160.998, 15.47431
1161.480, 16.56520
1161.962, 18.02900
1162.444, 19.02903
1162.926, 18.67117
1163.408, 17.82979
1163.891, 18.06109
1164.373, 19.33657
1164.855, 19.53932
1165.337, 18.08825
1165.819, 17.21787
1166.301, 17.22134
1166.783, 17.42093
1167.265, 17.59266
1167.748, 17.83805
1168.230, 18.34267
1168.712, 18.85174
1169.194, 18.47700
1169.676, 17.15841
1170.158, 16.75265
1170.640, 17.31012
1171.122, 17.61199
1171.604, 17.39875
1172.087, 17.56571
1172.569, 18.65405
1173.051, 19.79911
1173.533, 19.83036
1174.015, 19.14273
1174.497, 18.70739
1174.979, 18.54694
1175.461, 18.99758
1175.944, 19.86081
1176.426, 20.08262
1176.908, 19.41610
1177.390, 18.50070
1177.872, 17.68957
1178.354, 17.27184
1178.836, 18.22910
1179.318, 19.27301
1179.801, 17.77671
1180.283, 15.38666
1180.765, 15.35169
1181.247, 17.35788
1181.729, 19.13293
1182.211, 19.90924
1182.693, 20.23143
1183.175, 20.24217
1183.657, 20.14331
1184.140, 20.08086
1184.622, 19.93943
1185.104, 19.33318
1185.586, 18.76003
1186.068, 19.31567
1186.550, 20.69326
1187.032, 20.79447
1187.514, 18.42765
1187.996, 17.03435
1188.479, 18.46354
1188.961, 19.39121
1189.443, 17.78301
1189.925, 16.25435
1190.407, 17.32157
1190.889, 19.43119
1191.371, 19.95911
1191.853, 18.89369
1192.335, 17.69094
1192.818, 15.95790
1193.300, 15.16996
1193.782, 15.61506
1194.264, 16.59558
1194.746, 18.16772
1195.228, 19.28541
1195.710, 18.91631
1196.192, 17.69298
1196.675, 17.08431
1197.157, 17.07794
1197.639, 17.42531
1198.121, 18.11633
1198.603, 18.87626
1199.085, 19.63611
1199.567, 19.91084
1200.049, 19.48454
1200.531, 18.77944
1201.014, 18.17486
1201.496, 17.67539
1201.978, 17.26258
1202.460, 16.97063
1202.942, 17.16265
1203.424, 17.46682
1203.906, 16.56534
1204.388, 14.65239
1204.871, 13.68364
1205.353, 14.60402
1205.835, 15.67412
1206.317, 15.90534
1206.799, 15.42181
1207.281, 13.28138
1207.763, 11.40576
1208.245, 12.16318
1208.728, 14.39163
1209.210, 16.20816
1209.692, 17.23592
1210.174, 17.21297
1210.656, 15.28711
1211.138, 14.14490
1211.620, 15.00518
1212.102, 15.80869
1212.584, 15.47944
1213.067, 15.19639
1213.549, 16.06881
1214.031, 17.39984
1214.513, 17.83493
1214.995, 17.37877
1215.477, 17.60491
1215.959, 19.00820
1216.441, 19.03210
1216.923, 16.98783
1217.406, 15.83780
1217.888, 16.74564
1218.370, 18.15997
1218.852, 18.98782
1219.334, 18.89173
1219.816, 16.55649
1220.298, 12.74468
1220.780, 11.60118
1221.262, 12.68492
1221.745, 14.26548
1222.227, 15.81662
1222.709, 15.81377
1223.191, 13.90973
1223.673, 12.59433
1224.155, 14.06949
1224.637, 13.04246
1225.119, 15.33635
1225.602, 14.11198
1226.084, 15.03635
1226.566, 16.89853
1227.048, 17.69614
1227.530, 17.53591
1228.012, 17.65775
1228.494, 18.39683
1228.976, 18.43657
1229.458, 16.14757
1229.941, 14.74153
1230.423, 16.08880
1230.905, 17.54762
1231.387, 17.32295
1231.869, 16.73331
1232.351, 17.89081
1232.833, 19.80472
1233.315, 19.02181
1233.798, 14.71821
1234.280, 12.81815
1234.762, 14.13357
1235.244, 15.14577
1235.726, 15.28148
1236.208, 15.31847
1236.690, 15.56876
1237.172, 16.07617
1237.655, 16.96584
1238.137, 17.94333
1238.619, 18.29752
1239.101, 18.10141
1239.583, 17.54766
1240.065, 16.77124
1240.547, 16.34290
1241.029, 16.30816
1241.511, 16.37351
1241.994, 16.41336
1242.476, 16.43805
1242.958, 16.41496
1243.440, 16.45890
1243.922, 16.70631
1244.404, 17.05067
1244.886, 17.49438
1245.368, 17.88986
1245.850, 18.09772
1246.333, 18.07411
1246.815, 17.70895
1247.297, 16.92921
1247.779, 16.28259
1248.261, 15.75903
1248.743, 15.57313
1249.225, 16.31495
1249.707, 16.67630
1250.189, 15.68587
1250.672, 14.62890
1251.154, 14.80493
1251.636, 15.81119
1252.118, 16.52859
1252.600, 16.96092
1253.082, 17.04451
1253.564, 16.78953
1254.046, 15.62655
1254.529, 13.47876
1255.011, 12.95434
1255.493, 15.07649
1255.975, 17.30617
1256.457, 17.43057
1256.939, 16.53649
1257.421, 15.93120
1257.903, 15.71021
1258.385, 16.41302
1258.868, 17.43667
1259.350, 17.55056
1259.832, 16.94275
1260.314, 16.54479
1260.796, 16.60611
1261.278, 16.83255
1261.760, 17.57244
1262.242, 17.48385
1262.725, 14.72308
1263.207, 12.63502
1263.689, 13.53127
1264.171, 15.29205
1264.653, 16.09520
1265.135, 16.31518
1265.617, 16.92720
1266.099, 17.91721
1266.582, 17.72198
1267.064, 15.98599
1267.546, 14.31385
1268.028, 12.54606
1268.510, 12.67644
1268.992, 15.51008
1269.474, 17.76619
1269.956, 17.18206
1270.438, 18.53101
1270.921, 16.35792
1271.403, 17.92233
1271.885, 17.59317
1272.367, 15.99867
1272.849, 13.86255
1273.331, 11.94747
1273.813, 12.29016
1274.295, 14.69005
1274.777, 16.44196
1275.260, 16.36363
1275.742, 16.04961
1276.224, 16.38036
1276.706, 16.65387
1277.188, 16.44050
1277.670, 16.14863
1278.152, 16.15579
1278.634, 16.18652
1279.116, 15.76686
1279.599, 15.05623
1280.081, 14.64324
1280.563, 14.53075
1281.045, 14.69935
1281.527, 15.15087
1282.009, 16.01751
1282.491, 17.44601
1282.973, 18.24332
1283.456, 17.90212
1283.938, 17.00434
1284.420, 16.00206
1284.902, 15.04125
1285.384, 14.33226
##END=



