##NAMES=Obradovicite-KCu
##RRUFFID=R100015
##IDEAL CHEMISTRY=[K_2_(H_2_O)_17_Cu^2+^(H_2_O)_6_][Mo^6+^_8_As^5+^_2_Fe^3+^_3_O_34_(OH)_3_]
##LOCALITY=Chuquicamata, Chile
##OWNER=Colorado School of Mines
##SOURCE=Colorado School of Mines
##DESCRIPTION=Aggregates of pea-green grains associated with quartz and jarosite, type material
##STATUS=The identification of this mineral has been confirmed by single-crystal X-ray diffraction.
##URL=rruff.info/R100015
89.60352, 33.82454
90.08563, 33.68627
90.56775, 33.65141
91.04987, 33.73810
91.53198, 33.91257
92.01410, 34.15517
92.49622, 34.46385
92.97833, 34.78556
93.46045, 35.10395
93.94257, 35.40374
94.42468, 35.62457
94.90680, 35.69850
95.38892, 35.67674
95.87103, 35.77630
96.35315, 36.04203
96.83527, 36.24442
97.31738, 35.94719
97.79950, 35.12904
98.28162, 34.48351
98.76373, 34.38501
99.24585, 34.84969
99.72797, 35.29751
100.2101, 35.71940
100.6922, 36.11689
101.1743, 36.50231
101.6564, 36.88934
102.1385, 37.23626
102.6207, 37.54992
103.1028, 37.88006
103.5849, 37.97042
104.0670, 37.57639
104.5491, 36.84039
105.0313, 36.96103
105.5134, 38.71614
105.9955, 40.52357
106.4776, 41.10143
106.9597, 39.22350
107.4418, 37.84611
107.9240, 37.51055
108.4061, 38.34206
108.8882, 39.24381
109.3703, 40.43722
109.8524, 41.61908
110.3345, 42.45652
110.8167, 42.85619
111.2988, 42.99275
111.7809, 42.81095
112.2630, 42.11679
112.7451, 41.67774
113.2272, 41.77757
113.7094, 42.17469
114.1915, 42.47167
114.6736, 42.33685
115.1557, 42.24877
115.6378, 42.46109
116.1199, 43.18930
116.6021, 43.92359
117.0842, 44.33720
117.5663, 44.58748
118.0484, 45.14703
118.5305, 46.31857
119.0126, 47.83684
119.4948, 49.48621
119.9769, 51.32561
120.4590, 53.16896
120.9411, 54.62234
121.4232, 55.79750
121.9053, 57.49975
122.3875, 60.25347
122.8696, 63.84809
123.3517, 67.99119
123.8338, 73.01768
124.3159, 78.33440
124.7980, 82.88100
125.2802, 86.62206
125.7623, 91.04008
126.2444, 97.50025
126.7265, 105.6964
127.2086, 114.8123
127.6907, 124.2432
128.1729, 134.3660
128.6550, 145.8399
129.1371, 158.7096
129.6192, 173.0652
130.1013, 189.2721
130.5834, 207.1817
131.0656, 226.7898
131.5477, 248.7629
132.0298, 272.6593
132.5119, 296.3554
132.9940, 319.9661
133.4761, 342.9144
133.9583, 365.0495
134.4404, 386.3574
134.9225, 407.0977
135.4046, 427.2994
135.8867, 447.0631
136.3688, 465.8253
136.8510, 483.4110
137.3331, 499.8610
137.8152, 516.0572
138.2973, 531.3777
138.7794, 548.3134
139.2615, 569.5438
139.7437, 595.5915
140.2258, 622.7722
140.7079, 650.1940
141.1900, 677.8568
141.6721, 708.3154
142.1542, 741.4589
142.6364, 777.3210
143.1185, 816.5333
143.6006, 860.8475
144.0827, 904.3270
144.5648, 944.9652
145.0469, 982.7955
145.5291, 1020.491
146.0112, 1059.610
146.4933, 1098.172
146.9754, 1134.085
147.4575, 1165.719
147.9396, 1196.190
148.4218, 1226.896
148.9039, 1258.791
149.3860, 1288.063
149.8681, 1313.071
150.3502, 1335.231
150.8323, 1357.477
151.3145, 1380.892
151.7966, 1403.248
152.2787, 1423.792
152.7608, 1439.637
153.2429, 1457.898
153.7250, 1480.289
154.2072, 1505.586
154.6893, 1530.359
155.1714, 1548.468
155.6535, 1557.209
156.1356, 1565.625
156.6177, 1573.708
157.0999, 1583.663
157.5820, 1598.284
158.0641, 1615.917
158.5462, 1629.541
159.0283, 1634.358
159.5104, 1636.499
159.9926, 1639.963
160.4747, 1646.821
160.9568, 1653.968
161.4389, 1660.114
161.9210, 1665.382
162.4031, 1671.532
162.8853, 1680.764
163.3674, 1690.454
163.8495, 1698.202
164.3316, 1703.036
164.8137, 1705.932
165.2958, 1706.862
165.7780, 1705.866
166.2601, 1704.510
166.7422, 1703.573
167.2243, 1702.747
167.7064, 1701.666
168.1885, 1699.927
168.6707, 1698.039
169.1528, 1696.301
169.6349, 1694.715
170.1170, 1693.369
170.5991, 1692.363
171.0812, 1691.627
171.5634, 1691.047
172.0455, 1689.960
172.5276, 1689.311
173.0097, 1690.232
173.4918, 1692.965
173.9739, 1696.264
174.4561, 1699.044
174.9382, 1701.599
175.4203, 1704.648
175.9024, 1708.869
176.3845, 1713.664
176.8666, 1718.181
177.3488, 1722.312
177.8309, 1726.326
178.3130, 1730.238
178.7951, 1734.221
179.2772, 1738.755
179.7593, 1744.219
180.2415, 1750.420
180.7236, 1757.310
181.2057, 1765.178
181.6878, 1773.015
182.1699, 1779.140
182.6520, 1783.741
183.1342, 1788.895
183.6163, 1796.662
184.0984, 1806.078
184.5805, 1813.917
185.0626, 1819.313
185.5447, 1823.681
186.0269, 1829.325
186.5090, 1836.197
186.9911, 1843.937
187.4732, 1852.301
187.9553, 1861.351
188.4374, 1870.970
188.9196, 1881.165
189.4017, 1892.037
189.8838, 1904.080
190.3659, 1917.505
190.8480, 1931.201
191.3301, 1944.228
191.8123, 1956.831
192.2944, 1970.248
192.7765, 1984.759
193.2586, 2000.271
193.7407, 2015.867
194.2228, 2031.439
194.7050, 2047.957
195.1871, 2066.229
195.6692, 2086.252
196.1513, 2107.579
196.6334, 2130.115
197.1155, 2153.771
197.5977, 2178.681
198.0798, 2204.609
198.5619, 2232.308
199.0440, 2262.362
199.5261, 2294.969
200.0082, 2328.426
200.4904, 2362.656
200.9725, 2397.559
201.4546, 2433.257
201.9367, 2469.481
202.4188, 2507.327
202.9009, 2547.871
203.3831, 2591.678
203.8652, 2635.346
204.3473, 2677.547
204.8294, 2718.589
205.3115, 2762.270
205.7936, 2808.977
206.2758, 2857.476
206.7579, 2906.743
207.2400, 2956.314
207.7221, 3006.602
208.2042, 3057.135
208.6863, 3108.227
209.1685, 3163.371
209.6506, 3224.454
210.1327, 3287.075
210.6148, 3346.086
211.0969, 3399.752
211.5790, 3453.897
212.0612, 3509.929
212.5433, 3567.370
213.0254, 3627.353
213.5075, 3691.409
213.9896, 3756.178
214.4717, 3816.837
214.9538, 3873.429
215.4360, 3927.169
215.9181, 3979.065
216.4002, 4028.742
216.8823, 4075.266
217.3644, 4119.331
217.8465, 4159.427
218.3287, 4194.176
218.8108, 4223.139
219.2929, 4248.066
219.7750, 4270.128
220.2571, 4289.705
220.7392, 4303.610
221.2214, 4311.724
221.7035, 4314.517
222.1856, 4312.464
222.6677, 4305.028
223.1498, 4293.944
223.6319, 4280.023
224.1141, 4263.329
224.5962, 4242.390
225.0783, 4216.832
225.5604, 4187.629
226.0425, 4155.400
226.5246, 4119.640
227.0068, 4082.203
227.4889, 4044.587
227.9710, 4006.645
228.4531, 3965.751
228.9352, 3921.192
229.4173, 3874.240
229.8995, 3827.693
230.3816, 3782.508
230.8637, 3734.753
231.3458, 3683.048
231.8279, 3625.505
232.3100, 3571.740
232.7922, 3523.559
233.2743, 3477.909
233.7564, 3429.952
234.2385, 3377.938
234.7206, 3327.322
235.2027, 3279.754
235.6849, 3235.690
236.1670, 3191.554
236.6491, 3145.854
237.1312, 3101.297
237.6133, 3061.510
238.0954, 3027.067
238.5776, 2995.677
239.0597, 2967.058
239.5418, 2941.793
240.0239, 2916.757
240.5060, 2891.014
240.9881, 2866.259
241.4703, 2844.668
241.9524, 2827.052
242.4345, 2811.210
242.9166, 2796.981
243.3987, 2784.490
243.8808, 2772.230
244.3630, 2759.249
244.8451, 2747.236
245.3272, 2738.419
245.8093, 2734.302
246.2914, 2730.630
246.7735, 2726.253
247.2557, 2720.965
247.7378, 2716.962
248.2199, 2714.743
248.7020, 2713.234
249.1841, 2711.352
249.6662, 2709.255
250.1484, 2706.362
250.6305, 2702.540
251.1126, 2697.803
251.5947, 2691.758
252.0768, 2683.549
252.5589, 2674.953
253.0411, 2667.890
253.5232, 2663.016
254.0053, 2658.323
254.4874, 2653.111
254.9695, 2647.333
255.4516, 2643.398
255.9338, 2641.429
256.4159, 2641.207
256.8980, 2643.605
257.3801, 2652.027
257.8622, 2654.751
258.3444, 2647.496
258.8265, 2630.854
259.3086, 2620.799
259.7907, 2621.540
260.2728, 2623.118
260.7549, 2616.037
261.2371, 2596.602
261.7192, 2578.667
262.2013, 2564.513
262.6834, 2553.865
263.1655, 2545.691
263.6476, 2540.888
264.1298, 2536.819
264.6119, 2531.159
265.0940, 2523.415
265.5761, 2515.712
266.0582, 2508.100
266.5403, 2500.769
267.0225, 2495.227
267.5046, 2492.704
267.9867, 2489.390
268.4688, 2481.742
268.9509, 2468.141
269.4330, 2456.890
269.9152, 2449.573
270.3973, 2445.159
270.8794, 2439.743
271.3615, 2432.966
271.8436, 2426.202
272.3257, 2420.674
272.8079, 2416.603
273.2900, 2411.923
273.7721, 2405.543
274.2542, 2398.997
274.7363, 2397.079
275.2184, 2400.582
275.7006, 2405.716
276.1827, 2409.433
276.6648, 2411.335
277.1469, 2417.329
277.6290, 2428.271
278.1111, 2443.036
278.5933, 2458.922
279.0754, 2475.827
279.5575, 2495.299
280.0396, 2518.837
280.5217, 2546.235
281.0038, 2574.315
281.4860, 2602.855
281.9681, 2632.065
282.4502, 2663.042
282.9323, 2695.964
283.4144, 2727.613
283.8965, 2756.184
284.3787, 2781.653
284.8608, 2807.356
285.3429, 2834.011
285.8250, 2859.072
286.3071, 2879.658
286.7892, 2895.769
287.2714, 2906.299
287.7535, 2910.773
288.2356, 2909.254
288.7177, 2902.103
289.1998, 2889.268
289.6819, 2871.263
290.1641, 2848.797
290.6462, 2821.810
291.1283, 2789.546
291.6104, 2752.276
292.0925, 2709.501
292.5746, 2660.270
293.0568, 2604.174
293.5389, 2543.927
294.0210, 2482.226
294.5031, 2418.966
294.9852, 2354.497
295.4673, 2289.800
295.9495, 2223.846
296.4316, 2154.735
296.9137, 2082.875
297.3958, 2012.290
297.8779, 1946.764
298.3600, 1885.609
298.8422, 1825.365
299.3243, 1764.342
299.8064, 1704.532
300.2885, 1648.376
300.7706, 1595.944
301.2527, 1545.735
301.7349, 1496.816
302.2170, 1449.750
302.6991, 1406.609
303.1812, 1367.518
303.6633, 1332.015
304.1454, 1300.110
304.6276, 1271.537
305.1097, 1244.650
305.5918, 1217.873
306.0739, 1192.703
306.5560, 1171.732
307.0381, 1155.757
307.5203, 1142.045
308.0024, 1128.405
308.4845, 1115.246
308.9666, 1103.533
309.4487, 1093.887
309.9308, 1085.799
310.4130, 1078.920
310.8951, 1073.187
311.3772, 1068.908
311.8593, 1066.988
312.3414, 1066.616
312.8235, 1066.467
313.3057, 1065.590
313.7878, 1065.080
314.2699, 1065.540
314.7520, 1067.000
315.2341, 1069.338
315.7162, 1073.189
316.1984, 1077.645
316.6805, 1081.641
317.1626, 1084.472
317.6447, 1087.156
318.1268, 1089.313
318.6089, 1091.130
319.0911, 1095.099
319.5732, 1104.078
320.0553, 1114.497
320.5374, 1123.507
321.0195, 1128.073
321.5016, 1133.874
321.9838, 1142.530
322.4659, 1153.624
322.9480, 1165.078
323.4301, 1175.855
323.9122, 1187.396
324.3943, 1200.380
324.8765, 1215.823
325.3586, 1231.456
325.8407, 1247.122
326.3228, 1262.829
326.8049, 1278.676
327.2870, 1294.124
327.7692, 1309.973
328.2513, 1326.647
328.7334, 1344.481
329.2155, 1361.961
329.6976, 1379.556
330.1797, 1396.703
330.6619, 1412.159
331.1440, 1424.224
331.6261, 1437.042
332.1082, 1452.270
332.5903, 1470.225
333.0724, 1486.230
333.5546, 1498.636
334.0367, 1510.671
334.5188, 1525.751
335.0009, 1545.064
335.4830, 1565.018
335.9651, 1584.845
336.4473, 1604.725
336.9294, 1624.649
337.4115, 1644.280
337.8936, 1664.541
338.3757, 1686.260
338.8578, 1710.088
339.3399, 1732.929
339.8221, 1754.462
340.3042, 1774.697
340.7863, 1792.383
341.2684, 1807.629
341.7505, 1821.140
342.2326, 1833.594
342.7148, 1844.891
343.1969, 1854.345
343.6790, 1861.589
344.1611, 1867.410
344.6432, 1872.974
345.1253, 1878.254
345.6075, 1882.846
346.0896, 1886.057
346.5717, 1888.273
347.0538, 1890.980
347.5359, 1894.148
348.0180, 1897.986
348.5002, 1902.961
348.9823, 1908.885
349.4644, 1914.916
349.9465, 1919.229
350.4286, 1924.257
350.9107, 1934.901
351.3929, 1951.048
351.8750, 1969.370
352.3571, 1988.083
352.8392, 2007.004
353.3213, 2025.726
353.8034, 2043.969
354.2856, 2062.267
354.7677, 2081.717
355.2498, 2101.972
355.7319, 2121.893
356.2140, 2141.126
356.6961, 2159.450
357.1783, 2176.921
357.6604, 2193.578
358.1425, 2209.035
358.6246, 2223.740
359.1067, 2237.073
359.5888, 2248.009
360.0710, 2255.776
360.5531, 2261.176
361.0352, 2264.573
361.5173, 2265.921
361.9994, 2265.816
362.4815, 2265.056
362.9637, 2262.753
363.4458, 2257.960
363.9279, 2247.954
364.4100, 2237.854
364.8921, 2230.058
365.3742, 2224.261
365.8564, 2216.648
366.3385, 2205.959
366.8206, 2193.709
367.3027, 2180.817
367.7848, 2166.442
368.2669, 2152.463
368.7491, 2139.741
369.2312, 2127.671
369.7133, 2114.696
370.1954, 2099.088
370.6775, 2084.448
371.1596, 2072.354
371.6418, 2063.474
372.1239, 2055.024
372.6060, 2046.778
373.0881, 2039.253
373.5702, 2033.082
374.0523, 2028.269
374.5345, 2024.750
375.0166, 2022.355
375.4987, 2021.071
375.9808, 2021.935
376.4629, 2025.681
376.9450, 2029.858
377.4272, 2031.196
377.9093, 2028.937
378.3914, 2030.968
378.8735, 2039.652
379.3556, 2052.689
379.8377, 2063.813
380.3199, 2072.772
380.8020, 2082.135
381.2841, 2093.730
381.7662, 2107.330
382.2483, 2120.782
382.7304, 2133.759
383.2126, 2147.528
383.6947, 2164.759
384.1768, 2184.921
384.6589, 2204.963
385.1410, 2222.888
385.6231, 2240.285
386.1053, 2260.309
386.5874, 2282.962
387.0695, 2306.982
387.5516, 2332.910
388.0337, 2359.533
388.5158, 2384.414
388.9980, 2405.190
389.4801, 2425.992
389.9622, 2449.698
390.4443, 2475.959
390.9264, 2504.024
391.4085, 2534.969
391.8907, 2566.388
392.3728, 2596.232
392.8549, 2622.961
393.3370, 2650.115
393.8191, 2678.961
394.3012, 2708.983
394.7834, 2739.315
395.2655, 2770.574
395.7476, 2801.283
396.2297, 2831.092
396.7118, 2860.047
397.1939, 2887.327
397.6761, 2911.935
398.1582, 2935.243
398.6403, 2958.395
399.1224, 2982.154
399.6045, 3004.942
400.0866, 3026.413
400.5688, 3046.819
401.0509, 3067.046
401.5330, 3088.614
402.0151, 3108.451
402.4972, 3124.735
402.9793, 3135.563
403.4615, 3148.250
403.9436, 3164.188
404.4257, 3180.724
404.9078, 3192.944
405.3899, 3200.431
405.8720, 3205.440
406.3542, 3208.540
406.8363, 3209.714
407.3184, 3208.715
407.8005, 3205.181
408.2826, 3200.776
408.7647, 3197.394
409.2469, 3194.857
409.7290, 3190.974
410.2111, 3185.262
410.6932, 3178.003
411.1753, 3169.532
411.6574, 3159.979
412.1396, 3149.656
412.6217, 3138.560
413.1038, 3127.073
413.5859, 3116.137
414.0680, 3106.071
414.5501, 3095.078
415.0323, 3079.677
415.5144, 3062.148
415.9965, 3046.563
416.4786, 3035.628
416.9607, 3026.777
417.4428, 3018.529
417.9250, 3010.785
418.4071, 3002.459
418.8892, 2992.445
419.3713, 2981.895
419.8534, 2971.832
420.3355, 2961.826
420.8177, 2953.208
421.2998, 2946.889
421.7819, 2942.191
422.2640, 2937.456
422.7461, 2931.542
423.2282, 2926.398
423.7104, 2923.001
424.1925, 2922.050
424.6746, 2920.497
425.1567, 2918.153
425.6388, 2915.280
426.1209, 2911.936
426.6031, 2906.962
427.0852, 2903.435
427.5673, 2902.238
428.0494, 2902.816
428.5315, 2902.434
429.0136, 2900.987
429.4958, 2898.626
429.9779, 2895.623
430.4600, 2892.128
430.9421, 2886.386
431.4242, 2877.881
431.9063, 2868.001
432.3885, 2859.224
432.8706, 2851.659
433.3527, 2843.195
433.8348, 2833.287
434.3169, 2821.956
434.7990, 2808.350
435.2812, 2792.542
435.7633, 2777.472
436.2454, 2766.992
436.7275, 2759.285
437.2096, 2749.695
437.6917, 2736.938
438.1739, 2723.079
438.6560, 2709.882
439.1381, 2697.302
439.6202, 2685.211
440.1023, 2674.145
440.5844, 2663.165
441.0666, 2650.416
441.5487, 2635.766
442.0308, 2623.560
442.5129, 2620.015
442.9950, 2618.168
443.4771, 2611.365
443.9593, 2590.922
444.4414, 2572.708
444.9235, 2560.901
445.4056, 2554.551
445.8877, 2549.864
446.3698, 2548.998
446.8520, 2547.305
447.3341, 2542.551
447.8162, 2533.383
448.2983, 2525.191
448.7804, 2517.564
449.2625, 2511.203
449.7447, 2507.927
450.2268, 2511.383
450.7089, 2509.067
451.1910, 2496.719
451.6731, 2476.685
452.1552, 2461.617
452.6374, 2452.809
453.1195, 2445.338
453.6016, 2436.062
454.0837, 2425.163
454.5658, 2415.238
455.0479, 2406.715
455.5301, 2398.756
456.0122, 2390.358
456.4943, 2381.511
456.9764, 2372.936
457.4585, 2365.519
457.9406, 2358.004
458.4228, 2347.394
458.9049, 2334.079
459.3870, 2321.061
459.8691, 2310.490
460.3512, 2301.600
460.8333, 2293.565
461.3155, 2286.268
461.7976, 2279.371
462.2797, 2272.384
462.7618, 2265.620
463.2439, 2259.769
463.7260, 2254.388
464.2082, 2250.562
464.6903, 2249.739
465.1724, 2251.916
465.6545, 2252.930
466.1366, 2248.844
466.6187, 2245.343
467.1009, 2246.158
467.5830, 2256.521
468.0651, 2264.420
468.5472, 2267.881
469.0293, 2269.368
469.5114, 2273.941
469.9936, 2282.370
470.4757, 2292.397
470.9578, 2303.484
471.4399, 2315.623
471.9220, 2328.355
472.4041, 2341.338
472.8863, 2355.403
473.3684, 2371.091
473.8505, 2388.385
474.3326, 2407.185
474.8147, 2427.984
475.2968, 2449.274
475.7790, 2467.555
476.2611, 2483.509
476.7432, 2501.003
477.2253, 2523.440
477.7074, 2548.282
478.1895, 2571.696
478.6717, 2593.608
479.1538, 2614.781
479.6359, 2635.851
480.1180, 2656.545
480.6001, 2676.787
481.0822, 2697.995
481.5644, 2716.695
482.0465, 2729.843
482.5286, 2739.217
483.0107, 2748.642
483.4928, 2762.023
483.9749, 2773.357
484.4571, 2780.115
484.9392, 2781.924
485.4213, 2781.330
485.9034, 2778.551
486.3855, 2773.334
486.8676, 2765.462
487.3498, 2755.063
487.8319, 2741.374
488.3140, 2723.628
488.7961, 2702.874
489.2782, 2682.058
489.7603, 2662.168
490.2425, 2639.407
490.7246, 2612.359
491.2067, 2581.163
491.6888, 2547.930
492.1709, 2512.741
492.6530, 2476.202
493.1352, 2438.507
493.6173, 2399.863
494.0994, 2361.542
494.5815, 2324.263
495.0636, 2287.198
495.5457, 2249.782
496.0279, 2212.181
496.5100, 2174.994
496.9921, 2137.304
497.4742, 2100.521
497.9563, 2065.963
498.4384, 2033.330
498.9206, 2002.056
499.4027, 1971.891
499.8848, 1942.655
500.3669, 1913.341
500.8490, 1883.209
501.3311, 1854.407
501.8133, 1827.116
502.2954, 1801.302
502.7775, 1776.806
503.2596, 1753.571
503.7417, 1731.209
504.2238, 1709.834
504.7060, 1689.430
505.1881, 1669.922
505.6702, 1651.950
506.1523, 1634.029
506.6344, 1614.980
507.1165, 1594.644
507.5987, 1574.530
508.0808, 1554.636
508.5629, 1535.894
509.0450, 1520.714
509.5271, 1508.810
510.0092, 1496.243
510.4914, 1480.794
510.9735, 1464.178
511.4556, 1450.114
511.9377, 1438.412
512.4199, 1426.354
512.9020, 1410.840
513.3841, 1394.485
513.8662, 1380.848
514.3483, 1370.938
514.8304, 1361.137
515.3126, 1348.801
515.7947, 1335.399
516.2768, 1322.621
516.7589, 1310.710
517.2410, 1299.767
517.7231, 1290.287
518.2053, 1281.955
518.6874, 1273.225
519.1695, 1264.111
519.6516, 1254.449
520.1337, 1244.100
520.6158, 1232.668
521.0980, 1222.184
521.5801, 1212.938
522.0622, 1204.291
522.5443, 1195.447
523.0264, 1186.312
523.5085, 1177.598
523.9907, 1169.516
524.4728, 1161.941
524.9549, 1154.346
525.4370, 1146.732
525.9191, 1139.864
526.4012, 1135.179
526.8834, 1131.192
527.3655, 1124.063
527.8476, 1113.880
528.3297, 1103.975
528.8118, 1097.339
529.2939, 1092.459
529.7761, 1087.473
530.2582, 1081.829
530.7403, 1076.439
531.2224, 1072.177
531.7045, 1068.466
532.1866, 1064.379
532.6688, 1059.184
533.1509, 1053.992
533.6330, 1049.023
534.1151, 1044.326
534.5972, 1039.795
535.0793, 1035.571
535.5615, 1031.392
536.0436, 1027.187
536.5257, 1022.980
537.0078, 1018.380
537.4899, 1012.962
537.9720, 1007.862
538.4542, 1005.245
538.9363, 1005.338
539.4184, 1003.684
539.9005, 998.7726
540.3826, 992.2039
540.8647, 987.2478
541.3469, 983.8220
541.8290, 981.2631
542.3111, 979.8000
542.7932, 978.6843
543.2753, 976.8203
543.7574, 974.1676
544.2396, 971.1451
544.7217, 967.4138
545.2038, 963.7628
545.6859, 961.1219
546.1680, 960.5468
546.6501, 959.4135
547.1323, 955.8411
547.6144, 951.3142
548.0965, 948.3569
548.5786, 949.2912
549.0607, 949.6537
549.5428, 948.3096
550.0250, 945.4535
550.5071, 943.1080
550.9892, 941.3227
551.4713, 939.9720
551.9534, 939.2574
552.4355, 939.3480
552.9177, 938.0944
553.3998, 935.0959
553.8819, 932.0163
554.3640, 931.1297
554.8461, 932.0537
555.3282, 932.5762
555.8104, 931.9152
556.2925, 931.0135
556.7746, 931.1814
557.2567, 932.1807
557.7388, 933.2742
558.2209, 934.2888
558.7031, 935.0826
559.1852, 935.2225
559.6673, 934.7687
560.1494, 934.9982
560.6315, 937.2394
561.1136, 939.7960
561.5958, 941.5064
562.0779, 941.6064
562.5600, 942.0646
563.0421, 943.3203
563.5242, 944.8024
564.0063, 945.8309
564.4885, 946.3967
564.9706, 946.3987
565.4527, 945.4475
565.9348, 944.0439
566.4169, 944.0682
566.8990, 945.6649
567.3812, 947.3727
567.8633, 948.7079
568.3454, 949.5508
568.8275, 949.0363
569.3096, 947.1256
569.7917, 945.7078
570.2739, 946.0587
570.7560, 948.0916
571.2381, 952.6061
571.7202, 961.6520
572.2023, 967.7100
572.6844, 963.7551
573.1666, 954.3721
573.6487, 946.3841
574.1308, 942.1016
574.6129, 939.4001
575.0950, 938.1621
575.5771, 938.1894
576.0593, 938.2908
576.5414, 938.9120
577.0235, 938.9957
577.5056, 937.9927
577.9877, 935.7589
578.4698, 933.5103
578.9520, 930.7005
579.4341, 929.2015
579.9162, 932.6345
580.3983, 940.3679
580.8804, 942.1210
581.3625, 935.3131
581.8447, 925.6174
582.3268, 920.5217
582.8089, 918.9531
583.2910, 917.6521
583.7731, 915.4377
584.2552, 912.8522
584.7373, 910.0865
585.2194, 907.2907
585.7015, 905.0165
586.1837, 904.7795
586.6658, 904.0914
587.1479, 901.0682
587.6300, 895.0021
588.1121, 890.4886
588.5942, 889.3597
589.0764, 889.0109
589.5585, 887.8307
590.0406, 885.5875
590.5227, 882.9346
591.0048, 879.5779
591.4869, 876.1746
591.9691, 873.9495
592.4512, 872.9904
592.9333, 871.8427
593.4154, 870.1981
593.8975, 868.0479
594.3796, 865.1332
594.8618, 861.5978
595.3439, 858.1290
595.8260, 854.7031
596.3081, 851.8185
596.7902, 850.6062
597.2723, 851.0110
597.7545, 850.3693
598.2366, 846.7063
598.7187, 841.7585
599.2008, 836.6769
599.6829, 831.2175
600.1650, 826.5453
600.6472, 823.0286
601.1293, 820.3387
601.6114, 818.2044
602.0935, 816.9256
602.5756, 815.6432
603.0577, 814.2721
603.5399, 812.8118
604.0220, 811.5737
604.5041, 810.7392
604.9862, 808.4053
605.4683, 803.0519
605.9504, 795.7468
606.4326, 789.2858
606.9147, 783.6891
607.3968, 778.9304
607.8789, 775.4994
608.3610, 772.7064
608.8431, 769.7402
609.3253, 766.4142
609.8074, 763.2781
610.2895, 760.5230
610.7716, 758.1508
611.2537, 756.1424
611.7358, 755.2763
612.2180, 753.8187
612.7001, 751.3591
613.1822, 748.2794
613.6643, 745.0651
614.1464, 741.6065
614.6285, 738.4156
615.1107, 735.5804
615.5928, 733.1061
616.0749, 730.9823
616.5570, 729.2314
617.0391, 727.6531
617.5212, 726.1115
618.0034, 724.6724
618.4855, 723.6299
618.9676, 722.9633
619.4497, 722.0722
619.9318, 720.3447
620.4139, 718.1816
620.8961, 715.7740
621.3782, 712.6537
621.8603, 710.8996
622.3424, 713.0056
622.8245, 716.2966
623.3066, 717.7023
623.7888, 714.3060
624.2709, 712.0375
624.7530, 711.9092
625.2351, 713.0977
625.7172, 713.6534
626.1993, 713.3959
626.6815, 713.0292
627.1636, 712.5537
627.6457, 712.1807
628.1278, 713.1009
628.6099, 715.3183
629.0920, 717.4225
629.5742, 718.4333
630.0563, 718.7143
630.5384, 718.8556
631.0205, 718.8928
631.5026, 718.9694
631.9847, 719.0869
632.4669, 719.3593
632.9490, 719.8298
633.4311, 720.2636
633.9132, 721.4974
634.3953, 724.8656
634.8774, 728.6990
635.3596, 730.9179
635.8417, 730.1729
636.3238, 730.0727
636.8059, 731.2117
637.2880, 733.1149
637.7701, 734.7565
638.2523, 736.1785
638.7344, 737.0560
639.2165, 736.9967
639.6986, 736.4461
640.1807, 736.7174
640.6628, 737.7401
641.1450, 738.8644
641.6271, 739.7205
642.1092, 740.4229
642.5913, 741.0560
643.0734, 741.6356
643.5555, 742.2409
644.0377, 743.1267
644.5198, 743.9313
645.0019, 744.3331
645.4840, 743.9694
645.9661, 743.8875
646.4482, 744.0595
646.9304, 744.5858
647.4125, 745.6136
647.8946, 747.2843
648.3767, 749.0472
648.8588, 750.9728
649.3409, 752.7863
649.8231, 753.6879
650.3052, 753.8186
650.7873, 754.6104
651.2694, 756.8740
651.7515, 759.8478
652.2336, 762.3763
652.7158, 764.6078
653.1979, 767.2323
653.6800, 771.0000
654.1621, 774.9207
654.6442, 778.2670
655.1263, 780.9898
655.6085, 784.1424
656.0906, 788.1095
656.5727, 792.4521
657.0548, 796.9963
657.5369, 801.8344
658.0190, 806.4776
658.5012, 810.8719
658.9833, 815.1701
659.4654, 819.3688
659.9475, 823.4698
660.4296, 828.2198
660.9117, 833.7263
661.3939, 839.5709
661.8760, 844.9329
662.3581, 850.2148
662.8402, 856.4269
663.3223, 864.4867
663.8044, 872.7385
664.2866, 879.9309
664.7687, 886.4424
665.2508, 893.2325
665.7329, 900.0214
666.2150, 907.7209
666.6971, 917.0089
667.1793, 927.6266
667.6614, 937.9930
668.1435, 948.2114
668.6256, 958.1479
669.1077, 967.5968
669.5898, 976.6800
670.0720, 986.7498
670.5541, 997.8816
671.0362, 1009.570
671.5183, 1021.414
672.0004, 1033.694
672.4825, 1046.873
672.9647, 1061.123
673.4468, 1075.772
673.9289, 1090.335
674.4110, 1105.266
674.8931, 1120.884
675.3752, 1137.582
675.8574, 1154.623
676.3395, 1170.768
676.8216, 1187.429
677.3037, 1206.301
677.7858, 1228.786
678.2679, 1249.780
678.7501, 1267.923
679.2322, 1285.113
679.7143, 1305.765
680.1964, 1329.529
680.6785, 1354.550
681.1606, 1380.389
681.6428, 1406.572
682.1249, 1431.097
682.6070, 1454.793
683.0891, 1479.741
683.5712, 1509.025
684.0533, 1538.557
684.5355, 1565.216
685.0176, 1589.251
685.4997, 1616.170
685.9818, 1649.172
686.4639, 1683.335
686.9460, 1716.783
687.4282, 1749.296
687.9103, 1782.518
688.3924, 1816.823
688.8745, 1852.126
689.3566, 1888.996
689.8387, 1927.466
690.3209, 1963.808
690.8030, 1997.477
691.2851, 2031.104
691.7672, 2066.550
692.2493, 2103.210
692.7314, 2140.010
693.2136, 2176.825
693.6957, 2213.191
694.1778, 2248.257
694.6599, 2282.610
695.1420, 2317.103
695.6241, 2352.480
696.1063, 2386.742
696.5884, 2419.438
697.0705, 2451.134
697.5526, 2482.014
698.0347, 2511.717
698.5168, 2542.335
698.9990, 2575.368
699.4811, 2608.688
699.9632, 2636.655
700.4453, 2659.755
700.9274, 2680.281
701.4095, 2699.161
701.8917, 2716.200
702.3738, 2731.016
702.8559, 2743.811
703.3380, 2755.140
703.8201, 2766.401
704.3022, 2775.473
704.7844, 2780.935
705.2665, 2782.576
705.7486, 2783.180
706.2307, 2783.821
706.7128, 2781.919
707.1949, 2775.483
707.6771, 2764.399
708.1592, 2754.319
708.6413, 2745.448
709.1234, 2736.105
709.6055, 2724.551
710.0876, 2711.433
710.5698, 2698.125
711.0519, 2684.929
711.5340, 2670.625
712.0161, 2654.251
712.4982, 2636.182
712.9803, 2616.421
713.4625, 2593.209
713.9446, 2571.978
714.4267, 2556.212
714.9088, 2541.771
715.3909, 2524.071
715.8730, 2501.896
716.3552, 2480.513
716.8373, 2460.654
717.3194, 2441.972
717.8015, 2424.029
718.2836, 2406.862
718.7657, 2392.031
719.2479, 2381.217
719.7300, 2370.991
720.2121, 2356.022
720.6942, 2338.573
721.1763, 2323.304
721.6584, 2313.313
722.1406, 2304.911
722.6227, 2296.323
723.1048, 2288.138
723.5869, 2282.838
724.0690, 2282.012
724.5511, 2281.603
725.0333, 2280.455
725.5154, 2278.787
725.9975, 2277.431
726.4796, 2276.259
726.9617, 2276.941
727.4438, 2281.435
727.9260, 2288.121
728.4081, 2293.242
728.8902, 2297.050
729.3723, 2301.632
729.8544, 2307.833
730.3365, 2315.625
730.8187, 2325.019
731.3008, 2336.011
731.7829, 2348.376
732.2650, 2363.179
732.7471, 2378.248
733.2292, 2392.790
733.7114, 2406.759
734.1935, 2419.955
734.6756, 2432.176
735.1577, 2444.508
735.6398, 2458.346
736.1219, 2473.177
736.6041, 2486.960
737.0862, 2499.471
737.5683, 2511.604
738.0504, 2525.228
738.5325, 2538.284
739.0146, 2548.361
739.4968, 2554.685
739.9789, 2558.829
740.4610, 2560.434
740.9431, 2560.434
741.4252, 2560.310
741.9073, 2562.379
742.3895, 2557.981
742.8716, 2545.185
743.3537, 2528.148
743.8358, 2513.073
744.3179, 2499.515
744.8000, 2482.956
745.2822, 2462.430
745.7643, 2438.194
746.2464, 2408.733
746.7285, 2376.112
747.2106, 2344.117
747.6927, 2315.923
748.1749, 2286.394
748.6570, 2252.617
749.1391, 2216.007
749.6212, 2180.698
750.1033, 2147.924
750.5854, 2113.154
751.0676, 2075.014
751.5497, 2035.111
752.0318, 1998.354
752.5139, 1964.544
752.9960, 1932.335
753.4781, 1901.939
753.9603, 1872.438
754.4424, 1841.990
754.9245, 1811.134
755.4066, 1782.398
755.8887, 1757.149
756.3708, 1733.754
756.8530, 1711.353
757.3351, 1690.244
757.8172, 1669.710
758.2993, 1648.490
758.7814, 1630.030
759.2635, 1615.363
759.7457, 1604.231
760.2278, 1594.609
760.7099, 1586.520
761.1920, 1580.337
761.6741, 1576.746
762.1563, 1574.971
762.6384, 1573.632
763.1205, 1572.844
763.6026, 1573.257
764.0847, 1574.547
764.5668, 1577.763
765.0490, 1583.715
765.5311, 1592.511
766.0132, 1602.563
766.4953, 1613.678
766.9774, 1626.069
767.4595, 1639.720
767.9417, 1654.765
768.4238, 1671.649
768.9059, 1690.295
769.3880, 1710.019
769.8701, 1729.671
770.3522, 1750.249
770.8344, 1773.786
771.3165, 1800.268
771.7986, 1828.025
772.2807, 1856.877
772.7628, 1885.970
773.2449, 1915.420
773.7271, 1945.544
774.2092, 1973.285
774.6913, 1996.777
775.1734, 2020.306
775.6555, 2046.976
776.1376, 2077.171
776.6198, 2104.474
777.1019, 2128.893
777.5840, 2152.010
778.0661, 2175.029
778.5482, 2197.775
779.0303, 2220.192
779.5125, 2242.141
779.9946, 2263.076
780.4767, 2282.273
780.9588, 2300.333
781.4409, 2317.764
781.9230, 2334.677
782.4052, 2349.923
782.8873, 2363.184
783.3694, 2375.119
783.8515, 2386.199
784.3336, 2396.353
784.8157, 2404.760
785.2979, 2411.239
785.7800, 2416.393
786.2621, 2421.165
786.7442, 2424.811
787.2263, 2426.326
787.7084, 2425.565
788.1906, 2422.593
788.6727, 2416.875
789.1548, 2409.378
789.6369, 2400.861
790.1190, 2392.049
790.6011, 2380.700
791.0833, 2366.542
791.5654, 2350.388
792.0475, 2333.565
792.5296, 2315.762
793.0117, 2295.350
793.4938, 2271.739
793.9760, 2247.761
794.4581, 2226.447
794.9402, 2205.883
795.4223, 2183.179
795.9044, 2156.508
796.3865, 2131.807
796.8687, 2111.515
797.3508, 2093.691
797.8329, 2076.584
798.3150, 2059.710
798.7971, 2044.279
799.2792, 2030.053
799.7614, 2017.887
800.2435, 2008.594
800.7256, 2001.971
801.2077, 1996.716
801.6898, 1992.690
802.1719, 1990.077
802.6541, 1988.484
803.1362, 1988.734
803.6183, 1991.464
804.1004, 1996.210
804.5825, 2005.097
805.0646, 2020.326
805.5468, 2038.757
806.0289, 2058.217
806.5110, 2078.438
806.9931, 2100.489
807.4752, 2123.810
807.9573, 2150.272
808.4395, 2183.314
808.9216, 2220.837
809.4037, 2257.057
809.8858, 2290.880
810.3679, 2325.999
810.8500, 2362.796
811.3322, 2403.010
811.8143, 2448.579
812.2964, 2502.177
812.7785, 2555.127
813.2606, 2605.950
813.7427, 2657.408
814.2249, 2711.474
814.7070, 2768.731
815.1891, 2824.897
815.6712, 2879.858
816.1533, 2935.281
816.6354, 2993.558
817.1176, 3052.976
817.5997, 3111.911
818.0818, 3170.340
818.5639, 3228.303
819.0460, 3287.306
819.5281, 3344.752
820.0103, 3398.449
820.4924, 3447.266
820.9745, 3495.341
821.4566, 3543.494
821.9387, 3589.366
822.4208, 3629.562
822.9030, 3665.116
823.3851, 3699.460
823.8672, 3732.957
824.3493, 3762.522
824.8314, 3784.208
825.3135, 3801.284
825.7957, 3817.337
826.2778, 3833.417
826.7599, 3843.660
827.2420, 3844.364
827.7241, 3841.103
828.2062, 3836.324
828.6884, 3830.134
829.1705, 3822.960
829.6526, 3815.353
830.1347, 3803.901
830.6168, 3785.539
831.0989, 3761.736
831.5811, 3735.017
832.0632, 3705.666
832.5453, 3672.444
833.0274, 3632.916
833.5095, 3590.938
833.9916, 3549.604
834.4738, 3509.406
834.9559, 3463.761
835.4380, 3411.032
835.9201, 3356.143
836.4022, 3302.415
836.8843, 3249.135
837.3665, 3190.743
837.8486, 3127.511
838.3307, 3064.237
838.8128, 3005.431
839.2949, 2947.218
839.7770, 2885.588
840.2592, 2820.426
840.7413, 2755.424
841.2234, 2691.049
841.7055, 2627.703
842.1876, 2564.781
842.6697, 2502.516
843.1519, 2442.594
843.6340, 2385.184
844.1161, 2328.740
844.5982, 2272.398
845.0803, 2216.422
845.5624, 2162.172
846.0446, 2109.350
846.5267, 2057.725
847.0088, 2006.518
847.4909, 1957.173
847.9730, 1910.292
848.4551, 1865.803
848.9373, 1823.845
849.4194, 1784.229
849.9015, 1746.943
850.3836, 1712.795
850.8657, 1680.677
851.3478, 1648.082
851.8300, 1615.299
852.3121, 1583.839
852.7942, 1554.024
853.2763, 1526.663
853.7584, 1502.810
854.2405, 1481.597
854.7227, 1461.422
855.2048, 1441.287
855.6869, 1423.379
856.1690, 1408.531
856.6511, 1395.526
857.1332, 1381.856
857.6154, 1367.346
858.0975, 1354.394
858.5796, 1343.413
859.0617, 1333.772
859.5438, 1325.069
860.0259, 1317.112
860.5081, 1309.671
860.9902, 1302.474
861.4723, 1296.303
861.9544, 1291.961
862.4365, 1288.576
862.9186, 1285.333
863.4008, 1282.295
863.8829, 1278.900
864.3650, 1274.817
864.8471, 1271.343
865.3292, 1271.039
865.8113, 1272.297
866.2935, 1269.981
866.7756, 1263.261
867.2577, 1256.866
867.7398, 1254.373
868.2219, 1253.166
868.7040, 1251.369
869.1862, 1248.857
869.6683, 1244.996
870.1504, 1239.245
870.6325, 1233.157
871.1146, 1227.618
871.5967, 1222.588
872.0789, 1218.223
872.5610, 1214.422
873.0431, 1210.244
873.5252, 1203.914
874.0073, 1197.722
874.4894, 1194.193
874.9716, 1193.101
875.4537, 1191.521
875.9358, 1187.931
876.4179, 1184.713
876.9000, 1182.302
877.3821, 1180.828
877.8643, 1181.005
878.3464, 1182.832
878.8285, 1185.666
879.3106, 1189.197
879.7927, 1193.521
880.2748, 1199.084
880.7570, 1205.527
881.2391, 1211.967
881.7212, 1217.067
882.2033, 1223.291
882.6854, 1231.798
883.1675, 1241.645
883.6497, 1251.692
884.1318, 1261.975
884.6139, 1272.030
885.0960, 1281.409
885.5781, 1291.457
886.0602, 1304.304
886.5424, 1319.313
887.0245, 1334.985
887.5066, 1350.844
887.9887, 1367.338
888.4708, 1385.224
888.9529, 1403.472
889.4351, 1421.016
889.9172, 1436.957
890.3993, 1453.943
890.8814, 1471.532
891.3635, 1491.200
891.8456, 1515.779
892.3278, 1543.576
892.8099, 1569.500
893.2920, 1592.853
893.7741, 1617.854
894.2562, 1646.650
894.7383, 1678.131
895.2205, 1712.199
895.7026, 1748.788
896.1847, 1786.440
896.6668, 1824.781
897.1489, 1864.426
897.6310, 1904.916
898.1132, 1946.920
898.5953, 1991.531
899.0774, 2038.715
899.5595, 2088.032
900.0416, 2139.321
900.5237, 2193.010
901.0059, 2250.913
901.4880, 2311.761
901.9701, 2373.257
902.4522, 2433.488
902.9343, 2495.101
903.4164, 2559.083
903.8986, 2624.729
904.3807, 2692.406
904.8628, 2761.724
905.3449, 2832.202
905.8270, 2904.505
906.3091, 2975.993
906.7913, 3042.800
907.2734, 3107.801
907.7555, 3175.632
908.2376, 3249.368
908.7197, 3322.007
909.2018, 3393.730
909.6840, 3463.621
910.1661, 3531.647
910.6482, 3597.862
911.1303, 3667.139
911.6124, 3740.099
912.0945, 3811.297
912.5767, 3874.818
913.0588, 3935.120
913.5409, 3996.610
914.0230, 4059.930
914.5051, 4121.966
914.9872, 4183.254
915.4694, 4241.925
915.9515, 4296.958
916.4336, 4348.564
916.9157, 4398.952
917.3978, 4447.632
917.8799, 4493.354
918.3621, 4532.367
918.8442, 4570.341
919.3263, 4614.333
919.8084, 4661.809
920.2905, 4706.582
920.7726, 4745.822
921.2548, 4783.645
921.7369, 4821.509
922.2190, 4858.061
922.7011, 4891.063
923.1832, 4920.274
923.6653, 4945.627
924.1475, 4966.928
924.6296, 4985.156
925.1117, 5001.209
925.5938, 5015.147
926.0759, 5027.092
926.5580, 5036.338
927.0402, 5045.614
927.5223, 5056.860
928.0044, 5066.572
928.4865, 5072.066
928.9686, 5073.390
929.4507, 5072.337
929.9329, 5068.947
930.4150, 5063.420
930.8971, 5054.779
931.3792, 5044.854
931.8613, 5036.228
932.3434, 5028.656
932.8256, 5017.307
933.3077, 5001.519
933.7898, 4981.056
934.2719, 4955.313
934.7540, 4924.978
935.2361, 4893.307
935.7183, 4859.860
936.2004, 4824.654
936.6825, 4786.180
937.1646, 4747.062
937.6467, 4713.175
938.1288, 4679.233
938.6110, 4637.625
939.0931, 4577.701
939.5752, 4521.777
940.0573, 4473.758
940.5394, 4427.524
941.0215, 4377.342
941.5037, 4323.517
941.9858, 4267.927
942.4679, 4210.069
942.9500, 4154.197
943.4321, 4103.508
943.9142, 4057.406
944.3964, 4014.214
944.8785, 3973.753
945.3606, 3941.552
945.8427, 3917.695
946.3248, 3901.382
946.8069, 3891.682
947.2891, 3889.308
947.7712, 3896.911
948.2533, 3914.645
948.7354, 3943.863
949.2175, 3985.478
949.6996, 4038.572
950.1818, 4102.091
950.6639, 4176.984
951.1460, 4264.927
951.6281, 4367.888
952.1102, 4479.354
952.5923, 4598.232
953.0745, 4726.386
953.5566, 4867.797
954.0387, 5020.775
954.5208, 5179.415
955.0029, 5341.203
955.4850, 5510.521
955.9672, 5695.547
956.4493, 5884.835
956.9314, 6072.258
957.4135, 6257.811
957.8956, 6438.417
958.3777, 6614.754
958.8599, 6786.542
959.3420, 6958.786
959.8241, 7124.388
960.3062, 7265.118
960.7883, 7381.937
961.2704, 7475.883
961.7526, 7556.355
962.2347, 7606.045
962.7168, 7618.224
963.1989, 7593.331
963.6810, 7535.272
964.1631, 7446.477
964.6453, 7315.107
965.1274, 7137.211
965.6095, 6920.375
966.0916, 6667.165
966.5737, 6382.792
967.0558, 6080.260
967.5380, 5758.003
968.0201, 5424.926
968.5022, 5068.481
968.9843, 4713.012
969.4664, 4364.135
969.9485, 4027.360
970.4307, 3709.509
970.9128, 3413.077
971.3949, 3135.930
971.8770, 2877.078
972.3591, 2641.322
972.8412, 2435.214
973.3234, 2255.394
973.8055, 2089.604
974.2876, 1933.318
974.7697, 1793.675
975.2518, 1671.471
975.7339, 1564.223
976.2161, 1468.787
976.6982, 1384.106
977.1803, 1306.973
977.6624, 1237.693
978.1445, 1174.720
978.6266, 1116.911
979.1088, 1064.129
979.5909, 1016.249
980.0730, 973.7618
980.5551, 934.6699
981.0372, 898.2546
981.5193, 865.5258
982.0015, 837.1444
982.4836, 812.3728
982.9657, 789.0761
983.4478, 767.1517
983.9299, 746.1138
984.4120, 725.2930
984.8942, 705.7374
985.3763, 687.2024
985.8584, 670.4557
986.3405, 656.7459
986.8226, 646.7783
987.3047, 637.3483
987.7869, 628.0102
988.2690, 619.4411
988.7511, 613.2939
989.2332, 608.2950
989.7153, 602.1887
990.1974, 594.6203
990.6796, 586.8193
991.1617, 579.9717
991.6438, 572.2761
992.1259, 562.6541
992.6080, 551.4805
993.0901, 540.3400
993.5723, 529.2286
994.0544, 518.2853
994.5365, 507.4186
995.0186, 496.9176
995.5007, 486.9218
995.9828, 477.4460
996.4650, 468.3033
996.9471, 458.7102
997.4292, 450.8330
997.9113, 445.2220
998.3934, 440.6520
998.8755, 435.9653
999.3577, 431.0912
999.8398, 425.7521
1000.322, 419.8734
1000.804, 414.3253
1001.286, 408.9166
1001.768, 404.6429
1002.250, 403.0197
1002.732, 403.7198
1003.215, 402.5145
1003.697, 398.8559
1004.179, 395.2747
1004.661, 392.4300
1005.143, 390.2726
1005.625, 389.2251
1006.107, 388.6782
1006.589, 387.2206
1007.072, 383.9497
1007.554, 380.7173
1008.036, 377.9454
1008.518, 375.5133
1009.000, 373.5373
1009.482, 372.1406
1009.964, 369.4576
1010.446, 365.4130
1010.928, 361.1827
1011.411, 357.6276
1011.893, 354.2297
1012.375, 350.3619
1012.857, 346.1494
1013.339, 342.2112
1013.821, 338.7972
1014.303, 335.3379
1014.785, 331.6325
1015.268, 328.0194
1015.750, 325.3093
1016.232, 323.1325
1016.714, 320.1479
1017.196, 315.9071
1017.678, 311.7639
1018.160, 308.2955
1018.642, 305.4447
1019.124, 303.3489
1019.607, 302.0367
1020.089, 299.7531
1020.571, 296.3315
1021.053, 293.2296
1021.535, 291.2885
1022.017, 290.0486
1022.499, 289.1194
1022.981, 288.3160
1023.464, 287.2208
1023.946, 285.4748
1024.428, 283.7112
1024.910, 281.9574
1025.392, 280.2682
1025.874, 278.6147
1026.356, 277.0657
1026.838, 276.0914
1027.320, 275.7269
1027.803, 275.1662
1028.285, 273.4513
1028.767, 271.6539
1029.249, 270.7479
1029.731, 270.5982
1030.213, 269.6848
1030.695, 267.7530
1031.177, 266.0138
1031.660, 264.7401
1032.142, 263.9491
1032.624, 264.0594
1033.106, 264.5812
1033.588, 264.5485
1034.070, 263.4594
1034.552, 262.5619
1035.034, 262.3806
1035.516, 262.2391
1035.999, 261.6099
1036.481, 260.5658
1036.963, 260.2577
1037.445, 260.6205
1037.927, 260.8083
1038.409, 260.0640
1038.891, 259.1938
1039.373, 258.4912
1039.855, 258.1298
1040.338, 258.5727
1040.820, 260.3692
1041.302, 261.2630
1041.784, 260.8214
1042.266, 260.1513
1042.748, 260.9157
1043.230, 262.1998
1043.712, 262.1059
1044.195, 260.4348
1044.677, 259.2215
1045.159, 260.0540
1045.641, 260.4951
1046.123, 259.5575
1046.605, 257.6422
1047.087, 256.0964
1047.569, 254.8581
1048.052, 253.5600
1048.534, 252.1665
1049.016, 250.4454
1049.498, 247.6730
1049.980, 244.7528
1050.462, 242.7782
1050.944, 242.0216
1051.426, 241.2652
1051.908, 240.5575
1052.391, 239.6327
1052.873, 238.1148
1053.355, 236.3470
1053.837, 234.9036
1054.319, 233.7354
1054.801, 232.6737
1055.283, 231.6691
1055.765, 230.7639
1056.247, 229.9929
1056.730, 229.2737
1057.212, 228.4773
1057.694, 227.6235
1058.176, 226.7765
1058.658, 225.9363
1059.140, 225.4258
1059.622, 226.3015
1060.104, 226.8733
1060.587, 225.5085
1061.069, 222.6169
1061.551, 220.9469
1062.033, 220.6500
1062.515, 220.7966
1062.997, 221.3258
1063.479, 221.6675
1063.961, 220.5654
1064.443, 218.9912
1064.926, 218.5450
1065.408, 220.2080
1065.890, 220.8113
1066.372, 219.5675
1066.854, 218.1170
1067.336, 217.4299
1067.818, 217.2894
1068.300, 216.8334
1068.782, 216.1622
1069.265, 215.7090
1069.747, 215.9362
1070.229, 216.1416
1070.711, 216.3007
1071.193, 216.1117
1071.675, 214.9544
1072.157, 212.6584
1072.639, 211.6064
1073.122, 211.9911
1073.604, 212.6368
1074.086, 212.8413
1074.568, 212.6433
1075.050, 211.9231
1075.532, 210.7809
1076.014, 209.7614
1076.496, 208.8691
1076.979, 208.2446
1077.461, 208.0388
1077.943, 207.8336
1078.425, 206.9038
1078.907, 205.5547
1079.389, 204.3520
1079.871, 203.3878
1080.353, 202.5074
1080.835, 201.7439
1081.318, 200.9572
1081.800, 200.1210
1082.282, 199.2216
1082.764, 198.1252
1083.246, 196.8860
1083.728, 195.9149
1084.210, 195.5910
1084.692, 195.1301
1085.174, 193.7096
1085.656, 192.1337
1086.139, 191.2371
1086.621, 191.1586
1087.103, 191.0878
1087.585, 191.0569
1088.067, 190.6889
1088.549, 189.4746
1089.031, 187.9982
1089.513, 186.7956
1089.996, 185.8365
1090.478, 185.0336
1090.960, 184.3612
1091.442, 183.8970
1091.924, 183.7542
1092.406, 183.5444
1092.888, 182.6909
1093.370, 181.4948
1093.853, 180.6318
1094.335, 180.1175
1094.817, 179.5020
1095.299, 178.2948
1095.781, 177.3774
1096.263, 177.2263
1096.745, 177.3419
1097.227, 176.4737
1097.709, 174.7987
1098.192, 173.3598
1098.674, 172.3319
1099.156, 171.7439
1099.638, 172.1839
1100.120, 172.5918
1100.602, 172.0261
1101.084, 170.5991
1101.566, 169.7305
1102.048, 169.4465
1102.531, 169.0650
1103.013, 168.2300
1103.495, 167.3595
1103.977, 166.9709
1104.459, 166.8079
1104.941, 166.5440
1105.423, 166.1774
1105.905, 165.5224
1106.388, 164.4928
1106.870, 163.4467
1107.352, 162.4957
1107.834, 161.7446
1108.316, 161.5970
1108.798, 161.7859
1109.280, 161.5741
1109.762, 160.0442
1110.245, 159.0983
1110.727, 159.1926
1111.209, 159.5099
1111.691, 159.1036
1112.173, 158.2010
1112.655, 157.7152
1113.137, 157.6485
1113.619, 157.6129
1114.101, 157.5263
1114.583, 157.2739
1115.066, 156.7605
1115.548, 156.0950
1116.030, 155.3987
1116.512, 154.6804
1116.994, 154.2803
1117.476, 154.2733
1117.958, 154.2675
1118.440, 154.1016
1118.923, 153.6917
1119.405, 152.6983
1119.887, 151.3181
1120.369, 150.8971
1120.851, 151.5985
1121.333, 151.8498
1121.815, 151.1041
1122.297, 150.0890
1122.780, 149.4367
1123.262, 149.0743
1123.744, 148.9906
1124.226, 149.2855
1124.708, 149.2127
1125.190, 148.6063
1125.672, 148.1478
1126.154, 148.2697
1126.636, 148.5733
1127.119, 148.4121
1127.601, 147.8770
1128.083, 147.0800
1128.565, 145.5881
1129.047, 144.9223
1129.529, 145.5489
1130.011, 146.3650
1130.493, 146.5774
1130.975, 146.3841
1131.458, 146.5932
1131.940, 147.0387
1132.422, 147.0913
1132.904, 145.7427
1133.386, 144.9416
1133.868, 145.5828
1134.350, 146.5160
1134.832, 146.5421
1135.315, 145.7663
1135.797, 144.9753
1136.279, 144.2321
1136.761, 143.9275
1137.243, 144.9158
1137.725, 145.7405
1138.207, 145.4951
1138.689, 144.6674
1139.172, 143.9807
1139.654, 143.4282
1140.136, 143.1829
1140.618, 143.2869
1141.100, 143.2909
1141.582, 142.8063
1142.064, 142.1037
1142.546, 141.3157
1143.028, 140.4805
1143.510, 139.6594
1143.993, 138.8257
1144.475, 138.2469
1144.957, 138.0147
1145.439, 137.9359
1145.921, 137.8032
1146.403, 137.7224
1146.885, 137.9098
1147.367, 138.3988
1147.850, 138.4135
1148.332, 137.8267
1148.814, 137.1979
1149.296, 136.6832
1149.778, 136.2724
1150.260, 136.0186
1150.742, 135.8246
1151.224, 135.5159
1151.707, 135.0031
1152.189, 134.6539
1152.671, 134.4998
1153.153, 134.4973
1153.635, 134.7811
1154.117, 135.0277
1154.599, 134.4761
1155.081, 133.3863
1155.563, 132.2763
1156.046, 130.9140
1156.528, 130.5239
1157.010, 131.7232
1157.492, 132.9406
1157.974, 132.9842
1158.456, 132.3121
1158.938, 132.6443
1159.420, 133.6095
1159.902, 134.0164
1160.385, 132.7632
1160.867, 131.7711
1161.349, 131.4397
1161.831, 131.4679
1162.313, 131.7941
1162.795, 132.2930
1163.277, 132.1861
1163.759, 131.5368
1164.242, 130.7757
1164.724, 129.8627
1165.206, 129.2093
1165.688, 129.2123
1166.170, 129.3254
1166.652, 128.7507
1167.134, 127.6124
1167.616, 127.4739
1168.099, 128.3171
1168.581, 128.7018
1169.063, 127.3111
1169.545, 125.6942
1170.027, 124.3753
1170.509, 123.4549
1170.991, 123.2553
1171.473, 123.7396
1171.955, 123.9484
1172.438, 123.7763
1172.920, 123.5092
1173.402, 123.3133
1173.884, 123.1315
1174.366, 122.8353
1174.848, 122.5442
1175.330, 122.7386
1175.812, 123.4378
1176.294, 123.2814
1176.777, 121.9444
1177.259, 120.6721
1177.741, 120.5052
1178.223, 120.8128
1178.705, 121.3948
1179.187, 122.0525
1179.669, 121.8989
1180.151, 120.8713
1180.634, 120.0743
1181.116, 119.8406
1181.598, 119.5350
1182.080, 118.0187
1182.562, 116.5685
1183.044, 116.6938
1183.526, 118.2741
1184.008, 118.7214
1184.490, 117.9167
1184.973, 116.8001
1185.455, 114.9798
1185.937, 115.1130
1186.419, 123.0846
1186.901, 132.4516
1187.383, 135.9168
1187.865, 132.7000
1188.347, 127.9900
1188.829, 121.4486
1189.312, 116.5028
1189.794, 114.8548
1190.276, 114.5651
1190.758, 113.7895
1191.240, 112.9122
1191.722, 112.4075
1192.204, 112.3676
1192.686, 112.4852
1193.169, 112.7888
1193.651, 113.0871
1194.133, 113.4487
1194.615, 113.5171
1195.097, 112.3689
1195.579, 110.8769
1196.061, 110.4493
1196.543, 111.6406
1197.026, 112.0341
1197.508, 111.5176
1197.990, 110.8601
1198.472, 110.4043
1198.954, 110.1476
1199.436, 110.1501
1199.918, 110.3339
1200.400, 110.6388
1200.882, 111.3291
1201.365, 111.1117
1201.847, 109.7905
1202.329, 108.6458
1202.811, 108.7931
1203.293, 109.3303
1203.775, 109.1211
1204.257, 108.5172
1204.739, 108.2007
1205.221, 108.4395
1205.704, 108.4634
1206.186, 108.2425
1206.668, 107.9485
1207.150, 107.6649
1207.632, 107.4112
1208.114, 107.2977
1208.596, 107.2144
1209.078, 106.8594
1209.561, 105.8868
1210.043, 105.6402
1210.525, 106.2674
1211.007, 107.0032
1211.489, 107.4410
1211.971, 107.5244
1212.453, 106.9520
1212.935, 105.9925
1213.417, 105.3600
1213.900, 105.1512
1214.382, 105.1255
1214.864, 105.2997
1215.346, 105.4473
1215.828, 105.4358
1216.310, 105.2531
1216.792, 104.6933
1217.274, 103.9643
1217.756, 103.7386
1218.239, 104.2571
1218.721, 104.3477
1219.203, 103.8639
1219.685, 103.4342
1220.167, 103.7787
1220.649, 104.2963
1221.131, 104.4765
1221.613, 104.3227
1222.096, 103.9341
1222.578, 103.2546
1223.060, 102.6569
1223.542, 102.1767
1224.024, 101.7751
1224.506, 101.4975
1224.988, 101.2132
1225.470, 100.7441
1225.953, 100.1704
1226.435, 99.71431
1226.917, 99.32918
1227.399, 99.44946
1227.881, 100.1613
1228.363, 100.9044
1228.845, 101.2922
1229.327, 101.4125
1229.809, 101.2893
1230.292, 100.9439
1230.774, 100.3831
1231.256, 99.55642
1231.738, 99.20055
1232.220, 99.43493
1232.702, 99.63243
1233.184, 99.05740
1233.666, 98.48476
1234.148, 98.62301
1234.631, 99.14642
1235.113, 99.26318
1235.595, 98.97053
1236.077, 98.46967
1236.559, 97.77849
1237.041, 97.11790
1237.523, 96.33918
1238.005, 95.95348
1238.488, 96.68700
1238.970, 97.86797
1239.452, 98.09741
1239.934, 97.45085
1240.416, 96.94866
1240.898, 96.72224
1241.380, 96.74224
1241.862, 97.41627
1242.344, 97.83868
1242.827, 97.38464
1243.309, 96.54481
1243.791, 96.34797
1244.273, 96.64159
1244.755, 96.41263
1245.237, 95.53954
1245.719, 94.95723
1246.201, 95.43803
1246.683, 96.01498
1247.166, 96.37244
1247.648, 96.54187
1248.130, 96.58371
1248.612, 96.47720
1249.094, 96.04946
1249.576, 95.29527
1250.058, 94.71620
1250.540, 94.56726
1251.023, 94.64279
1251.505, 95.05423
1251.987, 95.39217
1252.469, 94.68024
1252.951, 93.47192
1253.433, 93.19994
1253.915, 93.96795
1254.397, 94.62263
1254.880, 95.00303
1255.362, 94.86626
1255.844, 93.97341
1256.326, 92.96504
1256.808, 92.76771
1257.290, 93.04958
1257.772, 93.29679
1258.254, 93.46250
1258.736, 93.63404
1259.219, 93.95311
1259.701, 93.91934
1260.183, 93.36053
1260.665, 92.71727
1261.147, 92.54259
1261.629, 92.56837
1262.111, 92.51638
1262.593, 92.34879
1263.075, 91.98461
1263.558, 91.31841
1264.040, 90.92474
1264.522, 90.93188
1265.004, 91.04131
1265.486, 90.88967
1265.968, 90.75821
1266.450, 90.98464
1266.932, 91.47764
1267.415, 91.78767
1267.897, 91.91605
1268.379, 91.80489
1268.861, 91.42132
1269.343, 91.16622
1269.825, 91.77560
1270.307, 92.22222
1270.789, 91.44224
1271.271, 90.10111
1271.754, 89.55265
1272.236, 89.75761
1272.718, 89.97096
1273.200, 90.10725
1273.682, 90.32506
1274.164, 91.06590
1274.646, 91.47607
1275.128, 91.01817
1275.610, 90.22169
1276.093, 90.01517
1276.575, 90.21364
1277.057, 89.95244
1277.539, 89.21172
1278.021, 88.69408
1278.503, 88.91597
1278.985, 89.11417
1279.467, 88.91081
1279.950, 88.97132
1280.432, 90.91199
1280.914, 93.48040
1281.396, 93.58013
1281.878, 91.45076
1282.360, 89.72279
1282.842, 89.37358
1283.324, 88.92795
1283.807, 88.18196
1284.289, 87.45567
1284.771, 87.02459
1285.253, 86.85233
1285.735, 87.07713
1286.217, 87.53672
1286.699, 87.59978
1287.181, 87.09543
1287.663, 86.68047
1288.146, 86.38297
1288.628, 86.43185
1289.110, 87.58730
1289.592, 88.63367
1290.074, 88.37614
1290.556, 87.26747
1291.038, 86.26115
1291.520, 85.32014
1292.002, 85.18510
1292.485, 85.86581
1292.967, 86.58757
1293.449, 87.06057
1293.931, 87.18924
1294.413, 86.64913
1294.895, 85.93779
1295.377, 85.52797
1295.859, 85.40137
1296.342, 85.50027
1296.824, 85.78155
1297.306, 86.01488
1297.788, 86.34032
1298.270, 86.16789
1298.752, 85.18617
1299.234, 84.13223
1299.716, 83.63850
1300.198, 83.56242
1300.681, 83.68212
1301.163, 83.90198
1301.645, 83.96845
1302.127, 83.77965
##END=



