##NAMES=Offretite
##RRUFFID=R060767
##IDEAL CHEMISTRY=KCaMg(Si_13_Al_5_)O_36_&#183;15H_2_O
##LOCALITY=Vinarice, Kladno, Czech Republic
##OWNER=RRUFF
##SOURCE=Michael Scott
##DESCRIPTION=Colorless elongated hexagonal prisms
##STATUS=The identification of this mineral is confirmed by single-crystal X-ray diffraction and chemical analysis.
##URL=rruff.info/R060767
##MEASURED CHEMISTRY=(K_0.96_[box]_0.04_)_Σ=1_Ca_1.00_(Mg_0.95_Fe^2+^_0.05_)_Σ=1_Si_13.04_Al_4.96_O_36_·15H_2_O
119.5992, 599.8355
120.0814, 611.7956
120.5635, 626.3271
121.0456, 641.3643
121.5277, 657.0815
122.0098, 673.5764
122.4919, 690.2208
122.9741, 709.3334
123.4562, 723.0008
123.9383, 741.4492
124.4204, 779.5880
124.9025, 848.4156
125.3846, 938.4629
125.8668, 1021.614
126.3489, 1097.028
126.8310, 1166.264
127.3131, 1231.705
127.7952, 1292.550
128.2773, 1347.228
128.7595, 1391.599
129.2416, 1428.911
129.7237, 1480.571
130.2058, 1562.896
130.6879, 1642.318
131.1700, 1720.021
131.6522, 1788.139
132.1343, 1833.282
132.6164, 1842.339
133.0985, 1815.427
133.5806, 1794.198
134.0627, 1792.855
134.5449, 1783.950
135.0270, 1752.390
135.5091, 1705.411
135.9912, 1661.365
136.4733, 1636.577
136.9554, 1632.960
137.4376, 1631.338
137.9197, 1630.148
138.4018, 1632.028
138.8839, 1631.408
139.3660, 1632.859
139.8481, 1650.221
140.3302, 1699.252
140.8124, 1789.154
141.2945, 1867.609
141.7766, 1920.629
142.2587, 1975.717
142.7408, 2048.626
143.2229, 2139.507
143.7051, 2237.772
144.1872, 2333.312
144.6693, 2426.610
145.1514, 2514.089
145.6335, 2593.450
146.1156, 2669.185
146.5978, 2744.628
147.0799, 2820.228
147.5620, 2894.399
148.0441, 2965.909
148.5262, 3034.448
149.0083, 3099.931
149.4905, 3168.294
149.9726, 3230.596
150.4547, 3280.850
150.9368, 3317.828
151.4189, 3341.523
151.9010, 3349.869
152.3832, 3337.614
152.8653, 3327.986
153.3474, 3326.427
153.8295, 3326.288
154.3116, 3321.920
154.7937, 3312.229
155.2759, 3295.739
155.7580, 3267.233
156.2401, 3222.939
156.7222, 3187.325
157.2043, 3168.165
157.6864, 3158.304
158.1686, 3150.256
158.6507, 3142.974
159.1328, 3133.523
159.6149, 3112.289
160.0970, 3075.815
160.5791, 3057.142
161.0613, 3074.165
161.5434, 3111.931
162.0255, 3146.901
162.5076, 3173.447
162.9897, 3196.185
163.4718, 3223.138
163.9540, 3254.986
164.4361, 3278.470
164.9182, 3281.923
165.4003, 3274.441
165.8824, 3274.383
166.3645, 3286.319
166.8467, 3305.760
167.3288, 3329.181
167.8109, 3356.561
168.2930, 3381.791
168.7751, 3404.941
169.2572, 3424.188
169.7394, 3434.098
170.2215, 3432.510
170.7036, 3422.721
171.1857, 3407.161
171.6678, 3386.106
172.1499, 3364.986
172.6321, 3346.598
173.1142, 3330.240
173.5963, 3314.459
174.0784, 3301.330
174.5605, 3284.769
175.0426, 3254.345
175.5248, 3210.944
176.0069, 3175.982
176.4890, 3168.723
176.9711, 3181.438
177.4532, 3181.183
177.9353, 3156.476
178.4175, 3125.053
178.8996, 3104.869
179.3817, 3094.714
179.8638, 3081.156
180.3459, 3050.018
180.8280, 3006.367
181.3102, 2977.109
181.7923, 2973.574
182.2744, 2976.155
182.7565, 2968.196
183.2386, 2950.774
183.7207, 2932.582
184.2029, 2918.671
184.6850, 2908.536
185.1671, 2899.357
185.6492, 2890.521
186.1313, 2883.124
186.6134, 2879.688
187.0956, 2879.156
187.5777, 2875.422
188.0598, 2860.922
188.5419, 2838.173
189.0240, 2822.831
189.5061, 2818.521
189.9883, 2819.834
190.4704, 2831.592
190.9525, 2848.568
191.4346, 2848.836
191.9167, 2799.412
192.3988, 2712.585
192.8810, 2668.964
193.3631, 2699.420
193.8452, 2740.838
194.3273, 2758.603
194.8094, 2755.322
195.2915, 2741.217
195.7737, 2714.577
196.2558, 2679.445
196.7379, 2660.940
197.2200, 2668.434
197.7021, 2681.566
198.1842, 2690.388
198.6664, 2695.306
199.1485, 2697.637
199.6306, 2701.205
200.1127, 2703.772
200.5948, 2691.152
201.0770, 2648.266
201.5591, 2613.240
202.0412, 2607.855
202.5233, 2623.930
203.0054, 2644.142
203.4875, 2665.923
203.9697, 2684.435
204.4518, 2675.077
204.9339, 2612.305
205.4160, 2564.217
205.8981, 2573.227
206.3802, 2616.259
206.8624, 2653.029
207.3445, 2662.102
207.8266, 2649.531
208.3087, 2631.142
208.7908, 2599.307
209.2729, 2576.779
209.7551, 2579.898
210.2372, 2596.421
210.7193, 2608.141
211.2014, 2606.205
211.6835, 2594.610
212.1656, 2582.145
212.6478, 2567.870
213.1299, 2554.876
213.6120, 2538.356
214.0941, 2525.326
214.5762, 2527.470
215.0583, 2555.845
215.5405, 2593.010
216.0226, 2602.046
216.5047, 2571.955
216.9868, 2545.184
217.4689, 2539.552
217.9510, 2544.475
218.4332, 2550.705
218.9153, 2555.916
219.3974, 2559.612
219.8795, 2561.068
220.3616, 2560.275
220.8437, 2557.354
221.3259, 2548.005
221.8080, 2538.647
222.2901, 2535.846
222.7722, 2542.224
223.2543, 2551.173
223.7364, 2555.096
224.2186, 2553.687
224.7007, 2548.961
225.1828, 2532.409
225.6649, 2518.225
226.1470, 2520.462
226.6291, 2542.874
227.1113, 2568.797
227.5934, 2580.445
228.0755, 2577.112
228.5576, 2576.457
229.0397, 2586.219
229.5218, 2597.237
230.0040, 2603.030
230.4861, 2603.018
230.9682, 2598.412
231.4503, 2587.463
231.9324, 2570.890
232.4145, 2559.043
232.8967, 2557.305
233.3788, 2557.054
233.8609, 2549.985
234.3430, 2536.647
234.8251, 2525.395
235.3072, 2524.058
235.7894, 2530.123
236.2715, 2531.340
236.7536, 2523.636
237.2357, 2514.726
237.7178, 2510.413
238.1999, 2510.044
238.6821, 2510.883
239.1642, 2512.447
239.6463, 2514.206
240.1284, 2514.616
240.6105, 2513.113
241.0926, 2511.344
241.5748, 2506.499
242.0569, 2501.655
242.5390, 2506.278
243.0211, 2535.103
243.5032, 2571.521
243.9853, 2587.879
244.4675, 2581.163
244.9496, 2566.460
245.4317, 2543.936
245.9138, 2521.261
246.3959, 2515.897
246.8780, 2548.941
247.3602, 2588.291
247.8423, 2595.669
248.3244, 2570.102
248.8065, 2543.197
249.2886, 2530.281
249.7707, 2528.659
250.2529, 2531.241
250.7350, 2541.193
251.2171, 2550.563
251.6992, 2547.967
252.1813, 2536.447
252.6634, 2539.143
253.1456, 2574.300
253.6277, 2622.921
254.1098, 2645.469
254.5919, 2634.568
255.0740, 2616.232
255.5561, 2599.390
256.0382, 2584.694
256.5204, 2573.952
257.0025, 2567.817
257.4846, 2565.848
257.9667, 2569.413
258.4488, 2580.895
258.9309, 2586.924
259.4131, 2580.802
259.8952, 2567.640
260.3773, 2553.573
260.8594, 2539.513
261.3415, 2528.736
261.8236, 2526.285
262.3058, 2533.226
262.7879, 2541.635
263.2700, 2558.270
263.7521, 2571.768
264.2342, 2564.821
264.7163, 2536.745
265.1985, 2512.438
265.6806, 2517.461
266.1627, 2556.475
266.6448, 2583.190
267.1269, 2593.734
267.6090, 2595.954
268.0912, 2592.911
268.5733, 2585.458
269.0554, 2573.877
269.5375, 2556.789
270.0196, 2535.069
270.5017, 2526.295
270.9839, 2536.192
271.4660, 2549.772
271.9481, 2563.564
272.4302, 2577.292
272.9123, 2592.959
273.3944, 2612.387
273.8766, 2631.589
274.3587, 2635.364
274.8408, 2607.942
275.3229, 2583.429
275.8050, 2567.151
276.2871, 2554.393
276.7693, 2536.236
277.2514, 2509.978
277.7335, 2486.286
278.2156, 2487.222
278.6977, 2541.624
279.1798, 2572.757
279.6620, 2568.262
280.1441, 2551.909
280.6262, 2537.760
281.1083, 2529.761
281.5904, 2527.467
282.0725, 2532.328
282.5547, 2548.842
283.0368, 2553.815
283.5189, 2533.185
284.0010, 2514.312
284.4831, 2511.340
284.9652, 2521.184
285.4474, 2532.187
285.9295, 2535.886
286.4116, 2532.356
286.8937, 2521.751
287.3758, 2493.574
287.8579, 2471.135
288.3401, 2465.964
288.8222, 2470.045
289.3043, 2469.433
289.7864, 2454.986
290.2685, 2434.766
290.7506, 2431.143
291.2328, 2450.992
291.7149, 2472.534
292.1970, 2487.578
292.6791, 2502.110
293.1612, 2524.659
293.6433, 2559.109
294.1255, 2591.451
294.6076, 2600.107
295.0897, 2582.082
295.5718, 2570.979
296.0539, 2582.755
296.5360, 2597.704
297.0182, 2596.403
297.5003, 2577.908
297.9824, 2565.055
298.4645, 2582.490
298.9466, 2621.727
299.4287, 2640.502
299.9109, 2621.456
300.3930, 2602.414
300.8751, 2621.709
301.3572, 2670.665
301.8393, 2713.472
302.3214, 2736.931
302.8036, 2746.916
303.2857, 2749.166
303.7678, 2743.166
304.2499, 2737.118
304.7320, 2733.878
305.2141, 2735.499
305.6963, 2747.247
306.1784, 2780.154
306.6605, 2814.205
307.1426, 2834.653
307.6247, 2844.217
308.1068, 2854.317
308.5890, 2871.237
309.0711, 2891.037
309.5532, 2901.390
310.0353, 2896.155
310.5174, 2894.619
310.9995, 2907.164
311.4817, 2924.888
311.9638, 2933.667
312.4459, 2929.268
312.9280, 2919.872
313.4101, 2917.063
313.8922, 2923.068
314.3744, 2931.280
314.8565, 2954.656
315.3386, 2970.709
315.8207, 2955.779
316.3028, 2913.623
316.7849, 2871.231
317.2671, 2852.058
317.7492, 2857.108
318.2313, 2869.511
318.7134, 2911.538
319.1955, 2936.989
319.6776, 2922.932
320.1598, 2883.432
320.6419, 2841.302
321.1240, 2807.866
321.6061, 2785.123
322.0882, 2781.283
322.5703, 2815.029
323.0525, 2837.373
323.5346, 2838.767
324.0167, 2828.844
324.4988, 2813.142
324.9809, 2793.723
325.4630, 2775.866
325.9452, 2767.383
326.4273, 2769.913
326.9094, 2772.262
327.3915, 2773.444
327.8736, 2774.142
328.3557, 2773.457
328.8379, 2772.169
329.3200, 2773.266
329.8021, 2786.387
330.2842, 2804.999
330.7663, 2797.328
331.2484, 2748.681
331.7306, 2705.854
332.2127, 2705.293
332.6948, 2727.268
333.1769, 2739.077
333.6590, 2724.875
334.1411, 2703.806
334.6233, 2701.503
335.1054, 2716.854
335.5875, 2721.003
336.0696, 2698.626
336.5517, 2660.304
337.0338, 2625.148
337.5160, 2591.699
337.9981, 2565.388
338.4802, 2550.595
338.9623, 2544.208
339.4444, 2541.470
339.9265, 2541.654
340.4087, 2542.228
340.8908, 2539.422
341.3729, 2531.819
341.8550, 2529.274
342.3371, 2539.814
342.8192, 2549.561
343.3014, 2548.690
343.7835, 2537.452
344.2656, 2520.240
344.7477, 2498.705
345.2298, 2474.069
345.7119, 2459.603
346.1941, 2468.665
346.6762, 2471.486
347.1583, 2458.970
347.6404, 2437.701
348.1225, 2415.680
348.6046, 2396.190
349.0868, 2378.935
349.5689, 2362.882
350.0510, 2345.267
350.5331, 2335.502
351.0152, 2344.720
351.4973, 2352.375
351.9795, 2341.701
352.4616, 2314.862
352.9437, 2289.668
353.4258, 2283.855
353.9079, 2296.144
354.3900, 2302.288
354.8722, 2297.202
355.3543, 2293.292
355.8364, 2297.446
356.3185, 2305.773
356.8006, 2312.091
357.2827, 2314.113
357.7649, 2312.753
358.2470, 2310.775
358.7291, 2308.709
359.2112, 2298.288
359.6933, 2271.100
360.1754, 2237.870
360.6576, 2212.319
361.1397, 2195.532
361.6218, 2182.187
362.1039, 2170.445
362.5860, 2160.030
363.0681, 2148.894
363.5503, 2135.831
364.0324, 2127.589
364.5145, 2134.868
364.9966, 2158.147
365.4787, 2167.429
365.9608, 2145.964
366.4430, 2123.115
366.9251, 2121.210
367.4072, 2135.382
367.8893, 2147.207
368.3714, 2146.326
368.8535, 2135.007
369.3357, 2121.737
369.8178, 2096.142
370.2999, 2081.883
370.7820, 2086.097
371.2641, 2099.670
371.7462, 2117.211
372.2284, 2135.850
372.7105, 2149.677
373.1926, 2149.473
373.6747, 2130.795
374.1568, 2118.067
374.6389, 2113.769
375.1211, 2113.295
375.6032, 2119.374
376.0853, 2127.976
376.5674, 2131.048
377.0495, 2123.131
377.5316, 2107.187
378.0138, 2090.039
378.4959, 2069.320
378.9780, 2053.953
379.4601, 2046.667
379.9422, 2046.699
380.4243, 2058.140
380.9065, 2083.841
381.3886, 2104.071
381.8707, 2098.166
382.3528, 2072.791
382.8349, 2054.629
383.3170, 2049.542
383.7992, 2049.532
384.2813, 2046.973
384.7634, 2042.426
385.2455, 2040.073
385.7276, 2047.988
386.2097, 2052.836
386.6919, 2038.248
387.1740, 2008.223
387.6561, 1984.671
388.1382, 1980.658
388.6203, 1990.440
389.1024, 1993.388
389.5846, 1976.273
390.0667, 1969.984
390.5488, 1989.680
391.0309, 2015.535
391.5130, 2024.839
391.9951, 2013.984
392.4773, 1998.755
392.9594, 1997.793
393.4415, 2013.232
393.9236, 2029.351
394.4057, 2053.563
394.8878, 2070.717
395.3700, 2074.177
395.8521, 2067.180
396.3342, 2053.683
396.8163, 2033.258
397.2984, 2013.968
397.7805, 2017.209
398.2627, 2050.770
398.7448, 2076.513
399.2269, 2081.809
399.7090, 2076.263
400.1911, 2063.156
400.6732, 2042.933
401.1554, 2028.239
401.6375, 2035.337
402.1196, 2053.151
402.6017, 2050.621
403.0838, 2020.744
403.5659, 1990.440
404.0481, 1980.018
404.5302, 1987.261
405.0123, 1996.099
405.4944, 2004.686
405.9765, 2015.818
406.4586, 2035.896
406.9408, 2059.531
407.4229, 2073.853
407.9050, 2073.554
408.3871, 2064.091
408.8692, 2054.165
409.3513, 2037.074
409.8335, 2035.219
410.3156, 2058.954
410.7977, 2088.556
411.2798, 2115.802
411.7619, 2137.710
412.2440, 2150.009
412.7262, 2146.620
413.2083, 2132.218
413.6904, 2137.836
414.1725, 2173.250
414.6546, 2213.305
415.1367, 2260.591
415.6189, 2304.652
416.1010, 2334.618
416.5831, 2347.479
417.0652, 2351.646
417.5473, 2350.696
418.0294, 2346.155
418.5116, 2352.991
418.9937, 2378.287
419.4758, 2405.637
419.9579, 2414.488
420.4400, 2412.687
420.9221, 2427.741
421.4043, 2479.854
421.8864, 2540.263
422.3685, 2591.828
422.8506, 2632.552
423.3327, 2653.148
423.8148, 2645.935
424.2970, 2623.955
424.7791, 2615.186
425.2612, 2627.062
425.7433, 2637.726
426.2254, 2639.581
426.7076, 2644.392
427.1897, 2666.475
427.6718, 2702.956
428.1539, 2736.593
428.6360, 2754.167
429.1181, 2756.075
429.6003, 2747.646
430.0824, 2719.270
430.5645, 2693.994
431.0466, 2670.103
431.5287, 2654.384
432.0108, 2658.254
432.4930, 2684.652
432.9751, 2713.497
433.4572, 2720.998
433.9393, 2708.782
434.4214, 2698.109
434.9035, 2690.491
435.3857, 2686.315
435.8678, 2690.531
436.3499, 2699.010
436.8320, 2698.966
437.3141, 2675.123
437.7962, 2651.430
438.2784, 2652.117
438.7605, 2671.231
439.2426, 2684.352
439.7247, 2680.472
440.2068, 2669.264
440.6889, 2668.024
441.1711, 2677.894
441.6532, 2696.588
442.1353, 2741.783
442.6174, 2781.873
443.0995, 2785.397
443.5816, 2760.692
444.0638, 2743.315
444.5459, 2759.932
445.0280, 2803.493
445.5101, 2839.552
445.9922, 2874.059
446.4743, 2889.315
446.9564, 2853.993
447.4385, 2818.222
447.9207, 2831.934
448.4028, 2901.192
448.8849, 2977.561
449.3670, 3016.831
449.8491, 3027.839
450.3312, 3050.377
450.8134, 3090.255
451.2955, 3130.938
451.7776, 3164.257
452.2597, 3190.095
452.7418, 3207.784
453.2239, 3206.986
453.7061, 3211.755
454.1882, 3240.792
454.6703, 3283.522
455.1524, 3316.785
455.6345, 3333.746
456.1166, 3350.613
456.5988, 3389.433
457.0809, 3457.852
457.5630, 3511.941
458.0451, 3548.510
458.5272, 3576.455
459.0093, 3590.564
459.4915, 3600.189
459.9736, 3621.975
460.4557, 3664.474
460.9378, 3716.128
461.4199, 3753.605
461.9020, 3773.393
462.3842, 3795.598
462.8663, 3826.290
463.3484, 3857.002
463.8305, 3887.016
464.3126, 3913.628
464.7947, 3926.420
465.2769, 3904.542
465.7590, 3874.834
466.2411, 3879.498
466.7232, 3916.291
467.2053, 3944.948
467.6874, 3944.071
468.1696, 3929.456
468.6517, 3936.893
469.1338, 3975.578
469.6159, 4007.826
470.0980, 4017.385
470.5801, 4026.188
471.0623, 4057.290
471.5444, 4107.557
472.0265, 4155.040
472.5086, 4182.648
472.9907, 4194.536
473.4728, 4212.543
473.9550, 4240.021
474.4371, 4268.399
474.9192, 4282.898
475.4013, 4306.227
475.8834, 4367.465
476.3655, 4466.295
476.8477, 4558.844
477.3298, 4598.770
477.8119, 4603.675
478.2940, 4636.270
478.7761, 4704.160
479.2582, 4775.232
479.7404, 4835.017
480.2225, 4883.750
480.7046, 4921.884
481.1867, 4940.321
481.6688, 4965.701
482.1509, 5013.789
482.6331, 5072.699
483.1152, 5129.466
483.5973, 5180.392
484.0794, 5220.676
484.5615, 5242.874
485.0436, 5246.892
485.5258, 5266.095
486.0079, 5324.862
486.4900, 5370.804
486.9721, 5391.673
487.4542, 5396.535
487.9363, 5398.082
488.4185, 5399.235
488.9006, 5388.127
489.3827, 5350.506
489.8648, 5287.616
490.3469, 5210.388
490.8290, 5109.312
491.3112, 5014.952
491.7933, 4953.777
492.2754, 4912.894
492.7575, 4868.101
493.2396, 4820.850
493.7217, 4761.389
494.2039, 4673.454
494.6860, 4571.768
495.1681, 4486.905
495.6502, 4426.398
496.1323, 4365.189
496.6144, 4275.279
497.0966, 4152.580
497.5787, 4042.588
498.0608, 3951.134
498.5429, 3864.775
499.0250, 3783.422
499.5071, 3704.023
499.9893, 3623.913
500.4714, 3542.130
500.9535, 3459.193
501.4356, 3375.693
501.9177, 3291.570
502.3998, 3202.373
502.8820, 3099.654
503.3641, 3006.536
503.8462, 2943.165
504.3283, 2899.398
504.8104, 2856.515
505.2925, 2813.432
505.7747, 2766.999
506.2568, 2712.771
506.7389, 2654.017
507.2210, 2593.938
507.7031, 2533.682
508.1852, 2480.736
508.6674, 2445.676
509.1495, 2430.835
509.6316, 2404.775
510.1137, 2353.233
510.5958, 2307.382
511.0779, 2286.968
511.5601, 2271.863
512.0422, 2229.320
512.5243, 2150.648
513.0064, 2074.196
513.4885, 2053.057
513.9706, 2082.728
514.4528, 2092.515
514.9349, 2071.329
515.4170, 2044.963
515.8991, 2027.972
516.3812, 2017.779
516.8633, 2010.242
517.3455, 2009.321
517.8276, 2003.674
518.3097, 1982.466
518.7918, 1954.341
519.2739, 1934.233
519.7560, 1924.760
520.2382, 1917.365
520.7203, 1903.317
521.2024, 1882.723
521.6845, 1867.607
522.1666, 1862.808
522.6487, 1858.111
523.1309, 1852.470
523.6130, 1845.830
524.0951, 1837.751
524.5772, 1828.300
525.0593, 1818.857
525.5414, 1811.772
526.0236, 1805.947
526.5057, 1793.924
526.9878, 1772.090
527.4699, 1759.906
527.9520, 1776.873
528.4341, 1807.741
528.9163, 1813.201
529.3984, 1778.290
529.8805, 1751.385
530.3626, 1755.342
530.8447, 1769.802
531.3268, 1773.037
531.8090, 1763.602
532.2911, 1752.597
532.7732, 1749.029
533.2553, 1750.161
533.7374, 1740.662
534.2195, 1708.187
534.7017, 1688.607
535.1838, 1698.759
535.6659, 1714.457
536.1480, 1718.777
536.6301, 1710.958
537.1122, 1699.691
537.5944, 1681.724
538.0765, 1667.455
538.5586, 1679.755
539.0407, 1717.257
539.5228, 1750.181
540.0049, 1766.065
540.4871, 1771.469
540.9692, 1778.678
541.4513, 1791.319
541.9334, 1794.312
542.4155, 1779.058
542.8976, 1761.330
543.3798, 1746.823
543.8619, 1738.000
544.3440, 1739.596
544.8261, 1754.638
545.3082, 1774.851
545.7903, 1783.226
546.2725, 1777.376
546.7546, 1776.521
547.2367, 1783.540
547.7188, 1795.227
548.2009, 1811.378
548.6830, 1830.272
549.1652, 1847.090
549.6473, 1859.623
550.1294, 1870.842
550.6115, 1884.472
551.0936, 1897.932
551.5757, 1904.773
552.0579, 1903.421
552.5400, 1899.664
553.0221, 1899.164
553.5042, 1901.883
553.9863, 1908.618
554.4684, 1919.809
554.9506, 1934.866
555.4327, 1961.330
555.9148, 1987.587
556.3969, 1999.383
556.8790, 1994.519
557.3611, 1986.986
557.8433, 1989.564
558.3254, 1998.761
558.8075, 2002.071
559.2896, 1997.850
559.7717, 2000.332
560.2538, 2020.827
560.7360, 2049.990
561.2181, 2064.695
561.7002, 2063.188
562.1823, 2054.647
562.6644, 2027.315
563.1465, 2003.887
563.6287, 2011.634
564.1108, 2040.101
564.5929, 2054.549
565.0750, 2033.926
565.5571, 1991.676
566.0392, 1957.051
566.5214, 1931.230
567.0035, 1907.522
567.4856, 1883.765
567.9677, 1863.613
568.4498, 1850.074
568.9319, 1842.022
569.4141, 1835.644
569.8962, 1828.310
570.3783, 1824.177
570.8604, 1830.353
571.3425, 1841.156
571.8246, 1843.794
572.3068, 1835.253
572.7889, 1824.274
573.2710, 1820.971
573.7531, 1825.615
574.2352, 1819.959
574.7173, 1791.293
575.1995, 1769.199
575.6816, 1766.235
576.1637, 1767.886
576.6458, 1757.066
577.1279, 1732.180
577.6100, 1710.966
578.0922, 1712.957
578.5743, 1725.032
579.0564, 1717.504
579.5385, 1690.306
580.0206, 1668.462
580.5027, 1664.290
580.9849, 1670.560
581.4670, 1673.903
581.9491, 1674.765
582.4312, 1670.901
582.9133, 1662.485
583.3954, 1649.166
583.8776, 1622.103
584.3597, 1591.672
584.8418, 1578.492
585.3239, 1592.310
585.8060, 1616.281
586.2881, 1629.762
586.7703, 1632.784
587.2524, 1623.412
587.7345, 1595.379
588.2166, 1571.040
588.6987, 1567.041
589.1808, 1578.825
589.6630, 1589.560
590.1451, 1601.712
590.6272, 1608.251
591.1093, 1607.039
591.5914, 1599.210
592.0735, 1581.440
592.5557, 1556.895
593.0378, 1537.951
593.5199, 1534.346
594.0020, 1541.204
594.4841, 1542.594
594.9662, 1537.131
595.4484, 1531.383
595.9305, 1527.924
596.4126, 1523.007
596.8947, 1509.736
597.3768, 1491.284
597.8589, 1483.015
598.3411, 1497.607
598.8232, 1515.460
599.3053, 1522.342
599.7874, 1522.967
600.2695, 1527.762
600.7516, 1539.046
601.2338, 1549.036
601.7159, 1549.337
602.1980, 1540.146
602.6801, 1530.265
603.1622, 1519.477
603.6443, 1508.472
604.1265, 1494.560
604.6086, 1482.337
605.0907, 1476.696
605.5728, 1477.769
606.0549, 1480.251
606.5370, 1483.556
607.0192, 1485.321
607.5013, 1481.347
607.9834, 1472.795
608.4655, 1464.930
608.9476, 1459.698
609.4297, 1456.299
609.9119, 1453.034
610.3940, 1448.493
610.8761, 1450.973
611.3582, 1480.589
611.8403, 1494.334
612.3224, 1463.812
612.8046, 1418.179
613.2867, 1394.429
613.7688, 1401.466
614.2509, 1419.317
614.7330, 1440.885
615.2151, 1459.713
615.6973, 1458.490
616.1794, 1437.550
616.6615, 1418.444
617.1436, 1412.179
617.6257, 1414.294
618.1078, 1415.829
618.5900, 1417.155
619.0721, 1416.939
619.5542, 1414.491
620.0363, 1411.350
620.5184, 1405.782
621.0005, 1400.692
621.4827, 1402.198
621.9648, 1413.130
622.4469, 1423.792
622.9290, 1419.973
623.4111, 1407.724
623.8932, 1410.065
624.3754, 1430.297
624.8575, 1446.131
625.3396, 1441.374
625.8217, 1425.109
626.3038, 1424.659
626.7859, 1465.684
627.2681, 1478.453
627.7502, 1429.043
628.2323, 1381.679
628.7144, 1382.911
629.1965, 1415.634
629.6786, 1434.598
630.1608, 1417.096
630.6429, 1392.417
631.1250, 1400.215
631.6071, 1433.910
632.0892, 1462.587
632.5714, 1483.633
633.0535, 1490.151
633.5356, 1472.525
634.0177, 1438.231
634.4998, 1417.259
634.9819, 1419.630
635.4641, 1419.399
635.9462, 1411.733
636.4283, 1403.612
636.9104, 1401.116
637.3925, 1402.249
637.8746, 1399.537
638.3568, 1387.693
638.8389, 1376.451
639.3210, 1383.160
639.8031, 1404.480
640.2852, 1417.614
640.7673, 1418.702
641.2495, 1414.269
641.7316, 1408.565
642.2137, 1401.314
642.6958, 1391.155
643.1779, 1370.299
643.6600, 1357.710
644.1422, 1359.087
644.6243, 1365.801
645.1064, 1376.296
645.5885, 1386.609
646.0706, 1387.609
646.5527, 1372.436
647.0349, 1352.969
647.5170, 1347.133
647.9991, 1352.652
648.4812, 1354.540
648.9633, 1349.504
649.4454, 1346.793
649.9276, 1354.762
650.4097, 1370.669
650.8918, 1380.008
651.3739, 1380.317
651.8560, 1377.763
652.3381, 1372.484
652.8203, 1364.618
653.3024, 1352.080
653.7845, 1337.086
654.2666, 1324.811
654.7487, 1317.772
655.2308, 1314.526
655.7130, 1312.875
656.1951, 1313.307
656.6772, 1318.414
657.1593, 1328.827
657.6414, 1341.986
658.1235, 1356.922
658.6057, 1372.689
659.0878, 1385.523
659.5699, 1399.441
660.0520, 1404.218
660.5341, 1396.108
661.0162, 1382.290
661.4984, 1363.110
661.9805, 1342.215
662.4626, 1328.789
662.9447, 1329.821
663.4268, 1328.425
663.9089, 1295.520
664.3911, 1247.279
664.8732, 1234.766
665.3553, 1264.433
665.8374, 1292.292
666.3195, 1286.287
666.8016, 1261.021
667.2838, 1265.186
667.7659, 1323.874
668.2480, 1365.469
668.7301, 1386.276
669.2122, 1393.698
669.6943, 1383.658
670.1765, 1364.343
670.6586, 1351.549
671.1407, 1351.892
671.6228, 1352.525
672.1049, 1337.432
672.5870, 1318.450
673.0692, 1322.524
673.5513, 1348.052
674.0334, 1363.506
674.5155, 1349.934
674.9976, 1319.636
675.4797, 1299.641
675.9619, 1289.272
676.4440, 1292.111
676.9261, 1324.414
677.4082, 1350.081
677.8903, 1349.727
678.3724, 1334.789
678.8546, 1320.636
679.3367, 1308.107
679.8188, 1305.701
680.3009, 1334.220
680.7830, 1363.410
681.2651, 1352.081
681.7473, 1310.664
682.2294, 1278.220
682.7115, 1272.283
683.1936, 1282.875
683.6757, 1298.680
684.1578, 1321.132
684.6400, 1328.341
685.1221, 1316.472
685.6042, 1297.233
686.0863, 1264.575
686.5684, 1233.924
687.0505, 1229.850
687.5327, 1256.585
688.0148, 1281.512
688.4969, 1301.229
688.9790, 1312.968
689.4611, 1306.587
689.9432, 1293.650
690.4254, 1297.374
690.9075, 1322.935
691.3896, 1347.567
691.8717, 1345.305
692.3538, 1322.428
692.8359, 1304.536
693.3181, 1291.292
693.8002, 1289.057
694.2823, 1305.307
694.7644, 1323.845
695.2465, 1322.218
695.7286, 1297.260
696.2108, 1282.808
696.6929, 1288.080
697.1750, 1291.994
697.6571, 1288.304
698.1392, 1280.720
698.6213, 1269.711
699.1035, 1257.762
699.5856, 1253.926
700.0677, 1267.459
700.5498, 1288.525
701.0319, 1305.666
701.5140, 1318.348
701.9962, 1323.563
702.4783, 1320.485
702.9604, 1313.727
703.4425, 1308.609
703.9246, 1303.061
704.4067, 1279.835
704.8889, 1209.679
705.3710, 1176.065
705.8531, 1219.119
706.3352, 1271.629
706.8173, 1297.405
707.2994, 1301.035
707.7816, 1299.155
708.2637, 1294.670
708.7458, 1289.760
709.2279, 1285.624
709.7100, 1281.928
710.1921, 1278.105
710.6743, 1274.253
711.1564, 1270.418
711.6385, 1266.368
712.1206, 1264.396
712.6027, 1270.918
713.0848, 1287.129
713.5670, 1296.891
714.0491, 1298.920
714.5312, 1295.073
715.0133, 1282.919
715.4954, 1267.033
715.9775, 1256.930
716.4597, 1254.011
716.9418, 1251.674
717.4239, 1247.830
717.9060, 1245.456
718.3881, 1245.491
718.8702, 1248.428
719.3524, 1257.039
719.8345, 1271.395
720.3166, 1282.592
720.7987, 1283.455
721.2808, 1274.952
721.7629, 1252.769
722.2451, 1219.379
722.7272, 1203.682
723.2093, 1217.836
723.6914, 1240.472
724.1735, 1246.252
724.6556, 1234.937
725.1378, 1225.875
725.6199, 1219.125
726.1020, 1214.766
726.5841, 1212.449
727.0662, 1212.642
727.5483, 1220.078
728.0305, 1231.527
728.5126, 1232.087
728.9947, 1205.403
729.4768, 1181.696
729.9589, 1184.323
730.4410, 1200.597
730.9232, 1216.175
731.4053, 1226.939
731.8874, 1225.870
732.3695, 1206.071
732.8516, 1182.533
733.3337, 1194.487
733.8159, 1244.005
734.2980, 1269.417
734.7801, 1260.928
735.2622, 1238.133
735.7443, 1203.033
736.2264, 1166.444
736.7086, 1157.884
737.1907, 1193.208
737.6728, 1214.045
738.1549, 1202.101
738.6370, 1190.985
739.1191, 1203.056
739.6013, 1224.008
740.0834, 1228.971
740.5655, 1212.475
741.0476, 1198.936
741.5297, 1212.089
742.0118, 1235.502
742.4940, 1247.114
742.9761, 1247.471
743.4582, 1240.398
743.9403, 1227.091
744.4224, 1207.163
744.9045, 1177.453
745.3867, 1140.638
745.8688, 1123.076
746.3509, 1128.851
746.8330, 1142.424
747.3151, 1165.014
747.7972, 1189.740
748.2794, 1212.640
748.7615, 1233.205
749.2436, 1248.836
749.7257, 1264.092
750.2078, 1267.377
750.6899, 1244.630
751.1721, 1217.109
751.6542, 1197.115
752.1363, 1188.811
752.6184, 1201.188
753.1005, 1240.599
753.5826, 1280.731
754.0648, 1287.570
754.5469, 1271.995
755.0290, 1266.799
755.5111, 1272.962
755.9932, 1267.998
756.4753, 1239.414
756.9575, 1205.190
757.4396, 1194.097
757.9217, 1209.363
758.4038, 1220.690
758.8859, 1226.646
759.3680, 1231.146
759.8502, 1235.199
760.3323, 1238.403
760.8144, 1241.922
761.2965, 1245.182
761.7786, 1241.894
762.2607, 1216.668
762.7429, 1200.876
763.2250, 1222.481
763.7071, 1253.229
764.1892, 1259.153
764.6713, 1240.318
765.1534, 1218.463
765.6356, 1206.992
766.1177, 1196.940
766.5998, 1167.145
767.0819, 1126.297
767.5640, 1115.712
768.0461, 1140.380
768.5283, 1166.598
769.0104, 1175.201
769.4925, 1174.395
769.9746, 1182.112
770.4567, 1203.238
770.9388, 1212.790
771.4210, 1201.789
771.9031, 1192.166
772.3852, 1194.266
772.8673, 1199.816
773.3494, 1197.015
773.8315, 1185.290
774.3137, 1184.601
774.7958, 1217.778
775.2779, 1243.367
775.7600, 1235.713
776.2421, 1210.107
776.7242, 1177.084
777.2064, 1144.590
777.6885, 1131.941
778.1706, 1157.187
778.6527, 1195.379
779.1348, 1206.341
779.6169, 1197.287
780.0991, 1197.053
780.5812, 1209.413
781.0633, 1222.587
781.5454, 1229.325
782.0275, 1233.000
782.5096, 1243.516
782.9918, 1267.699
783.4739, 1268.475
783.9560, 1226.679
784.4381, 1192.723
784.9202, 1192.258
785.4023, 1207.372
785.8845, 1219.559
786.3666, 1228.536
786.8487, 1229.612
787.3308, 1212.855
787.8129, 1198.591
788.2950, 1197.331
788.7772, 1202.164
789.2593, 1206.121
789.7414, 1208.051
790.2235, 1209.310
790.7056, 1210.662
791.1877, 1211.744
791.6699, 1209.666
792.1520, 1207.518
792.6341, 1217.657
793.1162, 1238.901
793.5983, 1248.948
794.0804, 1234.670
794.5626, 1206.972
795.0447, 1185.576
795.5268, 1170.970
796.0089, 1158.167
796.4910, 1148.943
796.9731, 1135.478
797.4553, 1108.139
797.9374, 1082.193
798.4195, 1082.395
798.9016, 1112.542
799.3837, 1123.143
799.8658, 1092.266
800.3480, 1070.184
800.8301, 1072.707
801.3122, 1085.417
801.7943, 1104.917
802.2764, 1123.907
802.7585, 1121.421
803.2407, 1078.423
803.7228, 1040.114
804.2049, 1044.417
804.6870, 1068.993
805.1691, 1090.403
805.6512, 1104.274
806.1334, 1103.469
806.6155, 1085.268
807.0976, 1068.877
807.5797, 1087.275
808.0618, 1130.499
808.5439, 1142.090
809.0261, 1121.311
809.5082, 1103.211
809.9903, 1098.419
810.4724, 1101.553
810.9545, 1108.654
811.4366, 1118.851
811.9188, 1122.707
812.4009, 1120.029
812.8830, 1111.134
813.3651, 1086.204
813.8472, 1065.458
814.3293, 1065.145
814.8115, 1076.117
815.2936, 1076.268
815.7757, 1056.070
816.2578, 1047.831
816.7399, 1075.561
817.2220, 1102.454
817.7041, 1102.026
818.1862, 1085.962
818.6683, 1073.465
819.1505, 1068.925
819.6326, 1064.606
820.1147, 1050.506
820.5968, 1037.589
821.0789, 1045.362
821.5610, 1065.085
822.0432, 1073.436
822.5253, 1067.142
823.0074, 1058.407
823.4895, 1055.631
823.9716, 1055.749
824.4537, 1051.679
824.9359, 1043.359
825.4180, 1035.020
825.9001, 1025.710
826.3822, 1022.184
826.8643, 1027.837
827.3464, 1041.026
827.8286, 1061.768
828.3107, 1093.335
828.7928, 1107.775
829.2749, 1091.874
829.7570, 1076.961
830.2391, 1070.181
830.7213, 1065.542
831.2034, 1057.505
831.6855, 1047.270
832.1676, 1040.514
832.6497, 1037.803
833.1318, 1039.810
833.6140, 1053.153
834.0961, 1065.783
834.5782, 1064.232
835.0603, 1054.667
835.5424, 1052.797
836.0245, 1063.531
836.5067, 1072.491
836.9888, 1065.026
837.4709, 1050.100
837.9530, 1038.171
838.4351, 1030.432
838.9172, 1031.488
839.3994, 1041.601
839.8815, 1052.660
840.3636, 1058.987
840.8457, 1059.078
841.3278, 1044.999
841.8099, 1016.739
842.2921, 998.2361
842.7742, 991.8943
843.2563, 998.3260
843.7384, 1022.510
844.2205, 1051.840
844.7026, 1061.639
845.1848, 1047.561
845.6669, 1038.758
846.1490, 1037.093
846.6311, 1037.804
847.1132, 1043.293
847.5953, 1047.767
848.0775, 1044.591
848.5596, 1035.400
849.0417, 1029.922
849.5238, 1028.877
850.0059, 1032.522
850.4880, 1052.577
850.9702, 1066.470
851.4523, 1047.153
851.9344, 1012.312
852.4165, 1000.494
852.8986, 1022.931
853.3807, 1044.476
853.8629, 1038.255
854.3450, 1023.513
854.8271, 1017.796
855.3092, 1019.530
855.7913, 1027.383
856.2734, 1039.109
856.7556, 1045.392
857.2377, 1037.877
857.7198, 1026.414
858.2019, 1030.057
858.6840, 1045.166
859.1661, 1056.319
859.6483, 1061.846
860.1304, 1061.726
860.6125, 1055.686
861.0946, 1045.213
861.5767, 1030.716
862.0588, 1012.439
862.5410, 1006.615
863.0231, 1016.095
863.5052, 1028.403
863.9873, 1045.624
864.4694, 1054.409
864.9515, 1038.016
865.4337, 1003.402
865.9158, 986.3414
866.3979, 1003.292
866.8800, 1010.074
867.3621, 991.6793
867.8442, 980.5033
868.3264, 999.9338
868.8085, 1029.215
869.2906, 1039.413
869.7727, 1027.444
870.2548, 1014.901
870.7369, 1000.073
871.2191, 994.5302
871.7012, 1014.838
872.1833, 1038.248
872.6654, 1037.630
873.1475, 1018.999
873.6296, 1010.079
874.1118, 1024.007
874.5939, 1040.419
875.0760, 1045.144
875.5581, 1042.805
876.0402, 1035.854
876.5223, 1027.367
877.0045, 1024.442
877.4866, 1028.487
877.9687, 1032.112
878.4508, 1026.015
878.9329, 1019.263
879.4150, 1036.726
879.8972, 1070.029
880.3793, 1084.054
880.8614, 1074.010
881.3435, 1049.298
881.8256, 1013.405
882.3077, 979.1019
882.7899, 970.0247
883.2720, 986.1496
883.7541, 1006.092
884.2362, 1031.571
884.7183, 1049.595
885.2004, 1055.769
885.6826, 1054.742
886.1647, 1050.611
886.6468, 1043.242
887.1289, 1031.101
887.6110, 1008.568
888.0931, 994.2884
888.5753, 992.4590
889.0574, 994.4506
889.5395, 996.8563
890.0216, 1000.266
890.5037, 1006.204
890.9858, 1015.243
891.4680, 1021.758
891.9501, 1029.806
892.4322, 1029.461
892.9143, 997.7880
893.3964, 974.1839
893.8785, 1007.432
894.3607, 1073.923
894.8428, 1101.696
895.3249, 1060.327
895.8070, 1021.568
896.2891, 1019.796
896.7712, 1026.782
897.2534, 1024.290
897.7355, 1015.816
898.2176, 1007.161
898.6997, 1000.226
899.1818, 997.1206
899.6639, 1001.177
900.1461, 1006.107
900.6282, 1005.175
901.1103, 1001.730
901.5924, 1003.032
902.0745, 1006.794
902.5566, 999.8834
903.0388, 977.4247
903.5209, 960.7892
904.0030, 979.4689
904.4851, 1018.182
904.9672, 1047.626
905.4493, 1066.490
905.9315, 1063.237
906.4136, 1037.809
906.8957, 1017.091
907.3778, 1021.246
907.8599, 1036.159
908.3420, 1029.721
908.8242, 1004.600
909.3063, 1001.057
909.7884, 1022.670
910.2705, 1028.585
910.7526, 1000.075
911.2347, 971.7848
911.7169, 983.5711
912.1990, 1027.425
912.6811, 1052.177
913.1632, 1054.257
913.6453, 1052.986
914.1274, 1052.329
914.6096, 1042.253
915.0917, 1009.194
915.5738, 972.6140
916.0559, 969.1169
916.5380, 1005.373
917.0201, 1024.988
917.5023, 1015.512
917.9844, 1010.395
918.4665, 1021.604
918.9486, 1033.646
919.4307, 1036.503
919.9128, 1031.310
920.3950, 1020.794
920.8771, 1003.328
921.3592, 984.9351
921.8413, 954.6374
922.3234, 937.3376
922.8055, 954.1271
923.2877, 980.8893
923.7698, 991.4747
924.2519, 986.3654
924.7340, 984.2359
925.2161, 993.1329
925.6982, 1000.026
926.1804, 1000.138
926.6625, 997.0869
927.1446, 989.8948
927.6267, 982.9446
928.1088, 984.4169
928.5909, 995.4448
929.0731, 1004.844
929.5552, 1002.508
930.0373, 1001.523
930.5194, 1016.990
931.0015, 1034.537
931.4836, 1033.338
931.9658, 1018.412
932.4479, 1010.529
932.9300, 1018.072
933.4121, 1026.087
933.8942, 1019.341
934.3763, 1008.874
934.8585, 1008.484
935.3406, 1014.331
935.8227, 1018.202
936.3048, 1019.040
936.7869, 1021.918
937.2690, 1031.065
937.7512, 1037.022
938.2333, 1020.400
938.7154, 995.0328
939.1975, 995.5247
939.6796, 1015.640
940.1617, 1023.930
940.6439, 1012.220
941.1260, 998.9003
941.6081, 1000.813
942.0902, 1008.697
942.5723, 1001.200
943.0544, 982.3837
943.5366, 967.5082
944.0187, 959.0793
944.5008, 971.8209
944.9829, 1012.786
945.4650, 1051.747
945.9471, 1049.066
946.4293, 1015.809
946.9114, 997.2159
947.3935, 993.0997
947.8756, 994.7833
948.3577, 1001.514
948.8398, 1006.417
949.3220, 1005.735
949.8041, 1000.366
950.2862, 989.2813
950.7683, 973.0111
951.2504, 976.8801
951.7325, 1006.276
952.2147, 1015.460
952.6968, 987.9497
953.1789, 964.0046
953.6610, 976.2468
954.1431, 1007.234
954.6252, 1011.268
955.1074, 981.6757
955.5895, 965.4392
956.0716, 967.8417
956.5537, 966.5618
957.0358, 949.4284
957.5179, 938.4940
958.0001, 959.5320
958.4822, 1001.842
958.9643, 1016.302
959.4464, 986.7906
959.9285, 972.7916
960.4106, 981.8401
960.8928, 994.1239
961.3749, 1006.292
961.8570, 1013.982
962.3391, 1010.884
962.8212, 997.9073
963.3033, 986.4764
963.7855, 969.8354
964.2676, 967.5224
964.7497, 1000.108
965.2318, 1021.872
965.7139, 1000.665
966.1960, 964.1575
966.6782, 950.5682
967.1603, 960.6146
967.6424, 969.1310
968.1245, 973.7192
968.6066, 979.9691
969.0887, 992.3913
969.5709, 1002.457
970.0530, 1003.860
970.5351, 1000.493
971.0172, 999.9700
971.4993, 1003.642
971.9814, 1000.606
972.4636, 977.7386
972.9457, 964.6772
973.4278, 978.1917
973.9099, 994.1878
974.3920, 994.5717
974.8741, 985.3898
975.3563, 979.2264
975.8384, 975.9661
976.3205, 984.6104
976.8026, 1026.088
977.2847, 1054.792
977.7668, 1041.400
978.2490, 1020.368
978.7311, 1026.430
979.2132, 1048.634
979.6953, 1050.272
980.1774, 1017.744
980.6595, 993.7505
981.1417, 992.5928
981.6238, 998.3082
982.1059, 1012.554
982.5880, 1023.373
983.0701, 1012.041
983.5522, 986.7822
984.0344, 978.6201
984.5165, 999.6373
984.9986, 1023.273
985.4807, 1048.389
985.9628, 1065.257
986.4449, 1063.528
986.9271, 1054.020
987.4092, 1049.199
987.8913, 1048.892
988.3734, 1044.822
988.8555, 1031.211
989.3376, 1022.167
989.8198, 1032.003
990.3019, 1038.647
990.7840, 1017.955
991.2661, 991.7219
991.7482, 993.4853
992.2303, 1020.889
992.7125, 1037.417
993.1946, 1022.105
993.6767, 1012.954
994.1588, 1037.694
994.6409, 1062.912
995.1230, 1060.274
995.6052, 1045.222
996.0873, 1039.989
996.5694, 1047.488
997.0515, 1060.071
997.5336, 1077.911
998.0157, 1094.602
998.4979, 1108.827
998.9800, 1118.909
999.4621, 1126.274
999.9442, 1127.216
1000.426, 1110.416
1000.908, 1078.025
1001.391, 1058.312
1001.873, 1069.855
1002.355, 1084.514
1002.837, 1092.353
1003.319, 1094.784
1003.801, 1089.587
1004.283, 1081.399
1004.765, 1076.672
1005.247, 1076.558
1005.730, 1079.482
1006.212, 1092.769
1006.694, 1097.125
1007.176, 1063.851
1007.658, 1036.554
1008.140, 1068.197
1008.622, 1123.676
1009.104, 1137.539
1009.587, 1101.779
1010.069, 1069.747
1010.551, 1057.185
1011.033, 1061.729
1011.515, 1104.107
1011.997, 1142.430
1012.479, 1135.167
1012.961, 1103.041
1013.443, 1082.680
1013.926, 1080.453
1014.408, 1083.240
1014.890, 1087.401
1015.372, 1093.670
1015.854, 1113.155
1016.336, 1124.427
1016.818, 1098.935
1017.300, 1058.675
1017.783, 1041.940
1018.265, 1054.269
1018.747, 1069.841
1019.229, 1089.390
1019.711, 1097.467
1020.193, 1078.906
1020.675, 1056.128
1021.157, 1039.862
1021.639, 1033.499
1022.122, 1046.449
1022.604, 1078.171
1023.086, 1095.254
1023.568, 1073.984
1024.050, 1056.295
1024.532, 1061.687
1025.014, 1068.607
1025.496, 1060.312
1025.979, 1045.014
1026.461, 1035.626
1026.943, 1033.669
1027.425, 1035.263
1027.907, 1044.232
1028.389, 1049.850
1028.871, 1038.462
1029.353, 1034.778
1029.835, 1063.338
1030.318, 1103.716
1030.800, 1125.965
1031.282, 1128.240
1031.764, 1128.003
1032.246, 1137.678
1032.728, 1130.389
1033.210, 1070.474
1033.692, 1027.541
1034.175, 1057.187
1034.657, 1113.537
1035.139, 1133.985
1035.621, 1117.418
1036.103, 1102.685
1036.585, 1090.315
1037.067, 1082.948
1037.549, 1084.175
1038.031, 1086.470
1038.514, 1084.790
1038.996, 1083.695
1039.478, 1089.948
1039.960, 1102.831
1040.442, 1112.459
1040.924, 1123.676
1041.406, 1122.495
1041.888, 1099.067
1042.370, 1076.975
1042.853, 1060.640
1043.335, 1055.009
1043.817, 1072.567
1044.299, 1107.168
1044.781, 1113.992
1045.263, 1072.870
1045.745, 1056.495
1046.227, 1078.380
1046.710, 1099.858
1047.192, 1107.400
1047.674, 1109.167
1048.156, 1112.312
1048.638, 1116.753
1049.120, 1124.401
1049.602, 1141.546
1050.084, 1131.986
1050.567, 1085.246
1051.049, 1046.725
1051.531, 1029.865
1052.013, 1027.348
1052.495, 1033.849
1052.977, 1048.462
1053.459, 1071.032
1053.941, 1103.125
1054.423, 1125.190
1054.906, 1137.375
1055.388, 1131.606
1055.870, 1102.445
1056.352, 1080.505
1056.834, 1090.072
1057.316, 1116.830
1057.798, 1134.326
1058.280, 1142.468
1058.762, 1140.128
1059.245, 1127.648
1059.727, 1109.557
1060.209, 1087.047
1060.691, 1073.053
1061.173, 1075.973
1061.655, 1087.794
1062.137, 1101.036
1062.619, 1111.987
1063.102, 1101.722
1063.584, 1076.153
1064.066, 1060.532
1064.548, 1058.673
1065.030, 1067.464
1065.512, 1085.540
1065.994, 1097.627
1066.476, 1079.216
1066.958, 1049.177
1067.441, 1041.887
1067.923, 1051.190
1068.405, 1069.281
1068.887, 1090.277
1069.369, 1098.510
1069.851, 1088.892
1070.333, 1076.406
1070.815, 1072.790
1071.297, 1073.044
1071.780, 1070.791
1072.262, 1069.516
1072.744, 1075.759
1073.226, 1086.657
1073.708, 1097.797
1074.190, 1106.502
1074.672, 1103.063
1075.154, 1069.745
1075.636, 1045.153
1076.119, 1061.392
1076.601, 1091.843
1077.083, 1118.459
1077.565, 1139.528
1078.047, 1159.191
1078.529, 1175.174
1079.011, 1170.276
1079.493, 1121.928
1079.976, 1091.407
1080.458, 1116.418
1080.940, 1146.590
1081.422, 1160.948
1081.904, 1161.124
1082.386, 1140.620
1082.868, 1108.443
1083.350, 1097.893
1083.833, 1122.954
1084.315, 1141.259
1084.797, 1140.485
1085.279, 1142.833
1085.761, 1168.746
1086.243, 1185.598
1086.725, 1158.258
1087.207, 1109.372
1087.689, 1090.820
1088.172, 1107.083
1088.654, 1126.392
1089.136, 1154.253
1089.618, 1171.515
1090.100, 1172.431
1090.582, 1167.408
1091.064, 1159.048
1091.546, 1153.822
1092.028, 1163.228
1092.511, 1185.302
1092.993, 1199.790
1093.475, 1206.915
1093.957, 1201.165
1094.439, 1180.196
1094.921, 1162.224
1095.403, 1153.860
1095.885, 1158.194
1096.368, 1180.796
1096.850, 1213.643
1097.332, 1239.347
1097.814, 1255.953
1098.296, 1241.755
1098.778, 1202.843
1099.260, 1192.859
1099.742, 1223.523
1100.224, 1251.019
1100.707, 1243.472
1101.189, 1221.659
1101.671, 1211.042
1102.153, 1207.796
1102.635, 1210.391
1103.117, 1212.882
1103.599, 1198.105
1104.081, 1169.076
1104.563, 1147.821
1105.046, 1143.828
1105.528, 1150.769
1106.010, 1172.564
1106.492, 1193.552
1106.974, 1193.733
1107.456, 1190.426
1107.938, 1209.033
1108.420, 1239.562
1108.903, 1256.414
1109.385, 1253.885
1109.867, 1246.643
1110.349, 1230.097
1110.831, 1224.142
1111.313, 1252.229
1111.795, 1274.711
1112.277, 1253.765
1112.760, 1220.329
1113.242, 1222.810
1113.724, 1257.881
1114.206, 1269.642
1114.688, 1236.436
1115.170, 1213.551
1115.652, 1204.431
1116.134, 1200.239
1116.616, 1199.380
1117.099, 1201.401
1117.581, 1206.468
1118.063, 1213.780
1118.545, 1222.815
1119.027, 1234.899
1119.509, 1230.487
1119.991, 1205.379
1120.473, 1194.236
1120.955, 1205.314
1121.438, 1215.424
1121.920, 1211.737
1122.402, 1201.033
1122.884, 1191.140
1123.366, 1182.797
1123.848, 1180.309
1124.330, 1182.020
1124.812, 1178.893
1125.295, 1171.434
1125.777, 1165.710
1126.259, 1164.402
1126.741, 1172.864
1127.223, 1198.727
1127.705, 1225.058
1128.187, 1230.308
1128.669, 1223.008
1129.151, 1209.659
1129.634, 1195.717
1130.116, 1188.224
1130.598, 1188.803
1131.080, 1199.540
1131.562, 1223.587
1132.044, 1242.027
1132.526, 1248.754
1133.008, 1242.341
1133.490, 1206.316
1133.973, 1171.122
1134.455, 1166.511
1134.937, 1182.363
1135.419, 1195.744
1135.901, 1203.829
1136.383, 1216.467
1136.865, 1245.818
1137.347, 1262.072
1137.830, 1258.945
1138.312, 1247.541
1138.794, 1224.981
1139.276, 1205.911
1139.758, 1209.327
1140.240, 1226.798
1140.722, 1220.808
1141.204, 1183.267
1141.687, 1180.944
1142.169, 1220.030
1142.651, 1245.240
1143.133, 1243.102
1143.615, 1230.642
1144.097, 1217.282
1144.579, 1207.899
1145.061, 1212.359
1145.543, 1224.832
1146.026, 1227.166
1146.508, 1222.449
1146.990, 1222.307
1147.472, 1225.604
1147.954, 1220.675
1148.436, 1204.719
1148.918, 1190.557
1149.400, 1189.981
1149.882, 1188.273
1150.365, 1162.915
1150.847, 1137.798
1151.329, 1140.537
1151.811, 1158.405
1152.293, 1171.366
1152.775, 1179.043
1153.257, 1194.272
1153.739, 1225.105
1154.222, 1240.080
1154.704, 1208.508
1155.186, 1189.893
1155.668, 1221.132
1156.150, 1252.486
1156.632, 1247.006
1157.114, 1222.376
1157.596, 1202.068
1158.078, 1186.170
1158.561, 1178.379
1159.043, 1180.797
1159.525, 1184.308
1160.007, 1189.348
1160.489, 1190.760
1160.971, 1186.346
1161.453, 1181.167
1161.935, 1180.346
1162.417, 1177.978
1162.900, 1153.516
1163.382, 1117.505
1163.864, 1130.144
1164.346, 1175.893
1164.828, 1184.779
1165.310, 1155.139
1165.792, 1139.229
1166.274, 1157.476
1166.757, 1178.260
1167.239, 1175.031
1167.721, 1164.902
1168.203, 1158.472
1168.685, 1159.221
1169.167, 1184.253
1169.649, 1211.662
1170.131, 1195.785
1170.614, 1144.868
1171.096, 1124.036
1171.578, 1160.063
1172.060, 1192.533
1172.542, 1218.414
1173.024, 1224.288
1173.506, 1179.657
1173.988, 1143.089
1174.470, 1156.165
1174.953, 1193.959
1175.435, 1218.859
1175.917, 1231.263
1176.399, 1235.579
1176.881, 1229.818
1177.363, 1231.059
1177.845, 1241.741
1178.327, 1246.773
1178.809, 1241.590
1179.292, 1218.473
1179.774, 1166.297
1180.256, 1121.899
1180.738, 1166.845
1181.220, 1254.320
1181.702, 1275.290
1182.184, 1247.775
1182.666, 1202.086
1183.149, 1154.410
1183.631, 1138.840
1184.113, 1163.635
1184.595, 1186.376
1185.077, 1173.786
1185.559, 1166.510
1186.041, 1195.985
1186.523, 1229.748
1187.005, 1255.282
1187.488, 1264.643
1187.970, 1239.841
1188.452, 1191.825
1188.934, 1161.462
1189.416, 1148.962
1189.898, 1164.957
1190.380, 1234.593
1190.862, 1270.438
1191.344, 1247.004
1191.827, 1223.488
1192.309, 1228.568
1192.791, 1247.819
1193.273, 1268.912
1193.755, 1283.301
1194.237, 1252.991
1194.719, 1191.931
1195.201, 1174.641
1195.684, 1196.662
1196.166, 1227.300
1196.648, 1256.515
1197.130, 1272.397
1197.612, 1268.671
1198.094, 1262.896
1198.576, 1277.800
1199.058, 1287.810
1199.541, 1259.957
1200.023, 1227.218
1200.505, 1219.574
1200.987, 1231.946
1201.469, 1265.219
1201.951, 1310.356
1202.433, 1312.566
1202.915, 1224.545
1203.397, 1187.475
1203.880, 1245.273
1204.362, 1283.056
1204.844, 1265.841
1205.326, 1246.069
1205.808, 1258.995
1206.290, 1277.015
1206.772, 1255.471
1207.254, 1207.810
1207.736, 1199.095
1208.219, 1224.510
1208.701, 1245.621
1209.183, 1261.460
1209.665, 1286.629
1210.147, 1322.064
1210.629, 1348.207
1211.111, 1353.683
1211.593, 1349.657
1212.076, 1334.938
1212.558, 1328.249
1213.040, 1355.480
1213.522, 1392.050
1214.004, 1418.589
1214.486, 1431.019
1214.968, 1419.285
1215.450, 1386.443
1215.932, 1371.163
1216.415, 1394.127
1216.897, 1403.316
1217.379, 1389.038
1217.861, 1377.384
1218.343, 1375.635
1218.825, 1374.203
1219.307, 1365.342
1219.789, 1358.902
1220.271, 1372.183
1220.754, 1397.806
1221.236, 1400.424
1221.718, 1387.187
1222.200, 1403.273
1222.682, 1439.858
1223.164, 1436.184
1223.646, 1387.458
1224.128, 1359.147
1224.611, 1388.036
1225.093, 1414.929
1225.575, 1380.461
1226.057, 1343.808
1226.539, 1348.905
1227.021, 1369.163
1227.503, 1393.869
1227.985, 1409.353
1228.468, 1387.373
1228.950, 1333.046
1229.432, 1309.964
1229.914, 1335.002
1230.396, 1344.468
1230.878, 1332.741
1231.360, 1323.572
1231.842, 1321.501
1232.324, 1327.413
1232.807, 1344.169
1233.289, 1350.828
1233.771, 1317.403
1234.253, 1265.467
1234.735, 1246.768
1235.217, 1246.435
1235.699, 1225.921
1236.181, 1195.156
1236.663, 1189.434
1237.146, 1205.287
1237.628, 1200.376
1238.110, 1156.821
1238.592, 1135.700
1239.074, 1191.586
1239.556, 1237.924
1240.038, 1244.209
1240.520, 1231.115
1241.003, 1184.189
1241.485, 1148.906
1241.967, 1179.189
1242.449, 1249.593
1242.931, 1282.869
1243.413, 1277.324
1243.895, 1283.555
1244.377, 1301.681
1244.859, 1292.286
1245.342, 1253.688
1245.824, 1238.124
1246.306, 1264.366
1246.788, 1301.753
1247.270, 1330.873
1247.752, 1346.207
1248.234, 1331.321
1248.716, 1309.900
1249.198, 1303.961
1249.681, 1307.727
1250.163, 1323.296
1250.645, 1338.051
1251.127, 1315.359
1251.609, 1250.933
1252.091, 1237.656
1252.573, 1325.964
1253.055, 1374.052
1253.538, 1367.508
1254.020, 1350.061
1254.502, 1329.333
1254.984, 1317.354
1255.466, 1322.723
1255.948, 1336.189
1256.430, 1345.525
1256.912, 1352.097
1257.395, 1357.515
1257.877, 1363.584
1258.359, 1380.658
1258.841, 1399.773
1259.323, 1395.030
1259.805, 1368.271
1260.287, 1344.497
1260.769, 1330.828
1261.251, 1333.282
1261.734, 1375.478
1262.216, 1403.059
1262.698, 1386.336
1263.180, 1368.324
1263.662, 1370.868
1264.144, 1377.314
1264.626, 1371.614
1265.108, 1358.288
1265.590, 1347.675
1266.073, 1339.983
1266.555, 1341.002
1267.037, 1348.388
1267.519, 1344.598
1268.001, 1330.409
1268.483, 1319.511
1268.965, 1316.448
1269.447, 1317.537
1269.930, 1319.127
##END=



