##NAMES=Offretite
##RRUFFID=R060767
##IDEAL CHEMISTRY=KCaMg(Si_13_Al_5_)O_36_&#183;15H_2_O
##LOCALITY=Vinarice, Kladno, Czech Republic
##OWNER=RRUFF
##SOURCE=Michael Scott
##DESCRIPTION=Colorless elongated hexagonal prisms
##STATUS=The identification of this mineral is confirmed by single-crystal X-ray diffraction and chemical analysis.
##URL=rruff.info/R060767
##MEASURED CHEMISTRY=(K_0.96_[box]_0.04_)_Σ=1_Ca_1.00_(Mg_0.95_Fe^2+^_0.05_)_Σ=1_Si_13.04_Al_4.96_O_36_·15H_2_O
196.2508, 1425.360
196.7329, 1419.518
197.2150, 1415.075
197.6971, 1412.037
198.1792, 1410.478
198.6613, 1411.919
199.1435, 1416.638
199.6256, 1416.554
200.1077, 1409.964
200.5898, 1399.795
201.0719, 1391.942
201.5540, 1386.365
202.0362, 1383.173
202.5183, 1383.329
203.0004, 1387.346
203.4825, 1389.625
203.9646, 1388.882
204.4467, 1386.332
204.9289, 1387.026
205.4110, 1392.482
205.8931, 1396.512
206.3752, 1393.201
206.8573, 1380.351
207.3394, 1371.474
207.8215, 1369.053
208.3037, 1372.174
208.7858, 1376.237
209.2679, 1382.666
209.7500, 1387.248
210.2321, 1384.682
210.7142, 1371.645
211.1964, 1364.487
211.6785, 1368.710
212.1606, 1383.249
212.6427, 1389.845
213.1248, 1386.537
213.6069, 1378.553
214.0891, 1369.762
214.5712, 1358.205
215.0533, 1351.361
215.5354, 1351.976
216.0175, 1360.291
216.4996, 1367.824
216.9818, 1374.641
217.4639, 1380.267
217.9460, 1384.002
218.4281, 1385.477
218.9102, 1385.667
219.3923, 1384.499
219.8745, 1381.725
220.3566, 1379.433
220.8387, 1377.669
221.3208, 1376.417
221.8029, 1375.822
222.2850, 1376.577
222.7672, 1376.709
223.2493, 1375.261
223.7314, 1371.469
224.2135, 1369.833
224.6956, 1372.445
225.1777, 1375.946
225.6599, 1373.222
226.1420, 1358.339
226.6241, 1347.717
227.1062, 1349.065
227.5883, 1368.785
228.0704, 1381.115
228.5526, 1384.458
229.0347, 1381.047
229.5168, 1375.043
229.9989, 1362.967
230.4810, 1353.549
230.9631, 1351.283
231.4453, 1361.607
231.9274, 1366.509
232.4095, 1364.461
232.8916, 1357.355
233.3737, 1349.640
233.8558, 1338.786
234.3380, 1331.032
234.8201, 1330.474
235.3022, 1344.323
235.7843, 1349.289
236.2664, 1339.121
236.7485, 1319.816
237.2307, 1314.291
237.7128, 1331.774
238.1949, 1350.392
238.6770, 1358.263
239.1591, 1349.870
239.6412, 1342.169
240.1234, 1335.172
240.6055, 1329.359
241.0876, 1326.955
241.5697, 1328.674
242.0518, 1332.824
242.5339, 1339.090
243.0161, 1350.575
243.4982, 1357.587
243.9803, 1358.076
244.4624, 1353.117
244.9445, 1348.879
245.4266, 1345.417
245.9087, 1342.552
246.3909, 1340.140
246.8730, 1337.979
247.3551, 1336.689
247.8372, 1337.135
248.3193, 1338.807
248.8014, 1337.187
249.2836, 1328.870
249.7657, 1321.741
250.2478, 1322.222
250.7299, 1335.657
251.2120, 1345.482
251.6941, 1350.302
252.1763, 1350.146
252.6584, 1343.689
253.1405, 1325.343
253.6226, 1308.217
254.1047, 1303.824
254.5868, 1320.420
255.0690, 1330.684
255.5511, 1328.563
256.0332, 1315.497
256.5153, 1307.984
256.9974, 1307.982
257.4795, 1310.928
257.9616, 1313.435
258.4438, 1315.591
258.9259, 1316.853
259.4080, 1316.489
259.8901, 1314.726
260.3722, 1315.249
260.8543, 1318.961
261.3365, 1323.604
261.8186, 1327.206
262.3007, 1329.036
262.7828, 1332.011
263.2649, 1338.074
263.7470, 1346.510
264.2292, 1348.244
264.7113, 1340.772
265.1934, 1330.502
265.6755, 1322.803
266.1576, 1317.445
266.6397, 1315.527
267.1219, 1318.370
267.6040, 1325.457
268.0861, 1330.737
268.5682, 1334.854
269.0503, 1336.142
269.5324, 1331.501
270.0146, 1318.337
270.4967, 1310.131
270.9788, 1311.682
271.4609, 1321.355
271.9430, 1322.755
272.4251, 1312.734
272.9073, 1301.615
273.3894, 1300.075
273.8715, 1309.841
274.3536, 1319.179
274.8357, 1326.010
275.3178, 1330.490
275.8000, 1334.026
276.2821, 1336.643
276.7642, 1338.169
277.2463, 1338.422
277.7284, 1337.354
278.2105, 1335.035
278.6927, 1330.820
279.1748, 1325.339
279.6569, 1322.110
280.1390, 1321.499
280.6211, 1321.678
281.1032, 1320.524
281.5854, 1317.948
282.0675, 1317.181
282.5496, 1319.517
283.0317, 1324.064
283.5138, 1327.909
283.9959, 1331.308
284.4781, 1332.663
284.9602, 1329.048
285.4423, 1320.638
285.9244, 1314.637
286.4065, 1312.585
286.8886, 1313.815
287.3708, 1317.658
287.8529, 1324.488
288.3350, 1330.017
288.8171, 1327.926
289.2992, 1319.624
289.7813, 1317.386
290.2635, 1326.085
290.7456, 1340.414
291.2277, 1349.171
291.7098, 1352.329
292.1919, 1351.239
292.6740, 1344.121
293.1561, 1332.852
293.6382, 1325.422
294.1204, 1324.199
294.6025, 1327.089
295.0846, 1330.562
295.5667, 1334.690
296.0488, 1340.382
296.5309, 1352.489
297.0131, 1367.033
297.4952, 1371.369
297.9773, 1358.078
298.4594, 1340.621
298.9415, 1339.951
299.4236, 1354.206
299.9058, 1370.669
300.3879, 1380.433
300.8700, 1385.989
301.3521, 1392.037
301.8342, 1400.284
302.3163, 1407.826
302.7985, 1408.235
303.2806, 1403.724
303.7627, 1404.152
304.2448, 1421.615
304.7269, 1446.114
305.2090, 1463.375
305.6912, 1469.688
306.1733, 1470.730
306.6554, 1469.724
307.1375, 1467.295
307.6196, 1465.380
308.1017, 1465.161
308.5839, 1466.020
309.0660, 1467.238
309.5481, 1468.561
310.0302, 1470.793
310.5123, 1474.604
310.9944, 1479.793
311.4766, 1485.799
311.9587, 1496.887
312.4408, 1505.949
312.9229, 1504.871
313.4050, 1488.689
313.8871, 1476.964
314.3693, 1486.228
314.8514, 1506.264
315.3335, 1519.005
315.8156, 1512.855
316.2977, 1500.676
316.7798, 1488.507
317.2620, 1476.648
317.7441, 1466.786
318.2262, 1459.030
318.7083, 1453.705
319.1904, 1451.249
319.6725, 1452.797
320.1547, 1456.398
320.6368, 1463.770
321.1189, 1476.862
321.6010, 1481.642
322.0831, 1466.331
322.5652, 1444.168
323.0474, 1429.553
323.5295, 1428.102
324.0116, 1431.498
324.4937, 1440.521
324.9758, 1456.251
325.4579, 1465.151
325.9401, 1461.456
326.4222, 1452.351
326.9043, 1443.918
327.3864, 1432.966
327.8685, 1426.488
328.3506, 1428.541
328.8328, 1439.142
329.3149, 1443.019
329.7970, 1434.713
330.2791, 1423.761
330.7612, 1416.615
331.2433, 1413.326
331.7254, 1414.189
332.2076, 1423.228
332.6897, 1438.336
333.1718, 1441.196
333.6539, 1424.428
334.1360, 1404.561
334.6181, 1391.520
335.1003, 1387.333
335.5824, 1385.612
336.0645, 1387.551
336.5466, 1391.320
337.0287, 1389.676
337.5108, 1379.726
337.9930, 1370.509
338.4751, 1367.440
338.9572, 1371.853
339.4393, 1375.223
339.9214, 1377.365
340.4035, 1377.974
340.8857, 1376.021
341.3678, 1371.122
341.8499, 1365.720
342.3320, 1361.114
342.8141, 1357.272
343.2962, 1353.249
343.7784, 1349.320
344.2605, 1344.563
344.7426, 1335.139
345.2247, 1321.242
345.7068, 1312.464
346.1889, 1316.157
346.6711, 1329.081
347.1532, 1338.376
347.6353, 1344.002
348.1174, 1345.599
348.5995, 1339.694
349.0816, 1328.249
349.5638, 1320.197
350.0459, 1320.601
350.5280, 1325.801
351.0101, 1331.121
351.4922, 1336.496
351.9743, 1337.306
352.4565, 1325.096
352.9386, 1305.626
353.4207, 1290.482
353.9028, 1285.075
354.3849, 1283.911
354.8670, 1282.115
355.3492, 1279.727
355.8313, 1276.845
356.3134, 1272.815
356.7955, 1268.646
357.2776, 1265.403
357.7597, 1262.929
358.2419, 1262.208
358.7240, 1267.819
359.2061, 1276.524
359.6882, 1278.397
360.1703, 1260.693
360.6524, 1239.501
361.1346, 1225.911
361.6167, 1223.211
362.0988, 1225.092
362.5809, 1233.672
363.0630, 1244.860
363.5451, 1251.190
364.0273, 1249.789
364.5094, 1243.689
364.9915, 1231.658
365.4736, 1209.919
365.9557, 1196.635
366.4378, 1201.786
366.9200, 1214.542
367.4021, 1221.849
367.8842, 1217.794
368.3663, 1213.034
368.8484, 1209.065
369.3305, 1205.702
369.8126, 1205.085
370.2947, 1209.815
370.7769, 1215.392
371.2590, 1218.124
371.7411, 1217.112
372.2232, 1214.366
372.7053, 1207.481
373.1874, 1197.935
373.6696, 1199.458
374.1517, 1218.810
374.6338, 1238.054
375.1159, 1244.522
375.5980, 1234.967
376.0801, 1224.949
376.5623, 1214.494
377.0444, 1205.282
377.5265, 1203.729
378.0086, 1211.723
378.4907, 1218.141
378.9728, 1214.022
379.4550, 1199.706
379.9371, 1196.014
380.4192, 1206.216
380.9013, 1220.721
381.3834, 1224.523
381.8655, 1218.245
382.3477, 1212.056
382.8298, 1212.404
383.3119, 1216.141
383.7940, 1211.711
384.2761, 1198.355
384.7582, 1186.350
385.2404, 1187.941
385.7225, 1199.274
386.2046, 1210.406
386.6867, 1219.185
387.1688, 1225.042
387.6509, 1225.900
388.1331, 1222.259
388.6152, 1218.096
389.0973, 1216.321
389.5794, 1215.547
390.0615, 1213.832
390.5436, 1209.420
391.0258, 1206.169
391.5079, 1208.629
391.9900, 1214.566
392.4721, 1217.912
392.9542, 1214.618
393.4363, 1208.700
393.9185, 1201.602
394.4006, 1191.542
394.8827, 1186.660
395.3648, 1194.899
395.8469, 1208.846
396.3290, 1217.524
396.8112, 1212.951
397.2933, 1207.962
397.7754, 1206.875
398.2575, 1210.452
398.7396, 1213.234
399.2217, 1211.730
399.7039, 1210.987
400.1860, 1215.674
400.6681, 1237.823
401.1502, 1248.025
401.6323, 1235.401
402.1144, 1204.781
402.5966, 1193.330
403.0787, 1211.815
403.5608, 1233.679
404.0429, 1242.434
404.5250, 1233.454
405.0071, 1227.420
405.4893, 1225.715
405.9713, 1227.364
406.4535, 1230.305
406.9356, 1234.480
407.4177, 1240.242
407.8998, 1250.504
408.3819, 1264.474
408.8640, 1266.800
409.3462, 1254.587
409.8283, 1241.246
410.3104, 1246.624
410.7925, 1267.653
411.2746, 1283.872
411.7567, 1284.567
412.2389, 1277.906
412.7210, 1281.479
413.2031, 1295.003
413.6852, 1307.946
414.1673, 1307.666
414.6494, 1302.160
415.1316, 1306.151
415.6137, 1327.010
416.0958, 1351.433
416.5779, 1369.219
417.0600, 1381.354
417.5421, 1390.386
418.0243, 1394.360
418.5064, 1398.110
418.9885, 1405.664
419.4706, 1418.232
419.9527, 1431.563
420.4348, 1445.538
420.9170, 1458.726
421.3991, 1468.933
421.8812, 1471.136
422.3633, 1474.606
422.8454, 1484.229
423.3275, 1500.572
423.8097, 1512.038
424.2918, 1511.349
424.7739, 1509.125
425.2560, 1513.137
425.7381, 1533.940
426.2202, 1545.853
426.7024, 1542.490
427.1845, 1528.853
427.6666, 1524.181
428.1487, 1533.094
428.6308, 1543.205
429.1129, 1548.526
429.5951, 1547.385
430.0772, 1548.889
430.5593, 1553.714
431.0414, 1560.122
431.5235, 1566.769
432.0056, 1574.171
432.4878, 1576.338
432.9699, 1568.439
433.4520, 1553.756
433.9341, 1547.130
434.4162, 1549.043
434.8983, 1553.665
435.3805, 1554.396
435.8626, 1553.275
436.3447, 1558.091
436.8268, 1573.481
437.3089, 1590.652
437.7910, 1597.487
438.2732, 1595.915
438.7553, 1593.615
439.2374, 1594.632
439.7195, 1597.477
440.2016, 1600.936
440.6837, 1605.065
441.1659, 1608.562
441.6480, 1606.388
442.1301, 1604.037
442.6122, 1609.154
443.0943, 1633.287
443.5764, 1657.260
444.0585, 1671.725
444.5406, 1677.105
445.0228, 1685.164
445.5049, 1699.504
445.9870, 1716.969
446.4691, 1735.432
446.9512, 1763.195
447.4333, 1781.243
447.9155, 1781.416
448.3976, 1772.187
448.8797, 1775.053
449.3618, 1794.339
449.8439, 1819.414
450.3260, 1849.154
450.8082, 1885.967
451.2903, 1909.401
451.7724, 1914.653
452.2545, 1913.896
452.7366, 1919.791
453.2188, 1932.448
453.7009, 1951.407
454.1830, 1979.448
454.6651, 2012.194
455.1472, 2037.185
455.6293, 2054.114
456.1115, 2066.758
456.5936, 2073.824
457.0757, 2078.450
457.5578, 2091.551
458.0399, 2116.728
458.5220, 2142.423
459.0042, 2153.155
459.4863, 2154.063
459.9684, 2158.566
460.4505, 2176.537
460.9326, 2198.750
461.4147, 2217.460
461.8969, 2232.485
462.3790, 2244.544
462.8611, 2249.106
463.3432, 2253.137
463.8253, 2263.169
464.3074, 2287.611
464.7896, 2309.683
465.2717, 2324.521
465.7538, 2333.121
466.2359, 2337.958
466.7180, 2332.634
467.2001, 2329.702
467.6823, 2333.613
468.1644, 2344.954
468.6465, 2361.037
469.1286, 2386.275
469.6107, 2412.677
470.0928, 2432.448
470.5750, 2445.458
471.0571, 2451.324
471.5392, 2446.932
472.0213, 2435.409
472.5034, 2431.056
472.9855, 2434.094
473.4677, 2443.411
473.9498, 2459.232
474.4319, 2481.253
474.9140, 2507.280
475.3961, 2538.272
475.8782, 2569.673
476.3604, 2594.977
476.8425, 2615.377
477.3246, 2635.004
477.8067, 2656.476
478.2888, 2678.072
478.7709, 2697.185
479.2531, 2714.022
479.7352, 2730.530
480.2173, 2746.216
480.6994, 2763.118
481.1815, 2783.414
481.6636, 2808.976
482.1457, 2835.456
482.6278, 2863.237
483.1100, 2890.036
483.5921, 2911.206
484.0742, 2924.705
484.5563, 2932.807
485.0384, 2936.078
485.5205, 2934.668
486.0027, 2927.613
486.4848, 2907.551
486.9669, 2887.242
487.4490, 2877.420
487.9311, 2886.357
488.4132, 2889.595
488.8954, 2886.295
489.3775, 2875.558
489.8596, 2852.499
490.3417, 2814.746
490.8238, 2774.988
491.3059, 2737.826
491.7881, 2703.671
492.2702, 2674.814
492.7523, 2652.212
493.2344, 2630.992
493.7165, 2608.502
494.1986, 2583.472
494.6808, 2550.798
495.1629, 2507.350
495.6450, 2457.992
496.1271, 2406.921
496.6092, 2355.230
497.0913, 2307.595
497.5735, 2267.912
498.0556, 2232.814
498.5377, 2202.650
499.0198, 2179.296
499.5019, 2148.317
499.9840, 2093.881
500.4662, 2030.688
500.9483, 1976.757
501.4304, 1939.233
501.9125, 1907.040
502.3946, 1881.164
502.8767, 1859.922
503.3589, 1832.942
503.8410, 1794.110
504.3231, 1755.424
504.8052, 1722.230
505.2873, 1694.261
505.7694, 1673.057
506.2516, 1662.519
506.7337, 1653.699
507.2158, 1632.670
507.6979, 1597.317
508.1800, 1564.606
508.6621, 1539.084
509.1443, 1519.269
509.6264, 1499.808
510.1085, 1480.731
510.5906, 1465.992
511.0727, 1463.993
511.5548, 1467.721
512.0369, 1460.146
512.5190, 1438.130
513.0012, 1412.319
513.4833, 1387.026
513.9654, 1365.497
514.4475, 1353.273
514.9296, 1364.111
515.4117, 1374.710
515.8939, 1369.638
516.3760, 1351.330
516.8581, 1335.172
517.3402, 1329.387
517.8223, 1324.835
518.3044, 1315.557
518.7866, 1294.668
519.2687, 1282.829
519.7508, 1287.944
520.2329, 1299.096
520.7150, 1302.195
521.1971, 1293.182
521.6793, 1284.581
522.1614, 1278.787
522.6435, 1275.388
523.1256, 1272.451
523.6077, 1270.316
524.0898, 1267.197
524.5720, 1261.855
525.0541, 1254.472
525.5362, 1245.181
526.0183, 1233.172
526.5004, 1222.967
526.9825, 1219.915
527.4647, 1223.126
527.9468, 1230.807
528.4289, 1249.195
528.9110, 1265.040
529.3931, 1259.366
529.8752, 1237.255
530.3574, 1220.351
530.8395, 1225.144
531.3216, 1236.214
531.8037, 1244.050
532.2858, 1248.211
532.7679, 1245.915
533.2501, 1227.311
533.7322, 1205.791
534.2143, 1195.972
534.6964, 1207.599
535.1785, 1220.596
535.6606, 1236.461
536.1428, 1252.432
536.6249, 1255.114
537.1070, 1237.956
537.5891, 1221.897
538.0712, 1218.518
538.5533, 1228.588
539.0355, 1230.943
539.5176, 1223.625
539.9997, 1216.045
540.4818, 1220.447
540.9639, 1234.437
541.4460, 1247.261
541.9282, 1256.568
542.4103, 1262.774
542.8924, 1264.748
543.3745, 1263.674
543.8566, 1263.631
544.3387, 1269.441
544.8209, 1275.369
545.3030, 1275.061
545.7851, 1267.685
546.2672, 1264.126
546.7493, 1273.538
547.2314, 1286.200
547.7136, 1294.183
548.1957, 1289.484
548.6778, 1288.244
549.1599, 1291.629
549.6420, 1299.274
550.1241, 1311.423
550.6063, 1332.801
551.0884, 1350.128
551.5705, 1358.416
552.0526, 1358.212
552.5347, 1360.687
553.0168, 1366.923
553.4990, 1371.597
553.9811, 1367.970
554.4632, 1357.761
554.9453, 1353.260
555.4274, 1356.153
555.9095, 1364.182
556.3917, 1376.736
556.8738, 1392.410
557.3559, 1407.606
557.8380, 1423.538
558.3201, 1436.292
558.8022, 1439.943
559.2844, 1436.336
559.7665, 1435.335
560.2486, 1448.382
560.7307, 1460.165
561.2128, 1460.234
561.6949, 1442.690
562.1771, 1427.673
562.6592, 1417.497
563.1413, 1411.088
563.6234, 1407.955
564.1055, 1410.528
564.5876, 1411.321
565.0698, 1408.596
565.5519, 1403.698
566.0340, 1402.174
566.5161, 1405.375
566.9982, 1404.570
567.4803, 1391.145
567.9625, 1369.139
568.4446, 1360.425
568.9267, 1365.669
569.4088, 1374.352
569.8909, 1381.613
570.3730, 1384.696
570.8552, 1376.421
571.3373, 1350.535
571.8194, 1324.798
572.3015, 1312.614
572.7836, 1309.756
573.2657, 1308.303
573.7479, 1306.289
574.2300, 1304.266
574.7121, 1303.460
575.1942, 1303.652
575.6763, 1300.504
576.1584, 1288.652
576.6405, 1278.214
577.1226, 1275.392
577.6047, 1286.393
578.0869, 1282.687
578.5690, 1256.818
579.0511, 1227.248
579.5332, 1219.832
580.0153, 1235.461
580.4974, 1246.601
580.9796, 1247.084
581.4617, 1240.023
581.9438, 1227.374
582.4259, 1210.650
582.9080, 1199.850
583.3901, 1206.760
583.8723, 1218.878
584.3544, 1220.407
584.8365, 1211.108
585.3186, 1202.605
585.8007, 1202.545
586.2828, 1205.642
586.7650, 1207.912
587.2471, 1210.379
587.7292, 1208.578
588.2113, 1197.702
588.6934, 1183.253
589.1755, 1173.717
589.6577, 1172.471
590.1398, 1170.327
590.6219, 1164.033
591.1040, 1155.471
591.5861, 1154.536
592.0682, 1162.606
592.5504, 1171.933
593.0325, 1180.025
593.5146, 1186.148
593.9967, 1185.395
594.4788, 1177.379
594.9609, 1165.494
595.4431, 1148.376
595.9252, 1130.447
596.4073, 1119.798
596.8894, 1119.529
597.3715, 1124.700
597.8536, 1136.822
598.3358, 1151.475
598.8179, 1160.149
599.3000, 1157.026
599.7821, 1150.647
600.2642, 1141.771
600.7463, 1130.782
601.2285, 1124.396
601.7106, 1125.147
602.1927, 1127.439
602.6748, 1128.739
603.1569, 1128.897
603.6390, 1128.975
604.1212, 1128.954
604.6033, 1128.882
605.0854, 1128.743
605.5675, 1128.558
606.0496, 1128.743
606.5317, 1129.759
607.0139, 1130.375
607.4960, 1127.716
607.9781, 1123.086
608.4602, 1120.307
608.9423, 1121.822
609.4244, 1125.345
609.9066, 1130.124
610.3887, 1135.797
610.8708, 1140.371
611.3529, 1142.750
611.8350, 1144.069
612.3171, 1145.401
612.7993, 1148.440
613.2814, 1146.503
613.7635, 1135.237
614.2456, 1123.050
614.7277, 1119.246
615.2098, 1126.208
615.6920, 1130.743
616.1741, 1130.745
616.6562, 1127.952
617.1383, 1125.584
617.6204, 1123.581
618.1025, 1121.145
618.5847, 1115.586
619.0668, 1110.770
619.5489, 1113.893
620.0310, 1123.889
620.5131, 1134.235
620.9952, 1143.486
621.4774, 1149.647
621.9595, 1149.783
622.4416, 1142.001
622.9237, 1136.319
623.4058, 1135.408
623.8879, 1137.690
624.3701, 1142.398
624.8522, 1157.693
625.3343, 1160.133
625.8164, 1141.283
626.2985, 1114.114
626.7806, 1105.278
627.2628, 1117.667
627.7449, 1128.181
628.2270, 1128.671
628.7091, 1122.681
629.1912, 1119.586
629.6733, 1119.178
630.1555, 1119.130
630.6376, 1119.316
631.1197, 1118.329
631.6018, 1112.508
632.0839, 1101.376
632.5660, 1094.333
633.0482, 1099.731
633.5303, 1109.746
634.0124, 1117.642
634.4945, 1122.899
634.9766, 1125.088
635.4587, 1123.142
635.9409, 1118.598
636.4230, 1112.571
636.9051, 1102.368
637.3872, 1097.807
637.8693, 1102.771
638.3514, 1113.395
638.8336, 1117.570
639.3157, 1115.162
639.7978, 1113.294
640.2799, 1118.764
640.7620, 1126.547
641.2441, 1123.974
641.7263, 1111.723
642.2084, 1100.983
642.6905, 1099.276
643.1726, 1102.813
643.6547, 1109.790
644.1368, 1122.476
644.6190, 1128.855
645.1011, 1119.097
645.5832, 1103.859
646.0653, 1094.515
646.5474, 1094.968
647.0295, 1095.382
647.5117, 1094.620
647.9938, 1093.693
648.4759, 1093.930
648.9580, 1094.747
649.4401, 1101.171
649.9222, 1119.494
650.4044, 1141.635
650.8865, 1143.001
651.3686, 1125.609
651.8507, 1109.335
652.3328, 1107.119
652.8149, 1112.697
653.2970, 1121.173
653.7791, 1132.355
654.2612, 1138.861
654.7433, 1134.150
655.2255, 1125.238
655.7076, 1116.495
656.1897, 1103.665
656.6718, 1101.554
657.1539, 1121.087
657.6360, 1143.897
658.1182, 1145.873
658.6003, 1118.735
659.0824, 1101.554
659.5645, 1102.579
660.0466, 1114.458
660.5287, 1125.013
661.0109, 1133.707
661.4930, 1134.559
661.9751, 1118.607
662.4572, 1097.467
662.9393, 1086.502
663.4214, 1084.714
663.9036, 1086.782
664.3857, 1093.802
664.8678, 1100.637
665.3499, 1103.816
665.8320, 1102.606
666.3141, 1100.760
666.7963, 1098.826
667.2784, 1096.386
667.7605, 1092.694
668.2426, 1085.824
668.7247, 1083.264
669.2068, 1086.173
669.6890, 1091.365
670.1711, 1095.665
670.6532, 1098.908
671.1353, 1099.082
671.6174, 1094.795
672.0995, 1089.086
672.5817, 1085.787
673.0638, 1084.405
673.5459, 1083.705
674.0280, 1083.278
674.5101, 1083.332
674.9922, 1084.312
675.4744, 1086.065
675.9565, 1087.594
676.4386, 1089.649
676.9207, 1090.485
677.4028, 1088.638
677.8849, 1083.733
678.3671, 1083.027
678.8492, 1088.362
679.3313, 1093.479
679.8134, 1092.244
680.2955, 1085.359
680.7776, 1083.674
681.2598, 1088.347
681.7419, 1093.960
682.2240, 1094.389
682.7061, 1091.893
683.1882, 1090.851
683.6703, 1093.682
684.1525, 1095.340
684.6346, 1091.406
685.1167, 1084.772
685.5988, 1079.929
686.0809, 1080.157
686.5630, 1079.590
687.0452, 1076.330
687.5273, 1071.709
688.0094, 1069.869
688.4915, 1071.047
688.9736, 1074.394
689.4557, 1080.819
689.9379, 1088.968
690.4200, 1092.721
690.9021, 1092.208
691.3842, 1090.876
691.8663, 1091.890
692.3484, 1093.089
692.8306, 1089.639
693.3127, 1081.143
693.7948, 1077.380
694.2769, 1091.152
694.7590, 1106.817
695.2411, 1111.591
695.7233, 1095.742
696.2054, 1087.185
696.6875, 1091.914
697.1696, 1100.292
697.6517, 1102.696
698.1339, 1097.875
698.6160, 1092.561
699.0981, 1086.324
699.5802, 1082.393
700.0623, 1089.722
700.5444, 1105.190
701.0266, 1114.371
701.5087, 1109.443
701.9908, 1099.770
702.4729, 1092.816
702.9550, 1088.585
703.4371, 1087.176
703.9193, 1092.040
704.4014, 1096.297
704.8835, 1097.527
705.3656, 1095.589
705.8477, 1091.037
706.3298, 1081.210
706.8120, 1072.941
707.2941, 1068.550
707.7762, 1068.036
708.2583, 1074.262
708.7404, 1088.282
709.2225, 1101.436
709.7047, 1106.916
710.1868, 1106.588
710.6689, 1103.642
711.1510, 1098.179
711.6331, 1093.612
712.1152, 1091.991
712.5974, 1092.767
713.0795, 1096.102
713.5616, 1106.471
714.0437, 1110.613
714.5258, 1099.874
715.0079, 1084.785
715.4901, 1077.007
715.9722, 1078.825
716.4543, 1081.481
716.9364, 1084.135
717.4185, 1086.737
717.9006, 1090.339
718.3828, 1094.479
718.8649, 1094.698
719.3470, 1085.810
719.8291, 1076.459
720.3112, 1080.585
720.7933, 1093.650
721.2755, 1102.310
721.7576, 1091.049
722.2397, 1082.938
722.7218, 1095.244
723.2039, 1125.296
723.6860, 1138.388
724.1682, 1122.644
724.6503, 1104.882
725.1324, 1095.449
725.6145, 1094.046
726.0966, 1090.781
726.5787, 1085.263
727.0609, 1081.082
727.5430, 1081.684
728.0251, 1085.593
728.5072, 1090.734
728.9893, 1097.158
729.4714, 1099.942
729.9535, 1091.744
730.4356, 1080.365
730.9177, 1072.917
731.3998, 1071.185
731.8820, 1072.048
732.3641, 1080.329
732.8462, 1087.595
733.3283, 1084.620
733.8104, 1064.944
734.2925, 1057.059
734.7747, 1066.013
735.2568, 1081.651
735.7389, 1089.466
736.2210, 1090.542
736.7031, 1090.841
737.1852, 1092.695
737.6674, 1093.077
738.1495, 1085.936
738.6316, 1075.348
739.1137, 1069.215
739.5958, 1074.661
740.0779, 1080.609
740.5601, 1082.933
741.0422, 1082.763
741.5243, 1084.812
742.0064, 1091.930
742.4885, 1095.181
742.9706, 1089.710
743.4528, 1078.825
743.9349, 1078.608
744.4170, 1088.952
744.8991, 1097.112
745.3812, 1092.894
745.8633, 1083.211
746.3455, 1077.082
746.8276, 1074.605
747.3097, 1075.296
747.7918, 1083.173
748.2739, 1090.647
748.7560, 1092.617
749.2382, 1087.760
749.7203, 1084.018
750.2024, 1084.258
750.6845, 1082.435
751.1666, 1074.309
751.6487, 1059.424
752.1309, 1042.351
752.6130, 1020.988
753.0951, 1009.495
753.5772, 1030.052
754.0593, 1068.215
754.5414, 1095.737
755.0236, 1107.945
755.5057, 1111.213
755.9878, 1102.265
756.4699, 1090.069
756.9520, 1083.665
757.4341, 1088.036
757.9163, 1093.110
758.3984, 1100.830
758.8805, 1106.820
759.3626, 1103.327
759.8447, 1087.232
760.3268, 1083.329
760.8090, 1097.860
761.2911, 1118.711
761.7732, 1130.600
762.2553, 1134.163
762.7374, 1130.312
763.2195, 1114.336
763.7017, 1099.080
764.1838, 1092.976
764.6659, 1094.146
765.1480, 1099.299
765.6301, 1114.727
766.1122, 1125.110
766.5944, 1125.477
767.0765, 1119.856
767.5586, 1119.340
768.0407, 1125.217
768.5228, 1129.296
769.0049, 1127.992
769.4871, 1124.135
769.9692, 1125.285
770.4513, 1130.008
770.9334, 1131.550
771.4155, 1122.334
771.8976, 1111.805
772.3798, 1107.413
772.8619, 1108.302
773.3440, 1109.654
773.8261, 1110.301
774.3082, 1111.245
774.7903, 1112.644
775.2725, 1114.571
775.7546, 1117.818
776.2367, 1122.665
776.7188, 1127.812
777.2009, 1134.604
777.6830, 1140.976
778.1652, 1137.127
778.6473, 1124.365
779.1294, 1117.158
779.6115, 1133.820
780.0936, 1154.012
780.5757, 1159.870
781.0579, 1149.399
781.5400, 1139.791
782.0221, 1135.355
782.5042, 1131.913
782.9863, 1126.951
783.4684, 1119.784
783.9506, 1118.980
784.4327, 1126.345
784.9148, 1132.118
785.3969, 1124.278
785.8790, 1109.015
786.3611, 1104.476
786.8433, 1112.516
787.3254, 1120.485
787.8075, 1115.423
788.2896, 1108.427
788.7717, 1111.198
789.2538, 1131.236
789.7360, 1141.377
790.2181, 1129.659
790.7002, 1115.974
791.1823, 1117.486
791.6644, 1138.050
792.1465, 1144.570
792.6287, 1132.989
793.1108, 1118.786
793.5929, 1122.460
794.0750, 1135.904
794.5571, 1138.943
795.0392, 1125.565
795.5214, 1113.588
796.0035, 1118.178
796.4856, 1128.118
796.9677, 1131.981
797.4498, 1121.721
797.9319, 1115.551
798.4141, 1116.029
798.8962, 1118.543
799.3783, 1117.183
799.8604, 1111.637
800.3425, 1109.975
800.8246, 1113.878
801.3068, 1119.370
801.7889, 1120.783
802.2710, 1120.286
802.7531, 1123.056
803.2352, 1134.768
803.7173, 1140.485
804.1995, 1125.549
804.6815, 1103.317
805.1636, 1091.965
805.6458, 1100.315
806.1279, 1104.213
806.6100, 1099.166
807.0921, 1092.803
807.5742, 1099.858
808.0563, 1118.734
808.5385, 1129.289
809.0206, 1125.774
809.5027, 1116.283
809.9848, 1104.235
810.4669, 1094.247
810.9490, 1093.976
811.4312, 1119.381
811.9133, 1137.175
812.3954, 1131.375
812.8775, 1114.754
813.3596, 1107.121
813.8417, 1112.333
814.3239, 1115.571
814.8060, 1114.415
815.2881, 1110.615
815.7702, 1105.553
816.2523, 1100.141
816.7344, 1098.904
817.2166, 1105.625
817.6987, 1112.698
818.1808, 1113.625
818.6629, 1110.313
819.1450, 1105.785
819.6271, 1099.288
820.1093, 1093.646
820.5914, 1089.231
821.0735, 1085.823
821.5556, 1082.882
822.0377, 1080.217
822.5198, 1079.612
823.0020, 1082.181
823.4841, 1085.476
823.9662, 1084.817
824.4483, 1081.747
824.9304, 1080.189
825.4125, 1083.520
825.8947, 1086.168
826.3768, 1083.867
826.8589, 1079.183
827.3410, 1077.354
827.8231, 1082.904
828.3052, 1083.296
828.7874, 1074.329
829.2695, 1062.057
829.7516, 1059.367
830.2337, 1065.475
830.7158, 1070.479
831.1979, 1072.273
831.6801, 1070.324
832.1622, 1059.688
832.6443, 1045.630
833.1264, 1037.775
833.6085, 1043.422
834.0906, 1050.967
834.5728, 1060.566
835.0549, 1069.345
835.5370, 1071.494
836.0191, 1064.391
836.5012, 1061.460
836.9833, 1066.188
837.4655, 1073.929
837.9476, 1077.894
838.4297, 1078.492
838.9118, 1076.728
839.3939, 1071.726
839.8760, 1066.563
840.3582, 1061.665
840.8403, 1058.365
841.3224, 1058.953
841.8045, 1070.756
842.2866, 1075.458
842.7687, 1068.116
843.2509, 1056.742
843.7330, 1054.908
844.2151, 1062.347
844.6972, 1070.531
845.1793, 1078.081
845.6614, 1084.126
846.1436, 1089.096
846.6257, 1091.435
847.1078, 1088.064
847.5899, 1070.998
848.0720, 1059.229
848.5541, 1064.157
849.0363, 1074.167
849.5184, 1075.559
850.0005, 1065.753
850.4826, 1056.737
850.9647, 1049.182
851.4468, 1044.238
851.9290, 1043.424
852.4111, 1046.535
852.8932, 1054.631
853.3753, 1070.806
853.8574, 1082.453
854.3395, 1076.923
854.8217, 1064.466
855.3038, 1056.146
855.7859, 1056.507
856.2680, 1056.350
856.7501, 1054.899
857.2322, 1054.002
857.7144, 1056.372
858.1965, 1061.625
858.6786, 1064.905
859.1607, 1065.269
859.6428, 1065.922
860.1249, 1070.147
860.6071, 1076.313
861.0892, 1083.488
861.5713, 1093.460
862.0534, 1097.615
862.5355, 1086.494
863.0176, 1074.523
863.4998, 1072.047
863.9819, 1081.153
864.4640, 1087.850
864.9461, 1092.069
865.4282, 1093.726
865.9103, 1092.323
866.3925, 1088.482
866.8746, 1082.070
867.3567, 1072.767
867.8388, 1066.753
868.3209, 1070.180
868.8030, 1075.672
869.2852, 1078.330
869.7673, 1077.861
870.2494, 1075.790
870.7315, 1071.268
871.2136, 1067.409
871.6957, 1066.009
872.1779, 1066.980
872.6600, 1070.181
873.1421, 1075.527
873.6242, 1082.277
874.1063, 1092.904
874.5884, 1102.335
875.0706, 1105.877
875.5527, 1103.282
876.0348, 1101.143
876.5169, 1102.352
876.9990, 1100.211
877.4811, 1089.534
877.9633, 1073.022
878.4454, 1069.156
878.9275, 1077.432
879.4096, 1085.374
879.8917, 1084.186
880.3738, 1080.394
880.8559, 1080.537
881.3380, 1083.985
881.8201, 1087.900
882.3022, 1091.500
882.7844, 1095.516
883.2665, 1101.792
883.7486, 1108.271
884.2307, 1106.578
884.7128, 1095.857
885.1949, 1087.753
885.6771, 1087.136
886.1592, 1090.286
886.6413, 1091.704
887.1234, 1092.480
887.6055, 1095.068
888.0876, 1103.172
888.5698, 1110.127
889.0519, 1114.805
889.5340, 1116.668
890.0161, 1114.656
890.4982, 1108.469
890.9803, 1098.582
891.4625, 1082.828
891.9446, 1068.798
892.4267, 1071.016
892.9088, 1083.721
893.3909, 1093.218
893.8730, 1094.906
894.3552, 1094.873
894.8373, 1095.906
895.3194, 1096.984
895.8015, 1096.770
896.2836, 1093.460
896.7657, 1093.360
897.2479, 1097.550
897.7300, 1102.630
898.2121, 1105.268
898.6942, 1105.838
899.1763, 1105.277
899.6584, 1103.690
900.1406, 1101.500
900.6227, 1099.330
901.1048, 1096.482
901.5869, 1091.372
902.0690, 1082.463
902.5511, 1079.197
903.0333, 1082.399
903.5154, 1089.914
903.9975, 1103.915
904.4796, 1122.108
904.9617, 1128.303
905.4438, 1123.045
905.9260, 1114.355
906.4081, 1102.073
906.8902, 1092.975
907.3723, 1096.281
907.8544, 1110.157
908.3365, 1116.407
908.8187, 1104.401
909.3008, 1097.379
909.7829, 1104.084
910.2650, 1119.640
910.7471, 1128.122
911.2292, 1129.682
911.7114, 1125.276
912.1935, 1109.017
912.6756, 1094.424
913.1577, 1099.141
913.6398, 1114.326
914.1219, 1121.958
914.6041, 1104.974
915.0862, 1097.319
915.5683, 1108.442
916.0504, 1125.814
916.5325, 1127.151
917.0146, 1113.300
917.4968, 1104.002
917.9789, 1103.422
918.4610, 1106.953
918.9431, 1112.165
919.4252, 1117.574
919.9073, 1121.502
920.3895, 1124.282
920.8716, 1123.307
921.3537, 1113.440
921.8358, 1104.829
922.3179, 1107.101
922.8000, 1120.849
923.2822, 1126.276
923.7643, 1122.306
924.2464, 1117.045
924.7285, 1116.582
925.2106, 1118.816
925.6927, 1122.181
926.1749, 1126.439
926.6570, 1129.240
927.1391, 1131.866
927.6212, 1130.356
928.1033, 1120.806
928.5854, 1105.380
929.0676, 1101.412
929.5497, 1109.019
930.0318, 1116.012
930.5139, 1114.577
930.9960, 1110.500
931.4781, 1111.254
931.9603, 1114.973
932.4424, 1116.708
932.9245, 1109.461
933.4066, 1107.341
933.8887, 1116.808
934.3708, 1130.133
934.8530, 1130.918
935.3351, 1118.938
935.8172, 1109.750
936.2993, 1106.619
936.7814, 1106.587
937.2635, 1106.335
937.7457, 1107.031
938.2278, 1111.089
938.7099, 1123.041
939.1920, 1128.537
939.6741, 1119.984
940.1563, 1110.265
940.6384, 1110.391
941.1205, 1120.646
941.6026, 1127.654
942.0847, 1131.052
942.5668, 1131.393
943.0490, 1125.391
943.5311, 1119.009
944.0132, 1121.020
944.4953, 1131.403
944.9774, 1136.063
945.4595, 1127.044
945.9417, 1117.004
946.4238, 1108.551
946.9059, 1102.474
947.3880, 1103.878
947.8701, 1112.275
948.3522, 1119.236
948.8344, 1119.173
949.3165, 1117.956
949.7986, 1122.535
950.2807, 1130.123
950.7628, 1134.792
951.2449, 1130.077
951.7271, 1129.751
952.2092, 1138.076
952.6913, 1147.868
953.1734, 1147.189
953.6555, 1137.265
954.1376, 1130.442
954.6198, 1129.040
955.1019, 1128.731
955.5840, 1123.923
956.0661, 1119.445
956.5482, 1120.805
957.0303, 1130.809
957.5124, 1138.990
957.9945, 1144.946
958.4766, 1148.743
958.9587, 1149.983
959.4409, 1148.984
959.9230, 1145.981
960.4051, 1141.546
960.8872, 1141.006
961.3693, 1152.429
961.8514, 1164.648
962.3336, 1170.953
962.8157, 1171.488
963.2978, 1168.099
963.7799, 1159.573
964.2620, 1150.006
964.7441, 1138.276
965.2263, 1128.951
965.7084, 1134.915
966.1905, 1150.898
966.6726, 1160.060
967.1547, 1154.365
967.6368, 1148.384
968.1190, 1151.612
968.6011, 1158.156
969.0832, 1161.429
969.5653, 1159.433
970.0474, 1159.477
970.5295, 1161.689
971.0117, 1165.474
971.4938, 1172.447
971.9759, 1179.888
972.4580, 1180.944
972.9401, 1175.731
973.4222, 1171.622
973.9044, 1172.996
974.3865, 1175.640
974.8686, 1177.888
975.3507, 1179.715
975.8328, 1181.032
976.3149, 1181.724
976.7971, 1182.738
977.2792, 1183.893
977.7613, 1186.324
978.2434, 1194.802
978.7255, 1205.198
979.2076, 1209.411
979.6898, 1198.765
980.1719, 1189.935
980.6540, 1185.366
981.1361, 1184.133
981.6182, 1187.164
982.1003, 1194.482
982.5825, 1193.755
983.0646, 1183.190
983.5467, 1176.461
984.0288, 1193.516
984.5109, 1215.251
984.9930, 1221.057
985.4752, 1208.435
985.9573, 1199.381
986.4394, 1197.394
986.9215, 1197.261
987.4036, 1196.184
987.8857, 1195.882
988.3679, 1206.153
988.8500, 1224.251
989.3321, 1235.203
989.8142, 1227.685
990.2963, 1216.397
990.7784, 1205.812
991.2606, 1199.335
991.7427, 1204.409
992.2248, 1229.343
992.7069, 1243.374
993.1890, 1242.773
993.6711, 1235.325
994.1533, 1226.341
994.6354, 1217.931
995.1175, 1215.272
995.5996, 1219.023
996.0817, 1225.855
996.5638, 1239.762
997.0460, 1250.891
997.5281, 1252.739
998.0102, 1246.328
998.4923, 1240.956
998.9744, 1236.175
999.4565, 1238.961
999.9387, 1260.432
1000.421, 1281.923
1000.903, 1270.977
1001.385, 1242.119
1001.867, 1226.910
1002.349, 1249.765
1002.831, 1267.165
1003.313, 1274.143
1003.796, 1273.867
1004.278, 1266.503
1004.760, 1253.627
1005.242, 1252.123
1005.724, 1264.291
1006.206, 1276.602
1006.688, 1278.290
1007.170, 1275.197
1007.653, 1269.726
1008.135, 1262.031
1008.617, 1263.447
1009.099, 1279.539
1009.581, 1289.936
1010.063, 1283.972
1010.545, 1269.346
1011.027, 1264.041
1011.509, 1265.072
1011.992, 1263.637
1012.474, 1250.058
1012.956, 1241.349
1013.438, 1249.378
1013.920, 1262.326
1014.402, 1264.951
1014.884, 1254.915
1015.366, 1254.385
1015.849, 1266.024
1016.331, 1277.568
1016.813, 1273.291
1017.295, 1265.092
1017.777, 1270.125
1018.259, 1289.011
1018.741, 1299.787
1019.223, 1291.257
1019.705, 1284.504
1020.188, 1287.940
1020.670, 1296.438
1021.152, 1291.486
1021.634, 1276.312
1022.116, 1268.291
1022.598, 1276.924
1023.080, 1288.229
1023.562, 1294.845
1024.044, 1297.820
1024.527, 1298.334
1025.009, 1295.536
1025.491, 1292.576
1025.973, 1288.734
1026.455, 1287.579
1026.937, 1294.595
1027.419, 1305.335
1027.901, 1313.961
1028.384, 1319.552
1028.866, 1317.609
1029.348, 1297.579
1029.830, 1279.967
1030.312, 1269.317
1030.794, 1266.157
1031.276, 1276.841
1031.758, 1300.024
1032.240, 1311.397
1032.723, 1301.794
1033.205, 1288.294
1033.687, 1284.042
1034.169, 1285.417
1034.651, 1289.230
1035.133, 1296.424
1035.615, 1301.451
1036.097, 1304.725
1036.579, 1304.403
1037.062, 1295.707
1037.544, 1283.490
1038.026, 1281.658
1038.508, 1287.955
1038.990, 1292.856
1039.472, 1289.119
1039.954, 1286.562
1040.436, 1289.955
1040.919, 1295.416
1041.401, 1295.650
1041.883, 1290.550
1042.365, 1290.157
1042.847, 1296.448
1043.329, 1304.692
1043.811, 1312.543
1044.293, 1318.726
1044.776, 1321.285
1045.258, 1319.570
1045.740, 1320.163
1046.222, 1327.248
1046.704, 1326.468
1047.186, 1306.080
1047.668, 1278.296
1048.150, 1275.809
1048.632, 1290.991
1049.115, 1301.319
1049.597, 1292.816
1050.079, 1284.906
1050.561, 1282.781
1051.043, 1285.536
1051.525, 1294.732
1052.007, 1311.335
1052.489, 1318.046
1052.971, 1313.792
1053.454, 1306.681
1053.936, 1302.545
1054.418, 1299.075
1054.900, 1291.375
1055.382, 1281.026
1055.864, 1282.059
1056.346, 1302.251
1056.828, 1316.382
1057.311, 1317.765
1057.793, 1311.544
1058.275, 1303.459
1058.757, 1295.301
1059.239, 1291.120
1059.721, 1292.305
1060.203, 1295.972
1060.685, 1308.564
1061.167, 1315.864
1061.650, 1304.575
1062.132, 1276.433
1062.614, 1276.469
1063.096, 1303.102
1063.578, 1323.241
1064.060, 1308.539
1064.542, 1288.189
1065.024, 1285.699
1065.506, 1294.296
1065.989, 1299.062
1066.471, 1297.128
1066.953, 1296.577
1067.435, 1298.617
1067.917, 1300.238
1068.399, 1294.786
1068.881, 1287.974
1069.363, 1292.871
1069.846, 1309.904
1070.328, 1321.651
1070.810, 1316.175
1071.292, 1310.724
1071.774, 1309.183
1072.256, 1312.255
1072.738, 1326.714
1073.220, 1349.833
1073.702, 1360.585
1074.185, 1349.807
1074.667, 1335.310
1075.149, 1327.672
1075.631, 1323.632
1076.113, 1319.014
1076.595, 1312.175
1077.077, 1316.612
1077.559, 1334.276
1078.042, 1349.769
1078.524, 1352.326
1079.006, 1347.948
1079.488, 1342.440
1079.970, 1336.633
1080.452, 1332.514
1080.934, 1326.968
1081.416, 1330.094
1081.898, 1346.258
1082.380, 1364.920
1082.863, 1373.435
1083.345, 1373.786
1083.827, 1370.213
1084.309, 1363.370
1084.791, 1360.548
1085.273, 1371.478
1085.755, 1381.244
1086.237, 1382.573
1086.720, 1377.428
1087.202, 1369.496
1087.684, 1359.092
1088.166, 1360.202
1088.648, 1380.859
1089.130, 1401.345
1089.612, 1401.832
1090.094, 1393.529
1090.577, 1388.219
1091.059, 1387.734
1091.541, 1387.287
1092.023, 1386.389
1092.505, 1387.632
1092.987, 1393.944
1093.469, 1402.200
1093.951, 1406.613
1094.433, 1408.608
1094.916, 1411.727
1095.398, 1423.113
1095.880, 1426.157
1096.362, 1415.073
1096.844, 1401.661
1097.326, 1399.756
1097.808, 1406.320
1098.290, 1406.657
1098.772, 1400.554
1099.255, 1399.141
1099.737, 1415.229
1100.219, 1430.536
1100.701, 1435.207
1101.183, 1433.184
1101.665, 1433.867
1102.147, 1437.312
1102.629, 1438.785
1103.112, 1436.721
1103.594, 1435.458
1104.076, 1442.282
1104.558, 1449.638
1105.040, 1449.270
1105.522, 1439.629
1106.004, 1431.087
1106.486, 1421.924
1106.969, 1421.474
1107.451, 1438.285
1107.933, 1459.949
1108.415, 1465.552
1108.897, 1461.508
1109.379, 1459.928
1109.861, 1471.052
1110.343, 1470.060
1110.825, 1448.452
1111.307, 1427.780
1111.790, 1428.365
1112.272, 1443.529
1112.754, 1450.595
1113.236, 1450.261
1113.718, 1448.042
1114.200, 1445.207
1114.682, 1442.573
1115.164, 1439.510
1115.647, 1437.392
1116.129, 1439.744
1116.611, 1445.998
1117.093, 1446.664
1117.575, 1440.595
1118.057, 1434.022
1118.539, 1430.820
1119.021, 1429.457
1119.504, 1429.425
1119.986, 1430.406
1120.468, 1431.519
1120.950, 1432.967
1121.432, 1432.202
1121.914, 1427.099
1122.396, 1424.687
1122.878, 1437.565
1123.360, 1455.006
1123.843, 1463.757
1124.325, 1459.503
1124.807, 1458.607
1125.289, 1463.227
1125.771, 1464.826
1126.253, 1457.026
1126.735, 1446.118
1127.217, 1442.216
1127.699, 1444.608
1128.182, 1452.317
1128.664, 1473.682
1129.146, 1484.113
1129.628, 1478.366
1130.110, 1466.932
1130.592, 1454.378
1131.074, 1443.029
1131.556, 1446.378
1132.039, 1461.339
1132.521, 1470.073
1133.003, 1450.311
1133.485, 1440.954
1133.967, 1466.071
1134.449, 1497.908
1134.931, 1495.923
1135.413, 1463.715
1135.896, 1445.751
1136.378, 1445.982
1136.860, 1450.881
1137.342, 1453.268
1137.824, 1455.241
1138.306, 1459.998
1138.788, 1457.013
1139.270, 1462.078
1139.752, 1450.356
1140.234, 1440.120
1140.717, 1433.548
1141.199, 1428.986
1141.681, 1424.747
1142.163, 1421.883
1142.645, 1421.739
1143.127, 1424.516
1143.609, 1428.767
1144.091, 1435.534
1144.574, 1438.563
1145.056, 1434.671
1145.538, 1427.644
1146.020, 1419.295
1146.502, 1412.568
1146.984, 1412.958
1147.466, 1426.392
1147.948, 1432.459
1148.430, 1428.284
1148.913, 1424.056
1149.395, 1427.263
1149.877, 1433.533
1150.359, 1433.297
1150.841, 1428.751
1151.323, 1425.358
1151.805, 1427.489
1152.287, 1426.639
1152.770, 1420.220
1153.252, 1414.037
1153.734, 1414.213
1154.216, 1418.770
1154.698, 1422.344
1155.180, 1424.464
1155.662, 1423.523
1156.144, 1415.635
1156.626, 1408.545
1157.109, 1402.979
1157.591, 1400.443
1158.073, 1405.853
1158.555, 1416.683
1159.037, 1418.514
1159.519, 1410.172
1160.001, 1404.751
1160.483, 1416.846
1160.965, 1425.805
1161.448, 1420.231
1161.930, 1405.964
1162.412, 1396.011
1162.894, 1390.231
1163.376, 1388.448
1163.858, 1391.626
1164.340, 1391.874
1164.822, 1379.360
1165.305, 1365.582
1165.787, 1357.586
1166.269, 1355.337
1166.751, 1360.680
1167.233, 1373.536
1167.715, 1383.855
1168.197, 1389.065
1168.679, 1388.793
1169.161, 1377.180
1169.644, 1363.544
1170.126, 1358.799
1170.608, 1363.621
1171.090, 1363.775
1171.572, 1358.535
1172.054, 1358.341
1172.536, 1371.759
1173.018, 1387.475
1173.500, 1396.416
1173.983, 1399.409
1174.465, 1397.273
1174.947, 1389.849
1175.429, 1378.442
1175.911, 1362.037
1176.393, 1348.455
1176.875, 1342.316
1177.357, 1342.438
1177.840, 1352.272
1178.322, 1366.691
1178.804, 1373.565
1179.286, 1370.695
1179.768, 1360.144
1180.250, 1339.084
1180.732, 1323.364
1181.214, 1334.604
1181.697, 1355.166
1182.179, 1360.775
1182.661, 1353.816
1183.143, 1348.193
1183.625, 1345.087
1184.107, 1347.583
1184.589, 1359.040
1185.071, 1366.983
1185.553, 1350.087
1186.036, 1323.974
1186.518, 1314.391
1187.000, 1321.971
1187.482, 1331.016
1187.964, 1344.994
1188.446, 1345.173
1188.928, 1322.062
1189.410, 1296.598
1189.892, 1304.073
1190.375, 1329.404
1190.857, 1346.144
1191.339, 1350.871
1191.821, 1349.193
1192.303, 1340.307
1192.785, 1328.650
1193.267, 1313.789
1193.749, 1299.428
1194.232, 1292.440
1194.714, 1291.324
1195.196, 1293.932
1195.678, 1300.836
1196.160, 1304.850
1196.642, 1303.773
1197.124, 1300.410
1197.606, 1294.565
1198.089, 1288.443
1198.571, 1286.824
1199.053, 1289.261
1199.535, 1295.826
1200.017, 1309.401
1200.499, 1317.250
1200.981, 1314.314
1201.463, 1309.306
1201.945, 1306.952
1202.427, 1305.709
1202.910, 1299.656
1203.392, 1291.112
1203.874, 1286.593
1204.356, 1291.152
1204.838, 1294.142
1205.320, 1293.482
1205.802, 1290.854
1206.284, 1285.110
1206.767, 1278.858
1207.249, 1284.127
1207.731, 1297.301
1208.213, 1306.641
1208.695, 1304.395
1209.177, 1301.665
1209.659, 1300.265
1210.141, 1299.032
1210.624, 1298.444
1211.106, 1297.087
1211.588, 1285.255
1212.070, 1266.930
1212.552, 1258.476
1213.034, 1281.808
1213.516, 1294.506
1213.998, 1284.687
1214.480, 1269.826
1214.963, 1268.932
1215.445, 1277.297
1215.927, 1279.185
1216.409, 1275.031
1216.891, 1270.820
1217.373, 1270.691
1217.855, 1268.332
1218.337, 1261.295
1218.819, 1253.713
1219.302, 1250.226
1219.784, 1250.294
1220.266, 1253.479
1220.748, 1259.244
1221.230, 1263.652
1221.712, 1265.177
1222.194, 1264.378
1222.676, 1259.554
1223.158, 1255.516
1223.641, 1261.517
1224.123, 1273.062
1224.605, 1278.198
1225.087, 1276.371
1225.569, 1276.132
1226.051, 1287.417
1226.533, 1289.879
1227.015, 1274.461
1227.498, 1256.489
1227.980, 1265.701
1228.462, 1288.568
1228.944, 1294.073
1229.426, 1278.795
1229.908, 1266.436
1230.390, 1262.484
1230.872, 1265.522
1231.354, 1278.247
1231.837, 1292.407
1232.319, 1292.837
1232.801, 1285.042
1233.283, 1278.287
1233.765, 1273.834
1234.247, 1273.437
1234.729, 1279.982
1235.211, 1285.145
1235.693, 1286.747
1236.176, 1285.306
1236.658, 1277.929
1237.140, 1269.677
1237.622, 1270.880
1238.104, 1284.512
1238.586, 1292.703
1239.068, 1291.625
1239.550, 1291.356
1240.033, 1297.120
1240.515, 1301.699
1240.997, 1288.167
1241.479, 1268.469
1241.961, 1262.089
1242.443, 1274.958
1242.925, 1281.955
1243.407, 1279.829
1243.890, 1279.414
1244.372, 1285.693
1244.854, 1293.748
1245.336, 1296.026
1245.818, 1295.667
1246.300, 1297.713
1246.782, 1295.714
1247.264, 1290.936
1247.746, 1290.700
1248.229, 1280.144
1248.711, 1275.598
1249.193, 1274.381
1249.675, 1275.045
1250.157, 1276.102
1250.639, 1273.953
1251.121, 1281.667
1251.603, 1273.685
1252.085, 1295.548
1252.568, 1313.333
1253.050, 1318.734
1253.532, 1316.229
1254.014, 1305.030
1254.496, 1291.235
1254.978, 1281.123
1255.460, 1274.626
1255.942, 1276.358
1256.425, 1286.225
1256.907, 1293.931
1257.389, 1293.370
1257.871, 1291.924
1258.353, 1298.984
1258.835, 1304.817
1259.317, 1297.647
1259.799, 1277.809
1260.281, 1272.396
1260.764, 1280.006
1261.246, 1286.599
1261.728, 1285.248
1262.210, 1282.565
1262.692, 1281.760
1263.174, 1281.587
1263.656, 1280.500
1264.138, 1278.997
1264.620, 1281.399
1265.103, 1287.441
1265.585, 1296.123
1266.067, 1311.547
1266.549, 1321.222
1267.031, 1317.277
1267.513, 1309.542
1267.995, 1302.729
1268.477, 1297.562
1268.960, 1298.594
1269.442, 1304.086
1269.924, 1308.114
1270.406, 1307.643
1270.888, 1306.629
1271.370, 1304.826
1271.852, 1304.287
1272.334, 1308.517
1272.817, 1313.913
1273.299, 1307.336
1273.781, 1294.966
1274.263, 1292.209
1274.745, 1314.257
1275.227, 1326.721
1275.709, 1327.689
1276.191, 1321.640
1276.673, 1306.382
1277.156, 1290.322
1277.638, 1288.282
1278.120, 1295.033
1278.602, 1300.556
1279.084, 1304.164
1279.566, 1301.956
1280.048, 1292.276
1280.530, 1287.200
1281.012, 1298.281
1281.495, 1313.446
1281.977, 1324.206
1282.459, 1328.698
1282.941, 1322.409
1283.423, 1302.846
1283.905, 1289.294
1284.387, 1281.682
1284.869, 1276.768
1285.352, 1271.365
1285.834, 1269.642
1286.316, 1276.669
1286.798, 1287.572
1287.280, 1297.647
1287.762, 1306.890
1288.244, 1310.248
1288.726, 1308.289
1289.208, 1305.185
1289.691, 1299.366
1290.173, 1298.244
1290.655, 1310.921
1291.137, 1323.611
1291.619, 1325.052
1292.101, 1317.566
1292.583, 1314.322
1293.065, 1314.545
##END=



