##NAMES=Okenite
##RRUFFID=R070602
##IDEAL CHEMISTRY=Ca_5_Si_9_O_23_&#183;9H_2_O
##LOCALITY=Poona, Maharashtra, India
##OWNER=RRUFF
##SOURCE=James Shigley
##DESCRIPTION=Mass of radiating white fibers
##STATUS=The identification of this mineral has been confirmed by single-crystal X-ray diffraction.
##URL=rruff.info/R070602
97.08893, 3171.311
97.57104, 3281.065
98.05316, 3398.581
98.53528, 3523.383
99.01740, 3653.646
99.49951, 3786.398
99.98163, 3931.208
100.4637, 4063.987
100.9459, 4173.714
101.4280, 4266.343
101.9101, 4358.615
102.3922, 4460.153
102.8743, 4445.246
103.3564, 4421.909
103.8386, 4388.150
104.3207, 4349.114
104.8028, 4303.283
105.2849, 4246.821
105.7670, 4203.762
106.2491, 4205.482
106.7313, 4227.537
107.2134, 4233.915
107.6955, 4204.099
108.1776, 4145.198
108.6597, 4085.746
109.1418, 4025.150
109.6240, 3963.534
110.1061, 3894.575
110.5882, 3822.239
111.0703, 3759.133
111.5524, 3719.209
112.0345, 3707.232
112.5167, 3697.682
112.9988, 3698.920
113.4809, 3695.416
113.9630, 3671.676
114.4451, 3625.728
114.9272, 3574.145
115.4094, 3550.621
115.8915, 3585.597
116.3736, 3610.532
116.8557, 3619.891
117.3378, 3618.813
117.8199, 3612.653
118.3021, 3604.050
118.7842, 3593.034
119.2663, 3579.711
119.7484, 3558.302
120.2305, 3540.493
120.7127, 3527.808
121.1948, 3521.309
121.6769, 3525.351
122.1590, 3547.518
122.6411, 3587.406
123.1232, 3609.704
123.6054, 3606.219
124.0875, 3589.789
124.5696, 3568.778
125.0517, 3542.803
125.5338, 3519.706
126.0159, 3509.268
126.4981, 3509.033
126.9802, 3511.927
127.4623, 3518.932
127.9444, 3527.640
128.4265, 3529.621
128.9086, 3518.179
129.3907, 3505.599
129.8729, 3504.328
130.3550, 3514.447
130.8371, 3523.358
131.3192, 3517.403
131.8013, 3493.723
132.2834, 3475.744
132.7656, 3474.723
133.2477, 3477.632
133.7298, 3477.511
134.2119, 3472.333
134.6940, 3462.771
135.1761, 3449.021
135.6583, 3425.594
136.1404, 3407.874
136.6225, 3400.065
137.1046, 3397.764
137.5867, 3396.834
138.0688, 3395.101
138.5510, 3392.680
139.0331, 3390.211
139.5152, 3399.090
139.9973, 3396.188
140.4794, 3368.148
140.9615, 3323.816
141.4437, 3281.116
141.9258, 3253.800
142.4079, 3243.332
142.8900, 3238.299
143.3721, 3246.472
143.8542, 3252.743
144.3364, 3245.735
144.8185, 3225.851
145.3006, 3205.523
145.7827, 3200.505
146.2648, 3218.656
146.7469, 3218.796
147.2291, 3180.979
147.7112, 3131.992
148.1933, 3102.894
148.6754, 3102.881
149.1575, 3116.193
149.6396, 3120.359
150.1218, 3115.996
150.6039, 3107.444
151.0860, 3090.071
151.5681, 3068.605
152.0502, 3058.470
152.5324, 3070.397
153.0145, 3090.218
153.4966, 3096.945
153.9787, 3087.488
154.4608, 3075.311
154.9429, 3072.279
155.4251, 3078.916
155.9072, 3082.742
156.3893, 3076.866
156.8714, 3066.671
157.3535, 3055.872
157.8356, 3044.543
158.3178, 3034.715
158.7999, 3029.772
159.2820, 3030.729
159.7641, 3034.497
160.2462, 3043.463
160.7283, 3053.276
161.2105, 3057.821
161.6926, 3052.046
162.1747, 3040.134
162.6568, 3040.265
163.1389, 3060.297
163.6210, 3084.228
164.1032, 3111.045
164.5853, 3138.270
165.0674, 3162.581
165.5495, 3181.505
166.0316, 3195.075
166.5137, 3204.373
166.9959, 3201.548
167.4780, 3201.729
167.9601, 3213.894
168.4422, 3234.986
168.9243, 3254.334
169.4064, 3259.968
169.8886, 3245.779
170.3707, 3241.734
170.8528, 3246.044
171.3349, 3259.358
171.8170, 3289.290
172.2991, 3333.987
172.7813, 3376.756
173.2634, 3394.222
173.7455, 3364.419
174.2276, 3354.520
174.7097, 3381.729
175.1918, 3420.703
175.6740, 3442.736
176.1561, 3438.471
176.6382, 3427.345
177.1203, 3449.112
177.6024, 3520.887
178.0845, 3580.408
178.5667, 3612.436
179.0488, 3624.678
179.5309, 3630.141
180.0130, 3633.194
180.4951, 3632.438
180.9772, 3623.899
181.4594, 3602.919
181.9415, 3585.245
182.4236, 3585.574
182.9057, 3598.394
183.3878, 3597.811
183.8699, 3566.741
184.3521, 3518.234
184.8342, 3480.823
185.3163, 3460.582
185.7984, 3443.240
186.2805, 3418.237
186.7626, 3385.534
187.2448, 3348.135
187.7269, 3303.947
188.2090, 3257.272
188.6911, 3213.859
189.1732, 3176.388
189.6553, 3141.335
190.1375, 3103.914
190.6196, 3063.330
191.1017, 3022.794
191.5838, 2977.197
192.0659, 2933.949
192.5480, 2903.292
193.0302, 2894.027
193.5123, 2897.972
193.9944, 2894.831
194.4765, 2883.896
194.9586, 2866.099
195.4408, 2834.263
195.9229, 2797.966
196.4050, 2773.277
196.8871, 2774.095
197.3692, 2795.360
197.8513, 2802.952
198.3335, 2783.549
198.8156, 2764.559
199.2977, 2751.372
199.7798, 2745.285
200.2619, 2748.254
200.7440, 2764.809
201.2262, 2795.667
201.7083, 2815.429
202.1904, 2812.019
202.6725, 2807.423
203.1546, 2804.312
203.6367, 2805.152
204.1189, 2814.187
204.6010, 2837.847
205.0831, 2881.358
205.5652, 2910.415
206.0473, 2904.606
206.5294, 2903.365
207.0116, 2933.539
207.4937, 2990.687
207.9758, 3045.820
208.4579, 3064.628
208.9400, 3030.998
209.4221, 3010.662
209.9043, 3009.488
210.3864, 3014.422
210.8685, 3018.819
211.3506, 3021.103
211.8327, 3022.213
212.3148, 3023.370
212.7970, 3024.934
213.2791, 3025.531
213.7612, 3018.486
214.2433, 3014.433
214.7254, 3023.381
215.2075, 3047.239
215.6897, 3078.967
216.1718, 3108.706
216.6539, 3140.399
217.1360, 3160.771
217.6181, 3160.553
218.1002, 3152.735
218.5824, 3152.000
219.0645, 3162.850
219.5466, 3176.977
220.0287, 3180.088
220.5108, 3170.592
220.9929, 3154.185
221.4751, 3128.316
221.9572, 3096.792
222.4393, 3065.406
222.9214, 3036.326
223.4035, 3006.176
223.8856, 2965.271
224.3678, 2905.445
224.8499, 2857.767
225.3320, 2838.113
225.8141, 2834.758
226.2962, 2826.726
226.7783, 2807.310
227.2605, 2778.785
227.7426, 2743.288
228.2247, 2697.412
228.7068, 2655.524
229.1889, 2623.337
229.6710, 2599.417
230.1532, 2580.761
230.6353, 2568.107
231.1174, 2558.116
231.5995, 2544.173
232.0816, 2524.475
232.5637, 2506.443
233.0459, 2491.700
233.5280, 2481.129
234.0101, 2479.829
234.4922, 2495.480
234.9743, 2515.774
235.4564, 2521.633
235.9386, 2511.332
236.4207, 2492.860
236.9028, 2463.937
237.3849, 2427.526
237.8670, 2404.392
238.3491, 2410.067
238.8313, 2427.099
239.3134, 2429.094
239.7955, 2411.287
240.2776, 2390.365
240.7597, 2379.606
241.2418, 2378.308
241.7240, 2375.223
242.2061, 2362.395
242.6882, 2348.892
243.1703, 2346.198
243.6524, 2357.598
244.1345, 2371.963
244.6167, 2380.556
245.0988, 2383.355
245.5809, 2382.469
246.0630, 2373.748
246.5451, 2364.725
247.0272, 2364.772
247.5094, 2377.483
247.9915, 2389.956
248.4736, 2386.097
248.9557, 2364.325
249.4378, 2349.451
249.9199, 2358.091
250.4021, 2372.248
250.8842, 2374.302
251.3663, 2359.346
251.8484, 2342.372
252.3305, 2341.263
252.8126, 2358.195
253.2948, 2372.273
253.7769, 2377.710
254.2590, 2376.920
254.7411, 2369.521
255.2232, 2354.524
255.7053, 2338.833
256.1875, 2330.090
256.6696, 2328.818
257.1517, 2330.903
257.6338, 2342.733
258.1159, 2353.257
258.5981, 2352.042
259.0802, 2336.060
259.5623, 2317.540
260.0444, 2311.866
260.5265, 2321.143
261.0086, 2330.739
261.4908, 2340.104
261.9729, 2346.540
262.4550, 2347.858
262.9371, 2343.538
263.4192, 2335.035
263.9013, 2322.666
264.3835, 2305.419
264.8656, 2290.008
265.3477, 2277.358
265.8298, 2267.573
266.3119, 2263.072
266.7940, 2264.277
267.2762, 2264.527
267.7583, 2255.726
268.2404, 2236.785
268.7225, 2214.722
269.2046, 2183.189
269.6867, 2153.750
270.1689, 2133.534
270.6510, 2123.778
271.1331, 2120.695
271.6152, 2122.637
272.0973, 2131.625
272.5794, 2134.262
273.0616, 2118.478
273.5437, 2102.290
274.0258, 2097.949
274.5079, 2106.439
274.9900, 2115.915
275.4721, 2111.993
275.9543, 2092.055
276.4364, 2075.513
276.9185, 2069.777
277.4006, 2064.486
277.8827, 2051.943
278.3648, 2032.438
278.8470, 2015.484
279.3291, 2012.590
279.8112, 2025.770
280.2933, 2036.058
280.7754, 2037.843
281.2575, 2039.374
281.7397, 2048.705
282.2218, 2064.122
282.7039, 2073.258
283.1860, 2057.683
283.6681, 2014.285
284.1502, 1990.036
284.6324, 2002.464
285.1145, 2022.740
285.5966, 2040.300
286.0787, 2053.876
286.5608, 2063.844
287.0429, 2066.832
287.5251, 2062.507
288.0072, 2069.489
288.4893, 2100.067
288.9714, 2130.425
289.4535, 2151.047
289.9356, 2162.253
290.4178, 2167.020
290.8999, 2163.051
291.3820, 2151.407
291.8641, 2152.159
292.3462, 2175.484
292.8283, 2199.836
293.3105, 2217.876
293.7926, 2229.577
294.2747, 2235.883
294.7568, 2236.455
295.2389, 2231.927
295.7210, 2225.568
296.2032, 2214.462
296.6853, 2205.814
297.1674, 2204.749
297.6495, 2207.876
298.1316, 2208.384
298.6137, 2200.036
299.0959, 2186.834
299.5780, 2185.160
300.0601, 2205.424
300.5422, 2218.290
301.0243, 2207.180
301.5064, 2183.256
301.9886, 2162.528
302.4707, 2153.423
302.9528, 2151.254
303.4349, 2144.606
303.9170, 2130.506
304.3991, 2119.191
304.8813, 2117.921
305.3634, 2120.426
305.8455, 2120.081
306.3276, 2115.076
306.8097, 2105.098
307.2918, 2087.125
307.7740, 2057.612
308.2561, 2032.993
308.7382, 2024.037
309.2203, 2020.986
309.7024, 2015.897
310.1845, 2006.841
310.6667, 1994.794
311.1488, 1979.582
311.6309, 1960.470
312.1130, 1943.768
312.5951, 1933.680
313.0772, 1925.526
313.5594, 1914.002
314.0415, 1897.541
314.5236, 1883.349
315.0057, 1881.017
315.4878, 1890.319
315.9699, 1894.536
316.4521, 1884.917
316.9342, 1872.443
317.4163, 1867.226
317.8984, 1869.939
318.3805, 1875.116
318.8626, 1881.617
319.3448, 1888.352
319.8269, 1887.447
320.3090, 1871.487
320.7911, 1855.502
321.2732, 1856.457
321.7553, 1872.963
322.2375, 1885.372
322.7196, 1879.681
323.2017, 1862.200
323.6838, 1850.525
324.1659, 1847.636
324.6480, 1849.088
325.1302, 1851.958
325.6123, 1855.975
326.0944, 1860.234
326.5765, 1861.064
327.0586, 1863.009
327.5407, 1876.971
328.0229, 1906.728
328.5050, 1932.618
328.9871, 1933.575
329.4692, 1916.875
329.9513, 1906.356
330.4334, 1906.595
330.9156, 1914.834
331.3977, 1930.718
331.8798, 1954.233
332.3619, 1977.944
332.8440, 1997.738
333.3261, 2013.857
333.8083, 2028.836
334.2904, 2047.735
334.7725, 2060.942
335.2546, 2055.921
335.7367, 2037.130
336.2188, 2027.841
336.7010, 2043.696
337.1831, 2073.979
337.6652, 2085.908
338.1473, 2064.382
338.6294, 2048.982
339.1115, 2062.017
339.5937, 2092.260
340.0758, 2115.021
340.5579, 2120.410
341.0400, 2115.416
341.5221, 2114.763
342.0042, 2122.162
342.4864, 2124.941
342.9685, 2118.708
343.4506, 2107.337
343.9327, 2094.392
344.4148, 2080.820
344.8969, 2068.801
345.3791, 2062.064
345.8612, 2064.719
346.3433, 2061.821
346.8254, 2045.383
347.3075, 2028.640
347.7896, 2023.566
348.2718, 2030.745
348.7539, 2041.374
349.2360, 2047.528
349.7181, 2049.371
350.2002, 2043.782
350.6823, 2026.058
351.1645, 2006.578
351.6466, 1987.721
352.1287, 1971.116
352.6108, 1960.586
353.0929, 1960.040
353.5750, 1968.534
354.0572, 1967.518
354.5393, 1945.386
355.0214, 1926.739
355.5035, 1919.000
355.9856, 1917.861
356.4677, 1916.512
356.9499, 1911.450
357.4320, 1903.455
357.9141, 1895.128
358.3962, 1887.926
358.8783, 1878.015
359.3604, 1861.992
359.8426, 1844.844
360.3247, 1830.027
360.8068, 1818.969
361.2889, 1812.765
361.7710, 1817.186
362.2531, 1844.130
362.7353, 1848.983
363.2174, 1804.000
363.6995, 1755.925
364.1816, 1734.744
364.6637, 1742.247
365.1458, 1757.927
365.6280, 1761.907
366.1101, 1753.364
366.5922, 1744.534
367.0743, 1735.753
367.5564, 1726.529
368.0385, 1715.180
368.5207, 1702.991
369.0028, 1693.431
369.4849, 1688.445
369.9670, 1687.830
370.4491, 1691.646
370.9312, 1702.435
371.4134, 1712.460
371.8955, 1717.738
372.3776, 1719.920
372.8597, 1720.329
373.3418, 1716.120
373.8239, 1714.544
374.3061, 1729.682
374.7882, 1763.837
375.2703, 1792.197
375.7524, 1802.371
376.2345, 1801.884
376.7166, 1798.860
377.1988, 1790.740
377.6809, 1789.543
378.1630, 1810.587
378.6451, 1847.726
379.1272, 1873.164
379.6093, 1874.427
380.0915, 1868.856
380.5736, 1881.477
381.0557, 1912.964
381.5378, 1944.586
382.0199, 1974.594
382.5020, 1999.718
382.9842, 2010.544
383.4663, 2004.553
383.9484, 2001.450
384.4305, 2022.883
384.9126, 2071.684
385.3947, 2109.786
385.8769, 2132.614
386.3590, 2147.666
386.8411, 2159.108
387.3232, 2167.271
387.8053, 2171.019
388.2874, 2168.632
388.7696, 2161.305
389.2517, 2159.012
389.7338, 2168.494
390.2159, 2174.383
390.6980, 2169.353
391.1801, 2159.069
391.6623, 2153.081
392.1444, 2155.535
392.6265, 2161.417
393.1086, 2159.542
393.5907, 2141.663
394.0728, 2128.150
394.5550, 2124.004
395.0371, 2120.826
395.5192, 2109.186
396.0013, 2089.246
396.4834, 2072.005
396.9655, 2073.623
397.4477, 2101.159
397.9298, 2109.517
398.4119, 2079.061
398.8940, 2047.251
399.3761, 2030.085
399.8582, 2023.017
400.3404, 2012.265
400.8225, 1987.460
401.3046, 1952.032
401.7867, 1921.798
402.2688, 1898.071
402.7509, 1877.545
403.2331, 1859.989
403.7152, 1844.114
404.1973, 1828.057
404.6794, 1810.638
405.1615, 1794.605
405.6436, 1783.932
406.1258, 1778.851
406.6079, 1775.592
407.0900, 1775.309
407.5721, 1774.578
408.0542, 1771.153
408.5363, 1765.028
409.0185, 1754.078
409.5006, 1731.153
409.9827, 1702.528
410.4648, 1686.185
410.9469, 1686.801
411.4290, 1693.192
411.9112, 1697.952
412.3933, 1700.644
412.8754, 1696.292
413.3575, 1678.669
413.8396, 1657.481
414.3217, 1639.579
414.8039, 1625.501
415.2860, 1616.449
415.7681, 1614.293
416.2502, 1617.393
416.7323, 1617.437
417.2144, 1608.627
417.6966, 1604.060
418.1787, 1610.122
418.6608, 1621.890
419.1429, 1633.329
419.6250, 1642.429
420.1071, 1647.324
420.5893, 1644.361
421.0714, 1627.457
421.5535, 1614.995
422.0356, 1607.915
422.5177, 1604.087
422.9998, 1602.476
423.4820, 1602.790
423.9641, 1605.232
424.4462, 1610.860
424.9283, 1619.742
425.4104, 1622.713
425.8925, 1615.849
426.3747, 1606.963
426.8568, 1595.312
427.3389, 1583.585
427.8210, 1576.196
428.3031, 1575.835
428.7852, 1578.492
429.2674, 1574.882
429.7495, 1561.975
430.2316, 1553.526
430.7137, 1559.085
431.1958, 1566.874
431.6779, 1567.698
432.1601, 1560.366
432.6422, 1553.241
433.1243, 1555.788
433.6064, 1564.857
434.0885, 1563.761
434.5706, 1544.453
435.0528, 1527.380
435.5349, 1536.045
436.0170, 1562.713
436.4991, 1581.452
436.9812, 1577.681
437.4633, 1568.387
437.9455, 1571.890
438.4276, 1587.166
438.9097, 1600.637
439.3918, 1604.882
439.8739, 1602.056
440.3560, 1599.569
440.8382, 1597.896
441.3203, 1595.822
441.8024, 1592.756
442.2845, 1589.211
442.7666, 1585.564
443.2487, 1581.984
443.7309, 1578.369
444.2130, 1571.768
444.6951, 1550.730
445.1772, 1568.094
445.6593, 1652.418
446.1414, 1743.584
446.6236, 1818.759
447.1057, 1873.691
447.5878, 1907.077
448.0699, 1916.167
448.5520, 1904.740
449.0341, 1896.305
449.5163, 1917.077
449.9984, 1897.066
450.4805, 1791.225
450.9626, 1658.791
451.4447, 1557.757
451.9268, 1505.379
452.4090, 1480.701
452.8911, 1464.771
453.3732, 1458.076
453.8553, 1443.791
454.3374, 1409.415
454.8195, 1368.637
455.3017, 1382.752
455.7838, 1390.598
456.2659, 1392.512
456.7480, 1370.726
457.2301, 1379.544
457.7122, 1376.097
458.1944, 1372.147
458.6765, 1385.272
459.1586, 1366.933
459.6407, 1379.787
460.1229, 1380.190
460.6050, 1386.291
461.0871, 1380.052
461.5692, 1377.625
462.0513, 1387.541
462.5334, 1390.623
463.0156, 1382.963
463.4977, 1389.427
463.9798, 1370.657
464.4619, 1374.030
464.9440, 1386.956
465.4261, 1379.917
465.9083, 1386.606
466.3904, 1376.075
466.8725, 1369.888
467.3546, 1364.598
467.8367, 1366.621
468.3188, 1373.727
468.8010, 1373.846
469.2831, 1358.357
469.7652, 1349.499
470.2473, 1361.754
470.7294, 1375.730
471.2115, 1366.070
471.6937, 1327.907
472.1758, 1294.141
472.6579, 1306.962
473.1400, 1365.827
473.6221, 1416.375
474.1042, 1446.591
474.5864, 1477.076
475.0685, 1525.578
475.5506, 1586.214
476.0327, 1641.298
476.5148, 1690.410
476.9969, 1726.625
477.4791, 1734.163
477.9612, 1715.110
478.4433, 1700.346
478.9254, 1703.582
479.4075, 1720.826
479.8896, 1745.260
480.3718, 1787.897
480.8539, 1812.453
481.3360, 1803.664
481.8181, 1774.838
482.3002, 1734.181
482.7823, 1685.653
483.2645, 1643.532
483.7466, 1622.252
484.2287, 1622.668
484.7108, 1635.097
485.1929, 1700.718
485.6750, 1732.754
486.1572, 1680.188
486.6393, 1582.400
487.1214, 1497.805
487.6035, 1452.671
488.0856, 1436.275
488.5677, 1431.574
489.0499, 1442.553
489.5320, 1451.322
490.0141, 1450.881
490.4962, 1451.169
490.9783, 1459.338
491.4604, 1474.392
491.9426, 1488.591
492.4247, 1497.154
492.9068, 1501.314
493.3889, 1503.228
493.8710, 1502.426
494.3531, 1502.453
494.8353, 1507.627
495.3174, 1514.114
495.7995, 1513.035
496.2816, 1500.318
496.7637, 1486.696
497.2458, 1473.338
497.7280, 1463.350
498.2101, 1465.322
498.6922, 1481.641
499.1743, 1499.505
499.6564, 1503.397
500.1385, 1489.948
500.6207, 1478.637
501.1028, 1469.172
501.5849, 1461.713
502.0670, 1457.484
502.5491, 1455.143
503.0313, 1450.989
503.5134, 1442.658
503.9955, 1434.542
504.4776, 1439.948
504.9597, 1469.322
505.4418, 1485.984
505.9240, 1472.490
506.4061, 1454.759
506.8882, 1448.892
507.3703, 1455.196
507.8524, 1463.674
508.3345, 1468.520
508.8167, 1470.190
509.2988, 1468.517
509.7809, 1462.011
510.2630, 1459.234
510.7451, 1468.814
511.2272, 1484.193
511.7094, 1490.581
512.1915, 1481.623
512.6736, 1473.940
513.1557, 1481.330
513.6378, 1493.969
514.1199, 1492.051
514.6021, 1470.741
515.0842, 1445.754
515.5663, 1434.877
516.0484, 1440.730
516.5305, 1443.594
517.0126, 1441.221
517.4948, 1438.725
517.9769, 1441.769
518.4590, 1445.340
518.9411, 1438.745
519.4232, 1416.656
519.9053, 1389.230
520.3875, 1378.025
520.8696, 1388.706
521.3517, 1396.023
521.8338, 1396.440
522.3159, 1393.063
522.7980, 1385.195
523.2802, 1374.273
523.7623, 1365.653
524.2444, 1364.729
524.7265, 1366.967
525.2086, 1363.895
525.6907, 1355.355
526.1729, 1344.702
526.6550, 1331.844
527.1371, 1319.087
527.6192, 1311.383
528.1013, 1310.053
528.5834, 1309.704
529.0656, 1310.007
529.5477, 1309.832
530.0298, 1307.526
530.5119, 1303.083
530.9940, 1298.282
531.4761, 1294.797
531.9583, 1292.515
532.4404, 1288.370
532.9225, 1277.870
533.4046, 1270.774
533.8867, 1269.959
534.3688, 1272.709
534.8510, 1277.986
535.3331, 1284.975
535.8152, 1288.771
536.2973, 1280.719
536.7794, 1260.895
537.2615, 1248.177
537.7437, 1244.861
538.2258, 1246.821
538.7079, 1257.359
539.1900, 1270.669
539.6721, 1272.980
540.1542, 1251.169
540.6364, 1229.779
541.1185, 1234.465
541.6006, 1256.973
542.0827, 1269.498
542.5648, 1250.232
543.0469, 1262.403
543.5291, 1268.304
544.0112, 1268.273
544.4933, 1244.543
544.9754, 1251.416
545.4575, 1246.024
545.9396, 1240.130
546.4218, 1251.310
546.9039, 1231.027
547.3860, 1241.936
547.8681, 1240.394
548.3502, 1244.551
548.8323, 1236.367
549.3145, 1231.995
549.7966, 1239.967
550.2787, 1241.104
550.7608, 1231.500
551.2429, 1236.018
551.7250, 1215.304
552.2072, 1216.732
552.6893, 1227.714
553.1714, 1218.730
553.6535, 1223.474
554.1356, 1222.990
554.6177, 1203.830
555.0999, 1205.025
555.5820, 1205.781
556.0641, 1205.893
556.5462, 1206.330
557.0283, 1209.906
557.5104, 1212.044
557.9926, 1205.271
558.4747, 1191.976
558.9568, 1184.263
559.4389, 1192.011
559.9210, 1210.850
560.4031, 1218.368
560.8853, 1204.596
561.3674, 1196.245
561.8495, 1201.104
562.3316, 1209.183
562.8137, 1212.878
563.2958, 1211.375
563.7780, 1208.318
564.2601, 1208.023
564.7422, 1208.329
565.2243, 1200.456
565.7064, 1182.206
566.1885, 1167.566
566.6707, 1163.733
567.1528, 1168.876
567.6349, 1178.471
568.1170, 1196.528
568.5991, 1209.671
569.0812, 1209.100
569.5634, 1203.524
570.0455, 1204.033
570.5276, 1211.432
571.0097, 1218.457
571.4918, 1218.943
571.9739, 1213.525
572.4561, 1209.297
572.9382, 1204.108
573.4203, 1203.331
573.9024, 1212.370
574.3845, 1223.136
574.8666, 1227.673
575.3488, 1224.793
575.8309, 1219.930
576.3130, 1215.591
576.7951, 1212.894
577.2772, 1218.818
577.7593, 1236.553
578.2415, 1250.593
578.7236, 1247.689
579.2057, 1236.498
579.6878, 1238.809
580.1699, 1265.075
580.6520, 1284.210
581.1342, 1278.971
581.6163, 1262.639
582.0984, 1248.534
582.5805, 1240.044
583.0626, 1241.218
583.5447, 1257.101
584.0269, 1286.158
584.5090, 1307.332
584.9911, 1311.761
585.4732, 1320.092
585.9553, 1341.572
586.4374, 1364.498
586.9196, 1376.600
587.4017, 1376.273
587.8838, 1373.995
588.3659, 1377.165
588.8480, 1385.539
589.3301, 1398.800
589.8123, 1417.448
590.2944, 1438.903
590.7765, 1463.827
591.2586, 1489.753
591.7407, 1510.445
592.2228, 1521.790
592.7050, 1536.895
593.1871, 1562.608
593.6692, 1592.353
594.1513, 1618.182
594.6334, 1639.920
595.1155, 1662.699
595.5977, 1690.172
596.0798, 1722.377
596.5619, 1759.696
597.0440, 1809.914
597.5261, 1851.655
598.0082, 1873.799
598.4904, 1892.426
598.9725, 1921.587
599.4546, 1961.826
599.9367, 2001.824
600.4188, 2032.032
600.9009, 2056.964
601.3831, 2088.030
601.8652, 2125.635
602.3473, 2154.887
602.8294, 2159.235
603.3115, 2159.433
603.7936, 2210.026
604.2758, 2337.422
604.7579, 2437.365
605.2400, 2494.232
605.7221, 2519.040
606.2042, 2503.628
606.6863, 2461.796
607.1685, 2429.140
607.6506, 2428.701
608.1327, 2450.723
608.6148, 2468.305
609.0969, 2480.630
609.5790, 2491.052
610.0612, 2499.134
610.5433, 2506.270
611.0254, 2514.862
611.5075, 2523.875
611.9896, 2528.190
612.4717, 2523.245
612.9539, 2514.297
613.4360, 2507.000
613.9181, 2500.709
614.4002, 2492.476
614.8823, 2481.058
615.3644, 2467.940
615.8466, 2455.592
616.3287, 2445.322
616.8108, 2430.926
617.2929, 2419.275
617.7750, 2396.969
618.2571, 2353.699
618.7393, 2296.961
619.2214, 2237.283
619.7035, 2178.646
620.1856, 2124.607
620.6677, 2082.944
621.1498, 2053.090
621.6320, 2015.115
622.1141, 1962.385
622.5962, 1910.688
623.0783, 1870.157
623.5604, 1839.335
624.0425, 1815.114
624.5247, 1803.491
625.0068, 1790.006
625.4889, 1765.988
625.9710, 1736.958
626.4531, 1709.269
626.9352, 1684.786
627.4174, 1664.660
627.8995, 1651.045
628.3816, 1643.229
628.8637, 1630.026
629.3458, 1602.195
629.8279, 1583.970
630.3101, 1588.078
630.7922, 1597.824
631.2743, 1597.698
631.7564, 1585.912
632.2385, 1572.828
632.7206, 1565.345
633.2028, 1560.901
633.6849, 1554.004
634.1670, 1544.753
634.6491, 1538.401
635.1312, 1536.894
635.6133, 1540.841
636.0955, 1552.363
636.5776, 1577.971
637.0597, 1597.446
637.5418, 1609.135
638.0239, 1616.039
638.5060, 1616.211
638.9882, 1613.416
639.4703, 1615.729
639.9524, 1627.795
640.4345, 1643.699
640.9166, 1652.318
641.3987, 1653.289
641.8809, 1658.429
642.3630, 1670.102
642.8451, 1685.204
643.3272, 1704.578
643.8093, 1725.935
644.2914, 1740.594
644.7736, 1737.798
645.2557, 1738.830
645.7378, 1757.998
646.2199, 1785.413
646.7020, 1807.028
647.1841, 1819.718
647.6663, 1828.028
648.1484, 1835.577
648.6305, 1842.653
649.1126, 1853.695
649.5947, 1870.404
650.0768, 1888.066
650.5590, 1905.557
651.0411, 1923.319
651.5232, 1943.171
652.0053, 1964.956
652.4874, 1982.744
652.9695, 1989.768
653.4517, 1993.079
653.9338, 1999.259
654.4159, 2009.487
654.8980, 2030.730
655.3801, 2068.217
655.8622, 2110.661
656.3444, 2137.704
656.8265, 2143.859
657.3086, 2148.811
657.7907, 2147.774
658.2728, 2150.635
658.7549, 2163.275
659.2371, 2182.366
659.7192, 2202.519
660.2013, 2222.077
660.6834, 2239.862
661.1655, 2256.021
661.6476, 2269.697
662.1298, 2276.350
662.6119, 2275.040
663.0940, 2268.369
663.5761, 2254.733
664.0582, 2237.441
664.5403, 2232.956
665.0225, 2259.229
665.5046, 2271.535
665.9867, 2252.635
666.4688, 2224.600
666.9509, 2206.357
667.4330, 2197.809
667.9152, 2188.597
668.3973, 2172.410
668.8794, 2149.689
669.3615, 2118.936
669.8436, 2078.540
670.3257, 2044.983
670.8079, 2026.152
671.2900, 2009.709
671.7721, 1982.073
672.2542, 1945.423
672.7363, 1911.835
673.2184, 1888.246
673.7006, 1862.702
674.1827, 1825.884
674.6648, 1784.441
675.1469, 1749.998
675.6290, 1724.576
676.1111, 1698.763
676.5933, 1661.200
677.0754, 1613.528
677.5575, 1578.028
678.0396, 1558.693
678.5217, 1542.497
679.0038, 1528.249
679.4860, 1513.302
679.9681, 1494.401
680.4502, 1471.301
680.9323, 1449.630
681.4144, 1432.256
681.8965, 1416.729
682.3787, 1402.010
682.8608, 1387.377
683.3429, 1370.427
683.8250, 1350.073
684.3071, 1330.227
684.7892, 1317.533
685.2714, 1313.448
685.7535, 1307.374
686.2356, 1296.749
686.7177, 1287.545
687.1998, 1286.125
687.6819, 1285.351
688.1641, 1273.996
688.6462, 1248.551
689.1283, 1225.280
689.6104, 1216.817
690.0925, 1215.247
690.5746, 1208.176
691.0568, 1195.887
691.5389, 1187.339
692.0210, 1188.054
692.5031, 1192.726
692.9852, 1188.330
693.4673, 1167.057
693.9495, 1155.630
694.4316, 1164.664
694.9137, 1172.646
695.3958, 1169.362
695.8779, 1159.240
696.3600, 1150.833
696.8422, 1146.884
697.3243, 1144.470
697.8064, 1140.808
698.2885, 1136.937
698.7706, 1135.589
699.2527, 1136.957
699.7349, 1138.411
700.2170, 1138.370
700.6991, 1136.874
701.1812, 1133.846
701.6633, 1125.709
702.1454, 1122.330
702.6276, 1127.308
703.1097, 1133.454
703.5918, 1137.702
704.0739, 1139.782
704.5560, 1139.773
705.0381, 1137.130
705.5203, 1133.932
706.0024, 1129.023
706.4845, 1125.386
706.9666, 1136.763
707.4487, 1165.993
707.9308, 1187.589
708.4130, 1180.346
708.8951, 1150.047
709.3772, 1126.908
709.8593, 1112.839
710.3414, 1103.446
710.8235, 1099.631
711.3057, 1099.218
711.7878, 1101.642
712.2699, 1106.249
712.7520, 1111.985
713.2341, 1119.101
713.7162, 1125.572
714.1984, 1130.450
714.6805, 1132.809
715.1626, 1126.942
715.6447, 1111.124
716.1268, 1098.239
716.6089, 1100.652
717.0911, 1115.462
717.5732, 1121.253
718.0553, 1108.908
718.5374, 1100.102
719.0195, 1096.344
719.5016, 1096.565
719.9838, 1103.131
720.4659, 1113.352
720.9480, 1118.804
721.4301, 1113.114
721.9122, 1104.427
722.3943, 1102.502
722.8765, 1105.684
723.3586, 1108.838
723.8407, 1110.986
724.3228, 1110.647
724.8049, 1105.460
725.2870, 1096.566
725.7692, 1094.545
726.2513, 1108.276
726.7334, 1115.685
727.2155, 1111.852
727.6976, 1103.950
728.1797, 1094.981
728.6619, 1086.353
729.1440, 1080.786
729.6261, 1079.546
730.1082, 1081.838
730.5903, 1090.456
731.0724, 1101.819
731.5546, 1103.994
732.0367, 1094.598
732.5188, 1083.787
733.0009, 1080.629
733.4830, 1083.535
733.9651, 1081.169
734.4473, 1069.192
734.9294, 1059.378
735.4115, 1051.566
735.8936, 1047.393
736.3757, 1052.000
736.8578, 1061.643
737.3400, 1063.875
737.8221, 1049.256
738.3042, 1032.743
738.7863, 1028.336
739.2684, 1031.119
739.7505, 1029.492
740.2327, 1021.955
740.7148, 1017.728
741.1969, 1024.766
741.6790, 1040.206
742.1611, 1052.293
742.6432, 1064.719
743.1254, 1065.012
743.6075, 1032.941
744.0896, 1005.957
744.5717, 1013.989
745.0538, 1044.736
745.5359, 1060.532
746.0181, 1041.910
746.5002, 1022.452
746.9823, 1025.251
747.4644, 1038.837
747.9465, 1049.712
748.4286, 1054.755
748.9108, 1050.176
749.3929, 1031.795
749.8750, 1007.270
750.3571, 998.2489
750.8392, 1007.933
751.3214, 1019.250
751.8035, 1034.621
752.2856, 1045.377
752.7677, 1041.114
753.2498, 1028.564
753.7319, 1023.498
754.2141, 1032.358
754.6962, 1028.726
755.1783, 1042.671
755.6604, 1050.347
756.1425, 1052.090
756.6246, 1030.134
757.1068, 1038.781
757.5889, 1035.164
758.0710, 1031.043
758.5531, 1043.998
759.0352, 1025.489
759.5173, 1038.172
759.9995, 1038.404
760.4816, 1044.335
760.9637, 1037.926
761.4458, 1035.328
761.9279, 1045.074
762.4100, 1047.985
762.8922, 1040.155
763.3743, 1046.448
763.8564, 1027.508
764.3385, 1030.710
764.8206, 1033.643
765.3027, 1034.234
765.7849, 1030.718
766.2670, 1025.869
766.7491, 1020.563
767.2312, 1016.409
767.7133, 1020.242
768.1954, 1032.454
768.6776, 1043.442
769.1597, 1049.257
769.6418, 1049.983
770.1239, 1044.683
770.6060, 1029.822
771.0881, 1022.190
771.5703, 1029.304
772.0524, 1034.471
772.5345, 1028.945
773.0166, 1020.732
773.4987, 1021.228
773.9808, 1032.028
774.4630, 1040.233
774.9451, 1033.716
775.4272, 1023.397
775.9093, 1024.156
776.3914, 1033.074
776.8735, 1039.348
777.3557, 1039.529
777.8378, 1036.903
778.3199, 1034.854
778.8020, 1033.440
779.2841, 1033.708
779.7662, 1034.994
780.2484, 1039.540
780.7305, 1051.974
781.2126, 1064.544
781.6947, 1070.504
782.1768, 1070.339
782.6589, 1069.061
783.1411, 1066.222
783.6232, 1064.357
784.1053, 1062.437
784.5874, 1063.466
785.0695, 1073.974
785.5516, 1092.650
786.0338, 1109.491
786.5159, 1117.295
786.9980, 1118.752
787.4801, 1118.002
787.9622, 1115.046
788.4443, 1118.249
788.9265, 1131.030
789.4086, 1143.495
789.8907, 1148.177
790.3728, 1146.489
790.8549, 1144.783
791.3370, 1140.228
791.8192, 1139.942
792.3013, 1149.450
792.7834, 1158.475
793.2655, 1158.803
793.7476, 1154.007
794.2297, 1153.457
794.7119, 1161.520
795.1940, 1167.513
795.6761, 1157.143
796.1582, 1139.922
796.6403, 1135.758
797.1224, 1144.225
797.6046, 1152.428
798.0867, 1154.670
798.5688, 1150.521
799.0509, 1137.862
799.5330, 1114.546
800.0151, 1097.863
800.4973, 1092.255
800.9794, 1086.152
801.4615, 1072.342
801.9436, 1057.718
802.4257, 1050.566
802.9078, 1051.623
803.3900, 1049.941
803.8721, 1038.405
804.3542, 1027.594
804.8363, 1026.431
805.3184, 1029.028
805.8005, 1025.770
806.2827, 1015.245
806.7648, 1003.549
807.2469, 995.3446
807.7290, 989.8876
808.2111, 985.5001
808.6932, 982.1949
809.1754, 981.4262
809.6575, 984.8331
810.1396, 984.7973
810.6217, 972.0693
811.1038, 950.0924
811.5859, 941.5596
812.0681, 961.1927
812.5502, 972.5330
813.0323, 967.7460
813.5144, 960.5179
813.9965, 958.6867
814.4786, 960.8035
814.9608, 962.7983
815.4429, 963.9633
815.9250, 962.7634
816.4071, 955.5446
816.8892, 946.9137
817.3713, 942.7222
817.8535, 942.9850
818.3356, 946.6321
818.8177, 953.2656
819.2998, 958.8029
819.7819, 956.4440
820.2640, 946.1480
820.7462, 935.5038
821.2283, 922.5527
821.7104, 916.5009
822.1925, 923.5328
822.6746, 936.2963
823.1567, 946.4840
823.6389, 954.5489
824.1210, 954.6500
824.6031, 937.1932
825.0852, 923.4216
825.5673, 923.9917
826.0494, 928.6671
826.5316, 926.9669
827.0137, 918.5878
827.4958, 909.7257
827.9779, 903.5436
828.4600, 898.8693
828.9421, 892.7413
829.4243, 887.3973
829.9064, 889.5937
830.3885, 899.7203
830.8707, 910.9360
831.3528, 918.9586
831.8349, 923.8289
832.3170, 926.0454
832.7991, 926.1318
833.2813, 920.0108
833.7634, 902.4353
834.2455, 887.7944
834.7276, 883.7276
835.2097, 887.4294
835.6918, 894.1116
836.1740, 905.1492
836.6561, 913.3464
837.1382, 918.8996
837.6203, 919.9952
838.1024, 909.2653
838.5845, 896.4973
839.0667, 898.4216
839.5488, 916.4876
840.0309, 930.9861
840.5130, 923.0958
840.9951, 906.0659
841.4772, 899.5958
841.9594, 901.3625
842.4415, 903.4022
842.9236, 903.8104
843.4057, 904.1964
843.8878, 906.1578
844.3699, 908.8919
844.8521, 909.1357
845.3342, 906.6090
845.8163, 902.1979
846.2984, 893.2344
846.7805, 886.5849
847.2626, 890.4392
847.7448, 898.9800
848.2269, 897.4152
848.7090, 878.0898
849.1911, 867.8442
849.6732, 879.1966
850.1553, 893.2552
850.6375, 899.7294
851.1196, 900.5849
851.6017, 900.0224
852.0838, 899.2214
852.5659, 897.3404
853.0480, 891.7633
853.5302, 885.8840
854.0123, 885.9570
854.4944, 890.4229
854.9765, 893.2907
855.4586, 892.9920
855.9407, 893.1566
856.4229, 898.0887
856.9050, 905.3354
857.3871, 902.0392
857.8692, 884.5185
858.3513, 872.7957
858.8334, 871.0707
859.3156, 873.4745
859.7977, 877.4904
860.2798, 882.3760
860.7619, 885.8226
861.2440, 887.8193
861.7261, 888.4837
862.2083, 885.6131
862.6904, 883.7430
863.1725, 885.6834
863.6546, 890.1359
864.1367, 896.8215
864.6188, 905.3923
865.1010, 907.9992
865.5831, 893.8566
866.0652, 875.4456
866.5473, 867.3072
867.0294, 866.6637
867.5115, 865.2933
867.9937, 861.4965
868.4758, 861.1029
868.9579, 870.6831
869.4400, 884.9280
869.9221, 884.4594
870.4042, 867.8829
870.8864, 861.4855
871.3685, 871.2917
871.8506, 885.1647
872.3327, 897.0874
872.8148, 905.9448
873.2969, 908.1461
873.7791, 899.1993
874.2612, 893.5630
874.7433, 894.8016
875.2254, 895.0299
875.7075, 889.9695
876.1896, 882.9364
876.6718, 878.0818
877.1539, 876.0110
877.6360, 874.5347
878.1181, 868.6821
878.6002, 867.3799
879.0823, 884.2900
879.5645, 906.1451
880.0466, 910.9463
880.5287, 898.0798
881.0108, 884.1656
881.4929, 878.8531
881.9750, 882.2208
882.4572, 904.1639
882.9393, 936.3405
883.4214, 933.8420
883.9035, 892.1448
884.3856, 857.8567
884.8677, 857.8421
885.3499, 876.7475
885.8320, 885.2319
886.3141, 881.1578
886.7962, 881.8231
887.2783, 892.3627
887.7604, 897.0056
888.2426, 885.8953
888.7247, 870.2846
889.2068, 862.0192
889.6889, 860.8425
890.1710, 862.7036
890.6531, 873.2436
891.1353, 878.8942
891.6174, 873.5512
892.0995, 864.1054
892.5816, 853.9677
893.0637, 844.9701
893.5458, 840.1447
894.0280, 841.1710
894.5101, 844.1001
894.9922, 846.0693
895.4743, 848.0873
895.9564, 852.0351
896.4385, 857.2449
896.9207, 862.2681
897.4028, 866.3633
897.8849, 866.6633
898.3670, 856.2762
898.8491, 841.0524
899.3312, 847.1880
899.8134, 874.5280
900.2955, 891.3103
900.7776, 889.4962
901.2597, 878.8705
901.7418, 865.6810
902.2239, 851.3866
902.7061, 841.5837
903.1882, 834.2132
903.6703, 836.8413
904.1524, 858.1942
904.6345, 878.6664
905.1166, 892.3920
905.5988, 898.0270
906.0809, 890.2881
906.5630, 866.0925
907.0451, 849.3051
907.5272, 848.3075
908.0093, 850.6064
908.4915, 851.1213
908.9736, 851.7819
909.4557, 856.6631
909.9378, 864.5930
910.4199, 867.8939
910.9020, 858.3625
911.3842, 851.8307
911.8663, 870.1291
912.3484, 896.7707
912.8305, 904.8549
913.3126, 895.3731
913.7947, 882.8617
914.2769, 874.0414
914.7590, 868.3983
915.2411, 866.8990
915.7232, 868.2008
916.2053, 864.2831
916.6874, 855.2223
917.1696, 850.5719
917.6517, 853.4457
918.1338, 860.2085
918.6159, 868.0707
919.0980, 876.4849
919.5801, 882.2073
920.0623, 885.0294
920.5444, 885.4504
921.0265, 880.3355
921.5086, 877.6105
921.9907, 884.7435
922.4728, 896.3642
922.9550, 901.2707
923.4371, 898.1086
923.9192, 893.7515
924.4013, 883.2525
924.8834, 878.3095
925.3655, 889.9340
925.8477, 905.0267
926.3298, 909.2256
926.8119, 902.3714
927.2940, 893.6089
927.7761, 878.8603
928.2582, 875.5727
928.7404, 909.7568
929.2225, 951.4711
929.7046, 961.9576
930.1867, 947.4720
930.6688, 936.9083
931.1509, 942.3457
931.6331, 952.9103
932.1152, 957.3928
932.5973, 958.4035
933.0794, 960.7197
933.5615, 964.6925
934.0436, 972.5565
934.5258, 984.7308
935.0079, 995.2761
935.4900, 998.2585
935.9721, 996.9592
936.4542, 1002.604
936.9363, 1015.720
937.4185, 1028.548
937.9006, 1040.990
938.3827, 1049.937
938.8648, 1052.382
939.3469, 1052.392
939.8290, 1058.487
940.3112, 1073.437
940.7933, 1076.815
941.2754, 1055.521
941.7575, 1043.042
942.2396, 1059.880
942.7217, 1077.939
943.2039, 1073.801
943.6860, 1051.398
944.1681, 1029.528
944.6502, 1006.156
945.1323, 990.5283
945.6144, 989.4514
946.0966, 991.6670
946.5787, 991.7914
947.0608, 989.5054
947.5429, 984.8909
948.0250, 978.0055
948.5071, 970.6623
948.9893, 962.9112
949.4714, 944.0042
949.9535, 956.1077
950.4356, 961.9422
950.9177, 961.8445
951.3998, 938.0472
951.8820, 944.8525
952.3641, 939.3942
952.8462, 933.4327
953.3283, 944.5459
953.8104, 924.1955
954.2925, 935.0381
954.7747, 933.4284
955.2568, 937.5182
955.7389, 929.2677
956.2210, 924.8286
956.7031, 932.7336
957.1852, 933.8040
957.6674, 924.1323
958.1495, 928.5844
958.6316, 913.7769
959.1137, 918.3350
959.5958, 920.4103
960.0779, 912.6913
960.5601, 901.4672
961.0422, 901.2813
961.5243, 915.0314
962.0064, 923.1806
962.4885, 922.3807
962.9706, 923.8451
963.4528, 935.4977
963.9349, 945.3797
964.4170, 936.3674
964.8991, 911.6493
965.3812, 906.0701
965.8633, 944.7334
966.3455, 963.8659
966.8276, 935.8856
967.3097, 913.6141
967.7918, 935.8214
968.2739, 975.6842
968.7560, 988.7903
969.2382, 968.1667
969.7203, 950.1934
970.2024, 942.4470
970.6845, 942.9308
971.1666, 961.1739
971.6487, 979.3907
972.1309, 975.8944
972.6130, 955.4478
973.0951, 940.0253
973.5772, 939.2582
974.0593, 939.7848
974.5414, 928.9724
975.0236, 917.3333
975.5057, 917.2589
975.9878, 925.2277
976.4699, 935.0601
976.9520, 943.8741
977.4341, 945.7181
977.9163, 932.1708
978.3984, 915.8821
978.8805, 919.1353
979.3626, 933.4212
979.8447, 937.2744
980.3268, 929.5962
980.8090, 919.3467
981.2911, 910.6501
981.7732, 906.1260
982.2553, 913.1872
982.7374, 926.9751
983.2195, 922.4423
983.7017, 900.7219
984.1838, 881.4077
984.6659, 868.5273
985.1480, 866.5569
985.6301, 881.4644
986.1122, 903.2034
986.5944, 902.4480
987.0765, 875.1284
987.5586, 862.8438
988.0407, 870.3422
988.5228, 878.2952
989.0049, 879.6313
989.4871, 878.3396
989.9692, 879.2485
990.4513, 881.9411
990.9334, 880.7983
991.4155, 871.9617
991.8976, 868.1076
992.3798, 871.7731
992.8619, 878.9115
993.3440, 893.0027
993.8261, 906.4565
994.3082, 901.6935
994.7903, 872.2040
995.2725, 860.9150
995.7546, 884.5570
996.2367, 904.5773
996.7188, 912.3721
997.2009, 913.8077
997.6830, 908.6172
998.1652, 901.2178
998.6473, 903.7133
999.1294, 921.5932
999.6115, 938.4672
1000.094, 952.0984
1000.576, 961.7236
1001.058, 963.3544
1001.540, 963.1357
1002.022, 969.1160
1002.504, 981.1394
1002.986, 992.2505
1003.468, 1000.385
1003.951, 1006.118
1004.433, 1006.335
1004.915, 1007.214
1005.397, 1015.715
1005.879, 1028.942
1006.361, 1039.731
1006.843, 1046.579
1007.325, 1055.880
1007.807, 1074.462
1008.290, 1094.657
1008.772, 1107.471
1009.254, 1117.999
1009.736, 1136.560
1010.218, 1160.679
1010.700, 1178.224
1011.182, 1183.787
1011.664, 1184.713
1012.147, 1190.974
1012.629, 1195.825
1013.111, 1181.816
1013.593, 1157.968
1014.075, 1148.546
1014.557, 1157.787
1015.039, 1179.935
1015.521, 1214.512
1016.003, 1240.893
1016.486, 1216.238
1016.968, 1158.568
1017.450, 1124.715
1017.932, 1115.187
1018.414, 1114.880
1018.896, 1118.957
1019.378, 1126.393
1019.860, 1137.693
1020.343, 1148.599
1020.825, 1146.018
1021.307, 1131.389
1021.789, 1119.859
1022.271, 1112.749
1022.753, 1109.822
1023.235, 1111.495
1023.717, 1112.799
1024.199, 1106.279
1024.682, 1094.478
1025.164, 1095.481
1025.646, 1111.135
1026.128, 1115.367
1026.610, 1102.870
1027.092, 1086.662
1027.574, 1073.005
1028.056, 1062.523
1028.538, 1056.790
1029.021, 1055.988
1029.503, 1052.593
1029.985, 1046.038
1030.467, 1038.834
1030.949, 1030.799
1031.431, 1024.404
1031.913, 1022.821
1032.395, 1022.772
1032.878, 1014.811
1033.360, 995.3536
1033.842, 984.8182
1034.324, 987.3054
1034.806, 989.2867
1035.288, 985.3987
1035.770, 982.0511
1036.252, 985.8041
1036.734, 994.7702
1037.217, 999.8248
1037.699, 989.9704
1038.181, 1002.170
1038.663, 1066.911
1039.145, 1106.986
1039.627, 1074.885
1040.109, 1023.032
1040.591, 1008.409
1041.073, 1027.451
1041.556, 1039.215
1042.038, 1041.243
1042.520, 1039.768
1043.002, 1034.037
1043.484, 1025.861
1043.966, 1009.684
1044.448, 995.1690
1044.930, 998.8524
1045.413, 1021.045
1045.895, 1031.230
1046.377, 1024.234
1046.859, 1009.726
1047.341, 977.1312
1047.823, 949.9050
1048.305, 943.3693
1048.787, 950.1081
1049.270, 961.3291
1049.752, 977.2971
1050.234, 981.2748
1050.716, 961.9670
1051.198, 942.4756
1051.680, 925.3925
1052.162, 913.2641
1052.644, 909.8375
1053.126, 911.8840
1053.609, 913.1185
1054.091, 912.5811
1054.573, 911.9683
1055.055, 912.2864
1055.537, 911.8079
1056.019, 910.7004
1056.501, 907.8249
1056.983, 897.0031
1057.465, 884.4916
1057.948, 888.4303
1058.430, 917.1722
1058.912, 936.6080
1059.394, 926.1125
1059.876, 916.3325
1060.358, 926.6467
1060.840, 940.8730
1061.322, 940.2409
1061.805, 928.6975
1062.287, 924.0029
1062.769, 932.6274
1063.251, 940.4384
1063.733, 940.6125
1064.215, 940.3759
1064.697, 944.3871
1065.179, 949.7878
1065.661, 952.3427
1066.144, 952.9657
1066.626, 957.5947
1067.108, 971.2008
1067.590, 979.1546
1068.072, 967.1771
1068.554, 956.6567
1069.036, 964.9558
1069.518, 980.6171
1070.000, 987.7546
1070.483, 986.7684
1070.965, 989.7050
1071.447, 1002.048
1071.929, 1015.488
1072.411, 1023.665
1072.893, 1034.434
1073.375, 1062.050
1073.857, 1090.576
1074.340, 1092.413
1074.822, 1070.492
1075.304, 1060.862
1075.786, 1083.262
1076.268, 1106.624
1076.750, 1112.539
1077.232, 1117.803
1077.714, 1141.179
1078.197, 1168.800
1078.679, 1173.883
1079.161, 1157.938
1079.643, 1156.097
1080.125, 1190.940
1080.607, 1225.275
1081.089, 1241.983
1081.571, 1251.052
1082.053, 1255.998
1082.536, 1260.754
1083.018, 1270.410
1083.500, 1285.327
1083.982, 1301.379
1084.464, 1318.271
1084.946, 1333.748
1085.428, 1353.019
1085.910, 1364.200
1086.393, 1349.266
1086.875, 1324.616
1087.357, 1319.369
1087.839, 1334.804
1088.321, 1338.854
1088.803, 1306.652
1089.285, 1280.989
1089.767, 1289.154
1090.250, 1301.128
1090.732, 1292.377
1091.214, 1273.146
1091.696, 1262.868
1092.178, 1262.949
1092.660, 1256.738
1093.142, 1232.303
1093.624, 1209.820
1094.106, 1197.398
1094.589, 1189.154
1095.071, 1185.661
1095.553, 1181.217
1096.035, 1165.543
1096.517, 1138.777
1096.999, 1116.736
1097.481, 1108.580
1097.963, 1099.582
1098.445, 1083.798
1098.928, 1067.045
1099.410, 1052.861
1099.892, 1040.421
1100.374, 1027.053
1100.856, 1013.065
1101.338, 1004.960
1101.820, 1008.187
1102.302, 1012.040
1102.785, 1019.641
1103.267, 1020.937
1103.749, 1004.674
1104.231, 981.6250
1104.713, 966.8741
1105.195, 961.0894
1105.677, 954.1614
1106.159, 941.0145
1106.641, 931.5310
1107.124, 933.7595
1107.606, 932.8342
1108.088, 915.2762
1108.570, 893.9163
1109.052, 886.7189
1109.534, 893.2224
1110.016, 895.7727
1110.498, 888.4652
1110.980, 883.8076
1111.463, 886.9570
1111.945, 888.0894
1112.427, 880.3185
1112.909, 870.1639
1113.391, 864.2466
1113.873, 862.6526
1114.355, 865.2940
1114.837, 883.1387
1115.320, 886.4551
1115.802, 862.0937
1116.284, 840.8888
1116.766, 835.2758
1117.248, 836.5620
1117.730, 837.2341
1118.212, 837.0430
1118.694, 834.2433
1119.177, 826.9399
1119.659, 821.1824
1120.141, 816.3536
1120.623, 814.5486
1121.105, 817.7418
1121.587, 822.5838
1122.069, 827.0027
1122.551, 830.0185
1123.033, 826.6172
1123.516, 813.2621
1123.998, 806.2137
1124.480, 807.4182
1124.962, 809.6105
1125.444, 811.5876
1125.926, 811.0751
1126.408, 804.8690
1126.890, 796.1846
1127.372, 795.6836
1127.855, 805.2153
1128.337, 807.2047
1128.819, 799.6543
1129.301, 798.5915
1129.783, 810.2436
1130.265, 817.1810
1130.747, 804.8441
1131.229, 783.1578
1131.712, 773.5490
1132.194, 775.6139
1132.676, 778.2761
1133.158, 781.5269
1133.640, 785.0874
1134.122, 788.8607
1134.604, 795.1443
1135.086, 806.2112
1135.568, 814.8378
1136.051, 805.8190
1136.533, 784.6882
1137.015, 777.4512
1137.497, 781.9498
1137.979, 784.5624
1138.461, 783.2995
1138.943, 783.6221
1139.425, 788.4269
1139.907, 792.8806
1140.390, 789.9984
1140.872, 783.4675
1141.354, 780.5830
1141.836, 780.8823
1142.318, 785.4895
1142.800, 792.3638
1143.282, 792.3961
1143.764, 782.3618
1144.247, 771.2949
1144.729, 766.5761
1145.211, 765.9763
1145.693, 769.8558
1146.175, 773.9095
1146.657, 766.6899
1147.139, 754.2483
1147.621, 755.4180
1148.104, 773.7997
1148.586, 791.9527
1149.068, 800.2582
1149.550, 801.7471
1150.032, 793.6975
1150.514, 784.5422
1150.996, 784.1658
1151.478, 788.3225
1151.960, 786.7628
1152.443, 779.7897
1152.925, 780.4971
1153.407, 798.5346
1153.889, 814.5940
1154.371, 821.0988
1154.853, 821.5988
1155.335, 813.5295
1155.817, 804.0660
1156.299, 801.7612
1156.782, 805.9216
1157.264, 810.5057
1157.746, 815.0240
1158.228, 818.1115
1158.710, 821.2441
1159.192, 820.6182
1159.674, 808.6887
1160.156, 798.0571
1160.639, 800.2422
1161.121, 811.7682
1161.603, 822.7090
1162.085, 833.2902
1162.567, 842.1807
1163.049, 854.2241
1163.531, 854.8615
1164.013, 834.0065
1164.495, 813.8615
1164.978, 808.3237
1165.460, 810.4489
1165.942, 807.7244
1166.424, 800.3567
1166.906, 806.9367
1167.388, 833.8136
1167.870, 839.6563
1168.352, 814.3802
1168.834, 793.9891
1169.317, 795.8459
1169.799, 803.4054
1170.281, 796.0878
1170.763, 780.4124
1171.245, 783.8863
1171.727, 804.2610
1172.209, 812.1815
1172.691, 806.2925
1173.174, 800.6603
1173.656, 799.6266
1174.138, 795.9979
1174.620, 783.0832
1175.102, 768.1168
1175.584, 763.3815
1176.066, 765.9206
1176.548, 769.2870
1177.031, 773.3954
1177.513, 780.2831
1177.995, 789.1451
1178.477, 794.1583
1178.959, 792.0208
1179.441, 788.7654
1179.923, 791.6910
1180.405, 794.8117
1180.887, 791.1354
1181.370, 783.7177
1181.852, 775.7685
1182.334, 768.5008
1182.816, 763.1038
1183.298, 759.9278
1183.780, 759.4109
1184.262, 765.2397
1184.744, 769.2044
1185.226, 764.5792
1185.709, 759.2834
1186.191, 760.0390
1186.673, 763.9217
1187.155, 767.0405
1187.637, 768.6169
1188.119, 765.6661
1188.601, 748.1290
1189.083, 741.5848
1189.566, 763.6091
1190.048, 777.3866
1190.530, 761.8630
1191.012, 740.7110
1191.494, 735.3051
1191.976, 741.9688
1192.458, 748.3458
1192.940, 754.9697
1193.422, 758.4186
1193.905, 757.2927
1194.387, 757.7150
1194.869, 760.8060
1195.351, 768.0577
1195.833, 783.1395
1196.315, 793.7673
1196.797, 773.9951
1197.279, 732.3527
1197.761, 730.3778
1198.244, 763.7581
1198.726, 776.2549
1199.208, 762.9040
1199.690, 751.7723
1200.172, 754.0841
1200.654, 763.8411
1201.136, 778.4070
1201.618, 790.1462
1202.101, 783.4990
1202.583, 766.3447
1203.065, 751.0158
1203.547, 739.4851
1204.029, 733.2019
1204.511, 732.5903
1204.993, 739.3689
1205.475, 756.8015
1205.958, 769.8422
1206.440, 763.8874
1206.922, 753.3552
1207.404, 748.0040
1207.886, 745.6382
1208.368, 742.2498
1208.850, 739.4417
1209.332, 744.5212
1209.814, 760.2920
1210.297, 765.1013
1210.779, 738.4337
1211.261, 722.7066
1211.743, 737.1838
1212.225, 754.6373
1212.707, 760.0508
1213.189, 759.9990
1213.671, 763.0881
1214.153, 768.2877
1214.636, 766.5767
1215.118, 754.3771
1215.600, 747.1438
1216.082, 746.0864
1216.564, 747.5441
1217.046, 751.5430
1217.528, 752.4985
1218.010, 744.9118
1218.493, 735.5066
1218.975, 739.5789
1219.457, 754.1473
1219.939, 758.1796
1220.421, 753.0175
1220.903, 746.0983
1221.385, 739.1117
1221.867, 734.4117
1222.349, 732.9924
1222.832, 734.5410
1223.314, 739.8972
1223.796, 746.1471
1224.278, 751.2634
1224.760, 753.4864
1225.242, 745.4583
1225.724, 734.5226
1226.206, 737.1045
1226.688, 753.4019
1227.171, 768.9020
1227.653, 780.0060
1228.135, 781.9354
1228.617, 767.7004
1229.099, 749.7036
1229.581, 723.8018
1230.063, 706.5477
1230.545, 721.0922
1231.028, 752.7512
1231.510, 766.7560
1231.992, 759.0080
1232.474, 753.1521
1232.956, 749.5886
1233.438, 747.0948
1233.920, 745.8882
1234.402, 744.8970
1234.885, 743.3945
1235.367, 742.8600
1235.849, 745.4825
1236.331, 749.3055
1236.813, 746.7314
1237.295, 738.3545
1237.777, 737.5727
1238.259, 743.9258
1238.741, 747.1887
1239.224, 745.6033
1239.706, 745.5838
1240.188, 750.6960
1240.670, 755.7554
1241.152, 755.3386
1241.634, 751.0511
1242.116, 743.1191
1242.598, 734.3436
1243.080, 727.4347
1243.563, 723.9849
1244.045, 728.5276
1244.527, 740.3190
1245.009, 748.2145
1245.491, 745.9533
1245.973, 743.0270
1246.455, 743.0472
1246.937, 743.8121
1247.420, 746.5123
1247.902, 747.3852
1248.384, 739.0525
1248.866, 727.0853
1249.348, 727.9629
1249.830, 744.1815
1250.312, 749.6598
1250.794, 738.6382
1251.276, 734.0535
1251.759, 740.8845
1252.241, 745.9659
1252.723, 743.2756
1253.205, 738.7507
1253.687, 738.6436
1254.169, 740.6138
1254.651, 735.7046
1255.133, 727.4089
1255.615, 739.0321
1256.098, 764.0692
1256.580, 768.7029
1257.062, 750.4162
1257.544, 733.2318
1258.026, 728.3260
1258.508, 728.0984
1258.990, 724.0449
1259.472, 723.9014
1259.955, 742.1445
1260.437, 761.1592
1260.919, 759.4952
1261.401, 746.7542
1261.883, 739.6556
1262.365, 740.1840
1262.847, 743.4176
1263.329, 750.6207
1263.812, 754.9717
1264.294, 752.9221
1264.776, 751.8409
1265.258, 755.5523
1265.740, 757.2482
1266.222, 750.5654
1266.704, 742.1910
1267.186, 743.8948
1267.668, 754.0714
1268.151, 758.4946
1268.633, 757.1498
1269.115, 753.2200
1269.597, 747.1328
1270.079, 740.9727
1270.561, 735.5647
1271.043, 733.8948
1271.525, 738.8649
1272.007, 742.5718
1272.490, 731.1359
1272.972, 715.8593
1273.454, 709.1035
1273.936, 711.5280
1274.418, 730.3459
1274.900, 756.7867
1275.382, 769.4208
1275.864, 764.3006
##END=



