##NAMES=Olenite
##RRUFFID=R061133
##IDEAL CHEMISTRY=NaAl_3_Al_6_(Si_6_O_18_)(BO_3_)_3_(O_3_)OH
##LOCALITY=Uvil'dy, Urals, Siberia, Russia
##OWNER=RRUFF
##SOURCE=Michael Scott
##DESCRIPTION=Blue-gray grains
##STATUS=The identification of this mineral has been confirmed only by single crystal X-ray diffraction.
##URL=rruff.info/R061133
113.5961, 293.7154
114.0782, 306.1902
114.5603, 319.7780
115.0425, 334.5602
115.5246, 350.1840
116.0067, 363.9283
116.4888, 380.5656
116.9709, 402.9255
117.4530, 430.8271
117.9352, 461.9659
118.4173, 494.2856
118.8994, 528.2184
119.3815, 568.0004
119.8636, 616.4750
120.3457, 668.8271
120.8279, 720.0833
121.3100, 769.7484
121.7921, 822.9105
122.2742, 885.5358
122.7563, 956.5335
123.2384, 1030.346
123.7206, 1108.880
124.2027, 1188.869
124.6848, 1264.408
125.1669, 1334.243
125.6490, 1404.692
126.1311, 1482.068
126.6133, 1564.958
127.0954, 1648.839
127.5775, 1737.365
128.0596, 1825.894
128.5417, 1904.745
129.0238, 1972.816
129.5060, 2031.409
129.9881, 2079.015
130.4702, 2118.303
130.9523, 2157.884
131.4344, 2205.907
131.9165, 2259.239
132.3987, 2301.413
132.8808, 2321.704
133.3629, 2342.577
133.8450, 2376.647
134.3271, 2422.857
134.8092, 2476.070
135.2914, 2530.054
135.7735, 2585.167
136.2556, 2654.214
136.7377, 2740.625
137.2198, 2840.564
137.7019, 2954.243
138.1841, 3079.740
138.6662, 3213.511
139.1483, 3352.666
139.6304, 3497.174
140.1125, 3644.662
140.5946, 3798.620
141.0768, 3953.659
141.5589, 4108.633
142.0410, 4263.583
142.5231, 4418.382
143.0052, 4573.954
143.4873, 4731.606
143.9695, 4884.194
144.4516, 5037.378
144.9337, 5183.095
145.4158, 5319.378
145.8979, 5445.155
146.3800, 5557.622
146.8622, 5652.864
147.3443, 5726.311
147.8264, 5794.807
148.3085, 5861.607
148.7906, 5922.167
149.2727, 5974.431
149.7549, 6017.902
150.2370, 6052.897
150.7191, 6078.681
151.2012, 6088.385
151.6833, 6104.581
152.1654, 6130.992
152.6476, 6160.118
153.1297, 6187.562
153.6118, 6212.221
154.0939, 6234.075
154.5760, 6251.838
155.0581, 6255.251
155.5403, 6278.761
156.0224, 6333.396
156.5045, 6399.207
156.9866, 6461.391
157.4687, 6516.390
157.9508, 6569.820
158.4330, 6629.550
158.9151, 6700.009
159.3972, 6768.480
159.8793, 6828.589
160.3614, 6890.444
160.8435, 6965.676
161.3257, 7056.793
161.8078, 7151.753
162.2899, 7233.376
162.7720, 7292.413
163.2541, 7357.348
163.7362, 7435.974
164.2184, 7517.350
164.7005, 7588.517
165.1826, 7646.533
165.6647, 7701.319
166.1468, 7769.988
166.6289, 7862.449
167.1111, 7937.346
167.5932, 7981.430
168.0753, 8010.051
168.5574, 8040.516
169.0395, 8077.545
169.5216, 8113.496
170.0038, 8135.151
170.4859, 8138.053
170.9680, 8149.757
171.4501, 8184.273
171.9322, 8226.184
172.4143, 8253.821
172.8965, 8260.980
173.3786, 8262.750
173.8607, 8280.865
174.3428, 8317.026
174.8249, 8348.283
175.3070, 8362.063
175.7892, 8371.044
176.2713, 8395.953
176.7534, 8443.113
177.2355, 8494.628
177.7176, 8523.085
178.1997, 8529.246
178.6819, 8546.239
179.1640, 8595.911
179.6461, 8657.206
180.1282, 8695.236
180.6103, 8699.811
181.0924, 8696.324
181.5745, 8712.576
182.0567, 8745.684
182.5388, 8784.951
183.0209, 8835.106
183.5030, 8887.444
183.9851, 8926.142
184.4672, 8946.314
184.9494, 8961.979
185.4315, 8993.074
185.9136, 9034.864
186.3957, 9061.492
186.8778, 9049.809
187.3599, 9022.555
187.8421, 9016.397
188.3242, 9036.860
188.8063, 9072.176
189.2884, 9125.792
189.7705, 9189.642
190.2526, 9233.717
190.7348, 9229.204
191.2169, 9204.996
191.6990, 9214.153
192.1811, 9269.060
192.6632, 9325.112
193.1453, 9340.061
193.6275, 9328.752
194.1096, 9322.288
194.5917, 9331.970
195.0738, 9351.776
195.5559, 9373.761
196.0380, 9398.882
196.5202, 9422.369
197.0023, 9439.314
197.4844, 9452.360
197.9665, 9465.679
198.4486, 9479.702
198.9307, 9495.214
199.4129, 9515.734
199.8950, 9543.826
200.3771, 9566.387
200.8592, 9562.831
201.3413, 9550.364
201.8234, 9556.080
202.3056, 9600.814
202.7877, 9656.480
203.2698, 9682.828
203.7519, 9674.782
204.2340, 9664.241
204.7161, 9667.322
205.1983, 9678.436
205.6804, 9691.690
206.1625, 9707.177
206.6446, 9722.436
207.1267, 9733.647
207.6088, 9740.221
208.0910, 9747.271
208.5731, 9751.911
209.0552, 9760.818
209.5373, 9783.367
210.0194, 9824.563
210.5015, 9872.632
210.9837, 9914.991
211.4658, 9950.988
211.9479, 9989.546
212.4300, 10037.49
212.9121, 10087.68
213.3942, 10132.25
213.8764, 10169.93
214.3585, 10203.89
214.8406, 10234.07
215.3227, 10260.76
215.8048, 10294.09
216.2869, 10340.33
216.7691, 10392.54
217.2512, 10442.33
217.7333, 10488.98
218.2154, 10538.95
218.6975, 10606.62
219.1796, 10688.78
219.6618, 10745.33
220.1439, 10752.05
220.6260, 10745.08
221.1081, 10752.93
221.5902, 10776.17
222.0723, 10819.33
222.5545, 10899.60
223.0366, 11007.33
223.5187, 11094.68
224.0008, 11153.44
224.4829, 11187.26
224.9650, 11196.76
225.4472, 11184.80
225.9293, 11169.68
226.4114, 11163.32
226.8935, 11161.64
227.3756, 11150.30
227.8577, 11122.94
228.3399, 11095.60
228.8220, 11087.88
229.3041, 11092.13
229.7862, 11081.87
230.2683, 11034.04
230.7504, 10966.22
231.2325, 10916.96
231.7147, 10893.72
232.1968, 10870.77
232.6789, 10820.46
233.1610, 10757.24
233.6431, 10710.19
234.1252, 10701.72
234.6074, 10707.69
235.0895, 10690.91
235.5716, 10647.54
236.0537, 10603.44
236.5358, 10571.07
237.0179, 10548.46
237.5001, 10534.39
237.9822, 10536.91
238.4643, 10538.88
238.9464, 10516.66
239.4285, 10469.77
239.9106, 10432.81
240.3928, 10428.03
240.8749, 10440.93
241.3570, 10446.31
241.8391, 10439.93
242.3212, 10431.09
242.8033, 10425.92
243.2855, 10424.17
243.7676, 10425.20
244.2497, 10433.07
244.7318, 10439.01
245.2139, 10429.54
245.6960, 10401.63
246.1782, 10371.37
246.6603, 10341.61
247.1424, 10315.45
247.6245, 10303.44
248.1066, 10311.43
248.5887, 10329.16
249.0709, 10342.43
249.5530, 10350.56
250.0351, 10364.78
250.5172, 10399.48
250.9993, 10440.32
251.4814, 10456.30
251.9636, 10436.78
252.4457, 10417.11
252.9278, 10447.84
253.4099, 10523.92
253.8920, 10568.50
254.3741, 10530.36
254.8563, 10474.02
255.3384, 10477.91
255.8205, 10549.43
256.3026, 10624.66
256.7847, 10650.49
257.2668, 10629.58
257.7490, 10619.40
258.2311, 10622.71
258.7132, 10635.99
259.1953, 10661.78
259.6774, 10697.69
260.1595, 10730.34
260.6417, 10750.58
261.1238, 10761.54
261.6059, 10779.08
262.0880, 10808.83
262.5701, 10838.27
263.0522, 10865.98
263.5344, 10889.63
264.0165, 10902.41
264.4986, 10899.39
264.9807, 10887.55
265.4628, 10886.05
265.9449, 10905.91
266.4271, 10915.94
266.9092, 10898.36
267.3913, 10871.83
267.8734, 10864.92
268.3555, 10886.53
268.8376, 10915.44
269.3198, 10918.88
269.8019, 10881.76
270.2840, 10848.84
270.7661, 10822.77
271.2482, 10799.19
271.7303, 10774.62
272.2125, 10748.55
272.6946, 10722.92
273.1767, 10700.12
273.6588, 10681.66
274.1409, 10657.22
274.6230, 10618.33
275.1052, 10582.39
275.5873, 10558.84
276.0694, 10545.94
276.5515, 10537.23
277.0336, 10529.01
277.5157, 10520.69
277.9979, 10502.36
278.4800, 10459.76
278.9621, 10423.19
279.4442, 10400.56
279.9263, 10387.64
280.4084, 10377.61
280.8906, 10367.05
281.3727, 10357.20
281.8548, 10352.63
282.3369, 10366.80
282.8190, 10365.40
283.3011, 10332.59
283.7833, 10291.75
284.2654, 10262.37
284.7475, 10250.35
285.2296, 10249.69
285.7117, 10254.25
286.1938, 10270.38
286.6760, 10273.73
287.1581, 10248.19
287.6402, 10223.11
288.1223, 10220.86
288.6044, 10237.76
289.0865, 10248.70
289.5687, 10224.17
290.0508, 10162.70
290.5329, 10126.46
291.0150, 10132.90
291.4971, 10147.62
291.9792, 10165.83
292.4614, 10181.96
292.9435, 10185.15
293.4256, 10163.15
293.9077, 10127.93
294.3898, 10120.44
294.8719, 10157.53
295.3541, 10184.36
295.8362, 10168.79
296.3183, 10137.96
296.8004, 10121.38
297.2825, 10129.45
297.7646, 10148.52
298.2468, 10163.41
298.7289, 10174.08
299.2110, 10181.44
299.6931, 10188.68
300.1752, 10189.73
300.6573, 10173.07
301.1395, 10136.84
301.6216, 10111.50
302.1037, 10129.09
302.5858, 10176.75
303.0679, 10202.83
303.5500, 10191.47
304.0321, 10172.98
304.5143, 10180.02
304.9964, 10206.47
305.4785, 10223.59
305.9606, 10212.54
306.4427, 10191.71
306.9248, 10187.51
307.4070, 10202.11
307.8891, 10215.25
308.3712, 10210.58
308.8533, 10193.00
309.3354, 10185.31
309.8175, 10190.09
310.2997, 10202.87
310.7818, 10229.27
311.2639, 10263.12
311.7460, 10283.29
312.2281, 10278.20
312.7102, 10258.15
313.1924, 10250.16
313.6745, 10266.66
314.1566, 10268.01
314.6387, 10232.59
315.1208, 10183.57
315.6029, 10147.61
316.0851, 10131.31
316.5672, 10128.23
317.0493, 10132.17
317.5314, 10147.56
318.0135, 10152.42
318.4956, 10138.58
318.9778, 10122.16
319.4599, 10110.57
319.9420, 10104.70
320.4241, 10103.81
320.9062, 10108.06
321.3883, 10116.86
321.8705, 10121.79
322.3526, 10123.76
322.8347, 10120.56
323.3168, 10107.50
323.7989, 10090.37
324.2810, 10074.61
324.7632, 10062.63
325.2453, 10056.94
325.7274, 10063.73
326.2095, 10087.71
326.6916, 10114.57
327.1737, 10160.11
327.6559, 10195.65
328.1380, 10193.42
328.6201, 10154.84
329.1022, 10112.16
329.5843, 10097.17
330.0664, 10110.67
330.5486, 10130.10
331.0307, 10166.51
331.5128, 10194.98
331.9949, 10201.04
332.4770, 10191.46
332.9591, 10180.99
333.4413, 10178.54
333.9234, 10178.56
334.4055, 10168.73
334.8876, 10147.08
335.3697, 10123.42
335.8518, 10088.51
336.3340, 10060.47
336.8161, 10067.59
337.2982, 10125.74
337.7803, 10179.00
338.2624, 10173.51
338.7445, 10122.93
339.2267, 10091.39
339.7088, 10099.77
340.1909, 10123.02
340.6730, 10130.41
341.1551, 10122.90
341.6372, 10117.16
342.1194, 10119.39
342.6015, 10124.72
343.0836, 10125.28
343.5657, 10120.91
344.0478, 10122.66
344.5299, 10142.03
345.0121, 10176.38
345.4942, 10196.13
345.9763, 10191.59
346.4584, 10184.24
346.9405, 10179.83
347.4226, 10179.00
347.9048, 10182.37
348.3869, 10190.23
348.8690, 10202.33
349.3511, 10218.57
349.8332, 10247.44
350.3153, 10266.79
350.7975, 10268.21
351.2796, 10266.40
351.7617, 10272.28
352.2438, 10287.00
352.7259, 10305.33
353.2080, 10322.04
353.6902, 10336.77
354.1723, 10354.29
354.6544, 10373.52
355.1365, 10397.08
355.6186, 10436.23
356.1007, 10478.05
356.5829, 10497.51
357.0650, 10477.00
357.5471, 10444.62
358.0292, 10472.90
358.5113, 10594.18
358.9934, 10677.44
359.4756, 10648.52
359.9577, 10598.38
360.4398, 10589.99
360.9219, 10631.47
361.4040, 10688.70
361.8861, 10740.74
362.3683, 10787.00
362.8504, 10820.86
363.3325, 10835.52
363.8146, 10850.26
364.2967, 10876.11
364.7788, 10912.76
365.2610, 10962.29
365.7431, 11040.89
366.2252, 11121.30
366.7073, 11173.25
367.1894, 11199.45
367.6715, 11225.23
368.1537, 11262.27
368.6358, 11305.95
369.1179, 11344.15
369.6000, 11373.03
370.0821, 11405.87
370.5642, 11460.58
371.0464, 11514.92
371.5285, 11535.45
372.0106, 11516.73
372.4927, 11487.05
372.9748, 11478.31
373.4569, 11496.59
373.9391, 11494.87
374.4212, 11464.37
374.9033, 11426.19
375.3854, 11388.37
375.8675, 11349.57
376.3496, 11304.49
376.8318, 11249.74
377.3139, 11189.10
377.7960, 11133.01
378.2781, 11081.77
378.7602, 11034.49
379.2423, 10993.41
379.7245, 10953.84
380.2066, 10913.12
380.6887, 10870.29
381.1708, 10824.56
381.6529, 10770.80
382.1350, 10709.57
382.6172, 10662.37
383.0993, 10635.81
383.5814, 10614.16
384.0635, 10593.61
384.5456, 10571.35
385.0277, 10540.67
385.5099, 10493.14
385.9920, 10444.76
386.4741, 10420.07
386.9562, 10417.96
387.4383, 10408.01
387.9204, 10371.12
388.4026, 10330.88
388.8847, 10328.58
389.3668, 10371.32
389.8489, 10398.11
390.3310, 10374.24
390.8131, 10329.49
391.2953, 10301.87
391.7774, 10295.83
392.2595, 10296.60
392.7416, 10294.02
393.2237, 10287.85
393.7058, 10274.32
394.1880, 10239.75
394.6701, 10214.39
395.1522, 10217.61
395.6343, 10233.57
396.1164, 10236.43
396.5985, 10216.31
397.0807, 10185.96
397.5628, 10167.22
398.0449, 10162.71
398.5270, 10164.48
399.0091, 10181.65
399.4912, 10196.29
399.9734, 10200.79
400.4555, 10194.56
400.9376, 10178.33
401.4197, 10148.85
401.9018, 10111.89
402.3839, 10090.87
402.8660, 10092.04
403.3481, 10094.38
403.8303, 10095.21
404.3124, 10091.22
404.7945, 10076.02
405.2766, 10047.01
405.7587, 10019.35
406.2408, 10008.17
406.7230, 10008.73
407.2051, 10002.65
407.6872, 9985.639
408.1693, 9965.458
408.6514, 9946.906
409.1335, 9930.532
409.6157, 9920.322
410.0978, 9919.412
410.5799, 9922.616
411.0620, 9933.175
411.5441, 9945.717
412.0262, 9942.140
412.5084, 9912.176
412.9905, 9869.361
413.4726, 9843.391
413.9547, 9850.991
414.4368, 9848.232
414.9189, 9825.575
415.4011, 9799.787
415.8832, 9782.834
416.3653, 9774.987
416.8474, 9770.412
417.3295, 9765.749
417.8116, 9759.946
418.2938, 9741.495
418.7759, 9691.431
419.2580, 9658.063
419.7401, 9659.902
420.2222, 9678.067
420.7043, 9696.312
421.1865, 9710.238
421.6686, 9716.838
422.1507, 9710.980
422.6328, 9693.528
423.1149, 9673.913
423.5970, 9650.542
424.0792, 9629.879
424.5613, 9618.477
425.0434, 9613.821
425.5255, 9609.440
426.0076, 9599.465
426.4897, 9592.526
426.9719, 9602.863
427.4540, 9624.661
427.9361, 9630.976
428.4182, 9607.271
428.9003, 9571.375
429.3824, 9558.008
429.8646, 9580.708
430.3467, 9590.901
430.8288, 9569.923
431.3109, 9547.372
431.7930, 9550.248
432.2751, 9574.332
432.7573, 9594.413
433.2394, 9591.312
433.7215, 9569.774
434.2036, 9558.330
434.6857, 9563.191
435.1678, 9569.362
435.6500, 9574.412
436.1321, 9579.813
436.6142, 9590.979
437.0963, 9607.363
437.5784, 9615.574
438.0605, 9593.023
438.5427, 9545.155
439.0248, 9525.699
439.5069, 9548.767
439.9890, 9575.263
440.4711, 9583.070
440.9532, 9577.784
441.4354, 9566.545
441.9175, 9546.637
442.3996, 9527.734
442.8817, 9516.500
443.3638, 9511.929
443.8459, 9512.370
444.3281, 9518.153
444.8102, 9524.534
445.2923, 9524.333
445.7744, 9514.550
446.2565, 9515.062
446.7386, 9544.681
447.2208, 9566.603
447.7029, 9551.302
448.1850, 9513.613
448.6671, 9488.941
449.1492, 9495.895
449.6313, 9519.376
450.1135, 9522.890
450.5956, 9496.317
451.0777, 9473.047
451.5598, 9449.757
452.0419, 9434.672
452.5240, 9439.667
453.0062, 9458.910
453.4883, 9471.296
453.9704, 9459.504
454.4525, 9433.503
454.9346, 9415.733
455.4167, 9405.946
455.8989, 9407.884
456.3810, 9440.101
456.8631, 9472.498
457.3452, 9455.944
457.8273, 9377.735
458.3094, 9312.268
458.7916, 9298.421
459.2737, 9309.510
459.7558, 9311.116
460.2379, 9299.872
460.7200, 9290.389
461.2021, 9294.000
461.6843, 9308.812
462.1664, 9319.974
462.6485, 9331.535
463.1306, 9334.457
463.6127, 9322.013
464.0948, 9303.259
464.5770, 9283.748
465.0591, 9266.414
465.5412, 9257.500
466.0233, 9269.004
466.5054, 9300.546
466.9875, 9306.738
467.4697, 9264.869
467.9518, 9233.008
468.4339, 9245.993
468.9160, 9276.350
469.3981, 9286.624
469.8802, 9264.014
470.3624, 9234.785
470.8445, 9221.348
471.3266, 9220.059
471.8087, 9217.645
472.2908, 9210.721
472.7729, 9207.300
473.2551, 9218.592
473.7372, 9243.380
474.2193, 9251.917
474.7014, 9236.254
475.1835, 9212.839
475.6656, 9176.508
476.1478, 9140.414
476.6299, 9128.917
477.1120, 9149.357
477.5941, 9182.988
478.0762, 9203.451
478.5583, 9208.487
479.0405, 9210.353
479.5226, 9205.296
480.0047, 9200.786
480.4868, 9202.757
480.9689, 9206.118
481.4510, 9200.307
481.9332, 9178.859
482.4153, 9156.129
482.8974, 9154.493
483.3795, 9172.851
483.8616, 9182.970
484.3438, 9175.802
484.8259, 9165.302
485.3080, 9164.973
485.7901, 9172.992
486.2722, 9181.863
486.7543, 9195.207
487.2365, 9204.431
487.7186, 9202.914
488.2007, 9192.737
488.6828, 9175.669
489.1649, 9151.667
489.6470, 9132.273
490.1292, 9138.284
490.6113, 9184.362
491.0934, 9211.005
491.5755, 9204.232
492.0576, 9195.025
492.5397, 9197.942
493.0219, 9207.959
493.5040, 9214.704
493.9861, 9213.601
494.4682, 9205.027
494.9503, 9185.339
495.4324, 9153.071
495.9146, 9133.508
496.3967, 9139.286
496.8788, 9148.135
497.3609, 9134.099
497.8430, 9104.932
498.3251, 9094.337
498.8073, 9131.164
499.2894, 9172.785
499.7715, 9183.946
500.2536, 9171.966
500.7357, 9157.901
501.2178, 9149.302
501.6999, 9143.203
502.1820, 9134.063
502.6642, 9116.839
503.1463, 9115.193
503.6284, 9143.391
504.1105, 9170.412
504.5926, 9181.573
505.0747, 9182.342
505.5569, 9184.661
506.0390, 9194.097
506.5211, 9204.055
507.0032, 9201.159
507.4853, 9184.040
507.9674, 9176.257
508.4496, 9184.627
508.9317, 9197.782
509.4138, 9207.647
509.8959, 9215.507
510.3780, 9225.129
510.8601, 9242.339
511.3423, 9256.414
511.8244, 9258.336
512.3065, 9251.074
512.7886, 9236.825
513.2708, 9215.494
513.7529, 9205.261
514.2350, 9233.771
514.7171, 9312.893
515.1992, 9355.448
515.6813, 9344.248
516.1635, 9320.583
516.6456, 9282.362
517.1277, 9245.242
517.6098, 9233.513
518.0919, 9254.769
518.5740, 9283.746
519.0562, 9286.670
519.5383, 9264.644
520.0204, 9252.688
520.5025, 9257.916
520.9846, 9263.484
521.4667, 9263.860
521.9489, 9256.178
522.4310, 9230.985
522.9131, 9172.429
523.3952, 9122.914
523.8773, 9112.825
524.3594, 9123.393
524.8416, 9122.678
525.3237, 9105.290
525.8058, 9089.577
526.2879, 9094.400
526.7700, 9117.996
527.2521, 9120.254
527.7343, 9074.204
528.2164, 9039.903
528.6985, 9026.851
529.1806, 9027.718
529.6627, 9045.416
530.1448, 9075.312
530.6270, 9090.100
531.1091, 9048.603
531.5912, 8972.636
532.0733, 8947.634
532.5554, 8983.467
533.0375, 9015.334
533.5197, 9008.494
534.0018, 8983.588
534.4839, 8979.639
534.9660, 9001.516
535.4481, 9024.166
535.9302, 9049.739
536.4124, 9066.936
536.8945, 9060.778
537.3766, 9035.343
537.8587, 9006.653
538.3408, 8983.486
538.8229, 8967.839
539.3051, 8967.565
539.7872, 8993.945
540.2693, 9009.553
540.7514, 9007.865
541.2335, 8997.981
541.7156, 8978.424
542.1978, 8954.037
542.6799, 8937.377
543.1620, 8937.198
543.6441, 8943.439
544.1262, 8942.664
544.6083, 8936.481
545.0905, 8937.494
545.5726, 8952.288
546.0547, 8964.427
546.5368, 8954.094
547.0189, 8918.308
547.5010, 8884.857
547.9832, 8845.861
548.4653, 8817.811
548.9474, 8807.998
549.4295, 8812.795
549.9116, 8833.790
550.3937, 8868.886
550.8758, 8898.633
551.3579, 8898.047
551.8400, 8867.752
552.3221, 8831.304
552.8043, 8777.736
553.2864, 8740.520
553.7685, 8751.413
554.2506, 8781.174
554.7327, 8796.204
555.2148, 8791.553
555.6970, 8777.278
556.1791, 8753.568
556.6612, 8725.516
557.1433, 8690.391
557.6254, 8652.983
558.1075, 8645.393
558.5897, 8693.243
559.0718, 8773.183
559.5539, 8810.990
560.0360, 8782.681
560.5181, 8752.790
561.0002, 8717.113
561.4824, 8686.187
561.9645, 8670.454
562.4466, 8664.985
562.9287, 8655.183
563.4108, 8630.878
563.8929, 8603.648
564.3751, 8592.591
564.8572, 8595.722
565.3393, 8594.326
565.8214, 8582.755
566.3035, 8569.265
566.7856, 8561.826
567.2678, 8560.687
567.7499, 8560.030
568.2320, 8552.241
568.7141, 8553.760
569.1962, 8583.318
569.6783, 8619.307
570.1605, 8635.548
570.6426, 8626.308
571.1247, 8601.796
571.6068, 8565.688
572.0889, 8522.232
572.5710, 8511.896
573.0532, 8549.182
573.5353, 8581.186
574.0174, 8584.607
574.4995, 8576.259
574.9816, 8576.359
575.4637, 8586.950
575.9459, 8586.984
576.4280, 8553.698
576.9101, 8517.275
577.3922, 8513.399
577.8743, 8534.055
578.3564, 8544.361
578.8386, 8527.828
579.3207, 8500.351
579.8028, 8490.757
580.2849, 8504.703
580.7670, 8517.286
581.2491, 8536.774
581.7313, 8545.771
582.2134, 8530.430
582.6955, 8503.202
583.1776, 8483.329
583.6597, 8477.306
584.1418, 8475.096
584.6240, 8468.505
585.1061, 8459.183
585.5882, 8451.927
586.0703, 8447.368
586.5524, 8439.995
587.0345, 8423.844
587.5167, 8403.825
587.9988, 8398.081
588.4809, 8424.951
588.9630, 8440.130
589.4451, 8431.082
589.9272, 8419.891
590.4094, 8423.852
590.8915, 8439.034
591.3736, 8451.189
591.8557, 8453.420
592.3378, 8446.231
592.8199, 8423.432
593.3021, 8386.254
593.7842, 8370.850
594.2663, 8392.140
594.7484, 8415.988
595.2305, 8411.942
595.7126, 8383.270
596.1948, 8360.396
596.6769, 8344.924
597.1590, 8333.954
597.6411, 8327.443
598.1232, 8324.444
598.6053, 8325.819
599.0875, 8330.361
599.5696, 8332.451
600.0517, 8325.941
600.5338, 8315.498
601.0159, 8320.516
601.4980, 8346.196
601.9802, 8365.483
602.4623, 8375.142
602.9444, 8372.382
603.4265, 8349.066
603.9086, 8308.727
604.3907, 8277.560
604.8729, 8259.755
605.3550, 8254.652
605.8371, 8274.624
606.3192, 8303.463
606.8013, 8308.463
607.2834, 8283.203
607.7656, 8253.412
608.2477, 8247.230
608.7298, 8262.544
609.2119, 8266.184
609.6940, 8251.684
610.1761, 8238.077
610.6583, 8232.972
611.1404, 8229.133
611.6225, 8217.018
612.1046, 8197.478
612.5867, 8188.523
613.0688, 8210.536
613.5510, 8236.294
614.0331, 8235.051
614.5152, 8215.146
614.9973, 8203.300
615.4794, 8208.517
615.9615, 8219.916
616.4437, 8223.860
616.9258, 8219.903
617.4079, 8214.021
617.8900, 8197.932
618.3721, 8191.707
618.8542, 8214.619
619.3364, 8240.492
619.8185, 8238.647
620.3006, 8206.297
620.7827, 8175.106
621.2648, 8167.490
621.7469, 8169.597
622.2291, 8162.111
622.7112, 8146.707
623.1933, 8135.119
623.6754, 8132.285
624.1575, 8131.879
624.6396, 8123.916
625.1218, 8105.830
625.6039, 8094.694
626.0860, 8093.040
626.5681, 8095.602
627.0502, 8107.399
627.5323, 8119.471
628.0145, 8122.526
628.4966, 8114.703
628.9787, 8098.468
629.4608, 8066.244
629.9429, 8030.972
630.4250, 8016.329
630.9072, 8020.964
631.3893, 8030.284
631.8714, 8039.415
632.3535, 8045.521
632.8356, 8042.606
633.3177, 8025.726
633.7999, 8022.543
634.2820, 8058.209
634.7641, 8077.685
635.2462, 8049.617
635.7283, 8004.193
636.2104, 7976.417
636.6926, 7974.117
637.1747, 7983.172
637.6568, 8000.514
638.1389, 8018.958
638.6210, 8023.746
639.1031, 8015.379
639.5853, 8002.154
640.0674, 7985.963
640.5495, 7971.520
641.0316, 7966.714
641.5137, 7974.622
641.9958, 7978.105
642.4780, 7980.294
642.9601, 7974.739
643.4422, 7945.159
643.9243, 7914.170
644.4064, 7916.324
644.8885, 7955.776
645.3707, 7987.782
645.8528, 7967.268
646.3349, 7921.890
646.8170, 7903.609
647.2991, 7910.779
647.7813, 7919.018
648.2634, 7919.680
648.7455, 7914.711
649.2276, 7905.420
649.7097, 7889.650
650.1918, 7883.475
650.6740, 7902.408
651.1561, 7912.014
651.6382, 7894.680
652.1203, 7868.910
652.6024, 7854.614
653.0845, 7854.759
653.5667, 7859.033
654.0488, 7858.618
654.5309, 7859.050
655.0130, 7875.912
655.4951, 7904.330
655.9772, 7912.361
656.4594, 7886.992
656.9415, 7853.792
657.4236, 7846.015
657.9057, 7866.219
658.3878, 7871.603
658.8699, 7842.811
659.3521, 7823.461
659.8342, 7828.751
660.3163, 7841.339
660.7984, 7844.485
661.2805, 7837.695
661.7626, 7833.012
662.2448, 7845.382
662.7269, 7856.622
663.2090, 7838.623
663.6911, 7800.981
664.1732, 7774.142
664.6553, 7766.639
665.1375, 7768.905
665.6196, 7773.000
666.1017, 7778.272
666.5838, 7773.939
667.0659, 7749.027
667.5480, 7733.014
668.0302, 7736.044
668.5123, 7744.390
668.9944, 7749.150
669.4765, 7750.424
669.9586, 7752.505
670.4407, 7761.848
670.9229, 7766.324
671.4050, 7752.354
671.8871, 7727.450
672.3692, 7703.626
672.8513, 7684.083
673.3334, 7673.079
673.8156, 7675.723
674.2977, 7687.011
674.7798, 7685.691
675.2619, 7666.238
675.7440, 7649.867
676.2261, 7645.071
676.7083, 7637.499
677.1904, 7606.532
677.6725, 7566.804
678.1546, 7558.411
678.6367, 7606.697
679.1188, 7652.800
679.6010, 7665.850
680.0831, 7661.116
680.5652, 7656.078
681.0473, 7651.561
681.5294, 7638.531
682.0115, 7610.766
682.4937, 7579.199
682.9758, 7568.533
683.4579, 7581.454
683.9400, 7585.929
684.4221, 7577.957
684.9042, 7565.020
685.3864, 7545.338
685.8685, 7525.795
686.3506, 7520.361
686.8327, 7533.231
687.3148, 7547.860
687.7969, 7572.121
688.2791, 7586.165
688.7612, 7567.196
689.2433, 7529.241
689.7254, 7498.665
690.2075, 7485.440
690.6896, 7486.238
691.1718, 7506.231
691.6539, 7538.775
692.1360, 7541.434
692.6181, 7508.903
693.1002, 7494.605
693.5823, 7526.646
694.0645, 7576.554
694.5466, 7603.916
695.0287, 7605.821
695.5108, 7598.990
695.9929, 7568.818
696.4750, 7547.869
696.9572, 7553.313
697.4393, 7568.937
697.9214, 7573.841
698.4035, 7567.490
698.8856, 7570.111
699.3677, 7605.655
699.8499, 7648.606
700.3320, 7654.967
700.8141, 7633.920
701.2962, 7624.746
701.7783, 7637.115
702.2604, 7661.360
702.7426, 7690.602
703.2247, 7723.297
703.7068, 7748.820
704.1889, 7768.817
704.6710, 7778.394
705.1531, 7761.977
705.6353, 7748.959
706.1174, 7759.518
706.5995, 7787.382
707.0816, 7814.857
707.5637, 7839.570
708.0458, 7856.759
708.5280, 7850.257
709.0101, 7841.978
709.4922, 7872.382
709.9743, 7933.207
710.4564, 7972.779
710.9385, 7961.496
711.4207, 7927.745
711.9028, 7926.056
712.3849, 7959.975
712.8670, 7979.563
713.3491, 7979.859
713.8312, 7973.656
714.3134, 7961.831
714.7955, 7950.270
715.2776, 7952.720
715.7597, 7974.726
716.2418, 7980.821
716.7239, 7961.476
717.2061, 7929.839
717.6882, 7877.287
718.1703, 7823.768
718.6524, 7798.814
719.1345, 7807.404
719.6166, 7829.180
720.0988, 7862.850
720.5809, 7888.357
721.0630, 7843.510
721.5451, 7738.352
722.0272, 7678.122
722.5093, 7697.196
722.9915, 7731.652
723.4736, 7719.100
723.9557, 7663.958
724.4378, 7619.093
724.9199, 7583.952
725.4020, 7560.811
725.8842, 7558.714
726.3663, 7559.698
726.8484, 7555.002
727.3305, 7544.087
727.8126, 7527.473
728.2947, 7504.479
728.7769, 7478.103
729.2590, 7440.685
729.7411, 7406.567
730.2232, 7404.474
730.7053, 7426.126
731.1874, 7430.496
731.6696, 7396.448
732.1517, 7346.799
732.6338, 7320.046
733.1159, 7316.740
733.5980, 7304.493
734.0801, 7279.428
734.5623, 7256.416
735.0444, 7240.364
735.5265, 7230.894
736.0086, 7229.554
736.4907, 7237.846
736.9728, 7240.824
737.4550, 7235.143
737.9371, 7227.025
738.4192, 7214.507
738.9013, 7203.356
739.3834, 7202.233
739.8655, 7210.008
740.3477, 7214.528
740.8298, 7205.370
741.3119, 7193.416
741.7940, 7194.160
742.2761, 7203.998
742.7582, 7212.660
743.2404, 7218.180
743.7225, 7220.771
744.2046, 7220.853
744.6867, 7217.538
745.1688, 7207.593
745.6509, 7189.067
746.1331, 7169.634
746.6152, 7143.906
747.0973, 7124.961
747.5793, 7123.995
748.0615, 7132.093
748.5436, 7136.667
749.0257, 7136.866
749.5078, 7132.883
749.9899, 7122.770
750.4720, 7110.463
750.9542, 7093.983
751.4363, 7078.857
751.9184, 7077.449
752.4005, 7090.670
752.8826, 7100.845
753.3647, 7092.133
753.8469, 7069.885
754.3290, 7043.074
754.8111, 7012.467
755.2932, 6983.550
755.7753, 6956.842
756.2574, 6939.505
756.7396, 6941.042
757.2217, 6956.003
757.7038, 6952.779
758.1859, 6914.881
758.6680, 6891.311
759.1501, 6899.313
759.6323, 6908.897
760.1144, 6904.432
760.5965, 6891.901
761.0786, 6883.103
761.5607, 6880.617
762.0428, 6879.709
762.5250, 6885.899
763.0071, 6886.273
763.4892, 6859.944
763.9713, 6821.176
764.4534, 6800.909
764.9355, 6808.264
765.4177, 6827.133
765.8998, 6848.613
766.3819, 6866.109
766.8640, 6850.013
767.3461, 6801.815
767.8282, 6775.753
768.3104, 6789.933
768.7925, 6809.887
769.2746, 6802.129
769.7567, 6771.879
770.2388, 6756.851
770.7209, 6771.942
771.2031, 6775.681
771.6852, 6747.665
772.1673, 6725.747
772.6494, 6739.407
773.1315, 6770.417
773.6136, 6781.530
774.0958, 6761.268
774.5779, 6740.121
775.0600, 6731.984
775.5421, 6728.253
776.0242, 6725.555
776.5063, 6720.342
776.9885, 6700.875
777.4706, 6666.395
777.9527, 6642.662
778.4348, 6664.437
778.9169, 6709.889
779.3990, 6711.553
779.8812, 6672.949
780.3633, 6652.407
780.8454, 6666.246
781.3275, 6683.773
781.8096, 6678.549
782.2917, 6654.854
782.7739, 6633.041
783.2560, 6611.608
783.7381, 6594.993
784.2202, 6579.755
784.7023, 6573.771
785.1844, 6586.481
785.6666, 6608.625
786.1487, 6626.668
786.6308, 6639.947
787.1129, 6642.937
787.5950, 6622.770
788.0771, 6602.787
788.5593, 6603.212
789.0414, 6612.669
789.5235, 6608.229
790.0056, 6587.931
790.4877, 6576.271
790.9698, 6600.656
791.4520, 6634.177
791.9341, 6621.840
792.4162, 6575.056
792.8983, 6544.439
793.3804, 6539.083
793.8625, 6542.989
794.3447, 6546.898
794.8268, 6547.636
795.3089, 6533.904
795.7910, 6497.455
796.2731, 6479.462
796.7552, 6489.370
797.2374, 6502.718
797.7195, 6512.612
798.2016, 6517.657
798.6837, 6513.682
799.1658, 6499.339
799.6479, 6492.135
800.1301, 6510.765
800.6122, 6516.904
801.0943, 6482.717
801.5764, 6438.046
802.0585, 6409.622
802.5406, 6400.969
803.0228, 6409.025
803.5049, 6440.227
803.9870, 6468.008
804.4691, 6462.189
804.9512, 6437.299
805.4333, 6412.229
805.9155, 6392.468
806.3976, 6393.775
806.8797, 6424.143
807.3618, 6458.992
807.8439, 6460.604
808.3260, 6431.702
808.8082, 6407.149
809.2903, 6385.896
809.7724, 6376.254
810.2545, 6382.264
810.7366, 6398.273
811.2188, 6425.028
811.7009, 6459.360
812.1830, 6461.308
812.6651, 6387.954
813.1472, 6348.097
813.6293, 6379.674
814.1115, 6413.619
814.5936, 6403.138
815.0757, 6369.795
815.5578, 6360.869
816.0399, 6391.400
816.5220, 6411.342
817.0042, 6389.347
817.4863, 6359.426
817.9684, 6342.187
818.4505, 6337.312
818.9326, 6348.441
819.4147, 6371.740
819.8969, 6382.874
820.3790, 6357.553
820.8611, 6318.424
821.3432, 6303.696
821.8253, 6307.152
822.3074, 6306.445
822.7896, 6298.521
823.2717, 6291.650
823.7538, 6290.955
824.2359, 6294.328
824.7180, 6298.513
825.2001, 6304.136
825.6823, 6303.417
826.1644, 6291.345
826.6465, 6288.429
827.1286, 6309.185
827.6107, 6333.623
828.0928, 6334.990
828.5750, 6312.919
829.0571, 6303.280
829.5392, 6319.409
830.0213, 6328.674
830.5034, 6327.142
830.9855, 6316.765
831.4677, 6294.746
831.9498, 6265.833
832.4319, 6237.774
832.9140, 6210.315
833.3961, 6194.667
833.8782, 6200.405
834.3604, 6216.728
834.8425, 6242.650
835.3246, 6269.371
835.8067, 6281.157
836.2888, 6275.470
836.7709, 6263.879
837.2531, 6253.030
837.7352, 6245.020
838.2173, 6246.789
838.6994, 6254.649
839.1815, 6252.564
839.6636, 6239.071
840.1458, 6229.366
840.6279, 6233.359
841.1100, 6242.054
841.5921, 6237.391
842.0742, 6218.314
842.5563, 6201.791
843.0385, 6187.196
843.5206, 6178.293
844.0027, 6178.823
844.4848, 6181.682
844.9669, 6178.604
845.4490, 6170.031
845.9312, 6165.322
846.4133, 6176.123
846.8954, 6173.604
847.3775, 6136.438
847.8596, 6105.541
848.3417, 6110.497
848.8239, 6135.572
849.3060, 6151.068
849.7881, 6151.048
850.2702, 6149.781
850.7523, 6155.367
851.2344, 6157.975
851.7166, 6147.362
852.1987, 6132.181
852.6808, 6124.184
853.1629, 6124.520
853.6450, 6127.313
854.1271, 6129.503
854.6093, 6132.037
855.0914, 6139.249
855.5735, 6146.170
856.0556, 6142.375
856.5377, 6128.463
857.0198, 6108.183
857.5020, 6083.261
857.9841, 6067.140
858.4662, 6082.356
858.9483, 6119.807
859.4304, 6135.648
859.9125, 6129.796
860.3947, 6117.133
860.8768, 6100.427
861.3589, 6080.916
861.8410, 6056.854
862.3231, 6033.833
862.8052, 6031.944
863.2874, 6060.285
863.7695, 6080.379
864.2516, 6090.613
864.7337, 6094.042
865.2158, 6086.318
865.6979, 6076.611
866.1801, 6080.220
866.6622, 6097.515
867.1443, 6102.615
867.6264, 6087.844
868.1085, 6070.112
868.5906, 6043.534
869.0728, 6023.499
869.5549, 6022.958
870.0370, 6037.206
870.5191, 6058.399
871.0012, 6088.822
871.4833, 6102.202
871.9655, 6075.647
872.4476, 6038.417
872.9297, 6004.872
873.4118, 5979.079
873.8939, 5966.513
874.3760, 5966.787
874.8582, 5973.558
875.3403, 5985.224
875.8224, 5996.361
876.3045, 6000.435
876.7866, 5999.731
877.2687, 5999.036
877.7509, 5998.218
878.2330, 5995.347
878.7151, 5989.540
879.1972, 5977.789
879.6793, 5951.916
880.1614, 5919.012
880.6436, 5908.934
881.1257, 5920.332
881.6078, 5930.674
882.0899, 5935.387
882.5720, 5937.382
883.0541, 5938.686
883.5363, 5938.832
884.0184, 5935.187
884.5005, 5925.318
884.9826, 5927.909
885.4647, 5951.779
885.9468, 5962.604
886.4290, 5941.736
886.9111, 5912.359
887.3932, 5900.165
887.8753, 5903.869
888.3574, 5905.073
888.8395, 5905.927
889.3217, 5900.775
889.8038, 5885.178
890.2859, 5868.194
890.7680, 5850.482
891.2501, 5835.832
891.7322, 5832.173
892.2144, 5841.472
892.6965, 5846.377
893.1786, 5840.021
893.6607, 5832.740
894.1428, 5823.932
894.6249, 5819.715
895.1071, 5828.892
895.5892, 5847.448
896.0713, 5864.145
896.5534, 5876.771
897.0355, 5879.713
897.5176, 5860.283
897.9998, 5837.986
898.4819, 5832.147
898.9640, 5836.480
899.4461, 5840.625
899.9282, 5841.117
900.4103, 5834.958
900.8925, 5817.358
901.3746, 5798.389
901.8567, 5789.313
902.3388, 5788.151
902.8209, 5795.072
903.3030, 5806.676
903.7852, 5809.941
904.2673, 5799.853
904.7494, 5785.452
905.2315, 5776.052
905.7136, 5770.354
906.1957, 5762.950
906.6779, 5754.929
907.1600, 5758.554
907.6421, 5775.806
908.1242, 5782.902
908.6063, 5762.748
909.0884, 5734.599
909.5706, 5739.365
910.0527, 5777.761
910.5348, 5788.959
911.0169, 5767.585
911.4990, 5750.938
911.9811, 5751.021
912.4633, 5754.041
912.9454, 5748.062
913.4275, 5734.956
913.9096, 5721.746
914.3917, 5705.536
914.8738, 5697.927
915.3560, 5702.667
915.8381, 5709.613
916.3202, 5715.520
916.8023, 5721.082
917.2844, 5729.738
917.7665, 5741.352
918.2487, 5739.401
918.7308, 5702.238
919.2129, 5683.813
919.6950, 5708.067
920.1771, 5730.526
920.6592, 5723.189
921.1414, 5701.072
921.6235, 5689.199
922.1056, 5690.717
922.5877, 5690.621
923.0698, 5683.064
923.5519, 5677.377
924.0341, 5677.928
924.5162, 5680.646
924.9983, 5683.784
925.4804, 5685.867
925.9625, 5683.649
926.4446, 5675.357
926.9268, 5668.362
927.4089, 5671.738
927.8910, 5671.258
928.3731, 5645.893
928.8552, 5617.578
929.3373, 5620.212
929.8195, 5650.145
930.3016, 5674.313
930.7837, 5677.130
931.2658, 5672.360
931.7479, 5666.996
932.2300, 5662.643
932.7122, 5661.626
933.1943, 5662.958
933.6764, 5667.484
934.1585, 5673.361
934.6406, 5668.583
935.1227, 5639.017
935.6049, 5607.705
936.0870, 5609.278
936.5691, 5626.954
937.0512, 5624.944
937.5333, 5607.127
938.0154, 5603.055
938.4976, 5622.002
938.9797, 5636.501
939.4618, 5614.807
939.9439, 5576.922
940.4260, 5566.475
940.9081, 5576.744
941.3903, 5583.376
941.8724, 5583.366
942.3545, 5580.782
942.8366, 5577.389
943.3187, 5578.560
943.8008, 5595.785
944.2830, 5622.555
944.7651, 5625.748
945.2471, 5607.301
945.7292, 5596.136
946.2114, 5597.749
946.6935, 5605.384
947.1756, 5616.115
947.6577, 5623.922
948.1398, 5614.605
948.6219, 5588.911
949.1041, 5578.013
949.5862, 5584.357
950.0683, 5579.221
950.5504, 5552.343
951.0325, 5528.449
951.5146, 5527.855
951.9968, 5542.188
952.4789, 5548.475
952.9610, 5545.118
953.4431, 5543.067
953.9252, 5541.096
954.4073, 5546.488
954.8895, 5566.502
955.3716, 5582.537
955.8537, 5574.746
956.3358, 5549.657
956.8179, 5535.802
957.3000, 5534.100
957.7822, 5542.591
958.2643, 5571.529
958.7464, 5588.345
959.2285, 5576.390
959.7106, 5552.394
960.1927, 5530.071
960.6749, 5511.033
961.1570, 5510.750
961.6391, 5542.539
962.1212, 5566.448
962.6033, 5580.408
963.0854, 5586.955
963.5676, 5584.693
964.0497, 5577.441
964.5318, 5572.241
965.0139, 5569.014
965.4960, 5551.114
965.9781, 5485.959
966.4603, 5455.871
966.9424, 5497.768
967.4245, 5539.828
967.9066, 5549.113
968.3887, 5538.445
968.8708, 5520.171
969.3530, 5493.760
969.8351, 5488.955
970.3172, 5541.364
970.7993, 5566.854
971.2814, 5523.132
971.7635, 5478.812
972.2457, 5481.001
972.7278, 5506.547
973.2099, 5513.156
973.6920, 5495.371
974.1741, 5488.455
974.6563, 5514.715
975.1384, 5529.082
975.6205, 5505.960
976.1026, 5480.488
976.5847, 5478.844
977.0668, 5492.251
977.5490, 5503.285
978.0311, 5510.006
978.5132, 5509.255
978.9953, 5493.227
979.4774, 5478.879
979.9595, 5471.617
980.4417, 5468.786
980.9238, 5465.827
981.4059, 5466.099
981.8880, 5482.482
982.3701, 5521.543
982.8522, 5538.527
983.3344, 5499.034
983.8165, 5460.908
984.2986, 5450.126
984.7807, 5451.211
985.2628, 5452.927
985.7449, 5453.840
986.2271, 5454.246
986.7092, 5454.179
987.1913, 5453.852
987.6734, 5453.215
988.1555, 5452.494
988.6376, 5449.195
989.1198, 5447.966
989.6019, 5457.746
990.0840, 5472.895
990.5661, 5478.133
991.0482, 5469.065
991.5303, 5453.222
992.0125, 5419.768
992.4946, 5396.644
992.9767, 5409.884
993.4588, 5433.353
993.9409, 5438.613
994.4230, 5429.375
994.9052, 5425.333
995.3873, 5433.277
995.8694, 5437.972
996.3515, 5428.999
996.8336, 5419.189
997.3157, 5418.460
997.7979, 5419.260
998.2800, 5414.082
998.7621, 5402.717
999.2442, 5385.000
999.7263, 5358.066
1000.208, 5342.497
1000.691, 5356.211
1001.173, 5374.271
1001.655, 5387.624
1002.137, 5392.587
1002.619, 5377.301
1003.101, 5351.395
1003.583, 5343.666
1004.065, 5365.442
1004.547, 5388.459
1005.030, 5406.371
1005.512, 5414.124
1005.994, 5404.732
1006.476, 5386.622
1006.958, 5362.035
1007.440, 5337.784
1007.922, 5331.455
1008.404, 5351.128
1008.887, 5368.389
1009.369, 5372.401
1009.851, 5368.388
1010.333, 5354.647
1010.815, 5338.062
1011.297, 5321.378
1011.779, 5308.625
1012.261, 5311.327
1012.743, 5336.073
1013.226, 5350.480
1013.708, 5331.525
1014.190, 5310.134
1014.672, 5300.004
1015.154, 5298.007
1015.636, 5303.992
1016.118, 5314.380
1016.600, 5321.170
1017.083, 5321.937
1017.565, 5323.838
1018.047, 5330.062
1018.529, 5337.312
1019.011, 5351.393
1019.493, 5359.465
1019.975, 5343.457
1020.457, 5313.534
1020.939, 5295.312
1021.422, 5295.086
1021.904, 5294.462
1022.386, 5284.495
1022.868, 5277.405
1023.350, 5279.016
1023.832, 5284.727
1024.314, 5297.416
1024.796, 5309.110
1025.279, 5300.716
1025.761, 5266.696
1026.243, 5245.040
1026.725, 5258.211
1027.207, 5266.895
1027.689, 5248.434
1028.171, 5231.430
1028.653, 5238.832
1029.135, 5261.424
1029.618, 5283.460
1030.100, 5303.814
1030.582, 5314.130
1031.064, 5312.855
1031.546, 5301.727
1032.028, 5269.117
1032.510, 5239.424
1032.992, 5228.959
1033.474, 5230.067
1033.957, 5230.161
1034.439, 5228.412
1034.921, 5231.681
1035.403, 5242.189
1035.885, 5255.207
1036.367, 5283.502
1036.849, 5299.025
1037.331, 5274.223
1037.814, 5237.092
1038.296, 5225.635
1038.778, 5239.061
1039.260, 5253.069
1039.742, 5277.901
1040.224, 5284.726
1040.706, 5252.222
1041.188, 5230.756
1041.671, 5247.008
1042.153, 5277.656
1042.635, 5299.310
1043.117, 5312.258
1043.599, 5318.207
1044.081, 5316.922
1044.563, 5307.757
1045.045, 5280.341
1045.527, 5267.173
1046.010, 5284.955
1046.492, 5312.554
1046.974, 5333.116
1047.456, 5344.862
1047.938, 5337.941
1048.420, 5302.823
1048.902, 5288.219
1049.384, 5299.050
1049.866, 5314.785
1050.349, 5331.171
1050.831, 5346.511
1051.313, 5359.568
1051.795, 5370.513
1052.277, 5378.021
1052.759, 5381.132
1053.241, 5401.239
1053.723, 5442.886
1054.205, 5458.954
1054.688, 5434.845
1055.170, 5414.761
1055.652, 5429.545
1056.134, 5456.929
1056.616, 5454.774
1057.098, 5428.271
1057.580, 5420.760
1058.062, 5431.632
1058.545, 5449.547
1059.027, 5472.259
1059.509, 5484.314
1059.991, 5477.492
1060.473, 5460.255
1060.955, 5439.707
1061.437, 5420.267
1061.919, 5417.518
1062.401, 5428.027
1062.884, 5437.427
1063.366, 5444.213
1063.848, 5453.110
1064.330, 5465.424
1064.812, 5468.911
1065.294, 5447.497
1065.776, 5419.665
1066.258, 5420.759
1066.740, 5437.303
1067.223, 5441.562
1067.705, 5433.534
1068.187, 5418.935
1068.669, 5400.850
1069.151, 5386.480
1069.633, 5381.913
1070.115, 5378.451
1070.597, 5361.824
1071.080, 5344.915
1071.562, 5349.641
1072.044, 5364.248
1072.526, 5364.492
1073.008, 5349.537
1073.490, 5336.814
1073.972, 5335.011
1074.454, 5330.895
1074.937, 5312.479
1075.419, 5291.773
1075.901, 5274.061
1076.383, 5262.408
1076.865, 5266.452
1077.347, 5278.347
1077.829, 5274.667
1078.311, 5247.685
1078.793, 5226.716
1079.276, 5225.106
1079.758, 5228.395
1080.240, 5241.566
1080.722, 5246.563
1081.204, 5218.588
1081.686, 5177.600
1082.168, 5160.566
1082.650, 5171.380
1083.132, 5179.717
1083.615, 5183.173
1084.097, 5181.582
1084.579, 5157.622
1085.061, 5149.415
1085.543, 5199.488
1086.025, 5253.564
1086.507, 5243.987
1086.989, 5182.080
1087.472, 5145.433
1087.954, 5139.641
1088.436, 5146.964
1088.918, 5177.510
1089.400, 5197.307
1089.882, 5195.331
1090.364, 5180.592
1090.846, 5156.030
1091.328, 5129.853
1091.811, 5125.767
1092.293, 5145.549
1092.775, 5149.128
1093.257, 5133.983
1093.739, 5131.239
1094.221, 5148.673
1094.703, 5158.831
1095.185, 5144.973
1095.667, 5124.145
1096.150, 5121.619
1096.632, 5130.799
1097.114, 5124.364
1097.596, 5106.372
1098.078, 5100.625
1098.560, 5107.511
1099.042, 5109.982
1099.524, 5101.984
1100.007, 5092.043
1100.489, 5088.569
1100.971, 5084.027
1101.453, 5060.841
1101.935, 5032.582
1102.417, 5025.197
1102.899, 5033.336
1103.381, 5040.429
1103.864, 5044.110
1104.346, 5054.066
1104.828, 5077.289
1105.310, 5095.628
1105.792, 5091.530
1106.274, 5080.719
1106.756, 5076.114
1107.238, 5073.086
1107.720, 5061.048
1108.203, 5046.099
1108.685, 5049.086
1109.167, 5076.037
1109.649, 5089.237
1110.131, 5058.723
1110.613, 5036.066
1111.095, 5047.303
1111.577, 5062.658
1112.059, 5065.401
1112.542, 5058.929
1113.024, 5046.749
1113.506, 5029.752
1113.988, 5018.040
1114.470, 5014.936
1114.952, 5010.773
1115.434, 5001.561
1115.916, 4998.924
1116.399, 5010.234
1116.881, 5022.913
1117.363, 5026.387
1117.845, 5023.657
1118.327, 5021.925
1118.809, 5021.133
1119.291, 5024.354
1119.773, 5033.264
1120.255, 5026.788
1120.738, 4998.807
1121.220, 4985.764
1121.702, 5008.127
1122.184, 5038.974
1122.666, 5045.095
1123.148, 5032.914
1123.630, 5015.605
1124.112, 4996.408
1124.594, 4990.472
1125.077, 4996.094
1125.559, 5000.321
1126.041, 4999.497
1126.523, 4997.238
1127.005, 4995.211
1127.487, 4996.183
1127.969, 5011.332
1128.451, 5024.053
1128.934, 5007.691
1129.416, 4977.936
1129.898, 4957.167
1130.380, 4948.523
1130.862, 4949.991
1131.344, 4961.403
1131.826, 4973.391
1132.308, 4986.708
1132.791, 4992.654
1133.273, 4979.520
1133.755, 4965.643
1134.237, 4967.357
1134.719, 4975.509
1135.201, 4973.631
1135.683, 4962.067
1136.165, 4959.448
1136.647, 4983.695
1137.130, 4985.796
1137.612, 4949.971
1138.094, 4919.395
1138.576, 4906.858
1139.058, 4902.419
1139.540, 4899.686
1140.022, 4898.238
1140.504, 4896.865
1140.986, 4895.602
1141.469, 4898.882
1141.951, 4907.015
1142.433, 4916.495
1142.915, 4927.117
1143.397, 4923.220
1143.879, 4897.554
1144.361, 4868.424
1144.843, 4854.197
1145.326, 4848.261
1145.808, 4835.511
1146.290, 4821.545
1146.772, 4824.301
1147.254, 4837.260
1147.736, 4838.815
1148.218, 4826.903
1148.700, 4814.176
1149.182, 4806.081
1149.665, 4804.804
1150.147, 4822.634
1150.629, 4835.684
1151.111, 4820.161
1151.593, 4794.712
1152.075, 4776.043
1152.557, 4763.875
1153.039, 4752.995
1153.521, 4743.090
1154.004, 4742.242
1154.486, 4769.948
1154.968, 4777.691
1155.450, 4734.479
1155.932, 4702.968
1156.414, 4712.468
1156.896, 4732.791
1157.378, 4742.126
1157.861, 4741.895
1158.343, 4734.086
1158.825, 4717.677
1159.307, 4709.353
1159.789, 4709.353
1160.271, 4719.873
1160.753, 4743.443
1161.235, 4746.209
1161.718, 4711.549
1162.200, 4670.135
1162.682, 4653.134
1163.164, 4652.419
1163.646, 4651.517
1164.128, 4653.213
1164.610, 4670.176
1165.092, 4695.347
1165.574, 4706.883
1166.057, 4703.033
1166.539, 4696.845
1167.021, 4693.982
1167.503, 4693.246
1167.985, 4695.664
1168.467, 4697.583
1168.949, 4696.963
1169.431, 4694.051
1169.913, 4685.025
1170.396, 4676.049
1170.878, 4679.599
1171.360, 4694.746
1171.842, 4701.900
1172.324, 4691.861
1172.806, 4686.875
1173.288, 4689.056
1173.770, 4695.811
1174.253, 4713.828
1174.735, 4723.050
1175.217, 4704.917
1175.699, 4677.275
1176.181, 4671.946
1176.663, 4686.191
1177.145, 4694.775
1177.627, 4697.703
1178.109, 4699.688
1178.592, 4701.083
1179.074, 4699.544
1179.556, 4694.537
1180.038, 4690.186
1180.520, 4689.203
1181.002, 4691.932
1181.484, 4701.533
1181.966, 4712.945
1182.448, 4719.455
1182.931, 4721.955
1183.413, 4719.839
1183.895, 4715.977
1184.377, 4718.947
1184.859, 4730.005
1185.341, 4733.913
1185.823, 4721.020
1186.305, 4705.602
1186.788, 4685.743
1187.270, 4672.616
1187.752, 4670.464
1188.234, 4678.974
1188.716, 4702.270
1189.198, 4734.038
1189.680, 4762.276
1190.162, 4788.914
1190.645, 4782.632
1191.127, 4733.434
1191.609, 4702.269
1192.091, 4698.163
1192.573, 4700.550
1193.055, 4701.336
1193.537, 4704.943
1194.019, 4715.551
1194.501, 4730.924
1194.984, 4751.765
1195.466, 4771.778
1195.948, 4773.501
1196.430, 4763.148
1196.912, 4755.133
1197.394, 4751.080
1197.876, 4745.355
1198.358, 4736.700
1198.840, 4737.474
1199.323, 4764.787
1199.805, 4787.120
1200.287, 4783.202
1200.769, 4776.013
1201.251, 4779.758
1201.733, 4788.369
1202.215, 4796.146
1202.697, 4802.288
1203.180, 4805.660
1203.662, 4806.074
1204.144, 4804.039
1204.626, 4795.403
1205.108, 4800.267
1205.590, 4823.440
1206.072, 4849.578
1206.554, 4873.596
1207.036, 4888.644
1207.519, 4886.616
1208.001, 4877.620
1208.483, 4881.530
1208.965, 4893.747
1209.447, 4900.490
1209.929, 4906.040
1210.411, 4932.439
1210.893, 4968.482
1211.375, 4960.751
1211.858, 4897.901
1212.340, 4865.484
1212.822, 4935.319
1213.304, 4998.845
1213.786, 4992.112
1214.268, 4976.759
1214.750, 4992.991
1215.232, 5015.063
1215.715, 5010.145
1216.197, 4991.958
1216.679, 4996.458
1217.161, 5024.908
1217.643, 5047.434
1218.125, 5064.386
1218.607, 5072.193
1219.089, 5068.960
1219.572, 5068.105
1220.054, 5073.948
1220.536, 5087.429
1221.018, 5110.155
1221.500, 5135.428
1221.982, 5153.356
1222.464, 5166.669
1222.946, 5184.402
1223.428, 5199.616
1223.911, 5189.116
1224.393, 5167.619
1224.875, 5180.160
1225.357, 5229.779
1225.839, 5262.927
1226.321, 5254.410
1226.803, 5241.145
1227.285, 5227.867
1227.767, 5221.960
1228.250, 5229.939
1228.732, 5242.418
1229.214, 5253.735
1229.696, 5265.882
1230.178, 5283.708
1230.660, 5304.446
1231.142, 5311.890
1231.624, 5306.003
1232.107, 5277.777
1232.589, 5229.429
1233.071, 5219.584
1233.553, 5256.646
1234.035, 5287.131
1234.517, 5283.983
1234.999, 5270.281
1235.481, 5268.864
1235.964, 5266.587
1236.446, 5238.666
1236.928, 5212.690
1237.410, 5229.998
1237.892, 5260.939
1238.374, 5255.254
1238.856, 5221.322
1239.338, 5208.958
1239.820, 5232.432
1240.302, 5239.247
1240.785, 5217.200
1241.267, 5198.690
1241.749, 5187.858
1242.231, 5178.040
1242.713, 5165.925
1243.195, 5158.853
1243.677, 5165.863
1244.159, 5172.033
1244.641, 5137.109
##END=



