##NAMES=Olivenite
##RRUFFID=R050532
##IDEAL CHEMISTRY=Cu^2+^_2_As^5+^O_4_(OH)
##LOCALITY=Tsumeb mine, Tsumeb, Otavi District, Oshikoto, Namibia
##OWNER=RRUFF
##SOURCE=University of Arizona Mineral Museum
##DESCRIPTION=Dark green prismatic crystals on botryoidal bayldonite R050670
##STATUS=The identification of this mineral has been confirmed by X-ray diffraction and chemical analysis
##URL=rruff.info/R050532
##MEASURED CHEMISTRY=(Cu_0.99_Zn_0.01_)_2_(As_1.00_O_4_)(OH)
90.92609, 0.0000000E+00
91.40820, 34.83937
91.89032, 34.08191
92.37244, 34.45471
92.85455, 35.78246
93.33667, 37.01686
93.81879, 37.57224
94.30090, 37.46471
94.78302, 36.58535
95.26514, 34.38729
95.74725, 31.84483
96.22937, 31.56750
96.71149, 33.73754
97.19360, 36.13233
97.67572, 36.31232
98.15784, 34.31742
98.63995, 32.86739
99.12207, 32.92949
99.60419, 34.29350
100.0863, 35.15671
100.5684, 35.53778
101.0505, 35.37754
101.5327, 34.21251
102.0148, 31.45151
102.4969, 29.73882
102.9790, 30.39168
103.4611, 34.11750
103.9432, 36.08161
104.4253, 35.21143
104.9075, 33.14859
105.3896, 33.26577
105.8717, 36.80131
106.3538, 40.84371
106.8359, 44.42784
107.3180, 47.64824
107.8002, 50.13453
108.2823, 50.72585
108.7644, 50.35521
109.2465, 52.51285
109.7286, 59.07362
110.2107, 66.79871
110.6929, 74.41399
111.1750, 81.31937
111.6571, 88.65337
112.1392, 96.82076
112.6213, 105.6713
113.1034, 114.2761
113.5856, 121.4868
114.0677, 129.0508
114.5498, 138.1401
115.0319, 148.3241
115.5140, 160.7617
115.9961, 175.7122
116.4783, 193.1824
116.9604, 212.9203
117.4425, 234.7999
117.9246, 259.1831
118.4067, 286.2289
118.8888, 318.4525
119.3710, 351.7910
119.8531, 384.5090
120.3352, 416.4662
120.8173, 446.7605
121.2994, 475.2001
121.7815, 501.2989
122.2637, 524.3055
122.7458, 542.5468
123.2279, 557.9250
123.7100, 572.1099
124.1921, 585.2886
124.6742, 597.2231
125.1564, 605.4235
125.6385, 611.5741
126.1206, 621.0576
126.6027, 637.4021
127.0848, 659.0540
127.5669, 683.0391
128.0491, 708.4919
128.5312, 737.0277
129.0133, 772.2236
129.4954, 813.3080
129.9775, 856.0969
130.4596, 899.1141
130.9418, 941.4794
131.4239, 981.1565
131.9060, 1017.106
132.3881, 1050.862
132.8702, 1085.440
133.3523, 1121.092
133.8345, 1156.384
134.3166, 1189.851
134.7987, 1221.790
135.2808, 1253.431
135.7629, 1285.279
136.2450, 1317.554
136.7272, 1350.339
137.2093, 1383.751
137.6914, 1417.869
138.1735, 1452.875
138.6556, 1488.582
139.1377, 1525.091
139.6199, 1562.853
140.1020, 1601.539
140.5841, 1640.669
141.0662, 1679.046
141.5483, 1718.842
142.0304, 1761.913
142.5126, 1805.815
142.9947, 1857.172
143.4768, 1911.798
143.9589, 1966.421
144.4410, 2023.001
144.9231, 2079.902
145.4053, 2139.930
145.8874, 2209.306
146.3695, 2292.257
146.8516, 2377.943
147.3337, 2462.228
147.8158, 2548.492
148.2980, 2629.045
148.7801, 2706.861
149.2622, 2779.233
149.7443, 2838.694
150.2264, 2889.703
150.7085, 2925.454
151.1907, 2943.099
151.6728, 2938.501
152.1549, 2924.839
152.6370, 2900.225
153.1191, 2866.678
153.6012, 2829.643
154.0834, 2787.455
154.5655, 2743.587
155.0476, 2699.020
155.5297, 2657.738
156.0118, 2611.618
156.4939, 2560.708
156.9761, 2504.210
157.4582, 2440.925
157.9403, 2367.003
158.4224, 2288.616
158.9045, 2208.820
159.3866, 2124.328
159.8688, 2044.215
160.3509, 1970.924
160.8330, 1904.329
161.3151, 1844.121
161.7972, 1789.514
162.2793, 1741.441
162.7615, 1700.631
163.2436, 1670.273
163.7257, 1644.236
164.2078, 1619.569
164.6899, 1596.497
165.1720, 1576.882
165.6541, 1562.075
166.1363, 1550.904
166.6184, 1542.216
167.1005, 1535.589
167.5826, 1531.292
168.0647, 1528.863
168.5468, 1528.401
169.0290, 1531.516
169.5111, 1539.769
169.9932, 1552.023
170.4753, 1566.854
170.9574, 1586.102
171.4395, 1605.982
171.9217, 1624.464
172.4038, 1641.534
172.8859, 1655.278
173.3680, 1666.160
173.8501, 1672.583
174.3322, 1671.924
174.8144, 1661.897
175.2965, 1644.667
175.7786, 1621.324
176.2607, 1591.524
176.7428, 1561.134
177.2249, 1533.557
177.7071, 1509.383
178.1892, 1489.400
178.6713, 1474.678
179.1534, 1464.180
179.6355, 1456.282
180.1176, 1450.871
180.5998, 1447.806
181.0819, 1448.578
181.5640, 1452.001
182.0461, 1453.887
182.5282, 1453.890
183.0103, 1450.823
183.4925, 1441.709
183.9746, 1426.297
184.4567, 1405.787
184.9388, 1380.463
185.4209, 1350.620
185.9030, 1319.498
186.3852, 1287.402
186.8673, 1255.086
187.3494, 1223.380
187.8315, 1191.907
188.3136, 1163.008
188.7957, 1139.489
189.2779, 1121.327
189.7600, 1105.333
190.2421, 1089.422
190.7242, 1074.222
191.2063, 1063.147
191.6884, 1056.652
192.1706, 1053.680
192.6527, 1052.715
193.1348, 1053.757
193.6169, 1056.549
194.0990, 1060.733
194.5811, 1066.356
195.0633, 1074.389
195.5454, 1084.606
196.0275, 1097.684
196.5096, 1114.975
196.9917, 1136.756
197.4738, 1160.224
197.9560, 1183.894
198.4381, 1207.660
198.9202, 1233.033
199.4023, 1259.756
199.8844, 1288.484
200.3665, 1320.255
200.8487, 1355.449
201.3308, 1392.382
201.8129, 1430.830
202.2950, 1471.009
202.7771, 1509.679
203.2592, 1546.427
203.7414, 1582.493
204.2235, 1621.361
204.7056, 1663.288
205.1877, 1705.511
205.6698, 1746.250
206.1519, 1785.062
206.6341, 1825.195
207.1162, 1866.124
207.5983, 1908.445
208.0804, 1953.559
208.5625, 2001.490
209.0446, 2050.693
209.5268, 2100.548
210.0089, 2151.233
210.4910, 2201.594
210.9731, 2251.089
211.4552, 2300.846
211.9373, 2353.429
212.4195, 2410.168
212.9016, 2465.899
213.3837, 2518.345
213.8658, 2567.777
214.3479, 2613.560
214.8300, 2655.865
215.3121, 2694.775
215.7943, 2731.142
216.2764, 2766.230
216.7585, 2795.407
217.2406, 2817.874
217.7227, 2835.464
218.2048, 2839.267
218.6870, 2826.810
219.1691, 2801.693
219.6512, 2772.142
220.1333, 2739.283
220.6154, 2699.560
221.0975, 2649.661
221.5797, 2586.592
222.0618, 2523.620
222.5439, 2460.718
223.0260, 2398.149
223.5081, 2334.431
223.9902, 2268.903
224.4724, 2204.198
224.9545, 2142.826
225.4366, 2084.397
225.9187, 2027.864
226.4008, 1972.296
226.8829, 1918.606
227.3651, 1868.648
227.8472, 1823.313
228.3293, 1779.266
228.8114, 1735.056
229.2935, 1690.305
229.7757, 1646.787
230.2578, 1604.585
230.7399, 1563.971
231.2220, 1524.830
231.7041, 1487.375
232.1862, 1451.430
232.6684, 1416.840
233.1505, 1383.353
233.6326, 1352.210
234.1147, 1324.894
234.5968, 1299.060
235.0789, 1270.794
235.5611, 1238.312
236.0432, 1206.458
236.5253, 1176.734
237.0074, 1150.629
237.4895, 1122.704
237.9716, 1091.546
238.4538, 1059.447
238.9359, 1030.251
239.4180, 1004.628
239.9001, 980.2888
240.3822, 956.0836
240.8643, 931.5493
241.3465, 910.5056
241.8286, 894.3192
242.3107, 880.6505
242.7928, 866.0114
243.2749, 848.8568
243.7570, 833.4017
244.2392, 821.1261
244.7213, 812.5589
245.2034, 803.6810
245.6855, 793.9979
246.1676, 784.3505
246.6497, 775.7027
247.1319, 767.8405
247.6140, 761.4110
248.0961, 756.8138
248.5782, 754.2270
249.0603, 751.8200
249.5424, 749.7651
250.0246, 747.7223
250.5067, 745.1149
250.9888, 741.1052
251.4709, 738.1974
251.9530, 737.0967
252.4351, 737.8792
252.9173, 738.7463
253.3994, 739.3553
253.8815, 740.4119
254.3636, 742.6332
254.8457, 746.2181
255.3278, 750.4277
255.8100, 755.1506
256.2921, 760.4026
256.7742, 766.1550
257.2563, 772.5098
257.7384, 779.2099
258.2205, 785.7104
258.7026, 791.2693
259.1848, 798.6500
259.6669, 808.3588
260.1490, 820.3399
260.6311, 833.2607
261.1132, 846.9272
261.5953, 861.8336
262.0775, 878.1016
262.5596, 895.8665
263.0417, 914.9948
263.5238, 935.5562
264.0059, 957.4592
264.4880, 981.5315
264.9702, 1008.213
265.4523, 1035.879
265.9344, 1063.188
266.4165, 1089.838
266.8986, 1118.069
267.3807, 1148.547
267.8629, 1180.764
268.3450, 1213.358
268.8271, 1246.687
269.3092, 1280.420
269.7913, 1314.867
270.2734, 1349.585
270.7556, 1386.154
271.2377, 1424.604
271.7198, 1465.479
272.2019, 1510.403
272.6840, 1559.605
273.1661, 1612.231
273.6483, 1668.013
274.1304, 1726.764
274.6125, 1788.433
275.0946, 1852.550
275.5767, 1919.631
276.0588, 1990.905
276.5410, 2066.380
277.0231, 2144.811
277.5052, 2224.418
277.9873, 2305.483
278.4694, 2389.131
278.9515, 2477.148
279.4337, 2563.711
279.9158, 2642.377
280.3979, 2713.181
280.8800, 2773.109
281.3621, 2821.021
281.8442, 2856.811
282.3264, 2876.517
282.8085, 2879.843
283.2906, 2868.386
283.7727, 2843.330
284.2548, 2804.717
284.7369, 2753.820
285.2191, 2687.869
285.7012, 2610.538
286.1833, 2533.120
286.6654, 2455.430
287.1475, 2378.602
287.6296, 2304.101
288.1118, 2231.694
288.5939, 2162.342
289.0760, 2095.317
289.5581, 2032.228
290.0402, 1975.532
290.5223, 1925.048
291.0045, 1879.949
291.4866, 1838.938
291.9687, 1802.205
292.4508, 1770.992
292.9329, 1745.975
293.4150, 1725.787
293.8972, 1707.113
294.3793, 1690.075
294.8614, 1675.895
295.3435, 1666.135
295.8256, 1659.984
296.3077, 1655.298
296.7899, 1651.790
297.2720, 1649.955
297.7541, 1651.015
298.2362, 1654.582
298.7183, 1658.951
299.2004, 1663.014
299.6826, 1667.248
300.1647, 1672.939
300.6468, 1680.332
301.1289, 1687.905
301.6110, 1693.883
302.0931, 1698.763
302.5753, 1704.073
303.0574, 1710.609
303.5395, 1717.880
304.0216, 1725.857
304.5037, 1734.655
304.9858, 1741.873
305.4680, 1745.172
305.9501, 1745.612
306.4322, 1745.032
306.9143, 1745.449
307.3964, 1744.203
307.8785, 1738.646
308.3607, 1728.976
308.8428, 1716.906
309.3249, 1703.245
309.8070, 1687.935
310.2891, 1670.938
310.7712, 1651.795
311.2534, 1631.218
311.7355, 1609.818
312.2176, 1587.270
312.6997, 1563.069
313.1818, 1535.635
313.6639, 1507.478
314.1461, 1480.314
314.6282, 1454.686
315.1103, 1430.136
315.5924, 1406.258
316.0745, 1383.391
316.5566, 1361.849
317.0388, 1341.786
317.5209, 1323.369
318.0030, 1306.592
318.4851, 1291.573
318.9672, 1277.773
319.4493, 1265.170
319.9315, 1253.697
320.4136, 1243.094
320.8957, 1231.990
321.3778, 1223.064
321.8599, 1217.754
322.3420, 1216.391
322.8242, 1215.367
323.3063, 1213.447
323.7884, 1211.769
324.2705, 1211.330
324.7526, 1211.971
325.2347, 1214.204
325.7169, 1218.828
326.1990, 1225.633
326.6811, 1231.757
327.1632, 1236.208
327.6453, 1240.460
328.1274, 1245.325
328.6096, 1250.522
329.0917, 1256.754
329.5738, 1264.695
330.0559, 1273.700
330.5380, 1281.848
331.0201, 1289.124
331.5023, 1295.562
331.9844, 1300.985
332.4665, 1304.424
332.9486, 1309.174
333.4307, 1315.915
333.9128, 1323.587
334.3950, 1330.192
334.8771, 1335.198
335.3592, 1340.246
335.8413, 1345.957
336.3234, 1352.519
336.8055, 1357.930
337.2877, 1361.534
337.7698, 1364.807
338.2519, 1369.487
338.7340, 1375.812
339.2161, 1382.562
339.6982, 1389.865
340.1803, 1397.433
340.6624, 1402.522
341.1446, 1404.421
341.6267, 1406.398
342.1088, 1411.778
342.5909, 1420.690
343.0730, 1428.001
343.5551, 1433.281
344.0373, 1436.185
344.5194, 1435.721
345.0015, 1431.849
345.4836, 1425.282
345.9657, 1416.720
346.4478, 1405.934
346.9300, 1391.254
347.4121, 1372.001
347.8942, 1350.555
348.3763, 1329.663
348.8584, 1309.196
349.3405, 1287.840
349.8227, 1264.518
350.3048, 1240.026
350.7869, 1215.785
351.2690, 1191.895
351.7511, 1168.529
352.2332, 1146.026
352.7154, 1124.408
353.1975, 1103.676
353.6796, 1083.518
354.1617, 1064.540
354.6438, 1047.841
355.1259, 1033.125
355.6081, 1018.945
356.0902, 1004.622
356.5723, 990.0409
357.0544, 974.7917
357.5365, 958.5461
358.0186, 942.5637
358.5008, 927.7509
358.9829, 913.8680
359.4650, 900.4083
359.9471, 888.0548
360.4292, 875.3997
360.9113, 861.2327
361.3935, 845.3558
361.8756, 829.6859
362.3577, 815.0223
362.8398, 801.0235
363.3219, 787.2988
363.8040, 773.9290
364.2862, 760.6627
364.7683, 747.3875
365.2504, 734.0626
365.7325, 721.0090
366.2146, 707.9666
366.6967, 695.3125
367.1789, 683.2813
367.6610, 671.8731
368.1431, 661.1068
368.6252, 651.0828
369.1073, 641.6359
369.5894, 632.3754
370.0716, 622.1078
370.5537, 613.1791
371.0358, 606.5784
371.5179, 603.2199
372.0000, 599.3836
372.4821, 594.9565
372.9643, 590.1600
373.4464, 585.1658
373.9285, 579.5447
374.4106, 574.7325
374.8927, 571.2399
375.3748, 568.9932
375.8570, 566.3720
376.3391, 563.1631
376.8212, 559.9623
377.3033, 557.1810
377.7854, 554.8391
378.2675, 552.9327
378.7497, 551.5688
379.2318, 550.5253
379.7139, 549.3659
380.1960, 548.1453
380.6781, 546.3350
381.1602, 543.1278
381.6424, 538.8669
382.1245, 535.8801
382.6066, 534.4245
383.0887, 533.5280
383.5708, 532.2805
384.0529, 530.6212
384.5351, 528.1513
385.0172, 524.2661
385.4993, 519.7233
385.9814, 515.8658
386.4635, 512.6806
386.9456, 509.2062
387.4278, 504.0460
387.9099, 498.2676
388.3920, 493.5766
388.8741, 490.7059
389.3562, 488.5746
389.8383, 486.1066
390.3205, 483.5435
390.8026, 481.6431
391.2847, 481.4732
391.7668, 481.6837
392.2489, 481.2060
392.7310, 479.8123
393.2132, 478.2585
393.6953, 476.3192
394.1774, 474.6323
394.6595, 473.9671
395.1416, 475.1778
395.6237, 476.8755
396.1059, 478.5727
396.5880, 480.2814
397.0701, 482.4111
397.5522, 485.1927
398.0343, 488.3040
398.5164, 491.5438
398.9986, 494.3565
399.4807, 498.0152
399.9628, 503.1493
400.4449, 509.1132
400.9270, 514.4568
401.4091, 519.0383
401.8913, 523.0817
402.3734, 526.2090
402.8555, 527.8509
403.3376, 531.9796
403.8197, 539.5941
404.3018, 548.5228
404.7840, 556.3135
405.2661, 562.4574
405.7482, 569.3389
406.2303, 577.6957
406.7124, 587.0822
407.1945, 595.9538
407.6767, 604.2330
408.1588, 612.3355
408.6409, 620.2495
409.1230, 628.0184
409.6051, 637.0178
410.0872, 647.6672
410.5694, 658.8435
411.0515, 668.5623
411.5336, 677.0864
412.0157, 685.7827
412.4978, 695.5265
412.9799, 705.7928
413.4621, 715.7879
413.9442, 725.5930
414.4263, 734.6733
414.9084, 742.3925
415.3905, 749.2338
415.8727, 756.1796
416.3548, 763.8253
416.8369, 771.1205
417.3190, 777.4616
417.8011, 782.7819
418.2832, 786.9968
418.7654, 790.2150
419.2475, 792.1396
419.7296, 792.2031
420.2117, 790.0885
420.6938, 787.7901
421.1759, 787.7625
421.6581, 787.2875
422.1402, 783.4655
422.6223, 772.7831
423.1044, 761.6738
423.5865, 751.9803
424.0686, 743.4875
424.5508, 733.9136
425.0329, 722.6737
425.5150, 710.6861
425.9971, 698.2112
426.4792, 684.3372
426.9613, 672.0201
427.4435, 662.2889
427.9256, 653.6390
428.4077, 643.6047
428.8898, 631.2408
429.3719, 619.2831
429.8540, 608.1964
430.3362, 598.0395
430.8183, 589.2101
431.3004, 581.9938
431.7825, 575.4384
432.2646, 568.6268
432.7467, 561.5793
433.2289, 555.5783
433.7110, 551.2855
434.1931, 547.4500
434.6752, 541.2816
435.1573, 533.0374
435.6394, 525.5681
436.1216, 520.6579
436.6036, 517.4993
437.0858, 514.4696
437.5679, 511.5197
438.0500, 508.7693
438.5321, 506.1913
439.0142, 503.9091
439.4963, 502.2108
439.9785, 501.6658
440.4606, 501.0566
440.9427, 499.0536
441.4248, 496.1350
441.9069, 493.7319
442.3890, 492.8062
442.8712, 492.4428
443.3533, 492.1725
443.8354, 492.0118
444.3175, 491.5758
444.7996, 490.3946
445.2817, 489.0186
445.7639, 488.0116
446.2460, 487.1832
446.7281, 487.0346
447.2102, 488.3435
447.6923, 490.7480
448.1744, 491.6762
448.6566, 490.2065
449.1387, 488.1926
449.6208, 486.3423
450.1029, 484.4759
450.5850, 483.3236
451.0671, 483.2038
451.5493, 483.4824
452.0314, 483.3362
452.5135, 482.7827
452.9956, 481.6962
453.4777, 479.7885
453.9598, 477.3817
454.4420, 475.9795
454.9241, 475.6924
455.4062, 475.5229
455.8883, 474.7579
456.3704, 473.4938
456.8525, 472.0910
457.3347, 470.5621
457.8168, 469.1105
458.2989, 467.9191
458.7810, 467.0166
459.2631, 466.5233
459.7452, 466.7556
460.2274, 467.2612
460.7095, 467.5405
461.1916, 467.6254
461.6737, 467.7235
462.1558, 468.1274
462.6379, 468.5148
463.1201, 468.4726
463.6022, 467.5262
464.0843, 467.0835
464.5664, 467.9745
465.0485, 469.6768
465.5306, 471.3585
466.0128, 472.5469
466.4949, 473.9568
466.9770, 475.9550
467.4591, 478.5727
467.9412, 480.7753
468.4233, 481.7158
468.9055, 482.9799
469.3876, 485.5933
469.8697, 490.4283
470.3518, 494.6827
470.8339, 498.1159
471.3160, 501.1194
471.7982, 504.4129
472.2803, 508.0157
472.7624, 511.8340
473.2445, 515.6152
473.7266, 519.5348
474.2087, 524.7299
474.6909, 531.2658
475.1730, 538.2865
475.6551, 545.0248
476.1372, 551.5651
476.6193, 558.1443
477.1014, 564.5400
477.5836, 571.5523
478.0657, 580.3849
478.5478, 590.6910
479.0299, 601.2900
479.5120, 611.6926
479.9941, 622.2446
480.4763, 633.0643
480.9584, 644.2136
481.4405, 655.8168
481.9226, 668.2481
482.4047, 680.9901
482.8868, 693.5812
483.3690, 705.3428
483.8511, 717.8990
484.3332, 732.1263
484.8153, 747.2996
485.2974, 762.5436
485.7795, 776.4066
486.2617, 791.5551
486.7438, 809.2244
487.2259, 829.4132
487.7080, 847.9321
488.1901, 863.9455
488.6722, 879.5840
489.1544, 896.0771
489.6365, 912.9784
490.1186, 932.2115
490.6007, 954.8076
491.0828, 978.3688
491.5649, 999.1373
492.0471, 1016.777
492.5292, 1035.483
493.0113, 1057.437
493.4934, 1080.707
493.9755, 1100.128
494.4576, 1115.659
494.9398, 1130.339
495.4219, 1146.616
495.9040, 1163.439
496.3861, 1178.198
496.8682, 1190.645
497.3503, 1201.945
497.8325, 1213.648
498.3146, 1224.831
498.7967, 1234.308
499.2788, 1240.638
499.7609, 1245.970
500.2430, 1250.912
500.7252, 1255.621
501.2073, 1260.831
501.6894, 1266.631
502.1715, 1273.053
502.6536, 1280.178
503.1357, 1287.992
503.6179, 1296.513
504.1000, 1305.359
504.5821, 1315.135
505.0642, 1326.593
505.5463, 1340.541
506.0284, 1354.178
506.5106, 1366.484
506.9927, 1378.295
507.4748, 1392.865
507.9569, 1410.801
508.4390, 1428.456
508.9211, 1444.503
509.4033, 1458.848
509.8854, 1470.526
510.3675, 1479.409
510.8496, 1486.669
511.3317, 1494.160
511.8138, 1500.991
512.2960, 1504.707
512.7781, 1504.846
513.2602, 1501.719
513.7423, 1494.598
514.2244, 1484.433
514.7065, 1473.514
515.1887, 1463.810
515.6708, 1453.004
516.1529, 1439.068
516.6350, 1422.007
517.1171, 1405.240
517.5992, 1389.701
518.0814, 1375.210
518.5635, 1361.737
519.0456, 1349.704
519.5277, 1337.932
520.0098, 1325.398
520.4919, 1313.542
520.9741, 1304.885
521.4562, 1301.688
521.9383, 1297.287
522.4204, 1289.929
522.9025, 1280.080
523.3846, 1270.785
523.8668, 1262.283
524.3489, 1253.508
524.8310, 1244.294
525.3131, 1234.378
525.7952, 1221.926
526.2773, 1206.725
526.7595, 1189.409
527.2416, 1170.398
527.7237, 1150.047
528.2058, 1128.875
528.6879, 1107.281
529.1700, 1085.033
529.6522, 1061.506
530.1343, 1037.259
530.6164, 1013.141
531.0985, 989.8367
531.5806, 966.8588
532.0627, 944.0610
532.5449, 921.4968
533.0270, 899.4294
533.5091, 878.2347
533.9912, 857.5276
534.4733, 837.3197
534.9554, 815.5714
535.4376, 796.8329
535.9197, 782.5453
536.4018, 770.6467
536.8839, 757.9329
537.3660, 743.6999
537.8481, 730.2195
538.3303, 717.9039
538.8124, 706.7523
539.2945, 696.4496
539.7766, 686.9782
540.2587, 678.5176
540.7408, 671.4919
541.2230, 665.5883
541.7051, 659.8862
542.1872, 654.3115
542.6693, 649.0884
543.1514, 644.3770
543.6335, 640.1654
544.1157, 636.3303
544.5978, 633.1057
545.0799, 629.8818
545.5620, 625.8970
546.0441, 621.5976
546.5262, 618.0850
547.0084, 616.9371
547.4905, 615.6141
547.9726, 612.6223
548.4547, 607.7062
548.9368, 603.8204
549.4189, 601.9271
549.9011, 600.5416
550.3832, 598.9698
550.8653, 597.7617
551.3474, 594.8918
551.8295, 589.7477
552.3116, 583.6610
552.7938, 578.8113
553.2759, 575.3954
553.7580, 571.2537
554.2401, 565.6356
554.7222, 559.0847
555.2043, 553.0615
555.6865, 547.5360
556.1686, 541.5609
556.6507, 534.0917
557.1328, 526.0322
557.6149, 518.7825
558.0970, 512.4326
558.5792, 505.8578
559.0613, 498.3651
559.5434, 490.2836
560.0255, 481.9030
560.5076, 473.2079
560.9897, 464.5538
561.4719, 456.0512
561.9540, 447.6354
562.4361, 439.3270
562.9182, 430.3491
563.4003, 422.3020
563.8824, 415.8041
564.3646, 410.6180
564.8467, 404.6309
565.3288, 397.5305
565.8109, 390.2194
566.2930, 382.7495
566.7751, 375.0960
567.2573, 369.0417
567.7394, 364.6863
568.2215, 361.2277
568.7036, 358.2845
569.1857, 355.5925
569.6678, 351.9333
570.1500, 346.8552
570.6321, 341.3226
571.1142, 336.1825
571.5963, 331.4920
572.0784, 327.3938
572.5605, 324.2073
573.0427, 321.3715
573.5248, 318.4700
574.0069, 315.5769
574.4890, 313.0160
574.9711, 311.5255
575.4532, 309.9340
575.9354, 307.6016
576.4175, 304.2235
576.8996, 301.0934
577.3817, 298.2271
577.8638, 295.6289
578.3459, 293.2795
578.8281, 291.2333
579.3102, 289.3321
579.7923, 287.5433
580.2744, 285.9116
580.7565, 284.7863
581.2386, 284.1122
581.7208, 282.9031
582.2029, 280.2666
582.6850, 277.2089
583.1671, 275.7646
583.6492, 275.6734
584.1313, 275.3877
584.6134, 273.5813
585.0955, 271.3309
585.5776, 269.5703
586.0598, 268.3997
586.5419, 267.6856
587.0240, 267.8440
587.5061, 268.1555
587.9882, 268.0239
588.4703, 267.1693
588.9525, 266.1140
589.4346, 264.7439
589.9167, 263.2509
590.3988, 261.9646
590.8809, 261.0147
591.3630, 259.9053
591.8452, 258.3054
592.3273, 256.5288
592.8094, 255.9549
593.2915, 256.6477
593.7736, 257.4832
594.2557, 258.2621
594.7379, 258.6424
595.2200, 257.2663
595.7021, 254.1287
596.1842, 251.2010
596.6663, 250.0985
597.1484, 250.0974
597.6306, 250.4873
598.1127, 251.4043
598.5948, 251.8307
599.0769, 250.6467
599.5590, 248.9248
600.0411, 248.0093
600.5233, 248.8002
601.0054, 249.7177
601.4875, 250.9000
601.9696, 252.0264
602.4517, 252.0155
602.9338, 250.2824
603.4160, 248.6905
603.8981, 248.0372
604.3802, 248.1705
604.8623, 247.3627
605.3444, 245.4680
605.8265, 243.7361
606.3087, 243.2422
606.7908, 243.6445
607.2729, 244.0278
607.7550, 244.3158
608.2371, 244.5418
608.7192, 244.8705
609.2014, 245.1141
609.6835, 244.9499
610.1656, 243.8322
610.6477, 243.0659
611.1298, 243.7045
611.6119, 244.9940
612.0941, 245.5960
612.5762, 244.4426
613.0583, 243.4817
613.5404, 243.2211
614.0225, 243.5118
614.5046, 243.4845
614.9868, 242.9549
615.4689, 242.5230
615.9510, 242.4244
616.4331, 242.6591
616.9152, 243.5260
617.3973, 245.1717
617.8795, 246.1522
618.3616, 244.4372
618.8437, 241.1328
619.3258, 238.8477
619.8079, 237.9414
620.2900, 238.0133
620.7722, 239.2618
621.2543, 241.1081
621.7364, 242.7298
622.2185, 244.0389
622.7006, 244.8946
623.1827, 244.8890
623.6649, 244.4111
624.1470, 244.4011
624.6291, 245.6009
625.1112, 246.4675
625.5933, 246.4848
626.0754, 245.8164
626.5576, 245.6946
627.0397, 246.2166
627.5218, 246.9578
628.0039, 247.8257
628.4860, 248.7683
628.9681, 249.2939
629.4503, 249.3838
629.9324, 249.3138
630.4145, 249.2952
630.8966, 249.2984
631.3787, 249.2181
631.8608, 248.9731
632.3430, 248.9298
632.8251, 249.6936
633.3072, 250.6744
633.7893, 251.1554
634.2714, 250.1021
634.7535, 249.5116
635.2357, 250.2854
635.7178, 251.7403
636.1999, 252.2669
636.6820, 251.1822
637.1641, 250.4529
637.6462, 250.8279
638.1284, 251.9595
638.6105, 251.7813
639.0926, 250.1283
639.5747, 248.6783
640.0568, 248.5242
640.5389, 249.3287
641.0211, 250.3155
641.5032, 251.4556
641.9853, 252.3009
642.4674, 252.2403
642.9495, 251.8198
643.4316, 251.7453
643.9138, 252.3193
644.3959, 252.4725
644.8780, 251.0115
645.3601, 249.2644
645.8422, 248.5706
646.3243, 249.6386
646.8065, 251.1343
647.2886, 253.5109
647.7707, 256.0295
648.2528, 257.2904
648.7349, 256.9809
649.2170, 256.6867
649.6992, 256.7899
650.1813, 257.1737
650.6634, 257.6335
651.1455, 258.1456
651.6276, 258.5010
652.1097, 258.2973
652.5919, 258.0305
653.0740, 258.5478
653.5561, 259.7375
654.0382, 260.6643
654.5203, 260.2738
655.0024, 259.8259
655.4846, 260.2256
655.9667, 261.7530
656.4488, 263.2472
656.9309, 264.7948
657.4130, 266.0379
657.8951, 266.7176
658.3773, 266.7057
658.8594, 266.4016
659.3415, 265.6382
659.8236, 264.9076
660.3057, 265.0623
660.7878, 265.9998
661.2700, 266.5443
661.7521, 266.2838
662.2342, 265.8448
662.7163, 266.2500
663.1984, 267.1505
663.6805, 267.6719
664.1627, 266.9726
664.6448, 266.1905
665.1269, 266.0740
665.6090, 266.4543
666.0911, 266.6648
666.5732, 266.1056
667.0554, 265.8179
667.5375, 266.3280
668.0196, 267.6194
668.5017, 268.2166
668.9838, 267.9255
669.4659, 267.4037
669.9481, 266.8734
670.4302, 266.3656
670.9123, 266.5349
671.3944, 267.4457
671.8765, 268.3774
672.3586, 268.6234
672.8408, 268.4256
673.3229, 268.2508
673.8050, 268.2338
674.2871, 267.9546
674.7692, 266.5419
675.2513, 264.9798
675.7335, 264.3644
676.2156, 265.7242
676.6977, 267.1033
677.1798, 268.4447
677.6619, 269.6070
678.1440, 270.4213
678.6262, 270.9846
679.1083, 270.8553
679.5904, 269.6164
680.0725, 267.9202
680.5546, 267.4830
681.0367, 268.2467
681.5189, 269.0707
682.0010, 269.5017
682.4831, 269.6318
682.9652, 269.4623
683.4473, 269.0714
683.9294, 268.8235
684.4116, 268.9205
684.8937, 269.2270
685.3758, 269.7284
685.8579, 270.4257
686.3400, 271.0504
686.8221, 271.5432
687.3043, 271.9597
687.7864, 272.3231
688.2685, 272.6362
688.7506, 272.8653
689.2327, 272.9654
689.7148, 273.1110
690.1970, 273.5602
690.6791, 274.2416
691.1612, 274.6655
691.6433, 274.7552
692.1254, 274.6796
692.6075, 274.4550
693.0897, 274.2198
693.5718, 274.2188
694.0539, 274.6866
694.5360, 275.0856
695.0181, 275.0425
695.5002, 274.8198
695.9824, 274.8296
696.4645, 275.4336
696.9466, 275.8520
697.4287, 275.8989
697.9108, 275.7502
698.3929, 275.8862
698.8751, 276.3745
699.3572, 276.7727
699.8393, 276.9698
700.3214, 276.9582
700.8035, 276.4952
701.2856, 275.7017
701.7678, 275.2855
702.2499, 276.0522
702.7320, 277.0984
703.2141, 277.5157
703.6962, 277.3749
704.1783, 277.3792
704.6605, 278.0898
705.1426, 278.7437
705.6247, 278.9166
706.1068, 278.5510
706.5889, 278.1755
707.0710, 277.6984
707.5532, 277.3709
708.0353, 277.3842
708.5174, 277.7393
708.9995, 278.2298
709.4816, 278.9040
709.9637, 279.3496
710.4459, 278.9061
710.9280, 278.0252
711.4101, 277.4883
711.8922, 277.3908
712.3743, 277.8086
712.8564, 279.5670
713.3386, 281.5014
713.8207, 282.3822
714.3028, 280.8239
714.7849, 279.8383
715.2670, 279.7545
715.7491, 280.2590
716.2313, 281.1508
716.7134, 282.7174
717.1955, 283.2699
717.6776, 282.1671
718.1597, 280.4984
718.6418, 280.4141
719.1240, 281.6226
719.6061, 282.7547
720.0882, 283.1884
720.5703, 283.4440
721.0524, 284.1039
721.5345, 284.9940
722.0167, 285.6974
722.4988, 285.9103
722.9809, 286.0674
723.4630, 286.0052
723.9451, 285.9412
724.4272, 287.0216
724.9094, 290.1849
725.3915, 292.6631
725.8736, 293.3055
726.3557, 292.4432
726.8378, 291.7698
727.3199, 291.2794
727.8021, 291.1356
728.2842, 291.4916
728.7663, 292.2338
729.2484, 293.3956
729.7305, 294.8942
730.2126, 296.0299
730.6948, 295.6421
731.1769, 295.3278
731.6590, 296.4300
732.1411, 299.4212
732.6232, 301.4135
733.1053, 301.6646
733.5875, 301.5280
734.0696, 301.7075
734.5517, 302.1930
735.0338, 303.2516
735.5159, 305.0757
735.9980, 306.6763
736.4802, 306.1136
736.9623, 304.6350
737.4444, 306.4337
737.9265, 312.5414
738.4086, 317.7788
738.8907, 316.9394
739.3729, 313.7221
739.8550, 312.1796
740.3371, 314.1597
740.8192, 315.7750
741.3013, 315.8561
741.7834, 315.5698
742.2656, 316.0775
742.7477, 317.6893
743.2298, 318.9489
743.7119, 319.5436
744.1940, 320.0562
744.6761, 321.7241
745.1583, 324.2036
745.6404, 325.6294
746.1225, 325.0328
746.6046, 324.3439
747.0867, 325.5303
747.5688, 327.9109
748.0510, 330.2969
748.5331, 332.6598
749.0152, 334.5896
749.4973, 335.8476
749.9794, 336.6276
750.4615, 337.2051
750.9437, 337.2612
751.4258, 337.9246
751.9079, 339.5520
752.3900, 341.8288
752.8721, 344.1673
753.3542, 346.5070
753.8364, 348.6498
754.3185, 350.3048
754.8006, 351.8895
755.2827, 353.9741
755.7648, 356.3925
756.2469, 358.6144
756.7291, 360.3314
757.2112, 361.8865
757.6933, 363.4190
758.1754, 364.9050
758.6575, 366.2174
759.1396, 367.0172
759.6218, 368.3244
760.1039, 370.7011
760.5860, 373.8229
761.0681, 376.3318
761.5502, 378.2383
762.0323, 380.2335
762.5145, 382.8670
762.9966, 385.7716
763.4787, 388.5879
763.9608, 391.2780
764.4429, 393.6618
764.9250, 395.0598
765.4072, 396.6614
765.8893, 399.1137
766.3714, 402.5054
766.8535, 406.1260
767.3356, 410.2206
767.8177, 414.1080
768.2999, 417.3210
768.7820, 419.9348
769.2641, 422.6480
769.7462, 425.4357
770.2283, 428.6754
770.7104, 432.9114
771.1926, 437.6326
771.6747, 442.0745
772.1568, 446.1724
772.6389, 450.5535
773.1210, 456.0280
773.6031, 461.4710
774.0853, 466.0255
774.5674, 469.4050
775.0495, 473.4052
775.5316, 477.9007
776.0137, 483.2708
776.4958, 490.2602
776.9780, 498.7564
777.4601, 505.9458
777.9422, 511.7508
778.4243, 517.4760
778.9064, 524.1624
779.3885, 531.5360
779.8707, 539.3993
780.3528, 547.7425
780.8349, 556.3483
781.3170, 565.0312
781.7991, 573.9000
782.2812, 582.9207
782.7633, 591.8561
783.2454, 602.0820
783.7275, 614.2451
784.2097, 626.0561
784.6918, 634.5886
785.1739, 640.3569
785.6560, 649.6629
786.1381, 663.1759
786.6202, 677.3284
787.1024, 688.9498
787.5845, 699.3063
788.0666, 709.4418
788.5487, 719.3420
789.0308, 730.5618
789.5129, 744.4106
789.9951, 759.4641
790.4772, 774.5468
790.9593, 790.0629
791.4414, 804.5704
791.9235, 817.7366
792.4056, 831.0958
792.8878, 846.6923
793.3699, 864.0494
793.8520, 880.5613
794.3341, 895.9788
794.8162, 912.2659
795.2983, 932.4431
795.7805, 954.1430
796.2626, 974.6220
796.7447, 992.0169
797.2268, 1012.061
797.7089, 1038.009
798.1910, 1066.222
798.6732, 1093.468
799.1553, 1119.313
799.6374, 1147.051
800.1195, 1176.443
800.6016, 1208.635
801.0837, 1246.214
801.5659, 1287.864
802.0480, 1329.739
802.5301, 1370.686
803.0122, 1413.673
803.4943, 1461.747
803.9764, 1512.875
804.4586, 1565.126
804.9407, 1617.455
805.4228, 1672.713
805.9049, 1731.056
806.3870, 1792.049
806.8691, 1857.287
807.3513, 1926.984
807.8334, 1995.969
808.3155, 2063.520
808.7976, 2132.633
809.2797, 2207.148
809.7618, 2285.625
810.2440, 2364.134
810.7261, 2442.397
811.2082, 2521.321
811.6903, 2602.505
812.1724, 2684.210
812.6545, 2764.141
813.1367, 2843.128
813.6188, 2919.615
814.1009, 2993.625
814.5830, 3063.850
815.0651, 3129.774
815.5472, 3191.188
816.0294, 3245.275
816.5115, 3291.553
816.9936, 3329.285
817.4757, 3356.522
817.9578, 3374.841
818.4399, 3386.325
818.9221, 3391.622
819.4042, 3387.708
819.8863, 3370.580
820.3684, 3345.765
820.8505, 3317.473
821.3326, 3286.086
821.8148, 3247.823
822.2969, 3201.099
822.7790, 3152.835
823.2611, 3109.556
823.7432, 3069.969
824.2253, 3029.324
824.7075, 2987.312
825.1896, 2950.058
825.6717, 2921.706
826.1538, 2900.241
826.6359, 2884.321
827.1180, 2874.063
827.6002, 2868.711
828.0823, 2866.373
828.5644, 2870.725
829.0465, 2884.044
829.5286, 2906.191
830.0107, 2935.077
830.4929, 2970.433
830.9750, 3013.579
831.4571, 3065.257
831.9392, 3125.241
832.4213, 3191.503
832.9034, 3263.357
833.3856, 3346.713
833.8677, 3444.146
834.3498, 3552.747
834.8319, 3674.082
835.3140, 3807.630
835.7961, 3943.159
836.2783, 4077.012
836.7604, 4222.813
837.2425, 4389.763
837.7246, 4574.808
838.2067, 4763.163
838.6888, 4957.180
839.1710, 5164.826
839.6531, 5395.227
840.1352, 5639.790
840.6173, 5888.788
841.0994, 6143.221
841.5815, 6407.213
842.0637, 6686.042
842.5458, 6973.548
843.0279, 7268.919
843.5100, 7571.752
843.9921, 7880.341
844.4742, 8192.018
844.9564, 8512.769
845.4385, 8846.271
845.9206, 9189.546
846.4027, 9537.674
846.8848, 9891.779
847.3669, 10255.31
847.8491, 10637.86
848.3312, 11022.38
848.8133, 11404.16
849.2954, 11793.79
849.7775, 12175.20
850.2596, 12574.61
850.7418, 12969.69
851.2239, 13362.64
851.7060, 13742.16
852.1881, 14089.73
852.6702, 14401.18
853.1523, 14648.91
853.6345, 14836.99
854.1166, 14941.44
854.5987, 14957.03
855.0808, 14874.53
855.5629, 14675.24
856.0450, 14337.69
856.5272, 13904.29
857.0093, 13369.19
857.4914, 12756.28
857.9735, 12090.46
858.4556, 11380.13
858.9377, 10666.21
859.4199, 9965.460
859.9020, 9288.437
860.3841, 8643.110
860.8662, 8038.311
861.3483, 7474.664
861.8304, 6960.410
862.3126, 6483.269
862.7947, 6050.324
863.2768, 5652.358
863.7589, 5285.695
864.2410, 4947.655
864.7231, 4639.552
865.2053, 4359.756
865.6874, 4105.316
866.1695, 3871.506
866.6516, 3657.206
867.1337, 3459.087
867.6158, 3277.088
868.0980, 3108.184
868.5801, 2949.769
869.0622, 2802.615
869.5443, 2668.433
870.0264, 2546.204
870.5085, 2432.610
870.9907, 2330.138
871.4728, 2233.377
871.9549, 2138.863
872.4370, 2047.920
872.9191, 1966.680
873.4012, 1894.417
873.8834, 1828.165
874.3655, 1768.219
874.8476, 1711.381
875.3297, 1653.514
875.8118, 1594.790
876.2939, 1542.661
876.7761, 1499.984
877.2582, 1460.142
877.7403, 1420.904
878.2224, 1382.340
878.7045, 1345.706
879.1866, 1310.867
879.6688, 1278.156
880.1509, 1248.707
880.6330, 1220.699
881.1151, 1192.027
881.5972, 1163.178
882.0793, 1136.068
882.5615, 1111.393
883.0436, 1088.140
883.5257, 1066.276
884.0078, 1045.544
884.4899, 1025.329
884.9720, 1005.611
885.4542, 986.9600
885.9363, 969.6638
886.4184, 953.0059
886.9005, 935.8963
887.3826, 918.7007
887.8647, 902.1157
888.3469, 885.8914
888.8290, 871.0336
889.3111, 859.2008
889.7932, 848.2396
890.2753, 835.7006
890.7574, 820.8459
891.2396, 807.8015
891.7217, 797.0794
892.2038, 786.7366
892.6859, 774.3699
893.1680, 760.8964
893.6501, 747.8842
894.1323, 735.3805
894.6144, 724.0480
895.0965, 715.2226
895.5786, 706.8010
896.0607, 697.1927
896.5428, 686.2510
897.0250, 674.7861
897.5071, 662.3414
897.9892, 650.9714
898.4713, 642.7487
898.9534, 636.4378
899.4355, 627.7999
899.9177, 617.2633
900.3998, 607.2527
900.8819, 600.0917
901.3640, 593.2737
901.8461, 585.2236
902.3282, 576.2307
902.8104, 568.1342
903.2925, 561.1862
903.7746, 554.7245
904.2567, 548.6771
904.7388, 542.9561
905.2209, 537.6995
905.7031, 532.6695
906.1852, 526.8052
906.6673, 518.6257
907.1494, 511.0523
907.6315, 506.8164
908.1136, 504.2056
908.5958, 500.4418
909.0779, 493.7436
909.5600, 488.8276
910.0421, 486.6431
910.5242, 485.1825
911.0063, 481.7098
911.4885, 476.6421
911.9706, 471.9370
912.4527, 467.8788
912.9348, 464.4633
913.4169, 462.2103
913.8990, 460.2700
914.3812, 457.7490
914.8633, 454.2374
915.3454, 451.5482
915.8275, 450.0544
916.3096, 448.8044
916.7917, 447.2773
917.2739, 445.4936
917.7560, 443.5623
918.2381, 441.4941
918.7202, 439.4691
919.2023, 438.1172
919.6844, 436.4193
920.1666, 433.3512
920.6487, 429.1295
921.1308, 424.9493
921.6129, 420.2896
922.0950, 416.8548
922.5771, 415.4802
923.0593, 415.2457
923.5414, 413.7481
924.0235, 411.2101
924.5056, 409.1364
924.9877, 408.4811
925.4698, 407.5482
925.9520, 404.4006
926.4341, 400.2217
926.9162, 396.6922
927.3983, 394.6926
927.8804, 392.5967
928.3625, 390.2924
928.8447, 388.0565
929.3268, 386.3127
929.8089, 384.9739
930.2910, 383.2188
930.7731, 380.9491
931.2552, 378.5470
931.7374, 376.0213
932.2195, 373.6485
932.7016, 371.7666
933.1837, 370.4813
933.6658, 368.7670
934.1479, 366.2236
934.6301, 363.8022
935.1122, 361.9139
935.5943, 360.4721
936.0764, 359.1185
936.5585, 357.8541
937.0406, 356.7646
937.5228, 356.0349
938.0049, 355.3535
938.4870, 354.5506
938.9691, 353.6129
939.4512, 352.4723
939.9333, 350.4753
940.4155, 349.4689
940.8976, 349.9967
941.3797, 351.1087
941.8618, 351.4860
942.3439, 351.1479
942.8260, 349.9558
943.3082, 347.6268
943.7903, 345.8034
944.2724, 345.8253
944.7545, 346.8925
945.2366, 348.4370
945.7188, 350.6951
946.2009, 352.3318
946.6830, 353.4344
947.1651, 353.7567
947.6472, 352.4664
948.1293, 350.2368
948.6115, 350.0280
949.0936, 351.6666
949.5757, 353.7235
950.0578, 355.8381
950.5399, 357.6082
951.0220, 358.4567
951.5042, 358.6959
951.9863, 359.6637
952.4684, 361.6220
952.9505, 363.7075
953.4326, 365.8633
953.9147, 367.8300
954.3969, 369.1119
954.8790, 369.8574
955.3611, 370.5378
955.8432, 371.4812
956.3253, 371.8223
956.8074, 370.4405
957.2896, 368.6452
957.7717, 367.7639
958.2538, 368.2130
958.7359, 368.1661
959.2180, 367.6503
959.7001, 366.4911
960.1823, 364.4770
960.6644, 361.7089
961.1465, 358.3318
961.6286, 354.3892
962.1107, 350.3374
962.5928, 346.3868
963.0750, 342.3721
963.5571, 337.9355
964.0392, 333.3445
964.5213, 329.9864
965.0034, 328.1021
965.4855, 325.1738
965.9677, 319.9629
966.4498, 314.3089
966.9319, 311.1195
967.4140, 309.2899
967.8961, 306.9365
968.3782, 303.1524
968.8604, 299.4367
969.3425, 295.7806
969.8246, 292.5254
970.3067, 290.0318
970.7888, 288.3458
971.2709, 286.4619
971.7531, 284.3393
972.2352, 282.2989
972.7173, 280.6349
973.1994, 279.1468
973.6815, 277.5722
974.1636, 275.9397
974.6458, 274.7031
975.1279, 274.3949
975.6100, 273.7700
976.0921, 272.1894
976.5742, 270.2810
977.0563, 270.3874
977.5385, 272.0366
978.0206, 272.1905
978.5027, 269.0527
978.9848, 265.6413
979.4669, 264.4207
979.9490, 264.2175
980.4311, 263.5260
980.9132, 261.8592
981.3953, 260.4330
981.8774, 259.3414
982.3596, 258.2676
982.8417, 256.7718
983.3238, 255.0921
983.8059, 253.9235
984.2880, 253.2870
984.7701, 253.0794
985.2523, 254.1234
985.7344, 254.7319
986.2165, 253.4262
986.6986, 250.8289
987.1807, 249.6058
987.6628, 249.9883
988.1450, 250.4784
988.6271, 250.7503
989.1092, 250.6868
989.5913, 250.0096
990.0734, 248.8978
990.5555, 247.6255
991.0377, 246.0217
991.5198, 244.8372
992.0019, 244.5356
992.4840, 244.4623
992.9661, 244.1049
993.4482, 243.4460
993.9304, 243.0770
994.4125, 243.0049
994.8946, 243.2119
995.3767, 244.2439
995.8588, 245.1101
996.3409, 244.6167
996.8231, 242.9812
997.3052, 241.7404
997.7873, 240.9926
998.2694, 240.9097
998.7515, 241.8457
999.2336, 243.0513
999.7158, 242.7004
1000.198, 241.2516
1000.680, 240.4460
1001.162, 240.8816
1001.644, 241.5648
1002.126, 241.9833
1002.608, 242.2752
1003.091, 242.5181
1003.573, 242.6699
1004.055, 243.2238
1004.537, 244.3770
1005.019, 245.0140
1005.501, 243.8230
1005.983, 241.9148
1006.465, 241.3189
1006.948, 241.7490
1007.430, 242.0298
1007.912, 241.6552
1008.394, 241.0843
1008.876, 240.1599
1009.358, 239.3198
1009.840, 239.5571
1010.322, 240.8283
1010.804, 241.5835
1011.287, 241.5278
1011.769, 241.1694
1012.251, 240.6285
1012.733, 240.2577
1013.215, 240.5142
1013.697, 241.5978
1014.179, 242.3794
1014.661, 242.6976
1015.143, 243.0016
1015.626, 243.6880
1016.108, 244.4257
1016.590, 243.9478
1017.072, 242.5789
1017.554, 241.5089
1018.036, 241.3956
1018.518, 241.5771
1019.000, 241.7812
1019.483, 242.1409
1019.965, 242.9301
1020.447, 244.3252
1020.929, 245.1357
1021.411, 245.2499
1021.893, 244.9862
1022.375, 244.0968
1022.857, 243.3313
1023.339, 243.9505
1023.822, 245.9736
1024.304, 247.4288
1024.786, 247.4729
1025.268, 247.3733
1025.750, 247.4150
1026.232, 247.6134
1026.714, 248.0950
1027.196, 248.7997
1027.679, 249.4064
1028.161, 249.7877
1028.643, 250.0927
1029.125, 250.5300
1029.607, 250.8780
1030.089, 250.8877
1030.571, 250.5252
1031.053, 249.7915
1031.536, 248.4871
1032.018, 247.7157
1032.500, 249.1305
1032.982, 251.1373
1033.464, 250.8084
1033.946, 248.6139
1034.428, 246.7245
1034.910, 246.1322
1035.392, 245.7210
1035.875, 245.3957
1036.357, 244.9644
1036.839, 244.1192
1037.321, 242.8667
1037.803, 241.2165
1038.285, 239.0951
1038.767, 237.0749
1039.249, 235.6549
1039.731, 234.5014
1040.214, 233.3322
1040.696, 232.1282
1041.178, 231.1266
1041.660, 230.5224
1042.142, 229.3544
1042.624, 226.8491
1043.106, 223.9121
1043.588, 221.9926
1044.071, 220.8811
1044.553, 220.0623
1045.035, 218.6470
1045.517, 218.7027
1045.999, 222.1721
1046.481, 225.5735
1046.963, 225.1161
1047.445, 221.1140
1047.927, 218.5904
1048.410, 217.6792
1048.892, 217.4906
1049.374, 218.2261
1049.856, 218.6893
1050.338, 217.5362
1050.820, 215.2654
1051.302, 214.3359
1051.784, 215.2433
1052.266, 215.8814
1052.749, 215.8652
1053.231, 215.3328
1053.713, 214.1647
1054.195, 212.7352
1054.677, 211.5443
1055.159, 210.6353
1055.641, 210.3482
1056.123, 211.7685
1056.606, 212.6369
1057.088, 211.6163
1057.570, 209.1864
1058.052, 208.0723
1058.534, 208.1088
1059.016, 208.2134
1059.498, 207.7679
1059.980, 207.3978
1060.463, 207.5240
1060.945, 207.9544
1061.427, 208.4559
1061.909, 209.1413
1062.391, 209.3964
1062.873, 209.1585
1063.355, 208.7377
1063.837, 208.3237
1064.319, 207.9327
1064.802, 207.5792
1065.284, 207.2697
1065.766, 207.0320
1066.248, 206.8534
1066.730, 206.7471
1067.212, 206.5815
1067.694, 206.6628
1068.176, 207.7854
1068.658, 209.6643
1069.141, 211.2359
1069.623, 212.2936
1070.105, 213.0532
1070.587, 214.1640
1071.069, 214.4973
1071.551, 212.8791
1072.033, 209.5679
1072.515, 207.9048
1072.998, 207.9444
1073.480, 208.7637
1073.962, 210.4675
1074.444, 212.0175
1074.926, 211.9629
1075.408, 211.0996
1075.890, 210.6473
1076.372, 210.7842
1076.854, 211.6777
1077.337, 213.8391
1077.819, 215.3853
1078.301, 214.0400
1078.783, 211.1379
1079.265, 209.9197
1079.747, 210.1820
1080.229, 210.4461
1080.711, 210.2682
1081.193, 209.7055
1081.676, 208.4786
1082.158, 207.1778
1082.640, 207.0500
1083.122, 207.9234
1083.604, 208.0872
1084.086, 207.2687
1084.568, 206.1597
1085.050, 205.0945
1085.532, 204.0943
1086.015, 203.2128
1086.497, 202.4301
1086.979, 201.5250
1087.461, 200.4404
1087.943, 199.7319
1088.425, 199.8672
1088.907, 199.8330
1089.389, 197.6263
1089.872, 194.6755
1090.354, 193.1562
1090.836, 194.2377
1091.318, 194.7551
1091.800, 194.3954
1092.282, 193.7664
1092.764, 193.2376
1093.246, 192.4847
1093.729, 191.8826
1094.211, 190.8023
1094.693, 189.8345
1095.175, 188.8949
1095.657, 188.3809
1096.139, 188.6819
1096.621, 189.2020
1097.103, 189.3366
1097.585, 189.0937
1098.068, 188.6097
1098.550, 187.9022
1099.032, 187.2641
1099.514, 186.9672
1099.996, 186.7601
1100.478, 186.4225
1100.960, 186.0335
1101.442, 185.9220
1101.924, 186.1557
1102.407, 186.2270
1102.889, 185.9808
1103.371, 185.8058
1103.853, 186.3515
1104.335, 187.0915
1104.817, 187.3390
1105.299, 186.9415
1105.781, 186.8005
1106.264, 187.0993
1106.746, 187.3664
1107.228, 187.4465
1107.710, 187.3587
1108.192, 187.0740
1108.674, 186.6653
1109.156, 186.2618
1109.638, 185.7929
1110.120, 185.6435
1110.603, 186.1996
1111.085, 186.7583
1111.567, 186.8201
1112.049, 186.4837
1112.531, 186.5248
1113.013, 186.8739
1113.495, 187.0860
1113.977, 186.8818
1114.459, 186.5403
1114.942, 185.8646
1115.424, 185.3230
1115.906, 185.6236
1116.388, 186.8733
1116.870, 187.8504
1117.352, 188.4968
1117.834, 188.7896
1118.316, 188.5456
1118.799, 188.0833
1119.281, 187.6724
1119.763, 187.2723
1120.245, 186.6396
1120.727, 185.6054
1121.209, 185.0339
1121.691, 185.1790
1122.173, 185.3809
1122.656, 184.5603
1123.138, 183.4751
1123.620, 183.2439
1124.102, 184.0198
1124.584, 184.6295
1125.066, 184.8250
1125.548, 185.0524
1126.030, 185.4484
1126.512, 185.9599
1126.995, 186.8216
1127.477, 187.6620
1127.959, 187.4370
1128.441, 185.4934
1128.923, 184.0240
1129.405, 184.1984
1129.887, 184.4317
1130.369, 183.8756
1130.851, 182.7410
1131.334, 181.9272
1131.816, 181.4213
1132.298, 181.1388
1132.780, 181.0947
1133.262, 181.1822
1133.744, 181.8607
1134.226, 182.2481
1134.708, 181.2335
1135.191, 178.6527
1135.673, 177.8148
1136.155, 178.6579
1136.637, 179.3413
1137.119, 178.3975
1137.601, 177.1712
1138.083, 176.5800
1138.565, 176.3954
1139.047, 176.1395
1139.530, 175.8487
1140.012, 175.0725
1140.494, 173.6684
1140.976, 172.7988
1141.458, 174.3703
1141.940, 176.3490
1142.422, 176.7010
1142.904, 175.4921
1143.386, 173.7219
1143.869, 170.9318
1144.351, 169.2877
1144.833, 169.3534
1145.315, 170.0609
1145.797, 170.4442
1146.279, 170.4037
1146.761, 169.6595
1147.243, 168.1696
1147.726, 166.7913
1148.208, 165.6615
1148.690, 164.6217
1149.172, 163.5738
1149.654, 162.9561
1150.136, 162.1997
1150.618, 162.0435
1151.100, 161.9009
1151.583, 161.8242
1152.065, 161.1719
1152.547, 159.0832
1153.029, 157.4038
1153.511, 157.2128
1153.993, 157.9513
1154.475, 157.8682
1154.957, 157.1045
1155.439, 156.0938
1155.922, 154.7906
1156.404, 153.6845
1156.886, 152.8921
1157.368, 152.4328
1157.850, 152.4189
1158.332, 152.7928
1158.814, 152.9491
1159.296, 152.9353
1159.778, 153.0566
1160.261, 153.7859
1160.743, 154.3229
1161.225, 154.4861
1161.707, 154.0931
1162.189, 152.6294
1162.671, 150.0430
1163.153, 148.9015
1163.635, 149.2188
1164.118, 149.4942
1164.600, 148.5630
1165.082, 147.4207
1165.564, 146.6850
1166.046, 146.1801
1166.528, 145.3947
1167.010, 144.1907
1167.492, 144.4386
1167.974, 146.4259
1168.457, 147.9163
1168.939, 146.3409
1169.421, 144.1657
1169.903, 143.4712
1170.385, 142.5402
1170.867, 141.7667
1171.349, 142.1055
1171.831, 141.4909
1172.313, 142.1487
1172.796, 143.1240
1173.278, 143.6729
1173.760, 143.8844
1174.242, 143.7724
1174.724, 143.3469
1175.206, 142.8209
1175.688, 142.0529
1176.170, 141.9621
1176.653, 142.9769
1177.135, 144.1574
1177.617, 144.4665
1178.099, 144.1544
1178.581, 143.3064
1179.063, 141.8366
1179.545, 141.2220
1180.027, 141.7600
1180.510, 142.1848
1180.992, 141.9435
1181.474, 141.5231
1181.956, 141.6907
1182.438, 142.1577
1182.920, 142.5678
1183.402, 143.0159
1183.884, 142.4753
1184.366, 140.3746
1184.849, 138.9105
1185.331, 139.4581
1185.813, 140.9446
1186.295, 141.5061
1186.777, 141.4837
1187.259, 141.5309
1187.741, 142.0683
1188.223, 141.9738
1188.705, 140.8615
1189.188, 139.9517
1189.670, 140.2898
1190.152, 141.2098
1190.634, 141.2339
1191.116, 140.6832
1191.598, 140.3321
1192.080, 140.7850
1192.562, 140.8687
1193.045, 140.4256
1193.527, 139.8198
1194.009, 139.3498
1194.491, 138.9399
1194.973, 138.0530
1195.455, 137.0371
1195.937, 137.0533
1196.419, 139.8084
1196.901, 141.7355
1197.384, 142.3788
1197.866, 142.2686
1198.348, 141.7632
1198.830, 140.9654
1199.312, 139.8387
1199.794, 138.5734
1200.276, 138.0441
1200.758, 139.4635
1201.240, 140.4313
1201.723, 140.5612
1202.205, 140.1907
1202.687, 139.3929
1203.169, 138.5047
1203.651, 138.6479
1204.133, 139.7217
1204.615, 140.2454
1205.097, 138.9637
1205.580, 138.0469
1206.062, 137.9943
1206.544, 138.3130
1207.026, 138.2714
1207.508, 138.0413
1207.990, 138.1144
1208.472, 138.5172
1208.954, 138.7791
1209.437, 138.8252
1209.919, 138.5119
1210.401, 137.6457
1210.883, 136.6467
1211.365, 136.2489
1211.847, 136.2616
1212.329, 136.1955
1212.811, 135.9802
1213.293, 135.9018
1213.776, 135.7148
1214.258, 136.3150
1214.740, 138.4980
1215.222, 140.8366
1215.704, 139.9404
1216.186, 137.1851
1216.668, 135.6307
1217.150, 135.8249
1217.632, 137.0607
1218.115, 140.9347
1218.597, 142.9548
1219.079, 141.0207
1219.561, 137.2372
1220.043, 135.7007
1220.525, 135.6475
1221.007, 135.2972
1221.489, 134.1344
1221.972, 133.6943
1222.454, 134.8451
1222.936, 135.7372
1223.418, 135.4920
1223.900, 134.7976
1224.382, 135.3022
1224.864, 136.4538
1225.346, 137.0647
1225.828, 136.7269
1226.311, 136.4021
1226.793, 136.1882
1227.275, 136.1266
1227.757, 136.2906
1228.239, 136.5565
1228.721, 136.7880
1229.203, 136.8951
1229.685, 136.6747
1230.167, 135.9957
1230.650, 135.1892
1231.132, 134.0786
1231.614, 133.3920
1232.096, 133.7054
1232.578, 134.4409
1233.060, 134.4443
1233.542, 134.0388
1234.024, 133.8527
1234.507, 134.1889
1234.989, 134.3083
1235.471, 134.0950
1235.953, 133.9383
1236.435, 134.1324
1236.917, 134.4376
1237.399, 134.3757
1237.881, 134.1535
1238.364, 134.1816
1238.846, 134.8729
1239.328, 134.8858
1239.810, 134.0161
1240.292, 133.3081
1240.774, 133.7455
1241.256, 134.3695
1241.738, 133.3583
1242.220, 131.7423
1242.703, 131.5378
1243.185, 133.9961
1243.667, 134.6402
1244.149, 133.1189
1244.631, 131.8709
1245.113, 133.0388
1245.595, 134.7742
1246.077, 135.0115
1246.559, 134.3759
1247.042, 133.9725
1247.524, 134.0443
1248.006, 133.6794
1248.488, 132.8317
1248.970, 132.1354
1249.452, 131.9304
1249.934, 132.1381
1250.416, 132.9255
1250.899, 133.9893
1251.381, 134.9422
1251.863, 135.8947
1252.345, 135.9049
1252.827, 134.9732
1253.309, 133.8840
1253.791, 132.6547
1254.273, 131.9884
1254.755, 133.1423
1255.238, 134.7005
1255.720, 134.4081
1256.202, 132.1267
1256.684, 131.8257
1257.166, 133.4500
1257.648, 134.7346
1258.130, 133.7549
1258.612, 132.6940
1259.094, 132.8262
1259.577, 133.3591
1260.059, 133.4566
1260.541, 133.1647
1261.023, 133.0997
1261.505, 133.2500
1261.987, 133.3823
1262.469, 133.4167
1262.951, 133.3450
1263.434, 133.1097
1263.916, 132.8345
1264.398, 132.5203
1264.880, 132.2616
1265.362, 132.7791
1265.844, 133.8654
1266.326, 134.3526
1266.808, 132.8066
1267.291, 131.9709
1267.773, 132.5503
1268.255, 133.4758
1268.737, 133.6264
1269.219, 133.3259
1269.701, 133.5636
1270.183, 134.1342
1270.665, 134.1419
1271.147, 132.6425
1271.630, 131.5279
1272.112, 130.8882
1272.594, 130.7816
1273.076, 131.7418
1273.558, 132.9754
1274.040, 133.2272
1274.522, 132.6892
1275.004, 132.0354
1275.486, 131.1137
1275.969, 130.9133
1276.451, 131.6489
1276.933, 132.2497
1277.415, 131.2924
1277.897, 130.1567
1278.379, 130.7696
1278.861, 132.2660
1279.343, 132.3323
1279.825, 130.4323
1280.308, 129.4585
1280.790, 129.5783
1281.272, 130.0567
1281.754, 130.5408
1282.236, 130.9786
1282.718, 131.5332
1283.200, 131.9006
1283.682, 131.4093
1284.165, 129.9956
1284.647, 129.9375
1285.129, 131.2240
1285.611, 132.2407
1286.093, 131.6979
1286.575, 131.0203
1287.057, 131.0210
1287.539, 131.0723
1288.021, 130.2381
1288.504, 128.8053
1288.986, 128.5713
1289.468, 129.4055
1289.950, 130.1514
1290.432, 130.2307
1290.914, 130.2020
1291.396, 130.2554
1291.878, 130.1399
1292.360, 129.4115
1292.843, 128.4029
1293.325, 127.9206
1293.807, 127.9021
1294.289, 128.0557
1294.771, 128.3296
1295.253, 128.7594
1295.735, 129.4015
1296.217, 130.0179
1296.700, 130.3761
1297.182, 130.6075
1297.664, 130.8953
1298.146, 131.1920
1298.628, 131.4057
1299.110, 131.5930
1299.592, 131.5155
1300.074, 131.1328
1300.557, 130.8085
1301.039, 130.7618
1301.521, 130.9123
1302.003, 131.3801
1302.485, 131.9124
1302.967, 132.2112
1303.449, 132.3535
##END=



