##NAMES=Olmiite
##RRUFFID=R050177
##IDEAL CHEMISTRY=CaMn^2+^SiO_3_(OH)_2_
##LOCALITY=N'Chwaning II mine, Kuruman, South Africa
##OWNER=RRUFF
##SOURCE=Marcus Origlieri
##DESCRIPTION=Gray etched crystals
##STATUS=The identification of this mineral has been confirmed by X-ray diffraction and chemical analysis
##URL=rruff.info/R050177
##MEASURED CHEMISTRY=Ca_1.00_(Mn_0.98_Ca_0.02_)(Si_1.00_O_3_OH)(OH)
114.9877, 186.5637
115.4698, 193.2339
115.9520, 202.4530
116.4341, 211.7352
116.9162, 220.1430
117.3983, 227.8731
117.8804, 235.4415
118.3625, 241.9958
118.8447, 248.9195
119.3268, 257.6134
119.8089, 269.1873
120.2910, 282.1478
120.7731, 295.9469
121.2552, 310.7377
121.7374, 325.0967
122.2195, 337.1759
122.7016, 348.1020
123.1837, 360.1356
123.6658, 374.8819
124.1479, 391.0525
124.6301, 406.6457
125.1122, 420.9789
125.5943, 436.1901
126.0764, 456.0575
126.5585, 479.7471
127.0406, 502.1952
127.5227, 519.7589
128.0049, 533.7404
128.4870, 547.3068
128.9691, 561.4586
129.4512, 575.3812
129.9333, 587.9003
130.4154, 599.0967
130.8976, 608.0759
131.3797, 612.5507
131.8618, 613.0908
132.3439, 615.5206
132.8260, 623.1298
133.3081, 634.5516
133.7903, 642.1855
134.2724, 645.3403
134.7545, 646.5402
135.2366, 647.6061
135.7187, 647.8055
136.2008, 653.5034
136.6830, 670.5480
137.1651, 700.4669
137.6472, 723.5018
138.1293, 737.5909
138.6114, 745.3480
139.0935, 752.7201
139.5757, 757.6179
140.0578, 766.8737
140.5399, 787.2701
141.0220, 825.1298
141.5041, 854.0164
141.9862, 868.2767
142.4684, 869.3585
142.9505, 873.5780
143.4326, 882.7274
143.9147, 893.1617
144.3968, 901.4778
144.8789, 905.0529
145.3611, 910.5854
145.8432, 920.0289
146.3253, 934.6512
146.8074, 946.9198
147.2895, 954.7219
147.7716, 960.9876
148.2537, 970.2423
148.7359, 985.4985
149.2180, 1000.536
149.7001, 1013.459
150.1822, 1021.356
150.6643, 1032.021
151.1464, 1045.147
151.6286, 1061.049
152.1107, 1080.630
152.5928, 1108.987
153.0749, 1137.446
153.5570, 1162.148
154.0391, 1172.942
154.5213, 1190.571
155.0034, 1221.704
155.4855, 1264.255
155.9676, 1302.282
156.4497, 1331.391
156.9318, 1355.736
157.4140, 1378.907
157.8961, 1401.939
158.3782, 1423.629
158.8603, 1446.325
159.3424, 1470.516
159.8245, 1484.980
160.3067, 1485.722
160.7888, 1474.497
161.2709, 1453.492
161.7530, 1415.732
162.2351, 1374.086
162.7172, 1335.044
163.1993, 1299.923
163.6815, 1264.808
164.1636, 1225.478
164.6457, 1184.644
165.1278, 1148.342
165.6099, 1116.481
166.0920, 1091.339
166.5742, 1075.094
167.0563, 1069.743
167.5384, 1070.348
168.0205, 1077.396
168.5026, 1089.009
168.9847, 1097.734
169.4669, 1093.775
169.9490, 1086.709
170.4311, 1087.624
170.9132, 1103.714
171.3953, 1124.795
171.8774, 1142.414
172.3596, 1156.857
172.8417, 1170.186
173.3238, 1184.714
173.8059, 1199.049
174.2880, 1210.498
174.7701, 1216.771
175.2523, 1220.323
175.7344, 1225.755
176.2165, 1233.416
176.6986, 1236.802
177.1807, 1228.854
177.6628, 1211.634
178.1450, 1190.451
178.6271, 1163.605
179.1092, 1135.358
179.5913, 1112.469
180.0734, 1095.635
180.5555, 1083.818
181.0376, 1077.817
181.5198, 1076.843
182.0019, 1076.190
182.4840, 1069.376
182.9661, 1060.586
183.4482, 1062.568
183.9303, 1079.146
184.4125, 1102.300
184.8946, 1120.435
185.3767, 1133.601
185.8588, 1144.836
186.3409, 1155.390
186.8230, 1165.601
187.3052, 1176.918
187.7873, 1190.526
188.2694, 1204.594
188.7515, 1214.671
189.2336, 1220.781
189.7157, 1223.967
190.1979, 1223.276
190.6800, 1219.269
191.1621, 1218.277
191.6442, 1221.907
192.1263, 1229.754
192.6084, 1240.414
193.0906, 1254.041
193.5727, 1269.773
194.0548, 1285.248
194.5369, 1300.377
195.0190, 1321.908
195.5011, 1356.114
195.9832, 1401.094
196.4654, 1433.999
196.9475, 1452.884
197.4296, 1464.447
197.9117, 1476.319
198.3938, 1488.239
198.8759, 1502.875
199.3581, 1524.900
199.8402, 1555.120
200.3223, 1571.599
200.8044, 1571.084
201.2865, 1561.400
201.7686, 1558.118
202.2508, 1563.481
202.7329, 1565.074
203.2150, 1556.532
203.6971, 1537.100
204.1792, 1512.085
204.6613, 1477.654
205.1435, 1440.698
205.6256, 1420.453
206.1077, 1420.196
206.5898, 1427.293
207.0719, 1434.827
207.5540, 1442.538
208.0362, 1452.054
208.5183, 1463.815
209.0004, 1477.449
209.4825, 1491.546
209.9646, 1505.764
210.4467, 1520.551
210.9289, 1537.095
211.4110, 1557.116
211.8931, 1573.041
212.3752, 1584.339
212.8573, 1590.813
213.3394, 1588.965
213.8215, 1575.191
214.3037, 1558.691
214.7858, 1548.535
215.2679, 1548.325
215.7500, 1543.472
216.2321, 1527.726
216.7142, 1501.279
217.1964, 1489.913
217.6785, 1497.959
218.1606, 1515.911
218.6427, 1535.462
219.1248, 1559.420
219.6069, 1577.748
220.0891, 1586.257
220.5712, 1583.519
221.0533, 1585.434
221.5354, 1593.284
222.0175, 1604.661
222.4996, 1617.004
222.9818, 1633.361
223.4639, 1644.841
223.9460, 1647.581
224.4281, 1639.126
224.9102, 1634.887
225.3923, 1638.243
225.8745, 1643.575
226.3566, 1642.118
226.8387, 1634.202
227.3208, 1618.749
227.8029, 1592.963
228.2850, 1549.906
228.7672, 1518.796
229.2493, 1503.604
229.7314, 1498.381
230.2135, 1490.597
230.6956, 1478.127
231.1777, 1466.460
231.6599, 1457.956
232.1420, 1453.963
232.6241, 1449.381
233.1062, 1442.221
233.5883, 1434.995
234.0704, 1434.382
234.5526, 1442.474
235.0347, 1454.174
235.5168, 1468.075
235.9989, 1487.600
236.4810, 1501.118
236.9631, 1503.835
237.4453, 1500.535
237.9274, 1508.279
238.4095, 1532.380
238.8916, 1559.904
239.3737, 1584.149
239.8558, 1601.913
240.3380, 1623.149
240.8201, 1651.641
241.3022, 1684.492
241.7843, 1707.166
242.2664, 1713.382
242.7485, 1717.444
243.2307, 1729.309
243.7128, 1758.345
244.1949, 1775.326
244.6770, 1775.019
245.1591, 1759.755
245.6412, 1745.550
246.1233, 1737.218
246.6055, 1723.952
247.0876, 1697.348
247.5697, 1650.274
248.0518, 1604.343
248.5339, 1560.902
249.0160, 1520.066
249.4982, 1482.889
249.9803, 1449.062
250.4624, 1419.165
250.9445, 1394.368
251.4266, 1376.813
251.9087, 1359.734
252.3909, 1341.973
252.8730, 1323.615
253.3551, 1307.354
253.8372, 1293.780
254.3193, 1281.335
254.8014, 1268.752
255.2836, 1255.599
255.7657, 1243.407
256.2478, 1232.188
256.7299, 1222.068
257.2120, 1213.518
257.6941, 1205.393
258.1762, 1200.324
258.6584, 1201.544
259.1405, 1212.191
259.6226, 1221.258
260.1047, 1226.637
260.5868, 1228.391
261.0689, 1229.161
261.5511, 1227.517
262.0332, 1226.896
262.5153, 1231.605
262.9974, 1244.133
263.4795, 1254.512
263.9616, 1260.231
264.4438, 1261.431
264.9259, 1262.362
265.4080, 1262.645
265.8901, 1263.236
266.3722, 1264.804
266.8543, 1266.940
267.3365, 1271.558
267.8186, 1279.713
268.3007, 1291.332
268.7828, 1302.200
269.2649, 1312.909
269.7470, 1322.023
270.2292, 1327.782
270.7113, 1329.735
271.1934, 1330.274
271.6755, 1329.359
272.1576, 1327.180
272.6397, 1326.809
273.1219, 1328.376
273.6040, 1331.516
274.0861, 1335.714
274.5682, 1340.920
275.0503, 1348.016
275.5324, 1358.346
276.0146, 1371.356
276.4967, 1380.395
276.9788, 1384.583
277.4609, 1387.310
277.9430, 1391.729
278.4251, 1397.748
278.9073, 1406.667
279.3894, 1420.354
279.8715, 1437.679
280.3536, 1450.043
280.8357, 1456.803
281.3178, 1460.829
281.8000, 1463.629
282.2821, 1465.084
282.7642, 1471.095
283.2463, 1487.241
283.7284, 1509.602
284.2105, 1514.935
284.6927, 1499.659
285.1748, 1484.656
285.6569, 1499.139
286.1390, 1541.090
286.6211, 1571.475
287.1032, 1572.900
287.5853, 1554.284
288.0674, 1548.909
288.5496, 1558.279
289.0317, 1569.719
289.5138, 1565.595
289.9959, 1549.138
290.4780, 1542.834
290.9601, 1557.738
291.4423, 1586.352
291.9244, 1610.375
292.4065, 1629.935
292.8886, 1645.031
293.3707, 1653.491
293.8528, 1656.768
294.3350, 1661.300
294.8171, 1671.645
295.2992, 1683.022
295.7813, 1686.424
296.2634, 1681.811
296.7455, 1672.771
297.2277, 1662.165
297.7098, 1649.509
298.1919, 1633.491
298.6740, 1611.396
299.1561, 1587.268
299.6382, 1566.923
300.1204, 1550.083
300.6025, 1535.145
301.0846, 1520.999
301.5667, 1507.715
302.0488, 1494.848
302.5309, 1480.552
303.0131, 1468.431
303.4952, 1464.620
303.9773, 1468.117
304.4594, 1471.020
304.9415, 1465.282
305.4236, 1456.047
305.9058, 1450.392
306.3879, 1448.882
306.8700, 1453.188
307.3521, 1467.248
307.8342, 1489.618
308.3163, 1512.532
308.7985, 1536.161
309.2806, 1556.148
309.7627, 1566.521
310.2448, 1556.395
310.7269, 1549.091
311.2090, 1564.186
311.6912, 1596.602
312.1733, 1626.674
312.6554, 1639.656
313.1375, 1648.412
313.6196, 1663.571
314.1017, 1688.496
314.5839, 1718.708
315.0660, 1754.002
315.5481, 1793.111
316.0302, 1833.020
316.5123, 1872.126
316.9944, 1912.313
317.4766, 1954.940
317.9587, 2000.794
318.4408, 2048.137
318.9229, 2100.045
319.4050, 2153.042
319.8871, 2200.010
320.3692, 2229.729
320.8513, 2259.966
321.3335, 2300.088
321.8156, 2357.472
322.2977, 2411.858
322.7798, 2458.281
323.2619, 2499.318
323.7440, 2541.032
324.2262, 2581.421
324.7083, 2624.993
325.1904, 2675.116
325.6725, 2739.166
326.1546, 2792.843
326.6367, 2825.689
327.1189, 2849.299
327.6010, 2882.620
328.0831, 2939.981
328.5652, 2991.831
329.0473, 3029.538
329.5294, 3049.022
330.0116, 3069.375
330.4937, 3094.921
330.9758, 3118.913
331.4579, 3132.530
331.9400, 3136.308
332.4221, 3128.924
332.9043, 3108.783
333.3864, 3074.854
333.8685, 3038.389
334.3506, 3004.457
334.8327, 2963.058
335.3148, 2900.576
335.7970, 2810.759
336.2791, 2720.366
336.7612, 2634.503
337.2433, 2553.711
337.7254, 2473.714
338.2076, 2393.788
338.6897, 2317.924
339.1718, 2250.755
339.6539, 2194.563
340.1360, 2138.859
340.6181, 2080.468
341.1003, 2021.458
341.5824, 1973.937
342.0645, 1938.603
342.5466, 1909.217
343.0287, 1880.837
343.5108, 1853.638
343.9930, 1828.771
344.4751, 1806.647
344.9572, 1786.795
345.4393, 1767.312
345.9214, 1748.366
346.4035, 1732.114
346.8857, 1721.313
347.3678, 1714.825
347.8499, 1708.753
348.3320, 1702.887
348.8141, 1696.583
349.2962, 1687.572
349.7784, 1676.619
350.2605, 1667.718
350.7426, 1663.336
351.2247, 1662.537
351.7068, 1662.985
352.1889, 1663.725
352.6710, 1668.795
353.1531, 1688.086
353.6353, 1715.499
354.1174, 1735.815
354.5995, 1734.206
355.0816, 1725.769
355.5637, 1725.389
356.0458, 1734.423
356.5280, 1747.057
357.0101, 1761.173
357.4922, 1776.005
357.9743, 1790.420
358.4564, 1802.038
358.9385, 1814.693
359.4207, 1830.669
359.9028, 1850.078
360.3849, 1870.897
360.8670, 1895.655
361.3491, 1919.927
361.8312, 1939.531
362.3134, 1943.558
362.7955, 1952.444
363.2776, 1975.038
363.7597, 2009.799
364.2418, 2043.333
364.7239, 2071.766
365.2061, 2098.720
365.6882, 2126.132
366.1703, 2158.933
366.6524, 2187.032
367.1345, 2206.111
367.6166, 2218.671
368.0988, 2236.005
368.5809, 2261.537
369.0630, 2288.886
369.5451, 2315.799
370.0272, 2342.258
370.5093, 2368.943
370.9915, 2400.583
371.4736, 2430.829
371.9557, 2444.662
372.4378, 2434.657
372.9199, 2421.378
373.4020, 2412.097
373.8842, 2408.021
374.3663, 2400.926
374.8484, 2390.542
375.3305, 2377.327
375.8126, 2362.671
376.2947, 2346.848
376.7769, 2327.041
377.2590, 2299.999
377.7411, 2267.346
378.2232, 2241.368
378.7053, 2222.478
379.1874, 2208.429
379.6696, 2196.848
380.1517, 2187.860
380.6338, 2183.209
381.1159, 2184.734
381.5980, 2189.808
382.0801, 2190.533
382.5623, 2187.104
383.0444, 2187.489
383.5265, 2200.641
384.0086, 2222.375
384.4907, 2241.394
384.9728, 2254.667
385.4549, 2267.265
385.9370, 2285.729
386.4192, 2309.149
386.9013, 2333.573
387.3834, 2358.635
387.8655, 2382.421
388.3476, 2399.983
388.8297, 2408.613
389.3119, 2421.572
389.7940, 2454.118
390.2761, 2497.008
390.7582, 2534.222
391.2403, 2556.109
391.7224, 2572.488
392.2046, 2589.240
392.6867, 2606.889
393.1688, 2621.201
393.6509, 2628.126
394.1330, 2631.927
394.6151, 2636.736
395.0973, 2646.895
395.5794, 2654.708
396.0615, 2661.237
396.5436, 2665.578
397.0257, 2658.651
397.5078, 2633.537
397.9900, 2600.769
398.4721, 2566.094
398.9542, 2523.325
399.4363, 2487.014
399.9184, 2460.208
400.4005, 2439.966
400.8827, 2418.073
401.3648, 2389.917
401.8469, 2366.803
402.3290, 2355.874
402.8111, 2363.779
403.2932, 2355.760
403.7754, 2323.664
404.2575, 2284.780
404.7396, 2267.737
405.2217, 2277.662
405.7038, 2285.171
406.1859, 2278.698
406.6681, 2260.559
407.1502, 2252.240
407.6323, 2254.563
408.1144, 2263.516
408.5965, 2276.751
409.0786, 2294.009
409.5608, 2311.859
410.0429, 2329.101
410.5250, 2347.100
411.0071, 2369.409
411.4892, 2395.665
411.9713, 2422.298
412.4535, 2446.439
412.9356, 2469.428
413.4177, 2495.097
413.8998, 2525.482
414.3819, 2554.424
414.8640, 2573.365
415.3462, 2586.055
415.8283, 2602.502
416.3104, 2633.763
416.7925, 2666.683
417.2746, 2691.191
417.7567, 2705.946
418.2388, 2716.485
418.7209, 2723.557
419.2031, 2728.594
419.6852, 2733.037
420.1673, 2731.613
420.6494, 2735.413
421.1315, 2755.802
421.6136, 2789.841
422.0958, 2807.304
422.5779, 2788.303
423.0600, 2760.771
423.5421, 2740.951
424.0242, 2732.106
424.5063, 2728.625
424.9885, 2734.371
425.4706, 2745.106
425.9527, 2749.159
426.4348, 2734.719
426.9169, 2730.726
427.3990, 2752.302
427.8812, 2807.202
428.3633, 2841.792
428.8454, 2848.728
429.3275, 2844.798
429.8096, 2851.681
430.2917, 2871.506
430.7739, 2891.064
431.2560, 2909.723
431.7381, 2924.995
432.2202, 2924.122
432.7023, 2905.842
433.1844, 2882.683
433.6666, 2867.693
434.1487, 2857.590
434.6308, 2834.460
435.1129, 2791.055
435.5950, 2741.933
436.0771, 2711.925
436.5593, 2695.705
437.0414, 2670.576
437.5235, 2616.793
438.0056, 2549.795
438.4877, 2487.245
438.9698, 2430.233
439.4520, 2379.173
439.9341, 2339.369
440.4162, 2303.900
440.8983, 2263.075
441.3804, 2204.258
441.8625, 2147.227
442.3447, 2102.026
442.8268, 2068.279
443.3089, 2037.732
443.7910, 2009.986
444.2731, 1982.839
444.7552, 1954.505
445.2374, 1915.106
445.7195, 1887.720
446.2016, 1885.570
446.6837, 1896.680
447.1658, 1891.630
447.6479, 1856.170
448.1301, 1822.284
448.6122, 1799.922
449.0943, 1790.553
449.5764, 1785.061
450.0585, 1785.359
450.5406, 1787.073
451.0227, 1785.152
451.5049, 1778.937
451.9870, 1772.469
452.4691, 1767.081
452.9512, 1761.947
453.4333, 1752.647
453.9154, 1738.469
454.3976, 1726.707
454.8797, 1724.048
455.3618, 1728.807
455.8439, 1733.093
456.3260, 1735.968
456.8081, 1738.616
457.2903, 1743.132
457.7724, 1748.834
458.2545, 1753.657
458.7366, 1758.047
459.2187, 1760.177
459.7008, 1754.064
460.1830, 1739.827
460.6651, 1733.095
461.1472, 1750.020
461.6293, 1777.289
462.1114, 1800.785
462.5935, 1818.069
463.0757, 1828.960
463.5578, 1827.619
464.0399, 1818.815
464.5220, 1817.536
465.0041, 1830.939
465.4862, 1849.845
465.9684, 1871.870
466.4505, 1900.494
466.9326, 1922.090
467.4147, 1931.882
467.8968, 1936.868
468.3789, 1944.961
468.8611, 1957.143
469.3432, 1970.500
469.8253, 1983.732
470.3074, 1997.295
470.7895, 2017.442
471.2716, 2046.960
471.7538, 2074.654
472.2359, 2089.241
472.7180, 2090.444
473.2001, 2102.664
473.6822, 2131.441
474.1643, 2164.757
474.6465, 2181.961
475.1286, 2184.665
475.6107, 2185.490
476.0928, 2192.512
476.5749, 2200.918
477.0570, 2199.044
477.5392, 2186.879
478.0213, 2177.811
478.5034, 2187.448
478.9855, 2205.222
479.4676, 2216.486
479.9497, 2212.831
480.4319, 2207.958
480.9140, 2210.821
481.3961, 2219.023
481.8782, 2225.992
482.3603, 2226.947
482.8424, 2227.963
483.3246, 2233.552
483.8066, 2246.980
484.2888, 2253.598
484.7709, 2247.491
485.2530, 2235.540
485.7351, 2224.809
486.2172, 2216.739
486.6993, 2207.813
487.1815, 2196.824
487.6636, 2184.431
488.1457, 2174.266
488.6278, 2165.020
489.1099, 2160.732
489.5920, 2167.502
490.0742, 2187.307
490.5563, 2192.184
491.0384, 2177.776
491.5205, 2157.325
492.0026, 2149.334
492.4847, 2152.846
492.9669, 2160.196
493.4490, 2172.729
493.9311, 2184.946
494.4132, 2181.232
494.8953, 2163.503
495.3774, 2153.459
495.8596, 2174.080
496.3417, 2208.665
496.8238, 2235.892
497.3059, 2250.739
497.7880, 2261.474
498.2701, 2268.065
498.7523, 2274.881
499.2344, 2289.625
499.7165, 2325.609
500.1986, 2360.126
500.6807, 2382.298
501.1628, 2391.022
501.6450, 2405.088
502.1271, 2429.765
502.6092, 2458.965
503.0913, 2488.763
503.5734, 2520.614
504.0555, 2550.289
504.5377, 2574.614
505.0198, 2598.031
505.5019, 2631.011
505.9840, 2676.967
506.4661, 2723.130
506.9482, 2766.978
507.4304, 2807.769
507.9125, 2835.010
508.3946, 2847.753
508.8767, 2854.015
509.3588, 2860.259
509.8409, 2866.272
510.3231, 2871.972
510.8052, 2878.856
511.2873, 2882.064
511.7694, 2879.282
512.2515, 2868.447
512.7336, 2843.302
513.2158, 2784.990
513.6979, 2721.433
514.1800, 2676.452
514.6621, 2652.235
515.1442, 2632.403
515.6263, 2616.588
516.1085, 2598.222
516.5906, 2571.691
517.0727, 2527.197
517.5548, 2484.533
518.0369, 2443.620
518.5190, 2406.805
519.0012, 2379.562
519.4833, 2372.746
519.9654, 2361.287
520.4475, 2333.610
520.9296, 2286.737
521.4117, 2259.007
521.8939, 2256.318
522.3760, 2261.504
522.8581, 2259.357
523.3402, 2249.745
523.8223, 2236.625
524.3044, 2219.875
524.7866, 2201.362
525.2687, 2182.859
525.7508, 2165.057
526.2329, 2151.803
526.7150, 2145.648
527.1971, 2145.325
527.6793, 2153.445
528.1614, 2170.179
528.6435, 2178.773
529.1256, 2161.161
529.6077, 2131.481
530.0898, 2105.619
530.5720, 2088.108
531.0541, 2074.592
531.5362, 2065.248
532.0183, 2058.640
532.5004, 2051.188
532.9825, 2043.065
533.4646, 2033.170
533.9467, 2018.560
534.4288, 1997.773
534.9109, 1988.725
535.3931, 1999.052
535.8752, 2012.037
536.3573, 2014.967
536.8394, 2006.200
537.3215, 1993.207
537.8036, 1973.770
538.2858, 1953.940
538.7679, 1948.864
539.2500, 1958.211
539.7321, 1964.966
540.2142, 1957.315
540.6964, 1942.654
541.1785, 1943.006
541.6606, 1957.837
542.1427, 1967.301
542.6248, 1946.500
543.1069, 1914.784
543.5891, 1899.633
544.0712, 1913.531
544.5533, 1927.889
545.0354, 1925.407
545.5175, 1912.561
545.9996, 1900.582
546.4818, 1888.237
546.9639, 1881.695
547.4460, 1886.622
547.9281, 1902.900
548.4102, 1911.612
548.8923, 1908.188
549.3745, 1901.263
549.8566, 1894.884
550.3387, 1888.467
550.8208, 1884.366
551.3029, 1882.298
551.7850, 1882.961
552.2672, 1889.232
552.7493, 1901.532
553.2314, 1910.281
553.7135, 1912.501
554.1956, 1909.389
554.6777, 1900.610
555.1599, 1887.127
555.6420, 1878.391
556.1241, 1884.642
556.6062, 1897.857
557.0883, 1908.198
557.5704, 1914.822
558.0526, 1916.991
558.5347, 1912.504
559.0168, 1904.006
559.4989, 1894.535
559.9810, 1877.891
560.4631, 1868.060
560.9453, 1873.348
561.4274, 1889.453
561.9095, 1900.325
562.3916, 1900.933
562.8737, 1901.130
563.3558, 1904.589
563.8380, 1912.052
564.3201, 1915.621
564.8022, 1912.866
565.2843, 1911.000
565.7664, 1921.690
566.2485, 1945.363
566.7307, 1948.995
567.2128, 1921.535
567.6949, 1885.853
568.1770, 1884.276
568.6591, 1910.085
569.1412, 1932.429
569.6234, 1932.244
570.1055, 1923.365
570.5876, 1921.288
571.0697, 1925.525
571.5518, 1929.650
572.0339, 1927.156
572.5161, 1924.777
572.9982, 1928.767
573.4803, 1943.885
573.9624, 1955.757
574.4445, 1960.981
574.9266, 1961.229
575.4088, 1958.304
575.8909, 1947.827
576.3730, 1941.169
576.8551, 1941.223
577.3372, 1946.446
577.8193, 1950.310
578.3015, 1952.620
578.7836, 1954.249
579.2657, 1954.259
579.7478, 1953.208
580.2299, 1958.725
580.7120, 1971.746
581.1942, 1983.994
581.6763, 1986.684
582.1584, 1982.450
582.6405, 1976.578
583.1226, 1968.786
583.6047, 1962.991
584.0869, 1961.894
584.5690, 1965.249
585.0511, 1972.621
585.5332, 1992.288
586.0153, 2008.001
586.4974, 2010.068
586.9796, 1998.558
587.4617, 1990.347
587.9438, 1988.132
588.4259, 1989.233
588.9080, 1993.321
589.3901, 2003.200
589.8723, 2007.541
590.3544, 2004.997
590.8365, 1998.825
591.3186, 1990.862
591.8007, 1980.664
592.2828, 1979.188
592.7650, 1991.924
593.2471, 2011.407
593.7292, 2023.961
594.2113, 2029.899
594.6934, 2029.967
595.1755, 2019.366
595.6577, 2006.041
596.1398, 1998.622
596.6219, 1997.576
597.1040, 1999.771
597.5861, 2005.629
598.0682, 2012.810
598.5503, 2019.561
599.0324, 2027.042
599.5145, 2031.612
599.9966, 2028.200
600.4788, 2023.126
600.9609, 2026.578
601.4430, 2047.821
601.9251, 2058.755
602.4072, 2049.281
602.8893, 2025.931
603.3715, 2019.843
603.8536, 2033.256
604.3357, 2048.059
604.8178, 2055.044
605.2999, 2055.050
605.7820, 2048.884
606.2642, 2036.077
606.7463, 2026.154
607.2284, 2027.690
607.7105, 2037.296
608.1926, 2051.698
608.6747, 2074.876
609.1569, 2091.854
609.6390, 2089.714
610.1211, 2076.676
610.6032, 2066.390
611.0853, 2062.083
611.5674, 2061.121
612.0496, 2064.049
612.5317, 2070.307
613.0138, 2076.452
613.4959, 2084.305
613.9780, 2088.888
614.4601, 2086.618
614.9423, 2077.040
615.4244, 2069.197
615.9065, 2062.733
616.3886, 2059.720
616.8707, 2063.890
617.3528, 2073.565
617.8350, 2083.054
618.3171, 2091.698
618.7992, 2098.565
619.2813, 2101.274
619.7634, 2101.599
620.2455, 2103.058
620.7277, 2111.542
621.2098, 2117.362
621.6919, 2111.814
622.1740, 2097.508
622.6561, 2091.324
623.1382, 2106.080
623.6204, 2120.628
624.1025, 2126.216
624.5846, 2121.076
625.0667, 2116.964
625.5488, 2114.135
626.0309, 2111.879
626.5131, 2109.272
626.9952, 2106.297
627.4773, 2104.591
627.9594, 2104.150
628.4415, 2105.641
628.9236, 2110.198
629.4058, 2117.486
629.8879, 2126.604
630.3700, 2140.893
630.8521, 2153.507
631.3342, 2156.294
631.8163, 2151.688
632.2985, 2149.172
632.7806, 2155.007
633.2627, 2161.896
633.7448, 2166.841
634.2269, 2169.669
634.7090, 2169.748
635.1912, 2164.754
635.6733, 2159.465
636.1554, 2157.369
636.6375, 2159.382
637.1196, 2160.412
637.6017, 2159.635
638.0839, 2159.073
638.5660, 2163.148
639.0481, 2170.931
639.5302, 2174.958
640.0123, 2170.997
640.4944, 2165.050
640.9766, 2166.341
641.4587, 2172.550
641.9408, 2176.491
642.4229, 2174.438
642.9050, 2168.925
643.3871, 2156.674
643.8693, 2138.379
644.3514, 2133.250
644.8335, 2158.964
645.3156, 2188.122
645.7977, 2206.589
646.2798, 2211.410
646.7620, 2214.544
647.2441, 2216.669
647.7262, 2216.029
648.2083, 2207.907
648.6904, 2192.169
649.1725, 2185.410
649.6547, 2193.047
650.1368, 2205.163
650.6189, 2204.390
651.1010, 2194.637
651.5831, 2188.563
652.0652, 2195.170
652.5474, 2205.109
653.0295, 2212.417
653.5116, 2217.085
653.9937, 2218.790
654.4758, 2215.179
654.9579, 2210.524
655.4401, 2206.130
655.9222, 2201.673
656.4043, 2200.292
656.8864, 2201.181
657.3685, 2206.149
657.8506, 2217.868
658.3328, 2237.673
658.8149, 2254.145
659.2970, 2266.100
659.7791, 2276.508
660.2612, 2293.570
660.7433, 2313.394
661.2255, 2319.718
661.7076, 2301.661
662.1897, 2279.648
662.6718, 2273.244
663.1539, 2278.836
663.6360, 2288.066
664.1182, 2303.730
664.6002, 2316.340
665.0823, 2320.957
665.5645, 2318.040
666.0466, 2314.272
666.5287, 2308.955
667.0108, 2304.206
667.4929, 2299.700
667.9750, 2294.859
668.4572, 2299.947
668.9393, 2317.520
669.4214, 2335.828
669.9035, 2345.205
670.3856, 2346.464
670.8677, 2341.668
671.3499, 2329.893
671.8320, 2318.682
672.3141, 2317.973
672.7962, 2322.306
673.2783, 2322.627
673.7604, 2309.462
674.2426, 2300.491
674.7247, 2306.306
675.2068, 2321.409
675.6889, 2334.031
676.1710, 2344.177
676.6531, 2349.600
677.1353, 2348.872
677.6174, 2342.835
678.0995, 2335.657
678.5816, 2326.618
679.0637, 2319.142
679.5458, 2314.972
680.0280, 2313.786
680.5101, 2313.727
680.9922, 2314.794
681.4743, 2318.225
681.9564, 2327.233
682.4385, 2338.247
682.9207, 2346.282
683.4028, 2350.206
683.8849, 2353.653
684.3670, 2359.623
684.8491, 2365.340
685.3312, 2368.029
685.8134, 2364.463
686.2955, 2361.340
686.7776, 2356.982
687.2597, 2354.379
687.7418, 2360.523
688.2239, 2377.438
688.7061, 2390.941
689.1882, 2397.576
689.6703, 2398.190
690.1524, 2391.741
690.6345, 2379.707
691.1166, 2370.401
691.5988, 2363.060
692.0809, 2364.151
692.5630, 2387.574
693.0451, 2429.908
693.5272, 2462.395
694.0093, 2467.209
694.4915, 2463.296
694.9736, 2459.565
695.4557, 2455.945
695.9378, 2456.389
696.4199, 2463.061
696.9020, 2470.962
697.3842, 2474.918
697.8663, 2473.953
698.3484, 2482.144
698.8305, 2502.457
699.3126, 2524.148
699.7947, 2532.406
700.2769, 2531.476
700.7590, 2532.420
701.2411, 2537.214
701.7232, 2546.752
702.2053, 2565.422
702.6874, 2588.611
703.1696, 2608.231
703.6517, 2622.388
704.1338, 2631.972
704.6159, 2632.352
705.0980, 2627.842
705.5801, 2633.550
706.0623, 2653.241
706.5444, 2674.240
707.0265, 2691.395
707.5086, 2706.320
707.9907, 2729.581
708.4728, 2761.343
708.9550, 2790.111
709.4371, 2802.554
709.9192, 2809.173
710.4013, 2830.759
710.8834, 2868.111
711.3655, 2899.194
711.8477, 2901.302
712.3298, 2897.719
712.8119, 2907.427
713.2940, 2939.916
713.7761, 2967.650
714.2582, 2989.256
714.7404, 3004.841
715.2225, 3012.634
715.7046, 3009.666
716.1867, 3012.999
716.6688, 3025.890
717.1509, 3041.667
717.6331, 3051.297
718.1152, 3055.144
718.5973, 3052.727
719.0794, 3038.450
719.5615, 3027.188
720.0436, 3040.363
720.5258, 3066.803
721.0079, 3082.918
721.4900, 3070.586
721.9721, 3055.648
722.4542, 3047.768
722.9363, 3044.929
723.4185, 3035.661
723.9006, 3015.611
724.3827, 2997.407
724.8648, 2984.644
725.3469, 2977.408
725.8290, 2979.204
726.3112, 2990.446
726.7933, 2994.124
727.2754, 2972.831
727.7575, 2938.536
728.2396, 2910.521
728.7217, 2889.412
729.2039, 2870.480
729.6860, 2852.131
730.1681, 2833.661
730.6501, 2813.827
731.1323, 2789.999
731.6144, 2771.976
732.0965, 2761.172
732.5786, 2755.244
733.0607, 2754.675
733.5428, 2762.174
734.0250, 2757.638
734.5071, 2736.888
734.9892, 2711.758
735.4713, 2697.553
735.9534, 2691.970
736.4355, 2688.455
736.9177, 2687.556
737.3998, 2683.277
737.8819, 2663.542
738.3640, 2638.533
738.8461, 2625.197
739.3282, 2643.079
739.8104, 2656.860
740.2925, 2655.776
740.7746, 2645.119
741.2567, 2635.814
741.7388, 2626.741
742.2209, 2622.888
742.7031, 2627.558
743.1852, 2637.349
743.6673, 2642.232
744.1494, 2642.390
744.6315, 2640.014
745.1136, 2628.996
745.5958, 2620.781
746.0779, 2635.592
746.5600, 2668.882
747.0421, 2690.558
747.5242, 2674.356
748.0063, 2654.335
748.4885, 2650.473
748.9706, 2665.539
749.4527, 2670.935
749.9348, 2660.851
750.4169, 2651.391
750.8990, 2654.631
751.3812, 2670.213
751.8633, 2677.246
752.3454, 2674.819
752.8275, 2671.860
753.3096, 2678.210
753.7917, 2688.751
754.2739, 2695.095
754.7560, 2695.494
755.2381, 2694.976
755.7202, 2689.446
756.2023, 2688.015
756.6844, 2699.860
757.1666, 2747.852
757.6487, 2771.763
758.1308, 2760.688
758.6129, 2737.419
759.0950, 2729.633
759.5771, 2738.218
760.0593, 2746.874
760.5414, 2753.299
761.0235, 2758.390
761.5056, 2761.895
761.9877, 2765.152
762.4698, 2771.130
762.9520, 2781.212
763.4341, 2793.781
763.9162, 2811.665
764.3983, 2830.855
764.8804, 2843.501
765.3625, 2837.677
765.8447, 2839.914
766.3268, 2857.606
766.8089, 2884.373
767.2910, 2901.585
767.7731, 2908.066
768.2552, 2917.563
768.7374, 2937.677
769.2195, 2961.273
769.7016, 2972.149
770.1837, 2974.026
770.6658, 2982.068
771.1479, 3006.794
771.6301, 3037.934
772.1122, 3072.527
772.5943, 3109.302
773.0764, 3140.583
773.5585, 3160.022
774.0406, 3180.369
774.5228, 3206.289
775.0049, 3237.375
775.4870, 3264.868
775.9691, 3288.053
776.4512, 3315.139
776.9333, 3353.951
777.4155, 3399.837
777.8976, 3443.676
778.3797, 3485.412
778.8618, 3525.132
779.3439, 3561.163
779.8260, 3596.982
780.3082, 3635.115
780.7903, 3675.773
781.2724, 3719.785
781.7545, 3774.597
782.2366, 3823.378
782.7188, 3853.277
783.2009, 3861.212
783.6830, 3880.751
784.1651, 3913.094
784.6472, 3950.042
785.1293, 3988.555
785.6115, 4024.827
786.0936, 4049.648
786.5757, 4060.586
787.0578, 4068.488
787.5399, 4069.486
788.0220, 4076.504
788.5042, 4103.684
788.9863, 4175.649
789.4684, 4218.279
789.9505, 4220.658
790.4326, 4203.919
790.9147, 4182.350
791.3969, 4154.748
791.8790, 4149.296
792.3611, 4172.838
792.8432, 4199.521
793.3253, 4193.403
793.8074, 4170.570
794.2896, 4161.839
794.7717, 4176.406
795.2538, 4199.893
795.7359, 4225.190
796.2180, 4255.600
796.7001, 4295.611
797.1822, 4352.167
797.6643, 4407.730
798.1464, 4461.205
798.6285, 4512.850
799.1107, 4555.814
799.5928, 4591.501
800.0749, 4657.150
800.5570, 4765.033
801.0391, 4892.111
801.5212, 5016.145
802.0034, 5136.514
802.4855, 5254.162
802.9676, 5363.796
803.4497, 5477.835
803.9318, 5600.026
804.4139, 5728.681
804.8961, 5860.653
805.3782, 5997.165
805.8603, 6135.256
806.3424, 6277.068
806.8245, 6418.321
807.3066, 6555.822
807.7888, 6687.347
808.2709, 6797.341
808.7530, 6871.777
809.2351, 6937.375
809.7172, 7031.330
810.1993, 7133.867
810.6815, 7206.097
811.1636, 7229.210
811.6457, 7227.476
812.1278, 7213.878
812.6099, 7177.769
813.0920, 7088.018
813.5742, 6933.591
814.0563, 6776.197
814.5384, 6634.358
815.0205, 6497.319
815.5026, 6343.969
815.9847, 6177.547
816.4669, 6008.990
816.9490, 5838.580
817.4311, 5674.802
817.9132, 5514.493
818.3953, 5363.498
818.8774, 5239.225
819.3596, 5161.245
819.8417, 5088.815
820.3238, 5014.847
820.8059, 4942.050
821.2880, 4874.352
821.7701, 4810.638
822.2523, 4766.441
822.7344, 4754.155
823.2165, 4755.594
823.6986, 4743.254
824.1807, 4720.948
824.6628, 4700.333
825.1450, 4675.175
825.6271, 4664.143
826.1092, 4682.378
826.5913, 4722.238
827.0734, 4754.942
827.5555, 4778.495
828.0377, 4796.622
828.5198, 4803.202
829.0019, 4810.355
829.4840, 4859.914
829.9661, 4945.370
830.4482, 5023.106
830.9304, 5054.269
831.4125, 5086.111
831.8946, 5167.470
832.3767, 5284.798
832.8588, 5405.684
833.3409, 5520.257
833.8231, 5634.587
834.3052, 5740.204
834.7873, 5849.061
835.2694, 6003.918
835.7515, 6209.838
836.2336, 6425.408
836.7158, 6631.863
837.1979, 6839.266
837.6800, 7061.483
838.1621, 7298.076
838.6442, 7552.586
839.1263, 7843.042
839.6085, 8133.642
840.0906, 8386.977
840.5727, 8623.258
841.0548, 8905.318
841.5369, 9264.106
842.0190, 9612.373
842.5012, 9933.089
842.9833, 10233.93
843.4654, 10541.59
843.9475, 10855.42
844.4296, 11152.33
844.9117, 11421.31
845.3939, 11676.21
845.8760, 11950.55
846.3581, 12222.25
846.8402, 12436.41
847.3223, 12542.35
847.8044, 12630.30
848.2866, 12743.27
848.7687, 12846.53
849.2508, 12864.09
849.7329, 12791.75
850.2150, 12657.22
850.6971, 12463.60
851.1793, 12216.50
851.6614, 11910.61
852.1435, 11558.52
852.6256, 11195.49
853.1077, 10835.18
853.5898, 10467.41
854.0720, 10075.21
854.5541, 9670.166
855.0362, 9277.997
855.5183, 8895.490
856.0004, 8538.601
856.4825, 8213.732
856.9647, 7910.162
857.4468, 7596.051
857.9289, 7278.669
858.4110, 6985.227
858.8931, 6725.279
859.3752, 6494.468
859.8574, 6291.909
860.3395, 6113.352
860.8216, 5949.208
861.3037, 5809.278
861.7858, 5667.484
862.2679, 5515.245
862.7500, 5362.593
863.2321, 5220.317
863.7142, 5088.624
864.1964, 4970.643
864.6785, 4867.581
865.1606, 4779.164
865.6427, 4714.124
866.1248, 4627.833
866.6069, 4634.703
867.0891, 4615.670
867.5712, 4572.161
868.0533, 4430.813
868.5354, 4415.804
869.0175, 4350.162
869.4996, 4282.450
869.9818, 4285.210
870.4639, 4158.087
870.9460, 4160.635
871.4281, 4134.418
871.9102, 4109.540
872.3923, 4081.319
872.8745, 4048.851
873.3566, 4015.829
873.8387, 3983.046
874.3208, 3952.411
874.8029, 3925.086
875.2850, 3900.967
875.7672, 3880.983
876.2493, 3862.615
876.7314, 3852.234
877.2135, 3863.116
877.6956, 3890.948
878.1777, 3886.366
878.6599, 3847.007
879.1420, 3808.540
879.6241, 3803.082
880.1062, 3810.562
880.5883, 3813.863
881.0704, 3811.328
881.5526, 3800.576
882.0347, 3773.045
882.5168, 3746.242
882.9989, 3727.351
883.4810, 3716.281
883.9631, 3711.078
884.4453, 3711.975
884.9274, 3714.662
885.4095, 3713.314
885.8916, 3713.730
886.3737, 3726.392
886.8558, 3749.531
887.3380, 3770.092
887.8201, 3781.512
888.3022, 3790.306
888.7843, 3800.371
889.2664, 3810.499
889.7485, 3809.918
890.2307, 3795.679
890.7128, 3789.108
891.1949, 3800.907
891.6770, 3824.372
892.1591, 3849.601
892.6412, 3876.190
893.1234, 3901.740
893.6055, 3935.235
894.0876, 3957.349
894.5697, 3947.922
895.0518, 3922.136
895.5339, 3921.342
896.0161, 3955.452
896.4982, 3985.090
896.9803, 4001.174
897.4624, 4011.019
897.9445, 4027.342
898.4266, 4048.853
898.9088, 4072.582
899.3909, 4099.506
899.8730, 4124.167
900.3551, 4141.485
900.8372, 4154.932
901.3193, 4169.653
901.8015, 4190.977
902.2836, 4202.895
902.7657, 4201.730
903.2478, 4196.130
903.7299, 4196.645
904.2120, 4202.109
904.6942, 4208.019
905.1763, 4214.112
905.6584, 4217.579
906.1405, 4208.603
906.6226, 4200.587
907.1047, 4208.348
907.5869, 4242.255
908.0690, 4265.349
908.5511, 4275.010
909.0332, 4276.420
909.5153, 4266.448
909.9974, 4248.207
910.4796, 4256.826
910.9617, 4292.104
911.4438, 4327.546
911.9259, 4342.378
912.4080, 4348.360
912.8901, 4354.926
913.3723, 4362.680
913.8544, 4367.856
914.3365, 4364.366
914.8186, 4366.702
915.3007, 4384.145
915.7828, 4411.254
916.2650, 4420.971
916.7471, 4413.917
917.2292, 4397.397
917.7113, 4365.769
918.1934, 4334.485
918.6755, 4323.665
919.1577, 4325.352
919.6398, 4318.483
920.1219, 4286.458
920.6040, 4260.056
921.0861, 4249.198
921.5682, 4242.647
922.0504, 4213.750
922.5325, 4163.559
923.0146, 4122.292
923.4967, 4099.090
923.9788, 4084.762
924.4609, 4073.725
924.9431, 4064.134
925.4252, 4053.428
925.9073, 4039.818
926.3894, 4026.851
926.8715, 4013.178
927.3536, 4002.205
927.8357, 3996.428
928.3178, 3995.877
928.7999, 4003.466
929.2820, 4020.186
929.7642, 4036.806
930.2463, 4044.857
930.7284, 4048.487
931.2105, 4051.242
931.6926, 4053.294
932.1747, 4058.920
932.6569, 4068.871
933.1390, 4083.087
933.6211, 4102.417
934.1032, 4126.366
934.5853, 4150.409
935.0674, 4174.201
935.5496, 4203.137
936.0317, 4243.403
936.5138, 4287.723
936.9959, 4331.806
937.4780, 4373.837
937.9601, 4409.547
938.4423, 4427.310
938.9244, 4449.474
939.4065, 4474.726
939.8886, 4510.793
940.3707, 4582.958
940.8528, 4690.249
941.3350, 4787.979
941.8171, 4863.229
942.2992, 4926.905
942.7813, 4986.032
943.2634, 5044.379
943.7455, 5107.376
944.2277, 5173.648
944.7098, 5251.509
945.1919, 5359.847
945.6740, 5459.215
946.1561, 5499.667
946.6382, 5485.793
947.1204, 5511.717
947.6025, 5584.674
948.0846, 5665.532
948.5667, 5735.377
949.0488, 5787.791
949.5309, 5814.130
950.0131, 5812.904
950.4952, 5801.310
950.9773, 5784.680
951.4594, 5754.559
951.9415, 5705.211
952.4236, 5639.799
952.9058, 5572.440
953.3879, 5502.089
953.8700, 5422.327
954.3521, 5312.365
954.8342, 5206.631
955.3163, 5139.449
955.7985, 5096.782
956.2806, 5043.354
956.7627, 4967.457
957.2448, 4889.473
957.7269, 4806.270
958.2090, 4728.285
958.6912, 4673.970
959.1733, 4640.467
959.6554, 4619.231
960.1375, 4612.918
960.6196, 4597.181
961.1017, 4536.321
961.5839, 4467.840
962.0660, 4429.710
962.5481, 4436.996
963.0302, 4438.196
963.5123, 4432.266
963.9944, 4422.819
964.4766, 4411.379
964.9587, 4398.696
965.4408, 4387.051
965.9229, 4376.425
966.4050, 4367.068
966.8871, 4356.343
967.3693, 4349.383
967.8514, 4237.986
968.3335, 4294.523
968.8156, 4325.179
969.2977, 4331.343
969.7798, 4239.664
970.2620, 4274.329
970.7441, 4258.361
971.2262, 4240.317
971.7083, 4292.765
972.1904, 4215.316
972.6725, 4313.152
973.1547, 4314.556
973.6368, 4314.594
974.1189, 4313.953
974.6010, 4313.486
975.0831, 4313.458
975.5652, 4310.951
976.0474, 4304.883
976.5295, 4302.053
977.0116, 4315.667
977.4937, 4332.952
977.9758, 4329.864
978.4579, 4304.828
978.9401, 4294.186
979.4222, 4328.044
979.9043, 4359.067
980.3864, 4368.915
980.8685, 4361.162
981.3506, 4354.113
981.8328, 4347.722
982.3149, 4340.158
982.7970, 4326.819
983.2791, 4316.612
983.7612, 4316.920
984.2433, 4327.103
984.7255, 4345.961
985.2076, 4398.234
985.6897, 4419.837
986.1718, 4392.014
986.6539, 4353.678
987.1360, 4358.893
987.6182, 4398.620
988.1003, 4423.306
988.5824, 4426.392
989.0645, 4424.062
989.5466, 4420.677
990.0287, 4422.636
990.5109, 4441.172
990.9930, 4479.211
991.4751, 4489.322
991.9572, 4459.565
992.4393, 4437.059
992.9214, 4446.453
993.4036, 4477.360
993.8856, 4513.273
994.3677, 4550.524
994.8499, 4575.104
995.3320, 4575.054
995.8141, 4568.656
996.2962, 4553.509
996.7783, 4540.256
997.2604, 4548.251
997.7426, 4583.126
998.2247, 4601.958
998.7068, 4597.993
999.1889, 4585.205
999.6710, 4571.512
1000.153, 4562.078
1000.635, 4565.579
1001.117, 4584.446
1001.599, 4605.477
1002.082, 4629.387
1002.564, 4649.950
1003.046, 4663.993
1003.528, 4672.265
1004.010, 4678.590
1004.492, 4683.099
1004.974, 4686.684
1005.456, 4691.792
1005.939, 4694.373
1006.421, 4686.695
1006.903, 4674.849
1007.385, 4673.720
1007.867, 4693.598
1008.349, 4703.074
1008.831, 4695.678
1009.313, 4684.547
1009.795, 4688.905
1010.278, 4703.084
1010.760, 4713.074
1011.242, 4716.665
1011.724, 4717.374
1012.206, 4713.243
1012.688, 4710.242
1013.170, 4712.134
1013.652, 4718.735
1014.135, 4727.225
1014.617, 4737.559
1015.099, 4749.708
1015.581, 4762.367
1016.063, 4777.989
1016.545, 4809.432
1017.027, 4845.434
1017.509, 4861.339
1017.991, 4829.228
1018.474, 4804.508
1018.956, 4796.931
1019.438, 4794.746
1019.920, 4776.179
1020.402, 4746.460
1020.884, 4753.352
1021.366, 4803.977
1021.848, 4849.619
1022.331, 4848.900
1022.813, 4831.830
1023.295, 4817.519
1023.777, 4807.664
1024.259, 4805.932
1024.741, 4814.337
1025.223, 4823.985
1025.705, 4832.050
1026.188, 4838.341
1026.670, 4841.451
1027.152, 4842.542
1027.634, 4844.445
1028.116, 4846.875
1028.598, 4852.242
1029.080, 4862.973
1029.562, 4875.366
1030.044, 4886.605
1030.526, 4896.772
1031.009, 4904.242
1031.491, 4909.106
1031.973, 4908.407
1032.455, 4883.268
1032.937, 4864.183
1033.419, 4891.282
1033.901, 4960.645
1034.383, 4992.279
1034.865, 4961.465
1035.348, 4939.626
1035.830, 4950.626
1036.312, 4976.969
1036.794, 4982.591
1037.276, 4974.832
1037.758, 4973.969
1038.240, 4988.817
1038.722, 5005.100
1039.205, 5023.313
1039.687, 5034.891
1040.169, 5030.265
1040.651, 5006.352
1041.133, 4995.749
1041.615, 4998.788
1042.097, 5007.374
1042.579, 5024.928
1043.062, 5037.942
1043.544, 5023.123
1044.026, 4989.696
1044.508, 4976.951
1044.990, 5003.124
1045.472, 5027.769
1045.954, 5043.267
1046.436, 5056.343
1046.918, 5080.668
1047.401, 5111.485
1047.883, 5136.216
1048.365, 5151.941
1048.847, 5163.118
1049.329, 5170.275
1049.811, 5175.086
1050.293, 5178.769
1050.775, 5181.339
1051.257, 5182.214
1051.740, 5181.319
1052.222, 5180.549
1052.704, 5182.211
1053.186, 5183.155
1053.668, 5174.772
1054.150, 5163.899
1054.632, 5165.117
1055.114, 5193.192
1055.597, 5213.930
1056.079, 5224.488
1056.561, 5229.694
1057.043, 5231.495
1057.525, 5232.617
1058.007, 5244.160
1058.489, 5266.377
1058.971, 5282.767
1059.453, 5276.082
1059.936, 5270.284
1060.418, 5278.719
1060.900, 5297.020
1061.382, 5309.201
1061.864, 5315.120
1062.346, 5319.226
1062.828, 5320.750
1063.310, 5326.340
1063.792, 5349.656
1064.275, 5377.782
1064.757, 5394.576
1065.239, 5393.838
1065.721, 5387.501
1066.203, 5370.774
1066.685, 5360.754
1067.167, 5374.979
1067.649, 5402.812
1068.132, 5412.533
1068.614, 5409.772
1069.096, 5417.354
1069.578, 5463.989
1070.060, 5499.208
1070.542, 5507.546
1071.024, 5498.305
1071.506, 5478.996
1071.989, 5450.682
1072.471, 5438.960
1072.953, 5447.626
1073.435, 5466.173
1073.917, 5495.770
1074.399, 5524.287
1074.881, 5542.316
1075.363, 5548.846
1075.845, 5548.099
1076.328, 5536.541
1076.810, 5531.650
1077.292, 5540.044
1077.774, 5557.571
1078.256, 5583.723
1078.738, 5612.819
1079.220, 5634.517
1079.702, 5645.122
1080.184, 5648.906
1080.667, 5641.963
1081.149, 5635.667
1081.631, 5639.739
1082.113, 5652.220
1082.595, 5661.630
1083.077, 5667.921
1083.559, 5671.250
1084.041, 5659.722
1084.524, 5658.122
1085.006, 5693.824
1085.488, 5742.358
1085.970, 5754.392
1086.452, 5724.642
1086.934, 5714.804
1087.416, 5735.139
1087.898, 5762.774
1088.380, 5781.161
1088.863, 5792.242
1089.345, 5793.711
1089.827, 5785.071
1090.309, 5793.736
1090.791, 5832.650
1091.273, 5857.902
1091.755, 5851.273
1092.237, 5826.126
1092.719, 5794.837
1093.202, 5766.546
1093.684, 5764.487
1094.166, 5813.081
1094.648, 5846.132
1095.130, 5832.837
1095.612, 5815.143
1096.094, 5824.195
1096.576, 5855.988
1097.058, 5868.592
1097.541, 5864.516
1098.023, 5865.292
1098.505, 5889.499
1098.987, 5915.705
1099.469, 5935.131
1099.951, 5947.594
1100.433, 5951.841
1100.915, 5945.367
1101.398, 5949.296
1101.880, 5966.959
1102.362, 5985.814
1102.844, 5994.798
1103.326, 5998.403
1103.808, 5997.303
1104.290, 5992.779
1104.772, 6002.208
1105.255, 6036.065
1105.737, 6057.012
1106.219, 6049.569
1106.701, 6033.276
1107.183, 6043.935
1107.665, 6069.856
1108.147, 6086.696
1108.629, 6085.073
1109.111, 6089.806
1109.594, 6116.016
1110.076, 6138.671
1110.558, 6141.447
1111.040, 6130.427
1111.522, 6138.926
1112.004, 6163.080
1112.486, 6183.185
1112.968, 6185.916
1113.450, 6187.577
1113.933, 6194.604
1114.415, 6205.154
1114.897, 6219.019
1115.379, 6237.242
1115.861, 6244.022
1116.343, 6238.513
1116.825, 6233.063
1117.307, 6236.360
1117.790, 6244.159
1118.272, 6253.629
1118.754, 6264.763
1119.236, 6278.378
1119.718, 6296.628
1120.200, 6308.693
1120.682, 6310.719
1121.164, 6313.896
1121.646, 6338.601
1122.129, 6369.086
1122.611, 6381.406
1123.093, 6371.727
1123.575, 6368.198
1124.057, 6376.089
1124.539, 6387.187
1125.021, 6399.351
1125.503, 6412.076
1125.985, 6421.744
1126.468, 6431.310
1126.950, 6448.676
1127.432, 6478.842
1127.914, 6509.556
1128.396, 6545.493
1128.878, 6570.099
1129.360, 6567.585
1129.842, 6543.806
1130.325, 6540.705
1130.807, 6555.277
1131.289, 6568.722
1131.771, 6572.652
1132.253, 6571.824
1132.735, 6553.260
1133.217, 6540.993
1133.699, 6572.478
1134.182, 6654.144
1134.664, 6682.540
1135.146, 6652.091
1135.628, 6623.053
1136.110, 6637.688
1136.592, 6673.446
1137.074, 6729.461
1137.556, 6791.702
1138.038, 6815.744
1138.521, 6791.079
1139.003, 6772.835
1139.485, 6768.746
1139.967, 6774.766
1140.449, 6795.438
1140.931, 6818.140
1141.413, 6828.470
1141.895, 6824.713
1142.377, 6815.285
1142.860, 6794.660
1143.342, 6785.613
1143.824, 6795.758
1144.306, 6819.277
1144.788, 6854.834
1145.270, 6893.718
1145.752, 6920.110
1146.234, 6927.173
1146.717, 6933.329
1147.199, 6937.519
1147.681, 6949.448
1148.163, 6982.558
1148.645, 7021.854
1149.127, 7007.099
1149.609, 6958.830
1150.091, 6941.436
1150.573, 7007.650
1151.056, 7059.657
1151.538, 7062.087
1152.020, 7053.044
1152.502, 7062.110
1152.984, 7086.652
1153.466, 7103.274
1153.948, 7112.388
1154.430, 7118.840
1154.912, 7130.328
1155.395, 7133.924
1155.877, 7105.683
1156.359, 7077.344
1156.841, 7096.310
1157.323, 7161.549
1157.805, 7208.471
1158.287, 7231.797
1158.769, 7243.626
1159.251, 7246.528
1159.734, 7246.600
1160.216, 7244.541
1160.698, 7243.318
1161.180, 7250.794
1161.662, 7267.195
1162.144, 7288.960
1162.626, 7316.104
1163.108, 7344.516
1163.591, 7381.225
1164.073, 7408.751
1164.555, 7403.200
1165.037, 7366.669
1165.519, 7349.889
1166.001, 7355.242
1166.483, 7366.425
1166.965, 7379.574
1167.448, 7393.907
1167.930, 7406.153
1168.412, 7420.170
1168.894, 7443.627
1169.376, 7482.148
1169.858, 7497.656
1170.340, 7481.133
1170.822, 7477.777
1171.304, 7516.845
1171.786, 7569.923
1172.269, 7594.779
1172.751, 7600.879
1173.233, 7603.667
1173.715, 7611.004
1174.197, 7599.826
1174.679, 7557.840
1175.161, 7530.841
1175.643, 7560.236
1176.126, 7619.808
1176.608, 7670.994
1177.090, 7710.379
1177.572, 7730.406
1178.054, 7699.585
1178.536, 7695.083
1179.018, 7731.250
1179.500, 7773.395
1179.983, 7781.411
1180.465, 7773.980
1180.947, 7804.047
1181.429, 7862.645
1181.911, 7897.929
1182.393, 7859.125
1182.875, 7841.499
1183.357, 7872.709
1183.839, 7909.628
1184.322, 7881.570
1184.804, 7818.791
1185.286, 7805.034
1185.768, 7844.985
1186.250, 7891.663
1186.732, 7933.689
1187.214, 7969.043
1187.696, 7999.623
1188.178, 8021.247
1188.661, 8015.662
1189.143, 7994.597
1189.625, 7999.101
1190.107, 8036.914
1190.589, 8075.889
1191.071, 8116.364
1191.553, 8135.090
1192.035, 8113.698
1192.518, 8073.543
1193.000, 8069.916
1193.482, 8097.235
1193.964, 8140.239
1194.446, 8201.948
1194.928, 8243.144
1195.410, 8228.842
1195.892, 8204.482
1196.375, 8187.567
1196.857, 8180.679
1197.339, 8203.771
1197.821, 8248.676
1198.303, 8277.455
1198.785, 8269.612
1199.267, 8264.639
1199.749, 8290.189
1200.231, 8315.719
1200.714, 8317.322
1201.196, 8300.704
1201.678, 8308.645
1202.160, 8338.719
1202.642, 8377.553
1203.124, 8430.182
1203.606, 8473.081
1204.088, 8495.579
1204.570, 8502.077
1205.053, 8485.688
1205.535, 8450.242
1206.017, 8466.056
1206.499, 8525.625
1206.981, 8576.325
1207.463, 8580.741
1207.945, 8580.166
1208.427, 8588.841
1208.910, 8604.019
1209.392, 8625.234
1209.874, 8652.065
1210.356, 8674.018
1210.838, 8690.538
1211.320, 8697.324
1211.802, 8675.994
1212.284, 8662.864
1212.766, 8676.991
1213.249, 8707.378
1213.731, 8749.051
1214.213, 8799.874
1214.695, 8821.373
1215.177, 8812.911
1215.659, 8804.636
1216.141, 8812.064
1216.623, 8828.183
1217.105, 8857.800
1217.588, 8888.429
1218.070, 8892.967
1218.552, 8876.221
1219.034, 8887.720
1219.516, 8932.080
1219.998, 8975.906
1220.480, 9000.658
1220.962, 9017.077
1221.445, 9032.420
1221.927, 9041.947
1222.409, 9025.541
1222.891, 8990.302
1223.373, 8989.089
1223.855, 9030.089
1224.337, 9077.480
1224.819, 9126.999
1225.301, 9156.992
1225.784, 9151.004
1226.266, 9126.412
1226.748, 9123.638
1227.230, 9140.936
1227.712, 9174.085
1228.194, 9225.099
1228.676, 9263.578
1229.158, 9262.771
1229.641, 9255.734
1230.123, 9254.190
1230.605, 9260.311
1231.087, 9287.416
1231.569, 9328.385
1232.051, 9353.555
1232.533, 9353.162
1233.015, 9353.660
1233.497, 9365.642
1233.979, 9384.268
1234.462, 9409.700
1234.944, 9438.566
1235.426, 9459.451
1235.908, 9475.108
1236.390, 9495.974
1236.872, 9528.312
1237.354, 9551.206
1237.836, 9547.927
1238.319, 9543.357
1238.801, 9544.931
1239.283, 9555.180
1239.765, 9586.938
1240.247, 9633.394
1240.729, 9676.550
1241.211, 9716.508
1241.693, 9736.795
1242.176, 9725.462
1242.658, 9708.705
1243.140, 9693.135
1243.622, 9686.332
1244.104, 9719.562
1244.586, 9776.150
1245.068, 9815.472
1245.550, 9813.703
1246.032, 9822.890
1246.515, 9859.334
1246.997, 9884.903
1247.479, 9868.389
1247.961, 9833.657
1248.443, 9833.256
1248.925, 9856.603
1249.407, 9880.828
1249.889, 9891.341
1250.371, 9925.108
1250.854, 9994.807
1251.336, 10056.29
1251.818, 10080.04
1252.300, 10078.96
1252.782, 10063.69
1253.264, 10043.44
1253.746, 10036.97
1254.228, 10051.68
1254.711, 10075.49
1255.193, 10110.08
1255.675, 10146.84
1256.157, 10180.67
1256.639, 10212.26
1257.121, 10240.26
1257.603, 10267.17
1258.085, 10298.33
1258.568, 10340.97
1259.050, 10366.34
1259.532, 10372.55
1260.014, 10375.71
1260.496, 10386.17
1260.978, 10399.57
1261.460, 10408.09
1261.942, 10418.43
1262.424, 10444.23
1262.906, 10491.56
1263.389, 10521.17
1263.871, 10531.80
1264.353, 10540.83
1264.835, 10553.70
1265.317, 10575.47
1265.799, 10624.42
1266.281, 10676.32
1266.763, 10691.82
1267.246, 10668.06
1267.728, 10671.58
1268.210, 10702.10
1268.692, 10724.10
1269.174, 10695.05
1269.656, 10674.86
1270.138, 10699.88
1270.620, 10746.82
1271.103, 10799.00
1271.585, 10854.09
1272.067, 10876.69
1272.549, 10870.26
1273.031, 10867.62
1273.513, 10890.29
1273.995, 10914.28
1274.477, 10931.34
1274.959, 10947.15
1275.442, 10961.88
1275.924, 10980.61
1276.406, 11040.94
1276.888, 11129.43
1277.370, 11171.16
1277.852, 11065.02
1278.334, 11015.34
1278.816, 11064.18
1279.298, 11145.67
1279.781, 11200.70
1280.263, 11235.59
1280.745, 11263.90
1281.227, 11284.27
1281.709, 11288.30
1282.191, 11253.65
1282.673, 11244.61
1283.155, 11269.30
1283.638, 11305.85
1284.120, 11348.41
1284.602, 11379.98
1285.084, 11358.37
1285.566, 11308.07
1286.048, 11310.10
1286.530, 11390.17
1287.012, 11437.23
1287.495, 11441.04
1287.977, 11439.24
1288.459, 11461.04
1288.941, 11491.99
1289.423, 11523.20
1289.905, 11553.54
1290.387, 11580.36
1290.869, 11602.87
1291.351, 11639.74
1291.833, 11691.58
1292.316, 11721.69
1292.798, 11675.56
1293.280, 11634.67
1293.762, 11653.74
1294.244, 11697.40
1294.726, 11723.86
1295.208, 11736.44
1295.690, 11770.31
1296.172, 11822.61
1296.655, 11858.31
1297.137, 11831.51
1297.619, 11825.45
1298.101, 11870.75
1298.583, 11926.51
1299.065, 11942.53
1299.547, 11934.42
1300.029, 11943.10
1300.512, 11967.79
1300.994, 11996.91
1301.476, 12037.55
1301.958, 12062.37
1302.440, 12062.96
1302.922, 12066.40
1303.404, 12112.69
1303.886, 12167.72
1304.369, 12167.33
1304.851, 12133.86
1305.333, 12145.61
1305.815, 12233.24
1306.297, 12271.92
1306.779, 12249.60
1307.261, 12229.40
1307.743, 12271.75
1308.225, 12325.70
1308.708, 12345.17
1309.190, 12347.32
1309.672, 12367.03
1310.154, 12406.34
1310.636, 12435.37
1311.118, 12453.27
1311.600, 12463.36
1312.082, 12460.22
1312.564, 12458.71
1313.047, 12459.78
1313.529, 12471.23
1314.011, 12508.18
1314.493, 12563.46
1314.975, 12594.19
1315.457, 12607.17
1315.939, 12638.33
1316.421, 12747.26
1316.904, 12803.87
1317.386, 12774.07
1317.868, 12729.80
1318.350, 12718.52
1318.832, 12740.14
##END=



