##NAMES=Olmiite
##RRUFFID=R050177
##IDEAL CHEMISTRY=CaMn^2+^SiO_3_(OH)_2_
##LOCALITY=N'Chwaning II mine, Kuruman, South Africa
##OWNER=RRUFF
##SOURCE=Marcus Origlieri
##DESCRIPTION=Gray etched crystals
##STATUS=The identification of this mineral has been confirmed by X-ray diffraction and chemical analysis
##URL=rruff.info/R050177
##MEASURED CHEMISTRY=Ca_1.00_(Mn_0.98_Ca_0.02_)(Si_1.00_O_3_OH)(OH)
122.2742, 206.5986
122.7563, 211.1629
123.2384, 224.0456
123.7206, 243.8536
124.2027, 267.3044
124.6848, 292.8732
125.1669, 320.7799
125.6490, 345.3950
126.1311, 361.1686
126.6132, 378.4485
127.0954, 401.5027
127.5775, 429.3977
128.0596, 458.4387
128.5417, 485.8345
129.0238, 511.8360
129.5060, 533.9088
129.9881, 549.5886
130.4702, 564.0923
130.9523, 580.5542
131.4344, 598.4377
131.9165, 614.7092
132.3987, 626.4305
132.8808, 633.8284
133.3629, 634.4763
133.8450, 625.9917
134.3271, 614.0787
134.8092, 601.6805
135.2913, 589.2557
135.7735, 575.7421
136.2556, 559.1622
136.7377, 536.6683
137.2198, 520.7399
137.7019, 511.8741
138.1840, 508.6548
138.6662, 510.4388
139.1483, 517.0261
139.6304, 527.9819
140.1125, 543.0862
140.5946, 563.5443
141.0767, 585.8289
141.5589, 611.1423
142.0410, 637.8178
142.5231, 664.4880
143.0052, 690.7970
143.4873, 717.0701
143.9694, 744.1700
144.4516, 773.2612
144.9337, 797.9114
145.4158, 811.3766
145.8979, 822.0116
146.3800, 841.9523
146.8621, 875.0566
147.3443, 911.9526
147.8264, 941.1942
148.3085, 963.8834
148.7906, 978.1664
149.2727, 979.3084
149.7548, 972.5069
150.2370, 965.5875
150.7191, 959.7211
151.2012, 955.7266
151.6833, 955.9901
152.1654, 960.3442
152.6475, 963.1583
153.1297, 957.7943
153.6118, 949.3611
154.0939, 951.1722
154.5760, 968.7111
155.0581, 992.0798
155.5402, 1007.917
156.0224, 1016.758
156.5045, 1032.328
156.9866, 1066.692
157.4687, 1114.156
157.9508, 1154.945
158.4329, 1182.754
158.9151, 1206.486
159.3972, 1236.838
159.8793, 1272.850
160.3614, 1303.386
160.8435, 1323.534
161.3256, 1333.116
161.8078, 1330.603
162.2899, 1312.960
162.7720, 1284.993
163.2541, 1250.345
163.7362, 1209.509
164.2183, 1166.273
164.7004, 1119.093
165.1826, 1069.230
165.6647, 1030.424
166.1468, 1010.340
166.6289, 995.5363
167.1110, 976.3491
167.5931, 953.6522
168.0753, 934.2426
168.5574, 923.2844
169.0395, 920.6669
169.5216, 923.0961
170.0037, 936.7169
170.4858, 949.2294
170.9680, 952.7783
171.4501, 948.8052
171.9322, 944.5572
172.4143, 944.7457
172.8964, 949.3032
173.3785, 960.2238
173.8607, 982.7007
174.3428, 1007.351
174.8249, 1032.847
175.3070, 1057.522
175.7891, 1077.884
176.2712, 1090.496
176.7534, 1095.165
177.2355, 1096.388
177.7176, 1096.755
178.1997, 1090.526
178.6818, 1072.448
179.1639, 1045.202
179.6461, 1015.949
180.1282, 990.4454
180.6103, 968.7583
181.0924, 949.5803
181.5745, 934.1401
182.0566, 920.4575
182.5388, 906.7242
183.0209, 894.0543
183.5030, 885.2056
183.9851, 882.7316
184.4672, 886.7891
184.9493, 892.8867
185.4315, 904.6400
185.9136, 915.2710
186.3957, 921.1764
186.8778, 924.1741
187.3599, 928.8912
187.8420, 939.4349
188.3242, 955.9094
188.8063, 969.2213
189.2884, 977.8316
189.7705, 984.5085
190.2526, 990.6085
190.7347, 995.3126
191.2169, 996.0845
191.6990, 989.9075
192.1811, 977.4879
192.6632, 974.0833
193.1453, 987.2559
193.6274, 1002.695
194.1096, 1017.223
194.5917, 1031.769
195.0738, 1048.501
195.5559, 1068.831
196.0380, 1092.727
196.5201, 1118.390
197.0022, 1147.225
197.4844, 1176.692
197.9665, 1206.559
198.4486, 1236.750
198.9307, 1268.300
199.4128, 1302.489
199.8949, 1337.332
200.3771, 1362.217
200.8592, 1370.514
201.3413, 1374.535
201.8234, 1377.441
202.3055, 1376.468
202.7876, 1366.703
203.2698, 1345.233
203.7519, 1315.093
204.2340, 1287.398
204.7161, 1261.260
205.1982, 1239.349
205.6803, 1223.653
206.1625, 1211.797
206.6446, 1200.289
207.1267, 1187.551
207.6088, 1175.814
208.0909, 1171.240
208.5730, 1176.250
209.0552, 1186.473
209.5373, 1203.340
210.0194, 1224.398
210.5015, 1248.089
210.9836, 1273.750
211.4657, 1299.907
211.9479, 1323.726
212.4300, 1351.768
212.9121, 1366.671
213.3942, 1360.287
213.8763, 1346.174
214.3584, 1334.496
214.8406, 1328.525
215.3227, 1327.292
215.8048, 1329.885
216.2869, 1341.472
216.7690, 1346.748
217.2511, 1339.456
217.7333, 1330.825
218.2154, 1327.491
218.6975, 1331.315
219.1796, 1342.071
219.6617, 1360.409
220.1438, 1390.785
220.6260, 1416.139
221.1081, 1434.203
221.5902, 1449.815
222.0723, 1464.573
222.5544, 1479.327
223.0365, 1495.217
223.5187, 1513.893
224.0008, 1536.021
224.4829, 1557.061
224.9650, 1582.804
225.4471, 1602.488
225.9292, 1610.010
226.4113, 1606.598
226.8935, 1597.973
227.3756, 1589.595
227.8577, 1582.060
228.3398, 1562.645
228.8219, 1525.762
229.3040, 1483.573
229.7862, 1434.691
230.2683, 1383.410
230.7504, 1337.538
231.2325, 1302.671
231.7146, 1277.841
232.1967, 1251.121
232.6789, 1215.529
233.1610, 1185.670
233.6431, 1165.484
234.1252, 1152.549
234.6073, 1143.266
235.0894, 1135.849
235.5716, 1129.924
236.0537, 1123.834
236.5358, 1114.834
237.0179, 1109.388
237.5000, 1107.366
237.9821, 1109.429
238.4643, 1117.151
238.9464, 1131.049
239.4285, 1148.843
239.9106, 1165.294
240.3927, 1180.740
240.8748, 1193.931
241.3570, 1203.323
241.8391, 1211.672
242.3212, 1220.550
242.8033, 1230.606
243.2854, 1242.451
243.7675, 1257.978
244.2497, 1281.431
244.7318, 1298.315
245.2139, 1309.849
245.6960, 1314.919
246.1781, 1311.030
246.6602, 1298.975
247.1424, 1283.206
247.6245, 1269.057
248.1066, 1258.232
248.5887, 1240.469
249.0708, 1213.408
249.5529, 1181.551
250.0351, 1141.814
250.5172, 1097.769
250.9993, 1058.414
251.4814, 1031.974
251.9635, 1018.097
252.4456, 1002.370
252.9278, 983.3720
253.4099, 963.8444
253.8920, 943.3223
254.3741, 922.9774
254.8562, 904.4830
255.3383, 888.7120
255.8205, 875.6567
256.3026, 865.9007
256.7847, 861.8168
257.2668, 857.3513
257.7489, 848.5505
258.2310, 839.5010
258.7132, 835.7487
259.1953, 840.0724
259.6774, 847.7924
260.1595, 849.2288
260.6416, 841.1424
261.1237, 835.6878
261.6059, 837.6785
262.0880, 841.8921
262.5701, 844.2393
263.0522, 843.7903
263.5343, 843.1061
264.0164, 845.8863
264.4986, 852.8250
264.9807, 857.6968
265.4628, 855.5484
265.9449, 854.4023
266.4270, 860.0779
266.9091, 872.1932
267.3913, 884.8962
267.8734, 893.6317
268.3555, 898.6933
268.8376, 902.2818
269.3197, 901.1214
269.8018, 903.4162
270.2840, 917.3292
270.7661, 938.4960
271.2482, 955.1224
271.7303, 959.1926
272.2124, 954.3893
272.6945, 948.1189
273.1766, 937.5075
273.6588, 933.3618
274.1409, 951.1204
274.6230, 977.3162
275.1051, 991.2175
275.5872, 980.2413
276.0693, 961.9752
276.5515, 957.8270
277.0336, 968.4633
277.5157, 983.5336
277.9978, 1001.747
278.4799, 1020.338
278.9620, 1035.838
279.4442, 1048.237
279.9263, 1057.026
280.4084, 1060.006
280.8905, 1058.399
281.3726, 1057.566
281.8547, 1057.563
282.3369, 1061.283
282.8190, 1074.484
283.3011, 1098.011
283.7832, 1118.154
284.2653, 1127.388
284.7474, 1130.261
285.2296, 1134.347
285.7117, 1141.019
286.1938, 1148.557
286.6759, 1155.350
287.1580, 1161.450
287.6401, 1167.512
288.1223, 1172.828
288.6044, 1178.638
289.0865, 1186.073
289.5686, 1195.151
290.0507, 1205.438
290.5328, 1217.199
291.0150, 1230.007
291.4971, 1240.931
291.9792, 1246.050
292.4613, 1253.441
292.9434, 1267.786
293.4255, 1287.125
293.9077, 1307.283
294.3898, 1326.672
294.8719, 1344.736
295.3540, 1359.966
295.8361, 1371.058
296.3182, 1381.640
296.8004, 1399.604
297.2825, 1413.977
297.7646, 1410.104
298.2467, 1384.680
298.7288, 1349.352
299.2109, 1320.124
299.6931, 1300.274
300.1752, 1277.949
300.6573, 1253.539
301.1394, 1226.670
301.6215, 1195.670
302.1036, 1161.656
302.5858, 1127.734
303.0679, 1095.541
303.5500, 1064.752
304.0321, 1047.036
304.5142, 1056.061
304.9963, 1063.676
305.4785, 1060.582
305.9606, 1051.828
306.4427, 1046.245
306.9248, 1048.588
307.4069, 1056.589
307.8890, 1063.105
308.3712, 1065.019
308.8533, 1071.165
309.3354, 1083.362
309.8175, 1099.163
310.2996, 1116.939
310.7817, 1136.138
311.2639, 1156.611
311.7460, 1178.427
312.2281, 1201.808
312.7102, 1225.602
313.1923, 1250.608
313.6744, 1275.201
314.1566, 1295.142
314.6387, 1312.920
315.1208, 1337.807
315.6029, 1381.318
316.0850, 1438.625
316.5671, 1483.832
317.0493, 1509.131
317.5314, 1537.641
318.0135, 1583.493
318.4956, 1639.547
318.9777, 1694.951
319.4598, 1746.087
319.9420, 1795.947
320.4241, 1848.528
320.9062, 1904.193
321.3883, 1959.268
321.8704, 2009.880
322.3525, 2061.271
322.8347, 2120.156
323.3168, 2188.253
323.7989, 2256.713
324.2810, 2320.480
324.7631, 2380.375
325.2452, 2438.792
325.7274, 2495.813
326.2095, 2552.118
326.6916, 2607.816
327.1737, 2662.870
327.6558, 2719.905
328.1379, 2781.521
328.6201, 2843.735
329.1022, 2902.777
329.5843, 2958.361
330.0664, 3013.626
330.5485, 3073.198
331.0306, 3134.337
331.5128, 3179.427
331.9949, 3200.642
332.4770, 3216.854
332.9591, 3246.801
333.4412, 3273.918
333.9233, 3266.704
334.4054, 3211.627
334.8875, 3125.226
335.3697, 3040.499
335.8518, 2964.036
336.3339, 2876.737
336.8160, 2776.091
337.2981, 2667.339
337.7802, 2548.339
338.2624, 2422.443
338.7445, 2301.416
339.2266, 2197.948
339.7087, 2113.483
340.1908, 2026.959
340.6729, 1929.796
341.1551, 1838.552
341.6372, 1756.717
342.1193, 1684.339
342.6014, 1620.601
343.0835, 1565.515
343.5656, 1517.623
344.0478, 1473.258
344.5299, 1432.662
345.0120, 1395.670
345.4941, 1362.428
345.9762, 1332.531
346.4583, 1307.157
346.9405, 1286.303
347.4226, 1265.609
347.9047, 1238.365
348.3868, 1205.370
348.8689, 1181.197
349.3510, 1170.790
349.8332, 1164.991
350.3153, 1158.163
350.7974, 1150.582
351.2795, 1142.975
351.7616, 1135.272
352.2437, 1127.934
352.7259, 1120.387
353.2080, 1112.374
353.6901, 1109.202
354.1722, 1116.106
354.6543, 1128.797
355.1364, 1136.734
355.6186, 1137.969
356.1007, 1138.361
356.5828, 1138.765
357.0649, 1140.593
357.5470, 1148.309
358.0291, 1163.931
358.5113, 1180.499
358.9934, 1188.199
359.4755, 1183.833
359.9576, 1184.764
360.4397, 1192.817
360.9218, 1205.357
361.4040, 1223.949
361.8861, 1246.195
362.3682, 1264.468
362.8503, 1272.857
363.3324, 1272.862
363.8145, 1275.592
364.2967, 1276.384
364.7788, 1285.752
365.2609, 1314.360
365.7430, 1348.285
366.2251, 1369.641
366.7072, 1373.612
367.1894, 1372.675
367.6715, 1387.563
368.1536, 1426.671
368.6357, 1454.930
369.1178, 1458.907
369.5999, 1463.614
370.0821, 1481.610
370.5642, 1510.195
371.0463, 1539.031
371.5284, 1561.724
372.0105, 1579.463
372.4926, 1596.737
372.9748, 1614.673
373.4569, 1629.404
373.9390, 1640.899
374.4211, 1647.704
374.9032, 1647.273
375.3853, 1638.406
375.8675, 1625.216
376.3496, 1608.896
376.8317, 1590.503
377.3138, 1575.708
377.7959, 1566.523
378.2780, 1559.624
378.7602, 1551.266
379.2423, 1541.707
379.7244, 1533.913
380.2065, 1530.464
380.6886, 1527.672
381.1707, 1519.335
381.6529, 1506.808
382.1350, 1500.968
382.6171, 1509.810
383.0992, 1529.167
383.5813, 1540.833
384.0634, 1534.523
384.5456, 1534.901
385.0277, 1549.626
385.5098, 1571.630
385.9919, 1592.520
386.4740, 1610.372
386.9561, 1629.451
387.4383, 1655.351
387.9204, 1689.871
388.4025, 1722.508
388.8846, 1753.905
389.3667, 1782.834
389.8488, 1804.015
390.3310, 1822.925
390.8131, 1851.507
391.2952, 1897.775
391.7773, 1952.742
392.2594, 1990.901
392.7415, 2004.112
393.2237, 2023.242
393.7058, 2066.234
394.1879, 2110.306
394.6700, 2140.543
395.1521, 2154.970
395.6342, 2158.013
396.1163, 2148.712
396.5984, 2130.169
397.0806, 2114.835
397.5627, 2105.495
398.0448, 2093.645
398.5269, 2070.878
399.0090, 2041.085
399.4911, 2013.906
399.9733, 1994.756
400.4554, 1973.941
400.9375, 1944.424
401.4196, 1907.889
401.9017, 1867.116
402.3839, 1821.754
402.8660, 1778.447
403.3481, 1749.380
403.8302, 1740.131
404.3123, 1728.346
404.7944, 1705.934
405.2766, 1686.217
405.7587, 1682.678
406.2408, 1692.025
406.7229, 1697.959
407.2050, 1687.710
407.6871, 1665.395
408.1693, 1656.902
408.6514, 1672.281
409.1335, 1688.974
409.6156, 1702.642
410.0977, 1717.300
410.5798, 1738.185
411.0620, 1766.003
411.5441, 1794.743
412.0262, 1816.683
412.5083, 1831.382
412.9904, 1850.969
413.4725, 1877.483
413.9547, 1906.924
414.4368, 1937.998
414.9189, 1970.170
415.4010, 2002.863
415.8831, 2035.724
416.3652, 2068.942
416.8474, 2104.147
417.3295, 2140.997
417.8116, 2174.911
418.2937, 2205.769
418.7758, 2231.015
419.2579, 2244.719
419.7401, 2246.037
420.2222, 2248.928
420.7043, 2259.936
421.1864, 2271.880
421.6685, 2278.752
422.1506, 2279.979
422.6328, 2275.639
423.1149, 2264.468
423.5970, 2248.581
424.0791, 2240.446
424.5612, 2245.249
425.0433, 2251.328
425.5255, 2254.082
426.0076, 2259.403
426.4897, 2275.082
426.9718, 2301.750
427.4539, 2331.115
427.9360, 2352.453
428.4182, 2364.271
428.9003, 2388.435
429.3824, 2436.615
429.8645, 2482.638
430.3466, 2516.372
430.8287, 2542.101
431.3109, 2566.979
431.7930, 2594.048
432.2751, 2619.893
432.7572, 2643.133
433.2393, 2663.397
433.7214, 2671.063
434.2036, 2664.219
434.6857, 2643.314
435.1678, 2605.266
435.6499, 2551.836
436.1320, 2496.347
436.6141, 2443.457
437.0963, 2389.133
437.5784, 2332.583
438.0605, 2272.324
438.5426, 2201.745
439.0247, 2115.617
439.5068, 2019.940
439.9890, 1931.014
440.4711, 1853.877
440.9532, 1776.468
441.4353, 1691.777
441.9174, 1612.031
442.3995, 1549.040
442.8817, 1501.793
443.3638, 1459.819
443.8459, 1414.497
444.3280, 1366.392
444.8101, 1319.090
445.2922, 1268.907
445.7744, 1226.686
446.2565, 1199.874
446.7386, 1178.534
447.2207, 1151.692
447.7028, 1116.783
448.1849, 1083.396
448.6671, 1061.638
449.1492, 1049.104
449.6313, 1034.044
450.1134, 1014.072
450.5955, 995.2800
451.0776, 983.3939
451.5598, 976.5480
452.0419, 968.3435
452.5240, 957.6664
453.0061, 946.0352
453.4882, 932.4944
453.9703, 918.7929
454.4525, 908.4345
454.9346, 902.5225
455.4167, 899.8441
455.8988, 899.0401
456.3809, 900.6857
456.8630, 901.9144
457.3452, 902.9458
457.8272, 903.4158
458.3094, 903.3820
458.7915, 902.6375
459.2736, 900.1403
459.7557, 895.1902
460.2378, 890.4203
460.7199, 892.3479
461.2021, 903.5591
461.6842, 909.1333
462.1663, 898.9797
462.6484, 890.3948
463.1305, 895.9421
463.6126, 912.9021
464.0948, 929.4886
464.5769, 940.0488
465.0590, 947.4183
465.5411, 955.2538
466.0232, 963.4899
466.5053, 971.2874
466.9875, 978.5268
467.4696, 984.8892
467.9517, 988.9028
468.4338, 988.6058
468.9159, 993.2454
469.3980, 1006.765
469.8802, 1023.755
470.3623, 1041.533
470.8444, 1058.966
471.3265, 1074.241
471.8086, 1085.856
472.2907, 1094.896
472.7729, 1105.036
473.2550, 1115.351
473.7371, 1128.684
474.2192, 1150.920
474.7013, 1171.645
475.1834, 1181.662
475.6656, 1181.552
476.1477, 1179.997
476.6298, 1182.547
477.1119, 1188.724
477.5940, 1198.555
478.0761, 1213.437
478.5583, 1224.885
479.0404, 1227.740
479.5225, 1225.525
480.0046, 1224.204
480.4867, 1223.885
480.9688, 1224.323
481.4510, 1225.068
481.9331, 1226.704
482.4152, 1231.407
482.8973, 1238.725
483.3794, 1243.198
483.8615, 1239.891
484.3437, 1230.678
484.8258, 1227.880
485.3079, 1244.971
485.7900, 1251.506
486.2721, 1234.692
486.7542, 1213.034
487.2364, 1204.861
487.7185, 1211.105
488.2006, 1216.893
488.6827, 1206.638
489.1648, 1183.748
489.6469, 1170.605
490.1291, 1169.915
490.6112, 1172.177
491.0933, 1174.765
491.5754, 1177.550
492.0575, 1181.284
492.5396, 1186.842
493.0218, 1188.870
493.5039, 1180.500
493.9860, 1168.069
494.4681, 1161.234
494.9502, 1161.192
495.4323, 1167.487
495.9145, 1181.308
496.3966, 1200.919
496.8787, 1214.634
497.3608, 1217.348
497.8429, 1221.236
498.3250, 1226.354
498.8072, 1234.208
499.2893, 1247.860
499.7714, 1266.562
500.2535, 1284.460
500.7356, 1294.438
501.2177, 1298.834
501.6999, 1317.368
502.1820, 1358.844
502.6641, 1394.679
503.1462, 1404.635
503.6283, 1409.766
504.1104, 1431.210
504.5926, 1472.437
505.0747, 1517.281
505.5568, 1555.866
506.0389, 1592.237
506.5210, 1634.637
507.0031, 1683.352
507.4853, 1730.076
507.9674, 1769.779
508.4495, 1803.019
508.9316, 1831.395
509.4137, 1856.542
509.8958, 1874.719
510.3780, 1883.446
510.8601, 1886.609
511.3422, 1891.832
511.8243, 1896.052
512.3064, 1884.703
512.7885, 1843.892
513.2706, 1781.351
513.7527, 1727.908
514.2349, 1686.625
514.7170, 1647.090
515.1991, 1606.977
515.6812, 1567.353
516.1633, 1528.790
516.6454, 1491.512
517.1276, 1454.416
517.6097, 1419.082
518.0918, 1382.567
518.5739, 1336.978
519.0560, 1284.207
519.5381, 1243.304
520.0203, 1225.730
520.5024, 1220.796
520.9845, 1204.835
521.4666, 1166.341
521.9487, 1139.207
522.4308, 1131.671
522.9130, 1128.152
523.3951, 1119.788
523.8772, 1107.261
524.3593, 1095.384
524.8414, 1087.133
525.3235, 1079.490
525.8057, 1064.618
526.2878, 1040.554
526.7699, 1021.910
527.2520, 1014.409
527.7341, 1009.367
528.2162, 1000.069
528.6984, 987.3869
529.1805, 974.7702
529.6626, 962.5709
530.1447, 951.5185
530.6268, 942.5695
531.1089, 935.2172
531.5911, 928.6184
532.0732, 922.6677
532.5553, 915.0537
533.0374, 901.6298
533.5195, 879.7374
534.0016, 868.2424
534.4838, 875.8480
534.9659, 883.1679
535.4480, 886.8269
535.9301, 885.5847
536.4122, 876.3499
536.8943, 858.4006
537.3765, 839.8233
537.8586, 831.0004
538.3407, 830.5791
538.8228, 827.2253
539.3049, 818.9952
539.7870, 811.3588
540.2692, 807.0124
540.7513, 805.8377
541.2334, 807.9189
541.7155, 817.2729
542.1976, 821.7036
542.6797, 812.2365
543.1619, 797.7874
543.6440, 789.4105
544.1261, 787.7618
544.6082, 785.9961
545.0903, 778.4058
545.5724, 767.0469
546.0546, 762.6129
546.5367, 769.9117
547.0188, 775.3520
547.5009, 780.2216
547.9830, 780.3499
548.4651, 770.8063
548.9473, 752.9795
549.4294, 734.1028
549.9115, 712.8475
550.3936, 696.8147
550.8757, 703.3831
551.3578, 729.9057
551.8400, 747.4873
552.3221, 744.3073
552.8042, 732.3250
553.2863, 728.1561
553.7684, 734.5854
554.2505, 736.2184
554.7327, 727.6600
555.2148, 719.8636
555.6969, 719.6669
556.1790, 723.2466
556.6611, 723.4679
557.1432, 717.8284
557.6254, 710.7388
558.1075, 708.5799
558.5896, 711.5393
559.0717, 712.7382
559.5538, 711.3850
560.0359, 709.4546
560.5181, 708.7484
561.0002, 707.8627
561.4823, 703.7771
561.9644, 694.0218
562.4465, 687.5613
562.9286, 691.7682
563.4108, 700.4604
563.8929, 705.8851
564.3750, 707.1830
564.8571, 705.6939
565.3392, 701.6778
565.8214, 696.7629
566.3035, 697.4431
566.7856, 708.6952
567.2677, 716.5430
567.7498, 720.6501
568.2319, 721.0349
568.7141, 714.8433
569.1962, 704.7111
569.6783, 698.2624
570.1604, 701.4291
570.6425, 707.0437
571.1246, 704.0865
571.6068, 693.9869
572.0889, 686.4424
572.5710, 683.5407
573.0531, 684.8712
573.5352, 691.5622
574.0173, 703.8444
574.4995, 710.4223
574.9816, 704.8918
575.4637, 701.6430
575.9458, 708.4508
576.4279, 718.2200
576.9100, 723.2532
577.3922, 721.7211
577.8743, 715.0170
578.3564, 700.9268
578.8385, 682.8398
579.3206, 682.1872
579.8027, 705.0695
580.2849, 722.6577
580.7670, 721.5635
581.2491, 711.9096
581.7312, 706.3630
582.2133, 705.1027
582.6954, 705.2689
583.1776, 709.5265
583.6597, 711.9727
584.1418, 703.4459
584.6239, 689.3036
585.1060, 685.3894
585.5881, 698.1801
586.0703, 715.8734
586.5524, 718.9034
587.0345, 703.8273
587.5166, 694.0066
587.9987, 692.4564
588.4808, 692.4572
588.9630, 692.3898
589.4451, 691.9001
589.9272, 689.8090
590.4093, 685.3624
590.8914, 683.1039
591.3735, 686.9211
591.8557, 694.5059
592.3378, 703.5663
592.8199, 713.4004
593.3020, 719.6570
593.7841, 719.4783
594.2662, 714.7891
594.7484, 710.3741
595.2305, 704.8425
595.7126, 702.3677
596.1947, 705.3191
596.6768, 708.6771
597.1589, 711.0671
597.6411, 711.7469
598.1232, 708.7346
598.6053, 700.1429
599.0874, 692.5474
599.5695, 694.9408
600.0516, 705.0598
600.5338, 715.1543
601.0159, 725.0146
601.4980, 727.4885
601.9801, 713.6116
602.4622, 688.6381
602.9443, 678.6199
603.4265, 695.5777
603.9086, 709.1204
604.3907, 714.7678
604.8728, 717.1815
605.3549, 719.0867
605.8370, 721.0679
606.3192, 723.5294
606.8013, 727.0663
607.2834, 730.1181
607.7655, 729.0792
608.2476, 723.9413
608.7297, 720.0997
609.2119, 718.8572
609.6940, 718.2055
610.1761, 715.1522
610.6582, 710.9386
611.1403, 712.4305
611.6224, 728.7919
612.1045, 739.6406
612.5866, 732.8664
613.0687, 721.3681
613.5508, 720.6681
614.0330, 730.4496
614.5151, 738.1146
614.9972, 733.5416
615.4793, 721.8594
615.9614, 718.8728
616.4435, 726.8900
616.9257, 730.1185
617.4078, 722.6428
617.8899, 713.0210
618.3720, 707.2363
618.8541, 705.2523
619.3362, 707.5538
619.8184, 719.6591
620.3005, 729.8872
620.7826, 732.6349
621.2647, 730.3098
621.7468, 724.5289
622.2289, 716.5770
622.7111, 710.3000
623.1932, 709.1594
623.6753, 712.0541
624.1574, 714.2592
624.6395, 715.7246
625.1216, 716.6691
625.6038, 717.2737
626.0859, 717.1974
626.5680, 716.1454
627.0501, 714.2074
627.5322, 711.8617
628.0143, 709.2131
628.4965, 706.1889
628.9786, 700.6148
629.4607, 695.3712
629.9428, 696.1871
630.4249, 703.6347
630.9070, 712.4736
631.3892, 718.2880
631.8713, 721.2316
632.3534, 721.8266
632.8355, 719.1710
633.3176, 716.4166
633.7997, 713.0225
634.2819, 710.8169
634.7640, 712.9921
635.2461, 718.0970
635.7282, 719.1008
636.2103, 708.6199
636.6924, 698.9034
637.1746, 699.4821
637.6567, 706.2696
638.1388, 713.2803
638.6209, 718.8377
639.1030, 721.3229
639.5851, 718.8138
640.0673, 712.4034
640.5494, 708.0617
641.0315, 704.4531
641.5136, 706.1285
641.9957, 719.8466
642.4778, 734.0231
642.9600, 741.8036
643.4421, 743.3774
643.9242, 740.4211
644.4063, 730.0951
644.8884, 719.5320
645.3705, 714.9416
645.8527, 712.9846
646.3348, 706.2391
646.8169, 694.2294
647.2990, 685.3810
647.7811, 686.9991
648.2632, 696.8245
648.7454, 704.8329
649.2275, 711.0418
649.7096, 715.2266
650.1917, 716.8615
650.6738, 716.8066
651.1559, 714.5060
651.6381, 710.9063
652.1202, 709.1216
652.6023, 711.2382
653.0844, 713.4440
653.5665, 713.2462
654.0486, 711.7773
654.5308, 709.5000
655.0129, 707.2221
655.4950, 708.9310
655.9771, 718.2806
656.4592, 731.6467
656.9413, 736.7528
657.4235, 731.0329
657.9056, 726.0340
658.3877, 722.0612
658.8698, 720.4330
659.3519, 723.8018
659.8340, 729.8339
660.3162, 732.7059
660.7983, 729.8008
661.2804, 726.8197
661.7625, 727.2615
662.2446, 728.6505
662.7267, 726.9102
663.2089, 722.8687
663.6910, 722.2759
664.1731, 729.0218
664.6552, 738.0848
665.1373, 737.7429
665.6194, 726.3249
666.1016, 718.0058
666.5837, 714.1087
667.0658, 713.0306
667.5479, 716.8202
668.0300, 721.9809
668.5121, 721.3793
668.9943, 711.9394
669.4764, 704.2760
669.9585, 702.3299
670.4406, 703.0653
670.9227, 703.4273
671.4048, 704.2879
671.8870, 709.4544
672.3691, 720.6111
672.8512, 732.5674
673.3333, 737.8527
673.8154, 736.6447
674.2975, 731.9340
674.7797, 721.5702
675.2618, 715.6982
675.7439, 722.2220
676.2260, 733.8018
676.7081, 736.1669
677.1902, 727.1999
677.6724, 721.4655
678.1545, 723.0458
678.6366, 726.0208
679.1187, 727.7025
679.6008, 728.4174
680.0829, 729.7008
680.5651, 731.6751
681.0472, 731.4495
681.5293, 724.5690
682.0114, 713.4541
682.4935, 705.8982
682.9756, 701.8917
683.4578, 701.9837
683.9399, 708.3718
684.4220, 714.2910
684.9041, 710.1369
685.3862, 694.4322
685.8683, 685.5499
686.3505, 685.3348
686.8326, 688.8953
687.3147, 698.4610
687.7968, 708.9485
688.2789, 716.2120
688.7610, 719.6571
689.2432, 719.9475
689.7253, 716.0195
690.2074, 711.0338
690.6895, 709.6193
691.1716, 710.9517
691.6537, 710.4958
692.1359, 707.0555
692.6180, 708.4003
693.1001, 722.6960
693.5822, 746.4448
694.0643, 759.4896
694.5464, 755.0235
695.0286, 752.0291
695.5107, 752.8328
695.9928, 754.4922
696.4749, 756.0002
696.9570, 757.0495
697.4391, 756.4838
697.9213, 752.2016
698.4034, 751.4719
698.8855, 762.4286
699.3676, 778.1666
699.8497, 789.6865
700.3318, 796.2817
700.8140, 798.9574
701.2961, 797.8834
701.7782, 796.9462
702.2603, 805.3212
702.7424, 825.5930
703.2245, 835.9016
703.7067, 830.1746
704.1888, 825.8356
704.6709, 832.0453
705.1530, 843.5392
705.6351, 852.7144
706.1172, 858.8566
706.5994, 866.8136
707.0815, 878.1619
707.5636, 891.2169
708.0457, 906.9603
708.5278, 922.9732
709.0099, 934.2258
709.4921, 940.1055
709.9742, 946.5618
710.4563, 960.8326
710.9384, 979.0372
711.4205, 987.5211
711.9026, 986.0284
712.3848, 988.0540
712.8669, 997.1382
713.3490, 1011.335
713.8311, 1030.730
714.3132, 1054.810
714.7953, 1071.926
715.2775, 1078.189
715.7596, 1083.267
716.2417, 1087.328
716.7238, 1091.424
717.2059, 1097.023
717.6880, 1103.328
718.1702, 1108.111
718.6523, 1110.658
719.1344, 1110.823
719.6165, 1107.586
720.0986, 1102.158
720.5807, 1097.166
721.0629, 1092.713
721.5450, 1087.141
722.0271, 1079.549
722.5092, 1070.217
722.9913, 1058.880
723.4734, 1043.932
723.9556, 1034.973
724.4377, 1037.459
724.9198, 1037.295
725.4019, 1024.024
725.8840, 1007.236
726.3661, 1000.117
726.8483, 1004.617
727.3304, 1002.170
727.8125, 982.1051
728.2946, 959.1937
728.7767, 941.6736
729.2589, 928.1390
729.7410, 915.7701
730.2231, 904.0021
730.7052, 894.1070
731.1873, 887.6854
731.6694, 883.4332
732.1516, 879.4298
732.6337, 875.5115
733.1158, 864.6489
733.5979, 842.8776
734.0800, 824.0934
734.5621, 822.0852
735.0442, 832.8339
735.5263, 833.8796
736.0084, 815.0516
736.4905, 801.6180
736.9727, 797.0357
737.4548, 795.1125
737.9369, 794.5657
738.4190, 793.6340
738.9011, 788.9903
739.3832, 779.0374
739.8654, 769.3869
740.3475, 763.0759
740.8296, 759.6259
741.3117, 760.3828
741.7938, 763.6295
742.2759, 762.8959
742.7581, 755.7491
743.2402, 748.4455
743.7223, 750.1519
744.2044, 759.7826
744.6865, 760.4634
745.1686, 748.9210
745.6508, 740.7448
746.1329, 741.0247
746.6150, 745.5873
747.0971, 752.7175
747.5792, 761.6952
748.0613, 762.7501
748.5435, 746.8346
749.0256, 734.5620
749.5077, 732.3418
749.9898, 734.5063
750.4719, 738.0787
750.9540, 741.6493
751.4362, 742.5744
751.9183, 738.7563
752.4004, 735.9250
752.8825, 742.8098
753.3646, 754.2055
753.8467, 757.9917
754.3289, 753.8928
754.8110, 749.0594
755.2931, 746.8466
755.7752, 746.3272
756.2573, 746.6585
756.7394, 748.3525
757.2216, 743.9146
757.7037, 725.9781
758.1858, 717.5331
758.6679, 733.9929
759.1500, 757.1819
759.6321, 766.9767
760.1143, 764.1953
760.5964, 763.2709
761.0785, 766.2059
761.5606, 771.6805
762.0427, 783.7914
762.5248, 794.9673
763.0070, 795.3528
763.4891, 787.0667
763.9712, 780.6066
764.4533, 781.4644
764.9354, 786.7106
765.4175, 792.6976
765.8997, 800.1291
766.3818, 813.6802
766.8639, 833.0107
767.3460, 844.2307
767.8281, 838.7300
768.3102, 828.2686
768.7924, 834.7889
769.2745, 861.6303
769.7566, 880.3553
770.2387, 886.3540
770.7208, 892.5618
771.2029, 902.6039
771.6851, 915.0262
772.1672, 928.1299
772.6493, 942.0515
773.1314, 958.6257
773.6135, 981.7390
774.0956, 1003.134
774.5778, 1017.229
775.0599, 1029.653
775.5420, 1046.986
776.0241, 1068.290
776.5062, 1087.398
776.9883, 1100.484
777.4705, 1113.756
777.9526, 1138.192
778.4347, 1168.255
778.9168, 1183.977
779.3989, 1185.892
779.8810, 1198.739
780.3632, 1235.143
780.8453, 1280.284
781.3274, 1310.962
781.8095, 1326.252
782.2916, 1343.466
782.7737, 1359.171
783.2559, 1384.791
783.7380, 1432.303
784.2201, 1482.765
784.7022, 1520.260
785.1843, 1545.279
785.6664, 1560.517
786.1486, 1554.202
786.6307, 1554.121
787.1128, 1572.587
787.5949, 1596.117
788.0770, 1618.395
788.5591, 1635.685
789.0413, 1641.646
789.5234, 1632.922
790.0055, 1620.787
790.4876, 1615.546
790.9697, 1613.835
791.4518, 1608.103
791.9340, 1599.815
792.4161, 1598.216
792.8982, 1606.586
793.3803, 1616.587
793.8624, 1618.765
794.3445, 1613.883
794.8267, 1606.079
795.3088, 1593.054
795.7909, 1587.238
796.2730, 1589.060
796.7551, 1602.981
797.2372, 1637.661
797.7194, 1687.793
798.2015, 1727.665
798.6836, 1747.493
799.1657, 1775.706
799.6478, 1819.530
800.1299, 1866.411
800.6121, 1904.686
801.0942, 1943.587
801.5763, 1997.893
802.0584, 2070.409
802.5405, 2150.205
803.0226, 2234.837
803.5048, 2319.756
803.9869, 2398.342
804.4690, 2474.564
804.9511, 2552.341
805.4332, 2635.261
805.9153, 2735.649
806.3975, 2866.342
806.8796, 3011.497
807.3617, 3138.401
807.8438, 3248.471
808.3259, 3352.566
808.8080, 3450.790
809.2902, 3550.878
809.7723, 3660.018
810.2544, 3767.771
810.7365, 3856.484
811.2186, 3928.622
811.7007, 3966.849
812.1829, 3959.811
812.6650, 3935.373
813.1471, 3905.824
813.6292, 3858.551
814.1113, 3780.227
814.5934, 3672.890
815.0756, 3550.988
815.5577, 3406.554
816.0398, 3263.151
816.5219, 3126.389
817.0040, 2996.496
817.4861, 2871.440
817.9683, 2753.268
818.4504, 2645.390
818.9325, 2548.862
819.4146, 2465.176
819.8967, 2402.958
820.3788, 2349.456
820.8610, 2277.208
821.3431, 2192.681
821.8252, 2123.663
822.3073, 2078.233
822.7894, 2045.178
823.2715, 2014.221
823.7537, 1987.614
824.2358, 1975.158
824.7179, 1978.154
825.2000, 1981.615
825.6821, 1983.323
826.1642, 1985.270
826.6464, 1986.615
827.1285, 1990.893
827.6106, 2007.503
828.0927, 2042.417
828.5748, 2071.180
829.0569, 2092.059
829.5391, 2108.747
830.0212, 2107.753
830.5033, 2113.174
830.9854, 2156.135
831.4675, 2232.566
831.9496, 2299.468
832.4318, 2325.432
832.9139, 2363.786
833.3960, 2445.416
833.8781, 2545.186
834.3602, 2640.446
834.8423, 2731.442
835.3245, 2826.159
835.8066, 2927.650
836.2887, 3037.557
836.7708, 3150.878
837.2529, 3277.704
837.7350, 3445.582
838.2172, 3644.762
838.6993, 3832.812
839.1814, 3998.709
839.6635, 4172.575
840.1456, 4380.835
840.6277, 4615.196
841.1099, 4850.539
841.5920, 5085.837
842.0741, 5315.668
842.5562, 5532.568
843.0383, 5766.649
843.5204, 6039.730
844.0026, 6331.069
844.4847, 6603.580
844.9668, 6849.374
845.4489, 7109.313
845.9310, 7408.673
846.4131, 7685.375
846.8953, 7930.492
847.3774, 8145.599
847.8595, 8340.535
848.3416, 8508.817
848.8237, 8621.051
849.3058, 8669.322
849.7880, 8666.866
850.2701, 8620.053
850.7522, 8521.838
851.2343, 8358.606
851.7164, 8142.819
852.1985, 7893.240
852.6807, 7616.484
853.1628, 7313.943
853.6449, 6977.491
854.1270, 6625.050
854.6091, 6271.063
855.0912, 5922.287
855.5734, 5593.870
856.0555, 5285.476
856.5376, 4985.485
857.0197, 4683.611
857.5018, 4391.621
857.9839, 4128.696
858.4661, 3892.672
858.9481, 3673.031
859.4302, 3468.026
859.9124, 3276.893
860.3945, 3098.267
860.8766, 2934.961
861.3587, 2793.616
861.8408, 2671.379
862.3229, 2543.076
862.8051, 2403.052
863.2872, 2277.917
863.7693, 2171.766
864.2514, 2081.565
864.7335, 2009.733
865.2156, 1950.140
865.6978, 1886.665
866.1799, 1812.884
866.6620, 1751.873
867.1441, 1716.045
867.6262, 1677.565
868.1083, 1622.067
868.5905, 1564.130
869.0726, 1521.760
869.5547, 1492.177
870.0368, 1453.538
870.5189, 1389.516
871.0010, 1332.777
871.4832, 1301.396
871.9653, 1279.453
872.4474, 1253.084
872.9295, 1225.271
873.4116, 1205.551
873.8937, 1196.386
874.3759, 1186.506
874.8580, 1166.917
875.3401, 1142.837
875.8222, 1118.216
876.3043, 1094.229
876.7864, 1072.460
877.2686, 1053.502
877.7507, 1038.752
878.2328, 1029.320
878.7149, 1022.429
879.1970, 1013.496
879.6791, 1003.439
880.1613, 995.8472
880.6434, 990.9156
881.1255, 990.9322
881.6076, 997.3684
882.0897, 1000.220
882.5718, 988.3485
883.0540, 964.9859
883.5361, 944.1160
884.0182, 925.1191
884.5003, 913.7836
884.9824, 912.9571
885.4645, 913.2975
885.9467, 909.5196
886.4288, 904.1860
886.9109, 901.5360
887.3930, 901.5054
887.8751, 904.9198
888.3572, 919.2175
888.8394, 925.4973
889.3215, 912.8246
889.8036, 897.3656
890.2857, 888.0472
890.7678, 884.8691
891.2499, 888.5407
891.7321, 903.9678
892.2142, 913.6899
892.6963, 910.1725
893.1784, 905.2972
893.6605, 902.8461
894.1426, 903.5894
894.6248, 908.4536
895.1069, 917.1776
895.5890, 927.8671
896.0711, 941.5904
896.5532, 954.2419
897.0353, 961.8503
897.5175, 968.5156
897.9996, 979.7261
898.4817, 993.1865
898.9638, 1002.128
899.4459, 1004.717
899.9280, 1007.927
900.4102, 1019.252
900.8923, 1032.772
901.3744, 1041.666
901.8565, 1046.686
902.3386, 1049.265
902.8207, 1049.748
903.3029, 1047.807
903.7850, 1043.058
904.2671, 1038.251
904.7492, 1038.548
905.2313, 1041.782
905.7134, 1038.896
906.1956, 1030.887
906.6777, 1028.553
907.1598, 1034.857
907.6419, 1041.031
908.1240, 1039.256
908.6061, 1032.380
909.0883, 1028.525
909.5704, 1027.816
910.0525, 1025.112
910.5346, 1019.184
911.0167, 1017.547
911.4988, 1024.499
911.9810, 1033.487
912.4631, 1035.510
912.9452, 1031.464
913.4273, 1035.442
913.9094, 1051.114
914.3915, 1064.224
914.8737, 1074.691
915.3558, 1079.055
915.8379, 1072.376
916.3200, 1060.366
916.8021, 1054.592
917.2842, 1057.260
917.7664, 1054.193
918.2485, 1039.298
918.7306, 1027.152
919.2127, 1025.647
919.6948, 1022.783
920.1769, 1009.925
920.6591, 989.0798
921.1412, 965.2168
921.6233, 935.9438
922.1054, 912.4727
922.5875, 900.2859
923.0696, 890.2696
923.5518, 881.2505
924.0339, 870.4931
924.5160, 851.9308
924.9981, 828.3107
925.4802, 813.0929
925.9623, 814.6575
926.4445, 815.8589
926.9266, 807.5020
927.4087, 797.7536
927.8908, 792.4914
928.3729, 790.4754
928.8550, 788.7556
929.3372, 786.9929
929.8193, 787.7691
930.3014, 795.2311
930.7835, 801.5299
931.2656, 797.0678
931.7477, 790.4100
932.2299, 792.2869
932.7120, 801.4600
933.1941, 813.0500
933.6762, 825.1495
934.1583, 835.0962
934.6404, 836.8377
935.1226, 838.8543
935.6047, 856.3533
936.0868, 881.1932
936.5689, 894.1469
937.0510, 896.1660
937.5331, 904.1610
938.0153, 926.3981
938.4974, 951.7150
938.9795, 962.0095
939.4616, 967.5886
939.9437, 997.6289
940.4258, 1045.613
940.9080, 1085.212
941.3901, 1111.742
941.8722, 1134.889
942.3543, 1160.955
942.8364, 1187.387
943.3185, 1206.759
943.8007, 1222.286
944.2828, 1254.965
944.7649, 1303.933
945.2470, 1345.784
945.7291, 1374.040
946.2112, 1400.135
946.6934, 1433.206
947.1755, 1471.072
947.6576, 1510.585
948.1397, 1551.710
948.6218, 1576.360
949.1039, 1581.794
949.5861, 1592.902
950.0682, 1621.488
950.5503, 1642.959
951.0324, 1630.169
951.5145, 1591.485
951.9966, 1565.473
952.4788, 1555.792
952.9609, 1536.688
953.4430, 1505.680
953.9251, 1466.902
954.4072, 1420.296
954.8893, 1370.663
955.3715, 1323.680
955.8536, 1279.146
956.3357, 1239.030
956.8178, 1205.175
957.2999, 1170.217
957.7820, 1132.852
958.2642, 1095.579
958.7463, 1057.757
959.2284, 1023.133
959.7105, 998.6747
960.1926, 984.8496
960.6747, 965.3921
961.1569, 935.8304
961.6390, 909.3946
962.1211, 886.4282
962.6032, 868.6258
963.0853, 859.1408
963.5674, 854.2018
964.0496, 847.4347
964.5317, 838.7028
965.0138, 829.4264
965.4959, 819.7800
965.9780, 809.4160
966.4601, 794.0455
966.9423, 782.3215
967.4244, 784.9750
967.9065, 793.1509
968.3886, 786.5756
968.8707, 759.5623
969.3528, 744.1854
969.8350, 752.7852
970.3171, 758.8015
970.7992, 754.1516
971.2813, 746.6707
971.7634, 741.3638
972.2455, 737.7763
972.7277, 734.8013
973.2098, 733.1082
973.6919, 728.5945
974.1740, 716.9882
974.6561, 707.2327
975.1382, 703.7649
975.6204, 702.0732
976.1025, 697.3085
976.5846, 691.2248
977.0667, 689.6439
977.5488, 695.0640
978.0309, 698.6770
978.5131, 699.7795
978.9952, 697.0472
979.4773, 686.6071
979.9594, 674.7241
980.4415, 665.3492
980.9236, 659.8353
981.4058, 661.4456
981.8878, 673.5828
982.3699, 682.8720
982.8521, 684.4980
983.3342, 683.2028
983.8163, 679.5328
984.2984, 675.5451
984.7805, 672.7288
985.2626, 671.4617
985.7448, 672.6263
986.2269, 677.5502
986.7090, 681.0436
987.1911, 678.8155
987.6732, 677.3317
988.1553, 683.2415
988.6375, 689.7997
989.1196, 689.6704
989.6017, 682.7990
990.0838, 671.4768
990.5659, 652.9476
991.0480, 641.3618
991.5302, 645.1813
992.0123, 654.7513
992.4944, 669.0620
992.9765, 682.1628
993.4586, 686.3612
993.9407, 682.8170
994.4229, 679.2207
994.9050, 678.2418
995.3871, 676.7523
995.8692, 670.6171
996.3513, 666.4775
996.8334, 672.1061
997.3156, 680.1472
997.7977, 678.8141
998.2798, 670.3873
998.7619, 670.1478
999.2440, 687.5089
999.7261, 699.5278
1000.208, 688.0035
1000.690, 675.5325
1001.172, 680.4221
1001.655, 691.7045
1002.137, 694.6333
1002.619, 689.4867
1003.101, 685.9800
1003.583, 688.4113
1004.065, 689.4128
1004.547, 681.3256
1005.029, 675.2566
1005.512, 683.8437
1005.994, 695.3177
1006.476, 691.0460
1006.958, 674.7466
1007.440, 668.6536
1007.922, 682.9632
1008.404, 697.2064
1008.886, 705.0218
1009.368, 706.4088
1009.851, 695.8077
1010.333, 682.6229
1010.815, 677.6417
1011.297, 680.6526
1011.779, 686.7035
1012.261, 696.5300
1012.743, 700.6368
1013.225, 689.6268
1013.708, 677.7766
1014.190, 672.0667
1014.672, 671.4062
1015.154, 676.6453
1015.636, 685.3507
1016.118, 690.1851
1016.600, 687.9317
1017.082, 687.2257
1017.564, 697.0122
1018.047, 702.4227
1018.529, 691.0935
1019.011, 674.8665
1019.493, 667.1710
1019.975, 665.4868
1020.457, 657.3981
1020.939, 637.0062
1021.421, 625.3849
1021.904, 637.1842
1022.386, 649.3655
1022.868, 652.5338
1023.350, 650.3824
1023.832, 645.2540
1024.314, 638.2239
1024.796, 629.0949
1025.278, 615.7371
1025.760, 613.3271
1026.243, 639.6739
1026.725, 659.2833
1027.207, 657.0532
1027.689, 645.1175
1028.171, 625.6523
1028.653, 606.5806
1029.135, 605.2069
1029.617, 626.5975
1030.099, 643.3642
1030.582, 651.0224
1031.064, 653.2244
1031.546, 646.4558
1032.028, 639.0231
1032.510, 636.6183
1032.992, 637.4982
1033.474, 638.5494
1033.956, 639.7525
1034.439, 639.0356
1034.921, 635.2875
1035.403, 630.9645
1035.885, 626.5355
1036.367, 621.5481
1036.849, 612.4183
1037.331, 604.1987
1037.813, 606.1772
1038.296, 618.9701
1038.778, 628.7688
1039.260, 635.2698
1039.742, 639.3384
1040.224, 643.4725
1040.706, 641.6765
1041.188, 624.9098
1041.670, 606.1820
1042.152, 604.0317
1042.635, 616.9777
1043.117, 622.0320
1043.599, 614.3430
1044.081, 609.8470
1044.563, 611.0381
1045.045, 611.9908
1045.527, 609.5744
1046.009, 607.3013
1046.491, 609.7805
1046.974, 615.5300
1047.456, 616.0251
1047.938, 607.9837
1048.420, 607.6556
1048.902, 619.3139
1049.384, 626.2736
1049.866, 622.4528
1050.348, 613.7469
1050.830, 603.5334
1051.313, 594.5630
1051.795, 597.2603
1052.277, 614.3014
1052.759, 618.5291
1053.241, 607.6987
1053.723, 599.5814
1054.205, 598.9056
1054.687, 600.5338
1055.170, 600.7371
1055.652, 601.1423
1056.134, 606.5400
1056.616, 616.0338
1057.098, 614.8637
1057.580, 603.3060
1058.062, 594.1549
1058.544, 589.8538
1059.026, 590.8576
1059.509, 597.8221
1059.991, 606.3542
1060.473, 610.7671
1060.955, 611.6171
1061.437, 609.8583
1061.919, 606.2339
1062.401, 604.4315
1062.883, 604.8433
1063.365, 606.5508
1063.848, 609.1185
1064.330, 611.3878
1064.812, 612.4421
1065.294, 612.1124
1065.776, 608.4294
1066.258, 603.7413
1066.740, 604.9917
1067.222, 610.5869
1067.705, 612.6242
1068.187, 609.2416
1068.669, 606.5526
1069.151, 610.2916
1069.633, 612.7335
1070.115, 600.7974
1070.597, 585.4824
1071.079, 582.8511
1071.562, 588.6306
1072.044, 593.7167
1072.526, 595.9124
1073.008, 595.2391
1073.490, 590.7191
1073.972, 588.0923
1074.454, 593.2960
1074.936, 600.1600
1075.418, 604.9066
1075.901, 607.2197
1076.383, 604.3881
1076.865, 599.3101
1077.347, 601.0499
1077.829, 613.1172
1078.311, 622.8513
1078.793, 622.6022
1079.275, 622.2125
1079.757, 629.1365
1080.240, 635.0063
1080.722, 632.4754
1081.204, 624.0126
1081.686, 612.6684
1082.168, 598.6710
1082.650, 593.3442
1083.132, 605.6741
1083.614, 615.9714
1084.097, 623.8450
1084.579, 625.7791
1085.061, 613.5323
1085.543, 599.0693
1086.025, 598.4318
1086.507, 609.3184
1086.989, 612.9899
1087.471, 606.4304
1087.953, 599.1623
1088.436, 588.6230
1088.918, 583.2038
1089.400, 587.1345
1089.882, 594.1567
1090.364, 600.6264
1090.846, 604.4823
1091.328, 598.2692
1091.810, 580.1535
1092.292, 576.6131
1092.775, 590.7313
1093.257, 593.2974
1093.739, 576.4711
1094.221, 564.1971
1094.703, 571.4963
1095.185, 584.3466
1095.667, 580.6298
1096.149, 565.7889
1096.632, 564.3091
1097.114, 573.7768
1097.596, 578.1264
1098.078, 575.9561
1098.560, 572.0428
1099.042, 568.3310
1099.524, 565.8831
1100.006, 565.6488
1100.489, 567.1554
1100.971, 573.0552
1101.453, 578.3005
1101.935, 569.1944
1102.417, 551.6697
1102.899, 543.2456
1103.381, 545.9142
1103.863, 548.7509
1104.345, 546.1619
1104.828, 542.2457
1105.310, 537.3433
1105.792, 535.7317
1106.274, 543.8788
1106.756, 555.8149
1107.238, 567.3439
1107.720, 575.1569
1108.202, 572.0217
1108.684, 555.8195
1109.167, 541.6766
1109.649, 531.4976
1110.131, 529.9587
1110.613, 550.1243
1111.095, 567.5078
1111.577, 558.8425
1112.059, 541.3529
1112.541, 544.0330
1113.024, 565.8834
1113.506, 574.4869
1113.988, 559.0891
1114.470, 545.4272
1114.952, 527.2263
1115.434, 521.9485
1115.916, 544.4977
1116.398, 566.7156
1116.880, 562.5029
1117.363, 543.8579
1117.845, 542.1593
1118.327, 559.2302
1118.809, 567.5791
1119.291, 566.4979
1119.773, 559.1768
1120.255, 544.7174
1120.737, 536.9276
1121.219, 543.5295
1121.702, 555.2247
1122.184, 560.7811
1122.666, 561.8323
1123.148, 563.4918
1123.630, 565.0735
1124.112, 561.1577
1124.594, 553.4031
1125.076, 554.9622
1125.559, 567.5938
1126.041, 572.7197
1126.523, 555.8216
1127.005, 536.8840
1127.487, 540.7969
1127.969, 554.8658
1128.451, 567.6477
1128.933, 575.0339
1129.416, 568.0931
1129.898, 550.6781
1130.380, 534.9178
1130.862, 524.6356
1131.344, 522.1434
1131.826, 535.0266
1132.308, 547.5073
1132.790, 553.2513
1133.272, 554.0388
1133.755, 546.8148
1134.237, 538.1478
1134.719, 537.8948
1135.201, 545.7762
1135.683, 552.5339
1136.165, 560.0292
1136.647, 560.4456
1137.129, 547.4653
1137.611, 537.3160
1138.094, 534.3978
1138.576, 535.3250
1139.058, 538.2825
1139.540, 542.8513
1140.022, 548.9307
1140.504, 556.4562
1140.986, 556.5093
1141.468, 548.3108
1141.951, 540.3643
1142.433, 533.5353
1142.915, 531.8053
1143.397, 537.2067
1143.879, 540.0515
1144.361, 529.2836
1144.843, 514.7172
1145.325, 519.9803
1145.807, 536.5967
1146.290, 540.0739
1146.772, 533.6393
1147.254, 529.5152
1147.736, 530.3183
1148.218, 535.1269
1148.700, 543.7260
1149.182, 551.4233
1149.664, 554.3170
1150.146, 554.8527
1150.629, 554.9124
1151.111, 553.8608
1151.593, 549.6306
1152.075, 544.3826
1152.557, 543.6584
1153.039, 547.1313
1153.521, 544.1601
1154.003, 521.6085
1154.486, 513.0686
1154.968, 538.6502
1155.450, 561.0490
1155.932, 560.6994
1156.414, 558.5856
1156.896, 576.1985
1157.378, 599.1706
1157.860, 593.8425
1158.343, 558.3373
1158.825, 535.8658
1159.307, 528.0899
1159.789, 524.4922
1160.271, 523.7826
1160.753, 528.3953
1161.235, 539.9342
1161.717, 550.8760
1162.199, 553.9494
1162.682, 551.5408
1163.164, 546.9817
1163.646, 541.5587
1164.128, 539.5501
1164.610, 540.1923
1165.092, 540.0664
1165.574, 539.3036
1166.056, 542.4009
1166.538, 551.1901
1167.021, 557.4365
1167.503, 552.2245
1167.985, 545.0167
1168.467, 539.4904
1168.949, 538.9158
1169.431, 552.4863
1169.913, 569.5907
1170.395, 572.6316
1170.877, 562.2927
1171.360, 554.7333
1171.842, 554.5062
1172.324, 552.6105
1172.806, 547.3254
1173.288, 540.9875
1173.770, 530.1939
1174.252, 524.6660
1174.734, 533.4917
1175.217, 546.4728
1175.699, 547.2111
1176.181, 538.0214
1176.663, 537.1987
1177.145, 545.1979
1177.627, 549.9832
1178.109, 550.8072
1178.591, 552.1909
1179.073, 555.1978
1179.556, 551.9079
1180.038, 535.9809
1180.520, 520.9533
1181.002, 528.3525
1181.484, 545.2662
1181.966, 551.6508
1182.448, 551.1965
1182.930, 548.2729
1183.412, 545.1703
1183.895, 546.8427
1184.377, 553.2629
1184.859, 554.3934
1185.341, 541.1509
1185.823, 533.0139
1186.305, 542.1582
1186.787, 552.8787
1187.269, 557.8218
1187.752, 560.4820
1188.234, 566.4419
1188.716, 571.5695
1189.198, 565.1028
1189.680, 546.4659
1190.162, 539.4295
1190.644, 547.4614
1191.126, 554.4677
1191.609, 559.6854
1192.091, 559.1918
1192.573, 550.6481
1193.055, 544.8776
1193.537, 551.3277
1194.019, 562.2770
1194.501, 563.6538
1194.983, 559.0156
1195.465, 558.1237
1195.948, 559.7334
1196.430, 562.3566
1196.912, 563.9367
1197.394, 556.7571
1197.876, 540.3071
1198.358, 530.7750
1198.840, 540.0167
1199.322, 551.6949
1199.804, 560.0743
1200.287, 563.3348
1200.769, 555.6296
1201.251, 546.2274
1201.733, 545.3253
1202.215, 549.8078
1202.697, 549.7001
1203.179, 544.2050
1203.661, 544.2115
1204.144, 552.2518
1204.626, 558.8868
1205.108, 563.9747
1205.590, 565.0760
1206.072, 560.8190
1206.554, 555.4702
1207.036, 552.4597
1207.518, 550.2071
1208.000, 545.1035
1208.483, 538.7773
1208.965, 536.9704
1209.447, 537.9736
1209.929, 537.1233
1210.411, 534.4370
1210.893, 530.8609
1211.375, 527.3735
1211.857, 528.5719
1212.339, 539.6834
1212.822, 547.4773
1213.304, 538.1925
1213.786, 530.8313
1214.268, 540.9969
1214.750, 554.1482
1215.232, 559.1858
1215.714, 556.3374
1216.196, 544.3605
1216.679, 524.1092
1217.161, 516.4205
1217.643, 525.3935
1218.125, 532.6706
1218.607, 537.5269
1219.089, 540.1417
1219.571, 540.3026
1220.053, 541.1627
1220.536, 544.8972
1221.018, 549.1013
1221.500, 550.2982
1221.982, 549.7844
1222.464, 550.4975
1222.946, 551.4641
1223.428, 549.6670
1223.910, 546.8051
1224.392, 547.2763
1224.875, 551.3942
1225.357, 556.5912
1225.839, 562.6265
1226.321, 565.7195
1226.803, 562.3475
1227.285, 558.5275
1227.767, 557.0034
1228.249, 555.0469
1228.731, 547.4771
1229.214, 542.1831
1229.696, 550.7267
1230.178, 568.1041
1230.660, 573.4228
1231.142, 565.3442
1231.624, 561.3674
1232.106, 561.5242
1232.588, 559.7670
1233.071, 555.5254
1233.553, 557.5662
1234.035, 569.1824
1234.517, 577.5416
1234.999, 570.5426
1235.481, 558.2499
1235.963, 549.1895
1236.445, 544.1003
1236.927, 544.6953
1237.410, 549.0370
1237.892, 556.0719
1238.374, 564.1648
1238.856, 570.3415
1239.338, 574.0787
1239.820, 576.7256
1240.302, 582.8915
1240.784, 579.3112
1241.266, 558.3026
1241.749, 543.5461
1242.231, 543.0942
1242.713, 547.3080
1243.195, 550.0657
1243.677, 551.7145
1244.159, 553.0969
1244.641, 553.5313
1245.123, 551.0601
##END=



