##NAMES=Omphacite
##RRUFFID=R110038
##IDEAL CHEMISTRY=(Ca,Na)(Mg,Fe^2+^,Al)Si_2_O_6_
##LOCALITY=Kefalos Hill, Skotini Bay, Galissas, Syros Island, Aegean Sea, Greece
##OWNER=RRUFF
##SOURCE=William W Pinch
##DESCRIPTION=Pale green granular crystals associated with fluor-dravite R110031 
##STATUS=The identification of this mineral has been confirmed only by single crystal X-ray diffraction.
##URL=rruff.info/R110038
179.2017, 711.5906
179.6838, 708.3171
180.1659, 708.8652
180.6480, 713.4844
181.1301, 718.7761
181.6122, 720.8243
182.0944, 720.6840
182.5765, 721.7531
183.0586, 727.2493
183.5407, 734.7071
184.0228, 738.5701
184.5049, 738.2986
184.9871, 736.9791
185.4692, 737.3508
185.9513, 739.4768
186.4334, 743.8707
186.9155, 752.1356
187.3976, 762.9872
187.8798, 772.0918
188.3619, 778.9903
188.8440, 785.2086
189.3261, 792.7868
189.8082, 801.6830
190.2903, 810.5540
190.7725, 818.9349
191.2546, 826.8813
191.7367, 834.0009
192.2188, 840.3254
192.7009, 845.8497
193.1830, 849.8740
193.6652, 852.3676
194.1473, 855.5087
194.6294, 861.4730
195.1115, 869.8690
195.5936, 874.9130
196.0757, 875.1151
196.5579, 873.8557
197.0400, 878.3730
197.5221, 889.1752
198.0042, 900.1242
198.4863, 907.6612
198.9684, 911.7183
199.4506, 916.2639
199.9327, 921.7028
200.4148, 927.5291
200.8969, 932.5997
201.3790, 936.9205
201.8611, 940.7803
202.3433, 944.1500
202.8254, 946.9520
203.3075, 950.3524
203.7896, 954.6463
204.2717, 959.3573
204.7538, 963.2637
205.2360, 966.3082
205.7181, 968.7222
206.2002, 970.0161
206.6823, 969.6478
207.1644, 971.8718
207.6465, 978.0888
208.1287, 986.4908
208.6108, 991.9175
209.0929, 994.0271
209.5750, 994.1282
210.0571, 992.6593
210.5392, 989.2493
211.0214, 986.1365
211.5035, 983.9247
211.9856, 982.0393
212.4677, 978.3137
212.9498, 972.4468
213.4319, 965.4680
213.9140, 957.7115
214.3962, 948.8331
214.8783, 940.5081
215.3604, 933.2473
215.8425, 926.6130
216.3246, 919.0940
216.8067, 910.3089
217.2889, 901.2343
217.7710, 892.2071
218.2531, 882.8558
218.7352, 874.6161
219.2173, 867.9948
219.6994, 862.4576
220.1816, 855.9880
220.6637, 848.4833
221.1458, 840.0227
221.6279, 830.3111
222.1100, 817.9173
222.5921, 807.8951
223.0743, 801.1135
223.5564, 797.0202
224.0385, 792.7355
224.5206, 788.1891
225.0027, 783.7460
225.4848, 779.7399
225.9670, 776.6241
226.4491, 772.8683
226.9312, 767.6875
227.4133, 761.7230
227.8954, 758.0677
228.3775, 758.1658
228.8597, 758.5735
229.3418, 757.0873
229.8239, 752.6420
230.3060, 748.7358
230.7881, 745.4963
231.2702, 742.9571
231.7524, 741.5811
232.2345, 742.0163
232.7166, 742.6730
233.1987, 742.6214
233.6808, 741.5916
234.1629, 740.4076
234.6451, 739.0686
235.1272, 737.5926
235.6093, 736.0300
236.0914, 734.2435
236.5735, 732.5599
237.0556, 731.2024
237.5378, 730.4151
238.0199, 729.4661
238.5020, 728.4005
238.9841, 727.1660
239.4662, 725.5253
239.9483, 723.2722
240.4305, 720.9375
240.9126, 718.7181
241.3947, 716.3790
241.8768, 714.8215
242.3589, 714.8646
242.8410, 715.6915
243.3232, 714.1494
243.8053, 708.7538
244.2874, 703.0195
244.7695, 698.6164
245.2516, 695.3800
245.7337, 693.9130
246.2159, 695.5606
246.6980, 698.7959
247.1801, 698.4050
247.6622, 692.0126
248.1443, 685.5521
248.6264, 682.0310
249.1086, 682.9066
249.5907, 683.1052
250.0728, 682.1285
250.5549, 680.5524
251.0370, 679.9920
251.5191, 681.0576
252.0013, 682.1971
252.4834, 682.7960
252.9655, 682.8646
253.4476, 682.2683
253.9297, 680.3389
254.4118, 678.0550
254.8940, 677.7951
255.3761, 680.7673
255.8582, 683.6230
256.3403, 684.7557
256.8224, 683.3136
257.3046, 682.9115
257.7867, 683.6487
258.2688, 685.3365
258.7509, 687.8839
259.2330, 692.0282
259.7151, 695.4426
260.1973, 697.0764
260.6794, 696.4631
261.1615, 695.8755
261.6436, 694.8549
262.1257, 694.2639
262.6078, 696.0488
263.0900, 701.6384
263.5721, 706.1589
264.0542, 707.3348
264.5363, 704.3575
265.0184, 703.9147
265.5005, 707.0857
265.9827, 711.5352
266.4648, 713.8015
266.9469, 713.1379
267.4290, 712.4161
267.9111, 712.4935
268.3932, 713.4105
268.8754, 714.4735
269.3575, 715.8510
269.8396, 717.0845
270.3217, 717.3395
270.8038, 716.1984
271.2859, 715.7112
271.7681, 717.0052
272.2502, 719.9391
272.7323, 720.1879
273.2144, 716.9832
273.6965, 712.6276
274.1786, 709.4508
274.6608, 707.5156
275.1429, 706.3427
275.6250, 706.1108
276.1071, 706.6281
276.5892, 706.2249
277.0714, 704.6076
277.5535, 702.9319
278.0356, 702.4244
278.5177, 703.2127
278.9998, 703.8273
279.4819, 704.0182
279.9641, 703.7941
280.4462, 703.0583
280.9283, 701.6853
281.4104, 700.3167
281.8925, 699.7423
282.3746, 699.9894
282.8568, 699.2099
283.3389, 696.5591
283.8210, 693.1458
284.3031, 692.3273
284.7852, 694.3535
285.2673, 696.9963
285.7495, 698.7276
286.2316, 699.6342
286.7137, 700.6603
287.1958, 701.8712
287.6779, 703.3582
288.1600, 705.8005
288.6422, 709.2279
289.1243, 711.7328
289.6064, 710.8071
290.0885, 707.4181
290.5706, 706.9639
291.0527, 710.3713
291.5349, 715.7217
292.0170, 720.4723
292.4991, 724.5638
292.9812, 727.9354
293.4633, 730.2775
293.9454, 731.8189
294.4276, 733.0389
294.9097, 733.8072
295.3918, 734.9075
295.8739, 737.8131
296.3560, 742.1119
296.8381, 745.9804
297.3203, 747.7612
297.8024, 748.6260
298.2845, 751.5039
298.7666, 756.6790
299.2487, 761.6663
299.7308, 763.3575
300.2130, 762.7856
300.6951, 762.9084
301.1772, 765.8281
301.6593, 769.6596
302.1414, 771.2145
302.6235, 770.5380
303.1057, 770.2803
303.5878, 773.3945
304.0699, 778.4141
304.5520, 782.5322
305.0341, 784.1390
305.5162, 785.0953
305.9984, 787.5734
306.4805, 791.3380
306.9626, 794.9366
307.4447, 796.2253
307.9268, 797.0880
308.4089, 800.1995
308.8911, 807.5919
309.3732, 815.3320
309.8553, 819.3094
310.3374, 820.7136
310.8195, 823.6671
311.3016, 832.4503
311.7838, 842.7659
312.2659, 850.6042
312.7480, 854.1778
313.2301, 857.5364
313.7122, 862.7799
314.1943, 869.6133
314.6765, 877.3118
315.1586, 886.7002
315.6407, 896.0225
316.1228, 904.0665
316.6049, 910.2932
317.0870, 916.7355
317.5692, 924.2629
318.0513, 932.5078
318.5334, 940.9172
319.0155, 948.2103
319.4976, 956.5806
319.9797, 967.6548
320.4619, 981.8400
320.9440, 994.8508
321.4261, 1003.638
321.9082, 1011.300
322.3903, 1020.733
322.8724, 1034.630
323.3546, 1048.238
323.8367, 1059.855
324.3188, 1069.557
324.8009, 1080.347
325.2830, 1093.038
325.7651, 1106.661
326.2473, 1120.564
326.7294, 1134.740
327.2115, 1149.181
327.6936, 1163.658
328.1757, 1178.267
328.6578, 1194.053
329.1400, 1211.781
329.6221, 1230.117
330.1042, 1248.710
330.5863, 1268.108
331.0684, 1286.951
331.5505, 1304.641
332.0327, 1321.767
332.5148, 1339.615
332.9969, 1359.811
333.4790, 1378.503
333.9611, 1394.529
334.4432, 1407.380
334.9254, 1419.458
335.4075, 1430.871
335.8896, 1441.208
336.3717, 1449.736
336.8538, 1455.854
337.3359, 1461.406
337.8180, 1467.085
338.3001, 1472.850
338.7823, 1476.701
339.2644, 1478.431
339.7465, 1478.662
340.2286, 1477.827
340.7107, 1475.877
341.1928, 1473.404
341.6750, 1470.593
342.1571, 1467.391
342.6392, 1463.206
343.1213, 1457.644
343.6034, 1453.081
344.0855, 1451.949
344.5677, 1454.081
345.0498, 1454.838
345.5319, 1453.359
346.0140, 1450.778
346.4961, 1449.276
346.9782, 1448.815
347.4604, 1448.370
347.9425, 1447.327
348.4246, 1445.822
348.9067, 1444.520
349.3888, 1443.555
349.8709, 1442.297
350.3531, 1439.814
350.8352, 1436.333
351.3173, 1432.724
351.7994, 1429.611
352.2815, 1426.472
352.7636, 1422.112
353.2458, 1416.518
353.7279, 1411.030
354.2100, 1407.362
354.6921, 1404.467
355.1742, 1400.525
355.6563, 1394.424
356.1385, 1387.550
356.6206, 1380.493
357.1027, 1373.484
357.5848, 1367.867
358.0669, 1365.288
358.5490, 1363.989
359.0312, 1362.174
359.5133, 1358.951
359.9954, 1356.395
360.4775, 1355.765
360.9596, 1356.690
361.4417, 1358.366
361.9239, 1361.113
362.4060, 1364.056
362.8881, 1366.519
363.3702, 1368.203
363.8523, 1370.687
364.3344, 1374.400
364.8166, 1379.214
365.2987, 1385.036
365.7808, 1393.663
366.2629, 1401.326
366.7450, 1406.549
367.2271, 1409.328
367.7093, 1412.529
368.1914, 1416.439
368.6735, 1420.879
369.1556, 1425.776
369.6377, 1431.762
370.1198, 1437.228
370.6020, 1441.900
371.0841, 1445.956
371.5662, 1450.050
372.0483, 1453.706
372.5304, 1457.893
373.0125, 1463.456
373.4947, 1471.937
373.9768, 1476.867
374.4589, 1476.288
374.9410, 1473.780
375.4231, 1475.463
375.9052, 1483.013
376.3874, 1490.186
376.8695, 1495.236
377.3516, 1498.262
377.8337, 1500.045
378.3158, 1500.436
378.7979, 1500.183
379.2801, 1500.403
379.7622, 1501.212
380.2443, 1500.161
380.7264, 1496.452
381.2085, 1490.835
381.6906, 1485.257
382.1728, 1479.741
382.6549, 1473.634
383.1370, 1466.184
383.6191, 1457.678
384.1012, 1449.860
384.5833, 1443.087
385.0655, 1435.954
385.5476, 1426.525
386.0297, 1415.083
386.5118, 1403.193
386.9939, 1390.801
387.4760, 1378.616
387.9582, 1367.805
388.4403, 1358.319
388.9224, 1349.241
389.4045, 1339.679
389.8866, 1330.211
390.3687, 1321.604
390.8509, 1314.565
391.3330, 1308.157
391.8151, 1302.090
392.2972, 1296.202
392.7793, 1289.691
393.2614, 1280.900
393.7436, 1272.180
394.2257, 1264.994
394.7078, 1259.780
395.1899, 1255.807
395.6720, 1252.918
396.1541, 1251.067
396.6363, 1250.188
397.1184, 1251.171
397.6005, 1252.263
398.0826, 1252.671
398.5647, 1252.184
399.0468, 1252.499
399.5290, 1254.928
400.0111, 1257.577
400.4932, 1258.925
400.9753, 1258.000
401.4574, 1257.076
401.9395, 1256.377
402.4217, 1255.848
402.9038, 1255.139
403.3859, 1253.677
403.8680, 1252.885
404.3501, 1253.637
404.8322, 1256.488
405.3144, 1258.999
405.7965, 1261.318
406.2786, 1263.086
406.7607, 1263.508
407.2428, 1262.348
407.7249, 1261.112
408.2071, 1260.357
408.6892, 1259.962
409.1713, 1259.635
409.6534, 1259.620
410.1355, 1258.155
410.6176, 1252.471
411.0998, 1243.400
411.5819, 1236.325
412.0640, 1233.181
412.5461, 1230.953
413.0282, 1224.977
413.5103, 1215.482
413.9925, 1203.808
414.4746, 1189.064
414.9567, 1173.045
415.4388, 1159.310
415.9209, 1148.322
416.4030, 1136.785
416.8852, 1121.027
417.3673, 1102.888
417.8494, 1085.336
418.3315, 1070.505
418.8136, 1055.691
419.2957, 1038.446
419.7779, 1019.316
420.2600, 1000.787
420.7421, 984.9649
421.2242, 969.6868
421.7063, 953.6458
422.1884, 935.2381
422.6706, 918.1241
423.1527, 903.3233
423.6348, 890.2826
424.1169, 877.8799
424.5990, 866.6018
425.0811, 855.1334
425.5633, 842.6180
426.0454, 828.6177
426.5275, 816.5287
427.0096, 807.1456
427.4917, 798.8926
427.9738, 790.4719
428.4560, 781.7559
428.9381, 773.1450
429.4202, 764.6932
429.9023, 756.4799
430.3844, 748.3884
430.8665, 740.5690
431.3487, 732.5773
431.8308, 723.6173
432.3129, 713.5587
432.7950, 706.3170
433.2771, 702.6021
433.7592, 700.0095
434.2414, 695.2368
434.7235, 688.4717
435.2056, 681.8876
435.6877, 676.0877
436.1698, 670.9876
436.6519, 666.1004
437.1341, 661.4844
437.6162, 657.9727
438.0983, 657.2467
438.5804, 657.7525
439.0625, 656.6616
439.5446, 653.2173
440.0268, 649.1297
440.5089, 645.2626
440.9910, 641.8802
441.4731, 639.5750
441.9552, 639.8688
442.4373, 640.2925
442.9195, 639.0370
443.4016, 636.0847
443.8837, 633.2571
444.3658, 630.5070
444.8479, 628.6091
445.3300, 628.2610
445.8122, 631.6868
446.2943, 633.9008
446.7764, 633.3369
447.2585, 630.9392
447.7406, 629.1262
448.2227, 628.1384
448.7049, 627.6931
449.1870, 627.9538
449.6691, 629.1863
450.1512, 629.4730
450.6333, 628.2551
451.1154, 626.7139
451.5976, 626.0782
452.0797, 626.7662
452.5618, 627.0582
453.0439, 626.7863
453.5260, 625.9171
454.0081, 623.7811
454.4903, 620.0168
454.9724, 617.3384
455.4545, 617.9107
455.9366, 621.1970
456.4187, 623.3598
456.9008, 624.1529
457.3830, 624.4071
457.8651, 624.5543
458.3472, 624.8464
458.8293, 626.2869
459.3114, 630.4324
459.7935, 634.6044
460.2757, 634.7548
460.7578, 631.5880
461.2399, 628.7276
461.7220, 629.1879
462.2041, 630.5870
462.6862, 630.3809
463.1684, 627.7383
463.6505, 625.6426
464.1326, 626.0778
464.6147, 627.8503
465.0968, 629.4299
465.5789, 631.0197
466.0611, 631.6737
466.5432, 630.4748
467.0253, 627.6700
467.5074, 625.8970
467.9895, 625.9393
468.4716, 626.7100
468.9538, 627.7466
469.4359, 629.1805
469.9180, 630.5928
470.4001, 632.2145
470.8822, 633.6560
471.3643, 634.2292
471.8465, 633.5732
472.3286, 633.0637
472.8107, 633.0320
473.2928, 633.4277
473.7749, 634.0406
474.2570, 634.8938
474.7392, 635.8054
475.2213, 636.9265
475.7034, 638.1138
476.1855, 638.0997
476.6676, 636.4352
477.1497, 634.6571
477.6319, 635.1741
478.1140, 637.3873
478.5961, 639.3319
479.0782, 639.7664
479.5603, 639.7322
480.0424, 640.3157
480.5246, 641.5013
481.0067, 643.1257
481.4888, 645.1155
481.9709, 647.4688
482.4530, 650.3339
482.9352, 654.1729
483.4173, 657.4128
483.8994, 658.4714
484.3815, 658.7496
484.8636, 660.3708
485.3457, 666.4308
485.8279, 671.1829
486.3100, 672.2610
486.7921, 669.6427
487.2742, 668.8310
487.7563, 670.9147
488.2384, 673.7154
488.7206, 676.0398
489.2027, 677.6686
489.6848, 679.4270
490.1669, 681.3638
490.6490, 683.4071
491.1311, 685.3814
491.6133, 687.1905
492.0954, 689.5389
492.5775, 692.9950
493.0596, 697.0558
493.5417, 699.7494
494.0238, 701.0424
494.5060, 702.0471
494.9881, 703.4719
495.4702, 705.2191
495.9523, 707.0189
496.4344, 708.7401
496.9165, 710.8687
497.3987, 714.1760
497.8808, 718.2207
498.3629, 722.1103
498.8450, 725.1251
499.3271, 728.1741
499.8092, 732.3876
500.2914, 737.4318
500.7735, 741.1146
501.2556, 740.4058
501.7377, 739.7986
502.2198, 742.3055
502.7019, 750.0340
503.1841, 756.3473
503.6662, 759.1389
504.1483, 760.6552
504.6304, 763.4481
505.1125, 768.0511
505.5946, 773.0291
506.0768, 778.4363
506.5589, 784.0872
507.0410, 789.1238
507.5231, 793.3887
508.0052, 797.4408
508.4873, 801.6642
508.9695, 806.0038
509.4516, 810.0394
509.9337, 813.7495
510.4158, 817.1993
510.8979, 820.4091
511.3800, 823.4216
511.8622, 826.2939
512.3443, 829.0062
512.8264, 831.6476
513.3085, 834.9636
513.7906, 838.5117
514.2728, 840.6961
514.7549, 841.0149
515.2370, 839.3400
515.7191, 834.9820
516.2012, 827.7634
516.6833, 820.4745
517.1655, 815.0536
517.6476, 809.7455
518.1297, 803.0205
518.6118, 792.3755
519.0939, 783.0323
519.5760, 776.2123
520.0582, 771.2673
520.5403, 766.4135
521.0224, 762.1010
521.5045, 757.2551
521.9866, 750.9098
522.4688, 743.0488
522.9509, 738.5750
523.4330, 738.3757
523.9151, 739.3939
524.3972, 739.1903
524.8793, 737.7185
525.3615, 737.1439
525.8436, 737.7589
526.3257, 739.0061
526.8078, 740.1292
527.2899, 741.1658
527.7720, 742.3001
528.2542, 743.7101
528.7363, 745.1534
529.2184, 746.2416
529.7005, 747.0347
530.1826, 747.9150
530.6647, 748.4360
531.1469, 749.5656
531.6290, 752.4815
532.1111, 757.7513
532.5932, 762.7595
533.0753, 765.4667
533.5574, 767.8541
534.0396, 771.9278
534.5217, 780.0117
535.0038, 787.5405
535.4859, 793.7111
535.9680, 798.9014
536.4501, 804.3821
536.9323, 810.3124
537.4144, 816.2025
537.8965, 821.3167
538.3786, 825.5387
538.8607, 833.3438
539.3428, 845.7894
539.8250, 858.3289
540.3071, 865.5739
540.7892, 868.1611
541.2713, 873.4556
541.7534, 883.0042
542.2355, 894.2154
542.7177, 903.9602
543.1998, 912.4749
543.6819, 920.2463
544.1640, 926.4492
544.6461, 932.6466
545.1282, 941.1537
545.6104, 951.4251
546.0925, 960.2883
546.5746, 964.1395
547.0567, 967.3781
547.5388, 973.3330
548.0209, 983.4948
548.5031, 992.8149
548.9852, 999.8624
549.4673, 1005.804
549.9494, 1011.922
550.4315, 1019.125
550.9136, 1025.153
551.3958, 1029.945
551.8779, 1033.366
552.3600, 1034.490
552.8421, 1032.455
553.3242, 1031.150
553.8063, 1032.620
554.2885, 1036.417
554.7706, 1039.443
555.2527, 1041.811
555.7348, 1042.242
556.2169, 1037.981
556.6990, 1030.986
557.1812, 1026.711
557.6633, 1026.724
558.1454, 1026.817
558.6275, 1022.826
559.1096, 1016.107
559.5917, 1008.953
560.0739, 1001.954
560.5560, 995.1618
561.0381, 988.8702
561.5202, 982.9320
562.0023, 976.4628
562.4844, 970.1279
562.9666, 962.4078
563.4487, 952.0369
563.9308, 938.1516
564.4129, 926.2300
564.8950, 917.1523
565.3771, 909.0573
565.8593, 900.3193
566.3414, 890.7097
566.8235, 881.2533
567.3056, 871.9045
567.7877, 862.7999
568.2698, 854.1862
568.7520, 845.9844
569.2341, 838.0681
569.7162, 830.3939
570.1983, 822.9125
570.6804, 815.2780
571.1625, 807.5764
571.6447, 800.1241
572.1268, 793.3365
572.6089, 786.7771
573.0910, 779.8389
573.5731, 772.2027
574.0552, 765.7430
574.5374, 762.2950
575.0195, 759.8574
575.5016, 756.5394
575.9837, 751.0583
576.4658, 745.8164
576.9479, 741.0414
577.4301, 736.5756
577.9122, 731.9758
578.3943, 726.5236
578.8764, 722.3164
579.3585, 720.4343
579.8406, 720.3763
580.3228, 718.5529
580.8049, 714.7819
581.2870, 710.4304
581.7691, 705.7383
582.2512, 701.1175
582.7333, 698.5059
583.2155, 698.1875
583.6975, 698.2035
584.1796, 697.0432
584.6617, 694.8831
585.1439, 691.9310
585.6260, 687.9236
586.1081, 683.7495
586.5902, 679.1632
587.0723, 674.8645
587.5544, 672.2657
588.0366, 673.2432
588.5187, 674.3938
589.0008, 674.6445
589.4829, 673.9918
589.9650, 673.3470
590.4471, 672.9324
590.9293, 672.1927
591.4114, 670.8319
591.8935, 668.7669
592.3756, 666.6351
592.8577, 664.5283
593.3398, 662.0768
593.8220, 658.7326
594.3041, 654.5970
594.7862, 650.2267
595.2683, 645.3958
595.7504, 641.2396
596.2325, 639.7999
596.7147, 640.2093
597.1968, 640.2215
597.6789, 638.8737
598.1610, 636.7568
598.6431, 634.0577
599.1252, 630.8868
599.6074, 627.6888
600.0895, 625.1013
600.5716, 622.0904
601.0537, 617.9258
601.5358, 612.2253
602.0179, 607.1197
602.5001, 602.2836
602.9822, 598.3832
603.4643, 596.4188
603.9464, 597.4998
604.4285, 595.7155
604.9106, 589.7943
605.3928, 582.5621
605.8749, 578.5010
606.3570, 577.3577
606.8391, 576.0297
607.3212, 573.5727
607.8033, 570.4373
608.2855, 566.8846
608.7676, 563.1345
609.2497, 559.8748
609.7318, 558.2776
610.2139, 556.7687
610.6960, 553.9291
611.1782, 549.7433
611.6603, 545.8077
612.1424, 542.6469
612.6245, 539.8970
613.1066, 537.3515
613.5887, 534.9846
614.0709, 532.8233
614.5530, 530.9570
615.0351, 529.2089
615.5172, 527.4586
615.9993, 525.8089
616.4814, 523.4417
616.9636, 519.7850
617.4457, 516.0458
617.9278, 515.0344
618.4099, 516.4655
618.8920, 517.3892
619.3741, 516.3563
619.8563, 514.2763
620.3384, 512.3502
620.8205, 510.5435
621.3026, 508.7037
621.7847, 505.8291
622.2668, 503.5325
622.7490, 503.5138
623.2311, 506.1498
623.7132, 508.1565
624.1953, 508.2747
624.6774, 507.7400
625.1595, 507.3543
625.6417, 506.6997
626.1238, 507.2183
626.6059, 509.6797
627.0880, 512.4849
627.5701, 512.9783
628.0522, 510.7573
628.5344, 510.3972
629.0165, 513.4897
629.4986, 518.0058
629.9807, 519.5162
630.4628, 518.6334
630.9449, 518.6293
631.4271, 522.2167
631.9092, 526.7920
632.3913, 529.1407
632.8734, 529.6599
633.3555, 530.8997
633.8376, 534.7077
634.3198, 539.1804
634.8019, 543.1990
635.2840, 546.5417
635.7661, 550.0590
636.2482, 553.8707
636.7303, 557.8914
637.2125, 562.1246
637.6946, 566.7727
638.1767, 571.2033
638.6588, 575.5903
639.1409, 579.4219
639.6230, 582.0465
640.1052, 583.4730
640.5873, 583.3879
641.0694, 581.4395
641.5515, 578.4239
642.0336, 575.0381
642.5157, 571.5448
642.9979, 568.6526
643.4800, 566.7017
643.9621, 565.5164
644.4442, 564.9174
644.9263, 564.9505
645.4084, 565.9468
645.8906, 568.2530
646.3727, 571.3429
646.8548, 575.4147
647.3369, 580.7683
647.8190, 584.3322
648.3011, 584.6586
648.7833, 585.3269
649.2654, 589.4843
649.7475, 597.5842
650.2296, 604.0961
650.7117, 608.5411
651.1938, 612.1277
651.6760, 615.6803
652.1581, 619.5035
652.6402, 624.6608
653.1223, 632.1366
653.6044, 639.5272
654.0865, 644.2451
654.5687, 647.4816
655.0508, 651.5548
655.5329, 657.1870
656.0150, 664.0160
656.4971, 672.6758
656.9792, 682.6788
657.4614, 691.4890
657.9435, 697.4669
658.4256, 704.3828
658.9077, 713.5488
659.3898, 724.8912
659.8719, 736.6998
660.3541, 748.9880
660.8362, 761.6105
661.3183, 774.1071
661.8004, 786.8143
662.2825, 801.6320
662.7646, 818.6628
663.2468, 837.7568
663.7289, 859.2500
664.2110, 882.5477
664.6931, 906.9366
665.1752, 932.4730
665.6573, 958.7233
666.1395, 984.0009
666.6216, 1010.688
667.1037, 1041.713
667.5858, 1080.586
668.0679, 1120.083
668.5500, 1158.408
669.0322, 1197.447
669.5143, 1240.562
669.9964, 1288.510
670.4785, 1337.710
670.9606, 1386.699
671.4427, 1436.665
671.9249, 1490.021
672.4070, 1546.792
672.8891, 1605.805
673.3712, 1666.047
673.8533, 1727.916
674.3354, 1790.356
674.8176, 1853.775
675.2997, 1920.101
675.7818, 1992.049
676.2639, 2065.075
676.7460, 2137.494
677.2281, 2208.661
677.7103, 2275.150
678.1924, 2336.156
678.6745, 2393.236
679.1566, 2449.484
679.6387, 2507.404
680.1208, 2553.423
680.6030, 2587.548
681.0851, 2608.995
681.5672, 2617.930
682.0493, 2614.161
682.5314, 2597.185
683.0135, 2566.976
683.4957, 2523.470
683.9778, 2464.112
684.4599, 2391.586
684.9420, 2313.447
685.4241, 2227.652
685.9063, 2140.299
686.3884, 2051.418
686.8705, 1962.135
687.3526, 1874.963
687.8347, 1787.554
688.3168, 1704.073
688.7990, 1626.406
689.2811, 1553.575
689.7632, 1486.122
690.2453, 1424.548
690.7274, 1366.353
691.2095, 1310.390
691.6917, 1257.381
692.1738, 1208.633
692.6559, 1164.686
693.1380, 1123.546
693.6201, 1083.525
694.1022, 1046.021
694.5844, 1011.972
695.0665, 981.7838
695.5486, 954.5616
696.0307, 930.6209
696.5128, 909.2097
696.9949, 889.6511
697.4771, 873.5312
697.9592, 855.6586
698.4413, 834.8842
698.9234, 814.0367
699.4055, 796.9213
699.8876, 783.6182
700.3698, 769.9906
700.8519, 755.1307
701.3340, 740.6696
701.8161, 729.2774
702.2982, 720.1785
702.7803, 711.4354
703.2625, 702.4462
703.7446, 693.4033
704.2267, 684.6748
704.7088, 676.0284
705.1909, 666.9957
705.6730, 655.2299
706.1552, 645.7700
706.6373, 640.9495
707.1194, 639.5050
707.6015, 635.2380
708.0836, 626.9637
708.5657, 619.5405
709.0479, 615.2963
709.5300, 613.4103
710.0121, 610.4913
710.4942, 606.5447
710.9763, 602.2195
711.4584, 597.6791
711.9406, 593.1026
712.4227, 588.5797
712.9048, 584.1180
713.3869, 580.1551
713.8690, 576.8542
714.3511, 574.1813
714.8333, 572.3309
715.3154, 571.9958
715.7975, 570.1613
716.2796, 565.4285
716.7617, 560.8979
717.2438, 559.4974
717.7260, 561.6996
718.2081, 561.9307
718.6902, 559.6124
719.1723, 556.3743
719.6544, 553.6462
720.1365, 551.5355
720.6187, 550.4865
721.1008, 550.9110
721.5829, 551.3910
722.0650, 550.4273
722.5471, 549.0042
723.0292, 548.4266
723.5114, 549.9665
723.9935, 551.2706
724.4756, 551.7938
724.9577, 551.9285
725.4398, 552.3148
725.9219, 552.9456
726.4041, 553.9171
726.8862, 555.5128
727.3683, 557.1740
727.8504, 557.2259
728.3325, 555.9016
728.8146, 554.7617
729.2968, 554.4475
729.7789, 554.7379
730.2610, 555.6971
730.7431, 557.1048
731.2252, 558.2315
731.7073, 558.8321
732.1895, 559.0198
732.6716, 558.5814
733.1537, 557.6019
733.6358, 557.2598
734.1179, 558.1534
734.6000, 558.6320
735.0822, 557.6296
735.5643, 555.4316
736.0464, 555.2178
736.5285, 557.0853
737.0106, 559.0609
737.4927, 559.9460
737.9749, 559.9340
738.4570, 559.0568
738.9391, 557.3652
739.4212, 555.8885
739.9033, 554.9330
740.3854, 554.6337
740.8676, 555.6283
741.3497, 558.9603
741.8318, 559.3503
742.3139, 554.4593
742.7960, 548.9265
743.2781, 545.8650
743.7603, 545.5973
744.2424, 545.6574
744.7245, 546.0880
745.2066, 546.4338
745.6887, 545.9287
746.1708, 544.9905
746.6530, 544.8941
747.1351, 546.0605
747.6172, 547.0040
748.0993, 546.1324
748.5814, 544.6614
749.0635, 543.9482
749.5457, 544.4371
750.0278, 545.4966
750.5099, 547.6041
750.9920, 549.8379
751.4741, 550.9679
751.9562, 550.5779
752.4384, 550.9802
752.9205, 552.9249
753.4026, 554.7899
753.8847, 553.2050
754.3668, 549.1006
754.8489, 546.2234
755.3311, 545.9987
755.8132, 546.8398
756.2953, 548.0970
756.7774, 549.3239
757.2595, 549.7118
757.7416, 547.8717
758.2238, 546.5225
758.7059, 546.7218
759.1880, 547.7211
759.6701, 547.9348
760.1522, 547.1396
760.6343, 546.3301
761.1165, 545.7917
761.5986, 545.3629
762.0807, 544.4350
762.5628, 543.1526
763.0449, 542.3587
763.5270, 543.0395
764.0092, 543.8525
764.4913, 543.1859
764.9734, 541.5562
765.4555, 540.5656
765.9376, 540.9691
766.4197, 541.9299
766.9019, 543.8958
767.3840, 546.3399
767.8661, 546.6064
768.3482, 544.0729
768.8303, 541.1671
769.3124, 538.8192
769.7946, 536.8600
770.2767, 534.1145
770.7588, 530.7932
771.2409, 528.8641
771.7230, 530.5412
772.2051, 533.4739
772.6873, 536.0478
773.1694, 538.0223
773.6515, 538.2161
774.1336, 534.4458
774.6157, 530.5322
775.0978, 528.1843
775.5800, 527.3499
776.0621, 526.3421
776.5442, 525.1501
777.0263, 523.8049
777.5084, 521.8899
777.9905, 519.7890
778.4727, 519.7170
778.9548, 521.5723
779.4369, 523.5876
779.9190, 524.8238
780.4011, 525.3842
780.8832, 525.0772
781.3654, 523.9208
781.8475, 523.2143
782.3296, 522.9049
782.8117, 523.6322
783.2938, 526.1109
783.7759, 530.6549
784.2581, 533.1307
784.7402, 532.9908
785.2223, 532.4703
785.7044, 533.1682
786.1865, 534.7822
786.6686, 536.2673
787.1508, 537.5960
787.6329, 538.4845
788.1150, 538.2931
788.5971, 537.8479
789.0792, 537.9600
789.5613, 538.7668
790.0435, 539.6255
790.5256, 540.0833
791.0077, 540.8228
791.4898, 542.4175
791.9719, 545.1252
792.4540, 546.5469
792.9362, 546.4065
793.4183, 545.9832
793.9004, 546.2955
794.3825, 547.1607
794.8646, 548.4704
795.3467, 550.2460
795.8289, 550.8810
796.3110, 548.1664
796.7931, 544.5157
797.2752, 541.9087
797.7573, 540.6995
798.2394, 540.0545
798.7216, 539.9332
799.2037, 540.2603
799.6858, 541.2939
800.1679, 543.3195
800.6500, 543.4971
801.1321, 541.5165
801.6143, 539.6721
802.0964, 540.7565
802.5785, 543.2541
803.0606, 544.1272
803.5427, 542.9453
804.0248, 541.4991
804.5070, 540.1205
804.9891, 539.3887
805.4712, 540.0624
805.9533, 543.1959
806.4354, 544.2961
806.9175, 541.8152
807.3997, 539.5249
807.8818, 540.8109
808.3639, 545.5485
808.8460, 548.4950
809.3281, 549.4454
809.8102, 548.9786
810.2924, 546.7469
810.7745, 543.8168
811.2566, 541.6732
811.7387, 540.5983
812.2208, 539.6481
812.7029, 538.0714
813.1851, 536.7788
813.6672, 536.5079
814.1493, 537.5593
814.6314, 538.4539
815.1135, 539.4583
815.5956, 539.6193
816.0778, 537.0974
816.5599, 532.8599
817.0420, 532.0615
817.5241, 535.0363
818.0062, 538.0657
818.4883, 537.3011
818.9705, 535.7584
819.4526, 536.7907
819.9347, 541.2736
820.4168, 544.5684
820.8989, 544.8168
821.3810, 544.4303
821.8632, 544.6146
822.3453, 545.4666
822.8274, 546.1841
823.3095, 546.9002
823.7916, 546.6698
824.2737, 543.8941
824.7559, 539.8919
825.2380, 537.5472
825.7201, 537.0057
826.2022, 536.3817
826.6843, 533.5895
827.1664, 531.0865
827.6486, 530.7792
828.1307, 533.2213
828.6128, 535.1449
829.0949, 536.4832
829.5770, 537.4003
830.0591, 537.8802
830.5413, 537.9649
831.0234, 538.2756
831.5055, 538.8026
831.9876, 539.1183
832.4697, 538.3420
832.9518, 537.5592
833.4340, 538.0544
833.9161, 539.8362
834.3982, 541.8680
834.8803, 545.1446
835.3624, 547.1872
835.8445, 546.4315
836.3267, 543.0646
836.8088, 541.6749
837.2909, 542.7373
837.7730, 543.6442
838.2551, 542.7542
838.7372, 540.7255
839.2194, 539.0129
839.7015, 537.6302
840.1836, 536.6507
840.6657, 536.0705
841.1478, 535.9436
841.6299, 536.5125
842.1121, 537.6826
842.5942, 538.6433
843.0763, 539.5170
843.5584, 539.8705
844.0405, 539.4122
844.5226, 538.3732
845.0048, 537.6671
845.4869, 537.2727
845.9690, 536.9311
846.4511, 537.0505
846.9332, 536.7106
847.4153, 534.5848
847.8975, 531.1595
848.3796, 527.8056
848.8617, 524.1163
849.3438, 521.6132
849.8259, 520.7739
850.3080, 521.3674
850.7902, 523.2926
851.2723, 526.9238
851.7544, 529.5475
852.2365, 530.3220
852.7186, 529.7967
853.2007, 528.0090
853.6829, 525.6926
854.1650, 524.8459
854.6471, 526.9713
855.1292, 529.7927
855.6113, 533.3936
856.0934, 536.6567
856.5756, 537.3993
857.0577, 533.6245
857.5398, 531.3921
858.0219, 531.5104
858.5040, 533.1459
858.9861, 535.6010
859.4683, 538.5687
859.9504, 540.0246
860.4325, 538.9316
860.9146, 538.0447
861.3967, 540.0664
861.8788, 543.6757
862.3610, 547.4044
862.8431, 552.1554
863.3252, 554.5143
863.8073, 552.3002
864.2894, 549.6725
864.7715, 551.5808
865.2537, 558.4187
865.7358, 561.2198
866.2179, 558.8264
866.7000, 555.9954
867.1821, 558.4403
867.6642, 563.1635
868.1464, 565.4923
868.6285, 564.3507
869.1106, 563.7249
869.5927, 565.3962
870.0748, 567.9312
870.5569, 570.3406
871.0391, 572.5199
871.5212, 575.1505
872.0033, 578.2657
872.4854, 581.5844
872.9675, 585.2054
873.4496, 588.7615
873.9318, 590.8040
874.4139, 591.4623
874.8960, 592.8033
875.3781, 597.4233
875.8602, 601.9139
876.3423, 603.8240
876.8245, 603.0321
877.3066, 602.9862
877.7887, 603.7396
878.2708, 605.2018
878.7529, 607.4940
879.2350, 610.4242
879.7172, 613.7479
880.1993, 617.2797
880.6814, 620.0067
881.1635, 621.0074
881.6456, 621.3337
882.1277, 620.9287
882.6099, 620.4227
883.0920, 621.7076
883.5741, 627.5300
884.0562, 631.7541
884.5383, 633.1611
885.0204, 632.6537
885.5026, 631.6758
885.9847, 630.3154
886.4668, 630.1730
886.9489, 632.0164
887.4310, 634.5172
887.9131, 636.3242
888.3953, 637.7673
888.8774, 639.3780
889.3595, 641.7623
889.8416, 643.6449
890.3237, 644.9208
890.8058, 645.6073
891.2880, 645.3576
891.7701, 643.9995
892.2522, 644.3019
892.7343, 646.7192
893.2164, 649.4103
893.6985, 650.1453
894.1807, 650.0493
894.6628, 650.9573
895.1449, 653.3417
895.6270, 655.2267
896.1091, 655.5304
896.5912, 655.4291
897.0734, 655.4303
897.5555, 655.4429
898.0376, 656.9755
898.5197, 660.2543
899.0018, 663.6697
899.4839, 665.8171
899.9661, 667.4296
900.4482, 669.8703
900.9303, 673.1013
901.4124, 676.5159
901.8945, 680.4807
902.3766, 683.9413
902.8588, 685.8795
903.3409, 686.7701
903.8230, 689.0028
904.3051, 692.9144
904.7872, 696.9815
905.2693, 701.1491
905.7515, 704.6669
906.2336, 704.9366
906.7157, 703.2356
907.1978, 703.2919
907.6799, 707.4139
908.1620, 712.6367
908.6442, 719.0811
909.1263, 725.3066
909.6084, 728.8427
910.0905, 728.2411
910.5726, 729.0624
911.0547, 732.3534
911.5369, 735.9451
912.0190, 736.2613
912.5011, 734.5987
912.9832, 734.8629
913.4653, 737.9847
913.9474, 741.2805
914.4296, 743.0209
914.9117, 744.2093
915.3938, 745.7760
915.8759, 748.0472
916.3580, 749.4288
916.8401, 749.6522
917.3223, 749.6176
917.8044, 749.7298
918.2865, 750.0886
918.7686, 751.7207
919.2507, 754.3652
919.7328, 755.6185
920.2150, 753.0738
920.6971, 749.4969
921.1792, 746.2719
921.6613, 743.5068
922.1434, 741.3522
922.6255, 740.2322
923.1077, 738.7225
923.5898, 736.4337
924.0719, 733.4808
924.5540, 729.5727
925.0361, 725.0570
925.5182, 721.5121
926.0004, 719.9998
926.4825, 718.7327
926.9646, 716.3806
927.4467, 713.5861
927.9288, 711.4745
928.4109, 711.4495
928.8931, 708.9563
929.3752, 702.7428
929.8573, 696.2139
930.3394, 693.5076
930.8215, 693.7404
931.3036, 693.7463
931.7858, 693.1604
932.2679, 692.3751
932.7500, 692.1797
933.2321, 691.5287
933.7142, 689.2399
934.1964, 684.9119
934.6785, 681.9534
935.1606, 680.7798
935.6427, 680.0532
936.1248, 679.2859
936.6069, 678.3765
937.0891, 677.0481
937.5712, 675.2956
938.0533, 673.1832
938.5354, 670.3677
939.0175, 667.5585
939.4996, 665.0181
939.9818, 662.8080
940.4639, 661.2168
940.9460, 660.7656
941.4281, 659.4348
941.9102, 656.5310
942.3923, 653.2531
942.8745, 651.6317
943.3566, 651.2365
943.8387, 650.8393
944.3208, 650.0645
944.8029, 649.5888
945.2850, 650.4616
945.7672, 651.3992
946.2493, 650.9882
946.7314, 648.6018
947.2135, 647.6352
947.6956, 648.5634
948.1777, 649.3205
948.6599, 647.2815
949.1420, 644.1340
949.6241, 644.8186
950.1062, 648.8846
950.5883, 651.8593
951.0704, 649.5836
951.5526, 647.3207
952.0347, 648.2852
952.5168, 651.5485
952.9989, 653.5982
953.4810, 654.2452
953.9631, 654.5886
954.4453, 655.0248
954.9274, 655.1662
955.4095, 653.3134
955.8916, 650.8305
956.3737, 650.7928
956.8558, 655.7115
957.3380, 660.2905
957.8201, 662.2662
958.3022, 663.4250
958.7843, 665.5222
959.2664, 668.8878
959.7485, 671.2719
960.2307, 672.4965
960.7128, 673.5363
961.1949, 675.3473
961.6770, 676.7173
962.1591, 679.0313
962.6412, 680.0694
963.1234, 681.5654
963.6055, 683.4011
964.0876, 686.4153
964.5697, 691.7073
965.0518, 698.2789
965.5339, 701.6154
966.0161, 701.7161
966.4982, 701.3408
966.9803, 701.4323
967.4624, 701.6945
967.9445, 701.3495
968.4266, 701.0639
968.9088, 701.9442
969.3909, 706.1273
969.8730, 708.8179
970.3551, 709.2009
970.8372, 708.7455
971.3193, 708.8795
971.8015, 709.5704
972.2836, 710.5037
972.7657, 711.6640
973.2478, 712.9264
973.7299, 714.9431
974.2120, 716.4772
974.6942, 716.0298
975.1763, 713.4990
975.6584, 712.1269
976.1405, 712.0003
976.6226, 713.1838
977.1047, 716.2471
977.5869, 720.1760
978.0690, 721.9907
978.5511, 722.1014
979.0332, 722.1083
979.5153, 722.5267
979.9974, 723.1727
980.4796, 724.0380
980.9617, 725.0322
981.4438, 726.0664
981.9259, 727.3064
982.4080, 728.1373
982.8901, 728.5601
983.3723, 728.5131
983.8544, 727.0707
984.3365, 725.4285
984.8186, 726.3751
985.3007, 730.0596
985.7828, 733.1122
986.2650, 733.1220
986.7471, 733.1741
987.2292, 734.4901
987.7113, 736.9725
988.1934, 740.4866
988.6755, 745.0994
989.1577, 748.8959
989.6398, 750.5726
990.1219, 751.9565
990.6040, 755.7908
991.0861, 760.7109
991.5682, 764.3915
992.0504, 764.5350
992.5325, 765.9265
993.0146, 769.0867
993.4967, 773.3293
993.9788, 778.2909
994.4609, 783.9047
994.9431, 789.8409
995.4252, 796.1004
995.9073, 801.5556
996.3894, 804.3517
996.8715, 806.9765
997.3536, 811.2133
997.8358, 817.1373
998.3179, 824.0375
998.8000, 832.4959
999.2821, 840.2770
999.7642, 846.4581
1000.246, 852.1594
1000.728, 859.7302
1001.211, 868.5385
1001.693, 876.6011
1002.175, 882.8663
1002.657, 889.4705
1003.139, 897.5779
1003.621, 906.2419
1004.103, 914.6569
1004.585, 922.9778
1005.068, 929.8424
1005.550, 935.1517
1006.032, 940.4144
1006.514, 947.5026
1006.996, 954.7817
1007.478, 960.2818
1007.960, 964.1149
1008.442, 967.4160
1008.924, 969.7104
1009.407, 972.7099
1009.889, 977.4210
1010.371, 982.4348
1010.853, 984.5551
1011.335, 984.1961
1011.817, 983.8597
1012.299, 984.1438
1012.781, 984.5615
1013.263, 984.9651
1013.746, 985.2282
1014.228, 985.1583
1014.710, 984.6586
1015.192, 984.5003
1015.674, 984.7663
1016.156, 985.1603
1016.638, 985.6622
1017.120, 986.0842
1017.603, 985.9128
1018.085, 985.2679
1018.567, 984.6086
1019.049, 983.4361
1019.531, 983.1127
1020.013, 984.7366
1020.495, 986.8898
1020.977, 987.3046
1021.459, 985.9091
1021.942, 985.3967
1022.424, 986.2498
1022.906, 986.7982
1023.388, 985.2739
1023.870, 982.8303
1024.352, 980.9464
1024.834, 979.9202
1025.316, 976.7118
1025.799, 969.5659
1026.281, 963.7607
1026.763, 962.0364
1027.245, 962.5519
1027.727, 960.3232
1028.209, 956.0352
1028.691, 952.0068
1029.173, 949.9500
1029.656, 947.0203
1030.138, 940.9954
1030.620, 934.0110
1031.102, 928.6185
1031.584, 925.4952
1032.066, 919.5393
1032.548, 910.3652
1033.030, 900.6714
1033.512, 892.6749
1033.995, 885.4897
1034.477, 878.2843
1034.959, 871.0558
1035.441, 863.9289
1035.923, 856.8602
1036.405, 850.0099
1036.887, 843.4691
1037.369, 837.0159
1037.851, 830.1568
1038.334, 822.9647
1038.816, 814.8803
1039.298, 805.3060
1039.780, 797.0289
1040.262, 793.1840
1040.744, 790.1452
1041.226, 784.9106
1041.708, 777.2546
1042.191, 769.8431
1042.673, 762.5421
1043.155, 755.8732
1043.637, 750.2856
1044.119, 745.2352
1044.601, 740.0192
1045.083, 734.6730
1045.565, 729.4793
1046.047, 724.1085
1046.530, 719.4383
1047.012, 715.5250
1047.494, 712.3768
1047.976, 710.4483
1048.458, 709.3510
1048.940, 707.2760
1049.422, 704.0934
1049.904, 700.6885
1050.386, 697.7401
1050.869, 694.5751
1051.351, 690.4083
1051.833, 685.6203
1052.315, 681.8036
1052.797, 679.0233
1053.279, 676.7379
1053.761, 674.9772
1054.243, 673.0465
1054.726, 669.8380
1055.208, 665.9891
1055.690, 662.3855
1056.172, 659.2659
1056.654, 656.1862
1057.136, 653.0414
1057.618, 649.9982
1058.100, 647.0836
1058.583, 644.3659
1059.065, 642.6889
1059.547, 641.6301
1060.029, 639.2052
1060.511, 632.6833
1060.993, 626.6378
1061.475, 623.2988
1061.957, 621.4313
1062.439, 619.3478
1062.922, 616.9537
1063.404, 615.5035
1063.886, 615.2503
1064.368, 614.5154
1064.850, 611.1578
1065.332, 607.0258
1065.814, 603.9938
1066.296, 602.1293
1066.778, 600.0928
1067.261, 597.6136
1067.743, 595.2317
1068.225, 593.0525
1068.707, 591.0831
1069.189, 589.1064
1069.671, 587.4180
1070.153, 587.0617
1070.635, 588.9240
1071.118, 589.7027
1071.600, 586.7867
1072.082, 583.6193
1072.564, 582.5177
1073.046, 579.9796
1073.528, 577.4143
1074.010, 576.8323
1074.492, 573.1710
1074.974, 572.3110
1075.457, 572.3561
1075.939, 572.3077
1076.421, 572.0842
1076.903, 571.4324
1077.385, 569.8521
1077.867, 569.5596
1078.349, 570.9483
1078.831, 572.3254
1079.313, 572.0313
1079.796, 570.7673
1080.278, 569.8578
1080.760, 569.1378
1081.242, 567.1315
1081.724, 561.1065
1082.206, 556.8342
1082.688, 555.9402
1083.170, 556.8781
1083.652, 556.9474
1084.135, 556.4132
1084.617, 556.4095
1085.099, 557.2721
1085.581, 557.7479
1086.063, 556.5671
1086.545, 555.2735
1087.027, 555.0342
1087.509, 554.0516
1087.992, 553.1105
1088.474, 553.1024
1088.956, 551.6255
1089.438, 551.5705
1089.920, 551.8056
1090.402, 551.0696
1090.884, 549.9874
1091.366, 549.5640
1091.849, 550.8719
1092.331, 549.7809
1092.813, 545.2916
1093.295, 541.7888
1093.777, 543.9962
1094.259, 548.6418
1094.741, 548.9252
1095.223, 546.1072
1095.705, 544.8360
1096.188, 549.1510
1096.670, 551.8672
1097.152, 551.1617
1097.634, 549.3078
1098.116, 549.4525
1098.598, 551.0739
1099.080, 551.6692
1099.562, 551.0206
1100.044, 550.1415
1100.527, 548.2379
1101.009, 547.7676
1101.491, 551.1647
1101.973, 556.8362
1102.455, 559.4879
1102.937, 559.1066
1103.419, 559.3417
1103.901, 561.2554
1104.384, 563.3566
1104.866, 563.4343
1105.348, 563.4501
1105.830, 565.6813
1106.312, 570.6628
1106.794, 574.9763
1107.276, 578.7206
1107.758, 581.2545
1108.240, 581.2648
1108.723, 581.2082
1109.205, 586.3143
1109.687, 594.0320
1110.169, 599.4115
1110.651, 599.5248
1111.133, 600.2195
1111.615, 602.7017
1112.097, 604.4940
1112.579, 602.7487
1113.062, 598.8496
1113.544, 598.3152
1114.026, 600.4091
1114.508, 601.4044
1114.990, 599.0695
1115.472, 595.8364
1115.954, 592.5261
1116.436, 588.7641
1116.919, 583.5667
1117.401, 577.1036
1117.883, 572.6820
1118.365, 570.5970
1118.847, 568.2518
1119.329, 561.9441
1119.811, 556.4802
1120.293, 556.5303
1120.776, 560.0733
1121.258, 559.7039
1121.740, 554.8864
1122.222, 551.7140
1122.704, 551.9229
1123.186, 551.9772
1123.668, 546.3203
1124.150, 539.7615
1124.632, 537.8449
1125.115, 541.7504
1125.597, 544.4388
1126.079, 545.6002
1126.561, 546.2955
1127.043, 546.9811
1127.525, 547.3405
1128.007, 546.6031
1128.489, 545.2652
1128.971, 544.1595
1129.454, 543.5279
1129.936, 543.0932
1130.418, 542.8420
1130.900, 542.7552
1131.382, 542.9909
1131.864, 543.3173
1132.346, 542.8288
1132.828, 541.7822
1133.311, 541.0291
1133.793, 541.4868
1134.275, 541.5028
1134.757, 540.3948
1135.239, 539.0214
1135.721, 537.8567
1136.203, 537.0235
1136.685, 538.2967
1137.167, 541.4260
1137.650, 543.3191
1138.132, 541.0101
1138.614, 538.2231
1139.096, 536.5191
1139.578, 535.6163
1140.060, 535.4473
1140.542, 536.0573
1141.024, 535.1583
1141.506, 532.4415
1141.989, 529.7601
1142.471, 528.8690
1142.953, 528.3320
1143.435, 526.7460
1143.917, 524.4873
1144.399, 523.4272
1144.881, 523.6353
1145.363, 524.9368
1145.846, 527.6410
1146.328, 529.8137
1146.810, 528.7792
1147.292, 526.3895
1147.774, 524.4513
1148.256, 523.2219
1148.738, 522.4031
1149.220, 522.2620
1149.703, 521.4902
1150.185, 519.5103
1150.667, 516.9218
1151.149, 514.1276
1151.631, 511.4943
1152.113, 509.6604
1152.595, 509.0279
1153.077, 508.2747
1153.559, 507.2188
1154.042, 506.2669
1154.524, 505.7449
1155.006, 505.3808
1155.488, 504.3712
1155.970, 503.0361
1156.452, 502.2153
1156.934, 502.7374
1157.416, 502.6846
1157.898, 501.2776
1158.381, 500.1752
1158.863, 501.7134
1159.345, 504.5486
1159.827, 502.0482
1160.309, 495.6226
1160.791, 491.0263
1161.273, 493.0006
1161.755, 494.3648
1162.238, 493.1680
1162.720, 490.8058
1163.202, 488.6491
1163.684, 486.6200
1164.166, 483.5548
1164.648, 479.6734
1165.130, 477.6046
1165.612, 481.8744
1166.094, 484.7368
1166.577, 481.6899
1167.059, 476.1198
1167.541, 473.2245
1168.023, 472.7854
1168.505, 472.2041
1168.987, 471.2076
1169.469, 470.6249
1169.951, 471.1075
1170.433, 472.1159
1170.916, 473.7145
1171.398, 475.5004
1171.880, 476.6598
1172.362, 477.1939
1172.844, 476.1495
1173.326, 472.9977
1173.808, 470.9906
1174.290, 474.0600
1174.773, 478.3467
1175.255, 480.6806
1175.737, 481.4470
1176.219, 483.2207
1176.701, 486.1215
1177.183, 487.5364
1177.665, 486.3166
1178.147, 485.0573
1178.630, 486.3157
1179.112, 488.7026
1179.594, 491.2187
1180.076, 493.7697
1180.558, 494.7874
1181.040, 494.0054
1181.522, 494.5760
1182.004, 498.3745
1182.486, 502.5643
1182.969, 503.3726
1183.451, 506.9236
1183.933, 505.3258
1184.415, 510.7926
1184.897, 513.7683
1185.379, 513.9786
1185.861, 513.5074
1186.343, 513.2343
1186.825, 513.0642
1187.308, 513.4474
1187.790, 513.6464
1188.272, 512.3162
1188.754, 508.4643
1189.236, 505.6548
1189.718, 504.0365
1190.200, 502.8393
1190.682, 502.1999
1191.165, 501.1966
1191.647, 498.0860
1192.129, 493.8449
1192.611, 490.4092
1193.093, 488.4828
1193.575, 486.8108
1194.057, 485.5753
1194.539, 483.7601
1195.021, 479.8051
1195.504, 475.2957
1195.986, 472.4152
1196.468, 470.7973
1196.950, 469.3246
1197.432, 467.4489
1197.914, 466.4807
1198.396, 466.6354
1198.878, 467.1918
1199.360, 467.7562
1199.843, 468.1132
1200.325, 467.6357
1200.807, 466.6132
1201.289, 466.3302
1201.771, 467.6415
1202.253, 468.2628
1202.735, 467.8913
1203.217, 466.9758
1203.700, 465.2062
1204.182, 463.6916
1204.664, 464.6597
1205.146, 467.7242
1205.628, 469.3836
1206.110, 467.8514
1206.592, 467.9591
1207.074, 470.9858
1207.557, 474.3185
1208.039, 473.9828
1208.521, 472.2405
1209.003, 472.5356
1209.485, 475.0344
1209.967, 477.2446
1210.449, 479.3090
1210.931, 479.7652
1211.413, 477.7540
1211.896, 475.5526
1212.378, 476.3705
1212.860, 478.8824
1213.342, 481.4229
1213.824, 483.8102
1214.306, 485.6256
1214.788, 487.1987
1215.270, 487.0827
1215.752, 484.0703
1216.235, 481.3330
1216.717, 484.8063
1217.199, 490.8094
1217.681, 493.8682
1218.163, 493.0388
1218.645, 492.2206
1219.127, 491.4467
1219.609, 491.6121
1220.092, 493.1221
1220.574, 495.4363
1221.056, 498.1489
1221.538, 500.9488
1222.020, 503.3017
1222.502, 504.9891
1222.984, 507.2557
1223.466, 510.5591
1223.948, 512.9484
1224.431, 513.5383
1224.913, 513.2108
1225.395, 512.9152
1225.877, 512.6891
1226.359, 512.7198
1226.841, 513.2295
1227.323, 512.4577
1227.805, 509.7493
1228.287, 508.6549
1228.770, 511.6709
1229.252, 515.1546
1229.734, 513.0804
1230.216, 508.8371
1230.698, 507.1994
1231.180, 509.5158
1231.662, 511.1623
1232.144, 512.1797
1232.627, 512.3059
1233.109, 511.0239
1233.591, 509.4782
1234.073, 509.6591
1234.555, 510.1125
1235.037, 508.4243
1235.519, 503.7295
1236.001, 501.4516
1236.484, 501.8229
1236.966, 502.7902
1237.448, 503.6523
1237.930, 504.1662
1238.412, 503.8473
1238.894, 503.1478
1239.376, 502.6500
1239.858, 502.3634
1240.340, 502.3952
1240.823, 502.7570
1241.305, 502.9286
1241.787, 502.6221
1242.269, 502.0044
1242.751, 500.3262
1243.233, 498.9680
1243.715, 499.8356
1244.197, 503.1931
1244.679, 505.8804
1245.162, 507.9275
1245.644, 509.7511
1246.126, 511.9334
1246.608, 513.5489
1247.090, 513.9110
1247.572, 513.3909
1248.054, 512.2577
1248.536, 510.4379
1249.019, 510.2791
1249.501, 511.6598
1249.983, 513.2138
1250.465, 514.3453
1250.947, 515.2542
1251.429, 516.0422
1251.911, 516.6302
1252.393, 516.8610
1252.875, 516.7537
1253.358, 516.9878
1253.840, 517.4627
1254.322, 517.5809
1254.804, 516.0548
1255.286, 515.3975
1255.768, 517.3764
1256.250, 519.6060
1256.732, 520.1732
1257.214, 519.2341
1257.697, 516.9677
1258.179, 513.8869
1258.661, 512.3114
1259.143, 515.7281
1259.625, 517.1274
1260.107, 514.4204
1260.589, 510.8151
1261.071, 508.8762
1261.554, 508.2321
1262.036, 508.0682
1262.518, 508.1691
1263.000, 507.8529
1263.482, 507.0257
1263.964, 505.3072
1264.446, 502.2603
1264.928, 499.3069
1265.411, 497.9416
1265.893, 497.3498
1266.375, 495.7701
1266.857, 493.6367
1267.339, 492.1831
1267.821, 492.6831
1268.303, 492.0289
1268.785, 489.9137
1269.267, 487.5800
1269.750, 486.0535
1270.232, 484.8778
1270.714, 483.4541
1271.196, 481.8933
1271.678, 480.5168
1272.160, 479.4845
1272.642, 477.8898
1273.124, 475.5410
1273.606, 474.1086
1274.089, 475.1558
1274.571, 477.2885
1275.053, 480.9522
1275.535, 484.0572
1276.017, 482.4715
1276.499, 474.7634
1276.981, 472.5808
1277.463, 476.0788
1277.946, 479.9821
1278.428, 481.2755
1278.910, 481.4153
1279.392, 481.0462
1279.874, 480.1244
1280.356, 478.3108
1280.838, 475.6788
1281.320, 474.0989
1281.802, 473.5841
1282.285, 473.8673
1282.767, 475.3990
1283.249, 476.9375
1283.731, 477.9621
1284.213, 478.8851
1284.695, 480.1433
1285.177, 481.6068
1285.659, 482.7502
1286.141, 483.5523
1286.624, 483.9308
1287.106, 482.9116
1287.588, 482.9386
1288.070, 484.4747
1288.552, 486.6342
1289.034, 489.2936
1289.516, 491.7550
1289.998, 491.7918
1290.481, 493.2677
1290.963, 493.8228
1291.445, 493.0049
1291.927, 493.7047
1292.409, 491.3746
1292.891, 489.3583
1293.373, 491.0490
1293.855, 493.6070
1294.338, 493.0394
1294.820, 490.8006
1295.302, 489.6186
1295.784, 489.6557
1296.266, 490.9835
1296.748, 493.6934
1297.230, 496.0477
1297.712, 497.2128
1298.194, 497.3356
1298.677, 496.0148
1299.159, 493.9689
1299.641, 491.9987
1300.123, 490.0753
1300.605, 488.8455
1301.087, 488.2803
1301.569, 488.1885
1302.051, 489.0014
1302.533, 489.3205
1303.016, 488.6383
##END=



