##NAMES=Opal
##RRUFFID=R070627
##IDEAL CHEMISTRY=SiO_2_&#183;<i>n</i>H_2_O
##LOCALITY=Madagascar
##OWNER=RRUFF
##SOURCE=www.multicolour.com
##DESCRIPTION=Polished iridescent fragment, Opal-CT. There is probably some polymer filler included, based on X-ray diffraction pattern
##STATUS=The identification of this mineral is not yet confirmed.
##URL=rruff.info/R070627
102.1133, 5796.442
102.5954, 5955.044
103.0775, 6083.836
103.5596, 6151.755
104.0418, 6180.487
104.5239, 6246.572
105.0060, 6397.677
105.4881, 6591.282
105.9702, 6754.767
106.4523, 6871.419
106.9345, 6977.697
107.4166, 7114.624
107.8987, 7288.059
108.3808, 7465.868
108.8629, 7628.869
109.3450, 7787.558
109.8272, 7955.432
110.3093, 8147.664
110.7914, 8354.413
111.2735, 8532.289
111.7556, 8676.673
112.2377, 8789.828
112.7199, 8892.005
113.2020, 8969.104
113.6841, 8989.002
114.1662, 8914.287
114.6483, 8723.266
115.1304, 8524.706
115.6126, 8317.485
116.0947, 8103.170
116.5768, 7874.148
117.0589, 7631.788
117.5410, 7394.291
118.0231, 7190.487
118.5053, 7045.098
118.9874, 6902.360
119.4695, 6748.829
119.9516, 6602.690
120.4337, 6488.895
120.9158, 6420.336
121.3980, 6382.362
121.8801, 6325.011
122.3622, 6224.707
122.8443, 6137.706
123.3264, 6093.923
123.8085, 6082.571
124.2907, 6064.283
124.7728, 6011.746
125.2549, 5933.473
125.7370, 5870.104
126.2191, 5826.483
126.7012, 5795.231
127.1834, 5769.158
127.6655, 5747.173
128.1476, 5734.808
128.6297, 5751.516
129.1118, 5781.342
129.5939, 5792.930
130.0761, 5760.890
130.5582, 5699.265
131.0403, 5653.707
131.5224, 5630.668
132.0045, 5619.352
132.4866, 5613.929
132.9688, 5613.653
133.4509, 5616.715
133.9330, 5627.377
134.4151, 5649.271
134.8972, 5650.283
135.3793, 5601.523
135.8615, 5550.997
136.3436, 5520.062
136.8257, 5512.335
137.3078, 5518.458
137.7899, 5526.402
138.2720, 5541.887
138.7542, 5547.411
139.2363, 5534.724
139.7184, 5517.469
140.2005, 5508.183
140.6826, 5511.833
141.1647, 5522.594
141.6469, 5523.304
142.1290, 5496.371
142.6111, 5478.549
143.0932, 5479.070
143.5753, 5490.369
144.0574, 5499.758
144.5396, 5499.122
145.0217, 5490.665
145.5038, 5494.244
145.9859, 5525.450
146.4680, 5551.155
146.9502, 5551.264
147.4323, 5529.838
147.9144, 5511.167
148.3965, 5517.875
148.8786, 5547.669
149.3607, 5555.309
149.8429, 5516.129
150.3250, 5467.551
150.8071, 5450.085
151.2892, 5470.868
151.7713, 5497.116
152.2534, 5492.677
152.7356, 5466.284
153.2177, 5445.889
153.6998, 5446.383
154.1819, 5459.370
154.6640, 5463.353
155.1461, 5448.986
155.6283, 5436.043
156.1104, 5444.157
156.5925, 5470.185
157.0746, 5493.579
157.5567, 5497.013
158.0388, 5481.077
158.5210, 5469.926
159.0031, 5469.938
159.4852, 5474.060
159.9673, 5479.738
160.4494, 5486.326
160.9315, 5491.708
161.4137, 5491.474
161.8958, 5481.475
162.3779, 5479.745
162.8600, 5499.463
163.3421, 5521.024
163.8242, 5530.512
164.3064, 5523.507
164.7885, 5506.788
165.2706, 5493.723
165.7527, 5485.438
166.2348, 5479.843
166.7169, 5480.573
167.1991, 5482.186
167.6812, 5476.926
168.1633, 5460.530
168.6454, 5438.187
169.1275, 5432.069
169.6096, 5457.947
170.0918, 5484.370
170.5739, 5507.017
171.0560, 5527.380
171.5381, 5550.377
172.0202, 5580.762
172.5023, 5617.151
172.9845, 5630.375
173.4666, 5593.292
173.9487, 5564.932
174.4308, 5577.352
174.9129, 5621.733
175.3951, 5661.563
175.8772, 5666.350
176.3593, 5633.830
176.8414, 5618.661
177.3235, 5626.704
177.8056, 5645.964
178.2878, 5671.270
178.7699, 5701.625
179.2520, 5732.631
179.7341, 5762.063
180.2162, 5789.612
180.6983, 5808.562
181.1805, 5813.205
181.6626, 5810.846
182.1447, 5808.699
182.6268, 5807.068
183.1089, 5808.608
183.5910, 5814.888
184.0732, 5825.442
184.5553, 5845.235
185.0374, 5882.228
185.5195, 5929.579
186.0016, 5972.663
186.4837, 6011.105
186.9659, 6040.389
187.4480, 6054.206
187.9301, 6054.058
188.4122, 6054.711
188.8943, 6062.200
189.3764, 6076.911
189.8586, 6103.583
190.3407, 6153.649
190.8228, 6206.110
191.3049, 6242.857
191.7870, 6263.457
192.2691, 6283.928
192.7513, 6324.096
193.2334, 6387.335
193.7155, 6436.005
194.1976, 6447.872
194.6797, 6452.015
195.1618, 6460.539
195.6440, 6476.259
196.1261, 6501.530
196.6082, 6542.135
197.0903, 6604.667
197.5724, 6663.166
198.0546, 6713.052
198.5367, 6758.185
199.0188, 6800.283
199.5009, 6840.205
199.9830, 6878.200
200.4651, 6915.164
200.9473, 6950.843
201.4294, 6985.866
201.9115, 7017.879
202.3936, 7050.597
202.8757, 7086.753
203.3578, 7127.408
203.8400, 7172.879
204.3221, 7225.358
204.8042, 7299.779
205.2863, 7360.607
205.7684, 7386.636
206.2505, 7403.499
206.7327, 7443.095
207.2148, 7522.262
207.6969, 7629.421
208.1790, 7717.850
208.6611, 7761.776
209.1432, 7813.909
209.6254, 7885.813
210.1075, 7969.220
210.5896, 8051.080
211.0717, 8123.853
211.5538, 8189.891
212.0359, 8265.869
212.5181, 8359.229
213.0002, 8453.561
213.4823, 8543.929
213.9644, 8632.350
214.4465, 8720.688
214.9286, 8808.644
215.4108, 8897.884
215.8929, 9014.188
216.3750, 9182.842
216.8571, 9346.640
217.3392, 9477.421
217.8214, 9583.007
218.3035, 9691.783
218.7856, 9824.287
219.2677, 9978.852
219.7498, 10127.35
220.2319, 10263.59
220.7141, 10399.76
221.1962, 10546.58
221.6783, 10701.74
222.1604, 10851.58
222.6425, 10983.55
223.1246, 11099.51
223.6068, 11227.77
224.0889, 11392.52
224.5710, 11551.23
225.0531, 11671.11
225.5352, 11751.73
226.0173, 11817.56
226.4995, 11883.33
226.9816, 11948.68
227.4637, 12009.26
227.9458, 12082.83
228.4279, 12140.55
228.9100, 12150.62
229.3922, 12110.50
229.8743, 12053.27
230.3564, 12008.57
230.8385, 11967.41
231.3206, 11896.22
231.8027, 11782.82
232.2849, 11639.71
232.7670, 11474.47
233.2491, 11283.77
233.7312, 11093.20
234.2133, 10934.56
234.6954, 10792.98
235.1776, 10629.88
235.6597, 10426.11
236.1418, 10198.73
236.6239, 9969.456
237.1060, 9735.040
237.5881, 9510.737
238.0703, 9303.304
238.5524, 9112.802
239.0345, 8947.380
239.5166, 8829.557
239.9987, 8733.465
240.4808, 8605.303
240.9630, 8430.754
241.4451, 8259.809
241.9272, 8121.191
242.4093, 8008.377
242.8914, 7912.439
243.3735, 7841.850
243.8557, 7783.784
244.3378, 7705.612
244.8199, 7598.264
245.3020, 7490.361
245.7841, 7400.904
246.2662, 7322.571
246.7484, 7242.583
247.2305, 7148.362
247.7126, 7048.668
248.1947, 6969.731
248.6768, 6920.348
249.1589, 6876.608
249.6411, 6825.734
250.1232, 6771.087
250.6053, 6718.367
251.0874, 6672.226
251.5695, 6630.164
252.0517, 6583.292
252.5338, 6525.762
253.0159, 6473.698
253.4980, 6434.461
253.9801, 6404.852
254.4622, 6380.390
254.9444, 6362.484
255.4265, 6347.465
255.9086, 6320.376
256.3907, 6271.636
256.8728, 6226.582
257.3549, 6194.037
257.8370, 6171.682
258.3192, 6156.287
258.8013, 6149.108
259.2834, 6146.749
259.7655, 6135.794
260.2476, 6110.425
260.7297, 6085.151
261.2119, 6064.237
261.6940, 6047.227
262.1761, 6034.155
262.6582, 6027.134
263.1403, 6023.107
263.6224, 6009.817
264.1046, 5978.370
264.5867, 5951.635
265.0688, 5942.008
265.5509, 5940.110
266.0330, 5931.892
266.5151, 5907.945
266.9973, 5873.866
267.4794, 5848.340
267.9615, 5830.837
268.4436, 5824.307
268.9258, 5838.897
269.4079, 5860.743
269.8900, 5870.559
270.3721, 5856.475
270.8542, 5827.074
271.3363, 5810.200
271.8185, 5817.011
272.3006, 5817.754
272.7827, 5803.672
273.2648, 5780.416
273.7469, 5753.114
274.2290, 5723.047
274.7112, 5693.477
275.1933, 5674.340
275.6754, 5672.610
276.1575, 5669.215
276.6396, 5650.410
277.1217, 5631.273
277.6039, 5633.183
278.0860, 5668.690
278.5681, 5715.647
279.0502, 5720.016
279.5323, 5654.164
280.0144, 5598.184
280.4966, 5569.074
280.9787, 5555.970
281.4608, 5551.772
281.9429, 5554.532
282.4250, 5558.540
282.9071, 5549.436
283.3893, 5513.838
283.8714, 5496.174
284.3535, 5516.762
284.8356, 5549.311
285.3177, 5574.424
285.7998, 5585.831
286.2820, 5585.911
286.7641, 5578.078
287.2462, 5561.508
287.7283, 5538.563
288.2104, 5498.020
288.6925, 5458.974
289.1747, 5438.377
289.6568, 5439.885
290.1389, 5447.971
290.6210, 5439.466
291.1031, 5407.934
291.5852, 5381.168
292.0674, 5367.729
292.5495, 5356.283
293.0316, 5339.672
293.5137, 5316.827
293.9958, 5292.314
294.4779, 5270.640
294.9601, 5251.460
295.4422, 5236.899
295.9243, 5226.932
296.4064, 5222.110
296.8885, 5226.822
297.3706, 5239.524
297.8528, 5250.532
298.3349, 5249.376
298.8170, 5234.737
299.2991, 5219.434
299.7812, 5207.939
300.2633, 5192.233
300.7455, 5164.068
301.2276, 5126.448
301.7097, 5092.250
302.1918, 5075.368
302.6739, 5076.145
303.1560, 5068.696
303.6382, 5038.668
304.1203, 5015.940
304.6024, 5028.088
305.0845, 5060.423
305.5666, 5072.136
306.0487, 5023.292
306.5309, 4923.671
307.0130, 4851.532
307.4951, 4816.072
307.9772, 4798.605
308.4593, 4799.432
308.9414, 4809.469
309.4236, 4811.459
309.9057, 4792.605
310.3878, 4759.463
310.8699, 4732.973
311.3520, 4712.572
311.8341, 4701.042
312.3163, 4707.308
312.7984, 4720.276
313.2805, 4724.506
313.7626, 4713.096
314.2447, 4689.718
314.7268, 4657.337
315.2090, 4608.297
315.6911, 4572.167
316.1732, 4573.820
316.6553, 4588.875
317.1374, 4592.499
317.6195, 4575.935
318.1017, 4548.259
318.5838, 4516.554
319.0659, 4477.688
319.5480, 4453.955
320.0301, 4474.064
320.5122, 4502.057
320.9944, 4502.704
321.4765, 4465.759
321.9586, 4422.108
322.4407, 4402.273
322.9228, 4406.294
323.4049, 4413.044
323.8871, 4418.598
324.3692, 4423.508
324.8513, 4427.858
325.3334, 4431.570
325.8155, 4436.458
326.2976, 4450.757
326.7798, 4470.176
327.2619, 4467.027
327.7440, 4420.369
328.2261, 4371.526
328.7082, 4362.661
329.1903, 4390.915
329.6725, 4421.547
330.1546, 4439.974
330.6367, 4448.621
331.1188, 4451.387
331.6009, 4445.833
332.0830, 4442.070
332.5652, 4448.382
333.0473, 4463.529
333.5294, 4487.234
334.0115, 4536.712
334.4936, 4587.211
334.9757, 4599.363
335.4579, 4567.316
335.9400, 4528.365
336.4221, 4506.871
336.9042, 4501.376
337.3863, 4505.180
337.8684, 4526.349
338.3506, 4550.200
338.8327, 4563.939
339.3148, 4568.086
339.7969, 4570.840
340.2791, 4578.301
340.7612, 4587.207
341.2433, 4586.759
341.7254, 4565.958
342.2075, 4548.583
342.6896, 4547.439
343.1718, 4559.269
343.6539, 4575.982
344.1360, 4595.788
344.6181, 4615.981
345.1002, 4628.721
345.5823, 4632.395
346.0645, 4634.178
346.5466, 4638.110
347.0287, 4640.738
347.5108, 4633.489
347.9929, 4612.826
348.4750, 4591.141
348.9572, 4589.663
349.4393, 4619.447
349.9214, 4643.080
350.4035, 4655.839
350.8856, 4663.247
351.3677, 4668.624
351.8499, 4673.066
352.3320, 4678.473
352.8141, 4686.179
353.2962, 4695.014
353.7783, 4713.841
354.2604, 4759.571
354.7426, 4799.369
355.2247, 4806.059
355.7068, 4787.559
356.1889, 4776.767
356.6710, 4802.347
357.1531, 4863.502
357.6353, 4896.399
358.1174, 4871.127
358.5995, 4851.600
359.0816, 4855.981
359.5637, 4877.510
360.0458, 4904.705
360.5280, 4932.149
361.0101, 4958.059
361.4922, 4976.567
361.9743, 4985.445
362.4564, 4988.829
362.9385, 4981.311
363.4207, 4971.799
363.9028, 4967.757
364.3849, 4971.923
364.8670, 4984.302
365.3491, 5007.159
365.8312, 5047.907
366.3134, 5079.854
366.7955, 5094.075
367.2776, 5104.920
367.7597, 5122.462
368.2418, 5146.856
368.7239, 5169.311
369.2061, 5177.773
369.6882, 5170.575
370.1703, 5173.506
370.6524, 5197.347
371.1345, 5220.788
371.6166, 5232.523
372.0988, 5235.588
372.5809, 5239.296
373.0630, 5248.859
373.5451, 5263.570
374.0272, 5283.559
374.5093, 5316.347
374.9915, 5337.509
375.4736, 5322.638
375.9557, 5292.786
376.4378, 5278.327
376.9199, 5294.509
377.4020, 5322.023
377.8842, 5337.542
378.3663, 5340.683
378.8484, 5337.445
379.3305, 5323.418
379.8126, 5308.460
380.2947, 5305.255
380.7769, 5316.065
381.2590, 5333.201
381.7411, 5353.589
382.2232, 5376.654
382.7053, 5402.138
383.1874, 5433.608
383.6696, 5460.420
384.1517, 5460.297
384.6338, 5432.092
385.1159, 5422.819
385.5980, 5463.405
386.0801, 5521.226
386.5623, 5553.994
387.0444, 5556.040
387.5265, 5552.923
388.0086, 5566.196
388.4907, 5597.146
388.9728, 5627.865
389.4550, 5662.449
389.9371, 5693.302
390.4192, 5710.389
390.9013, 5718.891
391.3834, 5735.139
391.8655, 5768.891
392.3477, 5817.545
392.8298, 5868.259
393.3119, 5925.673
393.7940, 5979.422
394.2761, 6020.161
394.7582, 6059.466
395.2404, 6113.801
395.7225, 6188.788
396.2046, 6271.793
396.6867, 6340.340
397.1688, 6377.995
397.6509, 6433.869
398.1331, 6511.094
398.6152, 6601.180
399.0973, 6705.583
399.5794, 6819.748
400.0615, 6930.430
400.5436, 7022.181
401.0258, 7093.117
401.5079, 7178.806
401.9900, 7291.261
402.4721, 7406.722
402.9542, 7515.583
403.4363, 7622.746
403.9185, 7740.491
404.4006, 7878.477
404.8827, 8026.110
405.3648, 8152.565
405.8469, 8245.120
406.3290, 8349.868
406.8112, 8482.394
407.2933, 8632.587
407.7754, 8797.333
408.2575, 8979.679
408.7396, 9156.425
409.2217, 9298.880
409.7039, 9409.594
410.1860, 9533.636
410.6681, 9685.679
411.1502, 9847.833
411.6324, 10007.95
412.1145, 10165.29
412.5966, 10307.23
413.0787, 10425.00
413.5608, 10525.40
414.0429, 10619.54
414.5251, 10709.04
415.0072, 10786.10
415.4893, 10846.35
415.9714, 10887.71
416.4535, 10909.15
416.9356, 10911.93
417.4178, 10893.11
417.8999, 10862.75
418.3820, 10811.18
418.8641, 10700.90
419.3462, 10505.52
419.8283, 10259.70
420.3105, 10057.99
420.7926, 9945.321
421.2747, 9800.173
421.7568, 9578.021
422.2389, 9333.653
422.7210, 9133.229
423.2032, 8986.704
423.6853, 8843.319
424.1674, 8636.017
424.6495, 8339.686
425.1316, 8095.583
425.6137, 7938.703
426.0959, 7792.332
426.5780, 7622.376
427.0601, 7436.122
427.5422, 7256.545
428.0243, 7098.590
428.5064, 6959.029
428.9886, 6821.474
429.4707, 6684.306
429.9528, 6550.768
430.4349, 6419.573
430.9170, 6291.905
431.3991, 6168.502
431.8813, 6049.127
432.3634, 5937.021
432.8455, 5838.073
433.3276, 5752.350
433.8097, 5671.979
434.2918, 5608.255
434.7740, 5535.458
435.2561, 5422.494
435.7382, 5278.506
436.2203, 5156.906
436.7024, 5103.518
437.1845, 5084.688
437.6667, 5036.329
438.1488, 4952.750
438.6309, 4862.534
439.1130, 4783.051
439.5951, 4710.976
440.0772, 4635.142
440.5594, 4546.966
441.0415, 4464.754
441.5236, 4401.484
442.0057, 4351.725
442.4878, 4302.456
442.9699, 4248.375
443.4521, 4192.740
443.9342, 4141.063
444.4163, 4094.474
444.8984, 4048.807
445.3805, 4006.114
445.8626, 3962.278
446.3448, 3910.951
446.8269, 3853.542
447.3090, 3799.385
447.7911, 3757.050
448.2732, 3726.406
448.7553, 3695.395
449.2375, 3665.542
449.7196, 3633.542
450.2017, 3595.176
450.6838, 3555.243
451.1659, 3522.166
451.6480, 3499.813
452.1302, 3480.246
452.6123, 3446.469
453.0944, 3392.148
453.5765, 3344.934
454.0586, 3308.565
454.5407, 3281.192
455.0229, 3265.867
455.5050, 3260.897
455.9871, 3255.700
456.4692, 3241.920
456.9513, 3221.875
457.4334, 3205.282
457.9156, 3195.973
458.3977, 3179.966
458.8798, 3136.786
459.3619, 3082.037
459.8440, 3046.565
460.3261, 3047.331
460.8083, 3053.826
461.2904, 3045.293
461.7725, 3023.814
462.2546, 2994.872
462.7367, 2957.744
463.2188, 2920.407
463.7010, 2898.516
464.1831, 2897.667
464.6652, 2891.672
465.1473, 2874.489
465.6294, 2853.116
466.1115, 2832.228
466.5937, 2812.858
467.0758, 2795.592
467.5579, 2781.600
468.0400, 2770.591
468.5221, 2753.991
469.0042, 2722.149
469.4864, 2695.868
469.9685, 2679.601
470.4506, 2670.890
470.9327, 2670.316
471.4148, 2677.690
471.8969, 2682.376
472.3791, 2663.754
472.8612, 2614.157
473.3433, 2574.946
473.8254, 2552.092
474.3075, 2539.060
474.7896, 2538.967
475.2718, 2547.468
475.7539, 2549.848
476.2360, 2531.183
476.7181, 2502.378
477.2002, 2489.623
477.6823, 2495.799
478.1645, 2501.405
478.6466, 2497.654
479.1287, 2486.430
479.6108, 2471.208
480.0929, 2448.931
480.5751, 2429.629
481.0572, 2418.450
481.5393, 2413.796
482.0214, 2415.881
482.5035, 2425.569
482.9857, 2431.086
483.4678, 2416.766
483.9499, 2376.889
484.4320, 2350.211
484.9141, 2347.128
485.3962, 2346.297
485.8784, 2337.672
486.3605, 2322.540
486.8426, 2305.258
487.3247, 2288.061
487.8068, 2271.159
488.2889, 2255.045
488.7711, 2239.152
489.2532, 2225.353
489.7353, 2210.561
490.2174, 2199.878
490.6995, 2201.532
491.1816, 2213.725
491.6638, 2222.031
492.1459, 2208.647
492.6280, 2177.957
493.1101, 2162.556
493.5922, 2169.092
494.0743, 2177.047
494.5565, 2177.674
495.0386, 2171.999
495.5207, 2159.718
496.0028, 2137.056
496.4849, 2114.704
496.9670, 2102.382
497.4492, 2097.607
497.9313, 2091.872
498.4134, 2082.707
498.8955, 2071.939
499.3776, 2061.252
499.8597, 2050.180
500.3419, 2042.570
500.8240, 2045.213
501.3061, 2045.892
501.7882, 2032.692
502.2703, 2009.665
502.7524, 1990.886
503.2346, 1985.153
503.7167, 1988.951
504.1988, 1989.415
504.6809, 1982.567
505.1630, 1978.560
505.6451, 1982.073
506.1273, 1985.786
506.6094, 1985.189
507.0915, 1979.096
507.5736, 1967.151
508.0557, 1943.167
508.5378, 1909.954
509.0200, 1896.556
509.5021, 1911.614
509.9842, 1930.032
510.4663, 1943.139
510.9484, 1950.448
511.4305, 1949.401
511.9127, 1935.811
512.3948, 1921.391
512.8769, 1916.308
513.3590, 1918.087
513.8411, 1918.446
514.3232, 1915.016
514.8054, 1910.550
515.2875, 1909.161
515.7696, 1912.007
516.2517, 1908.950
516.7338, 1895.589
517.2159, 1880.010
517.6981, 1862.837
518.1802, 1847.279
518.6623, 1841.505
519.1444, 1850.317
519.6265, 1867.554
520.1086, 1876.855
520.5908, 1875.932
521.0729, 1870.984
521.5550, 1857.752
522.0371, 1844.902
522.5192, 1838.339
523.0013, 1837.890
523.4835, 1839.428
523.9656, 1841.165
524.4477, 1842.320
524.9298, 1839.882
525.4119, 1833.243
525.8940, 1825.095
526.3762, 1816.149
526.8583, 1806.538
527.3404, 1796.055
527.8225, 1783.689
528.3046, 1773.698
528.7867, 1770.441
529.2689, 1770.423
529.7510, 1766.340
530.2331, 1756.916
530.7152, 1749.676
531.1973, 1753.282
531.6794, 1767.999
532.1616, 1769.871
532.6437, 1741.629
533.1258, 1722.402
533.6079, 1731.888
534.0900, 1754.596
534.5721, 1770.300
535.0543, 1771.806
535.5364, 1763.703
536.0185, 1749.083
536.5006, 1723.942
536.9827, 1713.812
537.4648, 1737.109
537.9470, 1756.228
538.4291, 1753.015
538.9112, 1733.350
539.3933, 1709.437
539.8754, 1680.272
540.3575, 1657.872
540.8397, 1665.619
541.3218, 1699.842
541.8039, 1718.774
542.2860, 1705.600
542.7681, 1679.028
543.2502, 1663.514
543.7324, 1658.990
544.2145, 1659.302
544.6966, 1666.304
545.1787, 1675.598
545.6608, 1689.321
546.1429, 1703.118
546.6251, 1702.914
547.1072, 1679.313
547.5893, 1642.196
548.0714, 1619.592
548.5535, 1616.593
549.0356, 1620.298
549.5178, 1638.752
549.9999, 1655.624
550.4820, 1659.175
550.9641, 1650.340
551.4462, 1638.228
551.9283, 1627.229
552.4105, 1618.539
552.8926, 1616.389
553.3747, 1621.823
553.8568, 1629.133
554.3389, 1641.687
554.8210, 1650.780
555.3032, 1639.867
555.7853, 1601.014
556.2674, 1576.236
556.7495, 1597.318
557.2316, 1633.449
557.7137, 1643.339
558.1959, 1625.064
558.6780, 1605.139
559.1601, 1603.561
559.6422, 1617.217
560.1243, 1624.306
560.6064, 1619.005
561.0886, 1614.079
561.5707, 1612.043
562.0528, 1609.985
562.5349, 1605.044
563.0170, 1596.902
563.4991, 1587.471
563.9813, 1578.303
564.4634, 1569.370
564.9455, 1559.487
565.4276, 1546.417
565.9097, 1537.758
566.3918, 1541.908
566.8740, 1550.790
567.3561, 1553.867
567.8382, 1548.597
568.3203, 1541.471
568.8024, 1531.669
569.2845, 1523.715
569.7667, 1528.254
570.2488, 1546.544
570.7309, 1564.991
571.2130, 1572.012
571.6951, 1568.156
572.1772, 1565.000
572.6594, 1563.436
573.1415, 1561.424
573.6236, 1559.088
574.1057, 1555.839
574.5878, 1550.316
575.0699, 1542.582
575.5521, 1535.179
576.0342, 1530.880
576.5163, 1529.563
576.9984, 1529.125
577.4805, 1530.357
577.9626, 1530.913
578.4448, 1529.928
578.9269, 1527.475
579.4090, 1522.764
579.8911, 1514.049
580.3732, 1507.757
580.8553, 1510.366
581.3375, 1517.345
581.8196, 1521.028
582.3017, 1520.025
582.7838, 1514.158
583.2659, 1501.363
583.7480, 1482.375
584.2302, 1474.645
584.7123, 1491.290
585.1944, 1502.299
585.6765, 1496.344
586.1587, 1485.272
586.6408, 1483.710
587.1229, 1493.710
587.6050, 1502.816
588.0872, 1494.306
588.5693, 1470.706
589.0514, 1462.266
589.5335, 1476.619
590.0156, 1488.326
590.4977, 1479.688
590.9799, 1462.641
591.4620, 1454.378
591.9441, 1459.430
592.4262, 1464.710
592.9083, 1462.386
593.3904, 1456.643
593.8726, 1453.248
594.3547, 1453.102
594.8368, 1455.521
595.3189, 1460.603
595.8010, 1467.715
596.2831, 1471.414
596.7653, 1468.101
597.2474, 1465.791
597.7295, 1465.784
598.2116, 1466.713
598.6937, 1468.767
599.1758, 1471.131
599.6580, 1470.279
600.1401, 1461.229
600.6222, 1446.578
601.1043, 1435.959
601.5864, 1429.319
602.0685, 1427.141
602.5507, 1433.010
603.0328, 1441.425
603.5149, 1442.218
603.9970, 1432.879
604.4791, 1426.112
604.9612, 1428.085
605.4434, 1432.890
605.9255, 1435.382
606.4076, 1435.027
606.8897, 1432.017
607.3718, 1426.018
607.8539, 1418.754
608.3361, 1416.281
608.8182, 1420.376
609.3003, 1425.928
609.7824, 1434.557
610.2645, 1442.689
610.7466, 1451.551
611.2288, 1458.607
611.7109, 1455.077
612.1930, 1427.815
612.6751, 1394.271
613.1572, 1384.106
613.6393, 1395.899
614.1215, 1406.260
614.6036, 1406.963
615.0857, 1403.405
615.5678, 1403.224
616.0499, 1407.418
616.5320, 1409.720
617.0142, 1411.594
617.4963, 1409.834
617.9784, 1399.346
618.4605, 1384.506
618.9426, 1373.244
619.4247, 1368.965
619.9069, 1369.699
620.3890, 1373.632
620.8711, 1381.639
621.3532, 1386.011
621.8353, 1384.827
622.3174, 1381.938
622.7996, 1376.352
623.2817, 1371.110
623.7638, 1374.108
624.2459, 1395.161
624.7280, 1410.113
625.2101, 1394.510
625.6923, 1362.547
626.1744, 1342.827
626.6565, 1341.067
627.1386, 1348.090
627.6207, 1357.047
628.1028, 1367.659
628.5850, 1370.921
629.0671, 1354.158
629.5492, 1345.411
630.0313, 1357.911
630.5134, 1374.184
630.9955, 1375.041
631.4777, 1359.144
631.9598, 1343.908
632.4419, 1345.860
632.9240, 1359.186
633.4061, 1367.700
633.8882, 1371.241
634.3704, 1370.458
634.8525, 1363.250
635.3346, 1353.986
635.8167, 1351.728
636.2988, 1358.028
636.7809, 1363.778
637.2631, 1372.054
637.7452, 1375.490
638.2273, 1364.024
638.7094, 1343.175
639.1915, 1327.144
639.6736, 1323.481
640.1558, 1328.616
640.6379, 1336.538
641.1200, 1348.207
641.6021, 1358.432
642.0842, 1369.875
642.5663, 1375.647
643.0485, 1367.657
643.5306, 1351.353
644.0127, 1340.616
644.4948, 1339.582
644.9769, 1344.363
645.4590, 1357.755
645.9412, 1373.931
646.4233, 1380.354
646.9054, 1374.527
647.3875, 1362.930
647.8696, 1350.618
648.3517, 1337.838
648.8339, 1332.490
649.3160, 1342.127
649.7981, 1349.200
650.2802, 1351.331
650.7623, 1349.596
651.2444, 1343.514
651.7266, 1333.744
652.2087, 1324.658
652.6908, 1317.169
653.1729, 1313.187
653.6550, 1319.756
654.1371, 1336.443
654.6193, 1348.026
655.1014, 1348.138
655.5835, 1339.767
656.0656, 1326.939
656.5477, 1306.385
657.0298, 1290.808
657.5120, 1278.457
657.9941, 1272.911
658.4762, 1279.099
658.9583, 1292.677
659.4404, 1308.150
659.9225, 1323.354
660.4047, 1333.240
660.8868, 1327.524
661.3689, 1307.494
661.8510, 1292.902
662.3331, 1284.857
662.8152, 1284.020
663.2974, 1294.391
663.7795, 1311.910
664.2616, 1325.323
664.7437, 1336.926
665.2258, 1339.811
665.7079, 1324.588
666.1901, 1304.356
666.6722, 1290.725
667.1543, 1285.268
667.6364, 1286.469
668.1185, 1294.125
668.6006, 1305.540
669.0828, 1313.171
669.5649, 1316.951
670.0470, 1316.882
670.5291, 1310.024
671.0112, 1302.263
671.4933, 1297.539
671.9755, 1295.508
672.4576, 1294.711
672.9397, 1295.989
673.4218, 1297.065
673.9039, 1297.737
674.3860, 1296.800
674.8682, 1290.245
675.3503, 1277.603
675.8324, 1265.592
676.3145, 1261.100
676.7966, 1263.876
677.2787, 1268.103
677.7609, 1276.895
678.2430, 1281.915
678.7251, 1277.958
679.2072, 1272.078
679.6893, 1270.645
680.1714, 1274.007
680.6536, 1277.361
681.1357, 1279.830
681.6178, 1279.873
682.0999, 1273.698
682.5820, 1262.896
683.0641, 1252.766
683.5463, 1244.679
684.0284, 1243.676
684.5105, 1259.932
684.9926, 1300.842
685.4747, 1321.832
685.9568, 1307.456
686.4390, 1290.369
686.9211, 1275.395
687.4032, 1264.377
687.8853, 1260.376
688.3674, 1264.105
688.8495, 1268.233
689.3317, 1267.636
689.8138, 1263.294
690.2959, 1254.253
690.7780, 1241.115
691.2601, 1236.494
691.7422, 1248.937
692.2244, 1269.060
692.7065, 1276.339
693.1886, 1263.677
693.6707, 1254.554
694.1528, 1249.320
694.6349, 1246.929
695.1171, 1246.655
695.5992, 1249.001
696.0813, 1257.177
696.5634, 1273.332
697.0455, 1285.523
697.5276, 1275.965
698.0098, 1252.073
698.4919, 1238.965
698.9740, 1239.467
699.4561, 1245.551
699.9382, 1254.015
700.4203, 1263.179
700.9025, 1268.009
701.3846, 1266.771
701.8667, 1263.772
702.3488, 1257.321
702.8309, 1250.697
703.3130, 1242.485
703.7952, 1236.110
704.2773, 1240.449
704.7594, 1261.792
705.2415, 1285.087
705.7236, 1290.052
706.2057, 1279.558
706.6879, 1268.143
707.1700, 1257.721
707.6521, 1246.093
708.1342, 1228.320
708.6163, 1208.808
709.0984, 1208.187
709.5806, 1250.310
710.0627, 1276.673
710.5448, 1274.476
711.0269, 1262.759
711.5090, 1251.463
711.9911, 1242.725
712.4733, 1237.345
712.9554, 1236.017
713.4375, 1237.385
713.9196, 1240.255
714.4017, 1244.341
714.8839, 1248.193
715.3660, 1252.087
715.8481, 1252.804
716.3302, 1245.788
716.8123, 1233.266
717.2944, 1229.958
717.7766, 1244.417
718.2587, 1255.564
718.7408, 1260.883
719.2229, 1262.491
719.7050, 1261.293
720.1871, 1257.813
720.6693, 1252.700
721.1514, 1246.017
721.6335, 1238.625
722.1156, 1229.538
722.5977, 1219.953
723.0798, 1220.243
723.5620, 1234.207
724.0441, 1247.191
724.5262, 1245.652
725.0083, 1232.327
725.4904, 1227.729
725.9725, 1238.744
726.4547, 1248.761
726.9368, 1257.947
727.4189, 1264.286
727.9011, 1265.220
728.3832, 1261.842
728.8653, 1257.685
729.3474, 1254.207
729.8295, 1251.725
730.3116, 1252.361
730.7938, 1254.792
731.2759, 1251.325
731.7580, 1239.862
732.2401, 1229.615
732.7222, 1228.684
733.2043, 1235.319
733.6865, 1238.073
734.1686, 1229.505
734.6507, 1227.550
735.1328, 1240.046
735.6149, 1253.307
736.0970, 1257.447
736.5792, 1254.129
737.0613, 1251.381
737.5434, 1254.716
738.0255, 1255.903
738.5076, 1240.376
738.9897, 1215.682
739.4719, 1205.891
739.9540, 1215.034
740.4361, 1225.186
740.9182, 1221.461
741.4003, 1208.783
741.8824, 1210.336
742.3646, 1240.450
742.8467, 1258.934
743.3288, 1256.471
743.8109, 1249.023
744.2930, 1244.501
744.7751, 1242.315
745.2573, 1239.387
745.7394, 1234.427
746.2215, 1229.039
746.7036, 1221.811
747.1857, 1215.937
747.6678, 1218.661
748.1500, 1230.023
748.6321, 1243.145
749.1142, 1254.054
749.5963, 1261.577
750.0784, 1261.098
750.5605, 1247.744
751.0427, 1240.647
751.5248, 1247.450
752.0069, 1253.458
752.4890, 1247.453
752.9711, 1236.038
753.4532, 1232.960
753.9354, 1243.431
754.4175, 1255.546
754.8996, 1266.549
755.3817, 1273.997
755.8638, 1272.319
756.3459, 1263.846
756.8281, 1258.012
757.3102, 1260.014
757.7923, 1266.257
758.2744, 1270.256
758.7565, 1271.792
759.2386, 1274.029
759.7208, 1279.254
760.2029, 1280.304
760.6850, 1264.142
761.1671, 1244.816
761.6492, 1252.002
762.1313, 1296.843
762.6135, 1333.203
763.0956, 1348.755
763.5777, 1353.662
764.0598, 1348.087
764.5419, 1338.981
765.0240, 1339.446
765.5062, 1354.370
765.9883, 1373.546
766.4704, 1385.588
766.9525, 1391.375
767.4346, 1393.615
767.9167, 1391.340
768.3989, 1395.110
768.8810, 1410.432
769.3631, 1433.073
769.8452, 1456.827
770.3273, 1482.249
770.8094, 1506.647
771.2916, 1527.712
771.7737, 1550.340
772.2558, 1579.890
772.7379, 1610.160
773.2200, 1630.693
773.7021, 1640.638
774.1843, 1654.076
774.6664, 1685.925
775.1485, 1724.881
775.6306, 1753.593
776.1127, 1772.987
776.5948, 1787.671
777.0770, 1798.768
777.5591, 1809.794
778.0412, 1824.252
778.5233, 1842.167
779.0054, 1866.696
779.4875, 1909.370
779.9697, 1938.488
780.4518, 1933.249
780.9339, 1923.803
781.4160, 1939.247
781.8981, 1974.202
782.3802, 1992.571
782.8624, 1970.557
783.3445, 1941.661
783.8266, 1927.760
784.3087, 1920.438
784.7908, 1908.152
785.2729, 1888.900
785.7551, 1864.143
786.2372, 1833.597
786.7193, 1802.010
787.2014, 1781.905
787.6835, 1773.755
788.1656, 1774.306
788.6478, 1789.614
789.1299, 1799.281
789.6120, 1784.386
790.0941, 1752.140
790.5762, 1731.184
791.0583, 1728.039
791.5405, 1724.105
792.0226, 1717.229
792.5047, 1708.163
792.9868, 1697.555
793.4689, 1685.125
793.9510, 1669.808
794.4332, 1651.093
794.9153, 1630.849
795.3974, 1608.317
795.8795, 1586.166
796.3616, 1573.655
796.8438, 1570.500
797.3259, 1563.120
797.8080, 1544.437
798.2901, 1520.894
798.7722, 1503.958
799.2543, 1495.842
799.7365, 1482.460
800.2186, 1456.823
800.7007, 1435.593
801.1828, 1426.302
801.6649, 1422.142
802.1470, 1417.590
802.6292, 1411.968
803.1113, 1402.068
803.5934, 1380.512
804.0755, 1360.409
804.5576, 1353.113
805.0397, 1353.313
805.5219, 1352.785
806.0040, 1349.094
806.4861, 1341.868
806.9682, 1330.194
807.4503, 1315.406
807.9324, 1299.657
808.4146, 1282.280
808.8967, 1275.180
809.3788, 1284.085
809.8609, 1295.260
810.3430, 1297.870
810.8251, 1292.662
811.3073, 1284.905
811.7894, 1269.224
812.2715, 1258.847
812.7536, 1259.208
813.2357, 1261.044
813.7178, 1257.970
814.2000, 1251.556
814.6821, 1246.570
815.1642, 1244.926
815.6463, 1243.748
816.1284, 1242.395
816.6105, 1239.162
817.0927, 1227.472
817.5748, 1209.963
818.0569, 1202.054
818.5390, 1211.544
819.0211, 1226.613
819.5032, 1226.499
819.9854, 1209.641
820.4675, 1207.339
820.9496, 1228.906
821.4317, 1241.453
821.9138, 1225.176
822.3959, 1200.248
822.8781, 1194.777
823.3602, 1209.602
823.8423, 1217.088
824.3244, 1208.566
824.8065, 1198.867
825.2886, 1190.319
825.7708, 1185.573
826.2529, 1190.960
826.7350, 1204.083
827.2171, 1211.435
827.6992, 1202.114
828.1813, 1187.101
828.6635, 1181.907
829.1456, 1183.534
829.6277, 1183.245
830.1098, 1179.456
830.5919, 1170.022
831.0740, 1151.882
831.5562, 1130.766
832.0383, 1124.948
832.5204, 1140.375
833.0025, 1150.668
833.4846, 1153.234
833.9667, 1152.485
834.4489, 1146.348
834.9310, 1139.945
835.4131, 1143.077
835.8952, 1159.855
836.3773, 1169.749
836.8594, 1162.770
837.3416, 1152.698
837.8237, 1146.114
838.3058, 1142.917
838.7879, 1143.565
839.2700, 1147.381
839.7521, 1148.984
840.2343, 1139.599
840.7164, 1127.896
841.1985, 1134.689
841.6806, 1155.605
842.1627, 1164.945
842.6448, 1156.047
843.1270, 1146.136
843.6091, 1152.016
844.0912, 1169.204
844.5733, 1172.440
845.0554, 1154.572
845.5375, 1142.176
846.0197, 1142.793
846.5018, 1143.977
846.9839, 1133.652
847.4660, 1119.168
847.9481, 1117.457
848.4302, 1135.954
848.9124, 1151.673
849.3945, 1163.212
849.8766, 1165.490
850.3587, 1145.481
850.8408, 1116.511
851.3229, 1104.061
851.8051, 1115.252
852.2872, 1130.176
852.7693, 1129.354
853.2514, 1121.148
853.7335, 1124.704
854.2156, 1136.882
854.6978, 1137.758
855.1799, 1121.222
855.6620, 1105.394
856.1441, 1109.791
856.6262, 1130.610
857.1083, 1142.109
857.5905, 1142.760
858.0726, 1138.053
858.5547, 1121.683
859.0368, 1109.774
859.5189, 1120.458
860.0010, 1144.540
860.4832, 1154.409
860.9653, 1140.609
861.4474, 1129.567
861.9295, 1127.838
862.4116, 1128.450
862.8937, 1127.908
863.3759, 1126.238
863.8580, 1122.498
864.3401, 1116.583
864.8222, 1115.894
865.3043, 1134.744
865.7864, 1156.581
866.2686, 1153.886
866.7507, 1133.661
867.2328, 1119.367
867.7149, 1117.480
868.1971, 1120.784
868.6792, 1123.159
869.1613, 1124.254
869.6434, 1121.379
870.1255, 1113.313
870.6077, 1110.636
871.0898, 1116.535
871.5719, 1125.074
872.0540, 1134.297
872.5361, 1142.264
873.0182, 1141.772
873.5004, 1125.240
873.9825, 1113.764
874.4646, 1108.976
874.9467, 1107.456
875.4288, 1108.952
875.9109, 1112.193
876.3931, 1115.424
876.8752, 1118.318
877.3573, 1122.317
877.8394, 1135.892
878.3215, 1143.464
878.8036, 1121.663
879.2858, 1088.582
879.7679, 1079.244
880.2500, 1097.346
880.7321, 1115.258
881.2142, 1110.732
881.6964, 1095.896
882.1785, 1095.281
882.6606, 1106.901
883.1427, 1117.232
883.6248, 1124.538
884.1069, 1127.498
884.5891, 1124.596
885.0712, 1118.384
885.5533, 1114.905
886.0354, 1115.420
886.5175, 1113.467
886.9996, 1106.575
887.4818, 1101.248
887.9639, 1099.260
888.4460, 1100.615
888.9281, 1107.937
889.4102, 1121.348
889.8923, 1126.394
890.3745, 1116.445
890.8566, 1103.416
891.3387, 1084.948
891.8208, 1070.231
892.3029, 1071.012
892.7850, 1083.903
893.2672, 1095.193
893.7493, 1099.618
894.2314, 1097.636
894.7135, 1082.644
895.1956, 1065.116
895.6777, 1065.114
896.1599, 1079.294
896.6420, 1088.204
897.1241, 1083.677
897.6062, 1074.498
898.0883, 1072.349
898.5704, 1075.725
899.0526, 1075.094
899.5347, 1070.253
900.0168, 1063.694
900.4989, 1054.203
900.9810, 1051.009
901.4631, 1066.589
901.9453, 1096.300
902.4274, 1104.717
902.9095, 1074.942
903.3916, 1057.962
903.8737, 1064.189
904.3558, 1076.820
904.8380, 1095.127
905.3201, 1111.396
905.8022, 1108.812
906.2843, 1079.657
906.7664, 1060.147
907.2485, 1064.302
907.7307, 1074.644
908.2128, 1084.367
908.6949, 1092.866
909.1770, 1101.000
909.6591, 1108.311
910.1412, 1111.720
910.6234, 1108.211
911.1055, 1101.679
911.5876, 1093.221
912.0697, 1085.737
912.5518, 1087.750
913.0339, 1097.659
913.5161, 1101.719
913.9982, 1091.833
914.4803, 1077.450
914.9624, 1074.486
915.4445, 1081.296
915.9266, 1085.217
916.4088, 1085.887
916.8909, 1083.567
917.3730, 1077.618
917.8551, 1071.631
918.3372, 1070.400
918.8193, 1073.530
919.3015, 1072.615
919.7836, 1063.653
920.2657, 1060.236
920.7478, 1071.985
921.2299, 1080.849
921.7120, 1068.896
922.1942, 1045.479
922.6763, 1033.873
923.1584, 1039.237
923.6405, 1045.325
924.1226, 1054.314
924.6047, 1058.677
925.0869, 1049.798
925.5690, 1036.732
926.0511, 1030.596
926.5332, 1033.141
927.0153, 1040.313
927.4974, 1056.343
927.9796, 1069.569
928.4617, 1068.006
928.9438, 1059.911
929.4259, 1057.276
929.9080, 1060.066
930.3901, 1060.683
930.8723, 1054.852
931.3544, 1047.882
931.8365, 1047.829
932.3186, 1051.588
932.8007, 1048.840
933.2828, 1040.544
933.7650, 1038.362
934.2471, 1046.611
934.7292, 1054.890
935.2113, 1050.557
935.6934, 1036.940
936.1755, 1034.198
936.6577, 1044.486
937.1398, 1048.912
937.6219, 1042.345
938.1040, 1035.444
938.5861, 1035.629
939.0682, 1040.385
939.5504, 1043.234
940.0325, 1044.484
940.5146, 1042.830
940.9967, 1033.547
941.4788, 1027.693
941.9609, 1030.178
942.4431, 1036.601
942.9252, 1044.479
943.4073, 1053.161
943.8894, 1056.597
944.3715, 1049.736
944.8536, 1042.944
945.3358, 1035.832
945.8179, 1032.855
946.3000, 1041.930
946.7821, 1057.016
947.2642, 1064.520
947.7463, 1059.840
948.2285, 1052.022
948.7106, 1047.178
949.1927, 1041.365
949.6748, 1026.788
950.1569, 1009.847
950.6390, 1003.421
951.1212, 1009.058
951.6033, 1017.508
952.0854, 1022.814
952.5675, 1026.321
953.0496, 1031.519
953.5317, 1036.394
954.0139, 1031.939
954.4960, 1019.218
954.9781, 1014.176
955.4602, 1024.774
955.9423, 1039.079
956.4244, 1038.591
956.9066, 1025.844
957.3887, 1023.992
957.8708, 1034.021
958.3529, 1039.913
958.8350, 1037.075
959.3171, 1031.464
959.7993, 1027.728
960.2814, 1025.474
960.7635, 1022.997
961.2456, 1019.430
961.7277, 1018.738
962.2098, 1024.064
962.6920, 1026.470
963.1741, 1016.981
963.6562, 1006.499
964.1383, 1015.517
964.6204, 1047.815
965.1025, 1054.293
965.5847, 1009.405
966.0668, 974.0289
966.5489, 957.9286
967.0310, 955.3313
967.5131, 967.3812
967.9952, 988.7494
968.4774, 1009.685
968.9595, 1031.309
969.4416, 1040.839
969.9237, 1025.191
970.4058, 1005.607
970.8879, 993.8414
971.3701, 986.8379
971.8522, 978.8608
972.3343, 969.8259
972.8164, 964.7906
973.2985, 967.6593
973.7806, 973.2246
974.2628, 981.4019
974.7449, 987.1362
975.2270, 980.2350
975.7091, 965.0328
976.1912, 956.2324
976.6733, 959.0842
977.1555, 963.6469
977.6376, 959.5556
978.1197, 950.9902
978.6018, 943.9088
979.0839, 939.0516
979.5660, 939.7135
980.0482, 945.9136
980.5303, 952.8995
981.0124, 957.5622
981.4945, 960.4798
981.9766, 964.2684
982.4587, 967.8303
982.9409, 961.1152
983.4230, 943.7128
983.9051, 928.0784
984.3872, 918.2845
984.8693, 914.9529
985.3514, 920.2264
985.8336, 931.6011
986.3157, 934.1426
986.7978, 925.8752
987.2799, 920.5818
987.7620, 920.1924
988.2441, 921.5446
988.7263, 921.8253
989.2084, 924.4725
989.6905, 937.6218
990.1726, 964.7688
990.6547, 976.2131
991.1368, 963.6611
991.6190, 951.1969
992.1011, 944.3939
992.5832, 938.8086
993.0653, 928.5839
993.5474, 916.6440
994.0295, 914.4184
994.5117, 926.2355
994.9938, 938.3804
995.4759, 959.3580
995.9580, 969.8455
996.4401, 949.5123
996.9222, 923.4232
997.4044, 923.4623
997.8865, 948.2956
998.3686, 963.2880
998.8507, 953.6446
999.3328, 943.2915
999.8149, 938.1528
1000.297, 935.5397
1000.779, 934.1328
1001.261, 933.6127
1001.743, 933.7516
1002.226, 934.4991
1002.708, 936.0201
1003.190, 939.0512
1003.672, 942.1421
1004.154, 945.2662
1004.636, 947.3192
1005.118, 947.2113
1005.600, 944.8071
1006.082, 939.5335
1006.565, 930.4465
1007.047, 923.0509
1007.529, 921.0447
1008.011, 923.4628
1008.493, 932.5374
1008.975, 944.0516
1009.457, 950.5145
1009.939, 950.2666
1010.422, 944.3713
1010.904, 931.4265
1011.386, 919.2520
1011.868, 918.7847
1012.350, 925.7957
1012.832, 934.4534
1013.314, 942.6221
1013.796, 943.5258
1014.279, 935.4414
1014.761, 928.1713
1015.243, 932.1037
1015.725, 942.2675
1016.207, 948.5135
1016.689, 951.3976
1017.171, 952.1357
1017.653, 951.3189
1018.135, 952.8093
1018.618, 958.6945
1019.100, 965.6038
1019.582, 969.8666
1020.064, 970.8555
1020.546, 964.2291
1021.028, 950.3181
1021.510, 932.8335
1021.992, 912.0265
1022.474, 901.6846
1022.957, 913.4527
1023.439, 934.8818
1023.921, 936.1909
1024.403, 916.3694
1024.885, 910.4824
1025.367, 920.4876
1025.849, 932.3058
1026.331, 942.7151
1026.813, 949.3989
1027.296, 949.7183
1027.778, 945.0447
1028.260, 939.7126
1028.742, 932.1638
1029.224, 932.6790
1029.706, 944.7008
1030.188, 956.0153
1030.670, 963.3401
1031.153, 964.2477
1031.635, 953.0769
1032.117, 931.5273
1032.599, 924.4929
1033.081, 938.7416
1033.563, 948.7813
1034.045, 949.2231
1034.527, 950.7225
1035.010, 961.7952
1035.492, 974.4081
1035.974, 975.0822
1036.456, 962.6550
1036.938, 949.9681
1037.420, 932.0615
1037.902, 923.1693
1038.384, 932.4904
1038.866, 942.9302
1039.349, 941.7375
1039.831, 934.5197
1040.313, 934.3080
1040.795, 943.7046
1041.277, 950.5332
1041.759, 954.3856
1042.241, 956.2972
1042.723, 956.1091
1043.205, 954.4232
1043.688, 950.8532
1044.170, 946.1768
1044.652, 942.5591
1045.134, 939.1157
1045.616, 939.2532
1046.098, 943.4516
1046.580, 951.0051
1047.062, 966.2643
1047.545, 981.2365
1048.027, 988.4976
1048.509, 988.4810
1048.991, 985.0584
1049.473, 976.1130
1049.955, 968.9711
1050.437, 963.6650
1050.919, 961.8496
1051.401, 966.9514
1051.884, 974.3132
1052.366, 977.6737
1052.848, 977.3162
1053.330, 980.1823
1053.812, 994.2352
1054.294, 1001.682
1054.776, 990.0386
1055.258, 979.1237
1055.740, 984.4385
1056.223, 996.5424
1056.705, 999.5611
1057.187, 992.2267
1057.669, 989.6191
1058.151, 1003.517
1058.633, 1012.659
1059.115, 1005.648
1059.597, 995.3004
1060.080, 986.7198
1060.562, 983.3887
1061.044, 992.7228
1061.526, 1015.884
1062.008, 1033.409
1062.490, 1038.634
1062.972, 1036.719
1063.454, 1019.827
1063.937, 1005.760
1064.419, 1011.651
1064.901, 1031.590
1065.383, 1053.414
1065.865, 1074.986
1066.347, 1087.657
1066.829, 1077.958
1067.311, 1071.082
1067.793, 1082.669
1068.276, 1100.905
1068.758, 1113.750
1069.240, 1123.327
1069.722, 1139.188
1070.204, 1165.139
1070.686, 1184.945
1071.168, 1180.508
1071.650, 1180.751
1072.132, 1212.844
1072.615, 1250.191
1073.097, 1262.065
1073.579, 1253.676
1074.061, 1247.703
1074.543, 1250.442
1075.025, 1257.902
1075.507, 1273.001
1075.989, 1286.865
1076.472, 1297.504
1076.954, 1301.494
1077.436, 1292.563
1077.918, 1273.711
1078.400, 1254.606
1078.882, 1236.964
1079.364, 1224.467
1079.846, 1226.455
1080.328, 1225.736
1080.811, 1206.714
1081.293, 1181.702
1081.775, 1169.500
1082.257, 1166.438
1082.739, 1149.142
1083.221, 1102.514
1083.703, 1067.868
1084.185, 1072.413
1084.668, 1085.863
1085.150, 1096.101
1085.632, 1098.748
1086.114, 1084.691
1086.596, 1058.508
1087.078, 1040.714
1087.560, 1041.159
1088.042, 1040.961
1088.525, 1025.712
1089.007, 1014.294
1089.489, 1025.077
1089.971, 1042.547
1090.453, 1049.390
1090.935, 1043.847
1091.417, 1029.114
1091.899, 998.5669
1092.381, 978.4755
1092.864, 988.1813
1093.346, 1000.624
1093.828, 1001.189
1094.310, 993.5612
1094.792, 979.7657
1095.274, 962.5770
1095.756, 951.5700
1096.238, 950.0273
1096.720, 953.2584
1097.203, 966.7293
1097.685, 976.7003
1098.167, 972.6208
1098.649, 962.5396
1099.131, 955.7224
1099.613, 952.5328
1100.095, 948.8357
1100.577, 942.5843
1101.060, 938.2061
1101.542, 941.2591
1102.024, 941.3095
1102.506, 928.9150
1102.988, 913.6500
1103.470, 906.4986
1103.952, 907.0593
1104.434, 907.8721
1104.917, 905.9476
1105.399, 907.8068
1105.881, 919.1445
1106.363, 929.0148
1106.845, 932.1464
1107.327, 931.7176
1107.809, 931.7260
1108.291, 931.6094
1108.773, 926.7855
1109.255, 910.2279
1109.738, 902.0947
1110.220, 913.0668
1110.702, 921.7891
1111.184, 916.6602
1111.666, 908.5148
1112.148, 909.3436
1112.630, 917.2073
1113.112, 919.7773
1113.595, 905.4822
1114.077, 908.8453
1114.559, 955.1566
1115.041, 984.0063
1115.523, 967.4023
1116.005, 935.4152
1116.487, 911.0287
1116.969, 894.3227
1117.452, 886.4140
1117.934, 890.5570
1118.416, 895.2205
1118.898, 902.4025
1119.380, 906.1823
1119.862, 903.6490
1120.344, 898.6539
1120.826, 893.1865
1121.308, 888.5004
1121.791, 889.2700
1122.273, 897.7691
1122.755, 902.4745
1123.237, 901.9706
1123.719, 901.7846
1124.201, 903.5464
1124.683, 905.8835
1125.165, 908.2992
1125.647, 909.7278
1126.130, 906.3006
1126.612, 896.6486
1127.094, 894.7936
1127.576, 901.9310
1128.058, 911.3417
1128.540, 923.1336
1129.022, 927.4471
1129.504, 915.4318
1129.987, 896.4706
1130.469, 889.3939
1130.951, 893.8746
1131.433, 902.5441
1131.915, 915.5638
1132.397, 922.7699
1132.879, 922.1123
1133.361, 913.7910
1133.844, 896.7016
1134.326, 880.2017
1134.808, 882.1371
1135.290, 897.3059
1135.772, 899.5750
1136.254, 891.0739
1136.736, 886.9585
1137.218, 889.3826
1137.700, 892.3995
1138.182, 893.0338
1138.665, 891.4138
1139.147, 887.0240
1139.629, 881.0060
1140.111, 874.2543
1140.593, 868.4583
1141.075, 870.4750
1141.557, 879.1616
1142.039, 885.0248
1142.522, 884.4025
1143.004, 885.3737
1143.486, 899.8543
1143.968, 914.9839
1144.450, 911.9878
1144.932, 897.7501
1145.414, 877.6492
1145.896, 858.1837
1146.379, 855.4829
1146.861, 872.4870
1147.343, 888.2771
1147.825, 887.9251
1148.307, 882.3506
1148.789, 877.8798
1149.271, 875.4919
1149.753, 878.2132
1150.235, 883.0346
1150.718, 883.4924
1151.200, 879.2595
1151.682, 877.3391
1152.164, 880.7539
1152.646, 887.1406
1153.128, 900.5499
1153.610, 910.9728
1154.092, 910.3491
1154.574, 903.1977
1155.057, 894.8496
1155.539, 886.1581
1156.021, 876.4020
1156.503, 860.7220
1156.985, 855.0289
1157.467, 876.8481
1157.949, 891.7924
1158.431, 873.7198
1158.914, 852.0660
1159.396, 860.7308
1159.878, 890.0507
1160.360, 899.9585
1160.842, 880.4180
1161.324, 868.2405
1161.806, 863.0068
1162.288, 866.3583
1162.771, 885.8572
1163.253, 903.6673
1163.735, 906.7502
1164.217, 900.4841
1164.699, 896.7227
1165.181, 896.2889
1165.663, 884.9818
1166.145, 856.1593
1166.627, 845.3801
1167.109, 862.8358
1167.592, 881.3788
1168.074, 886.6536
1168.556, 883.8108
1169.038, 878.4208
1169.520, 872.1507
1170.002, 877.6760
1170.484, 894.2819
1170.966, 898.3380
1171.449, 887.8092
1171.931, 881.1054
1172.413, 885.5651
1172.895, 897.8271
1173.377, 918.1172
1173.859, 936.3188
1174.341, 925.5104
1174.823, 896.9618
1175.306, 882.4821
1175.788, 881.4969
1176.270, 884.3054
1176.752, 887.5280
1177.234, 889.0316
1177.716, 887.2119
1178.198, 884.1559
1178.680, 880.5894
1179.162, 878.3796
1179.645, 883.6924
1180.127, 890.2124
1180.609, 883.6652
1181.091, 866.8745
1181.573, 856.4086
1182.055, 858.3973
1182.537, 869.1439
1183.019, 897.1888
1183.501, 920.6119
1183.984, 924.3655
1184.466, 918.3573
1184.948, 904.6337
1185.430, 891.5064
1185.912, 899.3895
1186.394, 933.9811
1186.876, 949.7022
1187.358, 914.7658
1187.841, 893.8623
1188.323, 913.9931
1188.805, 936.7123
1189.287, 939.8275
1189.769, 934.3151
1190.251, 934.4822
1190.733, 939.5289
1191.215, 938.9922
1191.698, 928.4783
1192.180, 924.5835
1192.662, 929.1492
1193.144, 937.9759
1193.626, 952.0730
1194.108, 962.9334
1194.590, 962.2435
1195.072, 954.0227
1195.554, 948.3409
1196.036, 945.2094
1196.519, 947.8195
1197.001, 955.9510
1197.483, 956.5298
1197.965, 946.9607
1198.447, 936.1580
1198.929, 929.2278
1199.411, 926.0725
1199.893, 928.9586
1200.376, 934.0490
1200.858, 931.8317
1201.340, 924.9759
1201.822, 918.6840
1202.304, 914.4710
1202.786, 916.1133
1203.268, 924.0231
1203.750, 928.0460
1204.233, 917.2371
1204.715, 905.9626
1205.197, 910.3423
1205.679, 917.0455
1206.161, 909.9540
1206.643, 896.7729
1207.125, 890.9545
1207.607, 893.6482
1208.089, 898.7109
1208.572, 908.0461
1209.054, 909.6721
1209.536, 888.9582
1210.018, 873.9481
1210.500, 884.2786
1210.982, 898.5482
1211.464, 895.9595
1211.946, 882.8688
1212.428, 877.3670
1212.911, 881.1420
1213.393, 880.7256
1213.875, 872.0657
1214.357, 870.2610
1214.839, 881.1491
1215.321, 888.6292
1215.803, 883.2823
1216.285, 874.6095
1216.768, 875.5393
1217.250, 882.6522
1217.732, 878.5239
1218.214, 864.0563
1218.696, 859.1350
1219.178, 864.5397
1219.660, 874.0948
1220.142, 885.4264
1220.625, 890.4818
1221.107, 882.6379
1221.589, 870.6923
1222.071, 866.8429
1222.553, 867.2879
1223.035, 863.8276
1223.517, 860.0162
1223.999, 865.5393
1224.481, 878.2772
1224.964, 887.3674
1225.446, 888.9438
1225.928, 887.1773
1226.410, 884.2197
1226.892, 879.1136
1227.374, 865.0810
1227.856, 854.8753
1228.338, 862.9901
1228.821, 879.7476
1229.303, 892.7677
1229.785, 899.9252
1230.267, 895.5655
1230.749, 863.3654
1231.231, 848.9133
1231.713, 865.2672
1232.195, 880.1767
1232.677, 885.1101
1233.160, 884.8289
1233.642, 882.0900
1234.124, 877.7377
1234.606, 873.3451
1235.088, 868.9282
1235.570, 866.6053
1236.052, 866.4526
1236.534, 867.5252
1237.016, 869.6624
1237.499, 866.5411
1237.981, 855.2449
1238.463, 845.8741
1238.945, 849.6703
1239.427, 859.8452
1239.909, 866.0355
1240.391, 868.4378
1240.873, 864.9612
1241.356, 858.7096
1241.838, 857.9655
1242.320, 862.8808
1242.802, 864.9432
1243.284, 859.0096
1243.766, 857.3136
1244.248, 876.0370
1244.730, 890.7125
1245.213, 878.5522
1245.695, 862.3903
1246.177, 868.1866
1246.659, 884.3300
1247.141, 884.2430
1247.623, 864.9033
1248.105, 847.1547
1248.587, 823.6148
1249.069, 818.9772
1249.552, 846.6111
1250.034, 868.4792
1250.516, 870.2520
1250.998, 862.5746
1251.480, 852.7778
1251.962, 844.2844
1252.444, 848.1091
1252.926, 863.4523
1253.408, 868.2324
1253.891, 863.6699
1254.373, 865.3607
1254.855, 874.7090
1255.337, 878.1913
1255.819, 869.6764
1256.301, 859.4316
1256.783, 858.0539
1257.265, 858.8901
1257.748, 851.3580
1258.230, 842.3012
1258.712, 842.9092
1259.194, 848.2576
1259.676, 848.8081
1260.158, 843.4266
1260.640, 833.8882
1261.122, 815.2429
1261.604, 812.9074
1262.087, 855.7631
1262.569, 888.3168
1263.051, 881.7459
1263.533, 866.6284
1264.015, 862.9380
1264.497, 865.8227
1264.979, 869.1002
1265.461, 872.3198
1265.943, 866.7964
1266.426, 850.0781
1266.908, 836.8890
1267.390, 827.5845
1267.872, 829.8477
1268.354, 846.9553
1268.836, 858.8375
1269.318, 849.0705
1269.800, 833.3880
1270.283, 830.5706
1270.765, 851.5793
1271.247, 864.3772
1271.729, 869.4066
1272.211, 843.3977
1272.693, 857.4677
1273.175, 855.4763
1273.657, 852.8256
1274.140, 872.5417
1274.622, 851.0468
1275.104, 870.4037
1275.586, 873.4535
1276.068, 883.9661
1276.550, 878.3180
1277.032, 877.6611
1277.514, 893.1711
1277.996, 899.7290
1278.479, 878.1628
1278.961, 852.1939
##END=



