##NAMES=Opal
##RRUFFID=R060650
##IDEAL CHEMISTRY=SiO_2_&#183;<i>n</i>H_2_O
##LOCALITY=Idaho, USA
##OWNER=RRUFF
##SOURCE=Gemological Institute of America
##DESCRIPTION=Orange-brown glassy fragment, variety is opal-CT, based on its X-ray diffraction pattern
##STATUS=The identification of this mineral has been confirmed by X-ray diffraction and chemical analysis
##URL=rruff.info/R060650
##MEASURED CHEMISTRY=Si_1.00_O_2_ Â· 0.18H_2_O
150.931, 18367.721
151.413, 18405.131
151.895, 18442.770
152.377, 18491.039
152.859, 18556.740
153.342, 18695.090
153.824, 18798.500
154.306, 18834.609
154.788, 18793.381
155.270, 18767.789
155.752, 18776.439
156.234, 18805.910
156.716, 18840.631
157.198, 18875.109
157.680, 18916.920
158.163, 18971.010
158.645, 19043.029
159.127, 19110.141
159.609, 19146.100
160.091, 19172.949
160.573, 19231.789
161.055, 19240.650
161.538, 19345.891
162.020, 19399.373
162.502, 19495.148
162.984, 19580.658
163.466, 19656.453
163.948, 19693.438
164.430, 19780.553
164.912, 19852.199
165.394, 19851.609
165.876, 19864.721
166.359, 19842.580
166.841, 19831.199
167.323, 19869.449
167.805, 19951.631
168.287, 20027.529
168.769, 20067.789
169.251, 20084.869
169.733, 20093.920
170.216, 20087.850
170.698, 20085.039
171.180, 20104.080
171.662, 20146.320
172.144, 20191.369
172.626, 20224.520
173.108, 20250.131
173.590, 20276.721
174.072, 20311.650
174.555, 20347.820
175.037, 20372.869
175.519, 20382.670
176.001, 20399.631
176.483, 20454.090
176.965, 20535.609
177.447, 20611.150
177.929, 20653.590
178.412, 20680.029
178.894, 20718.869
179.376, 20775.170
179.858, 20839.311
180.340, 20907.391
180.822, 20976.471
181.304, 21030.900
181.786, 21039.811
182.268, 21025.520
182.751, 21048.119
183.233, 21133.010
183.715, 21240.641
184.197, 21300.080
184.679, 21312.910
185.161, 21315.561
185.643, 21332.949
186.125, 21363.580
186.607, 21404.199
187.090, 21458.590
187.572, 21519.000
188.054, 21570.500
188.536, 21612.699
189.018, 21643.119
189.500, 21649.230
189.982, 21634.830
190.464, 21633.391
190.947, 21660.029
191.429, 21708.539
191.911, 21757.539
192.393, 21810.471
192.875, 21849.990
193.357, 21842.961
193.839, 21789.750
194.321, 21750.740
194.803, 21760.119
195.286, 21812.260
195.768, 21834.480
196.250, 21819.520
196.732, 21793.080
197.214, 21790.070
197.696, 21811.449
198.178, 21852.369
198.661, 21922.410
199.143, 22022.510
199.625, 22097.480
200.107, 22144.270
200.589, 22169.400
201.071, 22179.340
201.553, 22168.961
202.035, 22168.430
202.517, 22196.109
202.999, 22254.150
203.482, 22317.609
203.964, 22389.711
204.446, 22461.570
204.928, 22504.189
205.410, 22507.670
205.892, 22510.080
206.374, 22536.119
206.857, 22588.869
207.339, 22645.580
207.821, 22708.000
208.303, 22771.430
208.785, 22814.881
209.267, 22833.520
209.749, 22843.721
210.231, 22840.430
210.713, 22841.881
211.195, 22892.605
211.678, 22931.367
212.160, 22958.812
212.642, 22941.049
213.124, 22981.664
213.606, 22998.883
214.088, 23015.141
214.570, 23063.975
215.052, 23052.781
215.535, 23101.105
216.017, 23125.666
216.499, 23161.100
216.981, 23172.992
217.463, 23192.154
217.945, 23234.867
218.427, 23264.547
218.909, 23273.727
219.391, 23309.852
219.874, 23297.836
220.356, 23328.064
220.838, 23376.525
221.320, 23386.891
221.802, 23423.445
222.284, 23450.025
222.766, 23431.275
223.248, 23491.361
223.731, 23517.357
224.213, 23508.342
224.695, 23565.725
225.177, 23566.051
225.659, 23591.240
226.141, 23671.789
226.623, 23743.471
227.105, 23782.420
227.587, 23777.820
228.070, 23788.820
228.552, 23819.461
229.034, 23862.551
229.516, 23904.590
229.998, 23940.279
230.480, 23982.539
230.962, 24039.449
231.444, 24121.449
231.926, 24181.141
232.409, 24209.270
232.891, 24218.439
233.373, 24235.289
233.855, 24266.350
234.337, 24295.150
234.819, 24315.100
235.301, 24322.471
235.783, 24330.609
236.266, 24334.830
236.748, 24341.750
237.230, 24367.689
237.712, 24419.789
238.194, 24482.010
238.676, 24552.609
239.158, 24656.039
239.640, 24711.381
240.122, 24694.199
240.605, 24633.410
241.087, 24611.930
241.569, 24642.270
242.051, 24695.029
242.533, 24759.119
243.015, 24846.660
243.497, 24918.240
243.980, 24962.471
244.462, 24990.090
244.944, 25041.039
245.426, 25127.869
245.908, 25219.039
246.390, 25298.689
246.872, 25364.340
247.354, 25418.311
247.836, 25452.480
248.318, 25473.461
248.801, 25511.090
249.283, 25579.711
249.765, 25643.680
250.247, 25680.301
250.729, 25673.820
251.211, 25677.160
251.693, 25698.369
252.176, 25733.600
252.658, 25762.770
253.140, 25784.619
253.622, 25805.359
254.104, 25831.580
254.586, 25872.410
255.068, 25898.471
255.550, 25903.381
256.032, 25892.230
256.514, 25888.260
256.997, 25896.410
257.479, 25904.760
257.961, 25900.510
258.443, 25865.949
258.925, 25865.910
259.407, 25919.789
259.889, 26012.971
260.371, 26070.461
260.854, 26071.070
261.336, 26068.811
261.818, 26103.750
262.300, 26191.510
262.782, 26267.189
263.264, 26321.750
263.746, 26358.119
264.228, 26388.730
264.711, 26411.029
265.193, 26431.961
265.675, 26457.301
266.157, 26488.590
266.639, 26517.721
267.121, 26542.730
267.603, 26564.760
268.085, 26588.811
268.567, 26615.471
269.050, 26643.760
269.532, 26674.301
270.014, 26709.141
270.496, 26738.109
270.978, 26756.900
271.460, 26769.721
271.942, 26793.650
272.424, 26831.039
272.906, 26874.340
273.389, 26924.840
273.871, 26987.520
274.353, 27022.609
274.835, 27010.410
275.317, 26971.670
275.799, 26988.410
276.281, 27072.369
276.763, 27170.801
277.246, 27240.039
277.728, 27275.520
278.210, 27333.029
278.692, 27430.961
279.174, 27549.600
279.656, 27620.961
280.138, 27635.480
280.620, 27648.230
281.103, 27711.109
281.585, 27824.779
282.067, 27901.250
282.549, 27910.801
283.031, 27889.211
283.513, 27945.721
283.995, 28089.461
284.477, 28228.730
284.959, 28288.680
285.441, 28275.180
285.924, 28268.490
286.406, 28277.391
286.888, 28303.330
287.370, 28362.039
287.852, 28455.490
288.334, 28533.830
288.816, 28540.961
289.298, 28492.859
289.781, 28489.039
290.263, 28552.141
290.745, 28652.471
291.227, 28742.721
291.709, 28823.070
292.191, 28884.590
292.673, 28915.850
293.155, 28922.631
293.638, 28924.180
294.120, 28920.141
294.602, 28917.590
295.084, 28930.340
295.566, 28957.020
296.048, 28984.680
296.530, 29013.100
297.012, 29037.539
297.494, 29038.949
297.977, 29006.160
298.459, 28976.330
298.941, 29014.221
299.423, 29105.039
299.905, 29179.051
300.387, 29172.551
300.869, 29128.580
301.351, 29121.180
301.833, 29164.080
302.316, 29224.820
302.798, 29269.480
303.280, 29302.391
303.762, 29339.061
304.244, 29398.221
304.726, 29459.619
305.208, 29491.660
305.690, 29484.480
306.173, 29475.119
306.655, 29504.340
307.137, 29555.141
307.619, 29591.090
308.101, 29580.250
308.583, 29555.020
309.065, 29545.131
309.547, 29554.971
310.030, 29571.600
310.512, 29599.689
310.994, 29628.189
311.476, 29638.170
311.958, 29609.801
312.440, 29569.490
312.922, 29532.330
313.404, 29499.619
313.886, 29470.660
314.369, 29442.711
314.851, 29418.789
315.333, 29403.580
315.815, 29408.760
316.297, 29414.320
316.779, 29407.961
317.261, 29388.859
317.743, 29374.939
318.225, 29383.381
318.708, 29396.779
319.190, 29397.600
319.672, 29373.760
320.154, 29344.801
320.636, 29311.850
321.118, 29275.711
321.600, 29252.359
322.082, 29252.500
322.565, 29263.051
323.047, 29273.680
323.529, 29284.230
324.011, 29291.840
324.493, 29289.619
324.975, 29279.170
325.457, 29282.320
325.939, 29320.061
326.422, 29359.230
326.904, 29380.311
327.386, 29375.279
327.868, 29358.869
328.350, 29310.109
328.832, 29242.359
329.314, 29226.680
329.796, 29309.961
330.278, 29403.320
330.760, 29463.830
331.243, 29478.779
331.725, 29482.471
332.207, 29469.350
332.689, 29446.330
333.171, 29432.539
333.653, 29425.400
334.135, 29431.910
334.617, 29463.391
335.100, 29547.891
335.582, 29574.920
336.064, 29521.619
336.546, 29428.189
337.028, 29373.471
337.510, 29367.029
337.992, 29374.660
338.474, 29384.020
338.957, 29394.250
339.439, 29407.711
339.921, 29421.051
340.403, 29441.211
340.885, 29492.570
341.367, 29584.900
341.849, 29634.740
342.331, 29594.270
342.813, 29476.080
343.296, 29403.090
343.778, 29381.301
344.260, 29382.760
344.742, 29376.119
345.224, 29363.180
345.706, 29365.131
346.188, 29401.910
346.670, 29455.100
347.152, 29461.320
347.635, 29418.971
348.117, 29374.461
348.599, 29376.461
349.081, 29411.439
349.563, 29432.711
350.045, 29422.080
350.527, 29396.609
351.009, 29381.420
351.491, 29374.961
351.974, 29371.990
352.456, 29368.590
352.938, 29365.250
353.420, 29363.170
353.902, 29362.180
354.384, 29362.490
354.866, 29378.900
355.349, 29400.801
355.831, 29393.609
356.313, 29302.189
356.795, 29192.150
357.277, 29133.680
357.759, 29151.199
358.241, 29171.619
358.723, 29146.980
359.205, 29093.410
359.688, 29039.641
360.170, 28991.789
360.652, 28951.750
361.134, 28924.420
361.616, 28912.590
362.098, 28894.051
362.580, 28843.000
363.062, 28785.891
363.544, 28752.869
364.027, 28786.170
364.509, 28810.721
364.991, 28801.789
365.473, 28757.340
365.955, 28702.230
366.437, 28634.160
366.919, 28560.080
367.401, 28486.270
367.884, 28379.811
368.366, 28311.939
368.848, 28320.670
369.330, 28391.051
369.812, 28407.020
370.294, 28332.471
370.776, 28236.750
371.258, 28155.930
371.741, 28086.080
372.223, 28037.660
372.705, 28020.900
373.187, 28023.160
373.669, 28007.381
374.151, 27960.789
374.633, 27919.100
375.115, 27902.170
375.597, 27919.221
376.079, 27909.689
376.562, 27866.711
377.044, 27805.141
377.526, 27743.711
378.008, 27679.029
378.490, 27633.561
378.972, 27625.641
379.454, 27648.670
379.936, 27648.680
380.419, 27626.820
380.901, 27579.609
381.383, 27482.641
381.865, 27345.020
382.347, 27246.670
382.829, 27221.570
383.311, 27241.881
383.793, 27255.680
384.276, 27262.801
384.758, 27253.539
385.240, 27199.961
385.722, 27125.689
386.204, 27083.240
386.686, 27094.061
387.168, 27119.820
387.650, 27115.131
388.132, 27087.801
388.615, 27067.609
389.097, 27086.039
389.579, 27111.340
390.061, 27109.369
390.543, 27071.051
391.025, 27022.490
391.507, 26977.090
391.989, 26933.051
392.471, 26887.721
392.954, 26826.850
393.436, 26776.180
393.918, 26754.289
394.400, 26764.641
394.882, 26775.391
395.364, 26763.240
395.846, 26754.131
396.328, 26771.189
396.810, 26876.240
397.293, 26947.260
397.775, 26950.510
398.257, 26891.221
398.739, 26825.029
399.221, 26729.449
399.703, 26647.250
400.185, 26600.600
400.668, 26620.279
401.150, 26625.500
401.632, 26606.150
402.114, 26573.410
402.596, 26558.180
403.078, 26579.410
403.560, 26584.820
404.042, 26543.490
404.524, 26441.949
405.007, 26395.180
405.489, 26424.119
405.971, 26475.990
406.453, 26473.770
406.935, 26408.520
407.417, 26352.670
407.899, 26327.260
408.381, 26327.900
408.863, 26339.141
409.346, 26362.230
409.828, 26385.430
410.310, 26402.070
410.792, 26411.080
411.274, 26405.539
411.756, 26379.500
412.238, 26346.211
412.720, 26323.070
413.203, 26310.211
413.685, 26306.660
414.167, 26325.350
414.649, 26348.461
415.131, 26341.801
415.613, 26292.811
416.095, 26254.100
416.577, 26292.510
417.060, 26368.330
417.542, 26410.760
418.024, 26348.580
418.506, 26272.289
418.988, 26252.490
419.470, 26290.330
419.952, 26303.311
420.434, 26222.020
420.916, 26118.471
421.398, 26053.529
421.881, 26094.480
422.363, 26120.010
422.845, 26090.641
423.327, 26020.289
423.809, 25970.539
424.291, 25977.619
424.773, 25983.730
425.255, 25962.801
425.738, 25896.930
426.220, 25842.740
426.702, 25801.160
427.184, 25771.711
427.666, 25755.270
428.148, 25763.881
428.630, 25760.840
429.112, 25732.471
429.595, 25678.100
430.077, 25626.789
430.559, 25574.500
431.041, 25533.080
431.523, 25523.211
432.005, 25547.990
432.487, 25542.961
432.969, 25486.650
433.451, 25402.850
433.934, 25346.289
434.416, 25316.939
434.898, 25304.811
435.380, 25320.561
435.862, 25348.920
436.344, 25344.330
436.826, 25298.850
437.308, 25238.420
437.790, 25181.230
438.273, 25130.520
438.755, 25095.020
439.237, 25078.131
439.719, 25077.830
440.201, 25099.961
440.683, 25143.029
441.165, 25180.301
441.647, 25201.990
442.129, 25206.939
442.612, 25193.260
443.094, 25150.869
443.576, 25101.961
444.058, 25043.250
444.540, 24982.160
445.022, 24940.350
445.504, 24971.600
445.987, 24982.811
446.469, 24920.680
446.951, 24725.160
447.433, 24609.141
447.915, 24629.199
448.397, 24704.020
448.879, 24738.180
449.361, 24715.359
449.843, 24679.230
450.326, 24630.090
450.808, 24571.189
451.290, 24538.779
451.772, 24541.830
452.254, 24549.369
452.736, 24538.811
453.218, 24508.789
453.700, 24476.029
454.182, 24443.820
454.665, 24406.359
455.147, 24348.330
455.629, 24270.770
456.111, 24199.770
456.593, 24150.570
457.075, 24117.619
457.557, 24085.920
458.039, 24054.400
458.522, 24035.410
459.004, 24057.881
459.486, 24098.070
459.968, 24111.430
460.450, 24071.270
460.932, 24015.600
461.414, 23971.211
461.896, 23936.480
462.379, 23904.211
462.861, 23880.381
463.343, 23851.471
463.825, 23801.699
464.307, 23714.891
464.789, 23652.510
465.271, 23652.480
465.753, 23680.350
466.235, 23690.199
466.717, 23651.939
467.200, 23619.221
467.682, 23609.029
468.164, 23620.381
468.646, 23614.359
469.128, 23579.010
469.610, 23538.789
470.092, 23508.010
470.574, 23487.180
471.057, 23474.449
471.539, 23474.109
472.021, 23476.631
472.503, 23457.420
472.985, 23411.311
473.467, 23376.381
473.949, 23374.490
474.431, 23398.789
474.914, 23408.641
475.396, 23403.369
475.878, 23393.240
476.360, 23398.270
476.842, 23407.939
477.324, 23386.051
477.806, 23306.910
478.288, 23221.789
478.770, 23195.939
479.253, 23215.869
479.735, 23234.570
480.217, 23212.461
480.699, 23187.080
481.181, 23194.340
481.663, 23242.910
482.145, 23289.789
482.627, 23315.619
483.109, 23328.080
483.592, 23335.100
484.074, 23314.779
484.556, 23312.461
485.038, 23358.430
485.520, 23441.090
486.002, 23474.811
486.484, 23408.680
486.966, 23340.779
487.448, 23319.449
487.931, 23380.189
488.413, 23383.510
488.895, 23304.730
489.377, 23195.180
489.859, 23134.699
490.341, 23135.859
490.823, 23124.100
491.306, 23071.949
491.788, 22994.029
492.270, 22960.029
492.752, 22973.439
493.234, 22976.410
493.716, 22901.609
494.198, 22778.600
494.680, 22709.330
495.162, 22713.820
495.645, 22741.330
496.127, 22745.631
496.609, 22729.891
497.091, 22701.900
497.573, 22648.010
498.055, 22595.551
498.537, 22571.471
499.019, 22573.561
499.501, 22568.340
499.984, 22519.551
500.466, 22470.820
500.948, 22456.811
501.430, 22511.260
501.912, 22557.061
502.394, 22586.400
502.876, 22597.789
503.358, 22586.551
503.841, 22519.070
504.323, 22472.760
504.805, 22475.590
505.287, 22529.461
505.769, 22550.830
506.251, 22525.199
506.733, 22492.551
507.215, 22486.029
507.698, 22508.570
508.180, 22523.930
508.662, 22527.920
509.144, 22523.170
509.626, 22509.230
510.108, 22487.551
510.590, 22475.189
511.072, 22492.730
511.554, 22521.670
512.036, 22522.740
512.519, 22496.820
513.001, 22468.840
513.483, 22460.529
513.965, 22460.850
514.447, 22453.939
514.929, 22427.820
515.411, 22409.961
515.893, 22419.400
516.375, 22446.939
516.858, 22474.260
517.340, 22496.680
517.822, 22516.141
518.304, 22529.631
518.786, 22534.881
519.268, 22553.480
519.750, 22603.289
520.232, 22651.490
520.715, 22676.340
521.197, 22672.100
521.679, 22655.010
522.161, 22616.930
522.643, 22573.900
523.125, 22561.740
523.607, 22584.910
524.089, 22612.820
524.571, 22636.609
525.054, 22655.689
525.536, 22664.279
526.018, 22661.971
526.500, 22657.449
526.982, 22663.949
527.464, 22672.961
527.946, 22662.240
528.429, 22620.490
528.911, 22577.760
529.393, 22562.660
529.875, 22567.240
530.357, 22575.439
530.839, 22589.270
531.321, 22597.109
531.803, 22588.029
532.286, 22562.660
532.768, 22545.131
533.250, 22554.260
533.732, 22564.779
534.214, 22560.561
534.696, 22525.529
535.178, 22502.641
535.660, 22501.061
536.142, 22507.600
536.625, 22498.811
537.107, 22466.189
537.589, 22443.020
538.071, 22440.750
538.553, 22455.381
539.035, 22464.221
539.517, 22466.119
539.999, 22471.150
540.481, 22485.141
540.964, 22507.920
541.446, 22545.801
541.928, 22604.109
542.410, 22651.859
542.892, 22640.570
543.374, 22594.869
543.856, 22564.240
544.338, 22579.279
544.820, 22606.779
545.303, 22624.980
545.785, 22635.779
546.267, 22648.141
546.749, 22672.061
547.231, 22693.189
547.713, 22703.990
548.195, 22702.680
548.677, 22694.949
549.159, 22688.090
549.642, 22671.609
550.124, 22628.619
550.606, 22524.020
551.088, 22474.820
551.570, 22520.230
552.052, 22622.381
552.534, 22656.330
553.016, 22610.369
553.499, 22565.320
553.981, 22572.689
554.463, 22617.391
554.945, 22619.381
555.427, 22575.801
555.909, 22529.539
556.391, 22519.221
556.873, 22535.070
557.356, 22564.119
557.838, 22620.600
558.320, 22653.820
558.802, 22592.461
559.284, 22480.779
559.766, 22408.131
560.248, 22431.160
560.730, 22481.471
561.213, 22541.561
561.695, 22610.391
562.177, 22653.051
562.659, 22627.061
563.141, 22603.580
563.623, 22624.000
564.105, 22731.990
564.587, 22779.711
565.069, 22743.881
565.552, 22672.830
566.034, 22636.789
566.516, 22637.971
566.998, 22651.730
567.480, 22677.711
567.962, 22707.189
568.444, 22711.279
568.926, 22692.010
569.408, 22677.270
569.891, 22696.910
570.373, 22727.529
570.855, 22728.990
571.337, 22696.000
571.819, 22666.350
572.301, 22679.119
572.783, 22704.301
573.265, 22707.711
573.747, 22648.881
574.230, 22608.480
574.712, 22623.740
575.194, 22673.381
575.676, 22704.230
576.158, 22701.641
576.640, 22692.109
577.122, 22679.211
577.604, 22663.170
578.086, 22659.240
578.569, 22672.910
579.051, 22687.320
579.533, 22692.340
580.015, 22688.260
580.497, 22668.990
580.979, 22629.789
581.461, 22590.910
581.943, 22579.199
582.426, 22590.039
582.908, 22609.520
583.390, 22641.180
583.872, 22669.760
584.354, 22672.869
584.836, 22657.211
585.318, 22646.801
585.800, 22653.311
586.282, 22667.990
586.765, 22639.029
587.247, 22678.213
587.729, 22700.854
588.211, 22707.842
588.693, 22652.299
589.175, 22677.504
589.657, 22670.348
590.140, 22661.865
590.622, 22698.436
591.104, 22651.988
591.586, 22687.842
592.068, 22690.844
592.550, 22708.881
593.032, 22694.359
593.514, 22689.893
593.996, 22690.439
594.479, 22726.039
594.961, 22755.070
595.443, 22739.340
595.925, 22705.801
596.407, 22697.330
596.889, 22720.711
597.371, 22743.539
597.853, 22740.400
598.335, 22728.080
598.818, 22724.391
599.300, 22743.881
599.782, 22760.740
600.264, 22763.680
600.746, 22760.510
601.228, 22771.020
601.710, 22816.240
602.192, 22842.480
602.674, 22827.859
603.157, 22776.840
603.639, 22751.740
604.121, 22756.869
604.603, 22770.449
605.085, 22776.551
605.567, 22777.381
606.049, 22783.699
606.531, 22794.971
607.013, 22819.580
607.496, 22889.230
607.978, 22975.580
608.460, 23022.301
608.942, 22993.270
609.424, 22949.051
609.906, 22915.561
610.388, 22896.490
610.870, 22901.061
611.353, 22973.811
611.835, 23029.689
612.317, 23026.881
612.799, 22963.711
613.281, 22930.170
613.763, 22938.480
614.245, 22960.770
614.727, 22986.711
615.209, 23021.330
615.692, 23034.359
616.174, 23023.869
616.656, 22998.070
617.138, 22956.971
617.620, 22905.760
618.102, 22870.449
618.584, 22851.100
619.067, 22861.801
619.549, 22934.859
620.031, 22887.631
620.513, 22953.764
620.995, 22992.379
621.477, 23004.955
621.959, 22913.504
622.441, 22956.383
622.923, 22945.428
623.406, 22932.266
623.888, 22994.051
624.370, 22917.730
624.852, 22978.328
625.334, 22974.260
625.816, 22972.580
626.298, 22986.240
626.780, 23008.580
627.263, 23041.211
627.745, 23066.010
628.227, 23080.080
628.709, 23086.789
629.191, 23092.350
629.673, 23095.840
630.155, 23092.730
630.637, 23075.961
631.119, 23055.881
631.602, 23046.529
632.084, 23044.840
632.566, 23035.801
633.048, 22995.711
633.530, 22959.580
634.012, 22952.980
634.494, 22986.119
634.976, 23004.619
635.458, 22997.420
635.941, 22978.090
636.423, 22953.131
636.905, 22916.449
637.387, 22891.250
637.869, 22878.631
638.351, 22876.689
638.833, 22885.461
639.315, 22904.010
639.797, 22922.461
640.280, 22939.490
640.762, 22952.250
641.244, 22948.449
641.726, 22934.471
642.208, 22933.699
642.690, 22979.859
643.172, 23028.600
643.654, 23046.410
644.137, 23032.770
644.619, 23015.090
645.101, 22979.170
645.583, 22959.869
646.065, 22986.750
646.547, 23095.570
647.029, 23149.590
647.511, 23124.061
647.994, 23074.381
648.476, 23061.570
648.958, 23089.510
649.440, 23104.900
649.922, 23092.170
650.404, 23075.660
650.886, 23101.580
651.368, 23161.480
651.851, 23222.520
652.333, 23280.420
652.815, 23324.529
653.297, 23336.980
653.779, 23324.029
654.261, 23310.971
654.743, 23319.990
655.225, 23323.471
655.707, 23296.811
656.190, 23229.609
656.672, 23209.420
657.154, 23284.869
657.636, 23359.881
658.118, 23366.301
658.600, 23282.539
659.082, 23234.260
659.564, 23230.510
660.046, 23245.561
660.529, 23245.311
661.011, 23233.471
661.493, 23233.109
661.975, 23254.971
662.457, 23280.221
662.939, 23286.631
663.421, 23280.449
663.903, 23275.289
664.385, 23286.020
664.868, 23292.150
665.350, 23274.660
665.832, 23239.881
666.314, 23227.109
666.796, 23257.650
667.278, 23296.260
667.760, 23337.980
668.242, 23384.930
668.724, 23388.961
669.207, 23333.189
669.689, 23278.020
670.171, 23274.551
670.653, 23315.609
671.135, 23359.750
671.617, 23403.500
672.099, 23442.311
672.581, 23460.760
673.064, 23473.340
673.546, 23507.529
674.028, 23586.740
674.510, 23662.699
674.992, 23723.080
675.474, 23762.340
675.956, 23771.170
676.438, 23706.920
676.920, 23663.689
677.403, 23684.820
677.885, 23743.270
678.367, 23714.160
678.849, 23569.869
679.331, 23424.789
679.813, 23318.170
680.295, 23250.250
680.778, 23226.930
681.260, 23247.711
681.742, 23283.250
682.224, 23318.650
682.706, 23351.369
683.188, 23375.400
683.670, 23388.020
684.152, 23406.980
684.634, 23445.221
685.117, 23492.510
685.599, 23541.650
686.081, 23618.561
686.563, 23651.000
687.045, 23598.570
687.527, 23526.109
688.009, 23525.090
688.491, 23621.859
688.973, 23691.689
689.456, 23710.740
689.938, 23694.740
690.420, 23657.570
690.902, 23606.410
691.384, 23588.311
691.866, 23663.199
692.348, 23752.721
692.830, 23737.350
693.312, 23646.289
693.795, 23603.131
694.277, 23716.029
694.759, 23849.020
695.241, 23939.779
695.723, 23982.721
696.205, 23980.910
696.687, 23894.680
697.169, 23812.289
697.652, 23786.270
698.134, 23827.680
698.616, 23854.920
699.098, 23867.230
699.580, 23870.850
700.062, 23880.211
700.544, 23887.570
701.026, 23856.650
701.508, 23769.461
701.991, 23691.520
702.473, 23685.330
702.955, 23724.801
703.437, 23772.430
703.919, 23862.529
704.401, 23905.561
704.883, 23836.689
705.365, 23707.340
705.847, 23634.400
706.330, 23643.359
706.812, 23660.471
707.294, 23670.471
707.776, 23675.949
708.258, 23690.660
708.740, 23715.029
709.222, 23730.359
709.705, 23717.430
710.187, 23692.680
710.669, 23692.260
711.151, 23712.859
711.633, 23725.830
712.115, 23700.961
712.597, 23670.760
713.079, 23663.420
713.561, 23687.070
714.044, 23694.760
714.526, 23644.320
715.008, 23602.180
715.490, 23612.180
715.972, 23698.859
716.454, 23753.949
716.936, 23771.881
717.418, 23771.369
717.901, 23764.760
718.383, 23755.590
718.865, 23752.279
719.347, 23741.109
719.829, 23691.064
720.311, 23778.049
720.793, 23831.775
721.275, 23854.023
721.757, 23750.521
722.240, 23809.398
722.722, 23803.203
723.204, 23794.336
723.686, 23840.240
724.168, 23900.301
724.650, 23948.301
725.132, 23958.090
725.614, 23940.301
726.096, 23930.869
726.579, 23930.180
727.061, 23929.949
727.543, 23923.961
728.025, 23916.721
728.507, 23921.789
728.989, 23936.311
729.471, 23942.070
729.953, 23909.090
730.435, 23878.480
730.918, 23889.070
731.400, 23947.801
731.882, 23981.490
732.364, 23958.900
732.846, 23926.180
733.328, 23903.859
733.810, 23892.430
734.292, 23888.740
734.775, 23893.061
735.257, 23903.301
735.739, 23924.010
736.221, 23949.529
736.703, 23951.711
737.185, 23921.631
737.667, 23901.391
738.149, 23951.359
738.631, 24024.891
739.114, 24061.141
739.596, 24021.160
740.078, 23984.141
740.560, 23970.449
741.042, 23973.090
741.524, 23982.949
742.006, 24006.779
742.489, 24021.381
742.971, 24016.570
743.453, 24009.619
743.935, 24040.971
744.417, 24107.141
744.899, 24165.350
745.381, 24194.891
745.863, 24215.471
746.345, 24261.369
746.828, 24319.020
747.310, 24352.680
747.792, 24307.961
748.274, 24272.850
748.756, 24300.430
749.238, 24379.430
749.720, 24427.721
750.202, 24437.400
750.684, 24426.961
751.167, 24403.381
751.649, 24367.051
752.131, 24300.439
752.613, 24202.020
753.095, 24135.270
753.577, 24169.730
754.059, 24254.141
754.541, 24288.480
755.023, 24274.080
755.506, 24278.010
755.988, 24362.301
756.470, 24460.189
756.952, 24528.551
757.434, 24558.170
757.916, 24567.721
758.398, 24538.670
758.880, 24511.801
759.362, 24522.471
759.845, 24578.279
760.327, 24586.600
760.809, 24535.340
761.291, 24489.381
761.773, 24531.430
762.255, 24626.631
762.737, 24697.330
763.219, 24729.279
763.702, 24750.590
764.184, 24766.570
764.666, 24789.430
765.148, 24832.869
765.630, 24926.949
766.112, 24999.289
766.594, 25023.131
767.076, 25040.199
767.558, 25106.320
768.041, 25227.840
768.523, 25348.029
769.005, 25456.400
769.487, 25560.650
769.969, 25678.461
770.451, 25801.150
770.933, 25907.789
771.416, 25981.221
771.898, 26049.840
772.380, 26140.811
772.862, 26238.811
773.344, 26314.750
773.826, 26334.990
774.308, 26365.580
774.790, 26420.199
775.272, 26491.891
775.755, 26562.859
776.237, 26634.900
776.719, 26701.561
777.201, 26762.250
777.683, 26816.279
778.165, 26868.650
778.647, 26914.480
779.129, 26932.590
779.612, 26868.689
780.094, 26811.359
780.576, 26842.279
781.058, 26938.641
781.540, 26986.930
782.022, 26914.711
782.504, 26845.939
782.986, 26810.869
783.468, 26806.369
783.951, 26819.010
784.433, 26853.609
784.915, 26868.250
785.397, 26830.439
785.879, 26759.160
786.361, 26686.420
786.843, 26615.721
787.325, 26565.480
787.807, 26577.320
788.290, 26590.461
788.772, 26557.211
789.254, 26473.570
789.736, 26401.529
790.218, 26334.000
790.700, 26295.680
791.182, 26311.369
791.664, 26381.439
792.146, 26390.359
792.629, 26330.711
793.111, 26262.061
793.593, 26229.000
794.075, 26215.881
794.557, 26193.551
795.039, 26160.150
795.521, 26125.551
796.003, 26088.631
796.485, 26058.199
796.968, 26042.400
797.450, 26046.561
797.932, 26051.221
798.414, 26070.471
798.896, 26071.289
799.378, 26021.510
799.860, 25920.061
800.343, 25847.980
800.825, 25809.820
801.307, 25781.770
801.789, 25740.160
802.271, 25695.811
802.753, 25668.020
803.235, 25661.721
803.717, 25653.260
804.199, 25617.270
804.682, 25583.430
805.164, 25582.670
805.646, 25645.920
806.128, 25648.180
806.610, 25560.320
807.092, 25465.420
807.574, 25451.859
808.056, 25508.859
808.539, 25548.811
809.021, 25563.961
809.503, 25559.570
809.985, 25524.840
810.467, 25480.699
810.949, 25452.189
811.431, 25445.240
811.913, 25451.471
812.395, 25481.840
812.878, 25515.211
813.360, 25535.740
813.842, 25545.561
814.324, 25528.789
814.806, 25475.510
815.288, 25421.449
815.770, 25418.211
816.252, 25449.189
816.734, 25456.301
817.217, 25424.221
817.699, 25395.000
818.181, 25418.631
818.663, 25454.141
819.145, 25454.750
819.627, 25377.980
820.109, 25328.580
820.591, 25324.430
821.073, 25339.750
821.556, 25349.811
822.038, 25354.100
822.520, 25363.961
823.002, 25383.090
823.484, 25397.859
823.966, 25389.430
824.448, 25365.051
824.930, 25334.170
825.413, 25289.891
825.895, 25265.580
826.377, 25293.561
826.859, 25341.350
827.341, 25369.109
827.823, 25332.430
828.305, 25298.629
828.787, 25342.670
829.269, 25367.816
829.752, 25375.082
830.234, 25310.918
830.716, 25338.990
831.198, 25330.100
831.680, 25319.691
832.162, 25360.748
832.644, 25306.973
833.127, 25347.213
833.609, 25349.922
834.091, 25369.809
834.573, 25352.502
835.055, 25346.684
835.537, 25378.070
836.019, 25388.855
836.501, 25367.268
836.983, 25388.246
837.466, 25350.131
837.948, 25350.789
838.430, 25359.850
838.912, 25365.260
839.394, 25364.570
839.876, 25360.270
840.358, 25350.750
840.840, 25340.080
841.322, 25332.400
841.805, 25329.500
842.287, 25328.461
842.769, 25333.641
843.251, 25334.199
843.733, 25311.961
844.215, 25269.971
844.697, 25247.400
845.179, 25247.990
845.661, 25268.189
846.144, 25328.230
846.626, 25394.160
847.108, 25418.949
847.590, 25379.109
848.072, 25350.551
848.554, 25374.010
849.036, 25400.430
849.518, 25391.850
850.000, 25335.369
850.483, 25300.961
850.965, 25292.260
851.447, 25292.770
851.929, 25281.820
852.411, 25269.580
852.893, 25281.490
853.375, 25322.490
853.857, 25367.949
854.340, 25435.631
854.822, 25480.670
855.304, 25452.170
855.786, 25305.070
856.268, 25248.141
856.750, 25316.840
857.232, 25412.199
857.714, 25463.279
858.196, 25475.680
858.679, 25492.211
859.161, 25513.869
859.643, 25533.240
860.125, 25539.631
860.607, 25543.500
861.089, 25555.830
861.571, 25577.830
862.054, 25598.551
862.536, 25607.869
863.018, 25623.260
863.500, 25660.141
863.982, 25718.391
864.464, 25733.240
864.946, 25700.949
865.428, 25661.391
865.910, 25635.631
866.393, 25623.211
866.875, 25634.070
867.357, 25663.840
867.839, 25676.551
868.321, 25636.510
868.803, 25592.699
869.285, 25575.561
869.767, 25581.480
870.250, 25566.160
870.732, 25518.131
871.214, 25488.561
871.696, 25508.750
872.178, 25561.311
872.660, 25598.680
873.142, 25622.510
873.624, 25639.199
874.106, 25651.650
874.589, 25658.350
875.071, 25642.330
875.553, 25614.789
876.035, 25633.980
876.517, 25746.189
876.999, 25820.289
877.481, 25811.760
877.963, 25751.779
878.445, 25721.320
878.928, 25719.990
879.410, 25748.189
879.892, 25835.359
880.374, 25914.721
880.856, 25907.740
881.338, 25848.631
881.820, 25806.949
882.302, 25824.750
882.784, 25833.020
883.267, 25813.641
883.749, 25784.641
884.231, 25782.561
884.713, 25808.211
885.195, 25823.820
885.677, 25815.730
886.159, 25810.100
886.641, 25852.180
887.123, 25916.230
887.606, 25957.090
888.088, 25941.920
888.570, 25937.109
889.052, 25961.289
889.534, 26005.660
890.016, 26072.061
890.498, 26179.580
890.981, 26211.930
891.463, 26146.990
891.945, 26059.301
892.427, 26026.930
892.909, 26031.631
893.391, 26033.279
893.873, 26021.109
894.355, 26033.410
894.837, 26124.660
895.320, 26221.760
895.802, 26262.090
896.284, 26229.430
896.766, 26219.891
897.248, 26239.820
897.730, 26262.721
898.212, 26278.090
898.694, 26280.090
899.177, 26237.250
899.659, 26152.711
900.141, 26083.250
900.623, 26071.980
901.105, 26082.150
901.587, 26098.949
902.069, 26121.410
902.551, 26118.660
903.033, 26076.529
903.516, 26043.330
903.998, 26049.119
904.480, 26074.869
904.962, 26035.971
905.444, 25946.279
905.926, 25887.881
906.408, 25930.039
906.890, 25997.230
907.372, 26046.980
907.855, 26080.109
908.337, 26102.850
908.819, 26119.789
909.301, 26119.391
909.783, 26093.820
910.265, 26055.420
910.747, 26028.410
911.229, 26012.631
911.711, 26007.990
912.194, 26017.250
912.676, 26031.471
913.158, 26042.570
913.640, 26053.391
914.122, 26067.760
914.604, 26095.350
915.086, 26113.100
915.568, 26119.949
916.050, 26116.930
916.533, 26101.381
917.015, 26074.789
917.497, 26057.119
917.979, 26051.779
918.461, 26048.711
918.943, 26029.100
919.425, 26013.480
919.907, 26027.289
920.390, 26080.971
920.872, 26129.689
921.354, 26166.150
921.836, 26198.211
922.318, 26228.109
922.800, 26256.020
923.282, 26294.061
923.765, 26341.180
924.247, 26381.039
924.729, 26398.020
925.211, 26403.680
925.693, 26408.859
926.175, 26412.971
926.657, 26412.119
927.139, 26389.221
927.621, 26380.961
928.104, 26401.910
928.586, 26442.471
929.068, 26472.211
929.550, 26491.359
930.032, 26496.439
930.514, 26477.660
930.996, 26458.650
931.478, 26491.461
931.960, 26537.801
932.443, 26528.131
932.925, 26359.859
933.407, 26248.721
933.889, 26228.619
934.371, 26258.051
934.853, 26292.881
935.335, 26332.270
935.817, 26354.740
936.299, 26353.619
936.782, 26358.170
937.264, 26414.180
937.746, 26482.439
938.228, 26516.199
938.710, 26501.990
939.192, 26479.131
939.674, 26438.961
940.156, 26410.141
940.638, 26416.230
941.121, 26454.449
941.603, 26459.311
942.085, 26431.600
942.567, 26419.090
943.049, 26485.311
943.531, 26558.881
944.013, 26558.260
944.495, 26496.320
944.978, 26460.689
945.460, 26501.080
945.942, 26527.680
946.424, 26515.789
946.906, 26480.090
947.388, 26459.711
947.870, 26453.801
948.352, 26452.939
948.834, 26454.609
949.317, 26459.279
949.799, 26467.990
950.281, 26479.881
950.763, 26493.580
951.245, 26507.340
951.727, 26526.471
952.209, 26556.650
952.692, 26583.180
953.174, 26586.711
953.656, 26570.391
954.138, 26551.971
954.620, 26531.801
955.102, 26530.039
955.584, 26586.189
956.066, 26650.859
956.548, 26676.391
957.031, 26651.699
957.513, 26655.330
957.995, 26709.090
958.477, 26751.561
958.959, 26742.029
959.441, 26702.350
959.923, 26656.080
960.405, 26630.428
960.888, 26739.693
961.370, 26816.203
961.852, 26861.723
962.334, 26783.445
962.816, 26865.029
963.298, 26882.543
963.780, 26931.789
964.262, 26947.359
964.744, 26901.289
965.227, 26837.699
965.709, 26822.189
966.191, 26844.141
966.673, 26881.000
967.155, 26936.801
967.637, 26967.949
968.119, 26910.561
968.601, 26846.779
969.083, 26854.770
969.566, 26956.391
970.048, 27012.221
970.530, 27017.039
971.012, 27001.721
971.494, 26979.260
971.976, 26955.619
972.458, 26943.461
972.940, 26941.461
973.422, 26939.189
973.905, 26927.391
974.387, 26919.670
974.869, 26919.961
975.351, 26928.180
975.833, 26944.240
976.315, 26967.920
976.797, 27001.131
977.279, 27047.369
977.761, 27095.461
978.244, 27146.359
978.726, 27185.100
979.208, 27183.359
979.690, 27100.510
980.172, 27041.811
980.654, 27034.270
981.136, 27042.010
981.619, 27033.631
982.101, 27009.721
982.583, 27004.551
983.065, 27019.801
983.547, 27031.660
984.029, 27011.650
984.511, 26988.070
984.993, 26994.910
985.475, 27030.539
985.958, 27036.680
986.440, 26992.109
986.922, 26949.330
987.404, 26922.461
987.886, 26909.131
988.368, 26909.490
988.850, 26919.150
989.332, 26916.811
989.815, 26880.160
990.297, 26855.311
990.779, 26880.660
991.261, 26929.551
991.743, 26966.971
992.225, 26989.260
992.707, 27005.490
993.189, 27014.520
993.671, 27021.699
994.154, 27038.369
994.636, 27055.010
995.118, 27047.471
995.600, 27015.279
996.082, 26985.381
996.564, 26959.881
997.046, 26951.480
997.528, 26961.100
998.010, 26990.920
998.493, 27066.369
998.975, 27191.580
999.457, 27287.109
999.939, 27317.770
1000.421, 27310.789
1000.903, 27293.039
1001.385, 27263.119
1001.867, 27218.061
1002.349, 27124.449
1002.832, 27063.820
1003.314, 27039.391
1003.796, 27050.590
1004.278, 27118.480
1004.760, 27230.900
1005.242, 27280.240
1005.724, 27260.189
1006.206, 27226.900
1006.689, 27208.961
1007.171, 27204.490
1007.653, 27224.330
1008.135, 27265.520
1008.617, 27263.340
1009.099, 27195.391
1009.581, 27148.289
1010.063, 27149.600
1010.545, 27190.670
1011.028, 27276.461
1011.510, 27386.061
1011.992, 27471.699
1012.474, 27521.221
1012.956, 27534.131
1013.438, 27481.949
1013.920, 27410.670
1014.402, 27361.881
1014.885, 27336.400
1015.367, 27328.330
1015.849, 27338.699
1016.331, 27351.699
1016.813, 27358.430
1017.295, 27357.859
1017.777, 27338.930
1018.259, 27305.699
1018.741, 27301.990
1019.224, 27369.199
1019.706, 27413.920
1020.188, 27401.811
1020.670, 27363.070
1021.152, 27371.230
1021.634, 27419.221
1022.116, 27475.430
1022.598, 27428.363
1023.081, 27510.447
1023.563, 27561.166
1024.045, 27582.225
1024.527, 27484.781
1025.009, 27540.357
1025.491, 27534.609
1025.973, 27526.348
1026.455, 27603.459
1026.938, 27523.275
1027.420, 27590.660
1027.902, 27599.561
1028.384, 27625.680
1028.866, 27641.230
1029.348, 27626.160
1029.830, 27610.461
1030.312, 27601.471
1030.794, 27598.289
1031.276, 27590.740
1031.759, 27582.730
1032.241, 27542.943
1032.723, 27631.953
1033.205, 27689.697
1033.687, 27717.859
1034.169, 27627.828
1034.651, 27688.350
1035.133, 27647.979
1035.616, 27720.566
1036.098, 27765.721
1036.580, 27784.932
1037.062, 27700.502
1037.544, 27749.902
1038.026, 27745.670
1038.508, 27739.240
1038.990, 27807.477
1039.473, 27738.143
1039.955, 27805.193
1040.437, 27817.797
1040.919, 27855.318
1041.401, 27838.877
1041.883, 27839.104
1042.365, 27893.311
1042.847, 27917.629
1043.329, 27894.975
1043.812, 27934.102
1044.294, 27862.859
1044.776, 27897.420
1045.258, 27899.811
1045.740, 27899.189
1046.222, 27887.680
1046.704, 27894.631
1047.186, 27941.490
1047.668, 28003.760
1048.151, 28025.850
1048.633, 28017.131
1049.115, 28001.850
1049.597, 27965.641
1050.079, 27960.500
1050.561, 28028.561
1051.043, 28117.910
1051.525, 28189.600
1052.008, 28244.881
1052.490, 28263.570
1052.972, 28243.939
1053.454, 28225.010
1053.936, 28227.910
1054.418, 28251.330
1054.900, 28300.650
1055.382, 28371.359
1055.865, 28439.961
1056.347, 28511.340
1056.829, 28558.971
1057.311, 28572.680
1057.793, 28567.109
1058.275, 28559.490
1058.757, 28552.570
1059.239, 28553.090
1059.721, 28563.471
1060.203, 28578.711
1060.686, 28609.920
1061.168, 28633.770
1061.650, 28630.641
1062.132, 28605.119
1062.614, 28630.730
1063.096, 28704.400
1063.578, 28745.260
1064.060, 28663.779
1064.543, 28579.980
1065.025, 28604.320
1065.507, 28687.971
1065.989, 28731.119
1066.471, 28709.061
1066.953, 28696.010
1067.435, 28696.779
1067.917, 28707.891
1068.400, 28731.381
1068.882, 28760.529
1069.364, 28778.891
1069.846, 28786.480
1070.328, 28811.369
1070.810, 28882.760
1071.292, 28951.211
1071.774, 29008.381
1072.256, 29048.221
1072.739, 29042.711
1073.221, 29000.561
1073.703, 28976.881
1074.185, 28986.609
1074.667, 29019.949
1075.149, 29109.779
1075.631, 29192.631
1076.113, 29196.131
1076.596, 29104.930
1077.078, 29063.320
1077.560, 29078.650
1078.042, 29096.430
1078.524, 29047.820
1079.006, 29111.723
1079.488, 29148.312
1079.970, 29159.059
1080.453, 29066.562
1080.935, 29107.385
1081.417, 29094.777
1081.899, 29079.979
1082.381, 29139.564
1082.863, 29111.670
1083.345, 29190.699
1083.827, 29170.369
1084.309, 29045.670
1084.792, 28959.670
1085.274, 29029.520
1085.756, 29110.961
1086.238, 29137.449
1086.720, 29121.170
1087.202, 29103.330
1087.684, 29083.641
1088.166, 29060.430
1088.648, 29033.141
1089.131, 29002.980
1089.613, 28964.230
1090.095, 28898.436
1090.577, 28977.203
1091.059, 29020.881
1091.541, 29031.352
1092.023, 28909.160
1092.505, 28958.275
1092.988, 28938.734
1093.470, 28916.383
1093.952, 28989.607
1094.434, 28886.713
1094.916, 28958.422
1095.398, 28960.432
1095.880, 28994.342
1096.362, 28959.176
1096.844, 28945.346
1097.327, 29000.609
1097.809, 29017.615
1098.291, 28974.498
1098.773, 29010.436
1099.255, 28905.127
1099.737, 28923.764
1100.219, 28995.877
1100.701, 28956.234
1101.183, 28993.434
1101.666, 29001.365
1102.148, 28876.295
1102.630, 28982.531
1103.112, 28988.734
1103.594, 28892.227
1104.076, 28990.539
1104.558, 28908.191
1105.040, 28920.061
1105.523, 29009.480
1106.005, 29021.859
1106.487, 28903.109
1106.969, 28948.080
1107.451, 28893.516
1107.933, 28964.998
1108.415, 29005.883
1108.897, 29017.816
1109.380, 28914.082
1109.862, 28959.709
1110.344, 28945.477
1110.826, 28928.791
1111.308, 28995.439
1111.790, 28908.527
1112.272, 28965.680
1112.754, 28962.430
1113.236, 28924.471
1113.719, 28885.250
1114.201, 28847.900
1114.683, 28829.340
1115.165, 28843.680
1115.647, 28872.789
1116.129, 28888.561
1116.611, 28891.699
1117.093, 28901.369
1117.575, 28841.383
1118.058, 28919.223
1118.540, 28963.605
1119.022, 28976.330
1119.504, 28862.578
1119.986, 28912.143
1120.468, 28896.258
1120.950, 28877.689
1121.432, 28950.242
1121.915, 28854.889
1122.397, 28925.996
1122.879, 28930.652
1123.361, 28965.723
1123.843, 28934.938
1124.325, 28922.760
1124.807, 28933.939
1125.289, 28945.221
1125.771, 28953.641
1126.254, 28954.301
1126.736, 28953.539
1127.218, 28961.330
1127.700, 28977.641
1128.182, 29002.551
1128.664, 29022.230
1129.146, 29073.820
1129.628, 29179.619
1130.110, 29282.961
1130.593, 29326.439
1131.075, 29324.340
1131.557, 29337.369
1132.039, 29363.600
1132.521, 29379.660
1133.003, 29366.539
1133.485, 29348.570
1133.967, 29327.010
1134.450, 29313.119
1134.932, 29338.320
1135.414, 29397.029
1135.896, 29414.150
1136.378, 29380.150
1136.860, 29331.631
1137.342, 29262.980
1137.824, 29219.410
1138.307, 29258.109
1138.789, 29351.840
1139.271, 29386.080
1139.753, 29357.070
1140.235, 29330.221
1140.717, 29319.730
1141.199, 29325.391
1141.681, 29364.670
1142.163, 29407.869
1142.646, 29418.109
1143.128, 29385.631
1143.610, 29376.650
1144.092, 29399.740
1144.574, 29402.020
1145.056, 29347.410
1145.538, 29276.699
1146.020, 29248.830
1146.502, 29247.811
1146.985, 29245.900
1147.467, 29230.949
1147.949, 29233.721
1148.431, 29261.699
1148.913, 29292.141
1149.395, 29306.381
1149.877, 29312.430
1150.359, 29325.689
1150.842, 29344.830
1151.324, 29365.910
1151.806, 29373.289
1152.288, 29404.830
1152.770, 29480.891
1153.252, 29552.381
1153.734, 29546.061
1154.216, 29491.840
1154.698, 29497.561
1155.181, 29562.830
1155.663, 29609.820
1156.145, 29573.961
1156.627, 29548.930
1157.109, 29570.289
1157.591, 29613.240
1158.073, 29633.490
1158.555, 29634.830
1159.037, 29635.461
1159.520, 29638.410
1160.002, 29641.631
1160.484, 29636.510
1160.966, 29639.580
1161.448, 29670.109
1161.930, 29713.109
1162.412, 29699.461
1162.894, 29634.090
1163.377, 29605.480
1163.859, 29646.340
1164.341, 29689.850
1164.823, 29691.650
1165.305, 29670.260
1165.787, 29635.840
1166.269, 29591.070
1166.751, 29564.820
1167.234, 29557.711
1167.716, 29564.180
1168.198, 29592.211
1168.680, 29616.199
1169.162, 29596.551
1169.644, 29568.420
1170.126, 29583.010
1170.608, 29654.330
1171.090, 29686.461
1171.573, 29672.971
1172.055, 29678.010
1172.537, 29763.619
1173.019, 29868.211
1173.501, 29933.461
1173.983, 29966.010
1174.465, 29976.410
1174.947, 29953.180
1175.430, 29946.439
1175.912, 29959.039
1176.394, 29981.330
1176.876, 30017.789
1177.358, 30050.920
1177.840, 30047.711
1178.322, 30020.891
1178.804, 30023.711
1179.286, 30102.109
1179.769, 30106.750
1180.251, 29998.270
1180.733, 29888.301
1181.215, 29924.109
1181.697, 30024.650
1182.179, 30065.539
1182.661, 30046.750
1183.143, 30055.311
1183.625, 30131.490
1184.108, 30178.000
1184.590, 30164.561
1185.072, 30139.180
1185.554, 30194.189
1186.036, 30276.109
1186.518, 30285.730
1187.000, 30206.561
1187.482, 30133.260
1187.965, 30082.500
1188.447, 30043.590
1188.929, 30008.789
1189.411, 29993.221
1189.893, 30040.631
1190.375, 30125.760
1190.857, 30203.600
1191.339, 30273.590
1191.822, 30286.080
1192.304, 30188.221
1192.786, 30104.520
1193.268, 30087.891
1193.750, 30118.529
1194.232, 30142.570
1194.714, 30173.080
1195.196, 30117.955
1195.678, 30184.627
1196.161, 30221.732
1196.643, 30230.863
1197.125, 30128.225
1197.607, 30169.912
1198.089, 30153.762
1198.571, 30135.238
1199.053, 30165.391
1199.535, 30193.381
1200.017, 30200.881
1200.500, 30206.789
1200.982, 30204.461
1201.464, 30216.971
1201.946, 30276.711
1202.428, 30367.131
1202.910, 30411.990
1203.392, 30415.869
1203.874, 30393.881
1204.357, 30293.449
1204.839, 30249.221
1205.321, 30270.449
1205.803, 30375.199
1206.285, 30343.709
1206.767, 30418.785
1207.249, 30467.996
1207.731, 30492.725
1208.214, 30419.691
1208.696, 30472.912
1209.178, 30487.189
1209.660, 30498.180
1210.142, 30533.400
1210.624, 30584.400
1211.106, 30638.660
1211.588, 30638.090
1212.070, 30583.830
1212.552, 30530.840
1213.035, 30472.539
1213.517, 30467.061
1213.999, 30549.529
1214.481, 30500.787
1214.963, 30566.014
1215.445, 30603.576
1215.927, 30614.959
1216.409, 30521.758
1216.892, 30563.609
1217.374, 30551.336
1217.856, 30536.844
1218.338, 30597.699
1218.820, 30519.709
1219.302, 30579.371
1219.784, 30584.084
1220.266, 30613.945
1220.749, 30589.355
1221.231, 30581.580
1221.713, 30628.279
1222.195, 30644.816
1222.677, 30586.270
1223.159, 30582.750
1223.641, 30631.150
1224.123, 30706.539
1224.605, 30721.910
1225.088, 30649.320
1225.570, 30608.279
1226.052, 30682.471
1226.534, 30752.010
1227.016, 30775.721
1227.498, 30767.740
1227.980, 30742.430
1228.462, 30716.711
1228.944, 30724.289
1229.427, 30759.010
1229.909, 30749.135
1230.391, 30792.719
1230.873, 30823.330
1231.355, 30841.656
1231.837, 30810.926
1232.319, 30843.543
1232.801, 30850.775
1233.284, 30856.996
1233.766, 30884.551
1234.248, 30895.600
1234.730, 30889.100
1235.212, 30887.199
1235.694, 30899.930
1236.176, 30924.750
1236.658, 30966.840
1237.141, 31014.561
1237.623, 31040.410
1238.105, 31029.660
1238.587, 31010.000
1239.069, 30970.039
1239.551, 30955.670
1240.033, 31013.270
1240.515, 31096.609
1240.997, 31100.260
1241.479, 31053.830
1241.962, 31020.340
1242.444, 31025.869
1242.926, 31033.301
1243.408, 31045.801
1243.890, 31047.760
1244.372, 31011.480
1244.854, 30972.109
1245.336, 31004.830
1245.819, 31080.381
1246.301, 31139.689
1246.783, 31149.920
1247.265, 31178.529
1247.747, 31231.840
1248.229, 31273.461
1248.711, 31264.990
1249.193, 31238.850
1249.676, 31245.881
1250.158, 31270.039
1250.640, 31277.609
1251.122, 31265.900
1251.604, 31232.520
1252.086, 31173.631
1252.568, 31122.070
1253.050, 31111.529
1253.532, 31113.770
1254.015, 31095.381
1254.497, 31068.471
1254.979, 31058.840
1255.461, 31072.131
1255.943, 31078.551
1256.425, 31074.801
1256.907, 31086.461
1257.389, 31158.609
1257.871, 31226.279
1258.354, 31226.980
1258.836, 31185.789
##END=



