##NAMES=Orientite
##RRUFFID=R060936
##IDEAL CHEMISTRY=Ca_8_Mn^3+^_10_(SiO_4_)_3_(Si_3_O_10_)_3_(OH)_10_&#183;4H_2_O
##LOCALITY=Cerchiara mine, Liguria, Italy
##OWNER=RRUFF
##SOURCE=Michael Scott
##DESCRIPTION=Hexagonal looking chocolate-brown crystals
##STATUS=The identification of this mineral is confirmed by single-crystal X-ray diffraction and chemical analysis.
##URL=rruff.info/R060936
##MEASURED CHEMISTRY=(Ca_7.49_Mg_0.51_)_Σ=8_(Mn^3+^_9.06_Al_0.94_)_Σ=10_(Si_1.00_O_4_)_3_(Si_3.00_O_10_)_3_(OH)_10_·4H_2_O; OH by charge balance; H_2_O assumed by stoichiometry
167.8112, 1492.099
168.2934, 1496.781
168.7755, 1499.304
169.2576, 1498.200
169.7397, 1493.499
170.2218, 1489.324
170.7039, 1486.206
171.1861, 1484.611
171.6682, 1485.742
172.1503, 1490.006
172.6324, 1493.764
173.1145, 1492.046
173.5966, 1484.337
174.0788, 1480.487
174.5609, 1488.549
175.0430, 1497.539
175.5251, 1497.763
176.0072, 1487.362
176.4893, 1476.161
176.9715, 1476.312
177.4536, 1489.493
177.9357, 1497.905
178.4178, 1489.599
178.8999, 1480.011
179.3820, 1481.070
179.8642, 1494.954
180.3463, 1511.361
180.8284, 1517.420
181.3105, 1510.780
181.7926, 1509.685
182.2747, 1523.578
182.7569, 1541.208
183.2390, 1555.948
183.7211, 1566.636
184.2032, 1576.206
184.6853, 1588.392
185.1674, 1603.774
185.6496, 1617.916
186.1317, 1625.827
186.6138, 1634.895
187.0959, 1650.839
187.5780, 1674.518
188.0601, 1699.787
188.5423, 1719.937
189.0244, 1734.680
189.5065, 1746.255
189.9886, 1752.773
190.4707, 1757.533
190.9528, 1760.668
191.4350, 1762.602
191.9171, 1766.898
192.3992, 1778.095
192.8813, 1797.123
193.3634, 1817.972
193.8455, 1842.139
194.3277, 1866.441
194.8098, 1887.919
195.2919, 1906.508
195.7740, 1926.088
196.2561, 1954.635
196.7382, 1996.039
197.2204, 2023.239
197.7025, 2013.514
198.1846, 2001.801
198.6667, 2006.970
199.1488, 2030.578
199.6309, 2060.443
200.1131, 2086.167
200.5952, 2108.382
201.0773, 2122.332
201.5594, 2117.665
202.0415, 2111.464
202.5236, 2111.383
203.0058, 2118.085
203.4879, 2127.830
203.9700, 2139.461
204.4521, 2154.120
204.9342, 2160.151
205.4163, 2144.924
205.8985, 2130.022
206.3806, 2126.662
206.8627, 2134.222
207.3448, 2144.098
207.8269, 2150.701
208.3090, 2154.481
208.7912, 2148.571
209.2733, 2119.885
209.7554, 2092.608
210.2375, 2077.354
210.7196, 2073.654
211.2017, 2075.843
211.6839, 2079.983
212.1660, 2086.059
212.6481, 2094.240
213.1302, 2106.810
213.6123, 2119.215
214.0944, 2128.258
214.5766, 2135.106
215.0587, 2143.345
215.5408, 2156.877
216.0229, 2175.164
216.5050, 2190.138
216.9871, 2197.195
217.4693, 2206.472
217.9514, 2227.206
218.4335, 2253.857
218.9156, 2273.258
219.3977, 2271.731
219.8798, 2254.153
220.3620, 2251.951
220.8441, 2278.294
221.3262, 2301.645
221.8083, 2308.854
222.2904, 2304.116
222.7725, 2295.671
223.2547, 2288.838
223.7368, 2281.613
224.2189, 2265.193
224.7010, 2231.011
225.1831, 2202.901
225.6652, 2197.221
226.1474, 2201.913
226.6295, 2198.604
227.1116, 2176.514
227.5937, 2142.957
228.0758, 2113.892
228.5579, 2087.699
229.0400, 2070.511
229.5222, 2074.312
230.0043, 2084.844
230.4864, 2084.091
230.9685, 2062.575
231.4506, 2031.365
231.9327, 2009.167
232.4149, 1998.272
232.8970, 1988.012
233.3791, 1975.831
233.8612, 1961.503
234.3433, 1942.660
234.8254, 1915.876
235.3076, 1891.790
235.7897, 1887.301
236.2718, 1905.380
236.7539, 1919.775
237.2360, 1914.853
237.7181, 1905.926
238.2003, 1907.937
238.6824, 1924.734
239.1645, 1945.131
239.6466, 1959.119
240.1287, 1966.789
240.6108, 1972.483
241.0930, 1975.222
241.5751, 1978.237
242.0572, 1984.816
242.5393, 1995.360
243.0214, 2007.032
243.5035, 2019.809
243.9857, 2032.827
244.4678, 2040.187
244.9499, 2038.155
245.4320, 2033.022
245.9141, 2031.104
246.3962, 2032.350
246.8784, 2034.587
247.3605, 2037.254
247.8426, 2040.072
248.3247, 2042.377
248.8068, 2044.309
249.2889, 2045.151
249.7711, 2044.525
250.2532, 2042.482
250.7353, 2038.091
251.2174, 2033.638
251.6995, 2025.801
252.1816, 2005.123
252.6638, 1967.389
253.1459, 1933.114
253.6280, 1926.328
254.1101, 1940.480
254.5922, 1945.208
255.0743, 1929.762
255.5565, 1905.302
256.0386, 1882.385
256.5207, 1861.621
257.0028, 1840.544
257.4849, 1814.630
257.9670, 1786.982
258.4492, 1771.385
258.9313, 1781.672
259.4134, 1792.962
259.8955, 1788.986
260.3776, 1771.019
260.8597, 1745.863
261.3419, 1713.761
261.8240, 1678.996
262.3061, 1657.731
262.7882, 1663.185
263.2703, 1665.682
263.7524, 1649.340
264.2346, 1621.495
264.7167, 1599.209
265.1988, 1590.926
265.6809, 1590.169
266.1630, 1579.575
266.6451, 1552.719
267.1273, 1528.283
267.6094, 1509.934
268.0915, 1495.697
268.5736, 1482.980
269.0557, 1470.961
269.5378, 1460.382
270.0200, 1452.604
270.5021, 1450.452
270.9842, 1445.729
271.4663, 1437.649
271.9484, 1427.447
272.4305, 1415.460
272.9127, 1402.002
273.3948, 1388.277
273.8769, 1375.221
274.3590, 1362.115
274.8411, 1353.360
275.3232, 1351.755
275.8054, 1351.307
276.2875, 1347.991
276.7696, 1342.541
277.2517, 1338.854
277.7338, 1340.591
278.2159, 1347.929
278.6981, 1352.292
279.1802, 1352.526
279.6623, 1350.995
280.1444, 1345.025
280.6265, 1338.036
281.1086, 1336.811
281.5908, 1346.204
282.0729, 1362.697
282.5550, 1370.169
283.0371, 1360.679
283.5192, 1352.578
284.0013, 1345.630
284.4835, 1342.820
284.9656, 1350.749
285.4477, 1372.400
285.9298, 1395.937
286.4119, 1396.126
286.8940, 1359.423
287.3762, 1333.845
287.8583, 1334.028
288.3404, 1341.592
288.8225, 1344.356
289.3046, 1340.011
289.7867, 1334.113
290.2688, 1330.312
290.7509, 1327.944
291.2331, 1336.381
291.7152, 1366.996
292.1973, 1399.418
292.6794, 1422.667
293.1615, 1437.127
293.6436, 1448.366
294.1258, 1460.716
294.6079, 1473.147
295.0900, 1480.331
295.5721, 1480.498
296.0542, 1478.184
296.5363, 1472.862
297.0185, 1467.211
297.5006, 1467.677
297.9827, 1482.089
298.4648, 1500.807
298.9469, 1508.843
299.4290, 1505.040
299.9112, 1499.641
300.3933, 1496.428
300.8754, 1495.792
301.3575, 1498.577
301.8396, 1507.212
302.3217, 1515.770
302.8039, 1521.564
303.2860, 1524.154
303.7681, 1520.917
304.2502, 1509.888
304.7323, 1493.764
305.2144, 1476.597
305.6966, 1457.010
306.1787, 1440.780
306.6608, 1432.439
307.1429, 1427.822
307.6250, 1419.722
308.1071, 1406.101
308.5893, 1392.409
309.0714, 1386.190
309.5535, 1390.825
310.0356, 1388.745
310.5177, 1375.973
310.9998, 1358.985
311.4820, 1339.375
311.9641, 1318.933
312.4462, 1303.302
312.9283, 1297.374
313.4104, 1301.346
313.8925, 1305.656
314.3747, 1317.596
314.8568, 1322.170
315.3389, 1309.286
315.8210, 1286.271
316.3031, 1265.929
316.7852, 1255.063
317.2674, 1251.589
317.7495, 1248.839
318.2316, 1247.959
318.7137, 1246.121
319.1958, 1244.596
319.6779, 1241.270
320.1601, 1233.763
320.6422, 1221.580
321.1243, 1206.793
321.6064, 1190.133
322.0885, 1167.482
322.5706, 1157.707
323.0528, 1175.118
323.5349, 1194.651
324.0170, 1203.958
324.4991, 1203.796
324.9812, 1202.641
325.4633, 1209.995
325.9455, 1223.458
326.4276, 1223.262
326.9097, 1200.008
327.3918, 1178.302
327.8739, 1169.823
328.3560, 1170.570
328.8382, 1174.791
329.3203, 1182.855
329.8024, 1190.369
330.2845, 1188.586
330.7666, 1176.239
331.2487, 1168.628
331.7309, 1175.791
332.2130, 1189.042
332.6951, 1195.502
333.1772, 1192.827
333.6593, 1188.754
334.1414, 1188.245
334.6236, 1190.012
335.1057, 1189.573
335.5878, 1184.812
336.0699, 1180.303
336.5520, 1183.209
337.0341, 1194.056
337.5163, 1202.887
337.9984, 1208.515
338.4805, 1211.144
338.9626, 1209.496
339.4447, 1204.062
339.9268, 1198.623
340.4090, 1195.212
340.8911, 1194.040
341.3732, 1202.148
341.8553, 1232.565
342.3374, 1256.753
342.8195, 1259.069
343.3017, 1248.461
343.7838, 1241.600
344.2659, 1246.573
344.7480, 1259.110
345.2301, 1267.695
345.7122, 1264.359
346.1944, 1269.354
346.6765, 1290.209
347.1586, 1314.567
347.6407, 1332.974
348.1228, 1343.614
348.6049, 1350.585
349.0871, 1357.966
349.5692, 1365.669
350.0513, 1374.489
350.5334, 1384.082
351.0155, 1395.281
351.4977, 1408.615
351.9798, 1423.745
352.4619, 1440.523
352.9440, 1460.284
353.4261, 1480.496
353.9082, 1492.389
354.3904, 1491.377
354.8725, 1496.090
355.3546, 1522.628
355.8367, 1555.789
356.3188, 1580.275
356.8009, 1591.990
357.2831, 1598.798
357.7652, 1605.177
358.2473, 1611.613
358.7294, 1620.884
359.2115, 1634.942
359.6936, 1649.853
360.1758, 1659.604
360.6579, 1664.242
361.1400, 1671.862
361.6221, 1688.186
362.1042, 1706.452
362.5863, 1718.331
363.0685, 1723.564
363.5506, 1729.053
364.0327, 1740.557
364.5148, 1757.461
364.9969, 1769.627
365.4790, 1773.489
365.9612, 1777.417
366.4433, 1783.578
366.9254, 1791.748
367.4075, 1802.025
367.8896, 1814.430
368.3717, 1827.437
368.8539, 1837.839
369.3360, 1844.040
369.8181, 1850.222
370.3002, 1854.954
370.7823, 1860.735
371.2644, 1870.072
371.7465, 1882.503
372.2286, 1894.984
372.7108, 1904.797
373.1929, 1911.997
373.6750, 1918.880
374.1571, 1924.363
374.6392, 1931.160
375.1213, 1941.141
375.6035, 1952.682
376.0856, 1963.161
376.5677, 1971.372
377.0498, 1978.801
377.5319, 1988.179
378.0140, 1999.686
378.4962, 2009.155
378.9783, 2013.683
379.4604, 2017.084
379.9425, 2024.429
380.4246, 2036.185
380.9067, 2046.415
381.3889, 2049.433
381.8710, 2049.982
382.3531, 2057.797
382.8352, 2074.696
383.3173, 2090.854
383.7994, 2098.426
384.2816, 2097.139
384.7637, 2093.511
385.2458, 2080.990
385.7279, 2072.754
386.2100, 2079.939
386.6921, 2095.933
387.1743, 2106.530
387.6564, 2105.162
388.1385, 2095.253
388.6206, 2084.222
389.1027, 2068.911
389.5848, 2057.522
390.0670, 2053.991
390.5491, 2051.178
391.0312, 2042.445
391.5133, 2028.358
391.9954, 2015.815
392.4775, 2012.174
392.9597, 2017.076
393.4418, 2015.970
393.9239, 2003.233
394.4060, 1992.104
394.8881, 1988.493
395.3702, 1988.545
395.8524, 1987.404
396.3345, 1983.864
396.8166, 1976.671
397.2987, 1962.249
397.7808, 1940.437
398.2629, 1920.908
398.7451, 1904.168
399.2272, 1893.161
399.7093, 1893.775
400.1914, 1905.875
400.6735, 1912.454
401.1556, 1902.542
401.6378, 1885.755
402.1199, 1874.506
402.6020, 1869.756
403.0841, 1865.778
403.5662, 1857.503
404.0483, 1846.500
404.5305, 1844.521
405.0126, 1859.772
405.4947, 1873.030
405.9768, 1876.681
406.4589, 1875.739
406.9410, 1877.696
407.4232, 1884.926
407.9053, 1893.578
408.3874, 1897.085
408.8695, 1891.127
409.3516, 1893.265
409.8337, 1911.620
410.3159, 1929.723
410.7980, 1939.317
411.2801, 1942.388
411.7622, 1945.400
412.2443, 1952.155
412.7264, 1961.936
413.2086, 1972.986
413.6907, 1985.684
414.1728, 1998.444
414.6549, 2011.407
415.1370, 2023.714
415.6191, 2034.362
416.1013, 2043.248
416.5834, 2051.058
417.0655, 2057.852
417.5476, 2063.972
418.0297, 2071.148
418.5118, 2080.344
418.9940, 2086.819
419.4761, 2085.282
419.9582, 2076.250
420.4403, 2069.243
420.9224, 2062.611
421.4045, 2059.994
421.8867, 2067.802
422.3688, 2080.812
422.8509, 2087.115
423.3330, 2081.409
423.8151, 2069.352
424.2972, 2061.981
424.7794, 2063.368
425.2615, 2061.685
425.7436, 2059.473
426.2257, 2052.501
426.7078, 2035.547
427.1899, 2010.948
427.6721, 1985.871
428.1542, 1964.648
428.6363, 1947.874
429.1184, 1940.249
429.6005, 1948.289
430.0826, 1951.309
430.5648, 1937.823
431.0469, 1918.664
431.5290, 1904.379
432.0111, 1897.502
432.4932, 1890.739
432.9753, 1877.111
433.4575, 1858.973
433.9396, 1844.105
434.4217, 1834.238
434.9038, 1825.176
435.3859, 1811.782
435.8680, 1795.084
436.3502, 1784.745
436.8323, 1787.588
437.3144, 1790.674
437.7965, 1785.193
438.2786, 1774.768
438.7607, 1767.503
439.2429, 1766.810
439.7250, 1770.255
440.2071, 1773.474
440.6892, 1776.606
441.1713, 1779.115
441.6534, 1782.056
442.1356, 1783.530
442.6177, 1780.913
443.0998, 1775.672
443.5819, 1772.288
444.0640, 1774.580
444.5461, 1780.007
445.0283, 1780.065
445.5104, 1773.035
445.9925, 1765.604
446.4746, 1757.151
446.9567, 1750.943
447.4388, 1751.977
447.9210, 1761.348
448.4031, 1768.290
448.8852, 1764.139
449.3673, 1753.473
449.8494, 1745.283
450.3315, 1740.596
450.8137, 1737.808
451.2958, 1737.506
451.7779, 1738.417
452.2600, 1731.266
452.7421, 1707.451
453.2242, 1686.334
453.7064, 1673.058
454.1884, 1666.512
454.6706, 1667.524
455.1527, 1675.563
455.6348, 1683.467
456.1169, 1680.817
456.5990, 1664.693
457.0811, 1652.466
457.5633, 1649.217
458.0454, 1644.778
458.5275, 1634.315
459.0096, 1620.683
459.4917, 1609.143
459.9738, 1602.293
460.4560, 1597.654
460.9381, 1591.287
461.4202, 1583.161
461.9023, 1575.908
462.3844, 1569.405
462.8665, 1565.077
463.3487, 1566.763
463.8308, 1573.785
464.3129, 1575.027
464.7950, 1556.578
465.2771, 1539.026
465.7592, 1548.423
466.2414, 1578.684
466.7235, 1598.216
467.2056, 1589.156
467.6877, 1562.237
468.1698, 1545.322
468.6519, 1546.974
469.1341, 1546.948
469.6162, 1540.994
470.0983, 1536.668
470.5804, 1541.157
471.0625, 1553.097
471.5446, 1564.645
472.0268, 1569.665
472.5089, 1569.545
472.9910, 1569.135
473.4731, 1565.037
473.9552, 1569.108
474.4373, 1594.410
474.9195, 1625.028
475.4016, 1646.117
475.8837, 1655.444
476.3658, 1663.817
476.8479, 1677.068
477.3300, 1694.026
477.8122, 1713.674
478.2943, 1735.925
478.7764, 1757.094
479.2585, 1774.808
479.7406, 1789.092
480.2227, 1800.078
480.7049, 1799.406
481.1870, 1806.324
481.6691, 1828.965
482.1512, 1859.191
482.6333, 1889.187
483.1154, 1916.910
483.5976, 1943.148
484.0797, 1968.692
484.5618, 1993.400
485.0439, 2020.405
485.5260, 2055.170
486.0081, 2084.154
486.4903, 2093.743
486.9724, 2099.427
487.4545, 2123.559
487.9366, 2174.829
488.4187, 2228.779
488.9008, 2263.455
489.3830, 2283.091
489.8651, 2303.677
490.3472, 2328.582
490.8293, 2350.399
491.3114, 2361.333
491.7935, 2361.932
492.2757, 2366.522
492.7578, 2379.171
493.2399, 2391.228
493.7220, 2399.000
494.2041, 2404.217
494.6862, 2411.322
495.1684, 2421.108
495.6505, 2426.619
496.1326, 2418.062
496.6147, 2393.697
497.0968, 2367.927
497.5789, 2335.848
498.0611, 2308.521
498.5432, 2297.879
499.0253, 2291.850
499.5074, 2270.260
499.9895, 2223.372
500.4716, 2171.202
500.9538, 2133.737
501.4359, 2109.177
501.9180, 2089.563
502.4001, 2075.268
502.8822, 2060.218
503.3643, 2039.500
503.8465, 2012.817
504.3286, 1981.231
504.8107, 1938.782
505.2928, 1898.034
505.7749, 1861.987
506.2570, 1832.218
506.7392, 1814.850
507.2213, 1810.949
507.7034, 1807.345
508.1855, 1783.351
508.6676, 1733.401
509.1497, 1697.653
509.6319, 1688.331
510.1140, 1679.383
510.5961, 1660.546
511.0782, 1636.391
511.5603, 1613.400
512.0424, 1592.472
512.5245, 1577.333
513.0067, 1576.907
513.4888, 1586.573
513.9709, 1585.190
514.4530, 1566.961
514.9351, 1545.527
515.4172, 1532.986
515.8994, 1529.406
516.3815, 1525.335
516.8636, 1522.450
517.3457, 1517.195
517.8278, 1506.729
518.3099, 1493.679
518.7921, 1481.575
519.2742, 1471.440
519.7563, 1461.847
520.2384, 1450.600
520.7205, 1437.478
521.2026, 1426.791
521.6848, 1419.506
522.1669, 1413.377
522.6490, 1407.931
523.1311, 1402.792
523.6132, 1396.767
524.0953, 1388.730
524.5775, 1383.614
525.0596, 1388.749
525.5417, 1399.149
526.0238, 1401.941
526.5059, 1394.880
526.9880, 1385.854
527.4702, 1380.832
527.9523, 1379.449
528.4344, 1377.727
528.9165, 1378.055
529.3986, 1375.114
529.8807, 1368.232
530.3629, 1357.448
530.8450, 1339.828
531.3271, 1316.704
531.8092, 1297.100
532.2913, 1290.828
532.7734, 1295.668
533.2556, 1297.651
533.7377, 1297.802
534.2198, 1292.061
534.7019, 1269.802
535.1840, 1245.798
535.6661, 1238.702
536.1483, 1252.295
536.6304, 1266.508
537.1125, 1271.641
537.5946, 1272.883
538.0767, 1276.863
538.5588, 1283.638
539.0410, 1290.254
539.5231, 1295.685
540.0052, 1297.950
540.4873, 1289.656
540.9694, 1255.766
541.4515, 1235.914
541.9337, 1239.371
542.4158, 1249.065
542.8979, 1256.735
543.3800, 1260.994
543.8621, 1261.995
544.3442, 1259.058
544.8264, 1253.916
545.3085, 1249.196
545.7906, 1244.880
546.2727, 1242.656
546.7548, 1244.549
547.2369, 1246.289
547.7191, 1240.602
548.2012, 1227.027
548.6833, 1219.882
549.1654, 1229.878
549.6475, 1237.752
550.1296, 1226.598
550.6118, 1206.196
551.0939, 1197.691
551.5760, 1209.017
552.0581, 1227.852
552.5402, 1235.850
553.0223, 1231.359
553.5045, 1225.168
553.9866, 1210.967
554.4687, 1203.789
554.9508, 1214.585
555.4329, 1234.567
555.9150, 1250.160
556.3972, 1258.031
556.8793, 1261.103
557.3614, 1258.542
557.8435, 1253.353
558.3256, 1251.914
558.8077, 1255.164
559.2899, 1259.730
559.7720, 1263.269
560.2541, 1265.718
560.7362, 1266.719
561.2183, 1264.720
561.7004, 1263.183
562.1826, 1261.563
562.6647, 1261.073
563.1468, 1264.104
563.6289, 1269.796
564.1110, 1273.528
564.5931, 1271.086
565.0753, 1264.805
565.5574, 1260.252
566.0395, 1257.519
566.5216, 1254.564
567.0037, 1249.271
567.4858, 1245.163
567.9680, 1247.550
568.4501, 1256.354
568.9322, 1268.604
569.4143, 1287.193
569.8964, 1306.029
570.3785, 1321.651
570.8607, 1334.578
571.3428, 1345.893
571.8249, 1356.054
572.3070, 1366.807
572.7891, 1382.511
573.2712, 1404.716
573.7534, 1419.042
574.2355, 1420.341
574.7176, 1421.166
575.1997, 1423.703
575.6818, 1431.039
576.1639, 1450.432
576.6461, 1488.538
577.1282, 1524.081
577.6103, 1539.776
578.0924, 1547.477
578.5745, 1564.617
579.0566, 1593.463
579.5388, 1629.825
580.0209, 1672.078
580.5030, 1717.670
580.9851, 1754.760
581.4672, 1782.489
581.9493, 1802.559
582.4315, 1806.256
582.9136, 1810.684
583.3957, 1824.365
583.8778, 1848.827
584.3599, 1885.603
584.8420, 1945.360
585.3242, 2007.086
585.8063, 2037.771
586.2884, 2043.023
586.7705, 2057.861
587.2526, 2094.340
587.7347, 2134.141
588.2169, 2155.775
588.6990, 2157.084
589.1811, 2161.863
589.6632, 2174.829
590.1453, 2185.297
590.6274, 2190.723
591.1096, 2191.630
591.5917, 2189.472
592.0738, 2184.274
592.5559, 2173.601
593.0380, 2154.029
593.5201, 2126.916
594.0023, 2096.233
594.4844, 2060.836
594.9665, 2030.015
595.4486, 2011.839
595.9307, 1997.253
596.4128, 1969.062
596.8950, 1924.961
597.3771, 1880.097
597.8592, 1834.008
598.3413, 1790.230
598.8234, 1752.963
599.3055, 1719.756
599.7877, 1685.853
600.2698, 1648.980
600.7519, 1610.294
601.2340, 1570.751
601.7161, 1530.278
602.1982, 1492.007
602.6804, 1455.715
603.1625, 1422.541
603.6446, 1391.729
604.1267, 1364.857
604.6088, 1345.887
605.0909, 1339.258
605.5731, 1331.253
606.0552, 1316.451
606.5373, 1297.686
607.0194, 1275.832
607.5015, 1252.454
607.9836, 1231.961
608.4658, 1217.632
608.9479, 1206.832
609.4300, 1191.870
609.9121, 1170.771
610.3942, 1152.382
610.8763, 1140.215
611.3585, 1128.236
611.8406, 1109.836
612.3227, 1088.572
612.8048, 1075.304
613.2869, 1079.565
613.7690, 1082.239
614.2512, 1069.459
614.7333, 1047.402
615.2154, 1024.587
615.6975, 1003.217
616.1796, 985.6710
616.6617, 973.8829
617.1439, 967.5059
617.6260, 965.1369
618.1081, 970.8458
618.5902, 972.3584
619.0723, 965.6464
619.5544, 955.7822
620.0366, 944.9297
620.5187, 933.6546
621.0008, 923.1490
621.4829, 913.2557
621.9650, 905.0341
622.4471, 900.2022
622.9293, 897.8029
623.4114, 896.2502
623.8935, 895.0700
624.3756, 891.5728
624.8577, 882.0527
625.3398, 866.8439
625.8220, 858.2174
626.3041, 862.3187
626.7862, 863.7224
627.2683, 858.5948
627.7504, 850.6743
628.2325, 841.3011
628.7147, 831.4401
629.1968, 825.3822
629.6789, 829.8226
630.1610, 835.9571
630.6431, 832.1584
631.1252, 820.8944
631.6074, 810.9843
632.0895, 805.1898
632.5716, 802.1978
633.0537, 801.0957
633.5358, 802.2399
634.0179, 799.2963
634.5001, 783.7927
634.9822, 775.4761
635.4643, 786.7554
635.9464, 801.5600
636.4285, 803.5746
636.9106, 791.3607
637.3928, 776.7022
637.8749, 763.1551
638.3570, 753.2861
638.8391, 751.6255
639.3212, 756.9736
639.8033, 765.5128
640.2855, 776.5274
640.7676, 784.0555
641.2497, 778.9738
641.7318, 759.1326
642.2139, 745.2504
642.6960, 740.1766
643.1782, 737.7632
643.6603, 737.7305
644.1424, 738.9694
644.6245, 741.6423
645.1066, 745.4122
645.5887, 745.8705
646.0709, 735.3875
646.5530, 723.2317
647.0351, 723.7145
647.5172, 734.3105
647.9993, 742.7082
648.4814, 744.2131
648.9636, 743.0320
649.4457, 745.4843
649.9278, 752.7556
650.4099, 753.3726
650.8920, 739.2866
651.3741, 728.9832
651.8563, 729.3569
652.3384, 734.2036
652.8205, 737.6721
653.3026, 738.8399
653.7847, 738.9953
654.2668, 733.7666
654.7490, 731.3787
655.2311, 748.0879
655.7132, 777.3525
656.1953, 794.1713
656.6774, 789.3607
657.1595, 773.6914
657.6417, 759.9038
658.1238, 747.7108
658.6059, 741.9816
659.0880, 746.6249
659.5701, 751.8594
660.0522, 758.0731
660.5343, 761.6735
661.0164, 755.8181
661.4985, 740.6082
661.9807, 732.4215
662.4628, 744.3492
662.9449, 761.8889
663.4270, 773.6515
663.9091, 779.4209
664.3912, 777.9597
664.8734, 769.1993
665.3555, 759.9673
665.8376, 758.1932
666.3197, 763.7574
666.8018, 773.0256
667.2839, 790.5652
667.7661, 802.2341
668.2482, 801.0945
668.7303, 794.0070
669.2124, 782.8405
669.6945, 768.6078
670.1766, 765.5320
670.6588, 790.1402
671.1409, 815.4468
671.6230, 820.9450
672.1051, 814.7783
672.5872, 809.8715
673.0693, 810.1730
673.5515, 815.9734
674.0336, 829.2379
674.5157, 847.6595
674.9978, 857.3425
675.4799, 855.3011
675.9620, 856.6239
676.4442, 867.7733
676.9263, 880.9592
677.4084, 887.6153
677.8905, 888.6296
678.3726, 890.8397
678.8547, 897.2567
679.3369, 902.4980
679.8190, 903.2087
680.3011, 902.1848
680.7832, 903.4319
681.2653, 906.8998
681.7474, 908.3444
682.2296, 903.0980
682.7117, 895.9319
683.1938, 899.5209
683.6759, 913.9955
684.1580, 927.0047
684.6401, 936.9835
685.1223, 941.8704
685.6044, 938.3188
686.0865, 927.3358
686.5686, 918.8617
687.0507, 911.0604
687.5328, 908.0766
688.0150, 917.0202
688.4971, 925.7854
688.9792, 923.4699
689.4613, 912.1661
689.9434, 901.0775
690.4255, 894.9811
690.9077, 890.9220
691.3898, 886.1943
691.8719, 880.4622
692.3540, 870.9188
692.8361, 856.9072
693.3182, 847.1278
693.8004, 848.7099
694.2825, 857.3748
694.7646, 858.8252
695.2467, 848.4061
695.7288, 839.4692
696.2109, 832.3109
696.6931, 826.4968
697.1752, 823.8481
697.6573, 821.8746
698.1394, 815.3457
698.6215, 801.5517
699.1036, 789.4146
699.5858, 785.8594
700.0679, 786.7201
700.5500, 787.0614
701.0321, 786.4693
701.5142, 785.0970
701.9963, 782.9225
702.4785, 781.4323
702.9606, 784.8859
703.4427, 795.0927
703.9248, 793.2497
704.4069, 771.1028
704.8890, 753.3007
705.3712, 752.7822
705.8533, 760.6823
706.3354, 765.8629
706.8175, 767.8262
707.2996, 768.9321
707.7817, 770.0221
708.2639, 770.1126
708.7460, 768.2310
709.2281, 765.0754
709.7102, 762.1825
710.1923, 759.7122
710.6744, 755.7441
711.1566, 748.0965
711.6387, 737.7087
712.1208, 726.1506
712.6029, 713.3200
713.0850, 705.6616
713.5671, 705.8357
714.0493, 710.0222
714.5314, 715.9576
715.0135, 723.5626
715.4956, 722.6123
715.9777, 700.9728
716.4598, 687.3685
716.9420, 692.8440
717.4241, 702.3575
717.9062, 703.8250
718.3883, 698.2170
718.8704, 693.8077
719.3525, 695.5401
719.8347, 697.5910
720.3168, 692.7061
720.7989, 684.4790
721.2810, 681.6489
721.7631, 684.7252
722.2452, 685.5889
722.7274, 678.0662
723.2095, 667.6339
723.6916, 670.9471
724.1737, 694.1476
724.6558, 705.6457
725.1379, 700.6694
725.6201, 688.5119
726.1022, 667.0210
726.5843, 643.9352
727.0664, 631.6953
727.5485, 632.5358
728.0306, 638.7180
728.5128, 656.8868
728.9949, 671.4036
729.4770, 668.1409
729.9591, 653.8083
730.4412, 640.1748
730.9233, 631.5128
731.4055, 628.6293
731.8876, 635.3068
732.3697, 648.0643
732.8518, 655.9626
733.3339, 658.9864
733.8160, 659.4074
734.2982, 658.0316
734.7803, 653.7858
735.2624, 644.0444
735.7445, 628.4973
736.2266, 620.7715
736.7087, 630.2359
737.1909, 634.6010
737.6730, 625.2818
738.1551, 614.4821
738.6372, 610.7322
739.1193, 613.9623
739.6014, 621.0790
740.0836, 634.9491
740.5657, 645.9073
741.0478, 643.3898
741.5299, 635.5128
742.0120, 635.5864
742.4941, 643.2863
742.9763, 648.3948
743.4584, 644.5374
743.9405, 636.2062
744.4226, 632.4305
744.9047, 633.3776
745.3868, 631.4613
745.8690, 624.9586
746.3511, 619.7727
746.8332, 619.5231
747.3153, 621.9944
747.7974, 622.0690
748.2795, 616.8665
748.7617, 619.5051
749.2438, 642.2904
749.7259, 659.3383
750.2080, 654.9187
750.6901, 641.9760
751.1722, 636.9400
751.6544, 642.3300
752.1365, 649.1991
752.6186, 653.3021
753.1007, 654.7489
753.5828, 653.1848
754.0649, 649.1301
754.5471, 643.5151
755.0292, 636.7331
755.5113, 629.5540
755.9934, 622.0147
756.4755, 615.6437
756.9576, 618.0538
757.4398, 632.3726
757.9219, 640.5929
758.4040, 639.0750
758.8861, 632.8585
759.3682, 620.9651
759.8503, 607.6090
760.3325, 605.5276
760.8146, 622.5034
761.2967, 633.8044
761.7788, 631.0843
762.2609, 626.1282
762.7430, 625.8892
763.2252, 628.6762
763.7073, 630.3813
764.1894, 629.8479
764.6715, 630.1256
765.1536, 636.4088
765.6357, 643.5762
766.1179, 641.6260
766.6000, 632.6315
767.0821, 626.0568
767.5642, 624.7979
768.0463, 624.4758
768.5284, 619.1362
769.0106, 610.9518
769.4927, 618.2738
769.9748, 647.7411
770.4569, 669.8188
770.9390, 675.4404
771.4211, 676.9507
771.9033, 683.5462
772.3854, 694.0042
772.8675, 703.6351
773.3496, 711.9722
773.8317, 720.0143
774.3138, 727.5972
774.7960, 735.2726
775.2781, 746.6195
775.7602, 757.4925
776.2423, 758.7806
776.7244, 747.2446
777.2065, 733.8976
777.6887, 726.5394
778.1708, 724.1017
778.6529, 726.6617
779.1350, 732.7850
779.6171, 738.1194
780.0992, 741.1467
780.5814, 739.5804
781.0635, 729.6594
781.5456, 713.0490
782.0277, 703.8733
782.5098, 705.2861
782.9919, 700.1450
783.4741, 681.0624
783.9562, 660.4197
784.4383, 647.1719
784.9204, 640.9803
785.4025, 639.5512
785.8846, 648.1661
786.3668, 653.0975
786.8489, 650.8879
787.3310, 646.5105
787.8131, 642.1033
788.2952, 638.0388
788.7773, 634.6838
789.2595, 632.2335
789.7416, 629.3159
790.2237, 623.3915
790.7058, 617.6774
791.1879, 618.0976
791.6700, 621.9714
792.1522, 620.5562
792.6343, 611.7827
793.1164, 603.4105
793.5985, 604.1791
794.0806, 610.6873
794.5627, 608.6340
795.0449, 597.1833
795.5270, 590.3217
796.0091, 591.5831
796.4912, 595.6802
796.9733, 600.3931
797.4554, 604.0396
797.9376, 599.4955
798.4197, 577.7675
798.9018, 563.8839
799.3839, 564.3629
799.8660, 564.9039
800.3481, 556.6954
800.8303, 545.8531
801.3124, 542.3210
801.7945, 548.0660
802.2766, 553.1129
802.7587, 550.5175
803.2408, 548.5276
803.7230, 555.9899
804.2051, 566.9239
804.6872, 570.4851
805.1693, 565.7908
805.6514, 561.6201
806.1335, 564.8693
806.6157, 571.3022
807.0978, 572.7919
807.5799, 570.7966
808.0620, 572.5329
808.5441, 579.0305
809.0262, 587.0075
809.5084, 594.9139
809.9905, 601.9296
810.4726, 606.4740
810.9547, 608.8067
811.4368, 606.8364
811.9189, 597.1895
812.4011, 590.0748
812.8832, 593.3692
813.3653, 597.9348
813.8474, 588.5690
814.3295, 565.1904
814.8116, 555.1118
815.2938, 572.3510
815.7759, 587.9487
816.2580, 592.2195
816.7401, 592.6497
817.2222, 597.5720
817.7043, 604.7299
818.1865, 604.1199
818.6686, 589.0611
819.1507, 574.8942
819.6328, 573.3834
820.1149, 580.0628
820.5970, 592.7321
821.0792, 608.0609
821.5613, 617.9642
822.0434, 619.3896
822.5255, 615.7951
823.0076, 610.1818
823.4897, 603.1097
823.9718, 596.0883
824.4539, 589.1078
824.9360, 586.8622
825.4182, 591.3795
825.9003, 596.2717
826.3824, 595.8381
826.8645, 591.2576
827.3466, 587.7419
827.8287, 583.8567
828.3109, 584.8524
828.7930, 596.8804
829.2751, 606.2625
829.7572, 603.2761
830.2393, 594.7340
830.7214, 591.0298
831.2036, 593.5458
831.6857, 595.1660
832.1678, 591.5736
832.6499, 590.3705
833.1320, 598.5907
833.6141, 608.6569
834.0963, 610.2203
834.5784, 604.2574
835.0605, 602.1329
835.5426, 612.2283
836.0247, 622.8503
836.5068, 623.4929
836.9890, 617.7960
837.4711, 608.1078
837.9532, 597.2841
838.4353, 594.0268
838.9174, 602.3557
839.3995, 614.8886
839.8817, 623.5602
840.3638, 628.0984
840.8459, 623.7746
841.3280, 610.7084
841.8101, 610.3124
842.2922, 631.2543
842.7744, 651.5317
843.2565, 648.1467
843.7386, 626.6812
844.2207, 620.8714
844.7028, 637.3321
845.1849, 651.0046
845.6671, 661.5037
846.1492, 666.0550
846.6313, 656.8282
847.1134, 642.9905
847.5955, 644.4088
848.0776, 666.6791
848.5598, 679.5608
849.0419, 671.1829
849.5240, 664.0448
850.0061, 670.0806
850.4882, 678.8748
850.9703, 677.0865
851.4525, 666.4494
851.9346, 662.0818
852.4167, 672.9468
852.8988, 686.2908
853.3809, 692.4705
853.8630, 697.8214
854.3452, 712.2178
854.8273, 732.1528
855.3094, 745.9209
855.7915, 749.0994
856.2736, 750.0972
856.7557, 757.5570
857.2379, 769.1096
857.7200, 781.3829
858.2021, 793.3234
858.6842, 799.2689
859.1663, 798.0050
859.6484, 796.1642
860.1306, 799.0345
860.6127, 805.5179
861.0948, 814.6279
861.5769, 827.2250
862.0590, 827.6019
862.5411, 810.4344
863.0233, 798.4117
863.5054, 804.5362
863.9875, 818.5216
864.4696, 824.1508
864.9517, 820.3968
865.4338, 817.7838
865.9160, 816.1093
866.3981, 815.9209
866.8802, 818.7612
867.3623, 821.8535
867.8444, 824.9000
868.3265, 826.6696
868.8087, 822.3459
869.2908, 804.4641
869.7729, 795.6456
870.2550, 811.2958
870.7371, 826.1107
871.2192, 825.4296
871.7014, 814.3517
872.1835, 798.3651
872.6656, 779.6576
873.1477, 767.1137
873.6298, 769.8377
874.1119, 775.8555
874.5941, 777.7352
875.0762, 776.2463
875.5583, 771.1151
876.0404, 763.5458
876.5225, 756.7706
877.0046, 752.2974
877.4868, 749.5111
877.9689, 749.7753
878.4510, 750.4276
878.9331, 743.9185
879.4152, 731.8315
879.8973, 721.7830
880.3795, 716.0976
880.8616, 715.5844
881.3437, 722.2341
881.8258, 732.2940
882.3079, 732.7933
882.7900, 723.6584
883.2722, 721.7795
883.7543, 730.4512
884.2364, 736.2711
884.7185, 731.1045
885.2006, 722.0319
885.6827, 721.6232
886.1649, 730.9655
886.6470, 734.3087
887.1291, 727.6095
887.6112, 724.7839
888.0933, 733.2818
888.5754, 741.0834
889.0576, 735.0619
889.5397, 719.8846
890.0218, 716.4034
890.5039, 735.0783
890.9860, 744.6446
891.4681, 731.6827
891.9503, 723.7266
892.4324, 740.4108
892.9145, 763.2195
893.3966, 766.5502
893.8787, 749.8196
894.3608, 739.7013
894.8430, 750.9213
895.3251, 760.5109
895.8072, 755.3278
896.2893, 747.8731
896.7714, 749.4516
897.2535, 758.0934
897.7357, 767.0575
898.2178, 774.2108
898.6999, 781.1829
899.1820, 788.2606
899.6641, 796.3812
900.1462, 806.5659
900.6284, 818.3885
901.1105, 831.6927
901.5926, 845.9594
902.0747, 860.0490
902.5568, 874.0605
903.0389, 884.4139
903.5211, 882.5082
904.0032, 874.7569
904.4853, 876.3615
904.9674, 886.7662
905.4495, 897.8517
905.9316, 906.7273
906.4138, 916.7475
906.8959, 932.4810
907.3780, 950.9276
907.8601, 960.7831
908.3422, 963.1275
908.8243, 974.8616
909.3065, 999.2321
909.7886, 1017.420
910.2707, 1017.743
910.7528, 1009.644
911.2349, 1008.612
911.7170, 1014.629
912.1992, 1030.228
912.6813, 1059.591
913.1634, 1079.818
913.6455, 1083.090
914.1276, 1080.671
914.6097, 1079.744
915.0919, 1081.711
915.5740, 1092.386
916.0561, 1117.057
916.5382, 1137.173
917.0203, 1152.405
917.5024, 1163.499
917.9846, 1170.142
918.4667, 1173.163
918.9488, 1170.924
919.4309, 1163.930
919.9130, 1165.010
920.3951, 1177.287
920.8773, 1193.224
921.3594, 1218.374
921.8415, 1240.462
922.3236, 1253.995
922.8057, 1259.475
923.2878, 1253.743
923.7700, 1234.863
924.2521, 1230.606
924.7342, 1260.527
925.2163, 1290.168
925.6984, 1306.196
926.1805, 1315.319
926.6627, 1323.456
927.1448, 1330.310
927.6269, 1332.038
928.1090, 1326.038
928.5911, 1323.291
929.0732, 1331.560
929.5554, 1343.123
930.0375, 1353.963
930.5196, 1363.143
931.0017, 1369.511
931.4838, 1373.268
931.9659, 1376.485
932.4481, 1381.195
932.9302, 1382.787
933.4123, 1375.612
933.8944, 1364.228
934.3765, 1351.991
934.8586, 1341.188
935.3408, 1337.244
935.8229, 1340.773
936.3050, 1344.992
936.7871, 1346.060
937.2692, 1342.668
937.7513, 1330.612
938.2335, 1313.451
938.7156, 1299.988
939.1977, 1289.971
939.6798, 1277.342
940.1619, 1259.575
940.6440, 1240.007
941.1262, 1220.690
941.6083, 1203.328
942.0904, 1195.454
942.5725, 1194.094
943.0546, 1182.659
943.5367, 1159.331
944.0189, 1139.400
944.5010, 1132.231
944.9831, 1129.816
945.4652, 1118.157
945.9473, 1098.987
946.4294, 1086.974
946.9116, 1081.888
947.3937, 1073.256
947.8758, 1058.338
948.3579, 1041.379
948.8400, 1025.602
949.3221, 1010.341
949.8043, 991.7742
950.2864, 969.0297
950.7685, 963.0126
951.2506, 977.9641
951.7327, 983.2606
952.2148, 967.3180
952.6970, 943.6437
953.1791, 924.5269
953.6612, 909.8326
954.1433, 899.5621
954.6254, 894.5928
955.1075, 890.3885
955.5897, 887.3638
956.0718, 883.2989
956.5539, 877.6542
957.0360, 869.9711
957.5181, 859.9464
958.0002, 847.5026
958.4824, 830.0350
958.9645, 803.4218
959.4466, 782.6603
959.9287, 770.2292
960.4108, 761.7637
960.8929, 755.4238
961.3751, 751.5328
961.8572, 751.8470
962.3393, 757.0977
962.8214, 755.5832
963.3035, 742.8840
963.7856, 731.1201
964.2678, 719.5974
964.7499, 712.1539
965.2320, 714.4299
965.7141, 721.0345
966.1962, 721.3076
966.6783, 714.2645
967.1605, 705.7427
967.6426, 694.7897
968.1247, 683.7632
968.6068, 671.0685
969.0889, 660.3161
969.5710, 653.5790
970.0532, 650.6978
970.5353, 651.8107
971.0174, 658.7226
971.4995, 663.0065
971.9816, 664.3520
972.4637, 662.4807
972.9459, 653.8321
973.4280, 644.8907
973.9101, 642.5411
974.3922, 644.4343
974.8743, 641.3145
975.3564, 626.7518
975.8386, 622.5236
976.3207, 646.6524
976.8028, 664.4793
977.2849, 656.0779
977.7670, 638.7496
978.2491, 628.5115
978.7313, 625.5967
979.2134, 625.5853
979.6955, 629.9976
980.1776, 631.4773
980.6597, 623.3396
981.1418, 617.3571
981.6240, 623.9563
982.1061, 633.1912
982.5882, 631.3044
983.0703, 619.8641
983.5524, 614.1403
984.0345, 621.6390
984.5167, 627.9391
984.9988, 627.1406
985.4809, 625.0291
985.9630, 626.0885
986.4451, 627.4304
986.9272, 623.6526
987.4094, 615.3241
987.8915, 610.4397
988.3736, 613.2267
988.8557, 616.7759
989.3378, 624.0801
989.8199, 625.4756
990.3020, 607.4971
990.7841, 582.6956
991.2662, 570.1795
991.7484, 571.6013
992.2305, 573.7716
992.7126, 571.6501
993.1947, 569.6777
993.6768, 567.5887
994.1589, 568.5079
994.6411, 576.4615
995.1232, 588.3097
995.6053, 600.7704
996.0874, 612.5123
996.5695, 618.7867
997.0516, 614.5240
997.5338, 608.9764
998.0159, 607.9067
998.4980, 605.8295
998.9801, 595.9555
999.4622, 582.7521
999.9443, 573.9551
1000.426, 570.8845
1000.909, 570.1948
1001.391, 568.3238
1001.873, 571.3077
1002.355, 589.2114
1002.837, 606.5406
1003.319, 606.9760
1003.801, 598.3383
1004.283, 597.1613
1004.766, 605.9736
1005.248, 610.6682
1005.730, 600.8284
1006.212, 591.0963
1006.694, 589.3583
1007.176, 589.9006
1007.658, 587.5352
1008.140, 583.9205
1008.622, 582.8392
1009.105, 584.9527
1009.587, 587.7661
1010.069, 591.0180
1010.551, 593.7609
1011.033, 595.2299
1011.515, 596.2990
1011.997, 599.2888
1012.479, 601.7811
1012.961, 597.4055
1013.444, 585.6049
1013.926, 579.4465
1014.408, 591.5582
1014.890, 600.4785
1015.372, 592.4205
1015.854, 581.6732
1016.336, 578.9139
1016.818, 582.1613
1017.301, 587.9797
1017.783, 595.4026
1018.265, 598.9997
1018.747, 595.1784
1019.229, 589.4713
1019.711, 585.6281
1020.193, 579.0897
1020.675, 560.2314
1021.157, 539.2073
1021.640, 536.4225
1022.122, 553.6245
1022.604, 560.7487
1023.086, 535.5905
1023.568, 517.6190
1024.050, 525.8761
1024.532, 538.7996
1025.014, 541.1286
1025.497, 538.5764
1025.979, 543.0620
1026.461, 555.2701
1026.943, 560.3909
1027.425, 547.7666
1027.907, 538.0209
1028.389, 533.7598
1028.871, 536.3120
1029.354, 554.7599
1029.836, 575.8353
1030.318, 578.4161
1030.800, 562.3318
1031.282, 553.0498
1031.764, 560.9659
1032.246, 566.3962
1032.728, 560.9935
1033.210, 558.3394
1033.693, 569.2714
1034.175, 584.3022
1034.657, 592.6096
1035.139, 593.6839
1035.621, 588.9512
1036.103, 570.8326
1036.585, 558.9264
1037.067, 558.7217
1037.549, 559.9946
1038.032, 558.2833
1038.514, 556.1826
1038.996, 556.7538
1039.478, 559.7085
1039.960, 562.7148
1040.442, 567.5721
1040.924, 569.2399
1041.406, 567.9131
1041.889, 562.7183
1042.371, 547.2249
1042.853, 534.4377
1043.335, 540.2629
1043.817, 559.7913
1044.299, 569.0433
1044.781, 563.5596
1045.263, 559.0839
1045.745, 553.6263
1046.228, 553.8229
1046.710, 564.7815
1047.192, 576.6852
1047.674, 580.2820
1048.156, 578.7845
1048.638, 583.9841
1049.120, 600.2833
1049.602, 599.5894
1050.084, 573.9651
1050.567, 560.4013
1051.049, 572.6319
1051.531, 586.3721
1052.013, 583.2514
1052.495, 569.1718
1052.977, 556.4620
1053.459, 544.8237
1053.941, 541.9199
1054.424, 548.7614
1054.906, 556.4318
1055.388, 563.5879
1055.870, 566.8240
1056.352, 563.1602
1056.834, 557.9728
1057.316, 562.0417
1057.798, 573.2426
1058.281, 572.7872
1058.763, 561.1876
1059.245, 547.3047
1059.727, 532.8327
1060.209, 533.6099
1060.691, 558.9102
1061.173, 585.8612
1061.655, 582.7171
1062.137, 560.2731
1062.620, 550.4759
1063.102, 551.2466
1063.584, 554.8227
1064.066, 559.5693
1064.548, 562.2446
1065.030, 561.6487
1065.512, 560.8050
1065.994, 563.4958
1066.476, 566.2086
1066.959, 560.9771
1067.441, 552.0021
1067.923, 548.7587
1068.405, 550.6342
1068.887, 553.4838
1069.369, 555.7895
1069.851, 556.7914
1070.333, 555.5844
1070.815, 553.8490
1071.298, 554.9799
1071.780, 555.4314
1072.262, 547.7427
1072.744, 536.7645
1073.226, 533.7150
1073.708, 538.6634
1074.190, 540.4640
1074.672, 532.4608
1075.155, 525.5707
1075.637, 529.3312
1076.119, 534.8625
1076.601, 534.0418
1077.083, 531.2240
1077.565, 533.5323
1078.047, 539.4289
1078.529, 541.4583
1079.011, 536.8714
1079.494, 532.0040
1079.976, 525.0811
1080.458, 523.7416
1080.940, 538.1304
1081.422, 553.5110
1081.904, 558.1385
1082.386, 553.7958
1082.868, 544.3013
1083.350, 529.0317
1083.833, 519.6283
1084.315, 519.9019
1084.797, 522.7536
1085.279, 530.9976
1085.761, 536.9958
1086.243, 536.0662
1086.725, 530.9074
1087.207, 524.0040
1087.690, 515.5260
1088.172, 510.9687
1088.654, 511.8130
1089.136, 513.0730
1089.618, 514.5604
1090.100, 516.3740
1090.582, 518.9572
1091.064, 521.0206
1091.547, 521.1490
1092.029, 519.8124
1092.511, 518.5604
1092.993, 517.2770
1093.475, 517.4135
1093.957, 519.2683
1094.439, 520.1400
1094.921, 519.3463
1095.403, 516.7222
1095.885, 511.6395
1096.368, 507.0911
1096.850, 510.3735
1097.332, 519.1711
1097.814, 519.2928
1098.296, 512.3567
1098.778, 508.6690
1099.260, 509.5368
1099.742, 510.5022
1100.225, 509.4395
1100.707, 508.0351
1101.189, 508.1176
1101.671, 508.9765
1102.153, 510.7593
1102.635, 511.7784
1103.117, 506.8401
1103.599, 498.2859
1104.082, 493.1907
1104.564, 493.5872
1105.046, 497.7063
1105.528, 507.2529
1106.010, 513.5453
1106.492, 503.1942
1106.974, 492.3260
1107.456, 503.4755
1107.938, 520.7374
1108.421, 514.8918
1108.903, 489.6182
1109.385, 476.5218
1109.867, 488.5761
1110.349, 500.6758
1110.831, 505.9785
1111.313, 506.7711
1111.795, 501.2431
1112.277, 494.1483
1112.760, 486.0070
1113.242, 480.3770
1113.724, 486.8037
1114.206, 508.8209
1114.688, 521.1163
1115.170, 518.6680
1115.652, 514.3062
1116.134, 507.4388
1116.617, 501.9557
1117.099, 499.8733
1117.581, 499.9197
1118.063, 501.4031
1118.545, 503.4681
1119.027, 498.7168
1119.509, 483.7209
1119.991, 488.2798
1120.474, 518.0606
1120.956, 531.5720
1121.438, 514.6384
1121.920, 495.2721
1122.402, 495.7048
1122.884, 504.0864
1123.366, 495.9685
1123.848, 476.0722
1124.330, 464.1810
1124.813, 460.5956
1125.295, 469.5209
1125.777, 488.8922
1126.259, 504.8493
1126.741, 511.0561
1127.223, 507.9563
1127.705, 486.9138
1128.187, 468.5836
1128.669, 490.7627
1129.152, 524.7191
1129.634, 527.4272
1130.116, 507.6816
1130.598, 490.2903
1131.080, 480.8910
1131.562, 474.1292
1132.044, 467.0471
1132.526, 463.7514
1133.009, 469.4966
1133.491, 475.9448
1133.973, 477.1467
1134.455, 477.1494
1134.937, 479.6119
1135.419, 484.7858
1135.901, 493.4638
1136.383, 507.7206
1136.865, 515.1181
1137.348, 510.4419
1137.830, 505.3211
1138.312, 502.1465
1138.794, 496.9547
1139.276, 484.5294
1139.758, 473.3844
1140.240, 475.6023
1140.722, 488.8656
1141.204, 499.0205
1141.687, 506.4343
1142.169, 506.2826
1142.651, 497.3341
1143.133, 493.5999
1143.615, 499.4206
1144.097, 506.4662
1144.579, 509.0233
1145.061, 506.9693
1145.544, 499.2331
1146.026, 487.0657
1146.508, 468.6184
1146.990, 450.0285
1147.472, 454.3190
1147.954, 477.9607
1148.436, 496.5418
1148.918, 500.7567
1149.401, 495.7964
1149.883, 479.4796
1150.365, 465.6556
1150.847, 469.6175
1151.329, 478.9573
1151.811, 480.9474
1152.293, 479.9513
1152.775, 486.3200
1153.257, 498.0652
1153.740, 500.2349
1154.222, 485.4867
1154.704, 473.9981
1155.186, 468.9052
1155.668, 469.6464
1156.150, 481.2784
1156.632, 493.2475
1157.114, 500.1158
1157.596, 501.8427
1158.079, 496.4633
1158.561, 484.5229
1159.043, 482.2249
1159.525, 493.0591
1160.007, 498.0082
1160.489, 495.4852
1160.971, 486.8639
1161.453, 471.3380
1161.936, 459.7285
1162.418, 461.2536
1162.900, 470.7638
1163.382, 481.6919
1163.864, 491.4730
1164.346, 485.9561
1164.828, 494.8106
1165.310, 475.2625
1165.792, 494.9775
1166.275, 504.3940
1166.757, 493.8636
1167.239, 479.1924
1167.721, 469.3510
1168.203, 464.9098
1168.685, 468.6717
1169.167, 475.8324
1169.649, 483.8946
1170.131, 490.8692
1170.614, 492.9413
1171.096, 491.5715
1171.578, 495.2027
1172.060, 509.7550
1172.542, 514.2600
1173.024, 493.5002
1173.506, 479.5218
1173.988, 486.5081
1174.471, 492.6547
1174.953, 484.1521
1175.435, 470.2109
1175.917, 463.3896
1176.399, 462.9870
1176.881, 464.3333
1177.363, 467.5152
1177.845, 471.2464
1178.328, 475.4117
1178.810, 482.3303
1179.292, 492.5568
1179.774, 499.9644
1180.256, 500.2015
1180.738, 498.4902
1181.220, 502.4825
1181.702, 509.1710
1182.184, 516.9456
1182.667, 520.9601
1183.149, 505.0505
1183.631, 478.5475
1184.113, 470.0049
1184.595, 484.2267
1185.077, 498.5054
1185.559, 504.2543
1186.041, 502.6708
1186.523, 486.9471
1187.006, 473.0383
1187.488, 469.6052
1187.970, 472.3035
1188.452, 479.1197
1188.934, 487.8499
1189.416, 493.9695
1189.898, 497.4139
1190.380, 498.1888
1190.863, 493.4731
1191.345, 496.7075
1191.827, 513.9567
1192.309, 517.5392
1192.791, 494.3629
1193.273, 470.6495
1193.755, 470.5834
1194.237, 454.3878
1194.719, 472.1787
1195.202, 452.7418
1195.684, 460.5722
1196.166, 486.0240
1196.648, 497.7647
1197.130, 494.2591
1197.612, 489.3999
1198.094, 488.1620
1198.576, 487.3866
1199.058, 484.4727
1199.541, 482.4323
1200.023, 486.8457
1200.505, 489.0633
1200.987, 479.3996
1201.469, 466.2661
1201.951, 459.1269
1202.433, 457.4492
1202.915, 458.0672
1203.398, 462.1273
1203.880, 459.3685
1204.362, 439.5857
1204.844, 438.9077
1205.326, 472.6275
1205.808, 491.4480
1206.290, 471.6928
1206.772, 442.4614
1207.255, 430.1016
1207.737, 431.1587
1208.219, 441.5253
1208.701, 458.0548
1209.183, 465.5211
1209.665, 466.3993
1210.147, 471.8234
1210.629, 481.3662
1211.111, 484.2521
1211.594, 477.3759
1212.076, 472.5894
1212.558, 478.0527
1213.040, 487.5381
1213.522, 505.7379
1214.004, 516.2121
1214.486, 495.7567
1214.968, 469.5023
1215.450, 468.3700
1215.933, 485.6610
1216.415, 496.3635
1216.897, 498.7744
1217.379, 494.5725
1217.861, 476.8048
1218.343, 471.8147
1218.825, 486.2273
1219.307, 498.6822
1219.790, 501.5278
1220.272, 499.1621
1220.754, 494.8319
1221.236, 489.7397
1221.718, 485.0347
1222.200, 481.7901
1222.682, 485.3708
1223.164, 492.7376
1223.646, 496.5296
1224.129, 496.0786
1224.611, 492.0856
1225.093, 485.2577
1225.575, 478.4268
1226.057, 471.6648
1226.539, 468.7829
1227.021, 476.2582
1227.503, 482.5761
1227.985, 479.7171
1228.468, 474.6363
1228.950, 473.5783
1229.432, 474.7165
1229.914, 473.9553
1230.396, 471.5241
1230.878, 472.1859
1231.360, 476.3751
1231.842, 482.6926
1232.325, 491.8476
1232.807, 492.6142
1233.289, 481.9587
1233.771, 471.0857
1234.253, 467.2126
1234.735, 463.3340
1235.217, 448.0876
1235.699, 430.5000
1236.181, 425.0836
1236.664, 426.5148
1237.146, 431.0163
1237.628, 434.0617
1238.110, 423.5016
1238.592, 403.4174
1239.074, 400.1680
1239.556, 425.7321
1240.038, 446.9149
1240.521, 454.0695
1241.003, 459.8465
1241.485, 465.1563
1241.967, 472.8770
1242.449, 487.2878
1242.931, 498.8235
1243.413, 496.3269
1243.895, 484.5385
1244.377, 476.2009
1244.859, 471.0929
1245.342, 465.6424
1245.824, 461.4683
1246.306, 470.8797
1246.788, 491.0245
1247.270, 500.8522
1247.752, 493.8267
1248.234, 484.9569
1248.716, 482.8542
1249.199, 484.2401
1249.681, 491.1389
1250.163, 495.7174
1250.645, 489.5140
1251.127, 481.3769
1251.609, 481.5794
1252.091, 475.6657
1252.573, 471.9402
1253.056, 471.5939
1253.538, 467.1492
1254.020, 469.9521
1254.502, 473.7169
1254.984, 478.5376
1255.466, 480.1527
1255.948, 477.4975
1256.430, 474.2921
1256.912, 472.5497
1257.395, 474.1872
1257.877, 483.6212
1258.359, 494.1184
1258.841, 495.4688
1259.323, 492.9174
1259.805, 493.1181
1260.287, 494.4061
1260.769, 492.9799
1261.251, 489.4023
1261.734, 487.2592
##END=



