##NAMES=Orpiment
##RRUFFID=R060105
##IDEAL CHEMISTRY=As^3+^_2_S^2-^_3_
##LOCALITY=Mercur, Utah, USA
##OWNER=RRUFF
##SOURCE=University of Arizona Mineral Museum
##DESCRIPTION=Yellowish-orange crystals
##STATUS=The identification of this mineral has been confirmed by X-ray diffraction and chemical analysis
##URL=rruff.info/R060105
##MEASURED CHEMISTRY=As_2.00_S_3.00_
92.02539, 613.7955
92.50751, 620.8098
92.98962, 628.5733
93.47174, 625.3721
93.95386, 619.7932
94.43597, 615.9297
94.91809, 617.0836
95.40021, 621.8366
95.88232, 623.1768
96.36444, 620.2952
96.84656, 615.1874
97.32867, 607.4651
97.81078, 598.6794
98.29290, 590.9791
98.77502, 585.4982
99.25713, 581.1341
99.73925, 579.7805
100.2214, 582.1163
100.7035, 586.1365
101.1856, 589.8052
101.6677, 593.4489
102.1498, 599.5856
102.6320, 610.9876
103.1141, 627.7391
103.5962, 652.3467
104.0783, 693.9310
104.5604, 739.7819
105.0425, 779.0876
105.5247, 810.9376
106.0068, 827.7900
106.4889, 811.1796
106.9710, 759.0472
107.4531, 702.8723
107.9352, 650.6913
108.4173, 603.7117
108.8995, 568.5641
109.3816, 549.9129
109.8637, 544.0509
110.3458, 545.7293
110.8279, 554.4987
111.3100, 570.6778
111.7922, 593.9645
112.2743, 623.0393
112.7564, 664.0437
113.2385, 719.1443
113.7206, 785.1052
114.2027, 861.0207
114.6849, 946.5647
115.1670, 1040.453
115.6491, 1137.062
116.1312, 1249.205
116.6133, 1349.352
117.0954, 1435.428
117.5776, 1507.006
118.0597, 1563.060
118.5418, 1602.094
119.0239, 1623.894
119.5060, 1646.833
119.9881, 1666.009
120.4703, 1690.361
120.9524, 1722.645
121.4345, 1763.173
121.9166, 1811.973
122.3987, 1869.148
122.8808, 1936.328
123.3630, 2009.313
123.8451, 2089.004
124.3272, 2174.162
124.8093, 2263.487
125.2914, 2357.380
125.7735, 2453.569
126.2557, 2547.493
126.7378, 2639.848
127.2199, 2737.969
127.7020, 2842.643
128.1841, 2954.689
128.6662, 3074.637
129.1483, 3201.897
129.6305, 3340.547
130.1126, 3487.499
130.5947, 3644.167
131.0768, 3819.031
131.5589, 4017.994
132.0410, 4240.786
132.5232, 4489.868
133.0053, 4781.079
133.4874, 5090.912
133.9695, 5435.583
134.4516, 5809.188
134.9337, 6154.118
135.4159, 6397.711
135.8980, 6580.178
136.3801, 6552.688
136.8622, 6264.789
137.3443, 5828.569
137.8264, 5305.490
138.3086, 4724.118
138.7907, 4116.774
139.2728, 3585.933
139.7549, 3138.586
140.2370, 2763.727
140.7191, 2472.546
141.2013, 2250.720
141.6834, 2081.721
142.1655, 1961.002
142.6476, 1883.189
143.1297, 1825.856
143.6118, 1795.490
144.0939, 1773.581
144.5761, 1755.557
145.0582, 1740.861
145.5403, 1726.112
146.0224, 1706.662
146.5045, 1687.144
146.9866, 1678.320
147.4688, 1679.162
147.9509, 1692.137
148.4330, 1719.261
148.9151, 1760.610
149.3972, 1816.209
149.8793, 1884.258
150.3615, 1967.625
150.8436, 2074.581
151.3257, 2207.705
151.8078, 2366.209
152.2899, 2555.537
152.7720, 2813.534
153.2542, 3035.585
153.7363, 3213.760
154.2184, 3333.112
154.7005, 3369.449
155.1826, 3299.646
155.6647, 3130.441
156.1469, 2930.118
156.6290, 2683.007
157.1111, 2416.136
157.5932, 2112.905
158.0753, 1793.271
158.5574, 1495.201
159.0396, 1248.595
159.5217, 1054.558
160.0038, 907.9080
160.4859, 825.7573
160.9680, 767.4209
161.4501, 722.5576
161.9323, 687.7800
162.4144, 661.3820
162.8965, 642.3018
163.3786, 632.1652
163.8607, 623.7587
164.3428, 616.5677
164.8250, 611.2540
165.3071, 608.4693
165.7892, 608.2698
166.2713, 610.0947
166.7534, 613.6716
167.2355, 619.2314
167.7177, 625.0023
168.1998, 631.1466
168.6819, 637.3160
169.1640, 642.9345
169.6461, 647.7768
170.1282, 652.4454
170.6104, 657.4229
171.0925, 662.6484
171.5746, 668.6555
172.0567, 674.7341
172.5388, 681.6317
173.0209, 691.3894
173.5031, 703.9902
173.9852, 720.6212
174.4673, 740.0684
174.9494, 762.5872
175.4315, 791.8663
175.9136, 830.6158
176.3958, 878.7791
176.8779, 933.6910
177.3600, 1003.443
177.8421, 1073.101
178.3242, 1140.803
178.8063, 1204.022
179.2885, 1250.175
179.7706, 1262.385
180.2527, 1232.957
180.7348, 1202.338
181.2169, 1161.592
181.6990, 1128.826
182.1812, 1114.544
182.6633, 1120.134
183.1454, 1140.002
183.6275, 1168.753
184.1096, 1216.078
184.5917, 1251.105
185.0738, 1274.048
185.5560, 1287.270
186.0381, 1290.169
186.5202, 1283.401
187.0023, 1270.706
187.4844, 1258.130
187.9665, 1242.347
188.4487, 1232.704
188.9308, 1228.860
189.4129, 1230.977
189.8950, 1239.688
190.3771, 1255.123
190.8592, 1276.208
191.3414, 1301.276
191.8235, 1330.675
192.3056, 1363.351
192.7877, 1398.412
193.2698, 1436.784
193.7519, 1479.673
194.2341, 1527.482
194.7162, 1580.345
195.1983, 1639.072
195.6804, 1701.531
196.1625, 1772.217
196.6446, 1851.133
197.1268, 1939.420
197.6089, 2039.093
198.0910, 2149.260
198.5731, 2274.948
199.0552, 2422.785
199.5373, 2594.240
200.0195, 2776.368
200.5016, 2986.847
200.9837, 3212.907
201.4658, 3393.451
201.9479, 3539.679
202.4300, 3591.531
202.9122, 3497.896
203.3943, 3250.312
203.8764, 2927.884
204.3585, 2559.159
204.8406, 2143.919
205.3227, 1777.852
205.8048, 1492.992
206.2870, 1266.623
206.7691, 1090.656
207.2512, 963.9435
207.7333, 869.1012
208.2154, 792.7834
208.6975, 736.5447
209.1797, 689.8414
209.6618, 655.4417
210.1439, 627.4096
210.6260, 603.9457
211.1081, 584.4725
211.5902, 568.3734
212.0724, 555.2964
212.5545, 546.2168
213.0366, 537.5364
213.5187, 529.2731
214.0008, 521.1127
214.4829, 512.1933
214.9651, 502.6579
215.4472, 493.9626
215.9293, 488.5228
216.4114, 488.3077
216.8935, 487.4323
217.3756, 485.8065
217.8578, 483.6834
218.3399, 480.9275
218.8220, 477.6512
219.3041, 474.4211
219.7862, 472.1512
220.2683, 471.3954
220.7505, 470.6364
221.2326, 470.2488
221.7147, 469.6338
222.1968, 467.8755
222.6789, 464.9133
223.1610, 462.0319
223.6432, 461.1979
224.1253, 463.7728
224.6074, 465.7979
225.0895, 467.4398
225.5716, 468.4607
226.0537, 468.3150
226.5358, 466.9292
227.0180, 465.2811
227.5001, 464.8496
227.9822, 466.2672
228.4643, 466.8674
228.9464, 465.6283
229.4285, 463.8940
229.9107, 463.2181
230.3928, 463.9691
230.8749, 465.1628
231.3570, 465.3541
231.8391, 464.3604
232.3212, 464.3239
232.8034, 466.9017
233.2855, 470.1125
233.7676, 471.0717
234.2497, 468.9912
234.7318, 466.2946
235.2139, 465.9174
235.6961, 467.5477
236.1782, 468.9975
236.6603, 469.8199
237.1424, 470.1061
237.6245, 469.7971
238.1066, 468.6676
238.5888, 467.6736
239.0709, 467.7551
239.5530, 468.6832
240.0351, 469.9926
240.5172, 471.9372
240.9993, 474.0802
241.4815, 475.4169
241.9636, 475.5521
242.4457, 475.7729
242.9278, 476.9256
243.4099, 478.8306
243.8920, 481.2778
244.3742, 484.9799
244.8563, 489.0388
245.3384, 491.0164
245.8205, 489.8090
246.3026, 489.0098
246.7847, 490.7632
247.2668, 494.1847
247.7490, 497.9963
248.2311, 501.7286
248.7132, 505.4172
249.1953, 509.2196
249.6774, 513.1335
250.1595, 517.1663
250.6417, 521.3633
251.1238, 525.6414
251.6059, 529.7796
252.0880, 533.4786
252.5701, 537.2292
253.0522, 542.4958
253.5344, 550.1424
254.0165, 557.5928
254.4986, 563.6934
254.9807, 569.3467
255.4628, 575.6175
255.9449, 582.9822
256.4271, 591.0358
256.9092, 598.9388
257.3913, 606.6995
257.8734, 614.2203
258.3555, 620.5027
258.8376, 627.0267
259.3198, 635.5275
259.8019, 646.6780
260.2840, 659.1888
260.7661, 670.3788
261.2482, 679.7039
261.7303, 688.6199
262.2125, 696.5143
262.6946, 704.6611
263.1767, 714.2734
263.6588, 725.7300
264.1409, 738.1021
264.6230, 749.5121
265.1052, 757.6575
265.5873, 769.6571
266.0694, 785.2053
266.5515, 804.2740
267.0336, 826.9591
267.5157, 853.1501
267.9979, 882.4545
268.4800, 913.6721
268.9621, 943.1238
269.4442, 983.5159
269.9263, 1034.111
270.4084, 1093.700
270.8906, 1160.424
271.3727, 1234.527
271.8548, 1318.529
272.3369, 1416.033
272.8190, 1528.411
273.3011, 1649.283
273.7833, 1787.714
274.2654, 1925.240
274.7475, 2055.280
275.2296, 2175.262
275.7117, 2281.368
276.1938, 2369.280
276.6760, 2437.427
277.1581, 2495.806
277.6402, 2533.237
278.1223, 2573.660
278.6044, 2625.170
279.0865, 2689.397
279.5686, 2765.856
280.0508, 2853.955
280.5329, 2953.379
281.0150, 3070.444
281.4971, 3205.630
281.9792, 3354.109
282.4613, 3516.155
282.9435, 3690.301
283.4256, 3873.097
283.9077, 4061.361
284.3898, 4257.356
284.8719, 4471.424
285.3540, 4691.135
285.8362, 4939.881
286.3183, 5220.906
286.8004, 5535.628
287.2825, 5885.419
287.7646, 6271.528
288.2467, 6693.139
288.7289, 7158.012
289.2110, 7675.477
289.6931, 8218.130
290.1752, 8803.416
290.6573, 9403.999
291.1394, 10004.12
291.6216, 10604.19
292.1037, 11141.31
292.5858, 11489.51
293.0679, 11666.29
293.5500, 11614.34
294.0321, 11247.89
294.5143, 10683.16
294.9964, 9998.015
295.4785, 9212.373
295.9606, 8429.719
296.4427, 7787.343
296.9248, 7301.660
297.4070, 6947.964
297.8891, 6750.540
298.3712, 6670.269
298.8533, 6688.486
299.3354, 6797.959
299.8175, 6971.260
300.2997, 7184.162
300.7818, 7442.421
301.2639, 7733.930
301.7460, 8060.141
302.2281, 8414.845
302.7102, 8789.998
303.1924, 9187.779
303.6745, 9628.762
304.1566, 10130.65
304.6387, 10696.02
305.1208, 11310.42
305.6029, 11973.68
306.0851, 12682.36
306.5672, 13448.70
307.0493, 14262.29
307.5314, 15103.67
308.0135, 15977.16
308.4956, 16857.13
308.9778, 17620.50
309.4599, 18414.29
309.9420, 18947.88
310.4241, 19234.49
310.9062, 19188.95
311.3883, 18600.38
311.8705, 17357.14
312.3526, 15615.41
312.8347, 13651.79
313.3168, 11283.11
313.7989, 9136.639
314.2810, 7301.564
314.7632, 5771.241
315.2453, 4549.005
315.7274, 3645.379
316.2095, 2980.247
316.6916, 2469.776
317.1737, 2137.981
317.6559, 1865.254
318.1380, 1659.935
318.6201, 1499.710
319.1022, 1370.094
319.5843, 1267.281
320.0664, 1184.208
320.5485, 1115.491
321.0306, 1063.130
321.5128, 1019.572
321.9949, 986.6113
322.4770, 960.3491
322.9591, 938.9401
323.4412, 922.1766
323.9233, 909.8210
324.4055, 902.2105
324.8876, 899.0003
325.3697, 897.3272
325.8518, 897.9089
326.3339, 898.9617
326.8160, 898.5566
327.2982, 898.1398
327.7803, 899.9955
328.2624, 904.5457
328.7445, 913.6234
329.2266, 932.6955
329.7087, 959.8063
330.1909, 998.1326
330.6730, 1045.701
331.1551, 1105.698
331.6372, 1180.381
332.1193, 1270.291
332.6014, 1379.348
333.0836, 1514.009
333.5657, 1676.790
334.0478, 1865.413
334.5299, 2086.094
335.0120, 2327.274
335.4941, 2584.347
335.9763, 2853.839
336.4584, 3133.211
336.9405, 3420.399
337.4226, 3717.708
337.9047, 4001.143
338.3868, 4272.616
338.8690, 4533.181
339.3511, 4773.237
339.8332, 5002.051
340.3153, 5240.623
340.7974, 5501.000
341.2795, 5783.094
341.7617, 6086.255
342.2438, 6421.851
342.7259, 6760.764
343.2080, 7096.925
343.6901, 7432.852
344.1722, 7765.250
344.6544, 8090.805
345.1365, 8424.206
345.6186, 8794.327
346.1007, 9210.156
346.5828, 9657.265
347.0649, 10108.96
347.5471, 10604.52
348.0292, 11178.41
348.5113, 11833.43
348.9934, 12561.51
349.4755, 13345.71
349.9576, 14196.48
350.4398, 15083.60
350.9219, 16055.50
351.4040, 17014.16
351.8861, 17955.74
352.3682, 18839.16
352.8503, 19587.49
353.3325, 20142.26
353.8146, 20503.45
354.2967, 20666.57
354.7788, 20646.63
355.2609, 20414.24
355.7430, 19901.39
356.2252, 19186.87
356.7073, 18340.79
357.1894, 17394.68
357.6715, 16408.22
358.1536, 15525.04
358.6357, 14847.37
359.1179, 14121.91
359.5999, 13390.04
360.0821, 12579.52
360.5642, 11606.76
361.0463, 10466.27
361.5284, 9260.692
362.0105, 8092.626
362.4926, 6934.524
362.9748, 5927.475
363.4569, 5084.195
363.9390, 4369.158
364.4211, 3788.176
364.9032, 3323.860
365.3853, 2957.870
365.8675, 2681.338
366.3496, 2488.635
366.8317, 2327.283
367.3138, 2211.969
367.7959, 2112.934
368.2780, 2028.917
368.7602, 1955.010
369.2423, 1885.154
369.7244, 1816.946
370.2065, 1753.578
370.6886, 1700.920
371.1707, 1659.179
371.6529, 1628.821
372.1350, 1608.612
372.6171, 1599.580
373.0992, 1604.629
373.5813, 1623.283
374.0634, 1649.851
374.5456, 1678.203
375.0277, 1708.010
375.5098, 1745.201
375.9919, 1791.396
376.4740, 1844.462
376.9561, 1903.307
377.4383, 1967.860
377.9204, 2037.551
378.4025, 2113.325
378.8846, 2193.754
379.3667, 2277.436
379.8488, 2369.198
380.3310, 2451.367
380.8131, 2528.329
381.2952, 2587.493
381.7773, 2615.423
382.2594, 2609.507
382.7415, 2568.106
383.2237, 2486.863
383.7058, 2365.793
384.1879, 2216.462
384.6700, 2025.559
385.1521, 1822.016
385.6342, 1624.692
386.1164, 1435.864
386.5985, 1264.935
387.0806, 1119.584
387.5627, 997.3358
388.0448, 892.3605
388.5269, 805.5686
389.0091, 732.8045
389.4912, 674.8758
389.9733, 628.6713
390.4554, 589.0007
390.9375, 555.8450
391.4196, 527.9375
391.9018, 504.8521
392.3839, 486.3165
392.8660, 470.8409
393.3481, 458.2444
393.8302, 448.0380
394.3123, 439.0112
394.7945, 431.0955
395.2766, 424.3045
395.7587, 419.3564
396.2408, 415.3754
396.7229, 410.8176
397.2050, 405.2368
397.6872, 399.6835
398.1693, 395.5681
398.6514, 393.0884
399.1335, 389.1723
399.6156, 383.2216
400.0977, 376.1252
400.5798, 368.0316
401.0620, 359.2160
401.5441, 350.5941
402.0262, 342.8047
402.5083, 335.5978
402.9904, 327.8717
403.4725, 318.7319
403.9547, 310.2460
404.4368, 303.1750
404.9189, 296.8207
405.4010, 290.2365
405.8831, 283.1769
406.3652, 276.2492
406.8474, 270.4210
407.3295, 266.2824
407.8116, 261.6635
408.2937, 255.4862
408.7758, 249.8460
409.2579, 245.9888
409.7401, 243.7453
410.2222, 242.2744
410.7043, 241.0254
411.1864, 239.9441
411.6685, 238.5069
412.1506, 236.3870
412.6328, 234.2953
413.1149, 231.8547
413.5970, 229.7080
414.0791, 228.7390
414.5612, 229.2068
415.0433, 230.2546
415.5255, 230.5047
416.0076, 229.6537
416.4897, 229.0562
416.9718, 229.2209
417.4539, 229.2906
417.9360, 228.5796
418.4182, 227.3410
418.9003, 226.5324
419.3824, 227.1328
419.8645, 228.6844
420.3466, 229.0317
420.8287, 227.5904
421.3109, 226.1431
421.7930, 225.2779
422.2751, 224.8475
422.7572, 224.8393
423.2393, 225.3459
423.7214, 225.8145
424.2036, 225.5845
424.6857, 224.6811
425.1678, 223.7252
425.6499, 222.6930
426.1320, 221.8656
426.6141, 221.8485
427.0963, 222.4680
427.5784, 222.2643
428.0605, 219.7884
428.5426, 216.4544
429.0247, 214.7289
429.5068, 214.8333
429.9890, 214.7109
430.4711, 213.0277
430.9532, 210.1139
431.4353, 207.3018
431.9174, 204.4825
432.3995, 201.9275
432.8817, 199.9011
433.3638, 198.2349
433.8459, 196.6239
434.3280, 195.0101
434.8101, 193.2367
435.2922, 190.9535
435.7744, 187.8613
436.2565, 185.6048
436.7386, 184.7375
437.2207, 184.3211
437.7028, 183.9129
438.1849, 183.3952
438.6671, 182.6029
439.1492, 181.4005
439.6313, 179.8582
440.1134, 178.4159
440.5955, 176.7671
441.0776, 175.6073
441.5598, 175.2190
442.0418, 175.2573
442.5240, 175.5386
443.0061, 175.9461
443.4882, 176.1829
443.9703, 175.7884
444.4524, 174.5574
444.9345, 173.6598
445.4167, 173.4529
445.8988, 173.2340
446.3809, 172.6945
446.8630, 171.9671
447.3451, 171.3406
447.8272, 171.0001
448.3094, 170.8215
448.7915, 170.5089
449.2736, 170.0614
449.7557, 169.4766
450.2378, 169.0167
450.7199, 168.2323
451.2021, 166.4991
451.6842, 163.8362
452.1663, 161.3499
452.6484, 160.1257
453.1305, 159.8604
453.6126, 159.1673
454.0948, 157.7201
454.5769, 156.4346
455.0590, 156.5121
455.5411, 157.1135
456.0232, 156.6300
456.5053, 154.0923
456.9875, 151.2316
457.4696, 149.4164
457.9517, 148.5186
458.4338, 147.8773
458.9159, 147.2018
459.3980, 146.8449
459.8802, 147.7258
460.3623, 150.0585
460.8444, 151.3633
461.3265, 150.2567
461.8086, 148.5760
462.2907, 147.9277
462.7729, 148.3533
463.2550, 149.2124
463.7371, 150.2013
464.2192, 151.1876
464.7013, 151.4104
465.1834, 150.0708
465.6656, 149.0411
466.1477, 148.6242
466.6298, 148.6215
467.1119, 148.9668
467.5940, 149.5762
468.0761, 150.1046
468.5583, 150.0891
469.0404, 149.3999
469.5225, 149.0099
470.0046, 149.4751
470.4867, 149.6624
470.9688, 148.9414
471.4510, 147.7685
471.9331, 146.9108
472.4152, 146.7426
472.8973, 146.9773
473.3794, 147.0823
473.8615, 147.0162
474.3437, 146.9957
474.8258, 147.1092
475.3079, 147.2402
475.7900, 147.4182
476.2721, 147.5862
476.7542, 147.4988
477.2364, 146.7802
477.7185, 145.7464
478.2006, 145.1971
478.6827, 145.2371
479.1648, 145.1411
479.6469, 144.2601
480.1291, 143.1481
480.6112, 142.9446
481.0933, 144.2094
481.5754, 144.9475
482.0575, 143.6430
482.5396, 141.2419
483.0217, 139.2937
483.5038, 138.0789
483.9860, 137.8703
484.4681, 139.3776
484.9502, 142.6614
485.4323, 143.9299
485.9144, 141.6851
486.3965, 139.1537
486.8787, 137.5935
487.3608, 136.7191
487.8429, 135.9522
488.3250, 135.0560
488.8071, 134.0722
489.2892, 133.0474
489.7714, 131.7738
490.2535, 130.9772
490.7356, 131.1517
491.2177, 131.2634
491.6998, 130.6108
492.1819, 129.4531
492.6641, 128.4914
493.1462, 128.1629
493.6283, 128.3457
494.1104, 128.8178
494.5925, 129.9068
495.0746, 130.3895
495.5568, 129.3421
496.0389, 128.0251
496.5210, 127.3473
497.0031, 127.3527
497.4852, 127.4164
497.9673, 127.1470
498.4495, 126.6025
498.9316, 125.8751
499.4137, 124.9040
499.8958, 124.0697
500.3779, 123.8940
500.8600, 123.8794
501.3422, 122.9183
501.8243, 120.3700
502.3064, 118.1502
502.7885, 117.5118
503.2706, 117.7608
503.7527, 117.7619
504.2349, 117.2763
504.7170, 116.2330
505.1991, 114.3828
505.6812, 111.6397
506.1633, 109.8515
506.6454, 109.6075
507.1276, 109.5474
507.6097, 109.2387
508.0918, 108.7712
508.5739, 108.3516
509.0560, 108.0522
509.5381, 107.7344
510.0203, 107.1566
510.5024, 106.2119
510.9845, 105.3729
511.4666, 104.7194
511.9487, 104.0952
512.4308, 103.3423
512.9130, 102.5834
513.3951, 102.1027
513.8772, 102.1024
514.3593, 102.2723
514.8414, 101.9845
515.3235, 101.1582
515.8057, 100.5055
516.2878, 100.4656
516.7699, 100.3564
517.2520, 99.41062
517.7341, 97.77412
518.2162, 96.51286
518.6984, 96.30512
519.1805, 96.57914
519.6626, 96.66302
520.1447, 96.54804
520.6268, 96.29652
521.1089, 95.84523
521.5911, 95.38374
522.0732, 95.44278
522.5553, 96.28113
523.0374, 96.79222
523.5195, 96.69518
524.0016, 96.26414
524.4838, 95.57590
524.9659, 94.74260
525.4480, 94.06377
525.9301, 93.76385
526.4122, 93.79151
526.8943, 93.88349
527.3765, 94.04324
527.8586, 94.27014
528.3407, 94.65614
528.8228, 95.04240
529.3049, 95.47351
529.7870, 95.84436
530.2692, 95.70207
530.7513, 94.24322
531.2334, 91.87815
531.7155, 91.23968
532.1976, 93.08585
532.6797, 94.89828
533.1619, 95.62487
533.6440, 95.77212
534.1261, 95.66723
534.6082, 95.28518
535.0903, 95.22995
535.5724, 96.27103
536.0546, 97.84311
536.5367, 98.64259
537.0188, 98.46372
537.5009, 98.17678
537.9830, 98.42735
538.4651, 99.10928
538.9473, 99.58733
539.4294, 99.81789
539.9115, 99.92225
540.3936, 99.79050
540.8757, 99.61849
541.3578, 99.61358
541.8400, 99.83015
542.3221, 100.2986
542.8042, 101.1363
543.2863, 102.3599
543.7684, 102.9122
544.2505, 101.9997
544.7326, 101.3488
545.2147, 100.4619
545.6968, 100.4098
546.1790, 103.4551
546.6611, 109.8281
547.1432, 115.2293
547.6253, 113.7068
548.1074, 106.0344
548.5895, 101.3703
549.0717, 100.8663
549.5538, 101.6707
550.0359, 102.8976
550.5180, 104.1528
551.0001, 104.7507
551.4822, 104.3372
551.9644, 103.8481
552.4465, 104.0788
552.9286, 104.6098
553.4107, 104.3223
553.8928, 102.9738
554.3749, 101.9333
554.8571, 102.5845
555.3392, 104.8674
555.8213, 106.3149
556.3034, 106.4891
556.7855, 106.4976
557.2676, 106.3418
557.7498, 106.3122
558.2319, 106.7853
558.7140, 107.8217
559.1961, 109.1180
559.6782, 110.3382
560.1603, 111.4712
560.6425, 112.8992
561.1246, 114.9861
561.6067, 116.8101
562.0888, 117.5292
562.5709, 118.1392
563.0530, 119.9114
563.5352, 123.1735
564.0173, 126.7846
564.4994, 129.5802
564.9815, 131.9345
565.4636, 135.1639
565.9457, 139.5222
566.4279, 144.1449
566.9100, 148.4284
567.3921, 152.5454
567.8742, 157.0891
568.3563, 162.2223
568.8384, 167.4989
569.3206, 172.7139
569.8027, 178.0123
570.2848, 183.5628
570.7669, 189.3808
571.2490, 195.6035
571.7311, 202.3244
572.2133, 209.5135
572.6954, 216.5391
573.1775, 223.2265
573.6596, 230.0242
574.1417, 236.3794
574.6238, 243.2911
575.1060, 252.1912
575.5881, 262.9264
576.0702, 273.2883
576.5523, 281.0938
577.0344, 287.1004
577.5165, 294.2250
577.9987, 302.7299
578.4808, 311.1799
578.9629, 318.9243
579.4450, 326.2255
579.9271, 333.5969
580.4092, 341.1633
580.8914, 347.9566
581.3735, 353.3316
581.8556, 357.9193
582.3377, 362.6696
582.8198, 367.4452
583.3019, 371.3568
583.7841, 373.9607
584.2662, 375.1643
584.7483, 374.7125
585.2304, 371.8779
585.7125, 368.4400
586.1946, 364.5298
586.6768, 359.9305
587.1589, 354.9328
587.6410, 349.1320
588.1231, 341.2772
588.6052, 330.2720
589.0873, 317.9901
589.5695, 308.7949
590.0516, 303.1920
590.5337, 296.8759
591.0158, 288.5273
591.4979, 279.7671
591.9800, 272.2561
592.4622, 265.6084
592.9443, 258.2490
593.4264, 249.0069
593.9085, 239.5352
594.3906, 230.9688
594.8727, 223.3406
595.3549, 216.8740
595.8370, 211.7171
596.3191, 207.0597
596.8012, 201.8065
597.2833, 195.7188
597.7654, 190.7146
598.2476, 187.5004
598.7297, 184.3822
599.2118, 180.8974
599.6939, 177.1663
600.1760, 173.2113
600.6581, 169.0918
601.1403, 165.2849
601.6224, 162.4028
602.1045, 160.3994
602.5866, 158.4538
603.0687, 156.5520
603.5508, 154.7510
604.0330, 153.0554
604.5151, 151.4957
604.9972, 150.1131
605.4793, 148.8666
605.9614, 147.9885
606.4435, 147.9167
606.9257, 148.1196
607.4078, 147.3329
607.8899, 145.7156
608.3720, 145.7585
608.8541, 149.5745
609.3362, 155.2615
609.8184, 156.7241
610.3005, 150.1828
610.7826, 144.8973
611.2647, 140.3065
611.7468, 137.4015
612.2289, 137.8691
612.7111, 140.5817
613.1932, 142.5868
613.6753, 142.0780
614.1574, 140.3961
614.6395, 140.0691
615.1216, 141.1919
615.6038, 142.4462
616.0859, 143.7974
616.5680, 144.9290
617.0501, 145.4265
617.5322, 145.4720
618.0143, 145.6719
618.4965, 146.4666
618.9786, 147.0902
619.4607, 146.6999
619.9428, 145.9106
620.4249, 145.9604
620.9070, 147.1198
621.3892, 148.6324
621.8713, 149.7653
622.3534, 150.5257
622.8355, 151.1576
623.3176, 151.9289
623.7997, 152.1940
624.2819, 151.2270
624.7640, 150.1366
625.2461, 149.9934
625.7282, 150.8689
626.2103, 151.9862
626.6924, 152.7607
627.1745, 153.3478
627.6566, 154.0639
628.1387, 154.8978
628.6208, 156.0991
629.1030, 157.9526
629.5851, 160.0004
630.0672, 161.4274
630.5493, 162.1655
631.0314, 163.4318
631.5135, 165.8470
631.9957, 168.4242
632.4778, 170.4168
632.9599, 172.1237
633.4420, 174.2079
633.9241, 176.9120
634.4063, 180.0646
634.8884, 183.5544
635.3705, 187.5231
635.8526, 190.6909
636.3347, 192.1695
636.8168, 194.0744
637.2990, 197.5075
637.7811, 201.5388
638.2632, 205.0071
638.7453, 207.6369
639.2274, 210.2495
639.7095, 213.2600
640.1917, 216.6562
640.6738, 220.8350
641.1559, 225.7222
641.6380, 229.7936
642.1201, 232.1174
642.6022, 233.3103
643.0844, 234.8006
643.5665, 237.0461
644.0486, 238.5883
644.5307, 238.6569
645.0128, 238.7687
645.4949, 239.9703
645.9771, 241.8193
646.4592, 243.3758
646.9413, 244.2217
647.4234, 244.6049
647.9055, 244.9008
648.3876, 245.1020
648.8698, 244.7527
649.3519, 243.5106
649.8340, 242.4282
650.3161, 242.5234
650.7982, 243.1245
651.2803, 242.8907
651.7625, 241.5719
652.2446, 239.8335
652.7267, 237.5100
653.2088, 235.1657
653.6909, 233.6068
654.1730, 232.7225
654.6552, 231.8068
655.1373, 230.4817
655.6194, 228.5991
656.1015, 225.6428
656.5836, 221.1118
657.0657, 216.8252
657.5479, 213.2905
658.0300, 209.6074
658.5121, 205.0309
658.9942, 200.0741
659.4763, 195.9303
659.9584, 193.2437
660.4406, 190.5710
660.9227, 186.4209
661.4048, 181.3098
661.8869, 176.3986
662.3690, 171.8625
662.8511, 167.8333
663.3333, 164.4292
663.8154, 161.5651
664.2975, 158.9162
664.7796, 156.3346
665.2617, 154.1953
665.7438, 152.6476
666.2260, 151.4126
666.7081, 150.5780
667.1902, 149.8825
667.6723, 148.5818
668.1544, 146.0996
668.6365, 143.6840
669.1187, 143.7019
669.6008, 146.0167
670.0829, 147.3096
670.5650, 146.6977
671.0471, 146.1513
671.5292, 147.3896
672.0114, 149.8439
672.4935, 151.3833
672.9756, 151.5479
673.4577, 151.5451
673.9398, 151.4431
674.4219, 151.5230
674.9041, 152.3978
675.3862, 153.7911
675.8683, 154.4995
676.3504, 153.6906
676.8325, 152.2098
677.3146, 152.1615
677.7968, 153.8756
678.2789, 155.4092
678.7610, 156.3742
679.2431, 157.3941
679.7252, 158.9998
680.2073, 160.8926
680.6895, 162.4891
681.1716, 163.7259
681.6537, 164.5221
682.1358, 164.4095
682.6179, 164.0277
683.1000, 164.4622
683.5822, 165.6964
684.0643, 166.6948
684.5464, 166.7096
685.0285, 166.2757
685.5106, 167.0900
685.9927, 170.2950
686.4749, 172.0581
686.9570, 170.9682
687.4391, 169.6632
687.9212, 169.3092
688.4033, 169.5467
688.8854, 169.5944
689.3676, 169.1653
689.8497, 168.6945
690.3318, 168.3516
690.8139, 168.2827
691.2960, 168.9499
691.7781, 170.3760
692.2603, 171.8578
692.7424, 172.9947
693.2245, 173.8745
693.7066, 174.7239
694.1887, 175.4055
694.6708, 176.3454
695.1530, 177.7430
695.6351, 179.1651
696.1172, 180.5860
696.5993, 181.8399
697.0814, 182.6062
697.5635, 182.7559
698.0457, 182.7575
698.5278, 182.7999
699.0099, 183.0806
699.4920, 184.6575
699.9741, 187.7114
700.4562, 189.9300
700.9384, 189.9089
701.4205, 188.5538
701.9026, 187.6940
702.3847, 187.3752
702.8668, 187.5001
703.3489, 188.2862
703.8311, 189.2908
704.3132, 190.5856
704.7953, 191.8505
705.2774, 192.5850
705.7595, 192.6464
706.2416, 192.4621
706.7238, 192.6180
707.2059, 192.9310
707.6880, 192.4597
708.1701, 191.0821
708.6522, 189.7942
709.1343, 189.1459
709.6164, 188.6294
710.0985, 187.4052
710.5806, 185.3840
711.0627, 183.3602
711.5449, 181.1845
712.0270, 179.2201
712.5091, 177.6054
712.9912, 176.3288
713.4733, 175.5827
713.9554, 175.2927
714.4376, 174.7552
714.9197, 173.1628
715.4018, 170.8202
715.8839, 168.9048
716.3660, 167.4791
716.8481, 166.0891
717.3303, 164.5743
717.8124, 163.0898
718.2945, 161.5467
718.7766, 160.0064
719.2587, 159.6131
719.7408, 162.1172
720.2230, 163.8384
720.7051, 162.2601
721.1872, 159.7265
721.6693, 159.2365
722.1514, 160.9536
722.6335, 162.7488
723.1157, 162.9510
723.5978, 162.2099
724.0799, 162.4282
724.5620, 163.7678
725.0441, 164.3417
725.5262, 163.4845
726.0084, 162.3395
726.4905, 161.9757
726.9726, 162.1120
727.4547, 161.6555
727.9368, 160.0969
728.4189, 158.6503
728.9011, 157.8154
729.3832, 157.1484
729.8653, 156.3035
730.3474, 155.2407
730.8295, 154.0024
731.3116, 152.6021
731.7938, 151.1264
732.2759, 149.8727
732.7580, 148.8560
733.2401, 147.0768
733.7222, 144.3876
734.2043, 141.0789
734.6865, 136.9184
735.1686, 132.4085
735.6507, 128.7247
736.1328, 126.2489
736.6149, 123.3341
737.0970, 119.1713
737.5792, 114.8883
738.0613, 111.0109
738.5434, 107.6455
739.0255, 104.9434
739.5076, 102.9069
739.9897, 101.1813
740.4719, 99.31572
740.9540, 97.36793
741.4361, 95.81591
741.9182, 94.78365
742.4003, 93.51923
742.8824, 91.61343
743.3646, 89.50608
743.8467, 87.69749
744.3288, 86.17216
744.8109, 85.07619
745.2930, 84.78226
745.7751, 84.49951
746.2573, 83.93489
746.7394, 83.19169
747.2215, 82.33496
747.7036, 81.42651
748.1857, 80.55135
748.6678, 79.64368
749.1500, 79.02524
749.6321, 79.65855
750.1142, 81.54435
750.5963, 83.05122
751.0784, 83.69640
751.5605, 84.47154
752.0427, 86.88882
752.5248, 90.18679
753.0069, 90.17497
753.4890, 83.81871
753.9711, 79.17142
754.4532, 78.00346
754.9354, 78.18128
755.4175, 78.74440
755.8996, 79.30607
756.3817, 79.40508
756.8638, 78.82473
757.3459, 78.05397
757.8281, 77.59930
758.3102, 77.43590
758.7923, 77.60631
759.2744, 78.14082
759.7565, 78.36510
760.2386, 77.87714
760.7208, 77.03020
761.2029, 76.36073
761.6850, 75.75500
762.1671, 75.82993
762.6492, 77.77600
763.1313, 78.92564
763.6135, 77.70792
764.0956, 75.70584
764.5777, 74.76689
765.0598, 75.05687
765.5419, 75.25829
766.0240, 74.28908
766.5062, 72.95391
766.9883, 72.56771
767.4704, 72.85502
767.9525, 72.56535
768.4346, 71.37679
768.9167, 70.18577
769.3989, 69.82201
769.8810, 70.12866
770.3631, 70.15815
770.8452, 69.69169
771.3273, 69.34397
771.8094, 69.48503
772.2916, 69.42972
772.7737, 68.51811
773.2558, 67.19380
773.7379, 66.47562
774.2200, 66.81096
774.7021, 67.06202
775.1843, 66.05008
775.6664, 64.76665
776.1485, 64.86557
776.6306, 66.06575
777.1127, 66.71774
777.5948, 66.07732
778.0770, 64.90746
778.5591, 64.34709
779.0412, 64.42504
779.5233, 64.47472
780.0054, 64.50314
780.4875, 64.49141
780.9697, 64.52108
781.4518, 64.43599
781.9339, 63.99837
782.4160, 63.24491
782.8981, 62.65007
783.3802, 62.45692
783.8624, 62.30038
784.3445, 62.06926
784.8266, 61.72409
785.3087, 61.16907
785.7908, 60.43598
786.2729, 59.66047
786.7551, 58.89919
787.2372, 58.28347
787.7193, 58.16285
788.2014, 58.53127
788.6835, 58.88885
789.1656, 59.27981
789.6478, 59.28531
790.1299, 58.48449
790.6120, 57.22728
791.0941, 56.35030
791.5762, 55.90364
792.0583, 55.65446
792.5404, 56.09893
793.0225, 56.18325
793.5046, 55.05118
793.9868, 53.43867
794.4689, 52.25249
794.9510, 51.71832
795.4331, 51.65862
795.9152, 52.28957
796.3973, 53.06762
796.8795, 52.95933
797.3616, 52.14055
797.8437, 51.51676
798.3258, 51.31919
798.8079, 51.11197
799.2900, 50.50399
799.7722, 49.55977
800.2543, 48.64083
800.7364, 47.60780
801.2185, 46.87865
801.7006, 46.61005
802.1827, 46.53679
802.6649, 46.70630
803.1470, 46.94557
803.6291, 46.91473
804.1112, 46.49004
804.5933, 46.10736
805.0754, 45.97062
805.5576, 45.99313
806.0397, 46.28930
806.5218, 46.64640
807.0039, 46.44429
807.4860, 45.52225
807.9681, 44.62642
808.4503, 44.64397
808.9324, 45.38740
809.4145, 45.89647
809.8966, 46.18314
810.3787, 46.11170
810.8608, 45.42645
811.3430, 44.78388
811.8251, 44.89548
812.3072, 45.61752
812.7893, 45.92324
813.2714, 45.44077
813.7535, 45.10221
814.2357, 45.02381
814.7178, 45.14231
815.1999, 45.73267
815.6820, 46.41354
816.1641, 46.31998
816.6462, 45.13544
817.1284, 43.94661
817.6105, 43.83563
818.0926, 44.37095
818.5747, 44.77776
819.0568, 45.04060
819.5389, 45.29749
820.0211, 45.60286
820.5032, 45.82546
820.9853, 45.82427
821.4674, 45.59934
821.9495, 45.13275
822.4316, 44.22626
822.9138, 43.50311
823.3959, 43.18016
823.8780, 42.96656
824.3601, 42.57285
824.8422, 42.14528
825.3243, 42.07112
825.8065, 42.43504
826.2886, 43.10821
826.7707, 44.72649
827.2528, 46.06090
827.7349, 45.66774
828.2170, 44.16206
828.6992, 42.95323
829.1813, 42.55349
829.6634, 42.69862
830.1455, 43.42910
830.6276, 44.40635
831.1097, 44.22540
831.5919, 42.91502
832.0740, 42.17560
832.5561, 42.56310
833.0382, 43.38656
833.5203, 44.14447
834.0024, 44.75417
834.4846, 44.55704
834.9667, 42.48486
835.4488, 41.37196
835.9309, 42.10590
836.4130, 42.99554
836.8951, 43.08030
837.3773, 42.74181
837.8594, 42.80757
838.3415, 43.52747
838.8236, 44.03456
839.3057, 43.77153
839.7878, 43.18531
840.2700, 42.52675
840.7521, 41.92978
841.2342, 41.64977
841.7163, 41.73509
842.1984, 42.00298
842.6805, 42.35083
843.1627, 42.66785
843.6448, 42.55037
844.1269, 41.98549
844.6090, 41.48319
845.0911, 41.11279
845.5732, 40.87651
846.0554, 40.74537
846.5375, 40.77202
847.0196, 41.14446
847.5017, 42.17491
847.9838, 42.82819
848.4659, 42.80546
848.9481, 42.76821
849.4302, 43.12358
849.9123, 43.51408
850.3944, 43.44924
850.8765, 42.89959
851.3586, 42.32766
851.8408, 41.72865
852.3229, 41.43269
852.8050, 42.24223
853.2871, 43.33254
853.7692, 42.95086
854.2513, 41.17014
854.7335, 39.76508
855.2156, 39.88012
855.6977, 40.85063
856.1798, 41.52159
856.6619, 41.90170
857.1440, 42.28834
857.6262, 42.78235
858.1083, 42.73792
858.5904, 41.58773
859.0725, 40.23215
859.5546, 40.01158
860.0367, 41.06075
860.5189, 41.67080
861.0010, 41.57965
861.4831, 41.42313
861.9652, 41.13594
862.4473, 40.95964
862.9294, 41.13285
863.4116, 41.56543
863.8937, 42.03253
864.3758, 42.57133
864.8579, 42.77814
865.3400, 42.15002
865.8221, 41.24150
866.3043, 40.67031
866.7864, 40.36915
867.2685, 40.02723
867.7506, 39.54755
868.2327, 39.10332
868.7148, 38.82821
869.1970, 38.76456
869.6791, 39.19300
870.1612, 40.11290
870.6433, 40.69287
871.1254, 40.71666
871.6075, 40.60983
872.0897, 40.76333
872.5718, 40.97154
873.0539, 40.48995
873.5360, 38.54780
874.0181, 37.68597
874.5002, 38.92901
874.9823, 40.08970
875.4644, 40.34990
875.9465, 40.22992
876.4286, 40.39637
876.9108, 40.87779
877.3929, 41.09662
877.8750, 40.75415
878.3571, 40.21894
878.8392, 39.48311
879.3214, 38.80255
879.8035, 38.48555
880.2856, 38.52128
880.7677, 38.76798
881.2498, 39.17159
881.7319, 39.57512
882.2141, 39.76726
882.6962, 39.80549
883.1783, 39.86731
883.6604, 39.95324
884.1425, 39.98779
884.6246, 39.94498
885.1068, 39.81794
885.5889, 39.56370
886.0710, 39.22700
886.5531, 39.17095
887.0352, 39.44307
887.5173, 39.88845
887.9995, 40.75515
888.4816, 41.41617
888.9637, 41.47039
889.4458, 41.05239
889.9279, 40.37664
890.4100, 39.34478
890.8922, 38.48551
891.3743, 37.74420
891.8564, 37.33586
892.3385, 37.59396
892.8206, 38.09007
893.3027, 38.39003
893.7849, 38.43680
894.2670, 38.33202
894.7491, 38.08730
895.2312, 37.79468
895.7133, 37.44736
896.1954, 37.15493
896.6776, 37.19511
897.1597, 37.48692
897.6418, 37.59573
898.1239, 37.34016
898.6060, 37.06627
899.0881, 37.28441
899.5703, 37.85112
900.0524, 37.90676
900.5345, 37.40963
901.0166, 37.29153
901.4987, 37.88136
901.9808, 38.44717
902.4630, 38.37731
902.9451, 37.84585
903.4272, 37.46893
903.9093, 37.35785
904.3914, 37.13491
904.8735, 36.55870
905.3557, 36.17521
905.8378, 36.17600
906.3199, 36.45761
906.8020, 37.10791
907.2841, 38.06295
907.7662, 38.50044
908.2484, 37.62669
908.7305, 36.96068
909.2126, 37.49897
909.6947, 38.20540
910.1768, 37.84650
910.6589, 36.85519
911.1411, 36.62370
911.6232, 37.69381
912.1053, 38.77615
912.5874, 38.49842
913.0695, 37.70721
913.5516, 37.90790
914.0338, 38.72381
914.5159, 38.84607
914.9980, 38.00930
915.4801, 36.91021
915.9622, 36.01649
916.4443, 35.46826
916.9265, 35.77496
917.4086, 36.93321
917.8907, 37.65974
918.3728, 37.86293
918.8549, 37.56877
919.3370, 36.55881
919.8192, 35.56041
920.3013, 35.68222
920.7834, 36.96707
921.2655, 37.64011
921.7476, 37.40227
922.2297, 37.06899
922.7119, 36.55268
923.1940, 36.16809
923.6761, 36.13612
924.1582, 36.35708
924.6403, 36.68291
925.1224, 37.18237
925.6046, 37.39342
926.0867, 36.81055
926.5688, 36.35296
927.0509, 36.81053
927.5330, 37.47120
928.0151, 37.35390
928.4973, 36.52970
928.9794, 35.91839
929.4615, 36.06126
929.9436, 36.29263
930.4257, 35.87755
930.9078, 35.27872
931.3900, 35.24164
931.8721, 35.65491
932.3542, 35.98205
932.8363, 36.04751
933.3184, 36.12207
933.8005, 36.51636
934.2827, 37.06861
934.7648, 37.39986
935.2469, 37.50302
935.7290, 37.17970
936.2111, 36.37041
936.6932, 35.81134
937.1754, 35.97874
937.6575, 36.49482
938.1396, 36.61982
938.6217, 36.28676
939.1038, 36.49500
939.5859, 37.60943
940.0681, 38.26494
940.5502, 37.87276
941.0323, 37.25994
941.5144, 37.08737
941.9965, 37.27208
942.4786, 37.48994
942.9608, 37.95203
943.4429, 38.01316
943.9250, 37.31257
944.4071, 36.60130
944.8892, 36.00990
945.3713, 35.67826
945.8535, 35.89864
946.3356, 36.59381
946.8177, 37.10914
947.2998, 37.36570
947.7819, 37.20337
948.2640, 36.03811
948.7462, 34.84432
949.2283, 34.62623
949.7104, 35.09376
950.1925, 35.53623
950.6746, 35.72699
951.1567, 35.76114
951.6389, 35.55104
952.1210, 35.36852
952.6031, 35.63470
953.0852, 36.17658
953.5673, 36.67606
954.0494, 37.05817
954.5316, 37.29710
955.0137, 37.38322
955.4958, 37.24381
955.9779, 36.56572
956.4600, 35.54831
956.9421, 35.25934
957.4242, 35.67617
957.9063, 36.21129
958.3884, 36.74809
958.8705, 36.96520
959.3527, 36.53762
959.8348, 35.73145
960.3169, 35.37863
960.7990, 35.61023
961.2811, 35.51992
961.7632, 34.86244
962.2454, 34.57620
962.7275, 35.30565
963.2096, 36.12359
963.6917, 35.92680
964.1738, 34.82628
964.6559, 34.04509
965.1381, 33.48682
965.6202, 33.41762
966.1023, 34.26427
966.5844, 35.10723
967.0665, 35.66374
967.5486, 35.92582
968.0308, 35.76995
968.5129, 35.20406
968.9950, 34.88827
969.4771, 35.16251
969.9592, 35.43772
970.4413, 35.41373
970.9235, 35.40509
971.4056, 35.82073
971.8877, 36.40562
972.3698, 36.63515
972.8519, 36.36853
973.3340, 35.83486
973.8162, 34.84966
974.2983, 33.97330
974.7804, 33.54175
975.2625, 33.58419
975.7446, 34.33781
976.2267, 35.60280
976.7089, 36.85561
977.1910, 37.87591
977.6731, 38.30743
978.1552, 37.39483
978.6373, 35.87312
979.1194, 34.88435
979.6016, 34.41037
980.0837, 34.43038
980.5658, 34.86459
981.0479, 35.26215
981.5300, 35.31647
982.0121, 35.17078
982.4943, 35.01441
982.9764, 34.87208
983.4585, 34.88021
983.9406, 35.04287
984.4227, 35.39147
984.9048, 35.95636
985.3870, 36.45701
985.8691, 36.65929
986.3512, 36.55963
986.8333, 35.99558
987.3154, 34.82823
987.7975, 34.44957
988.2797, 35.13311
988.7618, 35.81721
989.2439, 36.15716
989.7260, 36.16261
990.2081, 35.78560
990.6902, 35.07241
991.1724, 34.41522
991.6545, 33.59691
992.1366, 33.36759
992.6187, 34.15650
993.1008, 34.96738
993.5829, 35.41267
994.0651, 35.58319
994.5472, 35.55999
995.0293, 35.34040
995.5114, 35.09356
995.9935, 34.86360
996.4756, 34.54256
996.9578, 33.85429
997.4399, 33.34883
997.9220, 33.47837
998.4041, 33.92498
998.8862, 34.18357
999.3683, 34.19342
999.8505, 34.22649
1000.333, 34.44318
1000.815, 34.57055
1001.297, 34.36291
1001.779, 34.15534
1002.261, 34.35238
1002.743, 34.72824
1003.225, 34.67126
1003.707, 34.02298
1004.190, 33.75889
1004.672, 34.92341
1005.154, 35.99909
1005.636, 35.75409
1006.118, 35.00795
1006.600, 34.66673
1007.082, 34.75920
1007.564, 35.02683
1008.046, 35.37893
1008.529, 35.67322
1009.011, 35.88019
1009.493, 35.89864
1009.975, 35.36001
1010.457, 34.66509
1010.939, 34.74099
1011.421, 35.44056
1011.903, 35.62328
1012.385, 34.71977
1012.868, 33.59938
1013.350, 33.14367
1013.832, 33.15790
1014.314, 33.31670
1014.796, 33.62379
1015.278, 34.24693
1015.760, 35.12348
1016.242, 35.67176
1016.725, 35.53417
1017.207, 35.11701
1017.689, 35.02678
1018.171, 35.14458
1018.653, 35.02857
1019.135, 34.70660
1019.617, 34.30290
1020.099, 33.86482
1020.581, 33.87957
1021.064, 34.76657
1021.546, 35.80895
1022.028, 35.42327
1022.510, 33.79081
1022.992, 33.18135
1023.474, 33.62611
1023.956, 33.93174
1024.438, 33.80836
1024.921, 33.30725
1025.403, 32.35005
1025.885, 31.36251
1026.367, 31.51095
1026.849, 32.90520
1027.331, 33.60835
1027.813, 33.52166
1028.295, 33.25316
1028.777, 32.85675
1029.260, 32.72267
1029.742, 33.24537
1030.224, 34.15955
1030.706, 34.70725
1031.188, 34.83892
1031.670, 34.88670
1032.152, 34.88912
1032.634, 34.65746
1033.116, 33.95589
1033.599, 33.36728
1034.081, 33.46672
1034.563, 33.99799
1035.045, 34.13297
1035.527, 33.68414
1036.009, 33.51344
1036.491, 33.88143
1036.973, 34.00526
1037.456, 33.36189
1037.938, 32.80428
1038.420, 33.28612
1038.902, 34.37666
1039.384, 34.54765
1039.866, 33.24640
1040.348, 32.58302
1040.830, 33.03334
1041.313, 33.44178
1041.795, 33.26563
1042.277, 33.16379
1042.759, 33.97562
1043.241, 35.27721
1043.723, 35.66577
1044.205, 34.68979
1044.687, 34.01789
1045.169, 33.78077
1045.651, 33.77140
1046.134, 34.17998
1046.616, 34.57891
1047.098, 34.57157
1047.580, 34.27516
1048.062, 34.10174
1048.544, 34.22799
1049.026, 33.98031
1049.508, 32.65297
1049.991, 31.74005
1050.473, 32.01234
1050.955, 32.65490
1051.437, 33.14925
1051.919, 33.42228
1052.401, 33.37726
1052.883, 32.91902
1053.365, 32.51445
1053.848, 32.02129
1054.330, 31.90590
1054.812, 32.86491
1055.294, 33.82425
1055.776, 33.72020
1056.258, 32.89354
1056.740, 32.26237
1057.222, 31.97092
1057.704, 31.99660
1058.187, 32.83458
1058.669, 33.34911
1059.151, 32.79655
1059.633, 31.94205
1060.115, 31.29837
1060.597, 30.94073
1061.079, 30.94518
1061.561, 31.35960
1062.043, 31.73094
1062.526, 31.72802
1063.008, 31.87587
1063.490, 32.79041
1063.972, 33.62273
1064.454, 33.44773
1064.936, 32.65824
1065.418, 32.13709
1065.900, 32.06654
1066.383, 32.12650
1066.865, 32.50839
1067.347, 32.58636
1067.829, 31.48873
1068.311, 30.49051
1068.793, 30.95066
1069.275, 32.25153
1069.757, 33.21976
1070.240, 33.60581
1070.722, 33.50327
1071.204, 32.65567
1071.686, 31.71378
1072.168, 30.47149
1072.650, 29.73757
1073.132, 30.75021
1073.614, 32.49361
1074.096, 33.12138
1074.578, 32.41226
1075.061, 31.74050
1075.543, 31.71219
1076.025, 31.75742
1076.507, 31.41729
1076.989, 31.22467
1077.471, 31.91763
1077.953, 32.87902
1078.435, 33.03153
1078.918, 32.35438
1079.400, 31.84072
1079.882, 31.94523
1080.364, 32.09925
1080.846, 31.92760
1081.328, 31.81419
1081.810, 32.29011
1082.292, 32.84571
1082.774, 32.65920
1083.257, 31.81347
1083.739, 31.18702
1084.221, 31.15528
1084.703, 31.12348
1085.185, 30.49295
1085.667, 30.13678
1086.149, 31.17694
1086.631, 32.42586
1087.114, 32.28001
1087.596, 31.01877
1088.078, 30.11053
1088.560, 29.98549
1089.042, 30.18844
1089.524, 30.83352
1090.006, 31.39166
1090.488, 31.34854
1090.970, 31.23981
1091.453, 31.68765
1091.935, 32.52597
1092.417, 33.28242
1092.899, 33.88271
1093.381, 34.04534
1093.863, 33.28477
1094.345, 32.55565
1094.827, 32.40147
1095.309, 32.37243
1095.792, 32.00688
1096.274, 31.49616
1096.756, 31.20029
1097.238, 31.18598
1097.720, 31.53632
1098.202, 32.87358
1098.684, 33.75060
1099.166, 33.27184
1099.649, 32.59379
1100.131, 32.60949
1100.613, 32.90246
1101.095, 32.77677
1101.577, 32.18419
1102.059, 31.54461
1102.541, 30.63613
1103.023, 30.21857
1103.505, 31.02503
1103.988, 31.72745
1104.470, 31.59321
1104.952, 30.98183
1105.434, 30.05899
1105.916, 29.02697
1106.398, 28.70638
1106.880, 29.46979
1107.362, 30.35460
1107.844, 31.86071
1108.327, 32.63802
1108.809, 31.29432
1109.291, 29.77169
1109.773, 30.09412
1110.255, 31.63043
1110.737, 32.34295
1111.219, 31.87507
1111.701, 31.45197
1112.184, 31.07858
1112.666, 30.87144
1113.148, 30.92578
1113.630, 31.08189
1114.112, 31.39105
1114.594, 31.66935
1115.076, 31.51953
1115.558, 30.88123
1116.041, 30.42516
1116.523, 30.16765
1117.005, 30.06720
1117.487, 30.11160
1117.969, 30.34047
1118.451, 31.03382
1118.933, 31.66767
1119.415, 31.39573
1119.897, 30.35325
1120.380, 30.10235
1120.862, 31.25034
1121.344, 31.64802
1121.826, 30.86290
1122.308, 30.07183
1122.790, 29.54859
1123.272, 29.43505
1123.754, 30.04656
1124.236, 31.05192
1124.719, 31.25415
1125.201, 30.41943
1125.683, 30.01877
1126.165, 30.11276
1126.647, 30.47234
1127.129, 31.17357
1127.611, 31.67087
1128.093, 31.55402
1128.576, 31.07621
1129.058, 30.68090
1129.540, 30.37050
1130.022, 30.23513
1130.504, 30.32214
1130.986, 29.85834
1131.468, 28.62137
1131.950, 28.05301
1132.432, 28.92893
1132.915, 30.24325
1133.397, 30.80007
1133.879, 30.77337
1134.361, 30.71029
1134.843, 30.62393
1135.325, 30.72655
1135.807, 31.01602
1136.289, 31.24571
1136.771, 31.32984
1137.254, 30.96442
1137.736, 29.78664
1138.218, 28.56459
1138.700, 28.94924
1139.182, 30.40184
1139.664, 31.17860
1140.146, 31.33614
1140.628, 31.30062
1141.111, 31.17320
1141.593, 30.91443
1142.075, 30.49800
1142.557, 30.11563
1143.039, 29.97349
1143.521, 30.01279
1144.003, 30.15873
1144.485, 30.40195
1144.968, 30.91066
1145.450, 31.48649
1145.932, 31.41698
1146.414, 30.55098
1146.896, 29.71915
1147.378, 29.53466
1147.860, 29.55711
1148.342, 29.27464
1148.824, 29.03739
1149.307, 29.38049
1149.789, 30.02027
1150.271, 30.47637
1150.753, 30.65674
1151.235, 30.60318
1151.717, 30.27295
1152.199, 30.00320
1152.681, 30.05419
1153.163, 30.14991
1153.646, 30.12681
1154.128, 30.03934
1154.610, 29.79671
1155.092, 29.58752
1155.574, 29.92029
1156.056, 30.91221
1156.538, 31.57926
1157.020, 31.41614
1157.503, 31.21035
1157.985, 31.31351
1158.467, 31.29844
1158.949, 30.79350
1159.431, 30.09307
1159.913, 29.47453
1160.395, 28.99016
1160.877, 28.94249
1161.359, 29.61407
1161.842, 30.19016
1162.324, 30.70303
1162.806, 31.07084
1163.288, 31.46150
1163.770, 31.41795
1164.252, 30.25644
1164.734, 28.67911
1165.216, 28.34361
1165.698, 29.38446
1166.181, 29.81825
1166.663, 29.35830
1167.145, 29.42739
1167.627, 30.42120
1168.109, 31.20227
1168.591, 31.19363
1169.073, 30.86950
1169.555, 30.76427
1170.037, 30.81683
1170.520, 30.83634
1171.002, 30.81907
1171.484, 30.54546
1171.966, 30.01709
1172.448, 29.65370
1172.930, 29.56373
1173.412, 29.46601
1173.894, 29.16009
1174.377, 28.85647
1174.859, 28.92426
1175.341, 29.21540
1175.823, 29.28189
1176.305, 29.22793
1176.787, 29.54632
1177.269, 30.09718
1177.751, 29.90120
1178.234, 28.70272
1178.716, 27.70164
1179.198, 27.89969
1179.680, 28.53721
1180.162, 28.94045
1180.644, 29.16893
1181.126, 29.27568
1181.608, 29.27804
1182.090, 28.98945
1182.573, 28.59709
1183.055, 28.94116
1183.537, 30.49503
1184.019, 31.60880
1184.501, 30.92562
1184.983, 30.18097
1185.465, 30.53483
1185.947, 31.06195
1186.429, 30.97737
1186.912, 30.45616
1187.394, 29.77862
1187.876, 29.01210
1188.358, 28.68502
1188.840, 29.25894
1189.322, 29.67308
1189.804, 29.66086
1190.286, 29.68516
1190.769, 29.96094
1191.251, 30.27405
1191.733, 30.42774
1192.215, 30.49251
1192.697, 30.70760
1193.179, 31.15486
1193.661, 30.96518
1194.143, 29.86812
1194.625, 29.17117
1195.108, 29.12805
1195.590, 29.27162
1196.072, 29.42256
1196.554, 29.46602
1197.036, 29.22322
1197.518, 28.85650
1198.000, 28.91462
1198.482, 29.34656
1198.964, 29.81608
1199.447, 30.24740
1199.929, 29.98882
1200.411, 29.00001
1200.893, 28.43915
1201.375, 28.98886
1201.857, 29.83578
1202.339, 30.06511
1202.821, 29.96952
1203.304, 30.02155
1203.786, 30.10324
1204.268, 29.83857
1204.750, 29.45554
1205.232, 29.75469
1205.714, 30.75701
1206.196, 31.33183
1206.678, 30.80208
1207.161, 30.05619
1207.643, 29.41636
1208.125, 29.01521
1208.607, 28.33723
1209.089, 28.44566
1209.571, 29.99771
1210.053, 33.36766
1210.535, 41.15824
1211.017, 54.34854
1211.500, 58.67151
1211.982, 43.71880
1212.464, 32.71610
1212.946, 30.75697
1213.428, 30.58083
1213.910, 30.03184
1214.392, 29.56778
1214.874, 29.72989
1215.356, 30.25491
1215.839, 30.33007
1216.321, 29.91148
1216.803, 29.35084
1217.285, 28.51725
1217.767, 28.58121
1218.249, 29.85785
1218.731, 30.89489
1219.213, 31.00624
1219.696, 30.48050
1220.178, 29.49900
1220.660, 28.43580
1221.142, 28.17985
1221.624, 28.57057
1222.106, 29.40613
1222.588, 30.36262
1223.070, 30.17660
1223.552, 28.89920
1224.035, 28.05380
1224.517, 28.35353
1224.999, 28.86464
1225.481, 28.75333
1225.963, 28.55305
1226.445, 28.82735
1226.927, 29.19403
1227.409, 29.31213
1227.891, 29.18951
1228.374, 28.82101
1228.856, 28.27405
1229.338, 27.76122
1229.820, 27.17180
1230.302, 27.17545
1230.784, 28.76923
1231.266, 29.81150
1231.748, 29.31301
1232.231, 28.39758
1232.713, 27.33263
1233.195, 26.65200
1233.677, 27.36590
1234.159, 29.23516
1234.641, 30.05798
1235.123, 29.57836
1235.605, 29.26404
1236.088, 29.17797
1236.570, 29.15489
1237.052, 29.15594
1237.534, 29.16463
1238.016, 29.16315
1238.498, 29.23608
1238.980, 29.62298
1239.462, 30.04943
1239.944, 29.55243
1240.427, 28.53259
1240.909, 28.20997
1241.391, 28.49163
1241.873, 28.70952
1242.355, 28.72186
1242.837, 28.85774
1243.319, 29.34231
1243.801, 29.61213
1244.283, 28.88723
1244.766, 28.20285
1245.248, 28.59694
1245.730, 29.19587
1246.212, 28.97583
1246.694, 28.38580
1247.176, 28.29305
1247.658, 28.76682
1248.140, 29.38800
1248.622, 30.58526
1249.105, 30.87087
1249.587, 29.37214
1250.069, 28.24232
1250.551, 27.95531
1251.033, 28.21433
1251.515, 29.05878
1251.997, 29.96955
1252.479, 30.17145
1252.962, 29.74588
1253.444, 28.97650
1253.926, 27.88136
1254.408, 27.77494
1254.890, 28.62725
1255.372, 28.73281
1255.854, 27.77025
1256.336, 27.14953
1256.818, 27.68772
1257.301, 28.64993
1257.783, 29.41108
1258.265, 29.92449
1258.747, 29.92396
1259.229, 29.77641
1259.711, 30.24982
1260.193, 30.85400
1260.675, 30.41431
1261.157, 29.04752
1261.640, 28.07668
1262.122, 27.92325
1262.604, 28.08312
1263.086, 28.46458
1263.568, 29.04013
1264.050, 30.43576
1264.532, 31.27937
1265.014, 30.28196
1265.497, 28.77144
1265.979, 28.22095
1266.461, 28.46959
1266.943, 28.94507
1267.425, 29.75992
1267.907, 29.84584
1268.389, 29.11841
1268.871, 28.57844
1269.354, 28.40342
1269.836, 28.37336
1270.318, 28.38851
1270.800, 28.40813
1271.282, 28.36590
1271.764, 28.38561
1272.246, 28.82236
1272.728, 29.35295
1273.210, 29.33522
1273.693, 29.01192
1274.175, 28.79644
1274.657, 28.76836
1275.139, 28.99465
1275.621, 29.47045
1276.103, 29.73019
1276.585, 29.38556
1277.067, 29.11933
1277.549, 29.28985
1278.032, 29.42059
1278.514, 28.97623
1278.996, 28.70473
1279.478, 29.50619
1279.960, 30.74100
1280.442, 31.15664
1280.924, 30.77580
1281.406, 30.25014
1281.889, 29.51725
1282.371, 29.18544
1282.853, 29.31736
1283.335, 29.43205
1283.817, 29.39527
1284.299, 29.49936
1284.781, 29.95356
1285.263, 30.27108
1285.745, 29.95118
1286.228, 28.99067
##END=



