##NAMES=Orpiment
##RRUFFID=R060116
##IDEAL CHEMISTRY=As^3+^_2_S^2-^_3_
##LOCALITY=Quiruvilca, Peru
##OWNER=RRUFF
##SOURCE=University of Arizona Mineral Museum
##DESCRIPTION=Brownish-yellow prismatic crystals
##STATUS=The identification of this mineral has been confirmed by X-ray diffraction and chemical analysis
##URL=rruff.info/R060116
##MEASURED CHEMISTRY=As_1.83_S_3.00_
92.02539, 2187.280
92.50751, 2163.754
92.98962, 2168.470
93.47174, 2185.318
93.95386, 2214.026
94.43597, 2238.989
94.91809, 2257.643
95.40021, 2272.393
95.88232, 2282.229
96.36444, 2284.891
96.84656, 2285.902
97.32867, 2287.584
97.81078, 2290.363
98.29290, 2294.285
98.77502, 2297.952
99.25713, 2297.755
99.73925, 2298.292
100.2214, 2299.113
100.7035, 2301.739
101.1856, 2305.707
101.6677, 2311.259
102.1498, 2319.599
102.6320, 2331.742
103.1141, 2346.046
103.5962, 2371.186
104.0783, 2419.169
104.5604, 2473.019
105.0425, 2515.409
105.5247, 2542.144
106.0068, 2553.326
106.4889, 2543.900
106.9710, 2511.621
107.4531, 2479.666
107.9352, 2452.650
108.4173, 2432.069
108.8995, 2426.797
109.3816, 2444.219
109.8637, 2477.059
110.3458, 2515.088
110.8279, 2556.487
111.3100, 2606.811
111.7922, 2672.525
112.2743, 2753.702
112.7564, 2850.359
113.2385, 2961.588
113.7206, 3086.480
114.2027, 3227.649
114.6849, 3386.636
115.1670, 3559.459
115.6491, 3729.533
116.1312, 3906.340
116.6133, 4069.666
117.0954, 4214.640
117.5776, 4345.102
118.0597, 4464.935
118.5418, 4575.589
119.0239, 4676.910
119.5060, 4797.908
119.9881, 4933.827
120.4703, 5088.582
120.9524, 5260.026
121.4345, 5449.872
121.9166, 5666.366
122.3987, 5916.190
122.8808, 6205.805
123.3630, 6520.956
123.8451, 6861.182
124.3272, 7227.679
124.8093, 7616.075
125.2914, 8025.940
125.7735, 8463.684
126.2557, 8934.026
126.7378, 9431.986
127.2199, 9974.555
127.7020, 10543.60
128.1841, 11157.09
128.6662, 11853.19
129.1483, 12603.13
129.6305, 13509.83
130.1126, 14576.30
130.5947, 15813.97
131.0768, 17285.34
131.5589, 19002.98
132.0410, 20946.42
132.5232, 23305.09
133.0053, 26242.86
133.4874, 29542.38
133.9695, 33375.52
134.4516, 37691.50
134.9337, 41933.09
135.4159, 45431.71
135.8980, 48757.61
136.3801, 49969.99
136.8622, 48628.64
137.3443, 45741.36
137.8264, 41806.22
138.3086, 37069.51
138.7907, 31919.27
139.2728, 27532.16
139.7549, 24063.53
140.2370, 21221.63
140.7191, 19110.76
141.2013, 17588.54
141.6834, 16482.75
142.1655, 15733.71
142.6476, 15308.09
143.1297, 15065.79
143.6118, 15012.25
144.0939, 15085.00
144.5761, 15260.94
145.0582, 15542.70
145.5403, 15936.87
146.0224, 16426.69
146.5045, 17063.10
146.9866, 17900.67
147.4688, 18894.60
147.9509, 20128.62
148.4330, 21619.90
148.9151, 23340.58
149.3972, 25516.27
149.8793, 28092.65
150.3615, 31271.12
150.8436, 35482.86
151.3257, 40779.90
151.8078, 47246.95
152.2899, 55483.24
152.7720, 67517.16
153.2542, 77729.73
153.7363, 85732.48
154.2184, 90652.86
154.7005, 90934.00
155.1826, 84814.42
155.6647, 72910.38
156.1469, 61604.84
156.6290, 50500.54
157.1111, 40607.17
157.5932, 32186.69
158.0753, 25174.57
158.5574, 19499.44
159.0396, 15153.62
159.5217, 12222.62
160.0038, 9943.932
160.4859, 8518.923
160.9680, 7450.814
161.4501, 6635.470
161.9323, 6020.056
162.4144, 5543.997
162.8965, 5155.271
163.3786, 4867.960
163.8607, 4628.028
164.3428, 4445.872
164.8250, 4299.103
165.3071, 4181.873
165.7892, 4090.959
166.2713, 4010.324
166.7534, 3921.684
167.2355, 3823.929
167.7177, 3727.041
168.1998, 3629.465
168.6819, 3533.750
169.1640, 3442.693
169.6461, 3356.361
170.1282, 3277.032
170.6104, 3208.089
171.0925, 3148.220
171.5746, 3098.032
172.0567, 3058.281
172.5388, 3028.621
173.0209, 3007.718
173.5031, 2994.045
173.9852, 2992.698
174.4673, 3003.523
174.9494, 3026.529
175.4315, 3063.791
175.9136, 3116.012
176.3958, 3183.272
176.8779, 3266.776
177.3600, 3370.488
177.8421, 3490.045
178.3242, 3618.871
178.8063, 3758.493
179.2885, 3916.907
179.7706, 4098.028
180.2527, 4296.755
180.7348, 4545.474
181.2169, 4851.748
181.6990, 5203.068
182.1812, 5613.771
182.6633, 6078.519
183.1454, 6555.365
183.6275, 6996.161
184.1096, 7428.943
184.5917, 7751.925
185.0738, 7975.796
185.5560, 8109.191
186.0381, 8134.728
186.5202, 8056.489
187.0023, 7918.190
187.4844, 7789.916
187.9665, 7625.823
188.4487, 7557.373
188.9308, 7587.071
189.4129, 7705.381
189.8950, 7911.215
190.3771, 8202.659
190.8592, 8566.559
191.3414, 8981.744
191.8235, 9444.808
192.3056, 9964.752
192.7877, 10523.01
193.2698, 11142.05
193.7519, 11842.77
194.2341, 12627.23
194.7162, 13521.00
195.1983, 14585.86
195.6804, 15762.71
196.1625, 17171.52
196.6446, 18767.39
197.1268, 20624.13
197.6089, 22867.43
198.0910, 25454.53
198.5731, 28632.67
199.0552, 32660.90
199.5373, 37509.43
200.0195, 43090.42
200.5016, 50134.68
200.9837, 58215.55
201.4658, 65319.59
201.9479, 72028.23
202.4300, 75997.09
202.9122, 75021.48
203.3943, 68791.10
203.8764, 60242.65
204.3585, 50690.10
204.8406, 40127.14
205.3227, 31052.34
205.8048, 24484.28
206.2870, 19522.71
206.7691, 15758.75
207.2512, 13136.95
207.7333, 11239.76
208.2154, 9745.300
208.6975, 8691.873
209.1797, 7818.526
209.6618, 7173.257
210.1439, 6641.272
210.6260, 6185.886
211.1081, 5795.955
211.5902, 5462.351
212.0724, 5177.762
212.5545, 4952.663
213.0366, 4752.793
213.5187, 4576.713
214.0008, 4421.675
214.4829, 4287.187
214.9651, 4173.169
215.4472, 4076.682
215.9293, 3995.459
216.4114, 3936.607
216.8935, 3879.473
217.3756, 3820.643
217.8578, 3765.057
218.3399, 3716.044
218.8220, 3674.427
219.3041, 3637.850
219.7862, 3602.898
220.2683, 3567.479
220.7505, 3538.925
221.2326, 3519.001
221.7147, 3503.861
222.1968, 3491.763
222.6789, 3481.875
223.1610, 3472.520
223.6432, 3461.214
224.1253, 3446.927
224.6074, 3432.488
225.0895, 3416.314
225.5716, 3400.818
226.0537, 3387.593
226.5358, 3377.066
227.0180, 3370.104
227.5001, 3368.585
227.9822, 3374.624
228.4643, 3379.734
228.9464, 3383.327
229.4285, 3385.799
229.9107, 3387.484
230.3928, 3388.461
230.8749, 3388.632
231.3570, 3387.174
231.8391, 3383.716
232.3212, 3382.610
232.8034, 3386.802
233.2855, 3392.876
233.7676, 3396.713
234.2497, 3397.568
234.7318, 3396.325
235.2139, 3393.088
235.6961, 3388.141
236.1782, 3383.498
236.6603, 3377.529
237.1424, 3372.810
237.6245, 3375.260
238.1066, 3388.017
238.5888, 3399.756
239.0709, 3397.568
239.5530, 3385.224
240.0351, 3373.257
240.5172, 3364.350
240.9993, 3358.253
241.4815, 3355.950
241.9636, 3359.807
242.4457, 3361.211
242.9278, 3351.339
243.4099, 3334.424
243.8920, 3318.885
244.3742, 3307.409
244.8563, 3299.859
245.3384, 3296.406
245.8205, 3298.137
246.3026, 3301.698
246.7847, 3304.946
247.2668, 3308.591
247.7490, 3314.120
248.2311, 3323.450
248.7132, 3334.481
249.1953, 3340.563
249.6774, 3335.895
250.1595, 3338.625
250.6417, 3360.417
251.1238, 3391.908
251.6059, 3420.811
252.0880, 3440.235
252.5701, 3455.387
253.0522, 3480.363
253.5344, 3520.022
254.0165, 3560.107
254.4986, 3595.537
254.9807, 3629.241
255.4628, 3664.292
255.9449, 3701.691
256.4271, 3741.708
256.9092, 3785.976
257.3913, 3837.692
257.8734, 3887.357
258.3555, 3930.163
258.8376, 3971.719
259.3198, 4018.394
259.8019, 4072.577
260.2840, 4130.188
260.7661, 4182.572
261.2482, 4227.144
261.7303, 4271.003
262.2125, 4310.247
262.6946, 4352.194
263.1767, 4404.344
263.6588, 4468.889
264.1409, 4539.242
264.6230, 4603.299
265.1052, 4652.368
265.5873, 4712.817
266.0694, 4781.383
266.5515, 4861.993
267.0336, 4954.618
267.5157, 5060.143
267.9979, 5183.381
268.4800, 5331.368
268.9621, 5504.826
269.4442, 5704.885
269.9263, 5921.870
270.4084, 6166.315
270.8906, 6443.118
271.3727, 6753.465
271.8548, 7096.660
272.3369, 7474.053
272.8190, 7888.733
273.3011, 8323.473
273.7833, 8801.302
274.2654, 9275.502
274.7475, 9720.441
275.2296, 10134.90
275.7117, 10525.65
276.1938, 10894.77
276.6760, 11233.49
277.1581, 11610.79
277.6402, 12006.73
278.1223, 12449.58
278.6044, 12939.88
279.0865, 13488.32
279.5686, 14114.17
280.0508, 14832.58
280.5329, 15641.80
281.0150, 16554.80
281.4971, 17529.84
281.9792, 18627.79
282.4613, 19857.70
282.9435, 21228.71
283.4256, 22743.21
283.9077, 24388.64
284.3898, 26191.35
284.8719, 28308.62
285.3540, 30688.50
285.8362, 33387.33
286.3183, 36390.98
286.8004, 39728.58
287.2825, 43460.13
287.7646, 47631.40
288.2467, 52189.75
288.7289, 57055.73
289.2110, 62600.04
289.6931, 67952.27
290.1752, 73438.70
290.6573, 78512.43
291.1394, 82584.43
291.6216, 85479.09
292.1037, 86823.68
292.5858, 85683.21
293.0679, 81455.28
293.5500, 75897.83
294.0321, 68211.86
294.5143, 59685.16
294.9964, 51480.53
295.4785, 43886.35
295.9606, 37202.41
296.4427, 31874.94
296.9248, 28190.82
297.4070, 25303.54
297.8891, 23378.51
298.3712, 22126.95
298.8533, 21372.21
299.3354, 21069.38
299.8175, 21115.38
300.2997, 21422.51
300.7818, 22028.83
301.2639, 22857.77
301.7460, 23911.29
302.2281, 25170.46
302.7102, 26593.05
303.1924, 28194.49
303.6745, 30073.50
304.1566, 32280.62
304.6387, 34858.62
305.1208, 38006.90
305.6029, 41507.51
306.0851, 45720.33
306.5672, 50758.45
307.0493, 56647.11
307.5314, 63506.86
308.0135, 71490.52
308.4956, 80444.30
308.9778, 89586.95
309.4599, 100479.6
309.9420, 109686.8
310.4241, 117436.8
310.9062, 122641.6
311.3883, 122752.7
311.8705, 116491.3
312.3526, 105365.0
312.8347, 91991.92
313.3168, 74766.17
313.7989, 59296.59
314.2810, 46510.40
314.7632, 36167.89
315.2453, 28085.94
315.7274, 22288.71
316.2095, 18147.52
316.6916, 14983.40
317.1737, 12949.98
317.6559, 11280.85
318.1380, 10026.70
318.6201, 9048.877
319.1022, 8258.287
319.5843, 7631.220
320.0664, 7120.804
320.5485, 6690.106
321.0306, 6350.505
321.5128, 6064.360
321.9949, 5842.231
322.4770, 5660.968
322.9591, 5510.550
323.4412, 5389.226
323.9233, 5292.748
324.4055, 5221.146
324.8876, 5172.752
325.3697, 5135.008
325.8518, 5103.924
326.3339, 5085.415
326.8160, 5079.971
327.2982, 5088.637
327.7803, 5114.138
328.2624, 5158.415
328.7445, 5218.949
329.2266, 5290.230
329.7087, 5367.721
330.1909, 5461.468
330.6730, 5560.758
331.1551, 5681.578
331.6372, 5844.015
332.1193, 6053.895
332.6014, 6305.091
333.0836, 6590.150
333.5657, 6907.442
334.0478, 7276.728
334.5299, 7695.413
335.0120, 8165.904
335.4941, 8694.986
335.9763, 9279.477
336.4584, 9916.521
336.9405, 10600.16
337.4226, 11336.36
337.9047, 12111.86
338.3868, 12913.53
338.8690, 13768.16
339.3511, 14681.32
339.8332, 15660.76
340.3153, 16715.15
340.7974, 17851.07
341.2795, 19065.27
341.7617, 20332.73
342.2438, 21649.82
342.7259, 23011.33
343.2080, 24382.51
343.6901, 25807.75
344.1722, 27316.72
344.6544, 28912.03
345.1365, 30655.92
345.6186, 32668.29
346.1007, 34941.36
346.5828, 37566.13
347.0649, 40417.57
347.5471, 43677.65
348.0292, 47447.46
348.5113, 51747.14
348.9934, 56693.34
349.4755, 62340.54
349.9576, 68699.45
350.4398, 76013.09
350.9219, 84312.46
351.4040, 93354.59
351.8861, 103201.3
352.3682, 113643.3
352.8503, 124330.9
353.3325, 135001.5
353.8146, 145608.8
354.2967, 155745.3
354.7788, 166308.3
355.2609, 175359.5
355.7430, 182247.0
356.2252, 187412.0
356.7073, 191329.3
357.1894, 194192.4
357.6715, 196341.3
358.1536, 198851.3
358.6357, 204517.7
359.1179, 205931.5
359.5999, 203549.2
360.0821, 196804.7
360.5642, 184202.4
361.0463, 165941.1
361.5284, 144897.9
362.0105, 124068.7
362.4926, 102764.9
362.9748, 84466.99
363.4569, 69591.01
363.9390, 57113.55
364.4211, 47079.13
364.9032, 39105.70
365.3853, 32736.26
365.8675, 27696.24
366.3496, 23914.99
366.8317, 20737.07
367.3138, 18394.50
367.7959, 16436.13
368.2780, 14833.44
368.7602, 13517.28
369.2423, 12428.70
369.7244, 11550.75
370.2065, 10846.97
370.6886, 10250.42
371.1707, 9768.013
371.6529, 9386.845
372.1350, 9124.382
372.6171, 8938.776
373.0992, 8806.396
373.5813, 8723.848
374.0634, 8694.683
374.5456, 8723.665
375.0277, 8810.818
375.5098, 8949.223
375.9919, 9133.388
376.4740, 9384.072
376.9561, 9697.014
377.4383, 10079.10
377.9204, 10542.17
378.4025, 11103.32
378.8846, 11747.25
379.3667, 12446.57
379.8488, 13227.50
380.3310, 13995.53
380.8131, 14797.72
381.2952, 15531.87
381.7773, 16114.94
382.2594, 16547.75
382.7415, 16724.54
383.2237, 16516.72
383.7058, 15925.55
384.1879, 15064.84
384.6700, 13830.87
385.1521, 12450.41
385.6342, 11076.27
386.1164, 9726.605
386.5985, 8492.529
387.0806, 7433.841
387.5627, 6538.106
388.0448, 5777.283
388.5269, 5161.107
389.0091, 4649.567
389.4912, 4242.275
389.9733, 3917.521
390.4554, 3639.293
390.9375, 3408.341
391.4196, 3214.192
391.9018, 3052.478
392.3839, 2921.354
392.8660, 2811.062
393.3481, 2720.983
393.8302, 2646.785
394.3123, 2578.521
394.7945, 2515.829
395.2766, 2458.832
395.7587, 2407.543
396.2408, 2362.097
396.7229, 2325.205
397.2050, 2297.822
397.6872, 2272.496
398.1693, 2240.220
398.6514, 2200.210
399.1335, 2163.272
399.6156, 2133.280
400.0977, 2103.373
400.5798, 2069.639
401.0620, 2031.714
401.5441, 1989.348
402.0262, 1941.972
402.5083, 1890.346
402.9904, 1839.222
403.4725, 1790.691
403.9547, 1739.973
404.4368, 1682.262
404.9189, 1623.283
405.4010, 1572.081
405.8831, 1531.313
406.3652, 1493.504
406.8474, 1446.960
407.3295, 1385.668
407.8116, 1334.368
408.2937, 1296.597
408.7758, 1264.498
409.2579, 1234.077
409.7401, 1205.232
410.2222, 1179.457
410.7043, 1157.684
411.1864, 1139.774
411.6685, 1123.647
412.1506, 1109.178
412.6328, 1096.984
413.1149, 1087.070
413.5970, 1079.455
414.0791, 1074.665
414.5612, 1072.769
415.0433, 1072.199
415.5255, 1070.481
416.0076, 1067.153
416.4897, 1064.249
416.9718, 1060.638
417.4539, 1058.594
417.9360, 1059.934
418.4182, 1064.033
418.9003, 1068.738
419.3824, 1073.279
419.8645, 1077.107
420.3466, 1077.449
420.8287, 1072.733
421.3109, 1067.743
421.7930, 1063.654
422.2751, 1060.660
422.7572, 1059.644
423.2393, 1061.323
423.7214, 1062.737
424.2036, 1059.958
424.6857, 1053.190
425.1678, 1047.673
425.6499, 1045.100
426.1320, 1043.500
426.6141, 1041.187
427.0963, 1038.207
427.5784, 1034.763
428.0605, 1031.819
428.5426, 1028.109
429.0247, 1021.140
429.5068, 1010.576
429.9890, 999.8774
430.4711, 992.3467
430.9532, 985.9339
431.4353, 974.3859
431.9174, 952.8361
432.3995, 933.3267
432.8817, 923.8110
433.3638, 920.5536
433.8459, 915.8495
434.3280, 907.3972
434.8101, 896.5582
435.2922, 884.4819
435.7744, 870.0456
436.2565, 859.7184
436.7386, 856.4202
437.2207, 855.1241
437.7028, 853.3152
438.1849, 850.4630
438.6671, 845.6736
439.1492, 837.8883
439.6313, 828.1531
440.1134, 822.8516
440.5955, 826.6405
441.0776, 829.1791
441.5598, 828.5021
442.0418, 826.4951
442.5240, 824.7388
443.0061, 823.8091
443.4882, 823.9692
443.9703, 825.9822
444.4524, 830.7684
444.9345, 833.1126
445.4167, 830.1268
445.8988, 827.5254
446.3809, 828.1569
446.8630, 830.6034
447.3451, 831.9767
447.8272, 830.6222
448.3094, 827.2062
448.7915, 823.5145
449.2736, 819.9963
449.7557, 814.8851
450.2378, 806.3121
450.7199, 796.8892
451.2021, 788.7216
451.6842, 781.9394
452.1663, 774.5426
452.6484, 764.4249
453.1305, 752.2396
453.6126, 741.3058
454.0948, 732.4185
454.5769, 723.4933
455.0590, 711.7671
455.5411, 699.1948
456.0232, 689.5925
456.5053, 685.3844
456.9875, 682.2515
457.4696, 675.9120
457.9517, 667.2747
458.4338, 660.3607
458.9159, 656.5084
459.3980, 654.9276
459.8802, 655.5121
460.3623, 658.7769
460.8444, 659.2761
461.3265, 651.9437
461.8086, 644.2325
462.2907, 644.3795
462.7729, 651.6321
463.2550, 657.8293
463.7371, 656.9236
464.2192, 650.6740
464.7013, 649.3251
465.1834, 658.6718
465.6656, 665.1871
466.1477, 664.7936
466.6298, 661.7571
467.1119, 660.4099
467.5940, 661.8741
468.0761, 665.0380
468.5583, 668.8267
469.0404, 673.5798
469.5225, 676.9335
470.0046, 679.3292
470.4867, 679.8003
470.9688, 675.5234
471.4510, 669.6234
471.9331, 667.5825
472.4152, 672.3209
472.8973, 679.9752
473.3794, 682.7875
473.8615, 679.3423
474.3437, 677.0703
474.8258, 678.0959
475.3079, 680.1156
475.7900, 682.1589
476.2721, 684.0190
476.7542, 685.2950
477.2364, 685.7726
477.7185, 685.4786
478.2006, 684.2609
478.6827, 681.9620
479.1648, 679.6637
479.6469, 677.2307
480.1291, 675.5469
480.6112, 676.4624
481.0933, 681.3556
481.5754, 685.2032
482.0575, 684.8253
482.5396, 681.8231
483.0217, 679.2434
483.5038, 677.7196
483.9860, 675.9015
484.4681, 672.3555
484.9502, 666.9958
485.4323, 662.0771
485.9144, 659.1155
486.3965, 654.9785
486.8787, 647.1913
487.3608, 637.4704
487.8429, 629.1221
488.3250, 623.4410
488.8071, 618.9729
489.2892, 612.9981
489.7714, 603.7631
490.2535, 597.3195
490.7356, 594.6865
491.2177, 593.4026
491.6998, 592.6002
492.1819, 592.1107
492.6641, 591.8575
493.1462, 591.7071
493.6283, 591.9520
494.1104, 593.2485
494.5925, 595.1292
495.0746, 599.3325
495.5568, 610.8114
496.0389, 621.5524
496.5210, 624.9122
497.0031, 620.8483
497.4852, 615.7026
497.9673, 613.5436
498.4495, 613.7123
498.9316, 615.3828
499.4137, 619.4323
499.8958, 620.5754
500.3779, 613.7154
500.8600, 602.4715
501.3422, 594.5933
501.8243, 591.7228
502.3064, 589.4423
502.7885, 586.7089
503.2706, 582.7673
503.7527, 576.0250
504.2349, 566.1374
504.7170, 554.1384
505.1991, 540.4162
505.6812, 524.6845
506.1633, 512.4859
506.6454, 505.2946
507.1276, 499.5592
507.6097, 495.1854
508.0918, 491.0692
508.5739, 485.4537
509.0560, 477.7359
509.5381, 469.2193
510.0203, 461.6901
510.5024, 454.4896
510.9845, 450.5352
511.4666, 453.9055
511.9487, 456.4933
512.4308, 454.8930
512.9130, 450.1843
513.3951, 444.7633
513.8772, 439.6917
514.3593, 434.9184
514.8414, 429.8806
515.3235, 424.2227
515.8057, 420.9888
516.2878, 422.2617
516.7699, 424.8752
517.2520, 426.3710
517.7341, 426.7841
518.2162, 426.6481
518.6984, 425.4300
519.1805, 424.2143
519.6626, 425.1939
520.1447, 428.1183
520.6268, 429.2071
521.1089, 426.1701
521.5911, 420.7966
522.0732, 417.4249
522.5553, 417.1104
523.0374, 415.3402
523.5195, 409.9211
524.0016, 403.7613
524.4838, 400.1835
524.9659, 398.7517
525.4480, 395.7934
525.9301, 388.3604
526.4122, 377.6955
526.8943, 370.1349
527.3765, 368.8560
527.8586, 366.3116
528.3407, 359.7670
528.8228, 353.1991
529.3049, 350.6781
529.7870, 352.0693
530.2692, 353.2984
530.7513, 350.2404
531.2334, 343.8746
531.7155, 340.0984
532.1976, 339.6625
532.6797, 340.1085
533.1619, 341.2172
533.6440, 342.2958
534.1261, 342.4477
534.6082, 341.4107
535.0903, 340.5032
535.5724, 340.7628
536.0546, 341.7248
536.5367, 342.6301
537.0188, 343.4414
537.5009, 343.2733
537.9830, 340.6640
538.4651, 336.5326
538.9473, 335.8403
539.4294, 340.5824
539.9115, 345.8950
540.3936, 351.6913
540.8757, 356.7424
541.3578, 358.6521
541.8400, 357.3853
542.3221, 356.3703
542.8042, 359.4378
543.2863, 366.6929
543.7684, 371.4796
544.2505, 371.0481
544.7326, 371.3418
545.2147, 373.7421
545.6968, 377.2889
546.1790, 381.4326
546.6611, 385.8747
547.1432, 389.2558
547.6253, 389.6943
548.1074, 387.4302
548.5895, 385.0362
549.0717, 382.2125
549.5538, 380.1336
550.0359, 380.2436
550.5180, 381.3694
551.0001, 381.8624
551.4822, 381.5430
551.9644, 380.3523
552.4465, 377.0300
552.9286, 373.0370
553.4107, 371.9404
553.8928, 374.4913
554.3749, 377.2605
554.8571, 376.8969
555.3392, 373.5342
555.8213, 372.3897
556.3034, 376.0953
556.7855, 378.4734
557.2676, 377.1147
557.7498, 373.9680
558.2319, 371.1203
558.7140, 369.1714
559.1961, 367.8828
559.6782, 366.9842
560.1603, 366.4773
560.6425, 366.3713
561.1246, 365.2186
561.6067, 366.7917
562.0888, 374.5671
562.5709, 384.1870
563.0530, 390.2902
563.5352, 391.4779
564.0173, 392.2137
564.4994, 397.0276
564.9815, 404.4823
565.4636, 409.3162
565.9457, 410.4600
566.4279, 412.1315
566.9100, 417.3192
567.3921, 425.2996
567.8742, 432.9864
568.3563, 439.7026
568.8384, 447.2372
569.3206, 456.3960
569.8027, 466.5946
570.2848, 477.2323
570.7669, 488.1428
571.2490, 499.4327
571.7311, 510.7983
572.2133, 522.5550
572.6954, 537.6639
573.1775, 557.7731
573.6596, 579.3069
574.1417, 601.8137
574.6238, 625.5493
575.1060, 650.4639
575.5881, 676.8060
576.0702, 705.2279
576.5523, 737.2109
577.0344, 771.6676
577.5165, 804.6262
577.9987, 835.9165
578.4808, 866.1713
578.9629, 893.6349
579.4450, 921.3027
579.9271, 953.9059
580.4092, 992.4398
580.8914, 1029.282
581.3735, 1062.101
581.8556, 1091.419
582.3377, 1118.213
582.8198, 1142.297
583.3019, 1162.486
583.7841, 1177.670
584.2662, 1189.542
584.7483, 1203.141
585.2304, 1225.928
585.7125, 1237.621
586.1946, 1234.543
586.6768, 1224.446
587.1589, 1210.002
587.6410, 1192.683
588.1231, 1174.465
588.6052, 1156.662
589.0873, 1138.166
589.5695, 1116.551
590.0516, 1091.417
590.5337, 1065.808
591.0158, 1040.435
591.4979, 1014.400
591.9800, 986.3710
592.4622, 957.0618
592.9443, 929.5768
593.4264, 905.7889
593.9085, 883.4386
594.3906, 860.4837
594.8727, 837.7251
595.3549, 817.5817
595.8370, 800.9990
596.3191, 785.6646
596.8012, 768.1771
597.2833, 747.4427
597.7654, 732.4086
598.2476, 728.6378
598.7297, 723.2556
599.2118, 710.1000
599.6939, 693.9474
600.1760, 680.5098
600.6581, 671.5969
601.1403, 666.3480
601.6224, 665.7192
602.1045, 669.3051
602.5866, 666.7552
603.0687, 654.6849
603.5508, 643.9742
604.0330, 642.3256
604.5151, 644.1441
604.9972, 642.0616
605.4793, 634.2900
605.9614, 627.5463
606.4435, 625.4558
606.9257, 626.2311
607.4078, 628.6290
607.8899, 632.0115
608.3720, 632.8754
608.8541, 628.4510
609.3362, 620.8651
609.8184, 616.8788
610.3005, 619.5639
610.7826, 621.4389
611.2647, 621.7960
611.7468, 621.9974
612.2289, 623.0800
612.7111, 624.7662
613.1932, 625.7723
613.6753, 624.9729
614.1574, 624.3859
614.6395, 628.8897
615.1216, 639.0923
615.6038, 646.2645
616.0859, 647.2631
616.5680, 647.0982
617.0501, 650.1516
617.5322, 655.5729
618.0143, 660.6113
618.4965, 665.9952
618.9786, 669.4207
619.4607, 668.5304
619.9428, 664.9396
620.4249, 660.7179
620.9070, 656.5819
621.3892, 654.8778
621.8713, 658.5743
622.3534, 667.5686
622.8355, 673.0969
623.3176, 674.1890
623.7997, 672.7696
624.2819, 667.3378
624.7640, 660.7476
625.2461, 654.4634
625.7282, 649.2923
626.2103, 647.2134
626.6924, 651.2969
627.1745, 659.0128
627.6566, 663.9655
628.1387, 665.9779
628.6208, 667.6664
629.1030, 669.5220
629.5851, 672.1025
630.0672, 676.0247
630.5493, 681.0429
631.0314, 688.6718
631.5135, 700.9034
631.9957, 714.1448
632.4778, 726.1171
632.9599, 737.4124
633.4420, 748.8366
633.9241, 760.7683
634.4063, 775.1495
634.8884, 795.2180
635.3705, 821.8351
635.8526, 847.7780
636.3347, 873.8809
636.8168, 897.8122
637.2990, 917.3651
637.7811, 935.1971
638.2632, 954.1954
638.7453, 974.8312
639.2274, 997.2334
639.7095, 1022.517
640.1917, 1049.056
640.6738, 1075.552
641.1559, 1101.540
641.6380, 1122.444
642.1201, 1134.708
642.6022, 1142.233
643.0844, 1154.241
643.5665, 1175.389
644.0486, 1191.111
644.5307, 1197.224
645.0128, 1201.968
645.4949, 1211.783
645.9771, 1223.387
646.4592, 1228.962
646.9413, 1224.877
647.4234, 1217.640
647.9055, 1216.603
648.3876, 1221.643
648.8698, 1227.119
649.3519, 1233.660
649.8340, 1238.114
650.3161, 1237.362
650.7982, 1233.414
651.2803, 1230.537
651.7625, 1230.232
652.2446, 1227.847
652.7267, 1220.287
653.2088, 1210.542
653.6909, 1201.747
654.1730, 1194.095
654.6552, 1186.794
655.1373, 1179.523
655.6194, 1171.543
656.1015, 1160.863
656.5836, 1147.238
657.0657, 1131.615
657.5479, 1111.636
658.0300, 1091.903
658.5121, 1076.027
658.9942, 1061.528
659.4763, 1042.774
659.9584, 1016.371
660.4406, 990.1960
660.9227, 970.0219
661.4048, 955.7085
661.8869, 949.1802
662.3690, 950.9257
662.8511, 950.2907
663.3333, 940.1096
663.8154, 921.3815
664.2975, 898.4012
664.7796, 864.5358
665.2617, 835.8066
665.7438, 812.5779
666.2260, 794.4213
666.7081, 782.3076
667.1902, 774.9406
667.6723, 769.5908
668.1544, 764.8925
668.6365, 761.1909
669.1187, 759.6417
669.6008, 760.0955
670.0829, 758.2150
670.5650, 751.5198
671.0471, 747.5537
671.5292, 753.9161
672.0114, 767.4962
672.4935, 776.4036
672.9756, 777.0674
673.4577, 778.9819
673.9398, 786.6876
674.4219, 795.6464
674.9041, 800.1801
675.3862, 801.3505
675.8683, 805.3997
676.3504, 816.4641
676.8325, 831.4989
677.3146, 843.4022
677.7968, 851.6594
678.2789, 859.1396
678.7610, 865.0870
679.2431, 871.7048
679.7252, 880.6379
680.2073, 891.0472
680.6895, 901.4001
681.1716, 911.8457
681.6537, 921.0760
682.1358, 926.0633
682.6179, 930.4530
683.1000, 941.3564
683.5822, 958.2153
684.0643, 973.0785
684.5464, 980.9498
685.0285, 982.8042
685.5106, 980.8431
685.9927, 972.0103
686.4749, 966.5613
686.9570, 969.7914
687.4391, 971.5759
687.9212, 967.3086
688.4033, 958.5041
688.8854, 947.1598
689.3676, 932.6948
689.8497, 921.3557
690.3318, 920.0253
690.8139, 925.2546
691.2960, 930.4681
691.7781, 934.8879
692.2603, 937.9763
692.7424, 939.2738
693.2245, 939.2964
693.7066, 939.2460
694.1887, 937.5047
694.6708, 939.1160
695.1530, 947.0008
695.6351, 954.9423
696.1172, 960.4044
696.5993, 963.7357
697.0814, 966.3995
697.5635, 969.0176
698.0457, 968.9406
698.5278, 961.1929
699.0099, 948.6512
699.4920, 940.4916
699.9741, 937.5159
700.4562, 937.3347
700.9384, 939.5696
701.4205, 942.7448
701.9026, 943.5049
702.3847, 940.1339
702.8668, 939.0336
703.3489, 942.6064
703.8311, 946.0632
704.3132, 947.5193
704.7953, 947.1099
705.2774, 944.9581
705.7595, 941.2255
706.2416, 937.1422
706.7238, 934.1092
707.2059, 931.8829
707.6880, 930.2625
708.1701, 929.8229
708.6522, 924.9712
709.1343, 911.3832
709.6164, 894.4852
710.0985, 883.2275
710.5806, 878.6533
711.0627, 871.6302
711.5449, 860.6547
712.0270, 848.0055
712.5091, 833.9390
712.9912, 819.2726
713.4733, 804.0481
713.9554, 788.7296
714.4376, 776.4286
714.9197, 771.4717
715.4018, 771.4097
715.8839, 766.0865
716.3660, 754.8370
716.8481, 743.3170
717.3303, 732.6001
717.8124, 723.3140
718.2945, 716.6608
718.7766, 712.4611
719.2587, 708.0839
719.7408, 703.3312
720.2230, 698.3677
720.7051, 690.6904
721.1872, 684.2919
721.6693, 684.9182
722.1514, 692.3923
722.6335, 701.0293
723.1157, 706.5029
723.5978, 710.1766
724.0799, 716.3536
724.5620, 725.6130
725.0441, 731.5460
725.5262, 731.8486
726.0084, 730.4892
726.4905, 730.8239
726.9726, 732.1799
727.4547, 731.9878
727.9368, 730.3695
728.4189, 726.7977
728.9011, 719.7800
729.3832, 711.7135
729.8653, 704.0145
730.3474, 697.4238
730.8295, 693.7233
731.3116, 694.1940
731.7938, 695.5264
732.2759, 692.1683
732.7580, 684.0888
733.2401, 672.6740
733.7222, 656.5858
734.2043, 641.1353
734.6865, 631.8515
735.1686, 624.1247
735.6507, 607.6329
736.1328, 579.9752
736.6149, 552.3005
737.0970, 524.0321
737.5792, 498.9727
738.0613, 480.8196
738.5434, 467.4568
739.0255, 454.9944
739.5076, 441.8563
739.9897, 428.2979
740.4719, 413.6430
740.9540, 398.5174
741.4361, 387.7722
741.9182, 382.2397
742.4003, 377.1923
742.8824, 371.5712
743.3646, 364.9040
743.8467, 355.5640
744.3288, 343.4516
744.8109, 334.3672
745.2930, 330.4249
745.7751, 327.6725
746.2573, 326.2819
746.7394, 324.2124
747.2215, 317.9107
747.7036, 307.8875
748.1857, 299.1092
748.6678, 295.5858
749.1500, 295.3475
749.6321, 294.2696
750.1142, 292.3502
750.5963, 290.1607
751.0784, 287.7676
751.5605, 285.1740
752.0427, 281.6677
752.5248, 277.8915
753.0069, 277.3322
753.4890, 283.1028
753.9711, 286.9615
754.4532, 286.5527
754.9354, 285.0760
755.4175, 285.1144
755.8996, 285.9323
756.3817, 285.0341
756.8638, 281.2387
757.3459, 277.2930
757.8281, 276.7554
758.3102, 278.8149
758.7923, 280.7230
759.2744, 282.3571
759.7565, 282.7422
760.2386, 281.1497
760.7208, 278.5195
761.2029, 276.5300
761.6850, 275.5682
762.1671, 273.6159
762.6492, 268.4494
763.1313, 265.0390
763.6135, 265.2079
764.0956, 267.7717
764.5777, 273.1505
765.0598, 280.3461
765.5419, 283.9966
766.0240, 279.3514
766.5062, 270.3392
766.9883, 260.6815
767.4704, 251.2172
767.9525, 246.4539
768.4346, 247.5799
768.9167, 249.8214
769.3989, 248.8567
769.8810, 245.3914
770.3631, 243.9601
770.8452, 247.2560
771.3273, 247.6392
771.8094, 241.6568
772.2916, 235.6194
772.7737, 233.3387
773.2558, 233.4430
773.7379, 232.6775
774.2200, 229.8996
774.7021, 227.2423
775.1843, 226.5087
775.6664, 226.4973
776.1485, 225.6174
776.6306, 223.8798
777.1127, 221.8199
777.5948, 219.6551
778.0770, 217.6415
778.5591, 216.1873
779.0412, 215.3090
779.5233, 214.4918
780.0054, 213.3468
780.4875, 213.0941
780.9697, 214.5595
781.4518, 216.7909
781.9339, 219.6387
782.4160, 222.8527
782.8981, 223.6135
783.3802, 218.8221
783.8624, 214.2050
784.3445, 213.7308
784.8266, 214.5335
785.3087, 212.4235
785.7908, 207.4472
786.2729, 202.8732
786.7551, 200.8432
787.2372, 200.5770
787.7193, 200.9766
788.2014, 202.0213
788.6835, 202.0624
789.1656, 200.9643
789.6478, 198.5663
790.1299, 193.9417
790.6120, 188.4731
791.0941, 185.9362
791.5762, 188.1350
792.0583, 187.6798
792.5404, 181.9834
793.0225, 175.9520
793.5046, 171.6682
793.9868, 168.5262
794.4689, 165.7610
794.9510, 163.0910
795.4331, 159.9994
795.9152, 155.5009
796.3973, 150.7568
796.8795, 148.0128
797.3616, 146.8694
797.8437, 145.7178
798.3258, 144.2022
798.8079, 141.5222
799.2900, 136.7361
799.7722, 130.3162
800.2543, 125.0382
800.7364, 121.0484
801.2185, 117.8643
801.7006, 115.3731
802.1827, 113.8051
802.6649, 113.9831
803.1470, 114.9994
803.6291, 115.3419
804.1112, 114.7715
804.5933, 113.2197
805.0754, 109.6870
805.5576, 105.9281
806.0397, 103.4460
806.5218, 102.2456
807.0039, 102.3938
807.4860, 103.7962
807.9681, 105.1449
808.4503, 104.9266
808.9324, 103.4196
809.4145, 102.1432
809.8966, 101.1772
810.3787, 99.73946
810.8608, 96.99269
811.3430, 94.94123
811.8251, 96.05897
812.3072, 99.70364
812.7893, 101.3319
813.2714, 99.49482
813.7535, 97.83440
814.2357, 96.87508
814.7178, 96.23507
815.1999, 95.61344
815.6820, 95.12657
816.1641, 95.02781
816.6462, 95.40215
817.1284, 96.22681
817.6105, 98.17216
818.0926, 100.2608
818.5747, 100.4305
819.0568, 98.83492
819.5389, 96.57445
820.0211, 93.95945
820.5032, 91.92052
820.9853, 91.61884
821.4674, 92.94151
821.9495, 94.30218
822.4316, 96.58871
822.9138, 96.93257
823.3959, 92.37031
823.8780, 88.18556
824.3601, 88.85721
824.8422, 92.51794
825.3243, 94.03442
825.8065, 91.49308
826.2886, 89.36679
826.7707, 89.77305
827.2528, 90.97115
827.7349, 91.36140
828.2170, 91.29124
828.6992, 92.28621
829.1813, 94.73589
829.6634, 96.31365
830.1455, 93.58205
830.6276, 88.17573
831.1097, 85.34407
831.5919, 85.08728
832.0740, 87.77544
832.5561, 94.43788
833.0382, 100.1876
833.5203, 99.95787
834.0024, 94.63474
834.4846, 90.90266
834.9667, 89.05064
835.4488, 88.42345
835.9309, 90.63654
836.4130, 92.29419
836.8951, 90.72005
837.3773, 87.66420
837.8594, 86.60908
838.3415, 88.58875
838.8236, 90.12509
839.3057, 88.07767
839.7878, 85.90514
840.2700, 88.17002
840.7521, 92.68678
841.2342, 94.01680
841.7163, 91.03926
842.1984, 87.70786
842.6805, 87.86878
843.1627, 90.10457
843.6448, 89.66660
844.1269, 86.43297
844.6090, 85.29604
845.0911, 87.63203
845.5732, 90.27958
846.0554, 91.15365
846.5375, 90.68638
847.0196, 90.09300
847.5017, 89.48797
847.9838, 88.47789
848.4659, 86.13268
848.9481, 84.46883
849.4302, 84.83463
849.9123, 85.96284
850.3944, 86.03364
850.8765, 84.97351
851.3586, 84.75619
851.8408, 87.28423
852.3229, 90.15215
852.8050, 92.15187
853.2871, 92.75425
853.7692, 89.50200
854.2513, 83.28482
854.7335, 80.18054
855.2156, 84.41659
855.6977, 91.18381
856.1798, 90.58524
856.6619, 82.94662
857.1440, 78.66011
857.6262, 78.66175
858.1083, 79.79454
858.5904, 80.97472
859.0725, 82.17373
859.5546, 83.31471
860.0367, 84.36291
860.5189, 85.74978
861.0010, 89.18928
861.4831, 90.62425
861.9652, 87.80526
862.4473, 84.15868
862.9294, 81.78951
863.4116, 80.81087
863.8937, 81.08839
864.3758, 83.02748
864.8579, 84.65083
865.3400, 84.15730
865.8221, 83.11274
866.3043, 83.82143
866.7864, 85.47527
867.2685, 85.43427
867.7506, 82.91936
868.2327, 79.77152
868.7148, 77.59666
869.1970, 76.51796
869.6791, 77.41862
870.1612, 80.29869
870.6433, 82.52089
871.1254, 83.62333
871.6075, 83.47473
872.0897, 81.48066
872.5718, 78.56799
873.0539, 77.89120
873.5360, 81.13590
874.0181, 82.74891
874.5002, 82.64644
874.9823, 80.93376
875.4644, 74.30647
875.9465, 68.08437
876.4286, 70.20618
876.9108, 80.60643
877.3929, 87.15169
877.8750, 82.42740
878.3571, 76.62046
878.8392, 75.25461
879.3214, 76.00600
879.8035, 76.20346
880.2856, 75.70677
880.7677, 75.55745
881.2498, 76.28696
881.7319, 77.42647
882.2141, 78.89952
882.6962, 80.23877
883.1783, 79.50157
883.6604, 76.87566
884.1425, 75.19234
884.6246, 75.51636
885.1068, 76.52261
885.5889, 76.77437
886.0710, 76.38031
886.5531, 76.40437
887.0352, 77.68666
887.5173, 76.62282
887.9995, 69.77839
888.4816, 64.72469
888.9637, 67.84361
889.4458, 75.48034
889.9279, 80.53944
890.4100, 82.78454
890.8922, 82.83069
891.3743, 77.72927
891.8564, 73.97775
892.3385, 76.27920
892.8206, 80.39766
893.3027, 81.16234
893.7849, 78.55572
894.2670, 76.12889
894.7491, 75.52866
895.2312, 75.99603
895.7133, 77.19627
896.1954, 78.81969
896.6776, 81.03553
897.1597, 83.26790
897.6418, 83.34012
898.1239, 80.34859
898.6060, 76.07774
899.0881, 72.34438
899.5703, 69.31429
900.0524, 68.09956
900.5345, 68.80632
901.0166, 69.26543
901.4987, 68.88107
901.9808, 68.51820
902.4630, 68.89686
902.9451, 69.81602
903.4272, 70.54604
903.9093, 70.81225
904.3914, 71.53853
904.8735, 73.00537
905.3557, 74.59128
905.8378, 76.82312
906.3199, 78.58221
906.8020, 77.86242
907.2841, 74.86168
907.7662, 73.76186
908.2484, 78.17215
908.7305, 81.32857
909.2126, 79.30144
909.6947, 75.78275
910.1768, 73.66667
910.6589, 73.14598
911.1411, 73.96926
911.6232, 76.09154
912.1053, 77.77180
912.5874, 76.76221
913.0695, 74.85014
913.5516, 75.17422
914.0338, 76.98232
914.5159, 77.54623
914.9980, 76.35471
915.4801, 75.49190
915.9622, 76.78967
916.4443, 78.84225
916.9265, 77.79823
917.4086, 73.66997
917.8907, 71.22807
918.3728, 70.96360
918.8549, 71.40965
919.3370, 71.89873
919.8192, 72.85681
920.3013, 75.14842
920.7834, 78.86363
921.2655, 80.76054
921.7476, 79.91158
922.2297, 78.84595
922.7119, 77.39990
923.1940, 76.33479
923.6761, 76.22721
924.1582, 76.78455
924.6403, 77.38515
925.1224, 77.90599
925.6046, 78.74648
926.0867, 81.22390
926.5688, 82.66276
927.0509, 80.56375
927.5330, 77.32567
928.0151, 75.74213
928.4973, 75.96889
928.9794, 76.66072
929.4615, 77.36694
929.9436, 77.75691
930.4257, 77.59859
930.9078, 76.91129
931.3900, 75.21827
931.8721, 73.03175
932.3542, 72.11257
932.8363, 72.95667
933.3184, 73.96445
933.8005, 73.47816
934.2827, 72.06656
934.7648, 71.18223
935.2469, 70.79341
935.7290, 70.53651
936.2111, 70.34368
936.6932, 70.61225
937.1754, 71.63372
937.6575, 73.06799
938.1396, 74.35140
938.6217, 75.51003
939.1038, 76.26940
939.5859, 76.87405
940.0681, 76.23915
940.5502, 72.53819
941.0323, 69.69948
941.5144, 72.14495
941.9965, 78.23942
942.4786, 80.97727
942.9608, 78.93518
943.4429, 76.66979
943.9250, 72.17183
944.4071, 70.04262
944.8892, 74.74937
945.3713, 81.11577
945.8535, 83.17493
946.3356, 80.78645
946.8177, 77.78235
947.2998, 74.92448
947.7819, 72.41026
948.2640, 69.35889
948.7462, 67.54292
949.2283, 69.78334
949.7104, 74.29543
950.1925, 77.45669
950.6746, 78.14763
951.1567, 77.27136
951.6389, 74.18261
952.1210, 71.10351
952.6031, 71.34017
953.0852, 73.64418
953.5673, 75.70660
954.0494, 76.98973
954.5316, 77.07224
955.0137, 75.70220
955.4958, 73.57903
955.9779, 71.36372
956.4600, 69.24161
956.9421, 68.27809
957.4242, 68.43601
957.9063, 68.50395
958.3884, 68.06384
958.8705, 68.92414
959.3527, 72.96109
959.8348, 78.51122
960.3169, 80.38452
960.7990, 77.81641
961.2811, 75.66356
961.7632, 74.00861
962.2454, 72.75515
962.7275, 71.87418
963.2096, 71.39765
963.6917, 71.40778
964.1738, 71.87643
964.6559, 72.51698
965.1381, 74.15598
965.6202, 74.61240
966.1023, 71.96664
966.5844, 70.27271
967.0665, 73.23039
967.5486, 77.09414
968.0308, 75.74973
968.5129, 68.93736
968.9950, 65.39456
969.4771, 69.74467
969.9592, 73.90349
970.4413, 75.64121
970.9235, 75.68927
971.4056, 72.78708
971.8877, 69.22481
972.3698, 70.61378
972.8519, 78.48341
973.3340, 82.99112
973.8162, 74.49590
974.2983, 64.62311
974.7804, 63.41074
975.2625, 66.54783
975.7446, 67.77068
976.2267, 66.93890
976.7089, 67.59943
977.1910, 71.52834
977.6731, 75.05070
978.1552, 73.47792
978.6373, 69.49065
979.1194, 67.66660
979.6016, 67.51897
980.0837, 67.03959
980.5658, 65.91342
981.0479, 65.44365
981.5300, 66.50496
982.0121, 68.73360
982.4943, 72.20051
982.9764, 76.38338
983.4585, 77.90059
983.9406, 76.74348
984.4227, 76.36523
984.9048, 77.98703
985.3870, 78.58205
985.8691, 74.93125
986.3512, 68.97354
986.8333, 67.69804
987.3154, 72.01077
987.7975, 73.07338
988.2797, 69.37692
988.7618, 66.79103
989.2439, 67.98711
989.7260, 70.55516
990.2081, 71.95041
990.6902, 72.18751
991.1724, 71.28107
991.6545, 68.04733
992.1366, 66.41272
992.6187, 66.72435
993.1008, 68.59396
993.5829, 74.11380
994.0651, 79.53434
994.5472, 78.33928
995.0293, 70.35757
995.5114, 66.51775
995.9935, 71.23499
996.4756, 73.84608
996.9578, 70.42242
997.4399, 67.26503
997.9220, 69.34029
998.4041, 73.32491
998.8862, 73.28809
999.3683, 68.49402
999.8505, 65.28100
1000.333, 66.27915
1000.815, 67.71538
1001.297, 68.34283
1001.779, 68.74174
1002.261, 68.93424
1002.743, 69.43163
1003.225, 71.80087
1003.707, 76.46478
1004.190, 79.04216
1004.672, 75.03487
1005.154, 70.84633
1005.636, 71.02933
1006.118, 73.22453
1006.600, 75.68047
1007.082, 77.31757
1007.564, 75.78741
1008.046, 70.17327
1008.529, 65.30801
1009.011, 66.48081
1009.493, 69.00599
1009.975, 65.93813
1010.457, 61.25258
1010.939, 63.99571
1011.421, 72.95934
1011.903, 77.97124
1012.385, 73.96278
1012.868, 67.87746
1013.350, 68.07763
1013.832, 70.92607
1014.314, 68.55333
1014.796, 63.07963
1015.278, 61.53074
1015.760, 64.64007
1016.242, 67.82581
1016.725, 68.38741
1017.207, 67.77047
1017.689, 67.98457
1018.171, 68.77384
1018.653, 69.03694
1019.135, 68.92404
1019.617, 69.92773
1020.099, 72.29451
1020.581, 73.75084
1021.064, 72.68275
1021.546, 70.12376
1022.028, 67.85899
1022.510, 65.86909
1022.992, 63.35508
1023.474, 60.26367
1023.956, 59.89108
1024.438, 63.31857
1024.921, 67.16228
1025.403, 68.95477
1025.885, 69.26188
1026.367, 69.33887
1026.849, 69.19148
1027.331, 68.49617
1027.813, 66.96190
1028.295, 66.71605
1028.777, 68.71394
1029.260, 70.85317
1029.742, 71.50002
1030.224, 70.93448
1030.706, 69.81734
1031.188, 67.94847
1031.670, 66.49692
1032.152, 65.21764
1032.634, 65.30045
1033.116, 68.21566
1033.599, 70.24978
1034.081, 67.26243
1034.563, 61.65005
1035.045, 61.40349
1035.527, 69.36324
1036.009, 72.61083
1036.491, 68.40590
1036.973, 64.69072
1037.456, 63.40118
1037.938, 63.68017
1038.420, 65.43616
1038.902, 68.08882
1039.384, 69.64157
1039.866, 69.62005
1040.348, 69.82653
1040.830, 71.32872
1041.313, 71.52338
1041.795, 68.57594
1042.277, 65.12318
1042.759, 62.69215
1043.241, 61.48005
1043.723, 62.51916
1044.205, 67.58580
1044.687, 69.93682
1045.169, 66.90431
1045.651, 64.27328
1046.134, 63.69826
1046.616, 64.10797
1047.098, 65.30278
1047.580, 66.69496
1048.062, 66.40687
1048.544, 63.19713
1049.026, 62.09729
1049.508, 66.68521
1049.991, 69.69435
1050.473, 66.43700
1050.955, 62.62826
1051.437, 64.32310
1051.919, 69.22707
1052.401, 70.11468
1052.883, 64.61967
1053.365, 61.28446
1053.848, 63.65330
1054.330, 66.24303
1054.812, 67.40025
1055.294, 67.51655
1055.776, 65.92498
1056.258, 63.83681
1056.740, 64.55773
1057.222, 69.39433
1057.704, 72.13786
1058.187, 68.57899
1058.669, 65.72463
1059.151, 68.17034
1059.633, 71.16258
1060.115, 69.85473
1060.597, 65.87083
1061.079, 63.77481
1061.561, 64.71139
1062.043, 64.63332
1062.526, 59.47322
1063.008, 56.42756
1063.490, 61.00410
1063.972, 67.06030
1064.454, 69.69521
1064.936, 69.34763
1065.418, 67.31289
1065.900, 63.82831
1066.383, 61.80941
1066.865, 63.98061
1067.347, 65.80731
1067.829, 64.87981
1068.311, 62.98362
1068.793, 60.58178
1069.275, 58.82237
1069.757, 60.01823
1070.240, 64.44283
1070.722, 68.15154
1071.204, 70.37950
1071.686, 70.38687
1072.168, 65.77745
1072.650, 60.75817
1073.132, 58.61309
1073.614, 58.63917
1074.096, 59.46784
1074.578, 60.71376
1075.061, 61.77408
1075.543, 62.68633
1076.025, 62.91310
1076.507, 61.71508
1076.989, 60.20720
1077.471, 59.25964
1077.953, 58.59858
1078.435, 57.45235
1078.918, 55.92460
1079.400, 55.37350
1079.882, 56.80820
1080.364, 58.23547
1080.846, 58.02401
1081.328, 58.17292
1081.810, 60.87431
1082.292, 64.40051
1082.774, 67.17065
1083.257, 68.45017
1083.739, 66.17003
1084.221, 57.48751
1084.703, 51.74139
1085.185, 56.10461
1085.667, 61.61869
1086.149, 63.15697
1086.631, 61.98354
1087.114, 58.60400
1087.596, 54.28672
1088.078, 52.21433
1088.560, 53.57087
1089.042, 55.86716
1089.524, 59.10372
1090.006, 61.77672
1090.488, 62.87445
1090.970, 63.10264
1091.453, 62.80992
1091.935, 62.35266
1092.417, 62.64506
1092.899, 64.07799
1093.381, 64.26362
1093.863, 61.29871
1094.345, 58.20746
1094.827, 55.78542
1095.309, 54.38439
1095.792, 55.17968
1096.274, 56.85631
1096.756, 56.61091
1097.238, 53.98211
1097.720, 52.41037
1098.202, 53.14491
1098.684, 54.84939
1099.166, 58.73649
1099.649, 61.73782
1100.131, 60.97049
1100.613, 58.35032
1101.095, 56.70402
1101.577, 56.31509
1102.059, 56.18290
1102.541, 55.46810
1103.023, 55.98162
1103.505, 59.82475
1103.988, 63.08118
1104.470, 63.15928
1104.952, 61.84707
1105.434, 61.10352
1105.916, 60.97794
1106.398, 60.81957
1106.880, 60.21688
1107.362, 60.33819
1107.844, 63.04316
1108.327, 64.36076
1108.809, 60.97443
1109.291, 57.14597
1109.773, 57.41602
1110.255, 60.30193
1110.737, 60.86715
1111.219, 57.80692
1111.701, 56.24449
1112.184, 58.33652
1112.666, 59.45059
1113.148, 57.85934
1113.630, 55.72188
1114.112, 53.89447
1114.594, 52.70798
1115.076, 52.67771
1115.558, 53.78730
1116.041, 56.30053
1116.523, 63.54424
1117.005, 66.32094
1117.487, 59.68196
1117.969, 54.15986
1118.451, 55.39155
1118.933, 59.83994
1119.415, 63.77137
1119.897, 66.97950
1120.380, 67.04964
1120.862, 61.79671
1121.344, 59.00549
1121.826, 60.59504
1122.308, 60.88078
1122.790, 56.72444
1123.272, 52.59290
1123.754, 53.06718
1124.236, 56.69426
1124.719, 58.40274
1125.201, 57.59008
1125.683, 58.38993
1126.165, 61.73924
1126.647, 62.88212
1127.129, 60.13118
1127.611, 56.68747
1128.093, 54.38691
1128.576, 53.63826
1129.058, 55.75756
1129.540, 60.48080
1130.022, 61.96475
1130.504, 59.97471
1130.986, 56.71514
1131.468, 52.14698
1131.950, 50.50153
1132.432, 54.15343
1132.915, 59.49042
1133.397, 62.41057
1133.879, 63.07862
1134.361, 61.54171
1134.843, 58.02505
1135.325, 54.93397
1135.807, 52.54549
1136.289, 52.66856
1136.771, 55.82668
1137.254, 59.02577
1137.736, 59.91740
1138.218, 59.08527
1138.700, 56.77189
1139.182, 53.78234
1139.664, 53.22482
1140.146, 54.54838
1140.628, 55.01123
1141.111, 54.23362
1141.593, 53.66916
1142.075, 54.08373
1142.557, 54.92403
1143.039, 55.81102
1143.521, 56.51385
1144.003, 56.67980
1144.485, 56.34425
1144.968, 55.18059
1145.450, 53.61344
1145.932, 52.85566
1146.414, 53.28722
1146.896, 54.21381
1147.378, 53.79179
1147.860, 56.48457
1148.342, 73.43573
1148.824, 90.14490
1149.307, 86.29812
1149.789, 70.93089
1150.271, 61.04285
1150.753, 58.66173
1151.235, 56.76975
1151.717, 52.31200
1152.199, 48.97889
1152.681, 48.92989
1153.163, 50.62729
1153.646, 54.38717
1154.128, 58.28903
1154.610, 61.11079
1155.092, 62.26662
1155.574, 59.97738
1156.056, 53.75785
1156.538, 50.43848
1157.020, 53.92081
1157.503, 57.77252
1157.985, 62.22053
1158.467, 64.23936
1158.949, 59.63801
1159.431, 53.12714
1159.913, 51.59406
1160.395, 54.44852
1160.877, 54.47524
1161.359, 48.09042
1161.842, 45.31324
1162.324, 47.82717
1162.806, 51.64549
1163.288, 57.93023
1163.770, 62.22243
1164.252, 60.31860
1164.734, 54.71587
1165.216, 50.70144
1165.698, 48.28487
1166.181, 47.56860
1166.663, 48.86150
1167.145, 50.96589
1167.627, 54.28387
1168.109, 56.21186
1168.591, 55.22362
1169.073, 53.31554
1169.555, 52.80381
1170.037, 53.26420
1170.520, 53.03628
1171.002, 52.14866
1171.484, 51.67030
1171.966, 51.65504
1172.448, 52.28490
1172.930, 53.60046
1173.412, 55.19043
1173.894, 56.85773
1174.377, 57.93665
1174.859, 57.28754
1175.341, 55.33753
1175.823, 52.71323
1176.305, 49.90678
1176.787, 48.44971
1177.269, 48.36150
1177.751, 48.83971
1178.234, 49.58437
1178.716, 50.82947
1179.198, 52.96981
1179.680, 55.21543
1180.162, 57.53679
1180.644, 58.77415
1181.126, 55.58745
1181.608, 51.15049
1182.090, 52.72820
1182.573, 59.07941
1183.055, 60.71801
1183.537, 53.25150
1184.019, 47.27252
1184.501, 50.85930
1184.983, 54.27836
1185.465, 49.77521
1185.947, 44.96682
1186.429, 47.53323
1186.912, 54.17977
1187.394, 58.91354
1187.876, 60.99479
1188.358, 60.69867
1188.840, 54.71062
1189.322, 51.71034
1189.804, 56.01061
1190.286, 58.88978
1190.769, 55.82772
1191.251, 51.84322
1191.733, 51.54371
1192.215, 53.31040
1192.697, 52.56639
1193.179, 48.64060
1193.661, 48.32691
1194.143, 52.90211
1194.625, 56.42152
1195.108, 58.12230
1195.590, 58.04591
1196.072, 55.91134
1196.554, 53.18615
1197.036, 51.44421
1197.518, 50.65354
1198.000, 50.95882
1198.482, 52.22190
1198.964, 53.30131
1199.447, 54.12639
1199.929, 54.48457
1200.411, 54.39544
1200.893, 54.66066
1201.375, 55.77266
1201.857, 56.53365
1202.339, 55.04342
1202.821, 52.78313
1203.304, 52.31956
1203.786, 52.75342
1204.268, 51.87104
1204.750, 50.59642
1205.232, 53.00914
1205.714, 58.91340
1206.196, 60.63190
1206.678, 52.44501
1207.161, 45.11206
1207.643, 45.85971
1208.125, 49.18085
1208.607, 53.27310
1209.089, 56.24928
1209.571, 55.20156
1210.053, 51.92161
1210.535, 50.95438
1211.017, 53.08369
1211.500, 54.63523
1211.982, 54.37612
1212.464, 54.59280
1212.946, 56.29790
1213.428, 57.60180
1213.910, 58.11653
1214.392, 57.48734
1214.874, 54.71155
1215.356, 50.93610
1215.839, 49.93111
1216.321, 52.16415
1216.803, 52.46626
1217.285, 50.45794
1217.767, 48.89257
1218.249, 48.15343
1218.731, 48.94279
1219.213, 51.76694
1219.696, 54.46174
1220.178, 54.44761
1220.660, 53.08247
1221.142, 54.21456
1221.624, 56.52003
1222.106, 54.39986
1222.588, 49.41354
1223.070, 48.21187
1223.552, 51.31639
1224.035, 54.39611
1224.517, 55.43397
1224.999, 54.84753
1225.481, 51.06512
1225.963, 48.00495
1226.445, 50.39790
1226.927, 54.35846
1227.409, 56.01148
1227.891, 56.07258
1228.374, 56.32513
1228.856, 56.85811
1229.338, 56.63639
1229.820, 55.38404
1230.302, 53.41987
1230.784, 48.99799
1231.266, 46.38865
1231.748, 48.36600
1232.231, 50.97123
1232.713, 51.64373
1233.195, 51.55904
1233.677, 52.27164
1234.159, 53.75459
1234.641, 56.11794
1235.123, 60.22510
1235.605, 60.49945
1236.088, 55.79070
1236.570, 53.91488
1237.052, 57.31721
1237.534, 59.20295
1238.016, 54.92939
1238.498, 49.19835
1238.980, 48.95957
1239.462, 51.98890
1239.944, 51.76686
1240.427, 49.88262
1240.909, 51.89034
1241.391, 56.64605
1241.873, 58.90765
1242.355, 57.72327
1242.837, 55.93569
1243.319, 55.00755
1243.801, 54.01189
1244.283, 52.03116
1244.766, 49.94839
1245.248, 47.83973
1245.730, 46.50196
1246.212, 47.32554
1246.694, 49.17085
1247.176, 49.41109
1247.658, 48.19578
1248.140, 49.92385
1248.622, 58.75068
1249.105, 63.01255
1249.587, 58.66051
1250.069, 55.31905
1250.551, 56.09192
1251.033, 56.61355
1251.515, 53.62877
1251.997, 49.83420
1252.479, 49.47016
1252.962, 51.78838
1253.444, 52.23186
1253.926, 50.87076
1254.408, 51.88585
1254.890, 55.25715
1255.372, 56.97910
1255.854, 56.18599
1256.336, 55.27565
1256.818, 55.65118
1257.301, 55.31196
1257.783, 50.63192
1258.265, 45.65280
1258.747, 47.02378
1259.229, 50.74289
1259.711, 51.14347
1260.193, 49.56752
1260.675, 49.67514
1261.157, 51.47109
1261.640, 51.84102
1262.122, 49.39092
1262.604, 47.73055
1263.086, 49.02657
1263.568, 49.81429
1264.050, 47.84350
1264.532, 46.37120
1265.014, 47.69850
1265.497, 50.21899
1265.979, 52.78949
1266.461, 54.76279
1266.943, 52.75936
1267.425, 45.73210
1267.907, 42.90289
1268.389, 44.59753
1268.871, 47.27673
1269.354, 50.34249
1269.836, 52.78307
1270.318, 54.15321
1270.800, 54.68171
1271.282, 54.39765
1271.764, 54.02065
1272.246, 55.71687
1272.728, 57.42717
1273.210, 54.46422
1273.693, 49.29948
1274.175, 46.37653
1274.657, 46.00863
1275.139, 47.43121
1275.621, 50.24590
1276.103, 51.22150
1276.585, 46.79144
1277.067, 44.01086
1277.549, 45.90859
1278.032, 49.07726
1278.514, 53.46898
1278.996, 56.86379
1279.478, 56.95971
1279.960, 55.06554
1280.442, 53.10072
1280.924, 51.19388
1281.406, 54.85250
1281.889, 65.52153
1282.371, 69.65221
1282.853, 65.91855
1283.335, 63.78133
1283.817, 65.88736
1284.299, 67.52795
1284.781, 65.70000
1285.263, 61.87315
1285.745, 57.54113
1286.228, 52.69474
##END=



