##NAMES=Orpiment
##RRUFFID=R060105
##IDEAL CHEMISTRY=As^3+^_2_S^2-^_3_
##LOCALITY=Mercur, Utah, USA
##OWNER=RRUFF
##SOURCE=University of Arizona Mineral Museum
##DESCRIPTION=Yellowish-orange crystals
##STATUS=The identification of this mineral has been confirmed by X-ray diffraction and chemical analysis
##URL=rruff.info/R060105
##MEASURED CHEMISTRY=As_2.00_S_3.00_
89.78156, 0.0000000E+00
90.26367, 35.60169
90.74579, 34.94741
91.22791, 35.33781
91.71002, 36.63677
92.19214, 37.63564
92.67426, 36.69094
93.15638, 34.58846
93.63850, 33.45811
94.12061, 34.50489
94.60273, 36.85052
95.08485, 38.64050
95.56696, 39.87833
96.04908, 40.42834
96.53120, 39.61672
97.01331, 37.54481
97.49543, 35.97766
97.97755, 35.68127
98.45966, 36.62074
98.94178, 38.46727
99.42390, 41.80989
99.90602, 45.19217
100.3881, 45.41888
100.8703, 41.64196
101.3524, 37.69777
101.8345, 35.59644
102.3166, 35.80124
102.7987, 35.94285
103.2808, 35.82469
103.7630, 35.53357
104.2451, 35.43355
104.7272, 35.47585
105.2093, 35.77315
105.6914, 36.43954
106.1735, 37.70807
106.6557, 38.92896
107.1378, 39.90189
107.6199, 40.61623
108.1020, 41.77190
108.5841, 43.88438
109.0662, 46.17602
109.5484, 47.97541
110.0305, 48.77966
110.5126, 49.61214
110.9947, 50.44239
111.4768, 51.07590
111.9590, 52.66283
112.4411, 55.02840
112.9232, 58.49013
113.4053, 63.38315
113.8874, 70.52944
114.3695, 78.52782
114.8517, 86.27995
115.3338, 92.24979
115.8159, 101.5615
116.2980, 117.6607
116.7801, 138.3697
117.2622, 158.7438
117.7444, 176.5339
118.2265, 193.7863
118.7086, 211.7821
119.1907, 231.2139
119.6728, 251.1400
120.1549, 270.8578
120.6371, 290.5764
121.1192, 311.2326
121.6013, 333.2001
122.0834, 356.2548
122.5655, 380.0924
123.0476, 405.1061
123.5298, 430.4422
124.0119, 455.0578
124.4940, 479.0357
124.9761, 503.6508
125.4582, 531.4683
125.9404, 560.4700
126.4225, 586.4291
126.9046, 604.0300
127.3867, 618.7037
127.8688, 637.9116
128.3509, 661.4820
128.8331, 691.2714
129.3152, 727.6371
129.7973, 771.4767
130.2794, 826.0306
130.7615, 887.2863
131.2436, 959.5633
131.7258, 1058.428
132.2079, 1186.176
132.6900, 1335.498
133.1721, 1501.388
133.6542, 1683.339
134.1364, 1866.361
134.6185, 2062.937
135.1006, 2270.791
135.5827, 2410.509
136.0648, 2471.616
136.5469, 2468.916
137.0291, 2427.144
137.5112, 2338.799
137.9933, 2243.460
138.4754, 2162.618
138.9575, 2097.281
139.4396, 2044.261
139.9218, 2003.089
140.4039, 1974.214
140.8860, 1962.247
141.3681, 1970.565
141.8502, 1990.113
142.3323, 2014.095
142.8145, 2043.214
143.2966, 2075.461
143.7787, 2108.612
144.2608, 2143.130
144.7429, 2187.996
145.2250, 2242.246
145.7072, 2308.336
146.1893, 2387.703
146.6714, 2471.901
147.1535, 2581.252
147.6356, 2713.591
148.1178, 2863.710
148.5999, 3066.583
149.0820, 3318.791
149.5641, 3624.848
150.0462, 3987.962
150.5283, 4406.305
151.0105, 4878.717
151.4926, 5386.114
151.9747, 6029.067
152.4568, 6527.526
152.9389, 6969.490
153.4210, 7246.944
153.9032, 7208.389
154.3853, 6614.628
154.8674, 5911.835
155.3495, 5233.874
155.8316, 4581.765
156.3137, 3956.659
156.7959, 3318.304
157.2780, 2706.591
157.7601, 2200.514
158.2422, 1827.911
158.7243, 1547.297
159.2065, 1338.059
159.6886, 1218.032
160.1707, 1128.953
160.6528, 1062.799
161.1349, 1015.470
161.6170, 976.5114
162.0992, 944.2799
162.5813, 917.6546
163.0634, 896.1710
163.5455, 882.0801
164.0276, 869.7380
164.5097, 855.7010
164.9919, 840.9471
165.4740, 829.3610
165.9561, 825.3425
166.4382, 824.1992
166.9203, 821.6786
167.4024, 816.3992
167.8846, 809.6468
168.3667, 800.4062
168.8488, 789.3782
169.3309, 781.1893
169.8130, 781.2582
170.2952, 785.0052
170.7773, 786.7193
171.2594, 782.2165
171.7415, 776.6761
172.2236, 773.9103
172.7057, 773.8655
173.1879, 776.1092
173.6700, 781.9586
174.1521, 789.6929
174.6342, 796.4222
175.1163, 797.6896
175.5984, 799.0773
176.0806, 807.9783
176.5627, 824.4310
177.0448, 842.9618
177.5269, 859.5231
178.0090, 874.4476
178.4911, 888.9948
178.9733, 900.3373
179.4554, 912.4342
179.9375, 930.1063
180.4196, 952.8088
180.9017, 985.0126
181.3838, 1029.877
181.8660, 1087.372
182.3481, 1159.523
182.8302, 1254.311
183.3123, 1363.287
183.7944, 1470.999
184.2766, 1580.141
184.7587, 1677.208
185.2408, 1746.349
185.7229, 1789.039
186.2050, 1817.582
186.6871, 1830.471
187.1693, 1832.621
187.6514, 1840.328
188.1335, 1853.995
188.6156, 1874.169
189.0977, 1903.009
189.5798, 1940.186
190.0620, 1981.641
190.5441, 2022.819
191.0262, 2065.537
191.5083, 2122.383
191.9904, 2196.911
192.4725, 2281.084
192.9547, 2358.707
193.4368, 2429.939
193.9189, 2510.890
194.4010, 2605.773
194.8831, 2715.333
195.3652, 2850.326
195.8474, 3008.382
196.3295, 3196.787
196.8116, 3431.037
197.2937, 3710.753
197.7758, 4027.852
198.2579, 4380.513
198.7401, 4769.136
199.2222, 5182.757
199.7043, 5634.919
200.1864, 6088.264
200.6685, 6509.004
201.1507, 6931.763
201.6328, 7146.241
202.1149, 6993.076
202.5970, 6446.826
203.0791, 5774.789
203.5612, 4951.155
204.0434, 4058.230
204.5255, 3323.711
205.0076, 2757.835
205.4897, 2313.171
205.9718, 1975.650
206.4539, 1756.143
206.9361, 1579.310
207.4182, 1443.919
207.9003, 1344.658
208.3824, 1262.711
208.8645, 1200.000
209.3466, 1149.036
209.8288, 1105.857
210.3109, 1071.480
210.7930, 1040.269
211.2751, 1011.299
211.7572, 985.3252
212.2393, 964.5654
212.7215, 950.3680
213.2036, 938.8231
213.6857, 927.5485
214.1678, 916.1424
214.6499, 906.2443
215.1320, 897.9980
215.6142, 891.2648
216.0963, 885.4714
216.5784, 880.1816
217.0605, 876.6425
217.5426, 876.6451
218.0247, 882.7917
218.5069, 884.4517
218.9890, 878.7405
219.4711, 867.7295
219.9532, 861.2627
220.4353, 860.5807
220.9175, 862.2986
221.3996, 864.7420
221.8817, 868.7972
222.3638, 871.1307
222.8459, 870.8403
223.3280, 868.5150
223.8102, 866.9980
224.2923, 865.8831
224.7744, 866.1222
225.2565, 868.8643
225.7386, 876.2352
226.2207, 880.7781
226.7029, 880.7982
227.1850, 877.3019
227.6671, 875.7308
228.1492, 877.5933
228.6313, 879.2362
229.1134, 878.1752
229.5956, 872.6226
230.0777, 868.3364
230.5598, 865.6937
231.0419, 864.6385
231.5240, 865.0415
232.0062, 868.0897
232.4883, 871.0043
232.9704, 872.0754
233.4525, 870.6218
233.9346, 868.8221
234.4167, 866.6439
234.8989, 864.2218
235.3810, 862.3167
235.8631, 861.6681
236.3452, 860.5123
236.8273, 857.4255
237.3094, 850.2201
237.7916, 845.9457
238.2737, 846.2552
238.7558, 849.8374
239.2379, 851.0983
239.7200, 848.7838
240.2021, 845.8268
240.6843, 843.8955
241.1664, 843.9855
241.6485, 842.9503
242.1306, 840.6912
242.6127, 837.2117
243.0948, 832.2081
243.5770, 823.6022
244.0591, 816.3653
244.5412, 813.3777
245.0233, 816.7523
245.5054, 819.7383
245.9876, 822.6638
246.4697, 824.9941
246.9518, 824.4952
247.4339, 818.0621
247.9160, 813.4296
248.3981, 815.0724
248.8803, 827.2336
249.3624, 835.2849
249.8445, 837.0480
250.3266, 835.0194
250.8087, 836.0878
251.2908, 841.3060
251.7730, 847.8735
252.2551, 854.7563
252.7372, 862.7158
253.2193, 869.1173
253.7014, 873.6816
254.1835, 876.7604
254.6657, 878.5858
255.1478, 877.2236
255.6299, 878.0468
256.1120, 884.3149
256.5941, 899.2131
257.0763, 908.8441
257.5584, 910.8214
258.0405, 909.1539
258.5226, 912.1428
259.0047, 922.0645
259.4868, 931.9840
259.9690, 938.7142
260.4511, 940.9458
260.9332, 946.0875
261.4153, 954.9201
261.8974, 966.0403
262.3795, 977.1447
262.8617, 988.5818
263.3438, 999.3675
263.8259, 1009.032
264.3080, 1017.246
264.7901, 1025.977
265.2722, 1034.251
265.7544, 1044.157
266.2365, 1058.990
266.7186, 1079.851
267.2007, 1101.936
267.6828, 1122.418
268.1649, 1141.101
268.6471, 1166.621
269.1292, 1199.135
269.6113, 1238.896
270.0934, 1286.067
270.5755, 1341.042
271.0576, 1403.545
271.5398, 1472.218
272.0219, 1547.828
272.5040, 1636.744
272.9861, 1738.527
273.4682, 1851.889
273.9503, 1980.581
274.4325, 2127.617
274.9146, 2269.886
275.3967, 2402.586
275.8788, 2526.698
276.3610, 2640.621
276.8431, 2742.836
277.3252, 2836.201
277.8073, 2920.531
278.2894, 2994.954
278.7715, 3069.280
279.2537, 3142.917
279.7358, 3219.123
280.2179, 3313.230
280.7000, 3426.913
281.1821, 3552.828
281.6642, 3684.296
282.1464, 3821.260
282.6285, 3975.926
283.1106, 4149.503
283.5927, 4342.648
284.0748, 4554.186
284.5569, 4784.020
285.0391, 5041.699
285.5212, 5330.184
286.0033, 5650.931
286.4854, 6026.397
286.9675, 6467.499
287.4496, 6951.806
287.9318, 7444.765
288.4139, 7950.651
288.8960, 8442.142
289.3781, 8924.931
289.8602, 9392.156
290.3423, 9826.089
290.8245, 10245.39
291.3066, 10580.62
291.7887, 10754.76
292.2708, 10763.88
292.7529, 10547.74
293.2350, 9996.665
293.7172, 9188.296
294.1993, 8346.385
294.6814, 7460.841
295.1635, 6619.609
295.6456, 5927.872
296.1277, 5377.150
296.6099, 4944.653
297.0920, 4655.163
297.5741, 4475.392
298.0562, 4355.027
298.5383, 4295.438
299.0204, 4281.340
299.5026, 4308.604
299.9847, 4370.968
300.4668, 4452.947
300.9489, 4536.456
301.4311, 4641.089
301.9132, 4792.070
302.3953, 4990.235
302.8774, 5223.722
303.3595, 5481.708
303.8416, 5769.662
304.3238, 6104.800
304.8059, 6485.509
305.2880, 6914.370
305.7701, 7402.412
306.2522, 7946.250
306.7343, 8495.668
307.2165, 9042.978
307.6986, 9574.454
308.1807, 10087.08
308.6628, 10639.16
309.1449, 11085.96
309.6270, 11412.91
310.1092, 11572.82
310.5913, 11401.84
311.0734, 10698.45
311.5555, 9685.476
312.0376, 8510.413
312.5197, 7102.275
313.0019, 5795.905
313.4840, 4728.045
313.9661, 3881.055
314.4482, 3206.711
314.9303, 2747.036
315.4124, 2407.544
315.8946, 2148.745
316.3767, 1973.024
316.8588, 1837.336
317.3409, 1735.126
317.8230, 1657.916
318.3051, 1594.789
318.7873, 1547.038
319.2694, 1507.756
319.7515, 1474.533
320.2336, 1447.230
320.7157, 1425.330
321.1978, 1409.786
321.6800, 1399.264
322.1621, 1392.651
322.6442, 1391.383
323.1263, 1392.271
323.6084, 1394.849
324.0905, 1399.067
324.5727, 1404.541
325.0548, 1410.525
325.5369, 1418.149
326.0190, 1428.093
326.5012, 1441.638
326.9833, 1456.156
327.4654, 1469.760
327.9475, 1483.713
328.4296, 1502.824
328.9117, 1526.256
329.3939, 1555.575
329.8760, 1591.334
330.3581, 1631.820
330.8402, 1681.933
331.3223, 1740.470
331.8044, 1809.127
332.2866, 1890.728
332.7687, 1978.019
333.2508, 2087.629
333.7329, 2226.662
334.2150, 2398.947
334.6971, 2585.081
335.1793, 2786.469
335.6614, 3002.534
336.1435, 3230.277
336.6256, 3472.410
337.1077, 3724.542
337.5898, 3981.313
338.0720, 4245.954
338.5541, 4514.048
339.0362, 4784.657
339.5183, 5065.926
340.0004, 5358.224
340.4825, 5661.961
340.9647, 5994.325
341.4468, 6360.606
341.9289, 6754.981
342.4110, 7172.701
342.8931, 7613.090
343.3752, 8058.547
343.8574, 8481.179
344.3395, 8887.721
344.8216, 9322.787
345.3037, 9785.621
345.7858, 10289.02
346.2679, 10849.24
346.7501, 11470.99
347.2322, 12150.47
347.7143, 12890.13
348.1964, 13690.54
348.6785, 14564.46
349.1607, 15527.14
349.6428, 16542.37
350.1249, 17643.60
350.6070, 18785.33
351.0891, 19848.45
351.5713, 20824.08
352.0534, 21659.41
352.5355, 22272.22
353.0176, 22657.35
353.4997, 22902.19
353.9818, 23101.13
354.4640, 23197.56
354.9461, 23094.42
355.4282, 22696.86
355.9103, 22176.75
356.3924, 21626.68
356.8745, 21062.95
357.3567, 20562.74
357.8388, 20356.08
358.3209, 20125.54
358.8030, 19605.24
359.2851, 18751.84
359.7672, 17595.08
360.2494, 15978.83
360.7315, 14076.25
361.2136, 12234.15
361.6957, 10450.67
362.1778, 8846.847
362.6599, 7488.557
363.1421, 6388.563
363.6242, 5472.926
364.1063, 4765.002
364.5884, 4209.667
365.0705, 3756.429
365.5526, 3434.764
366.0348, 3172.826
366.5169, 2966.404
366.9990, 2813.193
367.4811, 2682.584
367.9632, 2580.876
368.4453, 2494.479
368.9275, 2416.308
369.4096, 2342.001
369.8917, 2281.880
370.3738, 2238.750
370.8559, 2209.724
371.3380, 2187.337
371.8202, 2170.423
372.3023, 2161.429
372.7844, 2161.681
373.2665, 2171.952
373.7487, 2187.676
374.2308, 2207.466
374.7129, 2234.125
375.1950, 2272.126
375.6771, 2322.882
376.1592, 2381.309
376.6414, 2448.397
377.1235, 2523.055
377.6056, 2596.979
378.0877, 2670.981
378.5698, 2743.708
379.0519, 2819.374
379.5341, 2897.513
380.0162, 2960.870
380.4983, 3009.401
380.9804, 3037.433
381.4625, 3034.966
381.9446, 3001.991
382.4268, 2929.621
382.9089, 2801.724
383.3910, 2629.382
383.8731, 2437.643
384.3552, 2225.408
384.8373, 2013.358
385.3195, 1818.666
385.8016, 1643.496
386.2837, 1490.824
386.7658, 1367.781
387.2479, 1267.331
387.7300, 1181.194
388.2122, 1109.625
388.6943, 1049.095
389.1764, 1000.672
389.6585, 960.9600
390.1406, 926.9733
390.6227, 898.9705
391.1049, 874.8151
391.5870, 854.4699
392.0691, 837.2943
392.5512, 821.3628
393.0333, 806.0519
393.5154, 791.5220
393.9976, 777.6201
394.4797, 763.9060
394.9618, 752.2977
395.4439, 745.2655
395.9260, 740.1727
396.4081, 733.5424
396.8903, 724.0283
397.3724, 713.4174
397.8545, 701.1202
398.3366, 687.0066
398.8188, 675.5593
399.3009, 671.5989
399.7830, 667.3928
400.2651, 657.9827
400.7472, 639.5991
401.2293, 621.4935
401.7115, 603.1074
402.1936, 585.2928
402.6757, 571.0213
403.1578, 562.3879
403.6399, 553.6469
404.1220, 542.3612
404.6042, 527.9818
405.0863, 513.6345
405.5684, 498.9095
406.0505, 485.1164
406.5326, 474.3201
407.0147, 466.7780
407.4969, 460.0518
407.9790, 453.4063
408.4611, 447.0362
408.9432, 441.9171
409.4253, 438.1693
409.9074, 434.7234
410.3896, 430.4510
410.8717, 425.6620
411.3538, 421.8823
411.8359, 419.6285
412.3180, 417.8100
412.8001, 414.6335
413.2823, 410.5086
413.7644, 406.8416
414.2465, 404.7589
414.7286, 403.4108
415.2107, 401.3251
415.6928, 398.4118
416.1750, 396.2443
416.6571, 396.5232
417.1392, 398.1446
417.6213, 399.6559
418.1034, 400.9893
418.5855, 401.6219
419.0677, 400.9556
419.5498, 399.2426
420.0319, 397.4502
420.5140, 395.8245
420.9961, 394.3269
421.4782, 392.9003
421.9604, 391.4570
422.4425, 390.3113
422.9246, 389.9297
423.4067, 389.7863
423.8889, 389.1526
424.3710, 387.0341
424.8531, 385.3807
425.3352, 385.2355
425.8173, 386.6242
426.2994, 385.8886
426.7816, 381.1534
427.2637, 376.1995
427.7458, 373.6436
428.2279, 374.7401
428.7100, 375.1880
429.1921, 374.8469
429.6743, 373.6347
430.1564, 370.9142
430.6385, 366.0573
431.1206, 362.1412
431.6027, 360.9454
432.0848, 362.2985
432.5670, 362.3047
433.0491, 360.8133
433.5312, 358.5846
434.0133, 356.1308
434.4954, 353.5275
434.9775, 351.2040
435.4597, 349.0496
435.9418, 347.5062
436.4239, 348.1240
436.9060, 350.5079
437.3881, 352.1510
437.8702, 350.5208
438.3524, 347.5016
438.8345, 345.9003
439.3166, 346.1557
439.7987, 346.8252
440.2808, 347.0341
440.7629, 346.8513
441.2451, 346.3849
441.7272, 345.3891
442.2093, 344.3775
442.6914, 343.0606
443.1735, 341.6903
443.6556, 341.8757
444.1378, 347.4984
444.6199, 352.6362
445.1020, 352.9922
445.5841, 343.8796
446.0662, 337.9648
446.5483, 339.3912
447.0305, 344.5176
447.5126, 347.2991
447.9947, 345.9744
448.4768, 344.2794
448.9590, 343.1911
449.4411, 342.7468
449.9232, 340.8571
450.4053, 336.4762
450.8874, 332.1183
451.3695, 329.9294
451.8517, 330.5558
452.3338, 330.3583
452.8159, 328.8138
453.2980, 326.5188
453.7801, 324.6299
454.2622, 323.1837
454.7444, 321.7919
455.2265, 319.7672
455.7086, 317.5949
456.1907, 318.0850
456.6728, 321.4659
457.1549, 324.6539
457.6371, 324.2764
458.1192, 321.5598
458.6013, 319.4722
459.0834, 318.8647
459.5655, 318.9294
460.0476, 319.1752
460.5298, 319.4514
461.0119, 319.3077
461.4940, 317.8067
461.9761, 316.2704
462.4582, 315.7768
462.9403, 316.4540
463.4225, 317.5118
463.9046, 318.5653
464.3867, 319.8448
464.8688, 321.5413
465.3509, 325.3435
465.8330, 327.7427
466.3152, 326.6176
466.7973, 323.2313
467.2794, 322.1573
467.7615, 326.6284
468.2436, 330.5285
468.7257, 331.4407
469.2079, 328.3362
469.6900, 327.0219
470.1721, 328.2316
470.6542, 330.4421
471.1363, 332.0573
471.6184, 332.8832
472.1006, 333.9137
472.5827, 335.4495
473.0648, 337.2240
473.5469, 338.4871
474.0291, 339.2409
474.5112, 339.4741
474.9933, 338.8781
475.4754, 337.6944
475.9575, 337.0719
476.4396, 337.1197
476.9218, 337.1983
477.4039, 336.0193
477.8860, 334.3511
478.3681, 334.1371
478.8502, 336.9767
479.3323, 340.3007
479.8145, 341.9877
480.2966, 342.1049
480.7787, 340.9005
481.2608, 336.3755
481.7429, 332.0710
482.2250, 330.9443
482.7072, 333.9417
483.1893, 336.4597
483.6714, 336.3096
484.1535, 335.1646
484.6356, 334.7184
485.1177, 337.4493
485.5999, 338.3835
486.0820, 335.3254
486.5641, 329.6289
487.0462, 326.2493
487.5283, 326.4296
488.0104, 327.2805
488.4926, 327.7294
488.9747, 327.6824
489.4568, 327.9669
489.9389, 328.9395
490.4210, 329.5978
490.9031, 328.2402
491.3853, 324.6460
491.8674, 322.7197
492.3495, 323.6435
492.8316, 326.2259
493.3137, 328.2694
493.7958, 329.7568
494.2780, 330.3751
494.7601, 329.7097
495.2422, 328.0975
495.7243, 325.6671
496.2064, 322.3280
496.6885, 320.0265
497.1707, 321.0733
497.6528, 323.8350
498.1349, 326.2088
498.6170, 328.4232
499.0992, 328.9296
499.5813, 325.6203
500.0634, 319.9152
500.5455, 315.2771
501.0276, 313.5238
501.5097, 312.4580
501.9919, 311.3275
502.4740, 310.1173
502.9561, 308.6155
503.4382, 306.6418
503.9203, 304.4739
504.4024, 302.1989
504.8846, 299.3339
505.3667, 297.4720
505.8488, 297.1005
506.3309, 297.5538
506.8130, 297.4334
507.2951, 296.6935
507.7773, 295.5964
508.2594, 294.1573
508.7415, 292.4422
509.2236, 290.4567
509.7057, 288.1190
510.1878, 286.5487
510.6700, 287.4958
511.1521, 289.9863
511.6342, 290.8889
512.1163, 289.3561
512.5984, 287.4610
513.0806, 287.6362
513.5627, 289.0629
514.0448, 290.0303
514.5269, 289.3287
515.0090, 288.2892
515.4911, 287.7053
515.9733, 287.5529
516.4554, 287.6017
516.9375, 287.9349
517.4196, 288.3073
517.9017, 288.6379
518.3839, 289.1166
518.8660, 289.0511
519.3481, 287.9852
519.8302, 286.5099
520.3123, 285.2407
520.7944, 284.1388
521.2766, 283.3891
521.7587, 283.5365
522.2408, 284.0002
522.7229, 282.0720
523.2050, 277.0349
523.6871, 272.2785
524.1693, 269.6579
524.6514, 269.0624
525.1335, 268.6288
525.6156, 268.3926
526.0977, 268.0829
526.5798, 267.3802
527.0620, 266.3696
527.5441, 265.2448
528.0262, 263.8766
528.5083, 262.7658
528.9904, 262.6537
529.4725, 263.2393
529.9547, 263.8008
530.4368, 264.1199
530.9189, 264.1796
531.4010, 263.6670
531.8831, 262.6043
532.3652, 262.2200
532.8474, 263.6237
533.3295, 265.3319
533.8116, 266.4360
534.2937, 266.7289
534.7758, 266.5553
535.2579, 265.7265
535.7401, 264.5419
536.2222, 263.3609
536.7043, 261.8447
537.1864, 261.1127
537.6685, 261.5283
538.1506, 262.9003
538.6328, 264.4830
539.1149, 266.3823
539.5970, 267.9434
540.0791, 268.6352
540.5612, 268.6224
541.0433, 268.6655
541.5255, 268.8185
542.0076, 268.7538
542.4897, 267.5924
542.9718, 266.0388
543.4539, 265.6205
543.9360, 267.3475
544.4182, 269.2776
544.9003, 269.7239
545.3824, 269.2099
545.8645, 268.9031
546.3466, 269.3471
546.8287, 270.0345
547.3109, 270.8657
547.7930, 271.8268
548.2751, 272.4963
548.7572, 273.3885
549.2393, 273.5020
549.7214, 272.0284
550.2036, 267.0744
550.6857, 264.9794
551.1678, 266.7941
551.6499, 270.4070
552.1320, 273.1774
552.6141, 275.1985
553.0963, 275.8072
553.5784, 274.4570
554.0605, 271.9396
554.5426, 270.2262
555.0247, 269.2929
555.5068, 268.7055
555.9890, 268.3677
556.4711, 268.1570
556.9532, 267.7088
557.4353, 267.0121
557.9174, 266.7112
558.3995, 266.7665
558.8817, 267.7065
559.3638, 270.4720
559.8459, 276.7611
560.3281, 281.7946
560.8102, 282.4213
561.2923, 280.8153
561.7744, 280.3830
562.2565, 282.5909
562.7386, 285.1185
563.2208, 287.6647
563.7029, 290.1765
564.1850, 292.3744
564.6671, 293.8923
565.1492, 295.7059
565.6313, 298.2915
566.1135, 301.6514
566.5956, 305.5965
567.0777, 310.2666
567.5598, 314.9384
568.0419, 318.4558
568.5240, 321.1657
569.0062, 325.0685
569.4883, 330.5977
569.9704, 337.2644
570.4525, 344.8924
570.9346, 353.2004
571.4167, 361.0958
571.8989, 367.5258
572.3810, 374.0066
572.8631, 381.8196
573.3452, 390.7554
573.8273, 399.7880
574.3094, 408.6324
574.7916, 417.3074
575.2737, 425.8480
575.7558, 434.2796
576.2379, 442.4096
576.7200, 450.1855
577.2021, 457.6034
577.6843, 464.3179
578.1664, 469.0627
578.6485, 477.1866
579.1306, 490.7523
579.6127, 506.3958
580.0948, 517.5052
580.5770, 524.0388
581.0591, 529.8474
581.5412, 537.1466
582.0233, 544.2421
582.5054, 546.6996
582.9875, 544.9727
583.4697, 542.7130
583.9518, 542.7620
584.4339, 543.3727
584.9160, 542.6116
585.3981, 540.1835
585.8802, 537.2455
586.3624, 535.2616
586.8445, 532.6023
587.3266, 527.7428
587.8087, 517.6597
588.2908, 508.8465
588.7729, 502.9147
589.2551, 498.4476
589.7372, 493.1418
590.2193, 486.8989
590.7014, 479.8547
591.1835, 471.4905
591.6656, 462.3783
592.1478, 456.0115
592.6299, 452.7339
593.1120, 450.0101
593.5941, 446.4247
594.0762, 442.1662
594.5583, 437.8143
595.0405, 433.4119
595.5226, 429.1821
596.0047, 425.3884
596.4868, 421.9002
596.9689, 418.3282
597.4510, 414.2350
597.9332, 410.9915
598.4153, 410.6636
598.8974, 411.3772
599.3795, 410.3105
599.8616, 404.3765
600.3438, 399.1820
600.8259, 396.1499
601.3080, 394.9595
601.7901, 394.5916
602.2722, 395.6671
602.7543, 396.5118
603.2365, 396.3381
603.7186, 395.1715
604.2007, 394.6892
604.6828, 394.9267
605.1649, 395.6493
605.6470, 397.4707
606.1292, 399.7649
606.6113, 399.3870
607.0934, 395.5721
607.5755, 391.6399
608.0576, 391.8184
608.5398, 394.0867
609.0219, 394.8922
609.5040, 391.5157
609.9861, 388.6446
610.4683, 389.6866
610.9504, 393.0796
611.4325, 395.4707
611.9146, 395.0833
612.3967, 394.5162
612.8788, 394.2874
613.3610, 394.4357
613.8431, 395.6115
614.3252, 398.8035
614.8073, 401.3442
615.2894, 401.5806
615.7715, 399.3325
616.2537, 398.0976
616.7358, 397.9729
617.2179, 398.3706
617.7000, 398.8979
618.1821, 399.4791
618.6642, 399.9871
619.1464, 400.5615
619.6285, 400.4639
620.1106, 397.6628
620.5927, 393.8872
621.0748, 392.1224
621.5569, 395.2773
622.0391, 398.8841
622.5212, 401.0629
623.0033, 402.1601
623.4854, 403.2493
623.9675, 405.3246
624.4496, 406.5590
624.9318, 406.1563
625.4139, 404.1630
625.8960, 402.6149
626.3781, 401.2635
626.8602, 400.9716
627.3423, 402.6085
627.8245, 406.1150
628.3066, 409.1924
628.7887, 411.6410
629.2708, 414.5690
629.7529, 419.7446
630.2350, 426.1996
630.7172, 431.7139
631.1993, 435.4630
631.6814, 439.1013
632.1635, 443.9124
632.6456, 449.5019
633.1277, 455.3232
633.6099, 461.0132
634.0920, 467.0890
634.5741, 473.6653
635.0562, 480.7537
635.5383, 488.5959
636.0204, 497.4106
636.5026, 506.7262
636.9847, 517.0906
637.4668, 528.2327
637.9489, 535.9130
638.4310, 539.5195
638.9131, 542.7524
639.3953, 548.8755
639.8774, 556.9650
640.3595, 562.0396
640.8416, 563.7076
641.3237, 565.4804
641.8058, 571.8834
642.2880, 579.9711
642.7701, 585.2553
643.2522, 586.0420
643.7343, 586.0543
644.2164, 586.1862
644.6985, 587.0162
645.1807, 589.3112
645.6628, 596.7665
646.1449, 601.2895
646.6270, 600.7640
647.1091, 596.8971
647.5912, 593.8995
648.0734, 591.8273
648.5555, 590.5273
649.0376, 590.6153
649.5197, 591.3094
650.0018, 588.3053
650.4839, 581.6116
650.9661, 575.7032
651.4482, 574.9611
651.9303, 576.3284
652.4124, 574.1771
652.8945, 568.3168
653.3766, 561.8484
653.8588, 555.9627
654.3409, 550.9069
654.8230, 547.1072
655.3051, 545.4094
655.7872, 542.7916
656.2693, 539.0014
656.7515, 533.7181
657.2336, 526.4917
657.7158, 515.8584
658.1979, 506.4235
658.6800, 498.5514
659.1621, 491.9831
659.6442, 486.3276
660.1263, 481.5983
660.6085, 477.8907
661.0906, 476.0602
661.5727, 474.3015
662.0548, 468.7520
662.5369, 460.2568
663.0190, 452.0392
663.5012, 445.1867
663.9833, 439.7932
664.4654, 436.0672
664.9475, 433.9769
665.4296, 432.9539
665.9117, 433.6988
666.3939, 434.7325
666.8760, 435.2388
667.3581, 435.0467
667.8402, 435.5679
668.3223, 437.4040
668.8044, 439.0230
669.2866, 438.8808
669.7687, 436.8505
670.2508, 436.3224
670.7329, 437.6567
671.2150, 439.6713
671.6971, 440.4867
672.1793, 440.9498
672.6614, 443.7103
673.1435, 450.5587
673.6256, 456.7419
674.1077, 456.7595
674.5898, 454.0820
675.0720, 454.0753
675.5541, 461.2472
676.0362, 468.1352
676.5183, 472.6683
677.0004, 475.4119
677.4825, 478.0510
677.9647, 480.6520
678.4468, 482.9050
678.9289, 484.2616
679.4110, 485.2426
679.8931, 488.9540
680.3752, 495.5637
680.8574, 501.9495
681.3395, 506.3828
681.8216, 509.3317
682.3037, 511.6909
682.7858, 513.4603
683.2679, 514.2604
683.7501, 513.3429
684.2322, 511.6837
684.7143, 509.6891
685.1964, 507.1531
685.6785, 506.0873
686.1606, 509.5956
686.6428, 512.9529
687.1249, 512.5758
687.6070, 505.7660
688.0891, 501.5623
688.5712, 500.8031
689.0533, 501.3228
689.5355, 500.4013
690.0176, 498.1186
690.4997, 496.2909
690.9818, 495.0685
691.4639, 494.9347
691.9460, 497.4217
692.4282, 501.4648
692.9103, 504.7293
693.3924, 506.7509
693.8745, 507.2494
694.3566, 504.1620
694.8387, 499.4401
695.3209, 497.6761
695.8030, 503.6516
696.2851, 508.4630
696.7672, 509.7183
697.2493, 508.1127
697.7314, 507.3196
698.2136, 507.7789
698.6957, 507.5887
699.1778, 505.8178
699.6599, 502.7201
700.1420, 498.9899
700.6241, 494.6902
701.1063, 491.3303
701.5884, 490.3286
702.0705, 490.6791
702.5526, 491.6255
703.0347, 493.0896
703.5168, 493.6006
703.9990, 492.3748
704.4811, 489.9662
704.9632, 486.5296
705.4453, 481.3193
705.9274, 477.3250
706.4095, 475.5047
706.8917, 473.8377
707.3738, 470.2121
707.8560, 464.3350
708.3381, 460.2544
708.8202, 458.8173
709.3023, 457.3155
709.7844, 451.1899
710.2665, 442.2262
710.7487, 435.2513
711.2308, 431.6508
711.7129, 430.0346
712.1950, 431.4547
712.6771, 433.5516
713.1592, 432.7532
713.6414, 424.4763
714.1235, 417.2359
714.6056, 413.7629
715.0877, 412.4274
715.5698, 410.0672
716.0519, 405.9923
716.5341, 402.6717
717.0162, 400.6257
717.4983, 399.8087
717.9804, 401.0292
718.4625, 404.0583
718.9446, 405.5157
719.4268, 401.7985
719.9089, 396.9078
720.3910, 396.6929
720.8731, 400.1635
721.3552, 403.1038
721.8373, 403.3111
722.3195, 402.4954
722.8016, 400.8798
723.2837, 398.5314
723.7658, 398.1750
724.2479, 401.4027
724.7300, 404.5898
725.2122, 406.3759
725.6943, 406.7707
726.1764, 404.5843
726.6585, 399.3552
727.1406, 394.2983
727.6227, 392.3478
728.1049, 392.3315
728.5870, 391.8885
729.0691, 390.8546
729.5512, 388.6571
730.0333, 383.3965
730.5154, 377.6240
730.9976, 374.1369
731.4797, 374.4642
731.9618, 373.6264
732.4439, 370.6137
732.9260, 366.2016
733.4081, 360.7766
733.8903, 354.1720
734.3724, 347.0661
734.8545, 339.3708
735.3366, 331.6340
735.8187, 324.5275
736.3008, 318.0098
736.7830, 311.8055
737.2651, 305.7249
737.7472, 300.3658
738.2293, 297.0731
738.7114, 294.7266
739.1935, 291.6695
739.6757, 286.5913
740.1578, 281.7394
740.6399, 277.7227
741.1220, 274.3351
741.6041, 271.1229
742.0862, 268.0604
742.5684, 265.2150
743.0505, 262.5965
743.5326, 260.1692
744.0147, 257.7914
744.4968, 255.5011
744.9789, 253.5204
745.4611, 251.8448
745.9432, 250.6299
746.4253, 250.6805
746.9074, 251.3775
747.3895, 251.1109
747.8716, 248.4352
748.3538, 245.3905
748.8359, 242.1219
749.3180, 239.0378
749.8001, 238.1600
750.2822, 241.5936
750.7643, 243.4955
751.2465, 241.2150
751.7286, 236.0802
752.2107, 235.2454
752.6928, 238.7927
753.1749, 241.8827
753.6570, 240.6932
754.1392, 237.8086
754.6213, 237.4397
755.1034, 239.3375
755.5855, 242.0186
756.0676, 247.3753
756.5498, 250.9753
757.0319, 248.6762
757.5140, 240.1015
757.9962, 235.7271
758.4783, 238.5570
758.9604, 242.0957
759.4425, 243.4264
759.9246, 242.6052
760.4067, 242.4525
760.8889, 243.0147
761.3710, 243.8372
761.8531, 245.0220
762.3352, 246.0949
762.8173, 246.0702
763.2994, 244.9228
763.7816, 243.3274
764.2637, 241.3344
764.7458, 239.3252
765.2279, 237.5302
765.7100, 235.8852
766.1921, 234.8730
766.6743, 235.0416
767.1564, 235.1866
767.6385, 234.4432
768.1206, 232.6637
768.6027, 231.3448
769.0848, 230.5219
769.5670, 229.9536
770.0491, 229.6029
770.5312, 229.2879
771.0133, 228.5290
771.4954, 227.2166
771.9775, 226.0875
772.4597, 225.8221
772.9418, 225.8089
773.4239, 225.5129
773.9060, 224.7052
774.3881, 224.0195
774.8702, 223.6911
775.3524, 223.2544
775.8345, 222.0934
776.3166, 220.0730
776.7987, 219.2879
777.2808, 220.1203
777.7629, 220.9218
778.2451, 219.2038
778.7272, 216.3051
779.2093, 215.1272
779.6914, 216.6374
780.1735, 218.0341
780.6556, 217.1165
781.1378, 215.5403
781.6199, 214.9266
782.1020, 216.3120
782.5841, 217.4228
783.0662, 218.4412
783.5483, 218.9737
784.0305, 218.5778
784.5126, 217.2375
784.9947, 214.9807
785.4768, 211.5395
785.9589, 208.4721
786.4410, 208.1877
786.9232, 209.4451
787.4053, 209.9254
787.8874, 208.7774
788.3695, 207.5954
788.8516, 207.8436
789.3337, 208.1441
789.8159, 206.8371
790.2980, 202.4739
790.7801, 198.9037
791.2622, 196.3215
791.7443, 194.4599
792.2264, 193.2498
792.7086, 192.6279
793.1907, 191.6116
793.6728, 189.8435
794.1549, 188.4020
794.6370, 189.2581
795.1191, 191.0350
795.6013, 191.4606
796.0834, 189.4777
796.5655, 186.9675
797.0476, 183.9207
797.5297, 181.0147
798.0118, 179.0988
798.4940, 178.7313
798.9761, 178.0387
799.4582, 176.8844
799.9403, 175.3865
800.4224, 173.1888
800.9045, 170.5860
801.3867, 169.5845
801.8688, 171.0268
802.3509, 172.5018
802.8330, 171.0391
803.3151, 168.3237
803.7972, 166.7675
804.2794, 167.9647
804.7615, 168.7253
805.2436, 168.5208
805.7258, 167.4719
806.2079, 165.1865
806.6900, 160.6278
807.1721, 159.3217
807.6542, 162.5593
808.1364, 167.1736
808.6185, 169.2303
809.1006, 169.2063
809.5827, 168.2891
810.0648, 166.4114
810.5469, 164.8372
811.0291, 164.9576
811.5112, 165.7049
811.9933, 165.7952
812.4754, 163.6069
812.9575, 162.9950
813.4396, 165.0783
813.9218, 167.8472
814.4039, 169.1272
814.8860, 168.8893
815.3681, 167.4619
815.8502, 164.5595
816.3323, 161.9044
816.8145, 162.0393
817.2966, 163.7162
817.7787, 164.5910
818.2608, 163.7906
818.7429, 163.3713
819.2250, 165.6220
819.7072, 168.0049
820.1893, 167.7180
820.6714, 162.1901
821.1535, 159.6175
821.6356, 160.8756
822.1177, 163.5235
822.5999, 165.1687
823.0820, 165.8903
823.5641, 166.1936
824.0462, 166.1311
824.5283, 165.7251
825.0104, 164.5709
825.4926, 163.2960
825.9747, 162.7556
826.4568, 163.4343
826.9389, 163.7162
827.4210, 162.4389
827.9031, 161.2711
828.3853, 161.4943
828.8674, 163.5715
829.3495, 164.7935
829.8316, 165.0794
830.3137, 164.7525
830.7958, 163.4555
831.2780, 161.9256
831.7601, 162.2589
832.2422, 164.7764
832.7243, 166.5185
833.2064, 165.0816
833.6885, 162.5059
834.1707, 160.0780
834.6528, 157.7097
835.1349, 156.7660
835.6170, 157.7853
836.0991, 159.3158
836.5812, 160.3991
837.0634, 161.0839
837.5455, 162.3474
838.0276, 164.2212
838.5097, 165.5630
838.9918, 164.7967
839.4739, 163.4947
839.9561, 163.6445
840.4382, 165.3403
840.9203, 166.3908
841.4024, 165.6612
841.8845, 164.4946
842.3666, 163.4674
842.8488, 162.5752
843.3309, 161.4023
843.8130, 159.7930
844.2951, 158.7840
844.7772, 159.5544
845.2593, 161.1872
845.7415, 161.3526
846.2236, 160.3153
846.7057, 159.4824
847.1878, 159.7866
847.6699, 160.3794
848.1520, 160.9029
848.6342, 161.3183
849.1163, 161.5275
849.5984, 161.5106
850.0805, 161.3013
850.5626, 160.7881
851.0447, 160.1551
851.5269, 160.3098
852.0090, 161.0966
852.4911, 161.2024
852.9732, 158.7193
853.4553, 156.4938
853.9374, 158.2498
854.4196, 162.2805
854.9017, 164.3783
855.3839, 160.6930
855.8660, 158.1908
856.3481, 158.7416
856.8302, 161.0133
857.3123, 162.1590
857.7944, 162.1421
858.2766, 161.4548
858.7587, 159.8878
859.2408, 158.4353
859.7229, 159.0786
860.2050, 160.8545
860.6871, 161.7199
861.1693, 160.0081
861.6514, 158.8537
862.1335, 160.4266
862.6156, 162.7591
863.0977, 163.0699
863.5798, 160.2791
864.0620, 158.5933
864.5441, 158.4549
865.0262, 159.2147
865.5083, 160.8508
865.9904, 162.7055
866.4725, 162.3143
866.9547, 158.7838
867.4368, 155.6556
867.9189, 155.9023
868.4010, 157.4330
868.8831, 158.3635
869.3652, 158.4390
869.8474, 157.7056
870.3295, 155.5816
870.8116, 153.6018
871.2937, 152.8976
871.7758, 153.4326
872.2579, 155.1455
872.7401, 158.0628
873.2222, 160.5532
873.7043, 161.6340
874.1864, 161.4493
874.6685, 159.3964
875.1506, 155.4200
875.6328, 153.1054
876.1149, 155.4978
876.5970, 157.3594
877.0791, 156.2493
877.5612, 152.6340
878.0433, 151.5228
878.5255, 152.9947
879.0076, 154.8829
879.4897, 156.5240
879.9718, 157.4710
880.4539, 156.6181
880.9360, 154.4302
881.4182, 152.5125
881.9003, 150.7072
882.3824, 150.2091
882.8645, 152.7509
883.3466, 156.6748
883.8287, 157.2549
884.3109, 153.5952
884.7930, 151.8030
885.2751, 154.0888
885.7572, 157.8939
886.2393, 158.9907
886.7214, 158.1982
887.2036, 157.5585
887.6857, 158.2959
888.1678, 158.4538
888.6499, 156.0457
889.1320, 153.0833
889.6141, 152.3660
890.0963, 155.1926
890.5784, 156.8308
891.0605, 156.8354
891.5426, 156.0136
892.0247, 154.8260
892.5068, 153.5978
892.9890, 153.4900
893.4711, 154.7747
893.9532, 156.0854
894.4353, 156.8575
894.9174, 157.0032
895.3995, 156.3685
895.8817, 154.7899
896.3638, 152.8698
896.8459, 149.8974
897.3280, 148.1053
897.8101, 149.9598
898.2922, 154.4437
898.7744, 155.1427
899.2565, 152.4397
899.7386, 150.4833
900.2207, 153.2376
900.7028, 156.6295
901.1849, 157.6816
901.6671, 156.5241
902.1492, 155.0332
902.6313, 152.7643
903.1134, 151.3611
903.5955, 151.2988
904.0776, 152.3497
904.5598, 154.4296
905.0419, 157.3015
905.5240, 159.1156
906.0062, 158.9129
906.4883, 157.8391
906.9704, 155.9932
907.4525, 154.2286
907.9346, 153.9089
908.4167, 157.1397
908.8989, 159.4022
909.3810, 160.2598
909.8631, 160.2212
910.3452, 159.9607
910.8273, 159.4418
911.3094, 157.7156
911.7916, 154.4421
912.2737, 151.8398
912.7558, 153.0921
913.2379, 155.4746
913.7200, 155.6899
914.2021, 152.6220
914.6843, 151.0140
915.1664, 152.4922
915.6485, 154.4251
916.1306, 155.5509
916.6127, 155.8962
917.0948, 155.6123
917.5770, 154.7054
918.0591, 154.3469
918.5412, 156.2813
919.0233, 158.4110
919.5054, 157.9532
919.9875, 155.5727
920.4697, 154.2482
920.9518, 155.6469
921.4339, 157.2784
921.9160, 159.0918
922.3981, 160.5030
922.8802, 159.5914
923.3624, 156.4459
923.8445, 153.7840
924.3266, 152.4610
924.8087, 151.7171
925.2908, 150.6782
925.7729, 149.6646
926.2551, 149.1366
926.7372, 149.3440
927.2193, 149.8486
927.7014, 150.7839
928.1835, 151.7771
928.6656, 152.4800
929.1478, 152.8928
929.6299, 153.2881
930.1120, 153.6815
930.5941, 153.9824
931.0762, 154.1121
931.5583, 154.1074
932.0405, 153.8219
932.5226, 153.2630
933.0047, 153.3171
933.4868, 155.2037
933.9689, 156.4572
934.4510, 155.9919
934.9332, 154.2007
935.4153, 152.9790
935.8974, 152.3142
936.3795, 152.1792
936.8616, 152.7499
937.3438, 153.6181
937.8259, 154.4962
938.3080, 155.3461
938.7901, 156.0725
939.2722, 157.3706
939.7543, 157.3992
940.2365, 155.2588
940.7186, 152.6326
941.2007, 152.1689
941.6828, 153.6450
942.1649, 154.4454
942.6470, 154.2164
943.1292, 153.3650
943.6113, 151.3143
944.0934, 149.4303
944.5755, 149.3704
945.0576, 151.8437
945.5397, 153.1625
946.0219, 152.4465
946.5040, 151.5732
946.9861, 151.5677
947.4682, 152.2391
947.9503, 152.4526
948.4324, 152.2445
948.9146, 151.9062
949.3967, 151.0711
949.8788, 150.6615
950.3609, 151.7508
950.8430, 153.8280
951.3251, 155.3750
951.8073, 156.5279
952.2894, 156.5115
952.7715, 154.7207
953.2536, 152.4762
953.7357, 152.0147
954.2179, 153.0125
954.7000, 154.3684
955.1821, 156.0219
955.6642, 157.0944
956.1464, 156.5615
956.6285, 155.4249
957.1106, 154.4911
957.5927, 153.7528
958.0748, 153.7001
958.5569, 154.6416
959.0391, 155.4328
959.5212, 155.0784
960.0033, 154.0317
960.4854, 153.7234
960.9675, 154.0225
961.4496, 154.1880
961.9318, 153.3852
962.4139, 152.7987
962.8960, 153.2228
963.3781, 154.3065
963.8602, 155.1083
964.3423, 155.6073
964.8245, 155.8609
965.3066, 155.8202
965.7887, 155.7012
966.2708, 155.9876
966.7529, 156.3832
967.2350, 156.1990
967.7172, 155.0188
968.1993, 154.2065
968.6814, 154.7389
969.1635, 155.4291
969.6456, 155.3219
970.1277, 154.2884
970.6099, 154.4611
971.0920, 155.9727
971.5741, 156.8907
972.0562, 155.2252
972.5383, 152.6233
973.0204, 150.8909
973.5026, 150.0364
973.9847, 149.8487
974.4668, 150.9328
974.9489, 151.8457
975.4310, 152.3079
975.9131, 152.4175
976.3953, 152.2963
976.8774, 151.9636
977.3595, 151.6743
977.8416, 151.4449
978.3237, 151.4572
978.8058, 152.2965
979.2880, 153.2396
979.7701, 153.4079
980.2522, 152.2895
980.7343, 151.6717
981.2164, 151.7041
981.6985, 152.0600
982.1807, 152.7112
982.6628, 153.5168
983.1449, 153.7984
983.6270, 153.6135
984.1091, 153.3285
984.5912, 152.4993
985.0734, 152.2920
985.5555, 154.3437
986.0376, 157.3810
986.5197, 157.9986
987.0018, 155.3777
987.4839, 152.9955
987.9661, 151.3531
988.4482, 150.1922
988.9303, 148.7442
989.4124, 147.6538
989.8945, 148.6551
990.3766, 152.5010
990.8588, 155.3343
991.3409, 154.4711
991.8230, 153.1286
992.3051, 153.3301
992.7872, 154.9827
993.2693, 155.6224
993.7515, 155.2295
994.2336, 154.3582
994.7157, 152.7017
995.1978, 151.2700
995.6799, 151.6789
996.1620, 153.1775
996.6442, 154.0134
997.1263, 152.8630
997.6084, 152.1694
998.0905, 152.1532
998.5726, 152.6868
999.0547, 154.1866
999.5369, 156.2867
1000.019, 156.3624
1000.501, 154.0209
1000.983, 151.4228
1001.465, 149.6098
1001.947, 148.5622
1002.430, 148.5783
1002.912, 149.6640
1003.394, 150.1385
1003.876, 149.8131
1004.358, 149.5329
1004.840, 149.7591
1005.322, 150.0632
1005.804, 149.0772
1006.287, 147.5184
1006.769, 147.1796
1007.251, 149.7133
1007.733, 152.0323
1008.215, 153.4370
1008.697, 154.0248
1009.179, 153.5056
1009.661, 151.6696
1010.143, 151.7014
1010.626, 153.8781
1011.108, 155.3022
1011.590, 152.3481
1012.072, 148.4411
1012.554, 147.2986
1013.036, 148.7091
1013.518, 149.4001
1014.000, 147.8717
1014.483, 147.3654
1014.965, 149.0209
1015.447, 151.6439
1015.929, 153.1870
1016.411, 153.6422
1016.893, 152.6434
1017.375, 149.4789
1017.857, 147.0701
1018.339, 147.5644
1018.822, 149.3836
1019.304, 151.3603
1019.786, 153.5901
1020.268, 154.7392
1020.750, 154.7284
1021.232, 154.1309
1021.714, 152.7946
1022.196, 151.3944
1022.679, 151.1968
1023.161, 151.8340
1023.643, 152.2580
1024.125, 151.7168
1024.607, 151.5140
1025.089, 152.2398
1025.571, 152.9788
1026.053, 151.9967
1026.535, 149.6416
1027.018, 148.7162
1027.500, 149.6117
1027.982, 150.8231
1028.464, 151.5021
1028.946, 151.7928
1029.428, 151.9060
1029.910, 151.8147
1030.392, 150.6957
1030.875, 148.1357
1031.357, 145.9334
1031.839, 144.4680
1032.321, 144.0694
1032.803, 146.4364
1033.285, 150.1477
1033.767, 152.0248
1034.249, 149.7893
1034.731, 148.2736
1035.214, 149.1232
1035.696, 150.6327
1036.178, 151.7703
1036.660, 152.5262
1037.142, 152.3875
1037.624, 151.3936
1038.106, 150.5108
1038.588, 150.7388
1039.071, 151.0092
1039.553, 150.4708
1040.035, 149.2926
1040.517, 148.0294
1040.999, 146.2166
1041.481, 145.7477
1041.963, 147.1299
1042.445, 149.2677
1042.927, 151.4942
1043.410, 153.1961
1043.892, 152.5820
1044.374, 149.0885
1044.856, 147.0113
1045.338, 149.5575
1045.820, 152.1819
1046.302, 152.8071
1046.784, 151.8679
1047.266, 151.7262
1047.749, 152.2840
1048.231, 152.3799
1048.713, 151.2793
1049.195, 150.0437
1049.677, 149.3875
1050.159, 149.1545
1050.641, 149.1780
1051.123, 149.6062
1051.606, 149.7670
1052.088, 149.5958
1052.570, 149.4031
1053.052, 149.7242
1053.534, 150.0575
1054.016, 149.0497
1054.498, 147.0602
1054.980, 145.8451
1055.463, 146.9816
1055.945, 147.8312
1056.427, 147.6277
1056.909, 146.9663
1057.391, 146.6614
1057.873, 146.7399
1058.355, 147.6209
1058.837, 149.4523
1059.319, 151.1379
1059.802, 151.7187
1060.284, 151.8784
1060.766, 151.9472
1061.248, 151.9870
1061.730, 152.8139
1062.212, 154.8157
1062.694, 155.4210
1063.176, 152.9850
1063.658, 149.8978
1064.141, 149.8726
1064.623, 151.5560
1065.105, 152.7042
1065.587, 152.7721
1066.069, 151.9876
1066.551, 149.4389
1067.033, 147.5804
1067.515, 148.7462
1067.998, 152.1865
1068.480, 154.1476
1068.962, 154.6904
1069.444, 154.0846
1069.926, 150.9845
1070.408, 148.4140
1070.890, 148.5911
1071.372, 149.8651
1071.854, 149.4770
1072.337, 147.1012
1072.819, 146.6949
1073.301, 148.8645
1073.783, 151.0101
1074.265, 150.5651
1074.747, 148.9712
1075.229, 147.2483
1075.711, 145.5863
1076.193, 145.0743
1076.676, 146.2545
1077.158, 147.3615
1077.640, 148.0538
1078.122, 148.2033
1078.604, 146.8721
1079.086, 144.9863
1079.568, 144.7653
1080.051, 147.2405
1080.533, 149.0351
1081.015, 148.1128
1081.497, 147.1335
1081.979, 147.7199
1082.461, 149.4153
1082.943, 148.8079
1083.425, 146.2513
1083.907, 144.4248
1084.390, 144.7836
1084.872, 145.9673
1085.354, 147.8191
1085.836, 149.6230
1086.318, 150.4595
1086.800, 150.0428
1087.282, 149.8828
1087.764, 150.0745
1088.246, 149.9367
1088.729, 148.1474
1089.211, 146.3006
1089.693, 146.5114
1090.175, 148.3401
1090.657, 149.9050
1091.139, 150.9319
1091.621, 151.6127
1092.103, 152.0822
1092.586, 151.9763
1093.068, 150.1181
1093.550, 147.4719
1094.032, 146.3991
1094.514, 147.1812
1094.996, 148.1039
1095.478, 149.1614
1095.960, 149.2374
1096.443, 147.2936
1096.925, 144.4592
1097.407, 144.5527
1097.889, 147.0978
1098.371, 148.4462
1098.853, 147.2601
1099.335, 146.0348
1099.817, 146.8868
1100.299, 148.2317
1100.781, 148.7126
1101.264, 148.3043
1101.746, 147.2856
1102.228, 145.5809
1102.710, 144.2032
1103.192, 143.6478
1103.674, 143.6909
1104.156, 144.1734
1104.638, 145.0548
1105.121, 146.3341
1105.603, 148.7208
1106.085, 150.0331
1106.567, 150.1988
1107.049, 149.4993
1107.531, 147.3137
1108.013, 144.8013
1108.495, 144.5126
1108.978, 146.0152
1109.460, 147.4015
1109.942, 147.7433
1110.424, 148.2962
1110.906, 149.6918
1111.388, 150.8515
1111.870, 149.8163
1112.352, 147.2576
1112.834, 146.3732
1113.317, 147.3681
1113.799, 147.9301
1114.281, 145.6091
1114.763, 143.7131
1115.245, 144.0073
1115.727, 145.8300
1116.209, 148.0171
1116.691, 150.5360
1117.173, 151.4666
1117.656, 150.1558
1118.138, 148.6051
1118.620, 148.8900
1119.102, 149.4153
1119.584, 148.3820
1120.066, 145.8313
1120.548, 145.1003
1121.030, 146.4534
1121.513, 147.8195
1121.995, 148.5345
1122.477, 148.7181
1122.959, 148.2279
1123.441, 147.4416
1123.923, 146.8635
1124.405, 146.5714
1124.887, 146.6740
1125.370, 147.3748
1125.852, 147.8934
1126.334, 147.6180
1126.816, 146.9630
1127.298, 146.8768
1127.780, 147.1128
1128.262, 147.0805
1128.744, 146.3203
1129.226, 145.6011
1129.709, 144.7401
1130.191, 144.3355
1130.673, 145.5939
1131.155, 147.7205
1131.637, 146.8204
1132.119, 143.4882
1132.601, 141.5495
1133.083, 144.4027
1133.566, 147.1917
1134.048, 148.1629
1134.530, 148.3262
1135.012, 149.0811
1135.494, 150.3227
1135.976, 150.9075
1136.458, 150.7425
1136.940, 150.3837
1137.422, 150.1013
1137.905, 149.8586
1138.387, 150.0826
1138.869, 150.2305
1139.351, 148.3250
1139.833, 144.1806
1140.315, 142.5492
1140.797, 144.5822
1141.279, 147.0395
1141.761, 147.0315
1142.244, 146.1670
1142.726, 145.7636
1143.208, 145.8860
1143.690, 145.9565
1144.172, 145.9532
1144.654, 146.0189
1145.136, 146.2002
1145.618, 146.4462
1146.101, 147.0478
1146.583, 147.4801
1147.065, 146.7619
1147.547, 144.2449
1148.029, 143.8666
1148.511, 146.4205
1148.993, 148.6816
1149.475, 149.3245
1149.958, 148.7774
1150.440, 147.0000
1150.922, 144.7618
1151.404, 143.5278
1151.886, 144.3080
1152.368, 144.4345
1152.850, 143.2682
1153.332, 142.4717
1153.814, 143.5353
1154.297, 145.4668
1154.779, 145.4377
1155.261, 144.1456
1155.743, 143.5362
1156.225, 144.4251
1156.707, 146.0743
1157.189, 149.1353
1157.671, 151.6717
1158.153, 152.0142
1158.636, 150.4465
1159.118, 147.2135
1159.600, 142.8982
1160.082, 140.1901
1160.564, 141.4595
1161.046, 143.2240
1161.528, 145.1904
1162.010, 146.4898
1162.493, 145.2486
1162.975, 142.1469
1163.457, 142.4463
1163.939, 146.0993
1164.421, 149.0007
1164.903, 148.0880
1165.385, 146.6151
1165.867, 146.0962
1166.349, 145.8725
1166.832, 144.3233
1167.314, 141.6868
1167.796, 141.7747
1168.278, 145.0340
1168.760, 148.1459
1169.242, 149.1962
1169.724, 148.9692
1170.206, 147.2424
1170.688, 144.7857
1171.171, 143.3688
1171.653, 142.9745
1172.135, 143.0090
1172.617, 143.4105
1173.099, 143.8450
1173.581, 143.9790
1174.063, 144.0843
1174.545, 144.4185
1175.028, 144.9201
1175.510, 145.4998
1175.992, 146.2141
1176.474, 145.3190
1176.956, 141.7495
1177.438, 139.0416
1177.920, 141.9238
1178.402, 146.1612
1178.885, 147.6219
1179.367, 146.2526
1179.849, 145.5850
1180.331, 145.6964
1180.813, 145.5878
1181.295, 144.7968
1181.777, 143.9650
1182.259, 142.2798
1182.741, 141.8270
1183.224, 145.4940
1183.706, 153.7964
1184.188, 163.3795
1184.670, 175.4787
1185.152, 179.8612
1185.634, 168.6090
1186.116, 153.4686
1186.598, 146.6269
1187.081, 144.8563
1187.563, 144.3503
1188.045, 144.9859
1188.527, 144.9299
1189.009, 144.0296
1189.491, 143.3365
1189.973, 143.3902
1190.455, 143.9919
1190.938, 145.5483
1191.420, 147.2459
1191.902, 147.6549
1192.384, 145.9307
1192.866, 144.7859
1193.348, 144.2970
1193.830, 144.0173
1194.312, 143.6917
1194.794, 143.3729
1195.276, 142.9311
1195.759, 142.5910
1196.241, 142.8866
1196.723, 144.5474
1197.205, 145.1621
1197.687, 144.4638
1198.169, 143.7757
1198.651, 144.7527
1199.133, 145.8858
1199.616, 144.0654
1200.098, 140.8771
1200.580, 140.6069
1201.062, 146.1003
1201.544, 149.0306
1202.026, 148.6521
1202.508, 147.2806
1202.990, 146.5616
1203.473, 146.2971
1203.955, 146.5609
1204.437, 147.0610
1204.919, 146.7990
1205.401, 144.9945
1205.883, 144.1799
1206.365, 144.7940
1206.847, 145.3799
1207.329, 144.2160
1207.812, 142.4318
1208.294, 141.0725
1208.776, 140.3367
1209.258, 140.9624
1209.740, 143.7895
1210.222, 145.8480
1210.704, 146.8719
1211.186, 146.9168
1211.668, 145.1346
1212.151, 143.0512
1212.633, 142.6709
1213.115, 143.8550
1213.597, 145.3809
1214.079, 147.6541
1214.561, 148.3767
1215.043, 146.8751
1215.525, 145.2999
1216.008, 146.5837
1216.490, 148.6707
1216.972, 149.2113
1217.454, 148.1400
1217.936, 146.1789
1218.418, 142.7134
1218.900, 140.9216
1219.382, 141.5092
1219.865, 143.0272
1220.347, 144.6690
1220.829, 145.7882
1221.311, 145.2119
1221.793, 143.1539
1222.275, 142.1325
1222.757, 142.5286
1223.239, 142.6836
1223.721, 142.1771
1224.203, 141.8436
1224.686, 143.6460
1225.168, 145.3284
1225.650, 143.3862
1226.132, 138.3178
1226.614, 137.8791
1227.096, 143.2436
1227.578, 147.1199
1228.061, 147.8745
1228.543, 147.1486
1229.025, 145.9992
1229.507, 144.7306
1229.989, 143.2729
1230.471, 141.8560
1230.953, 142.1479
1231.435, 144.3168
1231.917, 147.0572
1232.400, 150.4640
1232.882, 152.3926
1233.364, 149.2561
1233.846, 144.9615
1234.328, 143.0489
1234.810, 143.2942
1235.292, 143.4042
1235.774, 143.3646
1236.256, 143.5551
1236.739, 144.1098
1237.221, 144.6875
1237.703, 144.7238
1238.185, 144.9072
1238.667, 145.9609
1239.149, 147.6605
1239.631, 149.5195
1240.113, 151.4390
1240.596, 150.8911
1241.078, 146.7407
1241.560, 143.0490
1242.042, 143.1783
1242.524, 144.6062
1243.006, 145.9326
1243.488, 147.0193
1243.970, 147.3611
1244.453, 147.0363
1244.935, 146.5890
1245.417, 146.0741
1245.899, 145.8848
1246.381, 146.6239
1246.863, 147.3867
1247.345, 147.7295
1247.827, 147.6889
1248.309, 146.9232
1248.792, 145.7980
1249.274, 146.1681
1249.756, 148.7582
1250.238, 150.9694
1250.720, 151.8380
1251.202, 151.5781
1251.684, 149.9561
1252.166, 147.6156
1252.648, 145.8459
1253.131, 144.7662
1253.613, 144.8415
1254.095, 146.3152
1254.577, 147.9591
1255.059, 150.0448
1255.541, 151.1874
1256.023, 150.5859
1256.505, 149.1373
1256.988, 148.5469
1257.470, 148.5816
1257.952, 148.8911
1258.434, 149.5006
1258.916, 149.5686
1259.398, 148.8285
1259.880, 147.8560
1260.362, 146.5808
1260.844, 145.6933
1261.327, 147.0955
1261.809, 149.2873
1262.291, 149.7149
1262.773, 147.7664
1263.255, 146.9942
1263.737, 147.9093
1264.219, 148.7786
1264.701, 148.9856
1265.183, 149.1030
1265.666, 150.4581
1266.148, 151.7607
1266.630, 151.1064
1267.112, 148.2671
1267.594, 146.7945
1268.076, 146.8355
1268.558, 147.0470
1269.040, 147.0563
1269.523, 147.0706
1270.005, 147.4313
1270.487, 147.7871
1270.969, 147.7344
1271.451, 147.3561
1271.933, 147.0583
1272.415, 146.8470
1272.897, 147.0043
1273.380, 147.7052
1273.862, 148.1522
1274.344, 147.8420
1274.826, 146.9278
1275.308, 144.9334
1275.790, 142.6812
1276.272, 143.6075
1276.754, 146.9314
1277.236, 148.0614
1277.719, 145.7472
1278.201, 144.0888
1278.683, 146.2798
1279.165, 148.3693
1279.647, 148.8370
1280.129, 148.1845
1280.611, 146.9720
1281.093, 145.6253
1281.576, 145.4183
1282.058, 146.5931
1282.540, 147.8379
1283.022, 149.0764
1283.504, 149.8033
1283.986, 149.8609
1284.468, 149.3922
1284.950, 147.9767
1285.432, 146.4993
1285.915, 147.0569
1286.397, 149.7385
1286.879, 149.8315
1287.361, 145.7563
1287.843, 143.5143
1288.325, 144.7930
1288.807, 146.8923
1289.289, 146.8990
1289.771, 145.9320
1290.254, 144.6465
1290.736, 143.4300
1291.218, 144.0685
1291.700, 146.8657
1292.182, 148.4830
1292.664, 148.2845
1293.146, 147.6639
1293.628, 147.5062
1294.111, 147.6283
1294.593, 147.9736
1295.075, 148.4771
1295.557, 149.2665
1296.039, 150.2420
1296.521, 150.1023
1297.003, 148.7178
1297.485, 147.4387
1297.968, 146.7636
1298.450, 146.8290
1298.932, 148.1028
1299.414, 149.4747
1299.896, 148.7254
1300.378, 146.7551
1300.860, 146.5502
1301.342, 148.1134
1301.824, 149.2889
##END=



