##NAMES=Orpiment
##RRUFFID=R060116
##IDEAL CHEMISTRY=As^3+^_2_S^2-^_3_
##LOCALITY=Quiruvilca, Peru
##OWNER=RRUFF
##SOURCE=University of Arizona Mineral Museum
##DESCRIPTION=Brownish-yellow prismatic crystals
##STATUS=The identification of this mineral has been confirmed by X-ray diffraction and chemical analysis
##URL=rruff.info/R060116
##MEASURED CHEMISTRY=As_1.83_S_3.00_
89.78156, 0.0000000E+00
90.26367, 66.73442
90.74579, 68.58323
91.22791, 67.55647
91.71002, 64.01820
92.19214, 61.19372
92.67426, 62.81575
93.15638, 67.35194
93.63850, 70.68011
94.12061, 70.84647
94.60273, 69.07989
95.08485, 68.40473
95.56696, 68.98875
96.04908, 69.57321
96.53120, 67.93840
97.01331, 64.27414
97.49543, 61.85581
97.97755, 62.87777
98.45966, 67.09153
98.94178, 69.98177
99.42390, 71.37956
99.90602, 71.64301
100.3881, 71.45973
100.8703, 70.85683
101.3524, 69.67958
101.8345, 67.03971
102.3166, 61.82729
102.7987, 60.42857
103.2808, 65.02334
103.7630, 73.71290
104.2451, 77.64561
104.7272, 74.48612
105.2093, 69.70250
105.6914, 66.70501
106.1735, 65.72301
106.6557, 66.26799
107.1378, 69.25884
107.6199, 74.86649
108.1020, 77.78754
108.5841, 75.15332
109.0662, 71.35466
109.5484, 70.29446
110.0305, 73.33517
110.5126, 77.74064
110.9947, 83.15571
111.4768, 89.68335
111.9590, 96.92000
112.4411, 105.2020
112.9232, 114.1459
113.4053, 123.0120
113.8874, 126.6006
114.3695, 134.2520
114.8517, 150.0018
115.3338, 176.3622
115.8159, 205.5029
116.2980, 234.2607
116.7801, 264.4326
117.2622, 299.5655
117.7444, 343.9447
118.2265, 392.2688
118.7086, 440.5192
119.1907, 486.1776
119.6728, 535.0771
120.1549, 591.3126
120.6371, 653.9252
121.1192, 719.3099
121.6013, 784.4587
122.0834, 850.9755
122.5655, 920.4769
123.0476, 995.2509
123.5298, 1071.630
124.0119, 1146.790
124.4940, 1220.736
124.9761, 1293.871
125.4582, 1364.032
125.9404, 1433.126
126.4225, 1504.313
126.9046, 1579.426
127.3867, 1657.198
127.8688, 1732.884
128.3509, 1805.555
128.8331, 1885.201
129.3152, 1977.669
129.7973, 2084.987
130.2794, 2214.290
130.7615, 2361.113
131.2436, 2531.323
131.7258, 2742.499
132.2079, 2994.891
132.6900, 3289.468
133.1721, 3648.709
133.6542, 4072.005
134.1364, 4486.976
134.6185, 4901.036
135.1006, 5309.395
135.5827, 5549.569
136.0648, 5598.585
136.5469, 5489.849
137.0291, 5273.473
137.5112, 4928.139
137.9933, 4569.009
138.4754, 4256.446
138.9575, 3992.932
139.4396, 3778.625
139.9218, 3620.735
140.4039, 3512.921
140.8860, 3429.200
141.3681, 3370.437
141.8502, 3335.554
142.3323, 3325.635
142.8145, 3343.264
143.2966, 3378.625
143.7787, 3431.163
144.2608, 3501.282
144.7429, 3581.637
145.2250, 3666.344
145.7072, 3767.668
146.1893, 3897.738
146.6714, 4061.263
147.1535, 4245.938
147.6356, 4446.771
148.1178, 4660.788
148.5999, 4904.204
149.0820, 5159.402
149.5641, 5450.825
150.0462, 5804.478
150.5283, 6191.630
151.0105, 6664.895
151.4926, 7202.076
151.9747, 7923.396
152.4568, 8521.651
152.9389, 9102.401
153.4210, 9533.756
153.9032, 9633.299
154.3853, 9164.961
154.8674, 8564.708
155.3495, 7987.693
155.8316, 7521.172
156.3137, 6889.827
156.7959, 5884.358
157.2780, 4698.425
157.7601, 3701.583
158.2422, 2980.976
158.7243, 2445.938
159.2065, 2051.799
159.6886, 1833.029
160.1707, 1675.546
160.6528, 1565.056
161.1349, 1492.332
161.6170, 1433.673
162.0992, 1383.984
162.5813, 1343.085
163.0634, 1311.151
163.5455, 1290.986
164.0276, 1275.709
164.5097, 1264.270
164.9919, 1255.782
165.4740, 1246.830
165.9561, 1234.586
166.4382, 1221.681
166.9203, 1210.415
167.4024, 1202.915
167.8846, 1195.721
168.3667, 1185.464
168.8488, 1172.826
169.3309, 1162.285
169.8130, 1157.939
170.2952, 1156.800
170.7773, 1155.170
171.2594, 1149.597
171.7415, 1144.666
172.2236, 1144.060
172.7057, 1147.651
173.1879, 1154.006
173.6700, 1162.621
174.1521, 1173.203
174.6342, 1185.267
175.1163, 1196.686
175.5984, 1210.519
176.0806, 1231.442
176.5627, 1259.549
177.0448, 1289.158
177.5269, 1318.482
178.0090, 1345.626
178.4911, 1366.863
178.9733, 1374.937
179.4554, 1377.632
179.9375, 1384.370
180.4196, 1394.476
180.9017, 1415.581
181.3838, 1455.573
181.8660, 1512.957
182.3481, 1584.359
182.8302, 1675.062
183.3123, 1777.618
183.7944, 1878.917
184.2766, 1981.757
184.7587, 2072.057
185.2408, 2131.676
185.7229, 2162.909
186.2050, 2182.559
186.6871, 2190.028
187.1693, 2190.875
187.6514, 2204.691
188.1335, 2232.790
188.6156, 2272.214
189.0977, 2320.401
189.5798, 2377.069
190.0620, 2440.493
190.5441, 2510.157
191.0262, 2586.335
191.5083, 2668.979
191.9904, 2758.483
192.4725, 2856.515
192.9547, 2965.458
193.4368, 3086.208
193.9189, 3218.757
194.4010, 3358.928
194.8831, 3507.814
195.3652, 3682.415
195.8474, 3882.471
196.3295, 4110.681
196.8116, 4370.564
197.2937, 4660.121
197.7758, 4987.530
198.2579, 5353.462
198.7401, 5757.722
199.2222, 6218.360
199.7043, 6757.363
200.1864, 7321.521
200.6685, 7864.930
201.1507, 8439.053
201.6328, 8733.745
202.1149, 8504.596
202.5970, 7709.216
203.0791, 6801.496
203.5612, 5762.650
204.0434, 4685.290
204.5255, 3836.147
205.0076, 3237.365
205.4897, 2788.084
205.9718, 2445.406
206.4539, 2220.253
206.9361, 2036.878
207.4182, 1893.637
207.9003, 1785.800
208.3824, 1696.250
208.8645, 1627.175
209.3466, 1570.080
209.8288, 1520.091
210.3109, 1477.796
210.7930, 1439.870
211.2751, 1405.668
211.7572, 1375.799
212.2393, 1352.052
212.7215, 1336.418
213.2036, 1323.002
213.6857, 1307.611
214.1678, 1288.465
214.6499, 1273.215
215.1320, 1262.652
215.6142, 1256.323
216.0963, 1253.158
216.5784, 1254.935
217.0605, 1256.504
217.5426, 1253.700
218.0247, 1243.731
218.5069, 1237.943
218.9890, 1238.691
219.4711, 1244.468
219.9532, 1248.081
220.4353, 1248.849
220.9175, 1248.653
221.3996, 1248.805
221.8817, 1249.949
222.3638, 1249.618
222.8459, 1246.711
223.3280, 1242.040
223.8102, 1240.003
224.2923, 1241.420
224.7744, 1244.115
225.2565, 1247.174
225.7386, 1251.930
226.2207, 1253.594
226.7029, 1250.506
227.1850, 1243.777
227.6671, 1239.270
228.1492, 1237.316
228.6313, 1237.095
229.1134, 1238.425
229.5956, 1242.565
230.0777, 1245.445
230.5598, 1246.519
231.0419, 1246.088
231.5240, 1245.428
232.0062, 1243.679
232.4883, 1242.897
232.9704, 1245.134
233.4525, 1254.394
233.9346, 1257.384
234.4167, 1249.149
234.8989, 1233.379
235.3810, 1228.269
235.8631, 1240.641
236.3452, 1254.619
236.8273, 1260.681
237.3094, 1253.668
237.7916, 1249.949
238.2737, 1251.464
238.7558, 1256.983
239.2379, 1261.864
239.7200, 1268.140
240.2021, 1271.009
240.6843, 1266.780
241.1664, 1249.236
241.6485, 1238.396
242.1306, 1237.135
242.6127, 1243.202
243.0948, 1248.078
243.5770, 1250.717
244.0591, 1253.686
244.5412, 1258.374
245.0233, 1265.744
245.5054, 1272.969
245.9876, 1280.925
246.4697, 1288.552
246.9518, 1291.873
247.4339, 1286.549
247.9160, 1283.406
248.3981, 1288.138
248.8803, 1304.461
249.3624, 1319.895
249.8445, 1334.507
250.3266, 1347.989
250.8087, 1359.208
251.2908, 1366.417
251.7730, 1373.971
252.2551, 1383.420
252.7372, 1394.274
253.2193, 1408.801
253.7014, 1428.973
254.1835, 1451.815
254.6657, 1470.109
255.1478, 1482.013
255.6299, 1492.636
256.1120, 1503.726
256.5941, 1514.441
257.0763, 1528.260
257.5584, 1546.026
258.0405, 1566.545
258.5226, 1587.602
259.0047, 1610.585
259.4868, 1631.597
259.9690, 1648.003
260.4511, 1657.834
260.9332, 1671.807
261.4153, 1689.685
261.8974, 1712.076
262.3795, 1741.052
262.8617, 1780.776
263.3438, 1817.514
263.8259, 1845.105
264.3080, 1861.033
264.7901, 1884.622
265.2722, 1915.898
265.7544, 1954.694
266.2365, 1999.772
266.7186, 2049.889
267.2007, 2109.581
267.6828, 2180.643
268.1649, 2264.509
268.6471, 2348.854
269.1292, 2429.240
269.6113, 2519.364
270.0934, 2633.888
270.5755, 2772.729
271.0576, 2940.632
271.5398, 3138.083
272.0219, 3366.744
272.5040, 3625.819
272.9861, 3913.859
273.4682, 4227.849
273.9503, 4575.114
274.4325, 4960.810
274.9146, 5342.461
275.3967, 5713.013
275.8788, 6073.726
276.3610, 6405.804
276.8431, 6701.169
277.3252, 6982.714
277.8073, 7265.555
278.2894, 7548.737
278.7715, 7842.427
279.2537, 8149.132
279.7358, 8470.023
280.2179, 8812.723
280.7000, 9177.534
281.1821, 9569.039
281.6642, 9996.122
282.1464, 10458.90
282.6285, 10947.88
283.1106, 11461.04
283.5927, 11999.95
284.0748, 12566.26
284.5569, 13161.64
285.0391, 13790.01
285.5212, 14455.03
286.0033, 15157.82
286.4854, 15915.92
286.9675, 16735.79
287.4496, 17604.62
287.9318, 18508.71
288.4139, 19456.12
288.8960, 20398.40
289.3781, 21349.16
289.8602, 22294.42
290.3423, 23210.50
290.8245, 24151.55
291.3066, 24921.61
291.7887, 25299.16
292.2708, 25274.21
292.7529, 24697.13
293.2350, 23260.72
293.7172, 21190.23
294.1993, 19149.95
294.6814, 17127.19
295.1635, 15293.02
295.6456, 13880.27
296.1277, 12855.13
296.6099, 12103.33
297.0920, 11646.83
297.5741, 11422.54
298.0562, 11337.42
298.5383, 11393.51
299.0204, 11553.04
299.5026, 11788.07
299.9847, 12097.31
300.4668, 12487.11
300.9489, 12951.84
301.4311, 13496.30
301.9132, 14106.27
302.3953, 14788.03
302.8774, 15565.06
303.3595, 16440.82
303.8416, 17430.73
304.3238, 18587.48
304.8059, 19899.63
305.2880, 21384.80
305.7701, 23052.45
306.2522, 24907.40
306.7343, 26877.89
307.2165, 28968.91
307.6986, 31153.59
308.1807, 33465.20
308.6628, 36210.03
309.1449, 38644.21
309.6270, 40770.13
310.1092, 42287.01
310.5913, 42151.66
311.0734, 39091.20
311.5555, 34509.66
312.0376, 29423.45
312.5197, 23620.56
313.0019, 18384.97
313.4840, 14310.83
313.9661, 11254.66
314.4482, 8875.561
314.9303, 7307.541
315.4124, 6166.609
315.8946, 5280.836
316.3767, 4651.011
316.8588, 4152.758
317.3409, 3770.662
317.8230, 3474.687
318.3051, 3226.277
318.7873, 3025.227
319.2694, 2855.741
319.7515, 2714.021
320.2336, 2600.322
320.7157, 2504.253
321.1978, 2429.590
321.6800, 2369.071
322.1621, 2316.509
322.6442, 2268.926
323.1263, 2230.942
323.6084, 2206.391
324.0905, 2194.524
324.5727, 2183.887
325.0548, 2166.717
325.5369, 2154.347
326.0190, 2153.699
326.5012, 2173.185
326.9833, 2195.318
327.4654, 2218.982
327.9475, 2244.353
328.4296, 2271.608
328.9117, 2290.684
329.3939, 2320.525
329.8760, 2369.061
330.3581, 2440.767
330.8402, 2522.745
331.3223, 2608.329
331.8044, 2706.290
332.2866, 2834.004
332.7687, 2986.333
333.2508, 3173.864
333.7329, 3401.177
334.2150, 3670.686
334.6971, 3972.315
335.1793, 4305.638
335.6614, 4675.013
336.1435, 5083.216
336.6256, 5538.886
337.1077, 6021.101
337.5898, 6520.830
338.0720, 7043.212
338.5541, 7557.501
339.0362, 8062.378
339.5183, 8572.045
340.0004, 9081.682
340.4825, 9587.949
340.9647, 10154.03
341.4468, 10796.77
341.9289, 11501.09
342.4110, 12237.07
342.8931, 12999.34
343.3752, 13788.42
343.8574, 14576.85
344.3395, 15375.90
344.8216, 16249.64
345.3037, 17197.59
345.7858, 18236.40
346.2679, 19384.03
346.7501, 20650.35
347.2322, 22031.12
347.7143, 23521.38
348.1964, 25132.88
348.6785, 26917.77
349.1607, 28905.04
349.6428, 31043.68
350.1249, 33430.35
350.6070, 35964.79
351.0891, 38386.13
351.5713, 40698.14
352.0534, 42749.32
352.5355, 44334.43
353.0176, 45436.55
353.4997, 46187.70
353.9818, 46904.53
354.4640, 47288.55
354.9461, 46837.47
355.4282, 45115.90
355.9103, 42886.16
356.3924, 40537.27
356.8745, 38156.30
357.3567, 36140.75
357.8388, 35133.46
358.3209, 34338.38
358.8030, 33080.88
359.2851, 31242.28
359.7672, 28937.46
360.2494, 25911.68
360.7315, 22473.56
361.2136, 19242.18
361.6957, 16284.61
362.1778, 13688.36
362.6599, 11516.38
363.1421, 9787.637
363.6242, 8364.936
364.1063, 7294.397
364.5884, 6470.718
365.0705, 5795.095
365.5526, 5303.623
366.0348, 4899.844
366.5169, 4576.802
366.9990, 4331.728
367.4811, 4128.801
367.9632, 3979.293
368.4453, 3860.695
368.9275, 3761.388
369.4096, 3681.474
369.8917, 3620.163
370.3738, 3577.815
370.8559, 3554.005
371.3380, 3547.869
371.8202, 3559.704
372.3023, 3588.758
372.7844, 3635.515
373.2665, 3701.393
373.7487, 3777.592
374.2308, 3863.318
374.7129, 3960.182
375.1950, 4071.287
375.6771, 4196.688
376.1592, 4337.465
376.6414, 4495.741
377.1235, 4670.682
377.6056, 4861.664
378.0877, 5073.589
378.5698, 5290.845
379.0519, 5509.574
379.5341, 5728.164
380.0162, 5932.411
380.4983, 6132.660
380.9804, 6300.047
381.4625, 6377.499
381.9446, 6366.085
382.4268, 6240.024
382.9089, 5952.816
383.3910, 5536.598
383.8731, 5067.559
384.3552, 4542.829
384.8373, 4019.566
385.3195, 3549.404
385.8016, 3134.625
386.2837, 2773.762
386.7658, 2479.399
387.2479, 2237.399
387.7300, 2030.688
388.2122, 1859.943
388.6943, 1717.679
389.1764, 1608.570
389.6585, 1522.307
390.1406, 1448.886
390.6227, 1387.969
391.1049, 1335.435
391.5870, 1290.726
392.0691, 1253.052
392.5512, 1220.033
393.0333, 1192.130
393.5154, 1167.452
393.9976, 1144.944
394.4797, 1124.572
394.9618, 1105.954
395.4439, 1089.873
395.9260, 1075.223
396.4081, 1060.598
396.8903, 1045.624
397.3724, 1030.525
397.8545, 1015.196
398.3366, 999.6289
398.8188, 984.0954
399.3009, 969.0716
399.7830, 953.7757
400.2651, 937.7765
400.7472, 921.6410
401.2293, 903.8423
401.7115, 883.5519
402.1936, 861.5275
402.6757, 840.0539
403.1578, 819.3314
403.6399, 798.7194
404.1220, 778.0978
404.6042, 757.2706
405.0863, 736.6733
405.5684, 716.0069
406.0505, 696.4016
406.5326, 679.2996
407.0147, 664.6476
407.4969, 652.7921
407.9790, 644.7597
408.4611, 639.2943
408.9432, 630.6217
409.4253, 618.4318
409.9074, 606.7766
410.3896, 599.1332
410.8717, 594.7786
411.3538, 590.3842
411.8359, 585.3202
412.3180, 580.5395
412.8001, 577.3374
413.2823, 575.6288
413.7644, 574.8307
414.2465, 575.6885
414.7286, 576.8354
415.2107, 576.3835
415.6928, 574.2245
416.1750, 571.3291
416.6571, 567.4073
417.1392, 563.5071
417.6213, 560.9337
418.1034, 560.7900
418.5855, 561.4197
419.0677, 562.6461
419.5498, 564.0806
420.0319, 564.2121
420.5140, 560.6565
420.9961, 556.8721
421.4782, 555.2274
421.9604, 557.1518
422.4425, 558.2346
422.9246, 557.1996
423.4067, 554.8742
423.8889, 552.3716
424.3710, 548.8522
424.8531, 546.2076
425.3352, 545.7360
425.8173, 547.4684
426.2994, 546.5142
426.7816, 541.2144
427.2637, 534.9111
427.7458, 529.5961
428.2279, 524.9490
428.7100, 522.2359
429.1921, 522.7693
429.6743, 524.5138
430.1564, 522.2386
430.6385, 514.9410
431.1206, 507.4899
431.6027, 501.7664
432.0848, 497.6833
432.5670, 494.6441
433.0491, 492.9126
433.5312, 491.1041
434.0133, 487.6102
434.4954, 482.6163
434.9775, 477.2781
435.4597, 471.6733
435.9418, 466.1449
436.4239, 460.9908
436.9060, 456.3862
437.3881, 453.1555
437.8702, 452.8375
438.3524, 453.8629
438.8345, 453.8392
439.3166, 452.3569
439.7987, 450.8798
440.2808, 450.9513
440.7629, 451.7134
441.2451, 451.8315
441.7272, 450.5007
442.2093, 448.6445
442.6914, 446.2651
443.1735, 443.5595
443.6556, 441.7570
444.1378, 443.0919
444.6199, 444.2618
445.1020, 442.8796
445.5841, 436.3118
446.0662, 431.6998
446.5483, 431.3017
447.0305, 433.1649
447.5126, 434.0635
447.9947, 433.6721
448.4768, 432.6220
448.9590, 430.9736
449.4411, 428.7251
449.9232, 426.2002
450.4053, 423.7449
450.8874, 420.4643
451.3695, 415.2369
451.8517, 407.1597
452.3338, 400.9787
452.8159, 397.2861
453.2980, 395.5672
453.7801, 395.0628
454.2622, 395.8380
454.7444, 396.9424
455.2265, 399.1006
455.7086, 401.3804
456.1907, 398.4810
456.6728, 389.9506
457.1549, 381.6470
457.6371, 379.7284
458.1192, 382.0885
458.6013, 383.5479
459.0834, 382.6334
459.5655, 380.7708
460.0476, 378.5946
460.5298, 376.5658
461.0119, 376.1341
461.4940, 379.8634
461.9761, 384.2285
462.4582, 386.3382
462.9403, 385.8530
463.4225, 384.9290
463.9046, 384.3696
464.3867, 383.9287
464.8688, 383.3877
465.3509, 381.1227
465.8330, 380.5078
466.3152, 383.7809
466.7973, 389.5700
467.2794, 392.9092
467.7615, 392.3465
468.2436, 390.4391
468.7257, 387.5419
469.2079, 383.0469
469.6900, 380.5052
470.1721, 380.2361
470.6542, 381.6001
471.1363, 384.2695
471.6184, 388.7341
472.1006, 392.5918
472.5827, 395.4989
473.0648, 397.4833
473.5469, 398.3176
474.0291, 397.8963
474.5112, 397.5830
474.9933, 398.8671
475.4754, 401.0672
475.9575, 400.7883
476.4396, 397.6576
476.9218, 394.0238
477.4039, 392.2579
477.8860, 391.9220
478.3681, 391.9786
478.8502, 391.7185
479.3323, 392.1812
479.8145, 395.3318
480.2966, 400.3650
480.7787, 404.1913
481.2608, 405.3198
481.7429, 404.6829
482.2250, 402.2317
482.7072, 397.4127
483.1893, 394.0957
483.6714, 394.9394
484.1535, 397.3650
484.6356, 398.7637
485.1177, 399.8000
485.5999, 398.5827
486.0820, 393.2383
486.5641, 385.1365
487.0462, 379.0710
487.5283, 375.1247
488.0104, 373.1508
488.4926, 373.6544
488.9747, 377.2996
489.4568, 379.1124
489.9389, 378.8211
490.4210, 377.1594
490.9031, 374.5366
491.3853, 370.8417
491.8674, 367.7274
492.3495, 365.3680
492.8316, 363.9960
493.3137, 364.7356
493.7958, 367.3840
494.2780, 369.6623
494.7601, 370.0596
495.2422, 369.2088
495.7243, 368.2853
496.2064, 367.3367
496.6885, 366.0797
497.1707, 363.5178
497.6528, 360.7167
498.1349, 359.2515
498.6170, 360.6992
499.0992, 361.8885
499.5813, 360.8355
500.0634, 358.1984
500.5455, 355.5951
501.0276, 354.4874
501.5097, 352.6972
501.9919, 348.5942
502.4740, 341.4573
502.9561, 336.7001
503.4382, 338.1482
503.9203, 339.6134
504.4024, 336.4074
504.8846, 324.3646
505.3667, 316.5078
505.8488, 315.0483
506.3309, 317.3275
506.8130, 317.5827
507.2951, 315.3981
507.7773, 313.0842
508.2594, 311.6300
508.7415, 310.8034
509.2236, 308.7190
509.7057, 305.2133
510.1878, 302.5260
510.6700, 303.4966
511.1521, 306.8058
511.6342, 308.6203
512.1163, 308.3295
512.5984, 306.4615
513.0806, 302.0375
513.5627, 296.4928
514.0448, 292.8288
514.5269, 294.0110
515.0090, 296.1566
515.4911, 297.1004
515.9733, 296.8244
516.4554, 295.5095
516.9375, 291.5681
517.4196, 287.8173
517.9017, 286.0305
518.3839, 287.1647
518.8660, 288.4112
519.3481, 290.2171
519.8302, 291.6403
520.3123, 291.4753
520.7944, 288.1955
521.2766, 286.2368
521.7587, 287.0898
522.2408, 289.6562
522.7229, 289.2093
523.2050, 284.8806
523.6871, 280.7755
524.1693, 279.4245
524.6514, 280.5691
525.1335, 280.3655
525.6156, 278.6343
526.0977, 276.7235
526.5798, 276.3161
527.0620, 276.8463
527.5441, 276.4804
528.0262, 274.3178
528.5083, 272.0782
528.9904, 271.7564
529.4725, 272.8214
529.9547, 274.0002
530.4368, 270.4814
530.9189, 270.1871
531.4010, 282.7076
531.8831, 307.8869
532.3652, 323.7995
532.8474, 316.4188
533.3295, 302.5292
533.8116, 292.5616
534.2937, 289.2237
534.7758, 287.3980
535.2579, 287.5168
535.7401, 288.8047
536.2222, 290.3283
536.7043, 292.7247
537.1864, 293.8117
537.6685, 292.4930
538.1506, 289.5889
538.6328, 289.1591
539.1149, 291.5115
539.5970, 294.4217
540.0791, 297.1033
540.5612, 299.3380
541.0433, 299.0961
541.5255, 295.9839
542.0076, 293.5814
542.4897, 296.3704
542.9718, 302.3250
543.4539, 307.5059
543.9360, 310.9218
544.4182, 312.9861
544.9003, 312.9459
545.3824, 311.7485
545.8645, 311.5042
546.3466, 313.8172
546.8287, 316.5929
547.3109, 319.4608
547.7930, 322.3719
548.2751, 323.3710
548.7572, 319.3514
549.2393, 315.5373
549.7214, 314.9356
550.2036, 319.7317
550.6857, 322.6979
551.1678, 322.9778
551.6499, 322.3145
552.1320, 323.6026
552.6141, 327.4459
553.0963, 329.0840
553.5784, 326.3732
554.0605, 321.6526
554.5426, 321.1991
555.0247, 324.8531
555.5068, 329.7601
555.9890, 334.7857
556.4711, 339.7167
556.9532, 343.9854
557.4353, 347.5731
557.9174, 351.2084
558.3995, 355.3567
558.8817, 359.8368
559.3638, 364.3366
559.8459, 368.2289
560.3281, 373.1917
560.8102, 380.2581
561.2923, 388.6970
561.7744, 397.3235
562.2565, 404.8439
562.7386, 413.7526
563.2208, 424.7496
563.7029, 437.5933
564.1850, 451.6649
564.6671, 467.8776
565.1492, 483.4146
565.6313, 495.9738
566.1135, 504.9107
566.5956, 518.4274
567.0777, 536.9290
567.5598, 558.3019
568.0419, 580.7945
568.5240, 604.3270
569.0062, 629.8706
569.4883, 657.7653
569.9704, 686.7512
570.4525, 713.9506
570.9346, 740.8021
571.4167, 769.6643
571.8989, 802.8866
572.3810, 838.0830
572.8631, 874.5788
573.3452, 911.9286
573.8273, 949.6639
574.3094, 987.4182
574.7916, 1025.280
575.2737, 1063.041
575.7558, 1099.869
576.2379, 1139.001
576.7200, 1182.293
577.2021, 1225.919
577.6843, 1267.082
578.1664, 1305.299
578.6485, 1341.496
579.1306, 1375.881
579.6127, 1408.654
580.0948, 1442.131
580.5770, 1476.193
581.0591, 1506.672
581.5412, 1532.125
582.0233, 1552.454
582.5054, 1566.715
582.9875, 1575.087
583.4697, 1580.251
583.9518, 1586.848
584.4339, 1589.515
584.9160, 1582.130
585.3981, 1563.684
585.8802, 1538.711
586.3624, 1505.765
586.8445, 1469.293
587.3266, 1433.370
587.8087, 1398.872
588.2908, 1364.936
588.7729, 1333.524
589.2551, 1302.050
589.7372, 1265.685
590.2193, 1221.703
590.7014, 1177.858
591.1835, 1135.780
591.6656, 1095.520
592.1478, 1058.548
592.6299, 1025.403
593.1120, 993.8359
593.5941, 962.3287
594.0762, 931.3422
594.5583, 902.7967
595.0405, 877.0471
595.5226, 852.2977
596.0047, 825.9803
596.4868, 800.1639
596.9689, 777.3275
597.4510, 757.9669
597.9332, 741.9029
598.4153, 731.6522
598.8974, 724.0621
599.3795, 714.0613
599.8616, 696.6920
600.3438, 680.7859
600.8259, 669.3193
601.3080, 661.2261
601.7901, 652.5930
602.2722, 643.0547
602.7543, 633.6212
603.2365, 623.8127
603.7186, 613.7731
604.2007, 609.1597
604.6828, 611.2039
605.1649, 612.9180
605.6470, 607.2892
606.1292, 596.1768
606.6113, 586.9034
607.0934, 580.3422
607.5755, 576.0969
608.0576, 575.9899
608.5398, 577.5954
609.0219, 576.5665
609.5040, 568.6913
609.9861, 561.8026
610.4683, 562.0047
610.9504, 566.2590
611.4325, 568.0064
611.9146, 562.4888
612.3967, 557.4274
612.8788, 554.9056
613.3610, 554.8289
613.8431, 556.3201
614.3252, 560.6494
614.8073, 564.3855
615.2894, 565.1671
615.7715, 562.6815
616.2537, 563.5990
616.7358, 568.5239
617.2179, 573.9026
617.7000, 575.5809
618.1821, 574.6185
618.6642, 574.9664
619.1464, 577.6618
619.6285, 580.4337
620.1106, 580.2155
620.5927, 578.6047
621.0748, 578.3568
621.5569, 582.4508
622.0391, 586.1879
622.5212, 586.9232
623.0033, 585.6171
623.4854, 585.2162
623.9675, 585.8224
624.4496, 587.9465
624.9318, 592.3158
625.4139, 598.8708
625.8960, 603.8989
626.3781, 606.7123
626.8602, 609.5036
627.3423, 613.7593
627.8245, 619.4310
628.3066, 624.4298
628.7887, 628.4799
629.2708, 633.2825
629.7529, 640.3189
630.2350, 649.4437
630.7172, 660.9623
631.1993, 675.8582
631.6814, 690.5248
632.1635, 701.0969
632.6456, 709.6360
633.1277, 719.6178
633.6099, 731.8978
634.0920, 746.1179
634.5741, 763.3366
635.0562, 782.6149
635.5383, 801.0294
636.0204, 818.7142
636.5026, 835.1824
636.9847, 849.8021
637.4668, 862.7386
637.9489, 877.9712
638.4310, 896.3942
638.9131, 913.7094
639.3953, 926.5682
639.8774, 935.9303
640.3595, 945.3329
640.8416, 954.8939
641.3237, 965.9401
641.8058, 981.1001
642.2880, 997.8517
642.7701, 1012.282
643.2522, 1023.434
643.7343, 1032.859
644.2164, 1042.202
644.6985, 1050.144
645.1807, 1054.845
645.6628, 1052.075
646.1449, 1050.798
646.6270, 1053.951
647.1091, 1059.028
647.5912, 1058.997
648.0734, 1051.541
648.5555, 1045.706
649.0376, 1045.606
649.5197, 1049.171
650.0018, 1046.198
650.4839, 1036.722
650.9661, 1027.307
651.4482, 1023.181
651.9303, 1021.477
652.4124, 1017.143
652.8945, 1009.982
653.3766, 1001.916
653.8588, 996.6971
654.3409, 989.6595
654.8230, 975.6652
655.3051, 950.5179
655.7872, 928.3385
656.2693, 916.2219
656.7515, 906.1898
657.2336, 890.4540
657.7158, 866.0148
658.1979, 842.2494
658.6800, 819.6907
659.1621, 798.2568
659.6442, 778.1050
660.1263, 759.3218
660.6085, 740.2355
661.0906, 719.7042
661.5727, 699.6049
662.0548, 683.2731
662.5369, 670.0687
663.0190, 657.5472
663.5012, 644.4617
663.9833, 631.5187
664.4654, 618.9550
664.9475, 606.9799
665.4296, 596.1352
665.9117, 585.2432
666.3939, 576.7193
666.8760, 572.3050
667.3581, 572.4557
667.8402, 573.0248
668.3223, 574.0654
668.8044, 575.4617
669.2866, 577.4448
669.7687, 580.0973
670.2508, 581.0792
670.7329, 579.8878
671.2150, 578.6815
671.6971, 579.4569
672.1793, 582.1439
672.6614, 586.9281
673.1435, 594.7809
673.6256, 602.3307
674.1077, 606.7106
674.5898, 609.1408
675.0720, 611.4617
675.5541, 613.4774
676.0362, 616.3695
676.5183, 620.8802
677.0004, 626.4896
677.4825, 631.8044
677.9647, 636.5069
678.4468, 641.5299
678.9289, 647.5920
679.4110, 654.1228
679.8931, 658.1700
680.3752, 659.5651
680.8574, 661.0367
681.3395, 664.0159
681.8216, 668.2137
682.3037, 673.9659
682.7858, 681.0406
683.2679, 686.0128
683.7501, 683.8205
684.2322, 680.4182
684.7143, 681.5797
685.1964, 689.0263
685.6785, 694.3719
686.1606, 694.5042
686.6428, 692.3124
687.1249, 689.8525
687.6070, 686.9708
688.0891, 683.9764
688.5712, 680.1818
689.0533, 677.3997
689.5355, 678.7090
690.0176, 683.9011
690.4997, 687.1723
690.9818, 686.7004
691.4639, 686.2042
691.9460, 691.2293
692.4282, 700.0307
692.9103, 708.7920
693.3924, 716.7527
693.8745, 723.4532
694.3566, 728.4142
694.8387, 731.8445
695.3209, 734.2435
695.8030, 733.6577
696.2851, 734.4519
696.7672, 738.6786
697.2493, 745.2723
697.7314, 747.9812
698.2136, 745.2971
698.6957, 743.8077
699.1778, 747.8540
699.6599, 755.3755
700.1420, 755.8469
700.6241, 749.6619
701.1063, 744.1452
701.5884, 743.9968
702.0705, 747.6555
702.5526, 754.8291
703.0347, 765.4149
703.5168, 773.3884
703.9990, 774.7955
704.4811, 773.1390
704.9632, 770.7650
705.4453, 768.2181
705.9274, 763.8209
706.4095, 756.5452
706.8917, 748.5811
707.3738, 741.7968
707.8560, 736.4570
708.3381, 731.0311
708.8202, 725.5514
709.3023, 719.4896
709.7844, 711.0089
710.2665, 701.4093
710.7487, 694.3943
711.2308, 691.7530
711.7129, 689.8716
712.1950, 687.0930
712.6771, 682.8748
713.1592, 676.3686
713.6414, 666.3116
714.1235, 655.1481
714.6056, 641.2321
715.0877, 627.0030
715.5698, 617.9949
716.0519, 616.0127
716.5341, 614.6505
717.0162, 612.7527
717.4983, 610.1930
717.9804, 605.7991
718.4625, 599.7820
718.9446, 595.6414
719.4268, 595.3929
719.9089, 597.7512
720.3910, 602.5298
720.8731, 608.8633
721.3552, 613.2740
721.8373, 611.3990
722.3195, 609.4016
722.8016, 611.0002
723.2837, 616.3957
723.7658, 620.8116
724.2479, 623.6898
724.7300, 626.0314
725.2122, 628.4985
725.6943, 631.1188
726.1764, 632.1420
726.6585, 631.6750
727.1406, 628.9039
727.6227, 621.5181
728.1049, 611.6080
728.5870, 604.4298
729.0691, 600.4351
729.5512, 597.1417
730.0333, 594.6080
730.5154, 590.8371
730.9976, 583.5674
731.4797, 570.9583
731.9618, 559.3669
732.4439, 551.9742
732.9260, 544.5582
733.4081, 533.6630
733.8903, 518.3788
734.3724, 502.8750
734.8545, 487.7384
735.3366, 471.8495
735.8187, 452.0968
736.3008, 429.9322
736.7830, 412.8680
737.2651, 403.8156
737.7472, 395.6346
738.2293, 380.2617
738.7114, 361.5266
739.1935, 345.1773
739.6757, 332.8376
740.1578, 323.3709
740.6399, 317.6917
741.1220, 314.4549
741.6041, 311.3149
742.0862, 308.9890
742.5684, 304.9041
743.0505, 297.8182
743.5326, 289.5619
744.0147, 284.7556
744.4968, 283.1398
744.9789, 280.7151
745.4611, 275.3145
745.9432, 269.2295
746.4253, 265.5927
746.9074, 263.6808
747.3895, 261.6680
747.8716, 257.4240
748.3538, 254.2481
748.8359, 254.6280
749.3180, 257.6308
749.8001, 258.3083
750.2822, 254.9784
750.7643, 252.0250
751.2465, 250.8614
751.7286, 251.1268
752.2107, 251.2546
752.6928, 251.2474
753.1749, 251.0466
753.6570, 250.2156
754.1392, 249.3525
754.6213, 249.4471
755.1034, 250.4324
755.5855, 251.9071
756.0676, 253.8835
756.5498, 256.0907
757.0319, 259.0647
757.5140, 262.8327
757.9962, 263.9334
758.4783, 261.0233
758.9604, 257.1468
759.4425, 252.9659
759.9246, 248.5849
760.4067, 247.8042
760.8889, 251.0344
761.3710, 254.1473
761.8531, 253.4883
762.3352, 250.7800
762.8173, 249.8110
763.2994, 250.6792
763.7816, 250.0888
764.2637, 243.8723
764.7458, 236.9519
765.2279, 233.2239
765.7100, 233.7359
766.1921, 233.8583
766.6743, 232.7795
767.1564, 231.8820
767.6385, 232.5714
768.1206, 235.3156
768.6027, 234.8658
769.0848, 230.8214
769.5670, 225.7754
770.0491, 221.2494
770.5312, 217.6088
771.0133, 216.0511
771.4954, 216.9029
771.9775, 217.5264
772.4597, 215.9448
772.9418, 213.5937
773.4239, 211.6244
773.9060, 210.2145
774.3881, 209.1835
774.8702, 208.5049
775.3524, 208.2075
775.8345, 208.6607
776.3166, 210.0446
776.7987, 209.6250
777.2808, 206.9160
777.7629, 204.0814
778.2451, 203.7892
778.7272, 205.0126
779.2093, 206.0165
779.6914, 206.7412
780.1735, 205.9448
780.6556, 201.2675
781.1378, 195.5723
781.6199, 191.6230
782.1020, 190.4950
782.5841, 190.3287
783.0662, 191.7814
783.5483, 193.4596
784.0305, 193.7526
784.5126, 192.6173
784.9947, 191.5608
785.4768, 190.8777
785.9589, 189.7843
786.4410, 186.4934
786.9232, 182.3611
787.4053, 180.1359
787.8874, 181.5156
788.3695, 181.9753
788.8516, 178.3000
789.3337, 172.9998
789.8159, 168.8979
790.2980, 167.2426
790.7801, 164.9405
791.2622, 161.5133
791.7443, 157.9619
792.2264, 155.8401
792.7086, 155.0356
793.1907, 154.0899
793.6728, 152.7308
794.1549, 151.2722
794.6370, 150.2983
795.1191, 149.3813
795.6013, 147.7890
796.0834, 145.0781
796.5655, 142.1756
797.0476, 139.0782
797.5297, 136.1055
798.0118, 133.6950
798.4940, 132.3775
798.9761, 130.1018
799.4582, 126.0430
799.9403, 122.2006
800.4224, 121.8698
800.9045, 124.4131
801.3867, 125.9103
801.8688, 125.3998
802.3509, 124.3152
802.8330, 124.5687
803.3151, 124.9459
803.7972, 123.6121
804.2794, 118.1063
804.7615, 114.1802
805.2436, 113.7437
805.7258, 115.0624
806.2079, 116.7131
806.6900, 119.2282
807.1721, 119.7026
807.6542, 117.3623
808.1364, 114.2336
808.6185, 113.0589
809.1006, 113.3150
809.5827, 113.5029
810.0648, 113.3253
810.5469, 112.8864
811.0291, 111.8360
811.5112, 110.7593
811.9933, 110.3203
812.4754, 110.7345
812.9575, 111.8099
813.4396, 114.5026
813.9218, 116.8941
814.4039, 116.2193
814.8860, 112.1809
815.3681, 110.1764
815.8502, 111.1673
816.3323, 112.5975
816.8145, 110.6599
817.2966, 107.2574
817.7787, 105.9371
818.2608, 108.0470
818.7429, 110.3924
819.2250, 111.6375
819.7072, 112.2719
820.1893, 112.7450
820.6714, 113.0557
821.1535, 113.3418
821.6356, 113.7722
822.1177, 113.8708
822.5999, 112.8831
823.0820, 110.9989
823.5641, 109.4826
824.0462, 108.4792
824.5283, 107.7785
825.0104, 107.1347
825.4926, 106.7178
825.9747, 106.9681
826.4568, 108.4933
826.9389, 108.8597
827.4210, 105.6481
827.9031, 102.5652
828.3853, 102.5046
828.8674, 106.5993
829.3495, 107.9239
829.8316, 105.9622
830.3137, 103.2664
830.7958, 101.9832
831.2780, 101.8838
831.7601, 102.7110
832.2422, 104.4643
832.7243, 106.3077
833.2064, 109.0989
833.6885, 110.7736
834.1707, 109.1438
834.6528, 102.6032
835.1349, 98.54347
835.6170, 97.03313
836.0991, 97.88432
836.5812, 102.4374
837.0634, 110.2016
837.5455, 113.0988
838.0276, 111.0592
838.5097, 108.0527
838.9918, 106.7713
839.4739, 106.3481
839.9561, 106.1258
840.4382, 106.0207
840.9203, 105.2973
841.4024, 102.3508
841.8845, 100.1019
842.3666, 100.2049
842.8488, 102.5897
843.3309, 103.1376
843.8130, 101.4069
844.2951, 100.3209
844.7772, 102.8355
845.2593, 106.8414
845.7415, 106.8102
846.2236, 103.4493
846.7057, 100.5365
847.1878, 100.4042
847.6699, 101.1008
848.1520, 101.7156
848.6342, 102.2129
849.1163, 102.7082
849.5984, 103.1656
850.0805, 103.7419
850.5626, 104.7328
851.0447, 105.7411
851.5269, 105.1846
852.0090, 103.2328
852.4911, 101.2844
852.9732, 100.1859
853.4553, 99.25606
853.9374, 97.42397
854.4196, 95.26794
854.9017, 94.21326
855.3839, 94.86052
855.8660, 96.57925
856.3481, 100.1108
856.8302, 104.1589
857.3123, 105.8371
857.7944, 105.0500
858.2766, 103.0128
858.7587, 99.33308
859.2408, 96.04947
859.7229, 97.30914
860.2050, 101.0414
860.6871, 102.9326
861.1693, 100.2113
861.6514, 97.54958
862.1335, 96.69859
862.6156, 96.89729
863.0977, 97.07388
863.5798, 97.12987
864.0620, 97.46297
864.5441, 98.14235
865.0262, 99.02595
865.5083, 100.1536
865.9904, 101.3540
866.4725, 102.2718
866.9547, 102.9797
867.4368, 102.6524
867.9189, 99.20032
868.4010, 95.33609
868.8831, 93.63815
869.3652, 95.35661
869.8474, 97.13612
870.3295, 99.29366
870.8116, 100.9624
871.2937, 101.4253
871.7758, 100.7327
872.2579, 99.36149
872.7401, 97.31069
873.2222, 95.04405
873.7043, 91.80684
874.1864, 89.27782
874.6685, 89.65977
875.1506, 93.13942
875.6328, 96.00665
876.1149, 97.53218
876.5970, 97.99451
877.0791, 97.15581
877.5612, 95.19065
878.0433, 93.87703
878.5255, 93.23080
879.0076, 92.89190
879.4897, 93.22991
879.9718, 93.40977
880.4539, 91.00040
880.9360, 87.18685
881.4182, 86.06297
881.9003, 94.03196
882.3824, 99.74922
882.8645, 96.96364
883.3466, 89.45794
883.8287, 87.25402
884.3109, 91.48598
884.7930, 94.46646
885.2751, 93.71067
885.7572, 91.58447
886.2393, 92.30219
886.7214, 94.79131
887.2036, 96.37045
887.6857, 95.52895
888.1678, 94.58858
888.6499, 94.94049
889.1320, 95.59743
889.6141, 95.13033
890.0963, 92.67302
890.5784, 91.51414
891.0605, 92.16505
891.5426, 93.37516
892.0247, 94.08450
892.5068, 94.16285
892.9890, 92.58260
893.4711, 88.91521
893.9532, 86.66976
894.4353, 89.56082
894.9174, 93.97898
895.3995, 97.29472
895.8817, 99.27588
896.3638, 99.33672
896.8459, 96.47630
897.3280, 93.78120
897.8101, 93.69219
898.2922, 95.55662
898.7744, 95.51711
899.2565, 93.75096
899.7386, 92.18544
900.2207, 92.30799
900.7028, 92.87461
901.1849, 92.79046
901.6671, 92.19493
902.1492, 92.46056
902.6313, 94.67658
903.1134, 96.10155
903.5955, 96.02345
904.0776, 94.68543
904.5598, 92.25764
905.0419, 88.95415
905.5240, 86.39023
906.0062, 85.24928
906.4883, 84.94429
906.9704, 84.75819
907.4525, 85.09984
907.9346, 86.63890
908.4167, 92.82767
908.8989, 95.25957
909.3810, 91.37595
909.8631, 85.95713
910.3452, 85.38738
910.8273, 89.31839
911.3094, 92.81626
911.7916, 95.41105
912.2737, 96.50390
912.7558, 93.97749
913.2379, 90.54341
913.7200, 89.34724
914.2021, 91.32286
914.6843, 92.89227
915.1664, 93.37202
915.6485, 93.49739
916.1306, 93.53734
916.6127, 93.51438
917.0948, 94.05809
917.5770, 95.16396
918.0591, 95.70257
918.5412, 94.25264
919.0233, 92.38737
919.5054, 92.00330
919.9875, 92.74801
920.4697, 92.96451
920.9518, 90.77593
921.4339, 89.91832
921.9160, 92.20093
922.3981, 95.73524
922.8802, 95.09010
923.3624, 90.42593
923.8445, 86.87058
924.3266, 86.01698
924.8087, 86.51242
925.2908, 86.97202
925.7729, 87.74960
926.2551, 89.47832
926.7372, 93.67384
927.2193, 96.34658
927.7014, 96.64308
928.1835, 95.85452
928.6656, 94.76595
929.1478, 93.37955
929.6299, 93.49572
930.1120, 95.28939
930.5941, 97.05218
931.0762, 97.20801
931.5583, 96.62489
932.0405, 96.32326
932.5226, 96.38717
933.0047, 95.84886
933.4868, 93.68272
933.9689, 91.86563
934.4510, 91.11705
934.9332, 91.27648
935.4153, 91.81783
935.8974, 92.70338
936.3795, 93.05083
936.8616, 92.24422
937.3438, 90.95558
937.8259, 89.45375
938.3080, 88.03444
938.7901, 87.32264
939.2722, 88.57695
939.7543, 88.96019
940.2365, 87.67287
940.7186, 85.99434
941.2007, 85.86710
941.6828, 87.14668
942.1649, 88.12785
942.6470, 88.57845
943.1292, 88.81018
943.6113, 88.65132
944.0934, 88.70298
944.5755, 89.80903
945.0576, 92.39513
945.5397, 94.08188
946.0219, 94.60272
946.5040, 94.37205
946.9861, 93.14955
947.4682, 91.30770
947.9503, 91.57402
948.4324, 93.68834
948.9146, 95.43642
949.3967, 95.52996
949.8788, 94.77411
950.3609, 92.83758
950.8430, 90.49917
951.3251, 90.22227
951.8073, 93.75819
952.2894, 96.29500
952.7715, 97.10838
953.2536, 96.68536
953.7357, 95.31526
954.2179, 93.33043
954.7000, 92.11062
955.1821, 92.03871
955.6642, 92.33417
956.1464, 92.65063
956.6285, 92.95785
957.1106, 93.27074
957.5927, 93.65940
958.0748, 93.68617
958.5569, 93.24763
959.0391, 92.71875
959.5212, 92.06348
960.0033, 91.55205
960.4854, 92.49484
960.9675, 94.55532
961.4496, 95.81337
961.9318, 94.95068
962.4139, 93.34535
962.8960, 90.99622
963.3781, 88.51162
963.8602, 87.62904
964.3423, 88.90282
964.8245, 89.12392
965.3066, 87.00918
965.7887, 85.30976
966.2708, 89.64104
966.7529, 96.87336
967.2350, 100.7585
967.7172, 99.23280
968.1993, 96.81950
968.6814, 93.98739
969.1635, 91.92653
969.6456, 91.69244
970.1277, 93.51183
970.6099, 93.97886
971.0920, 92.97202
971.5741, 92.20457
972.0562, 93.62067
972.5383, 95.45390
973.0204, 94.94799
973.5026, 92.72756
973.9847, 91.48978
974.4668, 93.81709
974.9489, 94.89577
975.4310, 92.64561
975.9131, 89.43077
976.3953, 90.84971
976.8774, 96.50725
977.3595, 100.2154
977.8416, 100.4966
978.3237, 98.95979
978.8058, 94.99657
979.2880, 91.14859
979.7701, 90.77306
980.2522, 96.44247
980.7343, 98.18141
981.2164, 93.79250
981.6985, 89.04992
982.1807, 87.71683
982.6628, 88.96648
983.1449, 88.91859
983.6270, 87.85454
984.1091, 87.53773
984.5912, 90.46475
985.0734, 92.90062
985.5555, 91.85906
986.0376, 88.84621
986.5197, 88.18126
987.0018, 90.98958
987.4839, 92.19911
987.9661, 90.58315
988.4482, 88.43551
988.9303, 88.97137
989.4124, 91.21446
989.8945, 93.56001
990.3766, 95.86228
990.8588, 97.29472
991.3409, 96.74425
991.8230, 95.94371
992.3051, 96.32629
992.7872, 97.75978
993.2693, 95.83665
993.7515, 90.39524
994.2336, 86.31028
994.7157, 87.66467
995.1978, 90.51292
995.6799, 89.63690
996.1620, 86.72469
996.6442, 85.71954
997.1263, 90.68204
997.6084, 93.33730
998.0905, 92.19559
998.5726, 89.40906
999.0547, 87.30939
999.5369, 85.92664
1000.019, 85.38539
1000.501, 85.67863
1000.983, 87.20644
1001.465, 92.82351
1001.947, 97.78312
1002.430, 97.19881
1002.912, 90.80483
1003.394, 88.62383
1003.876, 92.33088
1004.358, 94.56663
1004.840, 91.48170
1005.322, 86.47783
1005.804, 87.15048
1006.287, 91.24227
1006.769, 93.09628
1007.251, 88.18629
1007.733, 84.51320
1008.215, 85.77263
1008.697, 88.48016
1009.179, 89.49283
1009.661, 88.59621
1010.143, 88.34561
1010.626, 88.82600
1011.108, 89.96528
1011.590, 92.86755
1012.072, 95.54527
1012.554, 95.45595
1013.036, 92.92143
1013.518, 91.33654
1014.000, 91.61934
1014.483, 92.34950
1014.965, 93.76634
1015.447, 94.76369
1015.929, 91.91814
1016.411, 86.56905
1016.893, 84.03578
1017.375, 86.53862
1017.857, 88.80741
1018.339, 85.83950
1018.822, 82.49152
1019.304, 83.64325
1019.786, 90.28104
1020.268, 93.32150
1020.750, 92.32873
1021.232, 90.51270
1021.714, 89.93295
1022.196, 89.74223
1022.679, 88.12104
1023.161, 85.76375
1023.643, 84.68996
1024.125, 86.94507
1024.607, 88.73674
1025.089, 89.22172
1025.571, 89.22963
1026.053, 90.17555
1026.535, 91.83259
1027.018, 92.44180
1027.500, 91.76871
1027.982, 90.56771
1028.464, 88.64464
1028.946, 87.03363
1029.428, 86.96538
1029.910, 88.43845
1030.392, 88.50874
1030.875, 86.72988
1031.357, 85.10755
1031.839, 84.17175
1032.321, 84.03949
1032.803, 85.62817
1033.285, 88.06956
1033.767, 89.43293
1034.249, 88.43007
1034.731, 87.70425
1035.214, 88.13734
1035.696, 88.83153
1036.178, 89.06097
1036.660, 88.83368
1037.142, 89.32473
1037.624, 90.49271
1038.106, 91.34669
1038.588, 90.88256
1039.071, 90.15452
1039.553, 90.41031
1040.035, 91.06808
1040.517, 89.94866
1040.999, 85.70753
1041.481, 83.29646
1041.963, 83.73458
1042.445, 85.30146
1042.927, 85.81108
1043.410, 85.76064
1043.892, 86.30372
1044.374, 87.71706
1044.856, 88.44956
1045.338, 87.25266
1045.820, 85.91870
1046.302, 85.03014
1046.784, 84.66543
1047.266, 85.71452
1047.749, 88.00030
1048.231, 89.23928
1048.713, 87.72623
1049.195, 86.25044
1049.677, 87.90569
1050.159, 90.54230
1050.641, 91.01828
1051.123, 87.86475
1051.606, 86.12231
1052.088, 85.94588
1052.570, 86.61539
1053.052, 88.46281
1053.534, 90.36780
1054.016, 89.90036
1054.498, 87.44749
1054.980, 85.03793
1055.463, 82.48366
1055.945, 81.45885
1056.427, 82.84451
1056.909, 85.32317
1057.391, 86.75701
1057.873, 87.26317
1058.355, 87.95165
1058.837, 89.06441
1059.319, 89.52496
1059.802, 87.28271
1060.284, 85.04708
1060.766, 85.84688
1061.248, 89.38583
1061.730, 88.67561
1062.212, 82.55590
1062.694, 78.30272
1063.176, 79.13555
1063.658, 82.25794
1064.141, 84.57381
1064.623, 86.03145
1065.105, 86.44622
1065.587, 85.09416
1066.069, 84.16129
1066.551, 83.78267
1067.033, 83.96509
1067.515, 85.13337
1067.998, 86.92605
1068.480, 87.08167
1068.962, 85.88776
1069.444, 84.94591
1069.926, 85.77400
1070.408, 86.35600
1070.890, 85.54369
1071.372, 83.97795
1071.854, 82.26408
1072.337, 80.20935
1072.819, 80.43200
1073.301, 83.40501
1073.783, 86.62860
1074.265, 87.93178
1074.747, 88.17580
1075.229, 88.03214
1075.711, 87.58394
1076.193, 87.09992
1076.676, 86.49503
1077.158, 86.14725
1077.640, 86.23384
1078.122, 86.48917
1078.604, 86.48148
1079.086, 86.28392
1079.568, 85.91184
1080.051, 85.14632
1080.533, 85.15625
1081.015, 87.89428
1081.497, 89.86164
1081.979, 88.86887
1082.461, 85.53848
1082.943, 83.72439
1083.425, 83.31831
1083.907, 83.68917
1084.390, 85.48299
1084.872, 86.63599
1085.354, 85.28153
1085.836, 82.79704
1086.318, 80.89706
1086.800, 79.57243
1087.282, 79.28090
1087.764, 80.18211
1088.246, 80.88674
1088.729, 79.36587
1089.211, 77.72198
1089.693, 79.13905
1090.175, 82.71336
1090.657, 84.60754
1091.139, 82.61393
1091.621, 81.93007
1092.103, 83.64970
1092.586, 86.01790
1093.068, 87.19444
1093.550, 87.07646
1094.032, 84.66360
1094.514, 79.84677
1094.996, 76.61024
1095.478, 78.35352
1095.960, 80.19079
1096.443, 80.18623
1096.925, 78.98610
1097.407, 78.23922
1097.889, 77.98477
1098.371, 78.59248
1098.853, 80.32364
1099.335, 82.33110
1099.817, 85.04911
1100.299, 86.98398
1100.781, 86.36459
1101.264, 83.11640
1101.746, 81.42117
1102.228, 81.33907
1102.710, 81.90311
1103.192, 83.07478
1103.674, 84.08412
1104.156, 83.90183
1104.638, 82.98875
1105.121, 82.09911
1105.603, 81.66217
1106.085, 80.50446
1106.567, 78.22396
1107.049, 76.36354
1107.531, 76.49458
1108.013, 77.74802
1108.495, 78.29522
1108.978, 78.35290
1109.460, 78.91920
1109.942, 81.51164
1110.424, 83.03951
1110.906, 82.85494
1111.388, 81.62762
1111.870, 79.82741
1112.352, 77.71483
1112.834, 76.21144
1113.317, 75.41282
1113.799, 75.86095
1114.281, 79.59091
1114.763, 82.78997
1115.245, 83.24641
1115.727, 81.95066
1116.209, 81.14809
1116.691, 80.83257
1117.173, 81.03826
1117.656, 81.83483
1118.138, 82.80153
1118.620, 84.10934
1119.102, 85.03101
1119.584, 84.54060
1120.066, 82.70461
1120.548, 82.27631
1121.030, 83.59109
1121.513, 83.83519
1121.995, 81.43533
1122.477, 78.58742
1122.959, 78.15395
1123.441, 78.89641
1123.923, 79.01456
1124.405, 77.76152
1124.887, 77.13278
1125.370, 77.25884
1125.852, 77.70110
1126.334, 78.02356
1126.816, 78.62241
1127.298, 81.50420
1127.780, 85.24257
1128.262, 86.38283
1128.744, 79.90500
1129.226, 76.49026
1129.709, 78.09517
1130.191, 81.34312
1130.673, 84.04173
1131.155, 85.91869
1131.637, 85.45435
1132.119, 83.00843
1132.601, 80.77479
1133.083, 80.76229
1133.566, 79.94628
1134.048, 76.13023
1134.530, 72.03078
1135.012, 71.96503
1135.494, 75.44739
1135.976, 76.79735
1136.458, 75.55421
1136.940, 74.84379
1137.422, 77.96645
1137.905, 81.13831
1138.387, 82.15438
1138.869, 81.47994
1139.351, 79.50443
1139.833, 76.05138
1140.315, 75.99593
1140.797, 80.76102
1141.279, 85.06365
1141.761, 83.48927
1142.244, 79.92059
1142.726, 77.04181
1143.208, 75.22473
1143.690, 75.87904
1144.172, 79.52628
1144.654, 82.64230
1145.136, 84.27151
1145.618, 84.55440
1146.101, 82.72076
1146.583, 80.11134
1147.065, 78.17531
1147.547, 77.12095
1148.029, 77.59115
1148.511, 80.17408
1148.993, 82.37618
1149.475, 83.33513
1149.958, 82.99133
1150.440, 79.99690
1150.922, 75.97765
1151.404, 73.97262
1151.886, 75.73824
1152.368, 77.16891
1152.850, 77.92165
1153.332, 78.40266
1153.814, 78.69273
1154.297, 78.98612
1154.779, 80.24229
1155.261, 81.92673
1155.743, 82.49253
1156.225, 80.04564
1156.707, 78.40040
1157.189, 78.06452
1157.671, 78.50728
1158.153, 80.07286
1158.636, 82.03481
1159.118, 80.46440
1159.600, 76.15328
1160.082, 73.21845
1160.564, 74.22957
1161.046, 76.24599
1161.528, 79.28960
1162.010, 82.02769
1162.493, 82.71966
1162.975, 81.63271
1163.457, 80.35770
1163.939, 79.04121
1164.421, 78.25396
1164.903, 78.53011
1165.385, 79.20142
1165.867, 80.06384
1166.349, 81.06782
1166.832, 82.70514
1167.314, 84.76728
1167.796, 83.46185
1168.278, 78.31824
1168.760, 74.45494
1169.242, 76.46277
1169.724, 79.88158
1170.206, 83.13143
1170.688, 85.42963
1171.171, 84.02821
1171.653, 78.99903
1172.135, 76.14202
1172.617, 76.80551
1173.099, 77.56273
1173.581, 74.18080
1174.063, 70.99757
1174.545, 71.96904
1175.028, 76.21513
1175.510, 80.19116
1175.992, 84.01826
1176.474, 85.00416
1176.956, 81.91724
1177.438, 78.15391
1177.920, 76.40404
1178.402, 75.82936
1178.885, 75.91897
1179.367, 76.57170
1179.849, 76.94052
1180.331, 77.02030
1180.813, 76.85683
1181.295, 76.34053
1181.777, 75.91343
1182.259, 76.24376
1182.741, 76.79146
1183.224, 76.96842
1183.706, 76.71329
1184.188, 76.07368
1184.670, 74.90867
1185.152, 74.35806
1185.634, 75.05486
1186.116, 76.37749
1186.598, 78.20841
1187.081, 79.94267
1187.563, 80.70625
1188.045, 80.33507
1188.527, 79.03351
1189.009, 76.53858
1189.491, 74.76801
1189.973, 75.14655
1190.455, 76.34895
1190.938, 76.65900
1191.420, 76.68502
1191.902, 77.54633
1192.384, 80.07486
1192.866, 81.51756
1193.348, 81.88249
1193.830, 81.09996
1194.312, 77.43078
1194.794, 73.99001
1195.276, 76.88435
1195.759, 82.62584
1196.241, 83.64809
1196.723, 74.62534
1197.205, 71.48976
1197.687, 75.72620
1198.169, 80.06269
1198.651, 77.03578
1199.133, 72.10472
1199.616, 73.36192
1200.098, 78.54295
1200.580, 81.82195
1201.062, 81.98853
1201.544, 80.61869
1202.026, 77.31721
1202.508, 74.42278
1202.990, 74.48845
1203.473, 75.81994
1203.955, 76.21255
1204.437, 75.93300
1204.919, 76.15591
1205.401, 77.65029
1205.883, 77.93788
1206.365, 76.46123
1206.847, 75.28458
1207.329, 77.27531
1207.812, 80.10671
1208.294, 80.82623
1208.776, 79.68031
1209.258, 78.16198
1209.740, 76.22935
1210.222, 74.45933
1210.704, 72.71333
1211.186, 71.89611
1211.668, 73.83214
1212.151, 76.58458
1212.633, 77.29927
1213.115, 76.37608
1213.597, 77.08517
1214.079, 81.07378
1214.561, 82.20340
1215.043, 79.08478
1215.525, 75.27742
1216.008, 74.49372
1216.490, 75.23588
1216.972, 76.19132
1217.454, 77.07735
1217.936, 76.59488
1218.418, 73.74275
1218.900, 73.29782
1219.382, 76.65062
1219.865, 79.90937
1220.347, 77.92250
1220.829, 74.05415
1221.311, 71.46367
1221.793, 70.61132
1222.275, 72.22614
1222.757, 77.35828
1223.239, 80.32329
1223.721, 79.72691
1224.203, 78.15381
1224.686, 77.96364
1225.168, 78.60510
1225.650, 79.94702
1226.132, 81.75832
1226.614, 82.14810
1227.096, 80.76701
1227.578, 80.00102
1228.061, 80.59711
1228.543, 80.75542
1229.025, 77.32222
1229.507, 73.48242
1229.989, 72.83122
1230.471, 75.13271
1230.953, 75.56667
1231.435, 73.73579
1231.917, 73.91109
1232.400, 77.53263
1232.882, 81.06212
1233.364, 80.43398
1233.846, 78.73013
1234.328, 78.93078
1234.810, 80.73193
1235.292, 81.54414
1235.774, 81.34776
1236.256, 80.25517
1236.739, 78.00646
1237.221, 76.40324
1237.703, 77.65321
1238.185, 79.60728
1238.667, 80.97038
1239.149, 81.53159
1239.631, 79.29150
1240.113, 74.48233
1240.596, 73.15633
1241.078, 77.44514
1241.560, 81.68515
1242.042, 81.39263
1242.524, 79.74756
1243.006, 78.81633
1243.488, 78.38915
1243.970, 77.42051
1244.453, 75.99809
1244.935, 74.86417
1245.417, 74.15849
1245.899, 73.92229
1246.381, 74.45789
1246.863, 75.17793
1247.345, 75.58647
1247.827, 75.98266
1248.309, 77.55562
1248.792, 80.01058
1249.274, 82.41479
1249.756, 84.79684
1250.238, 85.37035
1250.720, 80.98753
1251.202, 77.32504
1251.684, 77.20202
1252.166, 78.95850
1252.648, 77.88584
1253.131, 75.10454
1253.613, 74.18066
1254.095, 76.21198
1254.577, 77.67017
1255.059, 76.62834
1255.541, 76.11182
1256.023, 77.50218
1256.505, 79.59443
1256.988, 79.92989
1257.470, 79.03671
1257.952, 77.98642
1258.434, 76.98232
1258.916, 75.68394
1259.398, 73.54154
1259.880, 72.29106
1260.362, 72.72496
1260.844, 73.91878
1261.327, 74.80904
1261.809, 75.21667
1262.291, 74.21783
1262.773, 71.38923
1263.255, 72.30782
1263.737, 78.78712
1264.219, 83.18907
1264.701, 82.64410
1265.183, 80.25371
1265.666, 80.10560
1266.148, 80.25449
1266.630, 77.57309
1267.112, 71.75403
1267.594, 70.17357
1268.076, 73.45228
1268.558, 75.89461
1269.040, 75.51485
1269.523, 75.11057
1270.005, 78.62051
1270.487, 82.46552
1270.969, 82.62691
1271.451, 79.85693
1271.933, 78.77409
1272.415, 79.34612
1272.897, 78.83164
1273.380, 76.34646
1273.862, 74.00494
1274.344, 73.26360
1274.826, 73.31755
1275.308, 73.59215
1275.790, 74.18409
1276.272, 76.17087
1276.754, 79.00491
1277.236, 79.22664
1277.719, 75.76978
1278.201, 73.09575
1278.683, 74.37432
1279.165, 76.06169
1279.647, 76.97309
1280.129, 77.13234
1280.611, 75.94280
1281.093, 74.17776
1281.576, 74.48907
1282.058, 77.43963
1282.540, 78.56301
1283.022, 74.97520
1283.504, 71.99522
1283.986, 70.93405
1284.468, 71.15013
1284.950, 71.97600
1285.432, 73.23533
1285.915, 74.95683
1286.397, 77.07527
1286.879, 77.76006
1287.361, 76.11954
1287.843, 75.94549
1288.325, 78.50703
1288.807, 81.05058
1289.289, 80.27300
1289.771, 77.89489
1290.254, 75.00855
1290.736, 72.13515
1291.218, 71.44212
1291.700, 73.22763
1292.182, 74.15739
1292.664, 73.56527
1293.146, 73.19734
1293.628, 74.89952
1294.111, 76.99638
1294.593, 78.55058
1295.075, 79.54369
1295.557, 79.94816
1296.039, 79.75294
1296.521, 78.30949
1297.003, 75.58394
1297.485, 74.18880
1297.968, 77.45786
1298.450, 80.12547
1298.932, 80.13696
1299.414, 78.86412
1299.896, 78.28122
1300.378, 78.14668
1300.860, 77.63205
1301.342, 76.74852
1301.824, 76.11079
##END=



