##NAMES=Orthoclase
##RRUFFID=R040055
##IDEAL CHEMISTRY=KAlSi_3_O_8_
##LOCALITY=Madagascar
##OWNER=RRUFF
##SOURCE=Bob Downs
##DESCRIPTION=Pale yellow fragments
##STATUS=The identification of this mineral has been confirmed by X-ray diffraction and chemical analysis
##URL=rruff.info/R040055
##MEASURED CHEMISTRY=K_0.96_(Al_0.96_Si_0.03_Fe_0.02_)Si_3.00_O_8_; = light material. (K_0.90_Na_0.02_)(Al_0.91_Si_0.08_Fe_0.02_)Si_3.00_O_8_ = dark
127.3135, 508.4446
127.7956, 521.7052
128.2778, 529.5729
128.7599, 536.9528
129.2420, 549.2302
129.7241, 568.4525
130.2062, 582.4442
130.6883, 586.1443
131.1705, 589.4282
131.6526, 598.9379
132.1347, 613.9338
132.6168, 627.8380
133.0989, 632.3680
133.5810, 623.5259
134.0632, 615.3311
134.5453, 604.2415
135.0274, 596.0471
135.5095, 594.0179
135.9916, 598.8944
136.4737, 609.8481
136.9559, 625.7911
137.4380, 647.6667
137.9201, 673.7422
138.4022, 706.3787
138.8843, 741.4961
139.3664, 772.0975
139.8486, 796.8297
140.3307, 825.6627
140.8128, 875.2606
141.2949, 954.2524
141.7770, 1044.542
142.2591, 1149.997
142.7413, 1264.509
143.2234, 1381.101
143.7055, 1496.823
144.1876, 1616.203
144.6697, 1750.373
145.1518, 1902.731
145.6340, 2062.595
146.1161, 2234.517
146.5982, 2411.850
147.0803, 2585.956
147.5624, 2754.876
148.0445, 2917.696
148.5267, 3072.754
149.0088, 3225.297
149.4909, 3363.213
149.9730, 3486.242
150.4551, 3593.020
150.9372, 3683.297
151.4194, 3760.789
151.9015, 3815.763
152.3836, 3822.323
152.8657, 3774.087
153.3478, 3701.931
153.8299, 3609.540
154.3121, 3501.422
154.7942, 3390.790
155.2763, 3287.765
155.7584, 3181.232
156.2405, 3044.498
156.7226, 2855.809
157.2048, 2674.111
157.6869, 2527.600
158.1690, 2413.029
158.6511, 2314.214
159.1332, 2227.802
159.6153, 2152.398
160.0975, 2081.374
160.5796, 2011.770
161.0617, 1949.908
161.5438, 1900.309
162.0259, 1862.615
162.5080, 1832.829
162.9902, 1811.762
163.4723, 1796.844
163.9544, 1781.074
164.4365, 1761.687
164.9186, 1745.045
165.4007, 1736.593
165.8829, 1736.115
166.3650, 1739.235
166.8471, 1744.328
167.3292, 1751.956
167.8113, 1763.662
168.2934, 1784.589
168.7756, 1802.867
169.2577, 1803.663
169.7398, 1786.389
170.2219, 1773.286
170.7040, 1779.434
171.1861, 1794.541
171.6683, 1803.999
172.1504, 1805.470
172.6325, 1801.037
173.1146, 1790.662
173.5967, 1773.610
174.0788, 1758.480
174.5610, 1752.424
175.0431, 1749.401
175.5252, 1742.228
176.0073, 1730.083
176.4894, 1712.460
176.9715, 1686.605
177.4537, 1651.175
177.9358, 1616.579
178.4179, 1590.361
178.9000, 1566.842
179.3821, 1539.178
179.8642, 1503.959
180.3464, 1466.719
180.8285, 1434.583
181.3106, 1408.302
181.7927, 1383.004
182.2748, 1353.965
182.7569, 1325.592
183.2391, 1302.833
183.7212, 1287.431
184.2033, 1277.508
184.6854, 1272.383
185.1675, 1273.475
185.6496, 1272.585
186.1318, 1265.314
186.6139, 1254.537
187.0960, 1242.201
187.5781, 1228.265
188.0602, 1214.103
188.5423, 1202.091
189.0245, 1193.264
189.5066, 1182.378
189.9887, 1159.592
190.4708, 1137.029
190.9529, 1127.427
191.4350, 1137.094
191.9172, 1154.670
192.3993, 1165.285
192.8814, 1167.804
193.3635, 1168.269
193.8456, 1168.529
194.3277, 1167.906
194.8099, 1165.603
195.2920, 1161.310
195.7741, 1155.593
196.2562, 1149.134
196.7383, 1141.908
197.2204, 1133.925
197.7026, 1123.459
198.1847, 1113.039
198.6668, 1104.344
199.1489, 1097.463
199.6310, 1093.500
200.1131, 1095.551
200.5953, 1105.308
201.0774, 1111.907
201.5595, 1111.045
202.0416, 1105.639
202.5237, 1096.224
203.0058, 1082.225
203.4880, 1067.890
203.9701, 1058.571
204.4522, 1054.902
204.9343, 1051.753
205.4164, 1044.796
205.8985, 1039.581
206.3807, 1042.509
206.8628, 1055.675
207.3449, 1069.012
207.8270, 1069.486
208.3091, 1055.397
208.7912, 1044.981
209.2734, 1046.046
209.7555, 1050.626
210.2376, 1052.854
210.7197, 1051.797
211.2018, 1050.415
211.6839, 1052.247
212.1660, 1057.497
212.6482, 1061.126
213.1303, 1061.380
213.6124, 1059.970
214.0945, 1058.361
214.5766, 1056.702
215.0587, 1053.825
215.5409, 1046.420
216.0230, 1034.716
216.5051, 1029.548
216.9872, 1036.724
217.4693, 1048.003
217.9514, 1057.722
218.4336, 1065.589
218.9157, 1072.627
219.3978, 1080.462
219.8799, 1088.722
220.3620, 1093.759
220.8441, 1095.546
221.3263, 1092.840
221.8084, 1082.553
222.2905, 1065.768
222.7726, 1052.075
223.2547, 1048.957
223.7368, 1054.666
224.2190, 1060.042
224.7011, 1064.491
225.1832, 1067.860
225.6653, 1071.283
226.1474, 1074.195
226.6295, 1073.738
227.1117, 1064.068
227.5938, 1049.482
228.0759, 1044.417
228.5580, 1053.947
229.0401, 1065.432
229.5222, 1067.740
230.0044, 1064.004
230.4865, 1063.621
230.9686, 1077.297
231.4507, 1095.935
231.9328, 1097.916
232.4149, 1076.644
232.8971, 1054.941
233.3792, 1048.030
233.8613, 1052.372
234.3434, 1062.772
234.8255, 1085.696
235.3076, 1110.454
235.7898, 1119.421
236.2719, 1109.930
236.7540, 1098.511
237.2361, 1095.119
237.7182, 1097.268
238.2003, 1100.337
238.6825, 1102.541
239.1646, 1105.978
239.6467, 1113.797
240.1288, 1126.173
240.6109, 1138.083
241.0930, 1146.204
241.5752, 1152.217
242.0573, 1160.139
242.5394, 1172.726
243.0215, 1184.425
243.5036, 1189.696
243.9857, 1189.366
244.4679, 1189.920
244.9500, 1193.598
245.4321, 1200.751
245.9142, 1211.444
246.3963, 1227.770
246.8784, 1243.661
247.3606, 1253.892
247.8427, 1260.600
248.3248, 1271.720
248.8069, 1291.830
249.2890, 1315.566
249.7711, 1332.875
250.2533, 1343.087
250.7354, 1350.383
251.2175, 1352.725
251.6996, 1353.502
252.1817, 1358.196
252.6638, 1367.851
253.1460, 1383.945
253.6281, 1411.819
254.1102, 1454.898
254.5923, 1492.926
255.0744, 1521.255
255.5565, 1543.171
256.0387, 1560.457
256.5208, 1573.334
257.0029, 1587.204
257.4850, 1608.940
257.9671, 1640.967
258.4492, 1671.123
258.9314, 1701.483
259.4135, 1728.158
259.8956, 1744.783
260.3777, 1752.188
260.8598, 1761.556
261.3419, 1784.775
261.8241, 1824.142
262.3062, 1852.550
262.7883, 1860.240
263.2704, 1866.845
263.7525, 1883.747
264.2346, 1909.232
264.7168, 1933.823
265.1989, 1949.419
265.6810, 1957.158
266.1631, 1980.778
266.6452, 2041.832
267.1273, 2093.255
267.6095, 2115.198
268.0916, 2118.375
268.5737, 2121.233
269.0558, 2133.252
269.5379, 2154.412
270.0201, 2184.063
270.5022, 2233.872
270.9843, 2279.478
271.4664, 2313.027
271.9485, 2343.762
272.4306, 2384.772
272.9128, 2440.684
273.3949, 2501.794
273.8770, 2545.955
274.3591, 2554.288
274.8412, 2579.237
275.3233, 2637.501
275.8055, 2701.380
276.2876, 2748.917
276.7697, 2776.408
277.2518, 2796.016
277.7339, 2825.341
278.2160, 2870.948
278.6982, 2904.116
279.1803, 2920.289
279.6624, 2927.997
280.1445, 2930.261
280.6266, 2927.448
281.1087, 2918.931
281.5909, 2904.098
282.0730, 2882.898
282.5551, 2856.181
283.0372, 2820.941
283.5193, 2782.724
284.0014, 2747.483
284.4836, 2711.148
284.9657, 2664.757
285.4478, 2599.955
285.9299, 2522.708
286.4120, 2454.295
286.8941, 2397.349
287.3763, 2344.168
287.8584, 2292.634
288.3405, 2242.580
288.8226, 2193.646
289.3047, 2145.272
289.7868, 2099.212
290.2690, 2059.764
290.7511, 2028.195
291.2332, 1993.213
291.7153, 1947.142
292.1974, 1897.844
292.6795, 1854.052
293.1617, 1817.578
293.6438, 1782.782
294.1259, 1744.301
294.6080, 1703.428
295.0901, 1666.777
295.5722, 1636.695
296.0544, 1610.684
296.5365, 1585.345
297.0186, 1560.577
297.5007, 1537.166
297.9828, 1517.315
298.4649, 1498.400
298.9471, 1472.930
299.4292, 1437.706
299.9113, 1407.563
300.3934, 1401.054
300.8755, 1417.201
301.3576, 1425.369
301.8398, 1425.706
302.3219, 1414.502
302.8040, 1378.120
303.2861, 1321.078
303.7682, 1277.217
304.2503, 1273.730
304.7325, 1305.144
305.2146, 1315.727
305.6967, 1289.619
306.1788, 1263.074
306.6609, 1248.033
307.1430, 1242.130
307.6252, 1241.202
308.1073, 1243.905
308.5894, 1247.539
309.0715, 1244.703
309.5536, 1228.099
310.0357, 1213.765
310.5179, 1201.414
311.0000, 1191.895
311.4821, 1186.938
311.9642, 1186.621
312.4463, 1188.274
312.9284, 1188.535
313.4106, 1188.364
313.8927, 1183.814
314.3748, 1170.569
314.8569, 1157.347
315.3390, 1148.872
315.8211, 1144.920
316.3033, 1142.704
316.7854, 1140.310
317.2675, 1137.696
317.7496, 1132.979
318.2317, 1122.750
318.7138, 1114.460
319.1960, 1112.425
319.6781, 1113.286
320.1602, 1110.966
320.6423, 1101.106
321.1244, 1088.855
321.6065, 1086.972
322.0887, 1098.893
322.5708, 1110.995
323.0529, 1118.887
323.5350, 1125.113
324.0171, 1132.592
324.4992, 1142.386
324.9814, 1149.647
325.4635, 1147.833
325.9456, 1137.679
326.4277, 1130.406
326.9098, 1130.794
327.3919, 1131.685
327.8741, 1123.319
328.3562, 1106.531
328.8383, 1096.538
329.3204, 1107.178
329.8025, 1126.806
330.2846, 1134.730
330.7668, 1128.021
331.2489, 1116.217
331.7310, 1104.794
332.2131, 1094.339
332.6952, 1087.624
333.1773, 1086.037
333.6595, 1087.278
334.1415, 1092.354
334.6237, 1099.678
335.1058, 1102.620
335.5879, 1096.582
336.0700, 1085.138
336.5521, 1081.039
337.0342, 1094.050
337.5164, 1100.362
337.9985, 1090.439
338.4806, 1073.916
338.9627, 1061.530
339.4448, 1056.573
339.9269, 1056.756
340.4091, 1059.258
340.8912, 1066.123
341.3733, 1069.688
341.8554, 1069.768
342.3375, 1067.255
342.8196, 1059.499
343.3018, 1048.906
343.7839, 1042.644
344.2660, 1047.754
344.7481, 1063.202
345.2302, 1072.001
345.7123, 1068.942
346.1945, 1065.284
346.6766, 1064.606
347.1587, 1064.808
347.6408, 1061.725
348.1229, 1052.697
348.6050, 1043.788
349.0872, 1048.500
349.5693, 1071.717
350.0514, 1086.572
350.5335, 1075.612
351.0156, 1061.295
351.4977, 1062.183
351.9799, 1079.860
352.4620, 1097.549
352.9441, 1102.198
353.4262, 1096.802
353.9083, 1093.323
354.3904, 1094.895
354.8726, 1094.389
355.3547, 1078.059
355.8368, 1052.356
356.3189, 1041.993
356.8010, 1067.313
357.2831, 1099.863
357.7653, 1112.781
358.2474, 1107.165
358.7295, 1097.492
359.2116, 1090.879
359.6937, 1086.339
360.1758, 1080.115
360.6580, 1070.059
361.1401, 1061.655
361.6222, 1058.397
362.1043, 1056.915
362.5864, 1052.331
363.0685, 1043.248
363.5507, 1032.236
364.0328, 1022.707
364.5149, 1014.190
364.9970, 1008.886
365.4791, 1010.392
365.9612, 1011.441
366.4434, 1007.233
366.9255, 998.8186
367.4076, 990.4614
367.8897, 985.3220
368.3718, 982.8840
368.8539, 979.3473
369.3361, 972.6072
369.8182, 967.9865
370.3003, 966.8818
370.7824, 968.1858
371.2645, 972.2992
371.7466, 979.7087
372.2288, 984.8021
372.7109, 977.7512
373.1930, 957.4384
373.6751, 941.6743
374.1572, 933.4451
374.6393, 931.4039
375.1215, 936.3652
375.6036, 947.2649
376.0857, 956.1049
376.5678, 957.1417
377.0499, 954.0125
377.5320, 953.9489
378.0142, 957.8015
378.4963, 960.1249
378.9784, 956.4664
379.4605, 948.2634
379.9426, 942.1857
380.4247, 937.1408
380.9069, 935.4968
381.3890, 942.0988
381.8711, 952.6755
382.3532, 957.0685
382.8353, 951.1333
383.3174, 940.9305
383.7996, 936.6160
384.2817, 940.3421
384.7638, 946.3339
385.2459, 957.3460
385.7280, 968.4445
386.2101, 976.1257
386.6923, 980.5112
387.1744, 983.9453
387.6565, 988.6808
388.1386, 994.3637
388.6207, 995.3091
389.1028, 981.4923
389.5850, 976.1136
390.0671, 988.2937
390.5492, 1009.425
391.0313, 1030.881
391.5134, 1049.716
391.9955, 1064.434
392.4777, 1070.690
392.9598, 1067.257
393.4419, 1068.178
393.9240, 1076.163
394.4061, 1089.062
394.8882, 1107.244
395.3704, 1129.535
395.8525, 1148.699
396.3346, 1155.751
396.8167, 1159.607
397.2988, 1177.527
397.7809, 1211.018
398.2631, 1242.811
398.7452, 1263.364
399.2273, 1273.757
399.7094, 1280.106
400.1915, 1276.446
400.6736, 1276.964
401.1558, 1291.142
401.6379, 1312.022
402.1200, 1328.385
402.6021, 1337.054
403.0842, 1341.285
403.5663, 1345.555
404.0485, 1350.774
404.5306, 1352.782
405.0127, 1353.321
405.4948, 1349.602
405.9769, 1339.070
406.4590, 1323.097
406.9412, 1304.756
407.4233, 1285.838
407.9054, 1266.366
408.3875, 1247.317
408.8696, 1230.290
409.3517, 1210.331
409.8339, 1181.883
410.3160, 1153.056
410.7981, 1131.056
411.2802, 1117.013
411.7623, 1106.441
412.2444, 1096.911
412.7266, 1087.958
413.2087, 1075.762
413.6908, 1044.425
414.1729, 1053.304
414.6550, 1055.145
415.1371, 1050.327
415.6193, 1018.904
416.1014, 1021.835
416.5835, 1011.000
417.0656, 999.5996
417.5477, 1007.366
418.0298, 979.8145
418.5120, 987.2756
418.9941, 980.7607
419.4762, 980.6434
419.9583, 966.6733
420.4404, 956.9823
420.9225, 961.1479
421.4047, 957.6392
421.8868, 955.2455
422.3689, 970.2092
422.8510, 978.0291
423.3331, 969.8129
423.8152, 948.1870
424.2974, 937.3191
424.7795, 944.6523
425.2616, 952.6245
425.7437, 960.1116
426.2258, 965.1946
426.7079, 964.5427
427.1901, 957.2809
427.6722, 949.7021
428.1543, 949.3015
428.6364, 955.5693
429.1185, 960.9470
429.6006, 964.9646
430.0828, 967.2733
430.5649, 966.7831
431.0470, 964.3262
431.5291, 962.3416
432.0112, 958.8762
432.4933, 958.1981
432.9755, 965.0060
433.4576, 978.2001
433.9397, 994.2738
434.4218, 1013.359
434.9039, 1030.944
435.3860, 1036.681
435.8682, 1020.937
436.3503, 1014.141
436.8324, 1022.972
437.3145, 1037.595
437.7966, 1051.418
438.2787, 1063.735
438.7609, 1075.946
439.2430, 1088.980
439.7251, 1103.092
440.2072, 1121.190
440.6893, 1150.192
441.1714, 1172.343
441.6536, 1177.416
442.1357, 1178.461
442.6178, 1189.893
443.0999, 1214.926
443.5820, 1241.159
444.0641, 1251.535
444.5463, 1250.138
445.0284, 1267.324
445.5105, 1313.801
445.9926, 1361.800
446.4747, 1388.117
446.9568, 1399.191
447.4390, 1411.218
447.9211, 1429.171
448.4032, 1446.751
448.8853, 1455.784
449.3674, 1461.179
449.8495, 1479.034
450.3317, 1516.607
450.8138, 1557.989
451.2959, 1576.759
451.7780, 1561.261
452.2601, 1553.877
452.7422, 1556.271
453.2244, 1564.735
453.7065, 1582.027
454.1886, 1603.671
454.6707, 1620.330
455.1528, 1625.938
455.6349, 1623.312
456.1171, 1620.329
456.5992, 1617.136
457.0813, 1613.119
457.5634, 1600.626
458.0455, 1592.522
458.5276, 1599.906
459.0098, 1622.830
459.4919, 1649.499
459.9740, 1674.393
460.4561, 1697.610
460.9382, 1716.874
461.4203, 1731.474
461.9025, 1752.438
462.3846, 1789.070
462.8667, 1836.373
463.3488, 1876.012
463.8309, 1900.129
464.3130, 1929.389
464.7952, 1964.927
465.2773, 2010.835
465.7594, 2076.984
466.2415, 2162.828
466.7236, 2250.669
467.2057, 2321.156
467.6879, 2373.152
468.1700, 2437.439
468.6521, 2529.267
469.1342, 2616.026
469.6163, 2690.453
470.0984, 2756.039
470.5806, 2817.589
471.0627, 2876.158
471.5448, 2931.375
472.0269, 2987.717
472.5090, 3043.670
472.9911, 3075.095
473.4733, 3074.927
473.9554, 3057.772
474.4375, 3029.316
474.9196, 2992.533
475.4017, 2955.725
475.8839, 2927.024
476.3660, 2892.312
476.8481, 2846.428
477.3302, 2787.198
477.8123, 2704.858
478.2944, 2594.840
478.7766, 2476.055
479.2587, 2378.671
479.7408, 2308.148
480.2229, 2242.065
480.7050, 2180.309
481.1871, 2122.318
481.6693, 2069.570
482.1514, 2020.582
482.6335, 1972.174
483.1156, 1922.492
483.5977, 1874.753
484.0798, 1835.358
484.5620, 1804.803
485.0441, 1779.558
485.5262, 1763.584
486.0083, 1747.942
486.4904, 1722.369
486.9725, 1689.060
487.4547, 1663.462
487.9368, 1657.547
488.4189, 1657.556
488.9010, 1649.249
489.3831, 1633.640
489.8652, 1617.169
490.3474, 1602.028
490.8295, 1589.425
491.3116, 1581.267
491.7937, 1574.653
492.2758, 1579.596
492.7579, 1604.644
493.2401, 1633.764
493.7222, 1657.710
494.2043, 1676.747
494.6864, 1694.336
495.1685, 1711.269
495.6506, 1731.388
496.1328, 1766.587
496.6149, 1820.751
497.0970, 1877.576
497.5791, 1932.462
498.0612, 1989.703
498.5433, 2048.188
499.0254, 2109.289
499.5075, 2185.708
499.9897, 2284.464
500.4718, 2401.074
500.9539, 2533.545
501.4360, 2680.107
501.9181, 2829.989
502.4002, 2975.021
502.8824, 3123.308
503.3645, 3295.289
503.8466, 3500.787
504.3287, 3713.120
504.8108, 3926.858
505.2929, 4150.581
505.7751, 4397.928
506.2572, 4661.782
506.7393, 4924.677
507.2214, 5170.962
507.7035, 5408.465
508.1856, 5663.363
508.6678, 5948.130
509.1499, 6205.708
509.6320, 6415.012
510.1141, 6595.240
510.5962, 6773.194
511.0783, 6946.846
511.5605, 7067.348
512.0426, 7116.619
512.5247, 7099.836
513.0068, 7016.870
513.4890, 6870.921
513.9711, 6678.836
514.4532, 6447.440
514.9353, 6178.208
515.4174, 5877.845
515.8995, 5519.253
516.3817, 5174.147
516.8638, 4839.405
517.3459, 4521.714
517.8280, 4229.723
518.3101, 3960.795
518.7922, 3710.090
519.2744, 3473.050
519.7565, 3252.037
520.2386, 3050.357
520.7207, 2869.631
521.2028, 2703.312
521.6849, 2550.229
522.1671, 2413.157
522.6492, 2292.232
523.1313, 2187.411
523.6134, 2095.050
524.0955, 2020.791
524.5776, 1953.316
525.0598, 1880.517
525.5419, 1805.054
526.0240, 1737.619
526.5061, 1682.735
526.9882, 1636.602
527.4703, 1592.588
527.9525, 1548.505
528.4346, 1511.783
528.9167, 1490.469
529.3988, 1467.728
529.8809, 1435.086
530.3630, 1395.417
530.8452, 1353.077
531.3273, 1308.218
531.8094, 1269.447
532.2915, 1256.200
532.7736, 1267.061
533.2557, 1258.769
533.7379, 1213.410
534.2200, 1166.030
534.7021, 1153.904
535.1842, 1171.400
535.6663, 1180.686
536.1484, 1173.293
536.6306, 1161.439
537.1127, 1149.033
537.5948, 1137.068
538.0769, 1127.515
538.5590, 1120.821
539.0411, 1114.886
539.5233, 1107.030
540.0054, 1097.144
540.4875, 1086.825
540.9696, 1073.238
541.4517, 1063.231
541.9338, 1062.599
542.4160, 1065.057
542.8981, 1062.038
543.3802, 1050.811
543.8623, 1038.603
544.3444, 1031.652
544.8265, 1028.019
545.3087, 1022.590
545.7908, 1014.627
546.2729, 1007.393
546.7550, 1003.303
547.2371, 1001.806
547.7192, 1000.001
548.2014, 998.3109
548.6835, 995.7558
549.1656, 992.1857
549.6477, 987.7184
550.1298, 982.4374
550.6119, 976.3591
551.0941, 969.4919
551.5762, 961.9540
552.0583, 953.5759
552.5404, 942.5107
553.0225, 926.8252
553.5046, 917.1624
553.9868, 919.2860
554.4689, 927.0964
554.9510, 935.1947
555.4331, 943.6094
555.9152, 947.3061
556.3973, 938.7130
556.8795, 929.5661
557.3616, 934.1994
557.8437, 947.3806
558.3258, 950.2010
558.8079, 933.5976
559.2900, 910.5839
559.7722, 905.9136
560.2543, 928.9044
560.7364, 941.3450
561.2185, 933.9494
561.7006, 924.9229
562.1827, 920.7484
562.6649, 919.5009
563.1470, 917.2202
563.6291, 912.3171
564.1112, 906.7702
564.5933, 903.9868
565.0754, 902.2616
565.5576, 894.0229
566.0397, 877.1049
566.5218, 862.5876
567.0039, 861.3536
567.4860, 871.4456
567.9681, 871.7442
568.4503, 845.4163
568.9324, 832.4450
569.4145, 852.8586
569.8966, 881.4923
570.3787, 893.1369
570.8608, 886.5909
571.3430, 879.1630
571.8251, 886.5853
572.3072, 903.0125
572.7893, 907.9050
573.2714, 899.3624
573.7535, 889.0279
574.2357, 875.4943
574.7178, 867.0367
575.1999, 879.8778
575.6820, 915.2801
576.1641, 934.2849
576.6462, 913.3417
577.1284, 886.0477
577.6105, 874.3815
578.0926, 875.8581
578.5747, 883.5477
579.0568, 894.6027
579.5389, 905.1599
580.0211, 909.0333
580.5032, 905.3620
580.9852, 899.4926
581.4673, 886.4799
581.9495, 878.0269
582.4316, 880.7144
582.9137, 889.9193
583.3958, 899.5178
583.8779, 909.0593
584.3600, 915.4973
584.8422, 915.3513
585.3243, 911.3533
585.8064, 907.7876
586.2885, 905.1751
586.7706, 903.1481
587.2527, 901.9670
587.7349, 900.5043
588.2170, 893.7801
588.6991, 872.2693
589.1812, 861.7531
589.6633, 872.7356
590.1454, 885.9146
590.6276, 889.2707
591.1097, 884.2177
591.5918, 878.0536
592.0739, 873.3840
592.5560, 871.1248
593.0381, 873.6768
593.5203, 880.1667
594.0024, 885.6029
594.4845, 888.6632
594.9666, 891.2502
595.4487, 895.8075
595.9308, 902.3874
596.4130, 905.0926
596.8951, 904.6802
597.3772, 900.0046
597.8593, 883.1325
598.3414, 866.3700
598.8235, 864.9060
599.3057, 879.4337
599.7878, 895.3423
600.2699, 899.7828
600.7520, 896.2740
601.2341, 895.6904
601.7162, 898.3380
602.1984, 901.1644
602.6805, 904.2741
603.1626, 905.5860
603.6447, 900.3691
604.1268, 887.4122
604.6089, 879.4692
605.0911, 884.4913
605.5732, 888.1099
606.0553, 878.4874
606.5374, 863.0463
607.0195, 855.3423
607.5016, 859.8890
607.9838, 869.4017
608.4659, 876.3906
608.9480, 880.7487
609.4301, 878.9551
609.9122, 868.0819
610.3943, 858.7612
610.8765, 856.1294
611.3586, 858.2769
611.8407, 862.1977
612.3228, 868.6440
612.8049, 873.8055
613.2870, 876.2488
613.7692, 877.2312
614.2513, 878.5207
614.7334, 879.3386
615.2155, 876.3620
615.6976, 867.7639
616.1797, 857.8318
616.6619, 854.1244
617.1440, 856.9590
617.6261, 864.6418
618.1082, 883.8788
618.5903, 897.5020
619.0724, 888.9721
619.5546, 870.0986
620.0367, 861.6102
620.5188, 869.6625
621.0009, 879.9901
621.4830, 888.1500
621.9651, 893.8683
622.4473, 897.2856
622.9294, 898.0010
623.4115, 893.4253
623.8936, 881.1838
624.3757, 865.7916
624.8578, 859.4037
625.3400, 864.4724
625.8221, 870.3238
626.3042, 879.2903
626.7863, 884.9805
627.2684, 880.3461
627.7505, 870.1773
628.2327, 866.6758
628.7148, 878.1669
629.1969, 886.5519
629.6790, 875.1350
630.1611, 856.4844
630.6432, 851.1069
631.1254, 860.3406
631.6075, 871.2164
632.0896, 874.8148
632.5717, 871.8687
633.0538, 863.8731
633.5359, 846.4551
634.0181, 835.7566
634.5002, 839.5246
634.9823, 845.1698
635.4644, 844.2254
635.9465, 838.8705
636.4286, 836.7974
636.9108, 844.5508
637.3929, 849.6917
637.8750, 840.3416
638.3571, 823.8932
638.8392, 812.6202
639.3214, 808.5360
639.8035, 807.8712
640.2856, 807.8411
640.7677, 808.4452
641.2498, 810.2184
641.7319, 815.3833
642.2141, 816.1818
642.6962, 803.6780
643.1783, 793.4395
643.6604, 799.2626
644.1425, 816.3945
644.6246, 826.5997
645.1068, 821.0067
645.5889, 811.3644
646.0710, 800.9440
646.5531, 793.5373
647.0352, 800.1125
647.5173, 820.3402
647.9995, 836.0956
648.4816, 831.0397
648.9637, 810.1156
649.4458, 796.8740
649.9279, 792.6359
650.4100, 792.7903
650.8922, 801.0509
651.3743, 809.3943
651.8564, 812.5574
652.3385, 811.1294
652.8206, 807.9940
653.3027, 803.6677
653.7849, 798.1415
654.2670, 789.2081
654.7491, 779.9500
655.2312, 776.1428
655.7133, 778.0969
656.1954, 780.3532
656.6776, 778.4820
657.1597, 773.4705
657.6418, 768.5665
658.1239, 762.4531
658.6060, 761.2681
659.0881, 771.3851
659.5703, 780.9479
660.0524, 779.6390
660.5345, 770.1896
661.0166, 762.6765
661.4987, 758.1315
661.9808, 757.1541
662.4630, 762.9052
662.9451, 770.8646
663.4272, 776.1538
663.9093, 777.6624
664.3914, 774.5273
664.8735, 764.9246
665.3557, 753.1082
665.8378, 753.8701
666.3199, 770.4235
666.8020, 778.5690
667.2841, 771.0064
667.7662, 759.2723
668.2484, 749.8168
668.7305, 743.3619
669.2126, 743.1337
669.6947, 754.9500
670.1768, 765.0980
670.6589, 770.1799
671.1411, 770.9247
671.6232, 766.0651
672.1053, 757.2880
672.5874, 749.3795
673.0695, 745.0587
673.5516, 744.0280
674.0338, 747.5831
674.5159, 755.5955
674.9980, 757.2473
675.4801, 748.5536
675.9622, 741.1083
676.4443, 744.9937
676.9265, 756.6302
677.4086, 760.9325
677.8907, 752.4912
678.3728, 746.4529
678.8549, 745.4961
679.3370, 746.9056
679.8192, 752.3093
680.3013, 758.1473
680.7834, 755.2820
681.2655, 738.2437
681.7476, 719.6425
682.2297, 717.0240
682.7119, 726.3005
683.1940, 731.1667
683.6761, 729.6641
684.1582, 728.2640
684.6403, 731.6629
685.1224, 736.5268
685.6046, 733.6240
686.0867, 713.6333
686.5688, 705.8036
687.0509, 724.7458
687.5330, 739.3353
688.0151, 729.4413
688.4973, 708.2681
688.9794, 698.6054
689.4615, 707.4651
689.9436, 719.7223
690.4257, 724.1194
690.9078, 724.5970
691.3900, 729.4406
691.8721, 737.4660
692.3542, 737.2868
692.8363, 722.9336
693.3184, 706.0172
693.8005, 707.5646
694.2827, 732.4556
694.7648, 742.4985
695.2469, 704.1673
695.7290, 732.2034
696.2111, 748.5109
696.6932, 753.7197
697.1754, 714.5895
697.6575, 732.7141
698.1396, 727.8936
698.6217, 722.1321
699.1038, 748.3154
699.5859, 715.6337
700.0681, 741.3107
700.5502, 743.6917
701.0323, 756.7347
701.5144, 746.6906
701.9965, 743.7773
702.4786, 763.9583
702.9608, 771.3522
703.4429, 758.6503
703.9250, 772.3710
704.4071, 738.8831
704.8892, 746.8214
705.3713, 772.6330
705.8535, 761.0923
706.3356, 766.1983
706.8177, 758.0513
707.2998, 751.1781
707.7819, 752.8201
708.2640, 758.7126
708.7462, 767.0135
709.2283, 775.6630
709.7104, 779.3698
710.1925, 773.1193
710.6746, 764.3671
711.1567, 765.5022
711.6389, 774.3546
712.1210, 780.7335
712.6031, 782.9592
713.0852, 782.2151
713.5673, 778.6472
714.0494, 773.4162
714.5316, 770.9902
715.0137, 773.3206
715.4958, 774.8035
715.9779, 773.1714
716.4600, 772.8840
716.9421, 778.7662
717.4243, 786.7374
717.9064, 788.8546
718.3885, 782.0349
718.8706, 774.4937
719.3527, 769.7789
719.8348, 767.8754
720.3170, 769.6105
720.7991, 774.2504
721.2812, 780.2289
721.7633, 786.8762
722.2454, 791.7927
722.7275, 789.3909
723.2097, 779.6119
723.6918, 781.4524
724.1739, 800.6925
724.6560, 813.5889
725.1381, 808.6805
725.6202, 795.2465
726.1024, 784.3935
726.5845, 775.8069
727.0666, 772.0778
727.5487, 776.2859
728.0308, 782.0081
728.5129, 787.9836
728.9951, 793.3834
729.4772, 796.7394
729.9593, 798.3752
730.4414, 800.6166
730.9235, 803.5898
731.4056, 809.8705
731.8878, 828.4028
732.3699, 854.8362
732.8520, 868.2276
733.3341, 863.9928
733.8162, 854.1434
734.2983, 846.8492
734.7805, 843.1375
735.2626, 848.5225
735.7447, 870.2111
736.2268, 885.0938
736.7089, 888.0710
737.1910, 887.3361
737.6732, 884.8635
738.1553, 882.0807
738.6374, 881.2633
739.1195, 882.3088
739.6016, 887.0892
740.0837, 901.6160
740.5659, 916.1014
741.0480, 919.1379
741.5301, 914.4325
742.0122, 913.7960
742.4943, 921.5659
742.9764, 928.6647
743.4586, 921.3948
743.9407, 903.0409
744.4228, 892.5142
744.9049, 890.1396
745.3870, 892.9797
745.8691, 902.2006
746.3513, 911.1317
746.8334, 909.9507
747.3155, 897.4489
747.7976, 893.7060
748.2797, 911.2139
748.7618, 920.8636
749.2440, 909.2607
749.7261, 894.8698
750.2082, 896.7242
750.6903, 910.8281
751.1724, 914.9527
751.6545, 893.4565
752.1367, 870.5309
752.6188, 866.4526
753.1009, 872.0578
753.5830, 872.5524
754.0651, 867.3394
754.5472, 863.9844
755.0294, 866.7979
755.5115, 874.9170
755.9936, 890.2820
756.4757, 913.3104
756.9578, 921.4878
757.4399, 910.7419
757.9221, 894.6324
758.4042, 876.6964
758.8863, 860.0645
759.3684, 850.6694
759.8505, 850.7466
760.3326, 850.1582
760.8148, 848.0484
761.2969, 846.2275
761.7790, 847.3176
762.2611, 847.8027
762.7432, 843.2371
763.2253, 833.4996
763.7075, 822.8300
764.1896, 810.9486
764.6717, 801.8958
765.1538, 802.8667
765.6359, 809.0042
766.1180, 810.1548
766.6002, 804.6061
767.0823, 794.9404
767.5644, 781.9673
768.0465, 769.8538
768.5286, 771.7706
769.0107, 789.5182
769.4929, 802.4421
769.9750, 806.9221
770.4571, 810.7947
770.9392, 819.8979
771.4213, 830.7947
771.9034, 835.3877
772.3856, 832.3856
772.8677, 827.0952
773.3498, 819.3378
773.8319, 809.7539
774.3140, 795.7037
774.7961, 781.5480
775.2783, 771.1490
775.7604, 765.7278
776.2425, 767.9252
776.7246, 787.4113
777.2067, 808.2930
777.6888, 811.6210
778.1710, 804.4817
778.6531, 804.4657
779.1352, 813.8307
779.6173, 819.1024
780.0994, 809.0952
780.5815, 789.2882
781.0637, 771.7625
781.5458, 756.0181
782.0279, 754.2032
782.5100, 772.3453
782.9921, 790.2439
783.4742, 795.9385
783.9564, 792.3777
784.4385, 786.1030
784.9206, 773.4795
785.4027, 767.3148
785.8848, 770.8073
786.3669, 776.9206
786.8491, 786.5042
787.3312, 795.2891
787.8133, 798.0601
788.2954, 794.2251
788.7775, 788.2936
789.2596, 778.1375
789.7418, 770.9679
790.2239, 775.8469
790.7060, 786.3670
791.1881, 790.4262
791.6702, 787.3411
792.1523, 787.4815
792.6345, 799.4745
793.1166, 814.7240
793.5987, 813.7388
794.0808, 798.4480
794.5629, 791.2488
795.0450, 796.1824
795.5272, 795.0806
796.0093, 775.0566
796.4914, 747.3880
796.9735, 735.6183
797.4556, 744.4488
797.9377, 750.6525
798.4199, 752.3440
798.9020, 753.9066
799.3841, 758.0328
799.8662, 761.6653
800.3483, 760.6136
800.8304, 755.1716
801.3126, 752.0760
801.7947, 755.3455
802.2768, 758.6810
802.7589, 754.3390
803.2410, 751.7993
803.7231, 766.5211
804.2053, 793.5840
804.6874, 811.7462
805.1695, 808.1885
805.6516, 800.0217
806.1337, 807.9229
806.6158, 826.7047
807.0980, 846.8317
807.5801, 866.3317
808.0622, 875.7295
808.5443, 870.5599
809.0264, 858.1615
809.5085, 848.8522
809.9907, 842.4858
810.4728, 830.5860
810.9549, 808.6767
811.4370, 797.2217
811.9191, 808.2272
812.4012, 821.9150
812.8834, 818.7979
813.3655, 800.8226
813.8476, 786.4221
814.3297, 773.3498
814.8118, 766.9896
815.2939, 776.7899
815.7761, 784.7856
816.2582, 778.0505
816.7403, 761.9650
817.2224, 747.4524
817.7045, 737.4513
818.1866, 727.9395
818.6688, 717.4205
819.1509, 705.7560
819.6330, 687.4670
820.1151, 669.3492
820.5972, 668.3472
821.0793, 686.2162
821.5615, 704.1869
822.0436, 707.1767
822.5257, 699.3771
823.0078, 685.3275
823.4899, 667.1368
823.9720, 662.0921
824.4542, 673.4750
824.9363, 683.2958
825.4184, 653.8745
825.9005, 679.8772
826.3826, 694.1512
826.8647, 697.3268
827.3469, 656.1627
827.8290, 672.2541
828.3111, 665.4000
828.7932, 657.6051
829.2753, 681.7549
829.7574, 647.0400
830.2396, 670.6830
830.7217, 671.0307
831.2038, 682.0402
831.6859, 669.9625
832.1680, 665.0157
832.6501, 683.1635
833.1323, 688.5233
833.6144, 677.1649
834.0965, 679.0264
834.5786, 662.8321
835.0607, 648.9793
835.5428, 656.0479
836.0250, 668.8927
836.5071, 668.1935
836.9892, 658.8607
837.4713, 658.6127
837.9534, 671.7964
838.4355, 680.8093
838.9177, 663.2748
839.3998, 633.7145
839.8819, 632.0547
840.3640, 653.9147
840.8461, 665.8649
841.3282, 661.0024
841.8104, 653.1307
842.2925, 652.0596
842.7746, 655.5329
843.2567, 657.5447
843.7388, 657.7895
844.2209, 658.0168
844.7031, 658.1840
845.1852, 658.6632
845.6673, 661.1555
846.1494, 662.6049
846.6315, 657.1886
847.1136, 643.6758
847.5958, 636.8079
848.0779, 640.5914
848.5600, 645.5901
849.0421, 652.0978
849.5242, 657.2906
850.0063, 658.2980
850.4885, 656.3081
850.9706, 655.2551
851.4527, 657.3149
851.9348, 656.7134
852.4169, 645.6220
852.8990, 635.2097
853.3812, 636.6427
853.8633, 645.5594
854.3454, 653.4406
854.8275, 657.8687
855.3096, 661.0370
855.7917, 666.4227
856.2739, 669.6991
856.7560, 660.2206
857.2381, 643.6906
857.7202, 638.2361
858.2023, 645.2430
858.6844, 650.5825
859.1666, 645.6020
859.6487, 634.0280
860.1308, 618.7849
860.6129, 600.5784
861.0950, 602.5942
861.5771, 628.7618
862.0593, 646.7681
862.5414, 643.4764
863.0235, 631.3303
863.5056, 623.5418
863.9877, 619.9792
864.4698, 618.9189
864.9520, 621.8043
865.4341, 623.9191
865.9162, 622.2576
866.3983, 622.7161
866.8804, 632.9656
867.3625, 646.6981
867.8447, 650.4327
868.3268, 640.1321
868.8089, 633.8671
869.2910, 639.5787
869.7731, 642.8514
870.2552, 634.5801
870.7374, 623.1369
871.2195, 617.9247
871.7016, 618.9085
872.1837, 619.0554
872.6658, 612.9685
873.1479, 610.1445
873.6301, 618.1739
874.1122, 630.8524
874.5943, 647.2601
875.0764, 661.6174
875.5585, 658.5477
876.0406, 633.6265
876.5228, 610.8356
877.0049, 618.3121
877.4870, 637.9562
877.9691, 639.3755
878.4512, 627.9340
878.9333, 618.3967
879.4155, 614.3710
879.8976, 617.3539
880.3797, 629.2379
880.8618, 644.4550
881.3439, 652.9306
881.8260, 654.7328
882.3082, 647.3279
882.7903, 629.7725
883.2724, 622.0807
883.7545, 634.5506
884.2366, 649.9492
884.7188, 645.8821
885.2009, 624.6638
885.6830, 615.3906
886.1651, 623.2612
886.6472, 625.6769
887.1293, 614.6230
887.6115, 606.4792
888.0936, 614.8392
888.5757, 631.5963
889.0578, 636.4818
889.5399, 621.6284
890.0220, 620.2468
890.5042, 654.0645
890.9863, 673.0669
891.4684, 646.9503
891.9505, 613.7208
892.4326, 613.2903
892.9147, 639.1733
893.3969, 649.5421
893.8790, 624.8868
894.3611, 604.2112
894.8432, 601.9725
895.3253, 604.4885
895.8074, 603.7076
896.2896, 600.5071
896.7717, 596.0278
897.2538, 591.0044
897.7359, 591.1974
898.2180, 606.1945
898.7001, 620.8799
899.1823, 622.5342
899.6644, 616.9824
900.1465, 608.9244
900.6286, 601.5120
901.1107, 601.8637
901.5928, 613.8128
902.0750, 627.0936
902.5571, 631.2028
903.0392, 629.4031
903.5213, 626.9782
904.0034, 623.9605
904.4855, 618.5687
904.9677, 610.8862
905.4498, 605.7988
905.9319, 607.6405
906.4140, 613.3730
906.8961, 616.7786
907.3782, 618.2496
907.8604, 621.0564
908.3425, 625.3754
908.8246, 625.4877
909.3067, 618.3486
909.7888, 610.5932
910.2709, 610.8931
910.7530, 618.3287
911.2351, 626.3552
911.7172, 636.0200
912.1993, 638.3547
912.6815, 630.3638
913.1636, 619.1788
913.6457, 607.2753
914.1278, 598.0411
914.6099, 600.1360
915.0920, 617.2299
915.5742, 626.3931
916.0563, 624.5430
916.5384, 620.7013
917.0205, 615.3464
917.5026, 611.0995
917.9847, 611.3379
918.4669, 614.9572
918.9490, 615.8458
919.4311, 609.6508
919.9132, 608.3253
920.3953, 618.3757
920.8774, 625.9260
921.3596, 621.7574
921.8417, 614.3453
922.3238, 614.3997
922.8059, 622.1415
923.2880, 629.1288
923.7701, 636.5142
924.2523, 639.1299
924.7344, 629.1584
925.2165, 619.9254
925.6986, 624.0262
926.1807, 635.0294
926.6628, 639.8572
927.1450, 635.5212
927.6271, 629.5341
928.1092, 624.4220
928.5913, 619.5896
929.0734, 613.3160
929.5555, 607.9877
930.0377, 605.7397
930.5198, 607.0644
931.0019, 613.6556
931.4840, 627.5551
931.9661, 637.6441
932.4482, 630.1075
932.9304, 619.3124
933.4125, 623.3190
933.8946, 634.9070
934.3767, 637.9755
934.8588, 631.2424
935.3409, 627.5682
935.8231, 636.2289
936.3052, 646.7057
936.7873, 645.9785
937.2694, 638.5153
937.7515, 630.4879
938.2336, 623.4752
938.7158, 619.9150
939.1979, 620.6898
939.6800, 626.8577
940.1621, 641.6717
940.6442, 658.6037
941.1263, 664.6897
941.6085, 661.7850
942.0906, 654.4372
942.5727, 644.2073
943.0548, 638.6578
943.5369, 641.3150
944.0190, 645.4575
944.5012, 641.8099
944.9833, 633.0562
945.4654, 629.6757
945.9475, 631.5382
946.4296, 637.8763
946.9117, 648.6243
947.3939, 660.2227
947.8760, 670.9045
948.3581, 679.1049
948.8402, 681.4799
949.3223, 678.2244
949.8044, 675.4163
950.2866, 672.9556
950.7687, 672.2589
951.2508, 674.0756
951.7329, 675.6751
952.2150, 674.8325
952.6971, 672.4619
953.1793, 670.8571
953.6614, 669.9755
954.1435, 669.9438
954.6256, 670.4197
955.1077, 673.6211
955.5898, 682.1749
956.0720, 688.9338
956.5541, 685.3596
957.0362, 674.8228
957.5183, 673.3810
958.0004, 684.3986
958.4825, 694.9595
958.9647, 707.6045
959.4468, 713.2067
959.9289, 704.2781
960.4110, 691.5231
960.8931, 688.3627
961.3752, 693.7863
961.8574, 692.8631
962.3395, 677.3328
962.8216, 672.4672
963.3037, 690.3287
963.7858, 704.1604
964.2679, 695.3429
964.7501, 679.8432
965.2322, 681.8274
965.7143, 702.5087
966.1964, 715.4233
966.6785, 719.6218
967.1606, 717.3268
967.6428, 697.2084
968.1249, 682.9269
968.6070, 694.2655
969.0891, 716.5434
969.5712, 726.2869
970.0533, 722.1489
970.5355, 710.9532
971.0176, 672.9200
971.4997, 656.1260
971.9818, 691.4708
972.4639, 730.4747
972.9460, 737.8591
973.4282, 726.0737
973.9103, 723.2635
974.3924, 734.2149
974.8745, 741.1453
975.3566, 738.8149
975.8387, 735.3242
976.3209, 728.8347
976.8030, 726.0613
977.2851, 738.4597
977.7672, 757.8705
978.2493, 761.3525
978.7314, 740.0906
979.2136, 726.4124
979.6957, 735.6472
980.1778, 744.0528
980.6599, 735.1463
981.1420, 726.0336
981.6241, 736.2065
982.1063, 760.4852
982.5884, 781.1412
983.0705, 798.2232
983.5526, 797.7275
984.0347, 757.4382
984.5168, 719.5812
984.9990, 702.7247
985.4811, 701.7928
985.9632, 718.5203
986.4453, 745.3618
986.9274, 757.9668
987.4095, 743.2308
987.8917, 733.2696
988.3738, 749.0802
988.8559, 762.7359
989.3380, 753.1692
989.8201, 735.0332
990.3022, 727.0146
990.7844, 728.7096
991.2665, 727.3917
991.7486, 717.2115
992.2307, 708.6406
992.7128, 703.4775
993.1949, 704.1296
993.6771, 717.6317
994.1592, 734.5729
994.6413, 740.0065
995.1234, 735.7020
995.6055, 741.0338
996.0876, 772.6492
996.5698, 791.3398
997.0519, 763.9144
997.5340, 732.9615
998.0161, 730.6474
998.4982, 743.2386
998.9803, 751.0458
999.4625, 751.7112
999.9446, 752.3817
1000.427, 755.5601
1000.909, 759.4680
1001.391, 766.6494
1001.873, 770.8422
1002.355, 763.8089
1002.837, 752.7546
1003.319, 749.0657
1003.802, 752.9949
1004.284, 754.8145
1004.766, 749.4940
1005.248, 744.1655
1005.730, 742.4550
1006.212, 741.7286
1006.694, 742.6749
1007.176, 741.8491
1007.658, 731.1949
1008.141, 712.4266
1008.623, 702.0297
1009.105, 710.7782
1009.587, 720.1287
1010.069, 720.7631
1010.551, 719.7455
1011.033, 723.4396
1011.515, 728.2158
1011.997, 728.6617
1012.480, 724.2377
1012.962, 717.0408
1013.444, 703.3732
1013.926, 695.6074
1014.408, 704.6173
1014.890, 715.4664
1015.372, 718.1249
1015.854, 715.6838
1016.337, 712.7138
1016.819, 709.9740
1017.301, 707.1477
1017.783, 704.6475
1018.265, 701.0318
1018.747, 693.7442
1019.229, 687.3071
1019.711, 685.3463
1020.193, 685.6083
1020.676, 685.3082
1021.158, 684.1107
1021.640, 682.9634
1022.122, 685.6066
1022.604, 681.3973
1023.086, 658.0297
1023.568, 636.8043
1024.050, 630.5908
1024.533, 633.2738
1025.015, 638.3392
1025.497, 644.5986
1025.979, 650.8987
1026.461, 659.3470
1026.943, 662.9500
1027.425, 651.4294
1027.907, 644.7003
1028.390, 659.2673
1028.872, 679.3368
1029.354, 685.2643
1029.836, 679.2519
1030.318, 680.4764
1030.800, 702.3524
1031.282, 708.8055
1031.764, 675.0873
1032.246, 647.8733
1032.729, 649.6540
1033.211, 665.0513
1033.693, 684.5267
1034.175, 704.2768
1034.657, 710.8423
1035.139, 695.0347
1035.621, 684.9456
1036.103, 688.4482
1036.585, 690.5490
1037.068, 684.2466
1037.550, 676.4911
1038.032, 673.3135
1038.514, 673.8223
1038.996, 674.3459
1039.478, 673.6837
1039.960, 676.2475
1040.442, 682.9496
1040.925, 691.8062
1041.407, 710.2350
1041.889, 721.4877
1042.371, 706.7482
1042.853, 677.2282
1043.335, 663.3693
1043.817, 669.5370
1044.299, 672.6187
1044.781, 671.9856
1045.264, 669.0228
1045.746, 660.1743
1046.228, 655.9360
1046.710, 665.4444
1047.192, 682.8064
1047.674, 696.7600
1048.156, 707.7603
1048.638, 708.7429
1049.120, 694.8624
1049.603, 687.9541
1050.085, 695.1334
1050.567, 700.1837
1051.049, 692.1609
1051.531, 679.0449
1052.013, 674.7751
1052.495, 678.7545
1052.977, 676.6641
1053.460, 666.7825
1053.942, 664.2347
1054.424, 672.3545
1054.906, 680.6003
1055.388, 684.2679
1055.870, 682.4062
1056.352, 671.9630
1056.834, 656.0874
1057.317, 652.3574
1057.799, 660.3329
1058.281, 661.2857
1058.763, 653.2568
1059.245, 646.8834
1059.727, 646.5480
1060.209, 647.9150
1060.691, 646.3491
1061.173, 643.5311
1061.656, 644.6196
1062.138, 648.4462
1062.620, 648.8699
1063.102, 645.9677
1063.584, 643.6567
1064.066, 643.0313
1064.548, 640.9276
1065.030, 634.1440
1065.512, 627.0008
1065.995, 627.1046
1066.477, 631.8744
1066.959, 638.6204
1067.441, 644.2740
1067.923, 635.5412
1068.405, 613.6849
1068.887, 603.9725
1069.369, 623.3570
1069.852, 646.0118
1070.334, 641.9864
1070.816, 626.8986
1071.298, 619.3587
1071.780, 617.4085
1072.262, 616.9940
1072.744, 617.0182
1073.226, 616.5958
1073.708, 615.2161
1074.191, 615.5466
1074.673, 619.2874
1075.155, 625.6901
1075.637, 636.0335
1076.119, 647.2401
1076.601, 657.4031
1077.083, 664.9290
1077.565, 666.3928
1078.047, 660.9369
1078.530, 655.3294
1079.012, 651.5682
1079.494, 649.3892
1079.976, 650.9986
1080.458, 651.8521
1080.940, 647.4249
1081.422, 640.5422
1081.904, 635.1252
1082.386, 631.7574
1082.869, 631.3582
1083.351, 641.2238
1083.833, 643.1026
1084.315, 621.1100
1084.797, 606.5950
1085.279, 621.9809
1085.761, 645.5953
1086.243, 651.8896
1086.726, 644.7786
1087.208, 646.0673
1087.690, 661.3352
1088.172, 670.9331
1088.654, 673.1920
1089.136, 672.6036
1089.618, 666.9139
1090.100, 665.6379
1090.583, 679.3932
1091.065, 699.2383
1091.547, 702.3110
1092.029, 687.1328
1092.511, 676.6862
1092.993, 671.1455
1093.475, 669.7811
1093.957, 672.9647
1094.439, 677.6026
1094.922, 682.5201
1095.404, 684.9796
1095.886, 679.4538
1096.368, 669.2870
1096.850, 670.9350
1097.332, 682.7294
1097.814, 692.1254
1098.296, 697.3611
1098.778, 693.5637
1099.261, 679.5013
1099.743, 670.0537
1100.225, 680.4329
1100.707, 698.5013
1101.189, 701.6682
1101.671, 698.2171
1102.153, 710.0898
1102.635, 730.4409
1103.118, 736.6704
1103.600, 725.4268
1104.082, 708.3024
1104.564, 689.7626
1105.046, 677.5513
1105.528, 682.9683
1106.010, 693.5186
1106.492, 694.2462
1106.974, 693.8418
1107.457, 709.5681
1107.939, 735.0141
1108.421, 746.6954
1108.903, 737.2003
1109.385, 728.1187
1109.867, 729.4917
1110.349, 731.9025
1110.831, 730.7670
1111.313, 729.6457
1111.796, 731.5720
1112.278, 735.1480
1112.760, 739.4564
1113.242, 744.0835
1113.724, 742.3505
1114.206, 720.8254
1114.688, 714.0634
1115.170, 735.9150
1115.653, 754.1478
1116.135, 755.9645
1116.617, 751.7729
1117.099, 748.6713
1117.581, 748.4460
1118.063, 759.0046
1118.545, 784.8698
1119.027, 790.7533
1119.510, 770.3540
1119.992, 763.7580
1120.474, 782.1964
1120.956, 798.9125
1121.438, 796.9836
1121.920, 788.8073
1122.402, 794.6240
1122.884, 808.9965
1123.366, 806.7415
1123.849, 790.9830
1124.331, 779.6112
1124.813, 774.6682
1125.295, 775.6275
1125.777, 781.8305
1126.259, 789.2008
1126.741, 796.1945
1127.223, 797.2238
1127.705, 775.2082
1128.188, 749.0301
1128.670, 751.0994
1129.152, 771.4746
1129.634, 792.8806
1130.116, 808.4847
1130.598, 807.0596
1131.080, 780.9380
1131.562, 760.5318
1132.045, 771.0048
1132.527, 783.8441
1133.009, 780.5052
1133.491, 772.1764
1133.973, 771.0077
1134.455, 772.6127
1134.937, 765.2153
1135.419, 747.3493
1135.901, 735.5733
1136.384, 736.0452
1136.866, 737.1146
1137.348, 743.1252
1137.830, 741.3704
1138.312, 715.2463
1138.794, 694.1766
1139.276, 714.0377
1139.758, 758.1544
1140.240, 766.2957
1140.723, 729.9172
1141.205, 712.9988
1141.687, 719.2124
1142.169, 720.6176
1142.651, 710.6816
1143.133, 702.3113
1143.615, 703.2243
1144.097, 707.4547
1144.580, 707.5348
1145.062, 703.9081
1145.544, 697.5060
1146.026, 688.6328
1146.508, 675.5905
1146.990, 660.9598
1147.472, 656.4200
1147.954, 664.1099
1148.437, 672.6152
1148.919, 674.8664
1149.401, 673.6992
1149.883, 671.8645
1150.365, 668.0135
1150.847, 657.3698
1151.329, 646.0655
1151.811, 645.0425
1152.293, 650.7025
1152.776, 648.2951
1153.258, 633.2753
1153.740, 624.7555
1154.222, 635.5048
1154.704, 644.1656
1155.186, 641.9697
1155.668, 638.5351
1156.150, 643.7437
1156.632, 647.6683
1157.115, 635.1372
1157.597, 609.9044
1158.079, 593.5464
1158.561, 587.0513
1159.043, 587.7441
1159.525, 599.6681
1160.007, 602.3042
1160.489, 588.2894
1160.972, 575.0262
1161.454, 572.9750
1161.936, 580.5110
1162.418, 599.1624
1162.900, 622.3879
1163.382, 620.2272
1163.864, 599.2816
1164.346, 589.1579
1164.828, 590.4645
1165.311, 590.2194
1165.793, 584.5071
1166.275, 576.2426
1166.757, 565.2147
1167.239, 560.9722
1167.721, 582.9741
1168.203, 606.6331
1168.685, 604.9499
1169.167, 589.3878
1169.650, 569.1108
1170.132, 551.4366
1170.614, 553.0923
1171.096, 578.9449
1171.578, 594.1021
1172.060, 579.6556
1172.542, 567.4501
1173.024, 566.2245
1173.507, 566.9696
1173.989, 564.1512
1174.471, 562.5840
1174.953, 568.7435
1175.435, 579.5480
1175.917, 583.6824
1176.399, 580.1088
1176.881, 576.0913
1177.364, 570.9287
1177.846, 573.4759
1178.328, 586.4324
1178.810, 587.8832
1179.292, 565.8058
1179.774, 539.7384
1180.256, 531.9927
1180.738, 536.8311
1181.220, 547.8610
1181.703, 559.7687
1182.185, 558.4144
1182.667, 547.6541
1183.149, 538.7994
1183.631, 534.0803
1184.113, 530.2676
1184.595, 525.6428
1185.077, 523.9055
1185.559, 528.3789
1186.042, 535.0085
1186.524, 544.2890
1187.006, 551.9898
1187.488, 555.2896
1187.970, 554.2983
1188.452, 546.9880
1188.934, 534.0992
1189.416, 529.9100
1189.899, 540.5733
1190.381, 545.8238
1190.863, 542.6993
1191.345, 542.3030
1191.827, 548.8381
1192.309, 554.4109
1192.791, 553.8916
1193.273, 548.8043
1193.755, 540.4794
1194.238, 530.3532
1194.720, 523.1643
1195.202, 519.5049
1195.684, 523.6987
1196.166, 534.1823
1196.648, 544.5921
1197.130, 552.3328
1197.612, 553.9507
1198.094, 546.6181
1198.577, 536.9329
1199.059, 528.3809
1199.541, 522.0059
1200.023, 519.1304
1200.505, 518.3985
1200.987, 519.3378
1201.469, 520.9327
1201.951, 522.0209
1202.434, 522.3920
1202.916, 520.5031
1203.398, 516.5630
1203.880, 509.0603
1204.362, 492.5703
1204.844, 484.4374
1205.326, 493.6714
1205.808, 501.2622
1206.291, 491.0973
1206.773, 478.3139
1207.255, 491.7437
1207.737, 524.2344
1208.219, 538.5580
1208.701, 537.2214
1209.183, 532.1182
1209.665, 525.0710
1210.147, 515.6872
1210.630, 505.3873
1211.112, 505.0338
1211.594, 523.6806
1212.076, 538.9631
1212.558, 524.9911
1213.040, 507.4174
1213.522, 507.4155
1214.004, 514.8306
1214.486, 523.9474
1214.969, 529.6599
1215.451, 521.2248
1215.933, 499.0056
1216.415, 487.0155
1216.897, 492.6613
1217.379, 498.5330
1217.861, 506.4505
1218.343, 509.6742
1218.826, 504.2272
1219.308, 501.4431
1219.790, 509.6840
1220.272, 520.0427
1220.754, 518.9296
1221.236, 509.8795
1221.718, 503.2355
1222.200, 499.5128
1222.682, 502.4307
1223.165, 509.9316
1223.647, 514.5715
1224.129, 515.1027
1224.611, 514.2375
1225.093, 512.7589
1225.575, 515.4683
1226.057, 533.5228
1226.539, 546.3964
1227.021, 537.8309
1227.504, 523.6376
1227.986, 513.0931
1228.468, 506.7245
1228.950, 505.2325
1229.432, 507.7772
1229.914, 510.2096
1230.396, 512.1873
1230.878, 516.2172
1231.361, 523.5784
1231.843, 526.1920
1232.325, 521.9849
1232.807, 520.0542
1233.289, 524.9582
1233.771, 528.5436
1234.253, 521.8282
1234.735, 511.2238
1235.218, 508.0954
1235.700, 508.7322
1236.182, 506.6846
1236.664, 502.9220
1237.146, 496.9447
1237.628, 492.0374
1238.110, 498.8482
1238.592, 519.7864
1239.074, 534.8658
1239.557, 533.7495
1240.039, 530.7407
1240.521, 531.5508
1241.003, 527.4128
1241.485, 510.4869
1241.967, 494.0933
1242.449, 488.3971
1242.931, 489.9129
##END=



