##NAMES=Orthoserpierite
##RRUFFID=R050292
##IDEAL CHEMISTRY=CaCu^2+^_4_(S^6+^O_4_)_2_(OH)_6_&#183;3H_2_O
##LOCALITY=Platosa mine, Bermijillo, Durango, Mexico
##OWNER=RRUFF
##SOURCE=Peter Megaw
##DESCRIPTION=Turquoise-blue bladed crystals
##STATUS=The identification of this mineral is confirmed by single-crystal X-ray diffraction and chemical analysis.
##URL=rruff.info/R050292
##MEASURED CHEMISTRY=Ca_1.00_(Cu_3.19_Zn_0.81_)_Σ=4_(S_1.00_O_4_)_2_(OH)_6_·3H_2_O
145.8685, 124.5745
146.3506, 125.9053
146.8327, 127.0754
147.3148, 127.6917
147.7969, 127.3878
148.2791, 127.3598
148.7612, 127.8748
149.2433, 128.6402
149.7254, 128.9778
150.2075, 128.2578
150.6896, 127.6612
151.1718, 127.6488
151.6539, 128.9536
152.1360, 129.7722
152.6181, 129.7602
153.1002, 129.1948
153.5823, 128.9019
154.0645, 129.2908
154.5466, 129.7041
155.0287, 129.8322
155.5108, 129.3231
155.9929, 128.9117
156.4750, 128.7036
156.9572, 128.6759
157.4393, 128.7519
157.9214, 129.1589
158.4035, 129.5164
158.8856, 129.5892
159.3677, 128.7254
159.8499, 128.1725
160.3320, 128.4337
160.8141, 129.3870
161.2962, 130.3204
161.7783, 131.0824
162.2604, 131.6674
162.7426, 132.0710
163.2247, 132.0376
163.7068, 132.0470
164.1889, 132.2815
164.6710, 132.7385
165.1531, 133.3862
165.6353, 134.5422
166.1174, 135.7680
166.5995, 136.5912
167.0816, 136.4265
167.5637, 136.1127
168.0458, 136.3014
168.5280, 136.9957
169.0101, 137.5026
169.4922, 137.2802
169.9743, 136.6126
170.4564, 135.8959
170.9385, 135.3205
171.4207, 134.7483
171.9028, 134.0030
172.3849, 133.0716
172.8670, 132.2033
173.3491, 131.6794
173.8312, 131.3481
174.3134, 130.9160
174.7955, 130.0520
175.2776, 129.1075
175.7597, 128.6051
176.2418, 128.6232
176.7239, 128.6140
177.2061, 127.8478
177.6882, 126.6043
178.1703, 125.6564
178.6524, 125.5333
179.1345, 125.8959
179.6166, 126.2444
180.0988, 126.5798
180.5809, 126.7649
181.0630, 126.4853
181.5451, 125.8626
182.0272, 125.3968
182.5093, 125.4972
182.9915, 125.9340
183.4736, 126.1193
183.9557, 125.9713
184.4378, 125.7271
184.9199, 125.7499
185.4020, 125.9966
185.8842, 126.1687
186.3663, 126.0037
186.8484, 125.6106
187.3305, 125.3550
187.8126, 125.2309
188.2947, 125.3310
188.7769, 125.9707
189.2590, 127.1198
189.7411, 128.1363
190.2232, 128.4759
190.7053, 128.2805
191.1874, 128.5435
191.6696, 129.4731
192.1517, 130.6516
192.6338, 131.2365
193.1159, 131.2060
193.5980, 131.1824
194.0801, 131.5680
194.5623, 132.3314
195.0444, 133.0853
195.5265, 133.8126
196.0086, 134.4807
196.4907, 134.9698
196.9728, 135.2529
197.4550, 135.5764
197.9371, 136.0829
198.4192, 136.7733
198.9013, 137.6188
199.3834, 138.7391
199.8655, 139.8848
200.3477, 140.2995
200.8298, 139.7986
201.3119, 139.4004
201.7940, 139.8434
202.2761, 141.2236
202.7582, 142.3564
203.2404, 143.0974
203.7225, 143.5613
204.2046, 144.0218
204.6867, 144.4499
205.1688, 144.9804
205.6509, 145.7720
206.1331, 146.9074
206.6152, 147.7583
207.0973, 148.1614
207.5794, 148.3037
208.0615, 148.7970
208.5436, 149.7492
209.0258, 150.7711
209.5079, 151.6010
209.9900, 152.1813
210.4721, 152.8269
210.9542, 153.5842
211.4363, 154.4146
211.9185, 155.1676
212.4006, 155.7825
212.8827, 156.4545
213.3648, 157.3701
213.8469, 158.7140
214.3290, 159.6342
214.8112, 159.9466
215.2933, 159.8127
215.7754, 159.8502
216.2575, 160.1958
216.7396, 160.4528
217.2217, 160.3487
217.7038, 159.7475
218.1860, 159.2096
218.6681, 158.8099
219.1502, 158.4975
219.6323, 158.1072
220.1144, 157.6843
220.5965, 157.1152
221.0787, 156.2540
221.5608, 154.8284
222.0429, 153.8825
222.5250, 153.6249
223.0071, 153.8799
223.4892, 153.9729
223.9714, 153.6944
224.4535, 153.5882
224.9356, 154.0516
225.4177, 155.5484
225.8998, 156.4574
226.3819, 156.4794
226.8641, 155.8882
227.3462, 155.6049
227.8283, 155.6398
228.3104, 155.9614
228.7925, 156.6081
229.2746, 157.8484
229.7568, 158.8230
230.2389, 159.4846
230.7210, 159.8716
231.2031, 160.0081
231.6852, 159.5184
232.1673, 159.3300
232.6495, 159.9555
233.1316, 161.8111
233.6137, 163.5719
234.0958, 165.2902
234.5779, 166.8613
235.0600, 167.8999
235.5422, 168.0286
236.0243, 168.1897
236.5064, 168.8560
236.9885, 170.4223
237.4706, 171.5919
237.9527, 172.1224
238.4349, 172.3067
238.9170, 172.8925
239.3991, 174.1234
239.8812, 175.3916
240.3633, 176.4571
240.8454, 177.2954
241.3276, 177.9807
241.8097, 178.4482
242.2918, 178.7776
242.7739, 179.1220
243.2560, 179.4233
243.7381, 179.8325
244.2203, 180.4707
244.7024, 181.5646
245.1845, 182.2316
245.6666, 182.3053
246.1487, 182.0318
246.6308, 181.8904
247.1130, 181.9876
247.5951, 182.0456
248.0772, 182.0164
248.5593, 181.9900
249.0414, 181.5186
249.5235, 180.3928
250.0057, 178.9531
250.4878, 177.7732
250.9699, 177.0912
251.4520, 176.2320
251.9341, 174.9156
252.4162, 172.9828
252.8984, 171.3944
253.3805, 170.4277
253.8626, 169.5798
254.3447, 168.0713
254.8268, 165.4642
255.3089, 163.0486
255.7911, 161.2519
256.2732, 160.1385
256.7553, 159.0599
257.2374, 158.1837
257.7195, 157.1712
258.2017, 155.4827
258.6838, 152.6150
259.1659, 150.2066
259.6480, 148.8099
260.1301, 148.4922
260.6122, 147.6498
261.0944, 146.0492
261.5765, 144.2066
262.0586, 142.6652
262.5407, 141.5194
263.0228, 140.4239
263.5049, 139.3097
263.9871, 138.1726
264.4692, 137.1335
264.9513, 136.1568
265.4334, 135.3210
265.9155, 134.7602
266.3976, 134.6405
266.8798, 134.2567
267.3619, 133.4200
267.8440, 132.1870
268.3261, 131.0493
268.8082, 129.9678
269.2903, 129.0648
269.7725, 128.5632
270.2546, 128.6320
270.7367, 128.3073
271.2188, 127.2751
271.7009, 125.7838
272.1830, 124.9289
272.6652, 124.8904
273.1473, 125.0125
273.6294, 124.8549
274.1115, 124.3759
274.5936, 123.8332
275.0757, 123.1792
275.5579, 122.5216
276.0400, 122.2248
276.5221, 122.3495
277.0042, 122.5857
277.4863, 122.7994
277.9684, 122.9989
278.4506, 123.0306
278.9327, 122.8347
279.4148, 122.5293
279.8969, 122.4172
280.3790, 122.5434
280.8611, 122.5516
281.3433, 122.0814
281.8254, 121.1400
282.3075, 120.8266
282.7896, 121.3160
283.2717, 122.1191
283.7538, 122.4697
284.2360, 122.3560
284.7181, 122.1139
285.2002, 121.8025
285.6823, 121.4489
286.1644, 121.3403
286.6465, 121.5200
287.1287, 121.7875
287.6108, 121.8274
288.0929, 121.6584
288.5750, 121.6415
289.0571, 122.0075
289.5392, 122.6361
290.0214, 123.0372
290.5035, 123.1958
290.9856, 123.2457
291.4677, 123.2359
291.9498, 123.1998
292.4319, 123.3652
292.9141, 123.9587
293.3962, 124.7142
293.8783, 124.9007
294.3604, 124.5095
294.8425, 124.1182
295.3246, 124.2436
295.8068, 124.7801
296.2889, 125.3941
296.7710, 126.0924
297.2531, 126.7381
297.7352, 127.0882
298.2173, 127.1566
298.6995, 127.0680
299.1816, 126.7594
299.6637, 126.3680
300.1458, 126.2225
300.6279, 126.4525
301.1100, 126.7817
301.5922, 126.8236
302.0743, 126.6455
302.5564, 126.5242
303.0385, 126.5574
303.5206, 126.7653
304.0027, 127.2574
304.4849, 128.1180
304.9670, 128.9468
305.4491, 129.3613
305.9312, 129.4414
306.4133, 129.3792
306.8954, 128.9800
307.3776, 128.6434
307.8597, 128.9500
308.3418, 130.0070
308.8239, 130.9091
309.3060, 130.6029
309.7881, 129.7638
310.2703, 129.4654
310.7524, 130.7018
311.2345, 132.2215
311.7166, 133.0387
312.1987, 133.1636
312.6808, 133.3694
313.1630, 134.1597
313.6451, 135.2367
314.1272, 136.2878
314.6093, 137.1748
315.0914, 138.0293
315.5735, 138.9707
316.0557, 139.9547
316.5378, 140.7515
317.0199, 141.0953
317.5020, 141.3097
317.9841, 141.6457
318.4662, 142.2747
318.9484, 142.8477
319.4305, 143.1391
319.9126, 143.2765
320.3947, 143.5938
320.8768, 144.4106
321.3589, 145.2639
321.8411, 145.8892
322.3232, 146.0847
322.8053, 146.4513
323.2874, 147.5015
323.7695, 148.7199
324.2516, 149.2895
324.7338, 148.3146
325.2159, 147.3820
325.6980, 147.0292
326.1801, 147.4273
326.6622, 147.7425
327.1443, 147.9668
327.6265, 148.0638
328.1086, 147.9921
328.5907, 147.3515
329.0728, 146.9976
329.5549, 147.1975
330.0370, 147.9605
330.5192, 148.4601
331.0013, 148.6702
331.4834, 148.6454
331.9655, 148.3925
332.4476, 147.6443
332.9297, 147.1346
333.4119, 147.0322
333.8940, 147.2273
334.3761, 147.2254
334.8582, 146.8991
335.3403, 146.5754
335.8224, 146.4859
336.3046, 146.8563
336.7867, 146.7345
337.2688, 145.9058
337.7509, 144.7233
338.2330, 143.8981
338.7151, 143.5259
339.1973, 143.2336
339.6794, 142.9121
340.1615, 142.5703
340.6436, 142.0635
341.1257, 141.3504
341.6078, 140.5816
342.0899, 139.9486
342.5721, 139.4717
343.0542, 139.0522
343.5363, 138.7954
344.0184, 138.5728
344.5005, 137.5961
344.9826, 135.7591
345.4648, 134.0068
345.9469, 133.3666
346.4290, 133.6917
346.9111, 133.8965
347.3932, 133.7523
347.8753, 133.4020
348.3575, 133.1289
348.8396, 132.9202
349.3217, 132.6347
349.8038, 132.0813
350.2859, 131.3838
350.7680, 130.9002
351.2502, 130.7313
351.7323, 130.5453
352.2144, 129.7449
352.6965, 128.5653
353.1786, 127.7420
353.6607, 127.9758
354.1429, 128.6166
354.6250, 128.8792
355.1071, 128.7265
355.5892, 128.3832
356.0713, 127.8461
356.5534, 127.2701
357.0356, 126.8855
357.5177, 126.9401
357.9998, 127.0784
358.4819, 127.0416
358.9640, 126.8574
359.4461, 126.6799
359.9283, 126.6553
360.4104, 126.6354
360.8925, 126.5005
361.3746, 126.2287
361.8567, 125.8264
362.3388, 125.0423
362.8210, 124.1244
363.3031, 123.6178
363.7852, 124.0770
364.2673, 124.6773
364.7494, 125.0128
365.2315, 124.9477
365.7137, 124.9616
366.1958, 125.2444
366.6779, 125.6206
367.1600, 125.8866
367.6421, 125.9493
368.1242, 125.9735
368.6064, 126.0496
369.0885, 126.1896
369.5706, 126.0656
370.0527, 125.2926
370.5348, 124.5540
371.0169, 124.3056
371.4991, 124.8813
371.9812, 125.3855
372.4633, 125.7269
372.9454, 125.9596
373.4275, 126.2716
373.9096, 126.7152
374.3918, 127.1541
374.8739, 127.4914
375.3560, 127.6739
375.8381, 128.0378
376.3202, 128.6618
376.8023, 129.3581
377.2845, 129.8091
377.7666, 129.9615
378.2487, 130.1358
378.7308, 130.4420
379.2129, 130.8599
379.6950, 131.1942
380.1772, 131.4172
380.6593, 131.7101
381.1414, 132.3166
381.6235, 133.1928
382.1056, 133.9787
382.5877, 134.5833
383.0699, 135.0748
383.5520, 135.5018
384.0341, 135.8870
384.5162, 136.4186
384.9983, 137.3986
385.4804, 138.5928
385.9626, 139.4602
386.4447, 139.9042
386.9268, 140.2537
387.4089, 140.7310
387.8910, 141.3678
388.3731, 142.2271
388.8553, 143.6305
389.3374, 145.0851
389.8195, 145.9564
390.3016, 146.2734
390.7837, 146.7785
391.2658, 148.1750
391.7480, 149.8890
392.2301, 151.2975
392.7122, 151.8970
393.1943, 152.6223
393.6764, 154.0174
394.1585, 155.9029
394.6407, 157.7361
395.1228, 159.3554
395.6049, 160.8704
396.0870, 162.2847
396.5691, 163.4680
397.0512, 164.9603
397.5334, 167.0821
398.0155, 169.5072
398.4976, 171.7978
398.9797, 173.7926
399.4618, 175.7919
399.9439, 177.7645
400.4261, 179.7089
400.9082, 181.9980
401.3903, 184.8162
401.8724, 187.7986
402.3545, 190.7300
402.8366, 193.5459
403.3188, 196.4020
403.8009, 199.4134
404.2830, 202.4223
404.7651, 204.9165
405.2472, 206.5914
405.7293, 208.5546
406.2115, 211.3517
406.6936, 214.9838
407.1757, 218.6214
407.6578, 222.3481
408.1399, 225.8818
408.6220, 228.7473
409.1042, 230.9672
409.5863, 233.5789
410.0684, 236.9978
410.5505, 240.8665
411.0326, 244.6223
411.5147, 248.2735
411.9969, 251.6054
412.4790, 254.2137
412.9611, 256.4492
413.4432, 259.2582
413.9253, 262.9759
414.4074, 266.5732
414.8896, 268.7450
415.3717, 269.9430
415.8538, 271.2087
416.3359, 273.2302
416.8180, 275.4071
417.3001, 277.3651
417.7823, 279.0929
418.2644, 280.1188
418.7465, 279.8590
419.2286, 278.9415
419.7107, 277.9731
420.1928, 277.1317
420.6750, 276.2148
421.1571, 275.2245
421.6392, 274.0992
422.1213, 272.7047
422.6034, 270.8212
423.0855, 268.8266
423.5677, 266.9815
424.0498, 265.5671
424.5319, 263.4034
425.0140, 259.8464
425.4961, 255.7467
425.9782, 251.9471
426.4604, 248.6088
426.9425, 245.3483
427.4246, 242.1592
427.9067, 239.0036
428.3888, 235.7857
428.8709, 232.4126
429.3531, 229.1530
429.8352, 226.1810
430.3173, 223.6455
430.7994, 220.7753
431.2815, 217.4124
431.7636, 213.9307
432.2458, 210.9849
432.7279, 208.5885
433.2100, 206.4569
433.6921, 204.4962
434.1742, 202.7119
434.6563, 201.2062
435.1385, 199.9630
435.6206, 198.8576
436.1027, 197.8617
436.5848, 196.9201
437.0669, 195.8358
437.5490, 194.4868
438.0312, 193.2000
438.5133, 192.2734
438.9954, 191.6909
439.4775, 191.4043
439.9596, 191.7551
440.4417, 192.1634
440.9239, 192.0634
441.4060, 191.4241
441.8881, 190.6822
442.3702, 189.9831
442.8523, 189.3589
443.3344, 188.8452
443.8166, 188.8464
444.2987, 188.4930
444.7808, 187.2097
445.2629, 185.3247
445.7450, 183.7918
446.2271, 183.1911
446.7093, 182.6709
447.1914, 181.8619
447.6735, 180.5647
448.1556, 179.5987
448.6377, 179.2054
449.1198, 178.9886
449.6020, 178.5358
450.0841, 177.7058
450.5662, 176.9539
451.0483, 176.3372
451.5304, 175.8502
452.0125, 175.5119
452.4947, 175.3741
452.9768, 175.2164
453.4589, 174.8124
453.9410, 174.1458
454.4231, 173.9376
454.9052, 174.2851
455.3874, 174.8058
455.8695, 175.0477
456.3516, 175.0300
456.8337, 174.8721
457.3158, 174.4630
457.7979, 174.0604
458.2801, 174.2961
458.7622, 175.0710
459.2443, 175.6915
459.7264, 175.3413
460.2085, 174.6844
460.6906, 174.7544
461.1728, 175.8950
461.6549, 176.8466
462.1370, 176.4407
462.6191, 175.3186
463.1012, 174.4244
463.5833, 174.2239
464.0655, 174.2175
464.5476, 174.3121
465.0297, 174.4670
465.5118, 174.4056
465.9939, 173.7473
466.4760, 173.0725
466.9582, 172.7034
467.4403, 172.7988
467.9224, 172.9630
468.4045, 173.4336
468.8866, 173.8617
469.3687, 173.6950
469.8509, 172.5174
470.3330, 171.5086
470.8151, 170.9607
471.2972, 170.8341
471.7793, 170.6909
472.2614, 170.4884
472.7436, 170.3865
473.2257, 170.6363
473.7078, 171.2512
474.1899, 171.3679
474.6720, 170.8538
475.1541, 170.0205
475.6363, 169.2063
476.1184, 168.4344
476.6005, 167.8625
477.0826, 167.6332
477.5647, 167.5937
478.0468, 167.6549
478.5290, 167.7688
479.0111, 167.4984
479.4932, 166.1066
479.9753, 164.3421
480.4574, 163.0810
480.9395, 162.5259
481.4217, 162.3279
481.9038, 162.6914
482.3859, 163.1887
482.8680, 163.1824
483.3501, 162.1282
483.8322, 160.8582
484.3144, 159.5547
484.7965, 158.2519
485.2786, 157.1274
485.7607, 156.3356
486.2428, 155.6409
486.7249, 154.9265
487.2071, 154.1932
487.6892, 153.4610
488.1713, 152.7763
488.6534, 152.0640
489.1355, 151.1739
489.6176, 150.0141
490.0998, 148.9427
490.5819, 148.0397
491.0640, 147.2813
491.5461, 146.5813
492.0282, 145.9469
492.5103, 145.3083
492.9925, 144.6156
493.4746, 143.8730
493.9567, 143.1401
494.4388, 142.3992
494.9209, 141.7216
495.4030, 141.1705
495.8852, 140.7374
496.3673, 140.4012
496.8494, 140.3208
497.3315, 140.1722
497.8136, 139.5505
498.2957, 138.5531
498.7779, 137.6125
499.2600, 136.9122
499.7421, 136.3675
500.2242, 136.0098
500.7063, 135.9457
501.1884, 135.5759
501.6706, 134.3464
502.1527, 132.8953
502.6348, 131.8873
503.1169, 131.5565
503.5990, 131.5134
504.0811, 131.9765
504.5633, 132.7240
505.0454, 132.9253
505.5275, 132.4395
506.0096, 131.6389
506.4917, 130.6073
506.9738, 129.3069
507.4560, 128.0576
507.9381, 126.7750
508.4202, 125.7671
508.9023, 125.5412
509.3844, 126.0400
509.8665, 126.2485
510.3487, 125.9233
510.8308, 125.3285
511.3129, 124.8412
511.7950, 124.4566
512.2772, 124.1506
512.7593, 123.9886
513.2414, 123.8577
513.7235, 123.5795
514.2056, 123.1598
514.6877, 122.7948
515.1699, 122.7655
515.6520, 122.7663
516.1341, 122.4960
516.6162, 121.7562
517.0983, 120.9963
517.5804, 120.2791
518.0626, 119.6462
518.5447, 119.1669
519.0268, 118.7764
519.5089, 118.6277
519.9910, 118.8589
520.4731, 119.4359
520.9553, 119.8207
521.4374, 119.9678
521.9195, 119.9872
522.4016, 119.9273
522.8837, 119.7817
523.3658, 119.5918
523.8480, 119.3423
524.3301, 119.0853
524.8122, 118.9201
525.2943, 118.8396
525.7764, 118.6677
526.2585, 118.2654
526.7407, 117.8532
527.2228, 117.9552
527.7049, 118.4771
528.1870, 118.8628
528.6691, 118.6008
529.1512, 118.1117
529.6334, 117.9317
530.1155, 118.1066
530.5976, 118.2321
531.0797, 118.1033
531.5618, 117.7849
532.0439, 117.3033
532.5261, 116.0973
533.0082, 115.5340
533.4903, 116.6350
533.9724, 118.5488
534.4545, 119.4676
534.9366, 118.0828
535.4188, 117.0104
535.9009, 117.0214
536.3830, 118.0805
536.8651, 118.5432
537.3472, 118.1905
537.8293, 117.6793
538.3115, 117.4206
538.7936, 117.4274
539.2757, 117.5607
539.7578, 117.8667
540.2399, 118.1504
540.7220, 118.0932
541.2042, 117.7529
541.6863, 117.4476
542.1684, 117.2205
542.6505, 117.1377
543.1326, 117.4752
543.6147, 118.0913
544.0969, 118.4517
544.5790, 117.8935
545.0611, 117.1722
545.5432, 116.9943
546.0253, 117.4466
546.5074, 117.7866
546.9896, 117.6233
547.4717, 117.2595
547.9538, 116.9349
548.4359, 116.5771
548.9180, 116.4184
549.4001, 116.5782
549.8823, 116.9141
550.3644, 117.1940
550.8465, 117.4244
551.3286, 117.5896
551.8107, 117.6607
552.2928, 117.6582
552.7750, 117.7482
553.2571, 117.9561
553.7392, 118.1347
554.2213, 118.2033
554.7034, 118.1627
555.1855, 117.9692
555.6677, 117.5940
556.1498, 117.2605
556.6319, 117.2927
557.1140, 117.5339
557.5961, 117.6452
558.0782, 117.4336
558.5604, 117.2235
559.0425, 117.4207
559.5246, 117.8191
560.0067, 117.9572
560.4888, 117.2081
560.9709, 116.5536
561.4531, 116.6454
561.9352, 117.4956
562.4173, 117.8494
562.8994, 116.8192
563.3815, 115.8395
563.8636, 115.6868
564.3458, 116.8212
564.8279, 117.5144
565.3100, 117.5741
565.7921, 117.4459
566.2742, 117.8340
566.7563, 118.8454
567.2385, 119.2914
567.7206, 118.7318
568.2027, 117.6945
568.6848, 117.2594
569.1669, 117.3900
569.6490, 117.8737
570.1312, 119.0538
570.6133, 120.3135
571.0954, 120.5338
571.5775, 119.7673
572.0596, 119.1264
572.5417, 119.4556
573.0239, 120.1472
573.5060, 120.6954
573.9881, 121.0225
574.4702, 121.1847
574.9523, 121.1056
575.4344, 120.9076
575.9166, 120.7414
576.3987, 120.3903
576.8808, 120.3893
577.3629, 120.9900
577.8450, 121.9616
578.3271, 122.5559
578.8093, 122.7220
579.2914, 122.6296
579.7735, 122.0531
580.2556, 121.1785
580.7377, 121.7652
581.2198, 123.9501
581.7020, 126.0638
582.1841, 126.4483
582.6662, 125.7338
583.1483, 125.4414
583.6304, 125.8155
584.1125, 126.3914
584.5947, 126.8317
585.0768, 127.1935
585.5589, 127.5578
586.0410, 127.8517
586.5231, 128.2716
587.0052, 128.9373
587.4873, 129.7984
587.9694, 130.7015
588.4515, 131.8425
588.9337, 132.8007
589.4158, 133.4571
589.8979, 133.8118
590.3800, 133.9546
590.8621, 133.6815
591.3442, 133.5542
591.8264, 133.9485
592.3085, 134.8877
592.7906, 136.0519
593.2727, 137.5391
593.7548, 138.8535
594.2369, 139.0977
594.7191, 138.6164
595.2012, 138.7925
595.6833, 140.1772
596.1654, 141.9242
596.6475, 143.3515
597.1296, 144.4158
597.6118, 145.0528
598.0939, 144.8841
598.5760, 144.5921
599.0581, 144.4899
599.5402, 144.5913
600.0223, 144.8594
600.5045, 145.4622
600.9866, 146.0844
601.4687, 146.6151
601.9508, 147.0796
602.4329, 147.3326
602.9150, 147.2876
603.3972, 147.1483
603.8793, 147.1408
604.3614, 147.2988
604.8435, 147.1837
605.3256, 146.6857
605.8077, 146.0314
606.2899, 145.4707
606.7720, 145.0342
607.2541, 144.9231
607.7362, 145.4380
608.2183, 146.0734
608.7004, 146.3076
609.1826, 146.1686
609.6647, 145.7471
610.1468, 144.5118
610.6289, 143.4738
611.1110, 143.4927
611.5931, 144.6524
612.0753, 145.3606
612.5574, 144.7930
613.0395, 144.0890
613.5216, 143.9787
614.0037, 145.0135
614.4858, 145.1461
614.9680, 144.0064
615.4501, 142.4626
615.9322, 141.5899
616.4143, 141.4298
616.8964, 141.1803
617.3785, 140.7023
617.8607, 140.0536
618.3428, 139.2435
618.8249, 138.3235
619.3070, 137.5106
619.7891, 137.0396
620.2712, 136.6306
620.7534, 135.8740
621.2355, 134.8786
621.7176, 134.1779
622.1997, 134.4672
622.6818, 134.7724
623.1639, 134.4147
623.6461, 133.1897
624.1282, 132.3873
624.6103, 132.6227
625.0924, 132.8949
625.5745, 132.5012
626.0566, 130.9945
626.5388, 130.1133
627.0209, 130.0266
627.5030, 130.3512
627.9851, 130.6908
628.4672, 131.0296
628.9493, 131.0974
629.4315, 130.7457
629.9136, 130.2434
630.3957, 130.0316
630.8778, 130.0230
631.3599, 129.9606
631.8420, 129.7124
632.3242, 129.3712
632.8063, 128.8381
633.2884, 128.2107
633.7705, 127.9708
634.2526, 128.6873
634.7347, 129.4898
635.2169, 129.9668
635.6990, 130.0482
636.1811, 130.0736
636.6632, 129.8968
637.1453, 129.8482
637.6274, 130.2616
638.1096, 131.2606
638.5917, 131.8401
639.0738, 131.8813
639.5559, 131.7215
640.0380, 131.6901
640.5201, 131.8064
641.0023, 132.2132
641.4844, 133.1238
641.9665, 133.9850
642.4486, 134.1791
642.9307, 133.8922
643.4128, 133.5285
643.8950, 133.1132
644.3771, 132.8038
644.8592, 132.6902
645.3413, 132.7541
645.8234, 132.8804
646.3055, 133.2393
646.7877, 133.4568
647.2698, 133.3410
647.7519, 132.8713
648.2340, 132.6910
648.7161, 132.9002
649.1982, 133.1216
649.6804, 133.0744
650.1625, 132.7800
650.6446, 132.4206
651.1267, 131.9952
651.6088, 131.5933
652.0909, 131.3410
652.5731, 131.1758
653.0552, 131.0175
653.5373, 130.9313
654.0194, 130.6420
654.5015, 129.6263
654.9836, 128.3935
655.4658, 127.6842
655.9479, 128.3013
656.4300, 128.7575
656.9121, 128.6716
657.3942, 128.2205
657.8763, 127.8944
658.3585, 127.7931
658.8406, 127.5602
659.3227, 126.9986
659.8048, 126.2121
660.2869, 125.8693
660.7690, 125.9880
661.2512, 125.9916
661.7333, 125.3030
662.2154, 124.3026
662.6975, 123.7541
663.1796, 123.6746
663.6617, 123.6977
664.1439, 123.7257
664.6260, 123.6498
665.1081, 123.3346
665.5902, 122.6774
666.0723, 122.0841
666.5544, 121.5647
667.0366, 121.2153
667.5187, 121.1554
668.0008, 121.7539
668.4829, 121.8392
668.9650, 121.1396
669.4471, 120.1516
669.9293, 119.6302
670.4114, 119.5782
670.8935, 119.7859
671.3756, 120.3293
671.8577, 120.8987
672.3398, 120.9492
672.8220, 120.5818
673.3041, 120.1456
673.7862, 119.7704
674.2683, 119.4246
674.7504, 119.0265
675.2325, 118.6143
675.7147, 118.3877
676.1968, 118.5940
676.6789, 118.8227
677.1610, 118.9136
677.6431, 118.8671
678.1252, 118.6950
678.6074, 118.3157
679.0895, 117.9669
679.5716, 117.8143
680.0537, 117.8571
680.5358, 117.9324
681.0179, 118.0467
681.5001, 118.1215
681.9822, 117.9301
682.4643, 117.6672
682.9464, 117.8300
683.4285, 118.6426
683.9106, 119.3167
684.3928, 119.1550
684.8749, 118.5932
685.3570, 118.1604
685.8391, 118.1487
686.3212, 118.0763
686.8033, 117.8275
687.2855, 117.4873
687.7676, 117.1538
688.2497, 116.7218
688.7318, 116.6012
689.2139, 117.0240
689.6960, 117.6865
690.1782, 117.6574
690.6603, 116.9753
691.1424, 116.3714
691.6245, 116.1852
692.1066, 116.2710
692.5887, 116.5203
693.0709, 116.8756
693.5530, 117.0868
694.0351, 116.8688
694.5172, 116.5788
694.9993, 116.4225
695.4814, 116.4153
695.9636, 116.4660
696.4457, 116.7589
696.9278, 116.9078
697.4099, 116.6759
697.8920, 115.9724
698.3741, 115.4597
698.8563, 115.1098
699.3384, 115.0366
699.8205, 115.5244
700.3026, 116.4195
700.7847, 117.0206
701.2668, 117.2457
701.7490, 117.2491
702.2311, 117.0634
702.7132, 116.7888
703.1953, 116.5751
703.6774, 116.5223
704.1595, 116.4031
704.6417, 115.9826
705.1238, 115.4938
705.6059, 115.2799
706.0880, 115.5960
706.5701, 115.7827
707.0522, 115.7533
707.5344, 115.5800
708.0165, 115.3993
708.4986, 115.2111
708.9807, 115.0053
709.4628, 114.7054
709.9449, 114.4769
710.4271, 114.7830
710.9092, 115.4696
711.3913, 115.9770
711.8734, 115.8473
712.3555, 115.5704
712.8376, 115.5527
713.3198, 115.7177
713.8019, 115.6622
714.2840, 114.8958
714.7661, 114.2747
715.2482, 114.2067
715.7303, 114.6652
716.2125, 114.7930
716.6946, 114.4481
717.1767, 114.1648
717.6588, 114.3211
718.1409, 114.8472
718.6230, 115.2286
719.1052, 115.4694
719.5873, 115.5467
720.0694, 115.3932
720.5515, 115.0946
721.0336, 114.6221
721.5157, 113.9135
721.9979, 113.6625
722.4800, 114.8725
722.9621, 116.2390
723.4442, 116.6470
723.9263, 115.2941
724.4084, 114.5221
724.8906, 114.5510
725.3727, 114.8931
725.8548, 115.0872
726.3369, 115.1284
726.8190, 115.0964
727.3011, 114.9855
727.7833, 114.8572
728.2654, 114.8111
728.7475, 114.8100
729.2296, 114.7537
729.7117, 114.5684
730.1938, 114.4187
730.6760, 114.4338
731.1581, 114.5545
731.6402, 114.6888
732.1223, 114.9653
732.6044, 115.0633
733.0865, 114.9069
733.5687, 114.5646
734.0508, 114.1582
734.5329, 113.6630
735.0150, 113.1867
735.4971, 112.6973
735.9792, 112.3066
736.4614, 112.4201
736.9435, 112.9237
737.4256, 113.2287
737.9077, 112.7506
738.3898, 112.1680
738.8719, 112.1648
739.3541, 112.5993
739.8362, 112.9748
740.3183, 113.2678
740.8004, 113.3148
741.2825, 112.8275
741.7646, 111.9208
742.2468, 111.5938
742.7289, 112.0167
743.2110, 112.5961
743.6931, 113.1412
744.1752, 113.6220
744.6573, 113.8718
745.1395, 113.8898
745.6216, 113.7051
746.1037, 113.0521
746.5858, 112.3670
747.0679, 112.2831
747.5500, 112.8051
748.0322, 113.3089
748.5143, 113.6044
748.9964, 113.7191
749.4785, 113.6013
749.9606, 113.1576
750.4427, 112.9943
750.9249, 113.2463
751.4070, 113.5450
751.8891, 113.5693
752.3712, 113.3280
752.8533, 113.4149
753.3354, 113.8779
753.8176, 114.3685
754.2997, 114.5836
754.7818, 114.6047
755.2639, 114.5417
755.7460, 114.4036
756.2281, 114.2393
756.7103, 113.9904
757.1924, 113.7791
757.6745, 113.7192
758.1566, 113.8986
758.6387, 114.0969
759.1208, 114.3728
759.6030, 114.5976
760.0851, 114.6084
760.5672, 114.3962
761.0493, 114.2106
761.5314, 114.0725
762.0135, 113.9867
762.4957, 114.0067
762.9778, 114.0727
763.4599, 114.0715
763.9420, 113.9645
764.4241, 113.8089
764.9063, 113.5080
765.3884, 113.2285
765.8705, 113.1802
766.3526, 113.7104
766.8347, 113.9967
767.3168, 113.8808
767.7990, 113.6239
768.2811, 113.6856
768.7632, 114.0927
769.2453, 114.2257
769.7274, 113.8713
770.2095, 113.4197
770.6917, 113.5033
771.1738, 113.9066
771.6559, 114.1485
772.1380, 113.9210
772.6201, 113.6789
773.1022, 113.6188
773.5844, 113.7159
774.0665, 113.9358
774.5486, 114.4095
775.0307, 114.8092
775.5128, 115.1046
775.9949, 115.2994
776.4771, 115.4209
776.9592, 115.4746
777.4413, 115.3317
777.9234, 114.9144
778.4055, 114.3488
778.8876, 113.6235
779.3698, 112.9001
779.8519, 112.5928
780.3340, 113.3449
780.8161, 114.0871
781.2982, 114.1852
781.7803, 113.8953
782.2625, 113.9434
782.7446, 114.7187
783.2267, 115.2612
783.7088, 115.3580
784.1909, 115.1083
784.6730, 114.7103
785.1552, 114.1645
785.6373, 113.7903
786.1194, 113.7446
786.6015, 113.9074
787.0836, 114.1588
787.5657, 114.4790
788.0479, 114.8137
788.5300, 115.4514
789.0121, 115.7686
789.4942, 115.2109
789.9763, 114.0529
790.4584, 113.3989
790.9406, 113.4682
791.4227, 113.6682
791.9048, 113.8836
792.3869, 114.0933
792.8690, 114.2467
793.3511, 114.3422
793.8333, 114.3282
794.3154, 114.0441
794.7975, 113.7558
795.2796, 113.8656
795.7617, 114.2601
796.2438, 114.5694
796.7260, 114.6086
797.2081, 114.5771
797.6902, 114.4542
798.1723, 114.3091
798.6544, 114.4488
799.1365, 115.0284
799.6187, 115.4767
800.1008, 115.5846
800.5829, 115.4453
801.0650, 115.2755
801.5471, 115.0914
802.0292, 114.9983
802.5114, 115.2839
802.9935, 115.5024
803.4756, 115.0626
803.9577, 114.1809
804.4398, 113.5913
804.9219, 113.5586
805.4041, 113.8143
805.8862, 114.4175
806.3683, 115.2355
806.8504, 115.6537
807.3325, 115.5625
807.8146, 115.6347
808.2968, 116.2611
808.7789, 117.0993
809.2610, 117.4561
809.7431, 117.3578
810.2252, 116.9098
810.7073, 115.7314
811.1895, 114.6281
811.6716, 114.2556
812.1537, 114.4051
812.6358, 114.2740
813.1179, 113.2719
813.6000, 112.6422
814.0822, 112.8033
814.5643, 113.4988
815.0464, 113.7387
815.5285, 113.5117
816.0106, 113.4352
816.4927, 113.8997
816.9749, 114.5125
817.4570, 114.6861
817.9391, 114.5100
818.4212, 114.2465
818.9033, 113.7851
819.3854, 113.4993
819.8676, 113.6280
820.3497, 114.0673
820.8318, 114.4839
821.3139, 115.0155
821.7960, 115.1590
822.2781, 114.6662
822.7603, 113.8244
823.2424, 113.1614
823.7245, 112.7163
824.2066, 112.7867
824.6887, 113.8832
825.1708, 115.0545
825.6530, 115.4642
826.1351, 115.2904
826.6172, 114.9252
827.0993, 114.1568
827.5814, 113.6234
828.0635, 113.5682
828.5457, 113.7608
829.0278, 113.6634
829.5099, 113.2023
829.9920, 113.0024
830.4741, 113.3341
830.9562, 113.7690
831.4384, 113.4345
831.9205, 112.6507
832.4026, 112.2571
832.8847, 112.9136
833.3668, 113.5131
833.8489, 113.2892
834.3311, 112.6872
834.8132, 112.5000
835.2953, 113.1179
835.7774, 113.4530
836.2595, 113.2977
836.7416, 112.9361
837.2238, 112.7928
837.7059, 112.8580
838.1880, 113.1015
838.6701, 113.6019
839.1522, 114.0103
839.6343, 113.8569
840.1165, 113.4240
840.5986, 113.1092
841.0807, 113.0167
841.5628, 113.0628
842.0449, 113.4070
842.5270, 113.7620
843.0092, 113.8220
843.4913, 113.5371
843.9734, 113.2427
844.4555, 112.9758
844.9376, 112.6764
845.4197, 112.1078
845.9019, 111.4870
846.3840, 111.3486
846.8661, 111.9127
847.3482, 112.3776
847.8303, 112.0827
848.3124, 111.6097
848.7946, 111.5110
849.2767, 112.0304
849.7588, 112.3860
850.2409, 112.5574
850.7230, 112.6021
851.2051, 112.4963
851.6873, 112.2815
852.1694, 112.2918
852.6515, 112.5581
853.1336, 112.7551
853.6157, 112.4853
854.0978, 112.0976
854.5800, 111.9225
855.0621, 112.0129
855.5442, 112.2044
856.0263, 112.6807
856.5084, 113.0191
856.9905, 112.9686
857.4727, 112.5309
857.9548, 112.1451
858.4369, 111.7997
858.9190, 111.6424
859.4011, 111.9835
859.8832, 112.4803
860.3654, 112.5439
860.8475, 112.2035
861.3296, 111.8474
861.8117, 111.5787
862.2938, 111.4061
862.7759, 111.3784
863.2581, 111.4682
863.7402, 111.5042
864.2223, 111.4967
864.7044, 111.3884
865.1865, 111.1169
865.6686, 110.7533
866.1508, 110.3982
866.6329, 110.0942
867.1150, 110.0418
867.5971, 110.6809
868.0792, 111.2754
868.5613, 111.3104
869.0435, 110.9443
869.5256, 110.6761
870.0077, 110.5563
870.4898, 110.5243
870.9719, 110.5990
871.4540, 110.7263
871.9362, 110.8043
872.4183, 110.8319
872.9004, 110.7677
873.3825, 110.5102
873.8646, 110.3484
874.3467, 110.7223
874.8289, 111.3297
875.3110, 111.7089
875.7931, 111.7378
876.2752, 111.4832
876.7573, 110.7504
877.2394, 109.9460
877.7216, 109.5758
878.2037, 109.6664
878.6858, 109.7662
879.1679, 109.8250
879.6500, 109.8768
880.1321, 110.0359
880.6143, 110.1823
881.0964, 110.0745
881.5785, 109.5730
882.0606, 109.2763
882.5427, 109.6150
883.0248, 110.0633
883.5070, 110.2594
883.9891, 110.1677
884.4712, 110.0181
884.9533, 109.7870
885.4354, 109.6210
885.9175, 109.6536
886.3997, 109.8284
886.8818, 110.1265
887.3639, 110.5162
887.8460, 110.6692
888.3281, 110.1234
888.8102, 109.5442
889.2924, 109.3268
889.7745, 109.4560
890.2566, 109.5440
890.7387, 109.5568
891.2208, 109.6419
891.7029, 109.9382
892.1851, 110.2992
892.6672, 110.3085
893.1493, 110.0280
893.6314, 109.7254
894.1135, 109.4180
894.5956, 109.2451
895.0778, 109.3660
895.5599, 109.6770
896.0420, 109.9199
896.5241, 110.1455
897.0062, 110.1532
897.4883, 109.8356
897.9705, 109.3931
898.4526, 109.1304
898.9347, 109.0572
899.4168, 109.2632
899.8989, 109.8678
900.3810, 110.4629
900.8632, 110.7954
901.3453, 110.9065
901.8274, 110.8306
902.3095, 110.3428
902.7916, 110.1046
903.2737, 110.2043
903.7559, 110.4257
904.2380, 110.5923
904.7201, 110.7078
905.2022, 110.8357
905.6843, 110.9814
906.1664, 110.9865
906.6486, 110.5625
907.1307, 110.0469
907.6128, 109.7346
908.0949, 109.6634
908.5770, 109.7119
909.0591, 110.0429
909.5413, 110.2317
910.0234, 110.0578
910.5055, 109.5905
910.9876, 109.1630
911.4697, 108.7892
911.9518, 108.7192
912.4340, 109.4841
912.9161, 110.3128
913.3982, 110.1931
913.8803, 109.4839
914.3624, 109.1862
914.8445, 110.3025
915.3267, 110.8873
915.8088, 110.3624
916.2909, 109.3120
916.7730, 108.8581
917.2551, 108.9936
917.7372, 109.4959
918.2194, 110.4720
918.7015, 111.2874
919.1836, 110.9080
919.6657, 110.0713
920.1478, 109.8505
920.6299, 110.9866
921.1121, 111.6569
921.5942, 111.4719
922.0763, 110.9183
922.5584, 110.2342
923.0405, 109.3990
923.5226, 109.1612
924.0048, 109.5708
924.4869, 110.1084
924.9690, 110.4328
925.4511, 110.6070
925.9332, 110.6984
926.4153, 110.7106
926.8975, 110.6063
927.3796, 110.2123
927.8617, 109.8667
928.3438, 109.6005
928.8259, 109.4734
929.3080, 109.9359
929.7902, 110.9755
930.2723, 111.8212
930.7544, 112.1142
931.2365, 112.0571
931.7186, 111.7311
932.2007, 111.2484
932.6829, 110.8407
933.1650, 110.3338
933.6471, 110.2654
934.1292, 110.8985
934.6113, 111.7959
935.0934, 112.3797
935.5756, 112.6557
936.0577, 112.6162
936.5398, 112.2005
937.0219, 111.8773
937.5040, 112.3675
937.9861, 113.0762
938.4683, 113.2736
938.9504, 112.7485
939.4325, 112.1998
939.9146, 111.5092
940.3967, 111.1351
940.8788, 111.4915
941.3610, 112.4827
941.8431, 112.7819
942.3252, 112.4136
942.8073, 112.0141
943.2894, 111.8728
943.7715, 111.9844
944.2537, 112.5288
944.7358, 113.3541
945.2179, 113.9137
945.7000, 113.8335
946.1821, 113.8464
946.6642, 114.1755
947.1464, 114.5743
947.6285, 114.3802
948.1106, 113.7009
948.5927, 113.3968
949.0748, 113.7730
949.5569, 114.2827
950.0391, 114.5470
950.5212, 114.6214
951.0033, 114.5090
951.4854, 113.8706
951.9675, 113.9583
952.4496, 115.1938
952.9318, 116.4348
953.4139, 116.7109
953.8960, 116.1890
954.3781, 115.7817
954.8602, 115.5138
955.3423, 115.3974
955.8245, 115.4210
956.3066, 115.6176
956.7887, 116.1104
957.2708, 116.8474
957.7529, 117.3756
958.2350, 117.4979
958.7172, 117.8906
959.1993, 118.8845
959.6814, 120.0693
960.1635, 120.4273
960.6456, 120.2058
961.1277, 120.1846
961.6099, 120.6581
962.0920, 121.3133
962.5741, 122.0783
963.0562, 122.8767
963.5383, 123.6091
964.0204, 124.2608
964.5026, 124.8480
964.9847, 125.2957
965.4668, 125.9230
965.9489, 127.0019
966.4310, 128.4736
966.9131, 130.4325
967.3953, 132.8158
967.8774, 135.0091
968.3595, 136.2533
968.8416, 137.6582
969.3237, 139.6563
969.8058, 142.2360
970.2880, 145.5044
970.7701, 149.5667
971.2522, 153.6122
971.7343, 157.2608
972.2164, 161.0107
972.6985, 165.4378
973.1807, 170.6086
973.6628, 176.6135
974.1449, 184.2325
974.6270, 191.5890
975.1091, 197.9436
975.5912, 204.3481
976.0734, 211.7114
976.5555, 220.0012
977.0376, 229.2818
977.5197, 239.4627
978.0018, 250.2035
978.4839, 260.8246
978.9661, 272.2609
979.4482, 285.6094
979.9303, 300.8813
980.4124, 316.9016
980.8945, 333.5904
981.3766, 351.1855
981.8588, 370.1107
982.3409, 389.9315
982.8230, 409.6524
983.3051, 429.2163
983.7872, 448.4590
984.2693, 467.9271
984.7515, 485.8596
985.2336, 501.8731
985.7157, 515.2418
986.1978, 524.7370
986.6799, 529.7292
987.1620, 532.6180
987.6442, 533.2009
988.1263, 532.2383
988.6084, 531.2703
989.0905, 529.0842
989.5726, 522.7241
990.0547, 512.1370
990.5369, 498.5735
991.0190, 483.1134
991.5011, 464.3463
991.9832, 440.6535
992.4653, 413.2795
992.9474, 384.5009
993.4296, 354.2389
993.9117, 325.4352
994.3938, 298.7996
994.8759, 274.4434
995.3580, 252.3846
995.8401, 232.8774
996.3223, 215.5767
996.8044, 200.3005
997.2865, 187.6407
997.7686, 178.0182
998.2507, 170.1955
998.7328, 163.4574
999.2150, 157.8304
999.6971, 152.6922
1000.179, 148.1201
1000.661, 144.1658
1001.143, 140.9880
1001.626, 138.3764
1002.108, 136.3085
1002.590, 134.6900
1003.072, 132.9627
1003.554, 130.9554
1004.036, 129.2393
1004.518, 127.9751
1005.000, 127.0038
1005.482, 126.2208
1005.965, 125.5175
1006.447, 124.5639
1006.929, 123.1720
1007.411, 121.9821
1007.893, 121.5361
1008.375, 121.2137
1008.857, 120.4702
1009.339, 119.2307
1009.822, 118.6245
1010.304, 118.7078
1010.786, 118.8172
1011.268, 118.5179
1011.750, 118.0243
1012.232, 117.6252
1012.714, 117.2581
1013.196, 116.7373
1013.678, 115.6764
1014.161, 114.9173
1014.643, 114.6512
1015.125, 114.6575
1015.607, 114.6936
1016.089, 114.7374
1016.571, 114.6133
1017.053, 114.2792
1017.535, 113.9761
1018.018, 113.9837
1018.500, 114.0243
1018.982, 113.8451
1019.464, 113.4272
1019.946, 113.0934
1020.428, 112.8157
1020.910, 112.7574
1021.392, 113.1527
1021.874, 113.6300
1022.357, 113.2213
1022.839, 112.3370
1023.321, 111.9569
1023.803, 113.0826
1024.285, 113.8179
1024.767, 113.4801
1025.249, 112.7459
1025.731, 112.1548
1026.214, 111.7015
1026.696, 111.6490
1027.178, 112.0242
1027.660, 112.2977
1028.142, 111.9452
1028.624, 111.4009
1029.106, 110.9449
1029.588, 110.6260
1030.070, 110.6189
1030.553, 111.0919
1031.035, 111.4796
1031.517, 111.6618
1031.999, 111.6651
1032.481, 111.4114
1032.963, 111.0313
1033.445, 110.8848
1033.927, 111.1282
1034.410, 111.3447
1034.892, 111.1576
1035.374, 111.0506
1035.856, 111.4523
1036.338, 112.3861
1036.820, 112.6925
1037.302, 112.3570
1037.784, 111.9294
1038.266, 111.7165
1038.749, 111.5958
1039.231, 111.4429
1039.713, 111.2880
1040.195, 111.2104
1040.677, 111.2617
1041.159, 111.3081
1041.641, 111.2921
1042.123, 111.3632
1042.605, 111.7595
1043.088, 112.3860
1043.570, 113.0318
1044.052, 113.6736
1044.534, 114.0751
1045.016, 113.9662
1045.498, 113.7216
1045.980, 113.5281
1046.462, 113.3681
1046.945, 113.0971
1047.427, 112.7041
1047.909, 112.4732
1048.391, 112.4986
1048.873, 112.7244
1049.355, 113.1837
1049.837, 113.7708
1050.319, 114.3609
1050.802, 115.0072
1051.284, 115.4322
1051.766, 115.5381
1052.248, 115.6295
1052.730, 115.9034
1053.212, 116.3330
1053.694, 116.9565
1054.176, 117.6941
1054.658, 118.1851
1055.141, 117.8142
1055.623, 117.6802
1056.105, 118.4675
1056.587, 119.5565
1057.069, 119.9658
1057.551, 119.6695
1058.033, 119.6274
1058.515, 119.9852
1058.997, 120.3593
1059.480, 120.2441
1059.962, 120.0993
1060.444, 120.4137
1060.926, 121.2332
1061.408, 121.9382
1061.890, 122.4826
1062.372, 122.9882
1062.854, 123.5067
1063.337, 123.9867
1063.819, 124.2413
1064.301, 124.3868
1064.783, 124.7140
1065.265, 125.4883
1065.747, 126.0014
1066.229, 125.7713
1066.711, 125.4692
1067.193, 125.5232
1067.676, 125.9146
1068.158, 126.2554
1068.640, 126.5618
1069.122, 127.0461
1069.604, 128.0515
1070.086, 129.0705
1070.568, 129.7632
1071.050, 130.2356
1071.532, 130.7103
1072.015, 131.1448
1072.497, 131.8028
1072.979, 132.7584
1073.461, 133.7588
1073.943, 134.5500
1074.425, 135.2111
1074.907, 135.8190
1075.389, 136.3844
1075.872, 137.0598
1076.354, 138.1941
1076.836, 138.9481
1077.318, 138.9123
1077.800, 138.5339
1078.282, 139.0501
1078.764, 140.1338
1079.246, 140.5149
1079.729, 139.6849
1080.211, 138.7739
1080.693, 138.2972
1081.175, 138.0740
1081.657, 138.0237
1082.139, 138.1444
1082.621, 137.9943
1083.103, 137.5695
1083.585, 137.0325
1084.068, 136.2717
1084.550, 135.6516
1085.032, 135.8078
1085.514, 136.2830
1085.996, 136.1912
1086.478, 134.8094
1086.960, 134.4348
1087.442, 135.5198
1087.924, 136.4151
1088.406, 135.1997
1088.889, 132.8877
1089.371, 131.1831
1089.853, 130.1426
1090.335, 129.5136
1090.817, 129.5344
1091.299, 129.5398
1091.781, 129.3126
1092.263, 129.0498
1092.746, 129.1005
1093.228, 129.4365
1093.710, 130.0187
1094.192, 130.8854
1094.674, 131.5375
1095.156, 131.2360
1095.638, 130.9834
1096.120, 131.5757
1096.603, 132.8620
1097.085, 133.8766
1097.567, 134.6278
1098.049, 134.7876
1098.531, 133.9948
1099.013, 133.0708
1099.495, 133.0365
1099.977, 133.3091
1100.459, 133.0858
1100.942, 131.9812
1101.424, 131.2430
1101.906, 130.9336
1102.388, 130.7888
1102.870, 130.7099
1103.352, 130.6363
1103.834, 130.4639
1104.316, 130.1969
1104.798, 129.8506
1105.281, 128.9295
1105.763, 128.6961
1106.245, 129.5268
1106.727, 130.7335
1107.209, 131.7050
1107.691, 132.3975
1108.173, 132.3282
1108.655, 131.5489
1109.138, 131.1030
1109.620, 131.7819
1110.102, 132.7175
1110.584, 133.5793
1111.066, 134.3842
1111.548, 135.2397
1112.030, 136.1475
1112.512, 136.7915
1112.995, 137.0538
1113.477, 137.5066
1113.959, 138.9619
1114.441, 140.5855
1114.923, 141.5319
1115.405, 141.8018
1115.887, 142.5973
1116.369, 144.0077
1116.851, 145.4906
1117.333, 146.8891
1117.816, 148.2048
1118.298, 149.2619
1118.780, 150.3130
1119.262, 151.7703
1119.744, 153.9342
1120.226, 155.8528
1120.708, 157.4499
1121.190, 158.9105
1121.673, 160.4023
1122.155, 161.8162
1122.637, 162.6231
1123.119, 163.1699
1123.601, 164.4140
1124.083, 167.4897
1124.565, 170.2383
1125.047, 172.3433
1125.530, 174.0195
1126.012, 175.3566
1126.494, 176.4346
1126.976, 177.7897
1127.458, 179.3821
1127.940, 180.7430
1128.422, 181.7851
1128.904, 182.3195
1129.386, 181.8597
1129.869, 181.0783
1130.351, 181.2589
1130.833, 182.3660
1131.315, 182.3321
1131.797, 180.8896
1132.279, 178.7203
1132.761, 175.9546
1133.243, 173.0371
1133.725, 170.3161
1134.208, 167.7566
1134.690, 164.9892
1135.172, 161.9629
1135.654, 159.0728
1136.136, 156.4311
1136.618, 153.7691
1137.100, 150.5149
1137.582, 147.2436
1138.065, 144.6556
1138.547, 142.9755
1139.029, 141.1645
1139.511, 139.1626
1139.993, 137.1656
1140.475, 135.1801
1140.957, 133.3547
1141.439, 131.9973
1141.922, 130.9295
1142.404, 129.8234
1142.886, 128.6094
1143.368, 127.3308
1143.850, 125.9331
1144.332, 124.6511
1144.814, 123.7140
1145.296, 122.9757
1145.778, 121.8955
1146.260, 120.6774
1146.743, 119.8855
1147.225, 120.1714
1147.707, 120.3352
1148.189, 120.2299
1148.671, 119.9048
1149.153, 119.2957
1149.635, 118.4940
1150.117, 117.9551
1150.600, 117.6591
1151.082, 117.3832
1151.564, 116.9225
1152.046, 116.5672
1152.528, 116.3863
1153.010, 116.3955
1153.492, 116.7721
1153.974, 117.4501
1154.457, 117.5275
1154.939, 116.9355
1155.421, 116.5552
1155.903, 117.3841
1156.385, 118.1998
1156.867, 118.1749
1157.349, 117.6242
1157.831, 117.1275
1158.313, 116.6791
1158.796, 116.6392
1159.278, 117.0957
1159.760, 117.7104
1160.242, 118.4266
1160.724, 118.9939
1161.206, 119.1270
1161.688, 118.8848
1162.170, 118.6371
1162.652, 118.3400
1163.135, 118.5861
1163.617, 119.7245
1164.099, 120.8434
1164.581, 120.8395
1165.063, 120.4166
1165.545, 120.3314
1166.027, 120.6978
1166.509, 121.0116
1166.992, 121.2976
1167.474, 121.3775
1167.956, 121.0828
1168.438, 120.7182
1168.920, 120.6462
1169.402, 120.7733
1169.884, 120.9962
1170.366, 121.3878
1170.849, 121.5525
1171.331, 121.4615
1171.813, 121.2458
1172.295, 120.9460
1172.777, 120.5983
1173.259, 120.3368
1173.741, 120.0544
1174.223, 119.5318
1174.705, 118.2204
1175.188, 117.6210
1175.670, 118.0024
1176.152, 118.4184
1176.634, 118.1128
1177.116, 117.3683
1177.598, 116.7351
1178.080, 116.1414
1178.562, 115.3552
1179.044, 113.8626
1179.527, 112.8612
1180.009, 112.5556
1180.491, 112.4939
1180.973, 112.2736
1181.455, 111.9500
1181.937, 111.6033
1182.419, 111.2661
1182.901, 111.0572
1183.384, 111.3336
1183.866, 111.2657
1184.348, 110.5667
1184.830, 109.7628
1185.312, 109.5836
1185.794, 109.8091
1186.276, 109.9398
1186.758, 109.9198
1187.240, 109.6238
1187.723, 108.5224
1188.205, 107.7841
1188.687, 107.7540
1189.169, 108.1131
1189.651, 108.4712
1190.133, 108.7718
1190.615, 108.7726
1191.097, 108.4405
1191.579, 108.1646
1192.062, 108.3205
1192.544, 108.2794
1193.026, 107.7150
1193.508, 106.9640
1193.990, 106.8452
1194.472, 107.1773
1194.954, 107.3132
1195.436, 107.1190
1195.919, 106.8999
1196.401, 106.7667
1196.883, 106.6719
1197.365, 106.5751
1197.847, 106.5176
1198.329, 106.6992
1198.811, 107.0343
1199.293, 107.1834
1199.776, 107.0383
1200.258, 106.8179
1200.740, 106.5718
1201.222, 106.3217
1201.704, 106.0543
1202.186, 105.8001
1202.668, 105.6395
1203.150, 105.6032
1203.632, 105.8923
1204.115, 106.7976
1204.597, 107.3707
1205.079, 106.9734
1205.561, 106.2704
1206.043, 105.4938
1206.525, 104.7562
1207.007, 104.8844
1207.489, 105.6714
1207.971, 106.1639
1208.454, 105.7661
1208.936, 105.4633
1209.418, 105.8097
1209.900, 106.2739
1210.382, 106.5758
1210.864, 106.7018
1211.346, 106.4518
1211.828, 105.8979
1212.311, 105.3960
1212.793, 104.9326
1213.275, 104.8114
1213.757, 105.5257
1214.239, 106.2508
1214.721, 106.2620
1215.203, 105.6921
1215.685, 105.6250
1216.167, 105.9701
1216.650, 106.2390
1217.132, 106.0939
1217.614, 105.9622
1218.096, 106.0521
1218.578, 106.1299
1219.060, 105.9272
1219.542, 105.5085
1220.024, 105.3022
1220.506, 105.2984
1220.989, 105.3896
1221.471, 105.5764
1221.953, 105.7950
1222.435, 106.1681
1222.917, 106.4048
1223.399, 105.9945
1223.881, 105.1562
1224.363, 105.1993
1224.846, 105.9823
1225.328, 106.3873
1225.810, 105.2126
1226.292, 104.5121
1226.774, 105.0737
1227.256, 105.8829
1227.738, 105.5301
1228.220, 104.4303
1228.703, 104.2185
1229.185, 104.8385
1229.667, 105.2811
1230.149, 104.6449
1230.631, 104.4263
1231.113, 105.1697
1231.595, 106.1072
1232.077, 106.1842
1232.559, 105.6806
1233.042, 105.3362
1233.524, 105.1925
1234.006, 105.1152
1234.488, 104.9771
1234.970, 105.0593
1235.452, 105.5703
1235.934, 106.0309
1236.416, 105.6335
1236.898, 104.7486
1237.381, 104.1228
1237.863, 103.8303
1238.345, 103.8492
1238.827, 104.5622
1239.309, 104.9838
1239.791, 104.8848
1240.273, 104.5936
1240.755, 104.5622
1241.238, 104.6486
1241.720, 104.5795
1242.202, 104.3432
1242.684, 104.1076
1243.166, 103.8100
1243.648, 103.7348
1244.130, 103.9987
1244.612, 104.3263
1245.094, 104.2191
1245.577, 104.0146
1246.059, 104.3520
1246.541, 105.2265
1247.023, 105.6555
1247.505, 105.3924
1247.987, 105.2083
1248.469, 105.3074
1248.951, 105.3790
1249.433, 104.8328
1249.916, 104.1739
1250.398, 104.0607
1250.880, 104.5217
1251.362, 104.8578
1251.844, 105.0203
1252.326, 105.1788
1252.808, 105.3901
1253.290, 105.5211
1253.773, 105.3006
1254.255, 105.0264
1254.737, 105.0750
1255.219, 105.4064
1255.701, 105.4065
1256.183, 105.0376
1256.665, 104.6504
1257.147, 104.3133
1257.630, 104.0473
1258.112, 103.8444
1258.594, 103.7452
1259.076, 103.8018
1259.558, 103.9952
1260.040, 104.3486
1260.522, 104.8545
1261.004, 105.0500
1261.486, 104.7876
1261.969, 104.5209
1262.451, 104.7599
1262.933, 104.9389
1263.415, 104.5409
1263.897, 103.8301
1264.379, 103.7944
1264.861, 104.3268
1265.343, 104.6359
1265.825, 104.5326
1266.308, 104.3399
1266.790, 104.0285
1267.272, 103.9460
1267.754, 104.3525
1268.236, 104.9986
1268.718, 105.2541
1269.200, 105.1844
1269.682, 104.9585
1270.165, 104.5764
1270.647, 104.3748
1271.129, 104.7535
1271.611, 105.0000
1272.093, 104.8340
1272.575, 104.4774
1273.057, 104.3495
1273.539, 104.3824
1274.021, 104.4716
1274.504, 104.6163
1274.986, 104.5602
1275.468, 104.1272
1275.950, 103.7785
1276.432, 103.6471
1276.914, 103.6680
1277.396, 103.7826
1277.878, 103.9586
1278.360, 104.1565
1278.843, 104.3715
1279.325, 104.6070
1279.807, 104.9451
1280.289, 104.9410
1280.771, 104.3603
1281.253, 103.7567
1281.735, 103.8832
1282.217, 104.2832
1282.700, 104.4301
1283.182, 104.3100
1283.664, 104.3777
1284.146, 104.6481
1284.628, 104.9353
1285.110, 105.2103
1285.592, 105.4145
1286.074, 105.4631
1286.557, 105.4509
1287.039, 105.4303
1287.521, 105.4141
1288.003, 105.4840
1288.485, 105.6216
1288.967, 105.6252
1289.449, 105.4569
1289.931, 105.1090
1290.413, 104.2485
1290.896, 103.5991
1291.378, 103.5812
1291.860, 103.9341
1292.342, 103.9620
1292.824, 103.7947
1293.306, 103.9345
1293.788, 104.4918
1294.270, 104.9597
1294.752, 105.2206
1295.235, 105.2036
1295.717, 104.7967
1296.199, 104.2508
1296.681, 103.8086
1297.163, 103.6212
1297.645, 104.2383
1298.127, 105.7190
1298.609, 106.2872
1299.092, 105.3862
1299.574, 104.6569
1300.056, 104.5180
1300.538, 104.5346
1301.020, 104.0250
1301.502, 103.4777
1301.984, 103.5279
1302.466, 104.1710
1302.948, 104.7692
1303.431, 105.3708
1303.913, 105.5503
1304.395, 105.2512
1304.877, 104.4130
##END=



