##NAMES=Orthoclase
##RRUFFID=R070001
##IDEAL CHEMISTRY=KAlSi_3_O_8_
##LOCALITY=Lengenbach Quarry, Binnental, Valais, Switzerland
##OWNER=RRUFF
##SOURCE=Michael Scott
##DESCRIPTION=Colorless single crystal with a habit similar to adularia
##STATUS=The identification of this mineral has been confirmed by X-ray diffraction and chemical analysis
##URL=rruff.info/R070001
##MEASURED CHEMISTRY= (K_0.92_Na_0.07_Ba_0.01_)_Σ=1_Al_1.01_Si_2.99_O_8_; darker core :  (K_0.91_Na_0.07_Ba_0.02_)_Σ=1_Al_1.02_Si_2.98_O_8_ ; lighter rim
120.7718, 544.9137
121.2539, 582.5374
121.7360, 617.5256
122.2181, 650.2681
122.7003, 681.4270
123.1824, 714.7882
123.6645, 745.2745
124.1466, 765.4373
124.6287, 772.9942
125.1108, 777.2814
125.5930, 786.5848
126.0751, 800.2927
126.5572, 816.1202
127.0393, 834.1697
127.5214, 853.2088
128.0035, 869.9133
128.4857, 882.7396
128.9678, 894.5519
129.4499, 909.5612
129.9320, 927.8014
130.4141, 948.7254
130.8962, 974.5469
131.3784, 1004.019
131.8605, 1027.786
132.3426, 1041.087
132.8247, 1047.320
133.3068, 1058.960
133.7889, 1076.611
134.2711, 1097.330
134.7532, 1118.285
135.2353, 1139.300
135.7174, 1160.443
136.1995, 1181.792
136.6816, 1203.450
137.1638, 1224.140
137.6459, 1242.336
138.1280, 1261.534
138.6101, 1289.211
139.0922, 1329.038
139.5743, 1367.218
140.0565, 1397.797
140.5386, 1419.567
141.0207, 1437.393
141.5028, 1448.360
141.9849, 1455.936
142.4670, 1472.828
142.9492, 1500.833
143.4313, 1535.450
143.9134, 1573.627
144.3955, 1615.715
144.8776, 1661.307
145.3597, 1710.970
145.8419, 1763.838
146.3240, 1820.685
146.8061, 1878.245
147.2882, 1941.759
147.7703, 2015.219
148.2524, 2115.793
148.7346, 2207.747
149.2167, 2281.956
149.6988, 2332.533
150.1809, 2391.107
150.6630, 2459.559
151.1452, 2535.596
151.6273, 2615.437
152.1094, 2708.739
152.5915, 2797.281
153.0736, 2876.651
153.5557, 2947.769
154.0379, 3004.717
154.5200, 3049.290
155.0021, 3079.488
155.4842, 3091.823
155.9663, 3073.881
156.4484, 3046.308
156.9306, 3018.965
157.4127, 2997.294
157.8948, 2970.565
158.3769, 2936.000
158.8590, 2894.144
159.3411, 2847.237
159.8233, 2794.615
160.3054, 2737.453
160.7875, 2676.454
161.2696, 2605.328
161.7517, 2536.292
162.2338, 2474.755
162.7160, 2420.157
163.1981, 2365.451
163.6802, 2307.973
164.1623, 2248.539
164.6444, 2188.015
165.1265, 2117.485
165.6087, 2052.419
166.0908, 2004.905
166.5729, 1975.863
167.0550, 1951.851
167.5371, 1927.167
168.0192, 1901.856
168.5014, 1875.879
168.9835, 1841.064
169.4656, 1810.184
169.9477, 1798.201
170.4298, 1809.968
170.9119, 1823.973
171.3941, 1820.890
171.8762, 1806.368
172.3583, 1794.590
172.8404, 1795.899
173.3225, 1803.509
173.8046, 1810.422
174.2868, 1817.989
174.7689, 1819.001
175.2510, 1802.525
175.7331, 1771.192
176.2152, 1737.936
176.6973, 1709.284
177.1795, 1684.439
177.6616, 1662.589
178.1437, 1644.808
178.6258, 1628.391
179.1079, 1611.837
179.5900, 1594.692
180.0722, 1573.166
180.5543, 1539.357
181.0364, 1497.721
181.5185, 1461.882
182.0006, 1436.423
182.4827, 1418.546
182.9649, 1402.170
183.4470, 1387.419
183.9291, 1374.529
184.4112, 1366.102
184.8933, 1360.785
185.3754, 1352.164
185.8576, 1332.828
186.3397, 1308.394
186.8218, 1298.690
187.3039, 1305.587
187.7860, 1317.402
188.2681, 1318.948
188.7503, 1311.136
189.2324, 1305.547
189.7145, 1308.305
190.1966, 1318.186
190.6787, 1327.629
191.1608, 1336.143
191.6430, 1345.209
192.1251, 1360.041
192.6072, 1380.907
193.0893, 1395.993
193.5714, 1394.357
194.0535, 1377.374
194.5357, 1371.432
195.0178, 1380.359
195.4999, 1397.210
195.9820, 1410.152
196.4641, 1419.262
196.9462, 1423.187
197.4284, 1420.846
197.9105, 1412.183
198.3926, 1398.794
198.8747, 1380.157
199.3568, 1357.388
199.8389, 1333.258
200.3211, 1307.595
200.8032, 1281.278
201.2853, 1252.839
201.7674, 1221.113
202.2495, 1198.210
202.7316, 1189.108
203.2138, 1189.567
203.6959, 1180.754
204.1780, 1160.079
204.6601, 1137.258
205.1422, 1119.187
205.6243, 1105.630
206.1065, 1098.484
206.5886, 1100.160
207.0707, 1109.313
207.5528, 1114.365
208.0349, 1114.701
208.5170, 1112.121
208.9992, 1108.145
209.4813, 1102.602
209.9634, 1096.039
210.4455, 1087.656
210.9276, 1077.607
211.4097, 1070.791
211.8919, 1067.098
212.3740, 1066.813
212.8561, 1071.051
213.3382, 1081.700
213.8203, 1091.715
214.3024, 1099.671
214.7846, 1105.589
215.2667, 1108.311
215.7488, 1106.894
216.2309, 1103.333
216.7130, 1099.982
217.1951, 1096.307
217.6773, 1094.068
218.1594, 1094.064
218.6415, 1096.769
219.1236, 1099.178
219.6057, 1101.277
220.0878, 1103.142
220.5700, 1104.648
221.0521, 1105.034
221.5342, 1106.634
222.0163, 1111.562
222.4984, 1122.759
222.9805, 1125.731
223.4627, 1116.526
223.9448, 1101.287
224.4269, 1092.129
224.9090, 1090.505
225.3911, 1092.326
225.8732, 1096.453
226.3554, 1103.833
226.8375, 1110.969
227.3196, 1118.251
227.8017, 1125.028
228.2838, 1129.869
228.7659, 1132.850
229.2481, 1133.704
229.7302, 1132.084
230.2123, 1127.046
230.6944, 1121.294
231.1765, 1112.598
231.6587, 1103.708
232.1408, 1103.209
232.6229, 1115.630
233.1050, 1130.087
233.5871, 1141.031
234.0692, 1145.800
234.5514, 1153.034
235.0335, 1163.867
235.5156, 1177.290
235.9977, 1190.129
236.4798, 1202.495
236.9619, 1214.329
237.4441, 1226.027
237.9262, 1239.594
238.4083, 1248.433
238.8904, 1249.297
239.3725, 1244.793
239.8546, 1247.335
240.3368, 1260.576
240.8189, 1276.173
241.3010, 1288.781
241.7831, 1294.743
242.2652, 1305.361
242.7473, 1322.701
243.2295, 1345.794
243.7116, 1368.707
244.1937, 1393.127
244.6758, 1415.440
245.1579, 1432.880
245.6400, 1442.584
246.1222, 1453.280
246.6043, 1465.376
247.0864, 1479.051
247.5685, 1494.749
248.0506, 1511.130
248.5327, 1531.144
249.0149, 1557.768
249.4970, 1595.945
249.9791, 1629.931
250.4612, 1656.620
250.9433, 1677.125
251.4254, 1698.943
251.9076, 1717.742
252.3897, 1743.448
252.8718, 1786.603
253.3539, 1860.514
253.8360, 1919.156
254.3181, 1950.954
254.8003, 1960.036
255.2824, 1982.673
255.7645, 2023.676
256.2466, 2071.309
256.7287, 2117.371
257.2108, 2164.126
257.6930, 2203.958
258.1751, 2232.386
258.6572, 2251.465
259.1393, 2279.851
259.6214, 2321.740
260.1035, 2365.603
260.5857, 2400.357
261.0678, 2420.817
261.5499, 2447.942
262.0320, 2486.965
262.5141, 2536.448
262.9962, 2582.376
263.4784, 2626.445
263.9605, 2665.011
264.4426, 2693.498
264.9247, 2707.370
265.4068, 2727.514
265.8889, 2759.852
266.3711, 2801.829
266.8532, 2837.312
267.3353, 2866.359
267.8174, 2888.240
268.2995, 2899.508
268.7816, 2895.194
269.2638, 2900.711
269.7459, 2921.329
270.2280, 2955.142
270.7101, 2992.323
271.1922, 3032.698
271.6743, 3076.569
272.1565, 3125.813
272.6386, 3183.329
273.1207, 3232.829
273.6028, 3268.709
274.0849, 3294.585
274.5670, 3327.610
275.0492, 3367.172
275.5313, 3415.557
276.0134, 3478.193
276.4955, 3557.129
276.9776, 3628.830
277.4597, 3687.804
277.9419, 3736.527
278.4240, 3785.199
278.9061, 3834.868
279.3882, 3880.215
279.8703, 3915.036
280.3524, 3939.277
280.8346, 3963.467
281.3167, 3991.397
281.7988, 4019.188
282.2809, 4036.182
282.7630, 4042.528
283.2451, 4037.034
283.7273, 4019.728
284.2094, 3990.583
284.6915, 3945.196
285.1736, 3881.049
285.6557, 3801.898
286.1378, 3713.425
286.6200, 3614.994
287.1021, 3517.018
287.5842, 3431.075
288.0663, 3355.162
288.5484, 3268.592
289.0305, 3165.766
289.5127, 3053.595
289.9948, 2939.324
290.4769, 2823.100
290.9590, 2714.971
291.4411, 2625.347
291.9232, 2550.860
292.4054, 2475.775
292.8875, 2396.102
293.3696, 2316.503
293.8517, 2247.282
294.3338, 2187.302
294.8159, 2128.369
295.2981, 2064.228
295.7802, 1997.006
296.2623, 1932.860
296.7444, 1871.389
297.2265, 1816.669
297.7086, 1778.347
298.1908, 1754.114
298.6729, 1730.236
299.1550, 1698.828
299.6371, 1661.963
300.1192, 1621.838
300.6013, 1577.265
301.0835, 1534.476
301.5656, 1500.634
302.0477, 1474.610
302.5298, 1453.863
303.0119, 1441.304
303.4940, 1431.333
303.9762, 1414.599
304.4583, 1388.071
304.9404, 1363.470
305.4225, 1357.084
305.9046, 1361.376
306.3867, 1358.725
306.8689, 1330.057
307.3510, 1295.259
307.8331, 1275.765
308.3152, 1275.111
308.7973, 1278.182
309.2794, 1277.073
309.7616, 1272.170
310.2437, 1264.065
310.7258, 1249.139
311.2079, 1233.846
311.6900, 1222.681
312.1721, 1216.411
312.6543, 1211.842
313.1364, 1209.647
313.6185, 1207.562
314.1006, 1202.577
314.5827, 1185.237
315.0648, 1171.465
315.5470, 1173.267
316.0291, 1191.995
316.5112, 1205.669
316.9933, 1200.964
317.4754, 1188.428
317.9576, 1178.951
318.4397, 1178.519
318.9218, 1178.937
319.4039, 1176.739
319.8860, 1171.890
320.3681, 1169.212
320.8503, 1170.479
321.3324, 1174.095
321.8145, 1178.801
322.2966, 1188.190
322.7787, 1194.621
323.2608, 1194.482
323.7430, 1188.547
324.2251, 1185.739
324.7072, 1191.951
325.1893, 1198.500
325.6714, 1200.138
326.1535, 1189.122
326.6357, 1181.734
327.1178, 1179.952
327.5999, 1183.109
328.0820, 1187.497
328.5641, 1196.840
329.0462, 1204.154
329.5284, 1206.009
330.0105, 1199.052
330.4926, 1191.610
330.9747, 1181.796
331.4568, 1171.617
331.9389, 1167.778
332.4211, 1175.777
332.9032, 1182.566
333.3853, 1181.729
333.8674, 1168.436
334.3495, 1160.932
334.8316, 1161.399
335.3138, 1166.218
335.7959, 1167.628
336.2780, 1163.432
336.7601, 1161.396
337.2422, 1166.273
337.7243, 1179.865
338.2065, 1185.105
338.6886, 1179.636
339.1707, 1169.546
339.6528, 1163.986
340.1349, 1163.774
340.6170, 1162.940
341.0992, 1158.395
341.5813, 1150.834
342.0634, 1148.191
342.5455, 1151.364
343.0276, 1156.331
343.5097, 1158.710
343.9919, 1158.577
344.4740, 1157.691
344.9561, 1155.493
345.4382, 1153.275
345.9203, 1155.750
346.4024, 1163.167
346.8846, 1171.573
347.3667, 1178.409
347.8488, 1183.532
348.3309, 1185.445
348.8130, 1181.428
349.2951, 1176.802
349.7773, 1182.399
350.2594, 1197.068
350.7415, 1210.668
351.2236, 1214.218
351.7057, 1212.105
352.1878, 1212.488
352.6700, 1217.318
353.1521, 1224.004
353.6342, 1229.596
354.1163, 1234.710
354.5984, 1241.320
355.0806, 1251.877
355.5627, 1263.826
356.0448, 1274.602
356.5269, 1283.728
357.0090, 1292.225
357.4911, 1298.972
357.9733, 1305.712
358.4554, 1315.563
358.9375, 1335.950
359.4196, 1355.317
359.9017, 1365.404
360.3839, 1364.472
360.8660, 1363.680
361.3481, 1368.108
361.8302, 1374.876
362.3123, 1380.752
362.7944, 1381.842
363.2766, 1384.757
363.7587, 1394.228
364.2408, 1410.216
364.7229, 1420.337
365.2050, 1416.319
365.6871, 1408.904
366.1693, 1405.802
366.6514, 1412.537
367.1335, 1418.296
367.6156, 1421.957
368.0977, 1423.637
368.5798, 1424.366
369.0620, 1425.201
369.5441, 1424.142
370.0262, 1420.046
370.5083, 1410.368
370.9904, 1401.567
371.4725, 1390.450
371.9547, 1380.978
372.4368, 1386.168
372.9189, 1419.064
373.4010, 1442.042
373.8831, 1436.098
374.3652, 1393.733
374.8474, 1364.648
375.3295, 1353.268
375.8116, 1349.435
376.2937, 1337.107
376.7758, 1314.667
377.2579, 1293.969
377.7401, 1278.898
378.2222, 1269.047
378.7043, 1261.880
379.1864, 1257.602
379.6685, 1255.396
380.1506, 1256.269
380.6328, 1259.651
381.1149, 1258.620
381.5970, 1248.240
382.0791, 1235.046
382.5612, 1236.792
383.0433, 1252.789
383.5255, 1266.412
384.0076, 1260.404
384.4897, 1243.059
384.9718, 1233.483
385.4539, 1236.290
385.9360, 1245.166
386.4182, 1255.451
386.9003, 1266.405
387.3824, 1275.654
387.8645, 1281.322
388.3466, 1284.950
388.8287, 1287.235
389.3109, 1287.580
389.7930, 1290.673
390.2751, 1301.444
390.7572, 1316.720
391.2393, 1331.536
391.7214, 1344.149
392.2036, 1355.771
392.6857, 1367.326
393.1678, 1378.850
393.6499, 1389.328
394.1320, 1397.026
394.6141, 1404.218
395.0963, 1412.740
395.5784, 1420.688
396.0605, 1432.550
396.5426, 1450.707
397.0247, 1474.199
397.5068, 1497.315
397.9890, 1521.385
398.4711, 1543.457
398.9532, 1562.254
399.4353, 1577.854
399.9174, 1590.012
400.3995, 1597.763
400.8817, 1602.277
401.3638, 1605.278
401.8459, 1603.889
402.3280, 1605.912
402.8101, 1615.793
403.2922, 1635.680
403.7744, 1647.521
404.2565, 1649.936
404.7386, 1646.297
405.2207, 1640.214
405.7028, 1631.668
406.1849, 1620.605
406.6671, 1606.111
407.1492, 1589.109
407.6313, 1575.926
408.1134, 1567.417
408.5955, 1555.573
409.0776, 1530.717
409.5598, 1495.530
410.0419, 1463.619
410.5240, 1436.583
411.0061, 1414.828
411.4882, 1402.691
411.9703, 1398.325
412.4525, 1391.469
412.9346, 1372.665
413.4167, 1348.823
413.8988, 1331.531
414.3809, 1322.713
414.8630, 1314.321
415.3452, 1299.165
415.8273, 1279.768
416.3094, 1260.761
416.7915, 1240.447
417.2736, 1223.939
417.7557, 1216.485
418.2379, 1217.524
418.7200, 1219.479
419.2021, 1221.932
419.6842, 1222.142
420.1663, 1217.620
420.6484, 1200.783
421.1306, 1187.894
421.6127, 1184.418
422.0948, 1188.254
422.5769, 1192.947
423.0590, 1198.281
423.5411, 1203.605
424.0233, 1208.886
424.5054, 1214.902
424.9875, 1218.582
425.4696, 1216.708
425.9517, 1214.112
426.4338, 1218.220
426.9160, 1236.148
427.3981, 1247.405
427.8802, 1243.437
428.3623, 1225.295
428.8444, 1222.679
429.3265, 1240.089
429.8087, 1263.137
430.2908, 1280.871
430.7729, 1292.782
431.2550, 1302.686
431.7371, 1309.172
432.2192, 1316.248
432.7014, 1334.411
433.1835, 1363.516
433.6656, 1394.205
434.1477, 1421.850
434.6298, 1446.591
435.1119, 1467.063
435.5941, 1482.217
436.0762, 1499.553
436.5583, 1529.240
437.0404, 1567.663
437.5225, 1606.040
438.0046, 1638.812
438.4868, 1671.180
438.9689, 1707.764
439.4510, 1748.684
439.9331, 1793.120
440.4152, 1842.953
440.8973, 1895.328
441.3795, 1947.023
441.8616, 1993.803
442.3437, 2046.045
442.8258, 2109.658
443.3079, 2181.540
443.7900, 2254.704
444.2722, 2327.520
444.7543, 2400.117
445.2364, 2470.979
445.7185, 2536.639
446.2006, 2611.517
446.6827, 2706.212
447.1649, 2805.965
447.6470, 2895.774
448.1291, 2967.526
448.6112, 3042.164
449.0933, 3125.121
449.5754, 3213.650
450.0576, 3296.114
450.5397, 3374.077
451.0218, 3443.023
451.5039, 3498.407
451.9860, 3538.449
452.4681, 3583.400
452.9503, 3638.691
453.4324, 3692.302
453.9145, 3726.516
454.3966, 3741.453
454.8787, 3741.412
455.3608, 3720.809
455.8430, 3687.670
456.3251, 3669.198
456.8072, 3665.698
457.2893, 3654.718
457.7714, 3602.201
458.2535, 3530.033
458.7357, 3482.763
459.2178, 3479.074
459.6999, 3490.462
460.1820, 3493.169
460.6641, 3490.249
461.1462, 3490.814
461.6284, 3497.776
462.1105, 3510.994
462.5926, 3528.024
463.0747, 3546.740
463.5568, 3581.104
464.0389, 3640.094
464.5211, 3715.494
465.0032, 3797.620
465.4853, 3881.118
465.9674, 3975.018
466.4495, 4085.321
466.9316, 4210.206
467.4138, 4329.702
467.8959, 4435.956
468.3780, 4545.208
468.8601, 4665.568
469.3422, 4799.721
469.8243, 4939.267
470.3065, 5087.576
470.7886, 5237.946
471.2707, 5376.890
471.7528, 5504.349
472.2349, 5623.565
472.7170, 5742.165
473.1992, 5854.587
473.6813, 5930.812
474.1634, 5969.724
474.6455, 5983.839
475.1276, 5994.530
475.6097, 5990.808
476.0919, 5931.345
476.5740, 5798.738
477.0561, 5630.750
477.5382, 5463.925
478.0203, 5297.936
478.5024, 5131.791
478.9846, 4969.430
479.4667, 4803.157
479.9488, 4619.666
480.4309, 4416.238
480.9130, 4231.861
481.3951, 4096.291
481.8773, 3986.969
482.3594, 3883.251
482.8415, 3777.081
483.3236, 3678.574
483.8057, 3593.987
484.2878, 3520.492
484.7700, 3446.418
485.2521, 3363.269
485.7342, 3286.123
486.2163, 3221.416
486.6984, 3171.402
487.1805, 3123.283
487.6627, 3074.900
488.1448, 3031.277
488.6269, 2998.239
489.1090, 2977.352
489.5911, 2960.124
490.0732, 2942.593
490.5554, 2928.416
491.0375, 2930.805
491.5196, 2950.693
492.0017, 2978.633
492.4838, 3009.017
492.9659, 3042.676
493.4481, 3082.622
493.9302, 3127.983
494.4123, 3183.616
494.8944, 3252.935
495.3765, 3336.333
495.8586, 3436.199
496.3408, 3552.929
496.8229, 3687.566
497.3050, 3842.790
497.7871, 4017.233
498.2692, 4211.666
498.7513, 4420.578
499.2335, 4651.677
499.7156, 4910.992
500.1977, 5201.203
500.6798, 5513.384
501.1619, 5842.217
501.6440, 6189.438
502.1262, 6562.345
502.6083, 6961.401
503.0904, 7385.986
503.5725, 7833.675
504.0546, 8308.932
504.5367, 8793.108
505.0189, 9283.548
505.5010, 9785.292
505.9831, 10304.67
506.4652, 10837.85
506.9473, 11401.71
507.4294, 12005.57
507.9116, 12623.80
508.3937, 13239.29
508.8758, 13849.54
509.3579, 14457.58
509.8400, 15078.71
510.3221, 15691.41
510.8043, 16273.67
511.2864, 16816.51
511.7685, 17270.65
512.2506, 17623.78
512.7327, 17856.04
513.2148, 17948.82
513.6970, 17909.16
514.1791, 17696.61
514.6612, 17247.57
515.1433, 16617.05
515.6254, 15886.47
516.1075, 15030.76
516.5897, 14130.10
517.0718, 13183.89
517.5539, 12195.86
518.0360, 11265.32
518.5181, 10397.76
519.0002, 9590.003
519.4824, 8858.957
519.9645, 8208.064
520.4466, 7605.425
520.9287, 7048.199
521.4108, 6541.682
521.8929, 6097.650
522.3751, 5726.212
522.8572, 5387.171
523.3393, 5076.158
523.8214, 4788.538
524.3035, 4517.513
524.7856, 4261.688
525.2678, 4025.030
525.7499, 3811.488
526.2320, 3620.949
526.7141, 3457.958
527.1962, 3329.220
527.6783, 3214.247
528.1605, 3092.658
528.6426, 2972.573
529.1247, 2866.449
529.6068, 2787.993
530.0889, 2717.831
530.5710, 2642.951
531.0532, 2565.842
531.5353, 2494.428
532.0174, 2437.846
532.4995, 2383.532
532.9816, 2323.864
533.4637, 2248.176
533.9459, 2189.087
534.4280, 2157.988
534.9101, 2137.008
535.3922, 2103.976
535.8743, 2051.488
536.3564, 2004.771
536.8386, 1969.524
537.3207, 1943.155
537.8028, 1912.625
538.2849, 1876.982
538.7670, 1843.874
539.2491, 1818.534
539.7313, 1799.813
540.2134, 1783.059
540.6955, 1768.267
541.1776, 1752.834
541.6597, 1733.054
542.1418, 1710.643
542.6240, 1689.262
543.1061, 1670.660
543.5882, 1652.643
544.0703, 1632.978
544.5524, 1612.497
545.0345, 1593.196
545.5167, 1574.124
545.9988, 1558.187
546.4809, 1548.782
546.9630, 1547.884
547.4451, 1542.211
547.9272, 1527.089
548.4094, 1508.119
548.8915, 1489.023
549.3736, 1464.453
549.8557, 1450.438
550.3378, 1453.306
550.8199, 1464.312
551.3021, 1462.270
551.7842, 1443.972
552.2663, 1427.953
552.7484, 1422.849
553.2305, 1425.992
553.7126, 1423.727
554.1948, 1415.808
554.6769, 1406.735
555.1590, 1399.717
555.6411, 1394.327
556.1232, 1389.316
556.6053, 1383.879
557.0875, 1380.984
557.5696, 1387.691
558.0517, 1398.149
558.5338, 1401.890
559.0159, 1389.053
559.4980, 1374.411
559.9802, 1362.323
560.4623, 1353.292
560.9444, 1350.107
561.4265, 1361.570
561.9086, 1372.022
562.3907, 1373.291
562.8729, 1361.188
563.3550, 1353.364
563.8371, 1351.433
564.3192, 1352.034
564.8013, 1350.923
565.2834, 1347.207
565.7656, 1346.722
566.2477, 1350.946
566.7298, 1358.581
567.2119, 1368.607
567.6940, 1380.736
568.1761, 1389.598
568.6583, 1389.517
569.1404, 1385.247
569.6225, 1385.232
570.1046, 1389.669
570.5867, 1395.585
571.0688, 1402.604
571.5510, 1409.140
572.0331, 1413.186
572.5152, 1413.194
572.9973, 1412.966
573.4794, 1412.389
573.9615, 1412.798
574.4437, 1416.400
574.9258, 1428.830
575.4079, 1438.575
575.8900, 1441.883
576.3721, 1439.668
576.8542, 1441.606
577.3364, 1450.265
577.8185, 1458.054
578.3006, 1459.066
578.7827, 1452.670
579.2648, 1452.899
579.7469, 1461.272
580.2291, 1471.242
580.7112, 1476.261
581.1933, 1476.582
581.6754, 1472.603
582.1575, 1462.569
582.6396, 1451.411
583.1218, 1443.854
583.6039, 1439.723
584.0860, 1438.533
584.5681, 1448.667
585.0502, 1454.733
585.5323, 1442.496
586.0145, 1411.449
586.4966, 1387.573
586.9787, 1380.997
587.4608, 1381.529
587.9429, 1381.918
588.4250, 1371.638
588.9072, 1383.781
589.3893, 1440.082
589.8714, 1500.890
590.3535, 1503.002
590.8356, 1431.079
591.3177, 1376.410
591.7999, 1365.131
592.2820, 1381.652
592.7641, 1383.902
593.2462, 1372.405
593.7283, 1359.708
594.2104, 1352.526
594.6926, 1349.281
595.1747, 1348.058
595.6568, 1348.763
596.1389, 1349.986
596.6210, 1349.470
597.1031, 1349.563
597.5853, 1353.524
598.0674, 1367.560
598.5495, 1375.319
599.0316, 1367.137
599.5137, 1350.819
599.9958, 1339.572
600.4780, 1338.112
600.9601, 1336.795
601.4423, 1333.628
601.9244, 1329.184
602.4065, 1326.149
602.8886, 1324.274
603.3707, 1324.589
603.8528, 1329.985
604.3350, 1339.428
604.8171, 1340.680
605.2992, 1332.768
605.7813, 1323.261
606.2634, 1319.834
606.7455, 1320.041
607.2277, 1318.781
607.7098, 1314.820
608.1919, 1309.355
608.6740, 1301.088
609.1561, 1292.259
609.6382, 1287.175
610.1204, 1292.162
610.6025, 1296.091
611.0846, 1292.751
611.5667, 1283.341
612.0488, 1280.104
612.5309, 1288.154
613.0131, 1296.891
613.4952, 1301.789
613.9773, 1302.323
614.4594, 1303.103
614.9415, 1303.467
615.4236, 1305.772
615.9058, 1315.534
616.3879, 1331.263
616.8700, 1338.019
617.3521, 1332.054
617.8342, 1320.208
618.3163, 1307.797
618.7985, 1296.427
619.2806, 1290.082
619.7627, 1295.005
620.2448, 1301.658
620.7269, 1302.398
621.2090, 1298.724
621.6912, 1297.627
622.1733, 1305.727
622.6554, 1313.216
623.1375, 1314.809
623.6196, 1308.674
624.1017, 1305.154
624.5839, 1304.998
625.0660, 1306.591
625.5481, 1309.132
626.0302, 1312.972
626.5123, 1315.781
626.9944, 1317.555
627.4766, 1317.848
627.9587, 1315.062
628.4408, 1309.763
628.9229, 1305.632
629.4050, 1305.489
629.8871, 1305.265
630.3693, 1297.828
630.8514, 1285.626
631.3335, 1276.827
631.8156, 1277.230
632.2977, 1281.041
632.7798, 1284.831
633.2620, 1288.339
633.7441, 1293.377
634.2262, 1307.281
634.7083, 1317.248
635.1904, 1314.671
635.6725, 1290.959
636.1547, 1277.886
636.6368, 1278.923
637.1189, 1285.727
637.6010, 1288.634
638.0831, 1287.592
638.5652, 1285.066
639.0474, 1280.594
639.5295, 1276.577
640.0116, 1277.316
640.4937, 1282.077
640.9758, 1288.343
641.4579, 1299.412
641.9401, 1308.003
642.4222, 1304.195
642.9043, 1290.181
643.3864, 1281.585
643.8685, 1289.693
644.3506, 1300.652
644.8328, 1306.771
645.3149, 1305.227
645.7970, 1307.381
646.2791, 1316.279
646.7612, 1325.583
647.2433, 1329.658
647.7255, 1327.563
648.2076, 1325.227
648.6897, 1322.870
649.1718, 1321.178
649.6539, 1321.694
650.1360, 1324.041
650.6182, 1326.387
651.1003, 1329.064
651.5824, 1330.278
652.0645, 1324.999
652.5466, 1316.009
653.0287, 1311.763
653.5109, 1321.931
653.9930, 1332.954
654.4751, 1338.659
654.9572, 1338.661
655.4393, 1333.431
655.9214, 1316.003
656.4036, 1299.766
656.8857, 1290.876
657.3678, 1290.500
657.8499, 1293.414
658.3320, 1301.831
658.8141, 1308.714
659.2963, 1304.935
659.7784, 1291.533
660.2605, 1279.138
660.7426, 1269.188
661.2247, 1261.578
661.7068, 1254.832
662.1890, 1250.378
662.6711, 1251.344
663.1532, 1266.688
663.6353, 1280.552
664.1174, 1283.315
664.5995, 1277.429
665.0817, 1270.935
665.5638, 1265.758
666.0459, 1260.172
666.5280, 1252.668
667.0101, 1243.257
667.4922, 1238.634
667.9744, 1241.025
668.4565, 1243.331
668.9386, 1240.314
669.4207, 1232.347
669.9028, 1226.846
670.3849, 1224.219
670.8671, 1222.654
671.3492, 1219.012
671.8313, 1215.383
672.3134, 1216.858
672.7955, 1227.209
673.2776, 1235.541
673.7598, 1231.950
674.2419, 1222.607
674.7240, 1216.590
675.2061, 1221.179
675.6882, 1223.541
676.1703, 1218.380
676.6525, 1209.319
677.1346, 1206.506
677.6167, 1212.599
678.0988, 1218.829
678.5809, 1223.652
679.0630, 1226.191
679.5452, 1219.650
680.0273, 1203.943
680.5094, 1190.115
680.9915, 1187.295
681.4736, 1190.888
681.9557, 1193.171
682.4379, 1193.689
682.9200, 1194.928
683.4021, 1201.729
683.8842, 1208.044
684.3663, 1207.349
684.8484, 1191.966
685.3306, 1184.951
685.8127, 1200.586
686.2948, 1220.248
686.7769, 1224.151
687.2590, 1203.402
687.7411, 1192.823
688.2233, 1199.181
688.7054, 1213.684
689.1875, 1220.638
689.6696, 1220.340
690.1517, 1215.661
690.6339, 1204.113
691.1160, 1192.617
691.5981, 1191.863
692.0802, 1199.635
692.5623, 1208.477
693.0444, 1218.270
693.5266, 1224.818
694.0087, 1223.118
694.4908, 1213.444
694.9729, 1208.927
695.4550, 1214.936
695.9371, 1223.081
696.4193, 1230.170
696.9014, 1236.126
697.3835, 1241.634
697.8656, 1246.755
698.3477, 1251.262
698.8298, 1255.127
699.3120, 1258.231
699.7941, 1259.124
700.2762, 1257.071
700.7583, 1256.160
701.2404, 1262.464
701.7225, 1271.907
702.2047, 1278.235
702.6868, 1276.589
703.1689, 1276.219
703.6510, 1279.176
704.1331, 1285.959
704.6152, 1298.128
705.0974, 1326.472
705.5795, 1343.008
706.0616, 1337.434
706.5437, 1319.474
707.0258, 1320.617
707.5079, 1343.159
707.9901, 1364.546
708.4722, 1375.551
708.9543, 1378.926
709.4364, 1378.954
709.9185, 1376.268
710.4006, 1375.339
710.8828, 1379.928
711.3649, 1386.777
711.8470, 1392.686
712.3291, 1397.403
712.8112, 1404.602
713.2933, 1421.156
713.7755, 1435.767
714.2576, 1441.025
714.7397, 1433.574
715.2218, 1429.397
715.7039, 1428.560
716.1860, 1430.945
716.6682, 1437.803
717.1503, 1448.692
717.6324, 1457.600
718.1145, 1463.774
718.5966, 1467.877
719.0787, 1470.216
719.5609, 1471.132
720.0430, 1471.047
720.5251, 1468.365
721.0072, 1467.446
721.4893, 1472.849
721.9714, 1480.943
722.4536, 1485.285
722.9357, 1478.314
723.4178, 1476.733
723.8999, 1485.402
724.3820, 1500.323
724.8641, 1508.763
725.3463, 1509.480
725.8284, 1512.406
726.3105, 1524.463
726.7926, 1539.477
727.2747, 1538.776
727.7568, 1525.323
728.2390, 1516.834
728.7211, 1529.498
729.2032, 1547.543
729.6853, 1555.110
730.1674, 1552.219
730.6495, 1557.737
731.1317, 1586.417
731.6138, 1616.633
732.0959, 1637.052
732.5780, 1645.699
733.0601, 1657.660
733.5422, 1674.879
734.0244, 1690.362
734.5065, 1694.248
734.9886, 1689.505
735.4707, 1697.180
735.9528, 1719.699
736.4349, 1748.461
736.9171, 1779.655
737.3992, 1809.913
737.8813, 1834.575
738.3634, 1852.571
738.8455, 1864.865
739.3276, 1861.244
739.8098, 1856.344
740.2919, 1870.272
740.7740, 1922.585
741.2561, 1958.723
741.7382, 1968.314
742.2203, 1965.927
742.7025, 1979.081
743.1846, 2007.821
743.6667, 2031.388
744.1488, 2042.648
744.6309, 2047.871
745.1130, 2057.123
745.5952, 2068.364
746.0773, 2076.100
746.5594, 2075.203
747.0415, 2072.492
747.5236, 2069.386
748.0057, 2066.952
748.4879, 2069.569
748.9700, 2085.619
749.4521, 2096.389
749.9342, 2095.448
750.4163, 2084.460
750.8984, 2077.425
751.3806, 2075.277
751.8627, 2069.596
752.3448, 2049.481
752.8269, 2023.558
753.3090, 2016.014
753.7911, 2025.204
754.2733, 2031.961
754.7554, 2021.829
755.2375, 2005.843
755.7196, 1991.854
756.2017, 1980.968
756.6838, 1970.355
757.1660, 1956.847
757.6481, 1946.042
758.1302, 1941.947
758.6123, 1946.662
759.0944, 1946.961
759.5765, 1942.504
760.0587, 1934.730
760.5408, 1924.349
761.0229, 1911.779
761.5050, 1897.415
761.9871, 1880.627
762.4692, 1866.106
762.9514, 1860.467
763.4335, 1857.789
763.9156, 1850.995
764.3977, 1833.683
764.8798, 1821.321
765.3619, 1820.017
765.8441, 1822.725
766.3262, 1822.557
766.8083, 1819.468
767.2904, 1813.534
767.7725, 1804.444
768.2546, 1793.122
768.7368, 1778.777
769.2189, 1762.939
769.7010, 1751.272
770.1831, 1746.340
770.6652, 1744.786
771.1473, 1745.682
771.6295, 1747.522
772.1116, 1747.646
772.5937, 1744.018
773.0758, 1740.106
773.5579, 1739.939
774.0400, 1739.238
774.5222, 1726.461
775.0043, 1696.988
775.4864, 1672.206
775.9685, 1659.308
776.4506, 1653.641
776.9327, 1642.906
777.4149, 1628.873
777.8970, 1620.510
778.3791, 1629.239
778.8612, 1639.982
779.3433, 1638.085
779.8254, 1626.834
780.3076, 1618.508
780.7897, 1621.067
781.2718, 1622.405
781.7539, 1616.960
782.2360, 1606.400
782.7181, 1603.572
783.2003, 1610.841
783.6824, 1616.700
784.1645, 1611.798
784.6466, 1602.413
785.1287, 1612.864
785.6108, 1640.468
786.0930, 1663.652
786.5751, 1664.943
787.0572, 1658.278
787.5393, 1650.655
788.0214, 1643.091
788.5035, 1647.077
788.9857, 1680.680
789.4678, 1711.584
789.9499, 1724.428
790.4320, 1718.281
790.9141, 1722.051
791.3962, 1738.221
791.8784, 1752.494
792.3605, 1751.882
792.8426, 1742.077
793.3247, 1738.019
793.8068, 1740.325
794.2889, 1745.787
794.7711, 1755.454
795.2532, 1765.055
795.7353, 1769.599
796.2174, 1766.248
796.6995, 1770.705
797.1816, 1791.690
797.6638, 1813.283
798.1459, 1824.619
798.6280, 1823.617
799.1101, 1832.195
799.5922, 1852.538
800.0743, 1869.814
800.5565, 1865.541
801.0386, 1849.583
801.5207, 1842.110
802.0028, 1846.170
802.4849, 1852.123
802.9670, 1854.681
803.4492, 1856.334
803.9313, 1858.930
804.4134, 1862.322
804.8955, 1867.973
805.3776, 1877.094
805.8597, 1886.899
806.3419, 1896.812
806.8240, 1906.788
807.3061, 1904.760
807.7882, 1887.984
808.2703, 1871.897
808.7524, 1879.679
809.2346, 1895.915
809.7167, 1895.786
810.1988, 1870.411
810.6809, 1843.021
811.1630, 1822.119
811.6451, 1804.277
812.1273, 1786.818
812.6094, 1773.458
813.0915, 1750.870
813.5736, 1715.264
814.0557, 1676.970
814.5378, 1649.188
815.0200, 1629.673
815.5021, 1606.066
815.9842, 1576.065
816.4663, 1543.998
816.9484, 1511.417
817.4305, 1480.685
817.9127, 1455.113
818.3948, 1440.050
818.8769, 1420.814
819.3590, 1387.224
819.8411, 1352.653
820.3232, 1330.037
820.8054, 1322.363
821.2875, 1313.838
821.7696, 1302.704
822.2517, 1292.273
822.7338, 1288.078
823.2159, 1287.730
823.6981, 1284.947
824.1802, 1278.170
824.6623, 1269.300
825.1444, 1257.454
825.6265, 1245.269
826.1086, 1235.543
826.5908, 1234.106
827.0729, 1226.681
827.5550, 1208.258
828.0371, 1189.437
828.5192, 1184.844
829.0013, 1194.494
829.4835, 1201.194
829.9656, 1202.279
830.4477, 1201.545
830.9298, 1203.953
831.4119, 1207.204
831.8940, 1207.334
832.3762, 1201.830
832.8583, 1196.777
833.3404, 1193.623
833.8225, 1192.483
834.3046, 1193.939
834.7867, 1200.983
835.2689, 1201.290
835.7510, 1191.830
836.2331, 1181.026
836.7152, 1181.443
837.1973, 1189.914
837.6794, 1194.662
838.1616, 1192.903
838.6437, 1190.267
839.1258, 1189.508
839.6079, 1191.181
840.0900, 1196.567
840.5721, 1212.204
841.0543, 1219.166
841.5364, 1213.492
842.0185, 1202.191
842.5006, 1189.536
842.9827, 1174.949
843.4648, 1171.871
843.9470, 1183.229
844.4291, 1197.725
844.9112, 1206.273
845.3933, 1208.700
845.8754, 1203.176
846.3575, 1186.714
846.8397, 1172.362
847.3218, 1163.827
847.8039, 1160.888
848.2860, 1164.084
848.7681, 1178.161
849.2502, 1184.407
849.7324, 1180.720
850.2145, 1174.471
850.6966, 1173.931
851.1787, 1177.233
851.6608, 1176.211
852.1429, 1169.393
852.6251, 1165.093
853.1072, 1173.745
853.5893, 1185.422
854.0714, 1190.571
854.5535, 1185.129
855.0356, 1181.548
855.5178, 1181.447
855.9999, 1182.369
856.4820, 1181.953
856.9641, 1180.132
857.4462, 1183.052
857.9283, 1191.283
858.4105, 1198.736
858.8926, 1200.484
859.3747, 1197.997
859.8568, 1191.255
860.3389, 1179.833
860.8210, 1173.104
861.3032, 1179.110
861.7853, 1186.978
862.2674, 1191.045
862.7495, 1191.294
863.2316, 1186.024
863.7137, 1173.572
864.1959, 1163.049
864.6780, 1162.245
865.1601, 1168.063
865.6422, 1174.290
866.1243, 1180.481
866.6064, 1184.936
867.0886, 1185.059
867.5707, 1184.278
868.0528, 1185.796
868.5349, 1189.949
869.0170, 1188.170
869.4991, 1176.317
869.9813, 1166.732
870.4634, 1166.089
870.9455, 1172.272
871.4276, 1176.014
871.9097, 1177.413
872.3918, 1177.747
872.8740, 1176.555
873.3561, 1175.629
873.8382, 1178.093
874.3203, 1182.842
874.8024, 1183.586
875.2845, 1169.488
875.7667, 1163.292
876.2488, 1175.775
876.7309, 1199.729
877.2130, 1201.835
877.6951, 1181.724
878.1772, 1165.345
878.6594, 1165.855
879.1415, 1174.176
879.6236, 1179.653
880.1057, 1183.348
880.5878, 1188.001
881.0699, 1200.091
881.5521, 1206.991
882.0342, 1200.896
882.5163, 1188.343
882.9984, 1183.320
883.4805, 1187.915
883.9626, 1187.781
884.4448, 1177.265
884.9269, 1165.097
885.4090, 1166.762
885.8911, 1177.474
886.3732, 1186.404
886.8553, 1191.711
887.3375, 1191.572
887.8196, 1176.325
888.3017, 1158.814
888.7838, 1158.311
889.2659, 1185.478
889.7480, 1203.049
890.2302, 1207.679
890.7123, 1204.053
891.1944, 1194.983
891.6765, 1182.672
892.1586, 1173.420
892.6407, 1168.019
893.1229, 1167.615
893.6050, 1178.279
894.0871, 1191.140
894.5692, 1197.858
895.0513, 1195.134
895.5334, 1191.073
896.0156, 1184.505
896.4977, 1178.615
896.9798, 1176.839
897.4619, 1178.355
897.9440, 1176.553
898.4261, 1171.106
898.9083, 1168.003
899.3904, 1175.560
899.8725, 1185.057
900.3546, 1188.149
900.8367, 1183.575
901.3188, 1180.223
901.8010, 1179.190
902.2831, 1179.313
902.7652, 1180.269
903.2473, 1181.987
903.7294, 1183.807
904.2115, 1185.742
904.6937, 1188.089
905.1758, 1192.097
905.6579, 1195.800
906.1400, 1198.483
906.6221, 1199.443
907.1042, 1195.859
907.5864, 1176.551
908.0685, 1165.565
908.5506, 1171.380
909.0327, 1188.199
909.5148, 1199.338
909.9969, 1204.797
910.4791, 1206.658
910.9612, 1204.339
911.4433, 1200.878
911.9254, 1201.351
912.4075, 1203.250
912.8896, 1201.793
913.3718, 1187.249
913.8539, 1180.026
914.3360, 1189.065
914.8181, 1203.046
915.3002, 1204.874
915.7823, 1192.716
916.2645, 1193.217
916.7466, 1212.874
917.2287, 1232.421
917.7108, 1226.002
918.1929, 1206.697
918.6750, 1193.894
919.1572, 1192.597
919.6393, 1193.659
920.1214, 1194.284
920.6035, 1196.336
921.0856, 1201.723
921.5677, 1211.277
922.0499, 1217.887
922.5320, 1221.505
923.0141, 1222.535
923.4962, 1218.293
923.9783, 1213.161
924.4604, 1215.752
924.9426, 1225.656
925.4247, 1231.350
925.9068, 1223.182
926.3889, 1214.886
926.8710, 1212.879
927.3531, 1216.175
927.8353, 1216.527
928.3174, 1213.284
928.7995, 1213.371
929.2816, 1222.804
929.7637, 1234.531
930.2459, 1237.912
930.7280, 1234.364
931.2101, 1227.883
931.6923, 1212.370
932.1744, 1203.220
932.6565, 1212.281
933.1386, 1227.307
933.6207, 1225.399
934.1028, 1202.541
934.5850, 1193.268
935.0671, 1207.145
935.5492, 1225.860
936.0313, 1222.463
936.5134, 1208.332
936.9955, 1203.255
937.4777, 1215.768
937.9598, 1226.057
938.4419, 1224.523
938.9240, 1220.376
939.4061, 1220.047
939.8882, 1223.843
940.3704, 1230.933
940.8525, 1242.084
941.3346, 1251.329
941.8167, 1252.198
942.2988, 1248.851
942.7809, 1246.974
943.2631, 1246.871
943.7452, 1246.804
944.2273, 1246.907
944.7094, 1245.998
945.1915, 1243.141
945.6736, 1238.824
946.1558, 1235.700
946.6379, 1233.720
947.1200, 1234.498
947.6021, 1240.879
948.0842, 1247.871
948.5663, 1246.261
949.0485, 1240.220
949.5306, 1239.154
950.0127, 1253.139
950.4948, 1263.599
950.9769, 1265.540
951.4590, 1263.539
951.9412, 1264.172
952.4233, 1267.523
952.9054, 1269.408
953.3875, 1268.699
953.8696, 1269.052
954.3517, 1277.229
954.8339, 1287.271
955.3160, 1290.679
955.7981, 1283.388
956.2802, 1280.505
956.7623, 1289.952
957.2444, 1298.182
957.7266, 1296.783
958.2087, 1286.230
958.6908, 1273.404
959.1729, 1258.452
959.6550, 1253.182
960.1371, 1276.146
960.6193, 1304.193
961.1014, 1314.628
961.5835, 1309.743
962.0656, 1305.374
962.5477, 1304.932
963.0298, 1303.920
963.5120, 1299.274
963.9941, 1295.311
964.4762, 1306.799
964.9583, 1330.653
965.4404, 1344.843
965.9225, 1339.161
966.4047, 1330.522
966.8868, 1330.384
967.3689, 1336.019
967.8510, 1344.189
968.3331, 1357.368
968.8152, 1367.861
969.2974, 1376.284
969.7795, 1381.082
970.2616, 1376.792
970.7437, 1367.584
971.2258, 1371.094
971.7079, 1388.116
972.1901, 1404.278
972.6722, 1408.594
973.1543, 1410.432
973.6364, 1415.998
974.1185, 1425.330
974.6006, 1433.421
975.0828, 1440.332
975.5649, 1445.523
976.0470, 1447.657
976.5291, 1449.023
977.0112, 1452.620
977.4933, 1459.337
977.9755, 1471.581
978.4576, 1500.473
978.9397, 1522.765
979.4218, 1523.322
979.9039, 1516.632
980.3860, 1522.699
980.8682, 1544.446
981.3503, 1559.908
981.8324, 1566.015
982.3145, 1570.826
982.7966, 1584.708
983.2787, 1602.052
983.7609, 1613.321
984.2430, 1616.606
984.7251, 1623.374
985.2072, 1642.330
985.6893, 1659.883
986.1714, 1668.409
986.6536, 1669.848
987.1357, 1683.254
987.6178, 1707.873
988.0999, 1727.025
988.5820, 1726.370
989.0641, 1721.219
989.5463, 1726.936
990.0284, 1739.158
990.5105, 1747.789
990.9926, 1746.575
991.4747, 1748.588
991.9568, 1756.325
992.4390, 1765.900
992.9211, 1770.665
993.4032, 1772.176
993.8853, 1777.552
994.3674, 1788.527
994.8495, 1798.972
995.3317, 1807.365
995.8138, 1811.817
996.2959, 1809.589
996.7780, 1800.031
997.2601, 1791.741
997.7422, 1785.282
998.2244, 1777.902
998.7065, 1766.417
999.1886, 1753.818
999.6707, 1745.958
1000.153, 1742.413
1000.635, 1742.004
1001.117, 1745.834
1001.599, 1750.905
1002.081, 1761.539
1002.563, 1770.031
1003.046, 1760.485
1003.528, 1730.890
1004.010, 1712.625
1004.492, 1711.317
1004.974, 1717.082
1005.456, 1724.391
1005.938, 1730.007
1006.420, 1729.576
1006.902, 1721.493
1007.385, 1712.781
1007.867, 1703.860
1008.349, 1695.038
1008.831, 1685.227
1009.313, 1675.610
1009.795, 1677.193
1010.277, 1687.305
1010.759, 1688.584
1011.242, 1660.481
1011.724, 1631.619
1012.206, 1618.343
1012.688, 1617.375
1013.170, 1621.822
1013.652, 1635.269
1014.134, 1640.917
1014.616, 1635.196
1015.098, 1626.010
1015.581, 1622.813
1016.063, 1623.687
1016.545, 1626.146
1017.027, 1630.347
1017.509, 1630.646
1017.991, 1619.952
1018.473, 1609.578
1018.955, 1605.339
1019.438, 1606.683
1019.920, 1609.036
1020.402, 1612.375
1020.884, 1612.862
1021.366, 1606.722
1021.848, 1598.730
1022.330, 1591.977
1022.812, 1587.211
1023.294, 1586.126
1023.777, 1590.336
1024.259, 1596.579
1024.741, 1605.925
1025.223, 1614.984
1025.705, 1621.495
1026.187, 1624.419
1026.669, 1618.373
1027.151, 1602.657
1027.633, 1587.568
1028.116, 1577.333
1028.598, 1571.351
1029.080, 1568.160
1029.562, 1568.158
1030.044, 1580.941
1030.526, 1609.244
1031.008, 1626.970
1031.490, 1618.742
1031.973, 1602.609
1032.455, 1605.428
1032.937, 1617.519
1033.419, 1621.665
1033.901, 1602.337
1034.383, 1591.258
1034.865, 1593.931
1035.347, 1600.784
1035.829, 1604.584
1036.312, 1604.917
1036.794, 1595.430
1037.276, 1576.628
1037.758, 1565.885
1038.240, 1584.430
1038.722, 1606.376
1039.204, 1614.145
1039.686, 1609.823
1040.168, 1608.187
1040.651, 1609.566
1041.133, 1612.110
1041.615, 1615.423
1042.097, 1619.495
1042.579, 1624.843
1043.061, 1630.831
1043.543, 1636.802
1044.025, 1644.823
1044.508, 1646.412
1044.990, 1635.186
1045.472, 1623.345
1045.954, 1619.295
1046.436, 1622.261
1046.918, 1620.772
1047.400, 1615.773
1047.882, 1616.784
1048.365, 1641.155
1048.847, 1662.231
1049.329, 1657.094
1049.811, 1635.656
1050.293, 1628.494
1050.775, 1643.042
1051.257, 1644.002
1051.739, 1622.327
1052.221, 1599.210
1052.703, 1606.905
1053.186, 1628.261
1053.668, 1635.679
1054.150, 1623.507
1054.632, 1610.502
1055.114, 1596.773
1055.596, 1589.397
1056.078, 1593.616
1056.560, 1606.176
1057.043, 1614.222
1057.525, 1617.500
1058.007, 1613.952
1058.489, 1597.131
1058.971, 1581.096
1059.453, 1576.558
1059.935, 1577.233
1060.417, 1573.225
1060.900, 1560.721
1061.382, 1557.947
1061.864, 1567.099
1062.346, 1577.691
1062.828, 1582.974
1063.310, 1582.556
1063.792, 1573.138
1064.274, 1556.022
1064.756, 1542.381
1065.239, 1537.039
1065.721, 1533.718
1066.203, 1531.351
1066.685, 1529.952
1067.167, 1528.742
1067.649, 1528.364
1068.131, 1532.769
1068.613, 1545.078
1069.095, 1553.548
1069.578, 1543.388
1070.060, 1532.354
1070.542, 1534.914
1071.024, 1551.787
1071.506, 1569.059
1071.988, 1587.173
1072.470, 1601.533
1072.952, 1607.313
1073.435, 1609.955
1073.917, 1615.068
1074.399, 1621.808
1074.881, 1628.378
1075.363, 1633.070
1075.845, 1639.932
1076.327, 1649.721
1076.809, 1660.608
1077.292, 1670.748
1077.774, 1680.313
1078.256, 1690.111
1078.738, 1700.122
1079.220, 1709.289
1079.702, 1715.181
1080.184, 1722.435
1080.666, 1734.197
1081.148, 1748.022
1081.630, 1754.290
1082.113, 1753.659
1082.595, 1760.498
1083.077, 1781.733
1083.559, 1802.612
1084.041, 1812.591
1084.523, 1814.229
1085.005, 1806.276
1085.487, 1783.257
1085.970, 1785.219
1086.452, 1817.853
1086.934, 1850.402
1087.416, 1866.624
1087.898, 1869.385
1088.380, 1853.364
1088.862, 1828.114
1089.344, 1819.162
1089.827, 1853.260
1090.309, 1878.423
1090.791, 1886.178
1091.273, 1887.045
1091.755, 1893.187
1092.237, 1902.939
1092.719, 1907.631
1093.201, 1906.943
1093.683, 1911.741
1094.166, 1938.814
1094.648, 1962.270
1095.130, 1965.275
1095.612, 1954.902
1096.094, 1952.854
1096.576, 1959.161
1097.058, 1966.586
1097.540, 1972.926
1098.023, 1981.045
1098.505, 1997.987
1098.987, 2015.539
1099.469, 2023.115
1099.951, 2016.212
1100.433, 2020.573
1100.915, 2040.409
1101.397, 2055.781
1101.880, 2051.745
1102.362, 2040.181
1102.844, 2043.515
1103.326, 2055.871
1103.808, 2063.941
1104.290, 2053.313
1104.772, 2053.193
1105.254, 2070.016
1105.736, 2091.586
1106.219, 2105.637
1106.701, 2113.899
1107.183, 2124.651
1107.665, 2137.732
1108.147, 2146.433
1108.629, 2138.804
1109.111, 2135.253
1109.593, 2147.004
1110.075, 2167.888
1110.558, 2187.888
1111.040, 2206.847
1111.522, 2219.132
1112.004, 2222.784
1112.486, 2226.385
1112.968, 2238.276
1113.450, 2252.995
1113.932, 2265.683
1114.415, 2276.018
1114.897, 2284.435
1115.379, 2289.181
1115.861, 2302.203
1116.343, 2333.196
1116.825, 2366.251
1117.307, 2375.537
1117.789, 2372.905
1118.271, 2377.885
1118.754, 2402.365
1119.236, 2416.974
1119.718, 2415.965
1120.200, 2415.635
1120.682, 2430.396
1121.164, 2454.006
1121.646, 2469.820
1122.128, 2478.593
1122.610, 2482.941
1123.093, 2484.153
1123.575, 2480.061
1124.057, 2466.018
1124.539, 2451.543
1125.021, 2449.938
1125.503, 2459.251
1125.985, 2468.996
1126.467, 2478.180
1126.950, 2483.011
1127.432, 2478.402
1127.914, 2471.352
1128.396, 2468.166
1128.878, 2465.212
1129.360, 2447.499
1129.842, 2414.608
1130.324, 2400.050
1130.807, 2415.385
1131.289, 2431.737
1131.771, 2418.958
1132.253, 2396.906
1132.735, 2384.948
1133.217, 2385.112
1133.699, 2379.873
1134.181, 2366.867
1134.663, 2363.070
1135.146, 2383.753
1135.628, 2404.522
1136.110, 2384.935
1136.592, 2345.824
1137.074, 2320.567
1137.556, 2329.092
1138.038, 2323.829
1138.520, 2298.195
1139.002, 2274.304
1139.485, 2274.472
1139.967, 2284.605
1140.449, 2271.425
1140.931, 2240.781
1141.413, 2211.692
1141.895, 2190.218
1142.377, 2173.235
1142.859, 2161.482
1143.342, 2151.976
1143.824, 2143.415
1144.306, 2134.197
1144.788, 2117.404
1145.270, 2093.275
1145.752, 2068.899
1146.234, 2044.777
1146.716, 2025.889
1147.198, 2019.116
1147.681, 2014.596
1148.163, 1985.979
1148.645, 1937.623
1149.127, 1908.637
1149.609, 1907.774
1150.091, 1909.031
1150.573, 1896.159
1151.055, 1877.580
1151.537, 1857.319
1152.020, 1836.288
1152.502, 1818.332
1152.984, 1803.316
1153.466, 1791.980
1153.948, 1786.926
1154.430, 1779.428
1154.912, 1755.929
1155.394, 1729.694
1155.877, 1718.720
1156.359, 1726.096
1156.841, 1712.234
1157.323, 1673.884
1157.805, 1644.431
1158.287, 1649.026
1158.769, 1662.904
1159.251, 1658.784
1159.734, 1644.796
1160.216, 1635.060
1160.698, 1635.372
1161.180, 1630.413
1161.662, 1619.322
1162.144, 1606.680
1162.626, 1594.865
1163.108, 1584.451
1163.590, 1575.231
1164.073, 1568.139
1164.555, 1566.753
1165.037, 1581.641
1165.519, 1582.945
1166.001, 1564.035
1166.483, 1541.967
1166.965, 1538.085
1167.447, 1543.392
1167.929, 1540.663
1168.412, 1529.518
1168.894, 1519.048
1169.376, 1506.898
1169.858, 1505.277
1170.340, 1522.882
1170.822, 1541.998
1171.304, 1527.634
1171.786, 1493.026
1172.269, 1473.033
1172.751, 1473.258
1173.233, 1474.482
1173.715, 1469.417
1174.197, 1463.922
1174.679, 1458.424
1175.161, 1455.073
1175.643, 1465.052
1176.125, 1482.002
1176.608, 1483.436
1177.090, 1458.799
1177.572, 1436.898
1178.054, 1431.196
1178.536, 1431.414
1179.018, 1433.818
1179.500, 1437.447
1179.982, 1436.471
1180.464, 1432.011
1180.947, 1430.162
1181.429, 1437.492
1181.911, 1439.781
1182.393, 1423.508
1182.875, 1405.186
1183.357, 1398.332
1183.839, 1402.351
1184.321, 1402.661
1184.804, 1399.398
1185.286, 1393.536
1185.768, 1380.589
1186.250, 1371.010
1186.732, 1373.796
1187.214, 1380.494
1187.696, 1381.530
1188.178, 1376.743
1188.661, 1370.907
1189.143, 1364.274
1189.625, 1359.785
1190.107, 1359.758
1190.589, 1362.141
1191.071, 1367.578
1191.553, 1373.793
1192.035, 1377.931
1192.517, 1380.254
1193.000, 1372.575
1193.482, 1353.674
1193.964, 1338.040
1194.446, 1340.137
1194.928, 1346.974
1195.410, 1351.481
1195.892, 1352.957
1196.374, 1350.018
1196.856, 1342.346
1197.339, 1334.961
1197.821, 1328.677
1198.303, 1323.281
1198.785, 1316.826
1199.267, 1312.758
1199.749, 1315.488
1200.231, 1323.652
1200.713, 1328.846
1201.196, 1330.582
1201.678, 1336.752
1202.160, 1351.319
1202.642, 1362.167
1203.124, 1351.785
1203.606, 1336.722
1204.088, 1335.291
1204.570, 1347.070
1205.052, 1347.970
1205.535, 1337.171
1206.017, 1326.037
1206.499, 1317.564
1206.981, 1312.789
1207.463, 1317.050
1207.945, 1323.024
1208.427, 1320.609
1208.909, 1308.576
1209.391, 1306.985
1209.874, 1316.846
1210.356, 1321.842
1210.838, 1309.298
1211.320, 1298.110
1211.802, 1315.874
1212.284, 1341.458
1212.766, 1343.823
1213.248, 1317.298
1213.731, 1299.881
1214.213, 1291.375
1214.695, 1293.396
1215.177, 1319.380
1215.659, 1342.049
1216.141, 1326.295
1216.623, 1294.668
1217.105, 1284.560
1217.588, 1305.125
1218.070, 1313.231
1218.552, 1307.784
1219.034, 1303.985
1219.516, 1316.591
1219.998, 1331.329
1220.480, 1337.017
1220.962, 1335.260
1221.444, 1328.623
1221.927, 1314.657
1222.409, 1310.572
1222.891, 1317.673
1223.373, 1326.333
1223.855, 1332.426
1224.337, 1334.144
1224.819, 1327.161
1225.301, 1315.133
1225.783, 1307.464
1226.266, 1305.062
1226.748, 1299.382
1227.230, 1289.025
1227.712, 1285.234
1228.194, 1304.086
1228.676, 1326.636
1229.158, 1339.388
1229.640, 1343.481
1230.123, 1344.436
1230.605, 1342.072
1231.087, 1337.645
1231.569, 1331.103
1232.051, 1325.646
1232.533, 1323.279
1233.015, 1323.630
1233.497, 1329.128
1233.979, 1336.786
1234.462, 1336.442
1234.944, 1327.742
1235.426, 1325.810
1235.908, 1333.728
1236.390, 1341.734
1236.872, 1342.610
1237.354, 1340.029
1237.836, 1333.278
1238.318, 1325.693
1238.801, 1329.793
1239.283, 1344.831
1239.765, 1350.695
1240.247, 1342.278
1240.729, 1331.800
1241.211, 1326.080
1241.693, 1323.272
1242.175, 1322.284
1242.658, 1322.950
1243.140, 1326.528
1243.622, 1332.227
1244.104, 1332.109
1244.586, 1322.380
1245.068, 1317.095
1245.550, 1334.163
1246.032, 1348.749
1246.515, 1345.011
1246.997, 1328.752
1247.479, 1322.509
1247.961, 1324.421
1248.443, 1323.917
1248.925, 1316.365
1249.407, 1313.815
1249.889, 1331.152
1250.371, 1344.989
1250.854, 1341.644
1251.336, 1327.024
1251.818, 1321.767
1252.300, 1323.760
1252.782, 1325.230
1253.264, 1322.672
1253.746, 1323.969
1254.228, 1338.990
1254.710, 1348.723
1255.193, 1341.491
1255.675, 1324.167
1256.157, 1314.401
1256.639, 1311.713
1257.121, 1316.051
1257.603, 1331.507
1258.085, 1342.573
1258.567, 1346.762
1259.050, 1346.085
1259.532, 1338.872
1260.014, 1329.823
1260.496, 1334.594
1260.978, 1345.384
1261.460, 1344.334
1261.942, 1316.464
1262.424, 1303.318
1262.906, 1310.293
1263.389, 1323.343
1263.871, 1338.508
1264.353, 1350.504
1264.835, 1343.042
1265.317, 1327.782
1265.799, 1327.456
1266.281, 1360.426
1266.763, 1369.383
1267.245, 1349.197
1267.728, 1329.178
1268.210, 1328.305
1268.692, 1335.193
1269.174, 1337.971
1269.656, 1337.946
1270.138, 1336.530
1270.620, 1332.434
1271.102, 1334.374
1271.585, 1342.867
1272.067, 1351.166
1272.549, 1357.830
1273.031, 1359.706
1273.513, 1349.280
1273.995, 1334.944
1274.477, 1329.365
1274.959, 1334.069
1275.442, 1333.836
1275.924, 1328.917
1276.406, 1327.385
1276.888, 1339.850
1277.370, 1350.264
1277.852, 1345.694
1278.334, 1336.716
1278.816, 1334.172
1279.298, 1337.913
1279.781, 1344.856
1280.263, 1353.496
1280.745, 1353.432
1281.227, 1325.080
1281.709, 1305.582
1282.191, 1312.382
1282.673, 1326.873
1283.155, 1335.516
1283.637, 1338.658
1284.120, 1335.979
1284.602, 1328.744
1285.084, 1322.043
1285.566, 1313.044
1286.048, 1313.664
1286.530, 1329.242
1287.012, 1346.010
1287.494, 1352.728
1287.977, 1351.914
1288.459, 1346.411
1288.941, 1338.403
1289.423, 1333.868
1289.905, 1339.595
1290.387, 1339.691
1290.869, 1332.482
1291.351, 1324.377
1291.833, 1317.003
1292.316, 1314.337
1292.798, 1327.326
1293.280, 1347.976
1293.762, 1356.780
1294.244, 1348.449
1294.726, 1342.839
1295.208, 1340.333
1295.690, 1341.301
1296.172, 1349.404
1296.655, 1357.598
1297.137, 1361.028
1297.619, 1360.119
1298.101, 1356.023
1298.583, 1348.452
1299.065, 1339.157
1299.547, 1328.533
1300.029, 1323.998
1300.512, 1337.936
1300.994, 1349.547
1301.476, 1344.856
1301.958, 1335.953
1302.440, 1333.026
1302.922, 1335.799
1303.404, 1346.224
1303.886, 1361.535
1304.369, 1367.781
1304.851, 1346.912
1305.333, 1333.676
1305.815, 1337.059
1306.297, 1343.565
1306.779, 1339.257
1307.261, 1329.884
1307.743, 1329.932
1308.225, 1337.256
1308.708, 1345.149
1309.190, 1354.188
1309.672, 1359.081
1310.154, 1359.191
1310.636, 1357.264
1311.118, 1354.581
1311.600, 1351.730
1312.082, 1348.792
1312.564, 1346.430
1313.047, 1346.465
1313.529, 1350.224
1314.011, 1350.550
1314.493, 1347.281
1314.975, 1343.923
1315.457, 1343.070
1315.939, 1342.630
1316.421, 1340.241
1316.904, 1338.118
1317.386, 1339.411
1317.868, 1344.084
1318.350, 1346.595
##END=



