##NAMES=Orthoserpierite
##RRUFFID=R060977
##IDEAL CHEMISTRY=CaCu^2+^_4_(S^6+^O_4_)_2_(OH)_6_&#183;3H_2_O
##LOCALITY=Copper Creek, Galuiro Mountains, Pinal County, Arizona, USA
##OWNER=RRUFF
##SOURCE=Michael Scott
##DESCRIPTION=Blue-green platy crystals in masses with chrysocolla
##STATUS=The identification of this mineral has been confirmed only by X-ray diffraction
##URL=rruff.info/R060977
118.1476, 556.3533
118.6297, 574.6167
119.1119, 592.8622
119.5940, 612.1396
120.0761, 633.1176
120.5582, 657.3186
121.0403, 687.8425
121.5224, 721.1534
122.0046, 753.2123
122.4867, 783.6332
122.9688, 812.2913
123.4509, 840.2896
123.9330, 867.1375
124.4151, 889.6555
124.8973, 901.9860
125.3794, 908.6613
125.8615, 917.9124
126.3436, 933.3953
126.8257, 952.5981
127.3078, 973.4684
127.7900, 996.4280
128.2721, 1016.705
128.7542, 1027.063
129.2363, 1029.709
129.7184, 1034.161
130.2005, 1049.784
130.6826, 1071.310
131.1648, 1080.663
131.6469, 1074.906
132.1290, 1061.873
132.6111, 1052.394
133.0932, 1046.459
133.5753, 1043.598
134.0575, 1042.948
134.5396, 1044.625
135.0217, 1051.893
135.5038, 1067.144
135.9859, 1087.206
136.4680, 1100.231
136.9502, 1104.412
137.4323, 1108.564
137.9144, 1122.512
138.3965, 1149.265
138.8786, 1169.474
139.3607, 1178.604
139.8429, 1177.096
140.3250, 1171.168
140.8071, 1156.863
141.2892, 1143.594
141.7713, 1145.453
142.2534, 1171.180
142.7356, 1192.395
143.2177, 1198.735
143.6998, 1183.621
144.1819, 1180.637
144.6640, 1196.074
145.1461, 1221.004
145.6283, 1237.500
146.1104, 1239.732
146.5925, 1240.276
147.0746, 1244.510
147.5567, 1259.793
148.0388, 1266.739
148.5210, 1260.217
149.0031, 1243.731
149.4852, 1233.932
149.9673, 1235.907
150.4494, 1241.039
150.9315, 1244.621
151.4137, 1250.234
151.8958, 1250.631
152.3779, 1240.598
152.8600, 1220.723
153.3421, 1210.426
153.8242, 1221.068
154.3064, 1237.171
154.7885, 1246.588
155.2706, 1243.277
155.7527, 1237.124
156.2348, 1229.423
156.7169, 1219.830
157.1991, 1211.907
157.6812, 1207.349
158.1633, 1204.609
158.6454, 1201.730
159.1275, 1196.870
159.6096, 1192.717
160.0918, 1190.027
160.5739, 1188.483
161.0560, 1189.506
161.5381, 1194.660
162.0202, 1202.685
162.5023, 1211.053
162.9845, 1218.084
163.4666, 1225.498
163.9487, 1235.767
164.4308, 1255.767
164.9129, 1268.315
165.3950, 1259.998
165.8772, 1235.578
166.3593, 1212.483
166.8414, 1198.674
167.3235, 1191.033
167.8056, 1186.627
168.2877, 1188.097
168.7699, 1189.332
169.2520, 1186.924
169.7341, 1180.861
170.2162, 1171.111
170.6983, 1153.490
171.1804, 1132.994
171.6626, 1116.325
172.1447, 1109.115
172.6268, 1105.141
173.1089, 1099.312
173.5910, 1091.559
174.0731, 1081.326
174.5553, 1063.619
175.0374, 1042.787
175.5195, 1028.330
176.0016, 1029.664
176.4837, 1038.048
176.9658, 1040.995
177.4480, 1037.004
177.9301, 1031.514
178.4122, 1028.617
178.8943, 1028.614
179.3764, 1032.722
179.8585, 1046.151
180.3407, 1063.622
180.8228, 1073.752
181.3049, 1073.350
181.7870, 1069.335
182.2691, 1071.108
182.7512, 1078.154
183.2334, 1086.214
183.7155, 1093.455
184.1976, 1099.534
184.6797, 1103.636
185.1618, 1105.001
185.6439, 1104.971
186.1261, 1105.418
186.6082, 1106.342
187.0903, 1108.660
187.5724, 1113.508
188.0545, 1120.532
188.5366, 1128.275
189.0188, 1136.220
189.5009, 1144.647
189.9830, 1155.175
190.4651, 1168.065
190.9472, 1180.547
191.4293, 1191.248
191.9114, 1199.878
192.3936, 1203.599
192.8757, 1198.322
193.3578, 1187.047
193.8399, 1186.169
194.3220, 1197.687
194.8041, 1212.244
195.2863, 1216.467
195.7684, 1209.815
196.2505, 1207.234
196.7326, 1215.818
197.2147, 1234.769
197.6968, 1252.130
198.1790, 1268.822
198.6611, 1281.972
199.1432, 1285.044
199.6253, 1276.231
200.1074, 1269.128
200.5895, 1270.328
201.0717, 1280.339
201.5538, 1288.939
202.0359, 1295.090
202.5180, 1300.892
203.0001, 1311.542
203.4822, 1328.436
203.9644, 1344.240
204.4465, 1354.996
204.9286, 1360.328
205.4107, 1363.634
205.8928, 1364.797
206.3749, 1364.168
206.8571, 1362.862
207.3392, 1361.218
207.8213, 1357.962
208.3034, 1350.157
208.7855, 1334.874
209.2676, 1330.205
209.7498, 1342.115
210.2319, 1365.056
210.7140, 1375.555
211.1961, 1369.849
211.6782, 1360.270
212.1603, 1355.764
212.6425, 1358.381
213.1246, 1358.817
213.6067, 1355.908
214.0888, 1349.862
214.5709, 1341.849
215.0530, 1331.276
215.5352, 1319.546
216.0173, 1307.274
216.4994, 1293.833
216.9815, 1281.532
217.4636, 1270.041
217.9457, 1259.451
218.4279, 1253.376
218.9100, 1253.694
219.3921, 1255.931
219.8742, 1256.127
220.3563, 1254.474
220.8384, 1250.398
221.3206, 1243.708
221.8027, 1234.342
222.2848, 1222.728
222.7669, 1205.639
223.2490, 1189.733
223.7311, 1182.771
224.2132, 1189.128
224.6954, 1195.744
225.1775, 1199.886
225.6596, 1201.476
226.1417, 1201.412
226.6238, 1198.672
227.1059, 1195.129
227.5881, 1193.208
228.0702, 1193.835
228.5523, 1194.222
229.0344, 1192.208
229.5165, 1185.818
229.9986, 1188.457
230.4808, 1204.884
230.9629, 1226.966
231.4450, 1242.871
231.9271, 1249.389
232.4092, 1254.906
232.8913, 1262.394
233.3735, 1273.236
233.8556, 1280.533
234.3377, 1283.367
234.8198, 1283.211
235.3019, 1282.331
235.7840, 1279.842
236.2662, 1278.061
236.7483, 1277.571
237.2304, 1278.018
237.7125, 1281.887
238.1946, 1295.352
238.6767, 1309.573
239.1589, 1303.964
239.6410, 1260.487
240.1231, 1224.868
240.6052, 1217.901
241.0873, 1255.304
241.5694, 1279.386
242.0516, 1287.361
242.5337, 1282.904
243.0158, 1273.400
243.4979, 1254.812
243.9800, 1237.022
244.4621, 1224.332
244.9443, 1219.261
245.4264, 1213.867
245.9085, 1209.360
246.3906, 1204.166
246.8727, 1193.043
247.3548, 1169.582
247.8370, 1149.588
248.3191, 1142.271
248.8012, 1159.210
249.2833, 1161.624
249.7654, 1142.933
250.2475, 1110.829
250.7297, 1088.312
251.2118, 1080.847
251.6939, 1074.691
252.1760, 1063.302
252.6581, 1044.376
253.1402, 1025.177
253.6223, 1003.175
254.1045, 981.3552
254.5866, 971.5159
255.0687, 982.6297
255.5508, 991.1176
256.0329, 982.7065
256.5150, 947.2789
256.9972, 921.0859
257.4793, 908.2742
257.9614, 905.1120
258.4435, 899.8642
258.9256, 892.5002
259.4077, 883.1207
259.8899, 870.6943
260.3720, 852.4145
260.8541, 839.7206
261.3362, 835.5394
261.8183, 836.8564
262.3004, 832.8098
262.7826, 820.7805
263.2647, 808.4138
263.7468, 801.0558
264.2289, 801.4349
264.7110, 797.5676
265.1931, 787.9595
265.6753, 773.7692
266.1574, 757.8860
266.6395, 738.2022
267.1216, 721.2523
267.6037, 711.9085
268.0858, 712.8509
268.5680, 710.2774
269.0501, 700.9957
269.5322, 688.4745
270.0143, 685.2993
270.4964, 695.6223
270.9785, 704.4017
271.4607, 700.1785
271.9428, 679.0941
272.4249, 666.4957
272.9070, 666.9240
273.3891, 675.6299
273.8712, 678.8439
274.3534, 675.7999
274.8355, 669.9456
275.3176, 662.0603
275.7997, 651.4532
276.2818, 644.8860
276.7639, 643.6782
277.2461, 646.2371
277.7282, 649.1998
278.2103, 653.0354
278.6924, 655.0263
279.1745, 652.8300
279.6566, 646.2399
280.1388, 639.7314
280.6209, 633.3005
281.1030, 627.5892
281.5851, 623.5193
282.0672, 620.9024
282.5493, 621.0984
283.0315, 627.3556
283.5136, 639.3677
283.9957, 645.2545
284.4778, 642.7219
284.9599, 635.3004
285.4420, 629.9796
285.9242, 626.8419
286.4063, 624.3135
286.8884, 620.7976
287.3705, 616.6830
287.8526, 615.3293
288.3347, 617.4117
288.8169, 621.6508
289.2990, 627.1370
289.7811, 633.7977
290.2632, 637.6873
290.7453, 635.4059
291.2274, 628.1494
291.7096, 620.5679
292.1917, 612.4442
292.6738, 605.6122
293.1559, 603.2663
293.6380, 605.0736
294.1201, 608.0303
294.6023, 612.2964
295.0844, 616.4893
295.5665, 616.2105
296.0486, 610.4869
296.5307, 602.3992
297.0128, 593.7193
297.4950, 585.2713
297.9771, 580.7279
298.4592, 586.9268
298.9413, 597.4221
299.4234, 598.1537
299.9055, 586.3024
300.3876, 573.0895
300.8698, 571.6488
301.3519, 579.1213
301.8340, 586.6603
302.3161, 589.7207
302.7982, 590.1511
303.2803, 590.6835
303.7625, 591.6539
304.2446, 591.3013
304.7267, 584.7666
305.2088, 575.6462
305.6909, 571.4575
306.1730, 579.7789
306.6552, 592.6888
307.1373, 601.7587
307.6194, 606.3156
308.1015, 610.8074
308.5836, 621.5069
309.0657, 633.8303
309.5479, 640.7852
310.0300, 631.7006
310.5121, 621.4312
310.9942, 622.6479
311.4763, 635.9438
311.9584, 648.5326
312.4406, 653.5042
312.9227, 653.3400
313.4048, 651.2087
313.8869, 641.9337
314.3690, 636.2250
314.8511, 643.4372
315.3333, 662.9672
315.8154, 678.6196
316.2975, 681.5148
316.7796, 677.7379
317.2617, 673.0240
317.7438, 668.2497
318.2260, 663.6103
318.7081, 656.6558
319.1902, 648.2997
319.6723, 646.9340
320.1544, 662.2613
320.6365, 681.6661
321.1187, 696.0158
321.6008, 702.9382
322.0829, 704.8506
322.5650, 698.5522
323.0471, 686.0497
323.5292, 678.1504
324.0114, 679.5502
324.4935, 684.1750
324.9756, 688.7385
325.4577, 695.2877
325.9398, 698.7874
326.4219, 696.5637
326.9041, 690.4340
327.3862, 687.1114
327.8683, 690.8184
328.3504, 694.2424
328.8325, 694.0875
329.3146, 685.5873
329.7968, 681.3215
330.2789, 683.7228
330.7610, 690.1413
331.2431, 694.2167
331.7252, 695.3214
332.2073, 694.8114
332.6895, 692.6684
333.1716, 687.2200
333.6537, 685.0870
334.1358, 688.5912
334.6179, 693.9922
335.1000, 694.4326
335.5822, 687.9806
336.0643, 680.5592
336.5464, 674.2379
337.0285, 669.2249
337.5106, 663.0597
337.9927, 655.3627
338.4749, 647.0094
338.9570, 638.3061
339.4391, 628.0636
339.9212, 622.6146
340.4033, 625.8474
340.8854, 636.9027
341.3676, 642.7175
341.8497, 642.7405
342.3318, 639.2588
342.8139, 633.6085
343.2960, 625.7839
343.7781, 619.0688
344.2603, 615.0084
344.7424, 612.5314
345.2245, 607.1849
345.7066, 598.7228
346.1887, 591.0679
346.6708, 588.2140
347.1530, 589.4587
347.6351, 591.2725
348.1172, 593.2072
348.5993, 594.8965
349.0814, 595.6922
349.5635, 595.5797
350.0457, 594.6542
350.5278, 592.8455
351.0099, 590.2611
351.4920, 587.4552
351.9741, 585.0043
352.4562, 581.1168
352.9384, 571.7716
353.4205, 558.7293
353.9026, 547.6180
354.3847, 542.0750
354.8668, 540.2958
355.3489, 540.7193
355.8311, 543.6206
356.3132, 546.6740
356.7953, 548.5626
357.2774, 549.3216
357.7595, 549.0795
358.2416, 547.4753
358.7238, 545.1793
359.2059, 541.6484
359.6880, 536.4842
360.1701, 534.1666
360.6522, 540.3533
361.1343, 549.6251
361.6164, 555.3366
362.0985, 554.1747
362.5807, 550.2109
363.0628, 543.6598
363.5449, 534.6606
364.0270, 527.5103
364.5091, 524.6546
364.9912, 523.4434
365.4734, 521.8443
365.9555, 515.3084
366.4376, 512.9641
366.9197, 518.8578
367.4018, 531.4693
367.8839, 541.3049
368.3661, 546.3528
368.8482, 549.4756
369.3303, 552.0980
369.8124, 554.7993
370.2945, 556.0573
370.7766, 555.3096
371.2588, 553.1516
371.7409, 551.0116
372.2230, 547.7767
372.7051, 546.1126
373.1872, 547.6790
373.6693, 554.0049
374.1515, 557.3891
374.6336, 556.5807
375.1157, 553.9785
375.5978, 553.6642
376.0799, 556.7048
376.5620, 558.4214
377.0442, 556.3146
377.5263, 550.7148
378.0084, 549.2051
378.4905, 552.4694
378.9726, 557.9344
379.4547, 563.1042
379.9369, 567.9445
380.4190, 573.4276
380.9011, 580.4153
381.3832, 587.9301
381.8653, 591.4470
382.3474, 590.8696
382.8296, 591.7786
383.3117, 601.0179
383.7938, 615.8346
384.2759, 626.3486
384.7580, 629.6345
385.2401, 630.1130
385.7223, 633.2789
386.2044, 638.9246
386.6865, 646.0845
387.1686, 654.9276
387.6507, 664.7060
388.1328, 674.2361
388.6150, 683.2653
389.0971, 692.9851
389.5792, 704.0908
390.0613, 716.5046
390.5434, 730.2217
391.0255, 744.3594
391.5077, 760.3349
391.9898, 780.5391
392.4719, 805.4507
392.9540, 828.1863
393.4361, 842.3832
393.9182, 853.9086
394.4004, 868.4432
394.8825, 890.6356
395.3646, 913.1957
395.8467, 932.7109
396.3288, 949.8711
396.8109, 970.4629
397.2931, 993.7848
397.7752, 1021.918
398.2573, 1056.224
398.7394, 1107.853
399.2215, 1150.964
399.7036, 1181.781
400.1858, 1203.673
400.6679, 1224.544
401.1500, 1239.055
401.6321, 1259.142
402.1142, 1290.382
402.5963, 1336.431
403.0785, 1379.558
403.5606, 1419.047
404.0427, 1456.330
404.5248, 1494.218
405.0069, 1534.820
405.4890, 1569.744
405.9712, 1596.079
406.4533, 1614.532
406.9354, 1628.837
407.4175, 1637.290
407.8996, 1647.727
408.3817, 1671.100
408.8639, 1706.619
409.3460, 1733.088
409.8281, 1746.012
410.3102, 1747.926
410.7923, 1740.485
411.2744, 1724.272
411.7566, 1708.414
412.2387, 1699.909
412.7208, 1696.216
413.2029, 1692.905
413.6850, 1690.421
414.1671, 1684.300
414.6493, 1667.345
415.1314, 1642.922
415.6135, 1618.781
416.0956, 1597.151
416.5777, 1578.565
417.0598, 1564.514
417.5420, 1555.065
418.0241, 1546.972
418.5062, 1537.830
418.9883, 1529.310
419.4704, 1523.323
419.9525, 1521.777
420.4347, 1521.514
420.9168, 1520.999
421.3989, 1520.676
421.8810, 1522.422
422.3631, 1530.110
422.8452, 1537.555
423.3273, 1540.966
423.8094, 1533.821
424.2916, 1533.393
424.7737, 1549.769
425.2558, 1572.019
425.7379, 1581.221
426.2200, 1566.374
426.7021, 1552.367
427.1843, 1547.039
427.6664, 1552.278
428.1485, 1550.175
428.6306, 1536.539
429.1127, 1520.804
429.5948, 1513.633
430.0770, 1517.546
430.5591, 1518.740
431.0412, 1513.195
431.5233, 1503.696
432.0054, 1501.615
432.4875, 1508.002
432.9697, 1514.923
433.4518, 1517.297
433.9339, 1515.530
434.4160, 1511.060
434.8981, 1502.956
435.3802, 1495.476
435.8624, 1495.915
436.3445, 1502.776
436.8266, 1509.364
437.3087, 1511.642
437.7908, 1512.004
438.2729, 1513.308
438.7551, 1515.609
439.2372, 1519.717
439.7193, 1529.810
440.2014, 1541.020
440.6835, 1546.728
441.1656, 1541.587
441.6478, 1534.080
442.1299, 1527.148
442.6120, 1521.403
443.0941, 1519.056
443.5762, 1524.266
444.0583, 1530.800
444.5405, 1536.132
445.0226, 1542.284
445.5047, 1541.070
445.9868, 1522.966
446.4689, 1498.808
446.9510, 1483.998
447.4332, 1492.093
447.9153, 1495.973
448.3974, 1488.992
448.8795, 1470.797
449.3616, 1455.359
449.8438, 1444.980
450.3259, 1434.365
450.8080, 1419.061
451.2901, 1397.380
451.7722, 1375.390
452.2543, 1350.558
452.7365, 1327.701
453.2186, 1324.751
453.7007, 1344.934
454.1828, 1360.211
454.6649, 1350.466
455.1470, 1320.107
455.6292, 1303.143
456.1113, 1301.337
456.5934, 1306.049
457.0755, 1309.243
457.5576, 1311.032
458.0397, 1312.115
458.5219, 1314.098
459.0040, 1314.317
459.4861, 1306.181
459.9682, 1291.365
460.4503, 1280.615
460.9324, 1283.595
461.4146, 1292.828
461.8967, 1301.734
462.3788, 1310.835
462.8609, 1314.973
463.3430, 1305.911
463.8251, 1290.915
464.3073, 1282.525
464.7894, 1286.380
465.2715, 1295.981
465.7536, 1311.629
466.2357, 1333.959
466.7178, 1351.106
467.2000, 1361.175
467.6821, 1365.637
468.1642, 1365.453
468.6463, 1358.109
469.1284, 1349.609
469.6105, 1337.979
470.0927, 1325.814
470.5748, 1322.072
471.0569, 1331.170
471.5390, 1338.259
472.0211, 1334.968
472.5032, 1320.274
472.9854, 1313.145
473.4675, 1315.153
473.9496, 1319.829
474.4317, 1319.961
474.9138, 1315.820
475.3959, 1310.249
475.8781, 1304.777
476.3602, 1297.722
476.8423, 1282.660
477.3244, 1261.098
477.8065, 1243.863
478.2886, 1241.404
478.7708, 1246.664
479.2529, 1249.681
479.7350, 1248.478
480.2171, 1247.598
480.6992, 1253.031
481.1813, 1260.466
481.6635, 1263.221
482.1456, 1251.819
482.6277, 1241.327
483.1098, 1242.014
483.5919, 1252.860
484.0740, 1255.580
484.5562, 1234.621
485.0382, 1211.538
485.5204, 1199.300
486.0025, 1211.018
486.4846, 1216.193
486.9667, 1213.951
487.4488, 1205.476
487.9309, 1191.867
488.4131, 1168.486
488.8952, 1148.970
489.3773, 1137.874
489.8594, 1135.029
490.3415, 1132.165
490.8236, 1129.826
491.3058, 1125.882
491.7879, 1117.607
492.2700, 1105.122
492.7521, 1093.107
493.2342, 1081.355
493.7163, 1071.727
494.1985, 1070.182
494.6806, 1074.829
495.1627, 1075.125
495.6448, 1060.429
496.1269, 1040.080
496.6090, 1027.224
497.0912, 1022.489
497.5733, 1020.462
498.0554, 1019.306
498.5375, 1018.023
499.0196, 1015.509
499.5017, 1012.477
499.9839, 1006.889
500.4660, 994.1631
500.9481, 977.9158
501.4302, 968.1368
501.9123, 976.3604
502.3944, 983.5900
502.8766, 981.1317
503.3587, 964.5867
503.8408, 953.5713
504.3229, 950.6991
504.8050, 951.1976
505.2871, 950.7516
505.7693, 949.2986
506.2514, 947.2029
506.7335, 945.2485
507.2156, 942.3789
507.6977, 934.0061
508.1798, 919.1118
508.6620, 904.9564
509.1441, 897.7803
509.6262, 895.5336
510.1083, 883.3513
510.5904, 859.3970
511.0725, 835.9680
511.5547, 826.8864
512.0368, 828.5543
512.5189, 832.4980
513.0010, 839.4592
513.4832, 843.5380
513.9653, 836.5961
514.4474, 821.3061
514.9295, 807.1457
515.4116, 802.9098
515.8937, 798.6183
516.3758, 786.2913
516.8579, 762.7923
517.3400, 742.1428
517.8221, 729.2554
518.3043, 720.5703
518.7864, 712.5053
519.2685, 705.7653
519.7506, 698.3026
520.2327, 689.5873
520.7148, 680.0348
521.1970, 671.0282
521.6791, 662.4130
522.1612, 654.6802
522.6433, 648.5278
523.1254, 644.2906
523.6075, 637.6739
524.0897, 627.7155
524.5718, 618.0808
525.0539, 613.5535
525.5360, 613.5264
526.0181, 613.8386
526.5002, 614.4882
526.9824, 613.5604
527.4645, 606.2143
527.9466, 593.8017
528.4287, 582.7095
528.9108, 577.6476
529.3929, 575.1417
529.8751, 571.0816
530.3572, 564.8160
530.8393, 560.5840
531.3214, 563.5757
531.8035, 568.3909
532.2856, 569.6900
532.7678, 561.1697
533.2499, 554.6210
533.7320, 553.8284
534.2141, 557.0485
534.6962, 558.4442
535.1783, 556.0174
535.6605, 554.0388
536.1426, 554.4760
536.6247, 557.9005
537.1068, 558.0790
537.5889, 553.9728
538.0710, 548.5685
538.5532, 544.5847
539.0353, 542.1130
539.5174, 539.3666
539.9995, 536.0069
540.4816, 532.3363
540.9637, 528.4687
541.4459, 524.5457
541.9280, 521.7255
542.4101, 519.8299
542.8922, 519.7233
543.3743, 525.7507
543.8564, 537.4554
544.3386, 543.1562
544.8207, 526.7560
545.3028, 504.6569
545.7849, 493.4116
546.2670, 501.2741
546.7491, 511.6632
547.2313, 520.4693
547.7134, 527.8543
548.1955, 534.2459
548.6776, 540.3720
549.1597, 544.8336
549.6418, 547.0062
550.1240, 546.9670
550.6061, 546.9018
551.0882, 547.3458
551.5703, 546.8839
552.0524, 544.0869
552.5345, 538.4893
553.0167, 534.7362
553.4988, 533.4282
553.9809, 533.0337
554.4630, 531.4246
554.9451, 528.7396
555.4272, 525.9370
555.9094, 523.3166
556.3915, 520.8595
556.8736, 518.0996
557.3557, 515.3120
557.8378, 513.8472
558.3199, 513.7965
558.8021, 515.9140
559.2842, 522.2781
559.7663, 534.3115
560.2484, 543.0348
560.7305, 542.3283
561.2126, 537.6462
561.6948, 534.4825
562.1769, 533.6854
562.6590, 534.5731
563.1411, 538.6967
563.6232, 544.3068
564.1053, 546.6834
564.5875, 544.4709
565.0696, 541.4935
565.5517, 538.4702
566.0338, 535.4351
566.5159, 535.2915
566.9980, 538.3256
567.4802, 543.0992
567.9623, 548.9431
568.4444, 555.6653
568.9265, 562.4581
569.4086, 569.6949
569.8907, 575.6501
570.3729, 577.1280
570.8550, 575.7233
571.3371, 575.3560
571.8192, 579.1472
572.3013, 583.4718
572.7834, 586.8330
573.2656, 588.9297
573.7477, 587.8535
574.2298, 575.6522
574.7119, 565.5373
575.1940, 565.9670
575.6761, 582.9114
576.1583, 596.9230
576.6404, 607.7670
577.1225, 615.3128
577.6046, 618.2466
578.0867, 613.4336
578.5688, 613.4509
579.0510, 621.9772
579.5331, 635.2039
580.0152, 642.3701
580.4973, 643.1095
580.9794, 644.7498
581.4615, 652.2776
581.9437, 663.2974
582.4258, 671.1508
582.9079, 675.7143
583.3900, 680.6050
583.8721, 687.9648
584.3542, 697.6003
584.8364, 709.6246
585.3185, 725.1902
585.8006, 740.5299
586.2827, 755.6620
586.7648, 768.8235
587.2469, 777.6060
587.7291, 771.8913
588.2112, 772.0125
588.6933, 786.1774
589.1754, 811.6591
589.6575, 832.4221
590.1396, 846.5682
590.6218, 859.0660
591.1039, 871.7877
591.5860, 884.7746
592.0681, 898.5413
592.5502, 913.4749
593.0323, 927.8734
593.5145, 939.8062
593.9966, 949.6064
594.4787, 958.7717
594.9608, 967.6497
595.4429, 975.8625
595.9250, 982.8118
596.4072, 988.6926
596.8893, 994.0123
597.3714, 998.7009
597.8535, 1003.121
598.3356, 1006.357
598.8177, 1008.834
599.2999, 1014.281
599.7820, 1026.458
600.2641, 1039.808
600.7462, 1052.208
601.2283, 1065.717
601.7104, 1071.587
602.1926, 1066.156
602.6747, 1056.596
603.1568, 1049.313
603.6389, 1043.808
604.1210, 1043.813
604.6031, 1051.873
605.0853, 1063.204
605.5674, 1066.675
606.0495, 1062.932
606.5316, 1059.154
607.0137, 1059.164
607.4958, 1061.075
607.9780, 1061.289
608.4601, 1060.149
608.9422, 1061.143
609.4243, 1070.444
609.9064, 1080.484
610.3885, 1084.624
610.8707, 1081.124
611.3528, 1074.548
611.8349, 1062.443
612.3170, 1049.536
612.7991, 1041.409
613.2813, 1041.968
613.7634, 1041.661
614.2455, 1041.911
614.7276, 1039.829
615.2097, 1024.810
615.6918, 993.3260
616.1740, 967.0518
616.6561, 957.4083
617.1382, 959.8686
617.6203, 956.5582
618.1024, 947.5255
618.5845, 936.7724
619.0667, 928.1465
619.5488, 919.4415
620.0309, 905.9759
620.5130, 885.8550
620.9951, 868.4427
621.4772, 863.1306
621.9594, 862.4501
622.4415, 857.9016
622.9236, 840.5385
623.4057, 827.0793
623.8878, 824.5477
624.3699, 827.6935
624.8521, 823.2664
625.3342, 804.0905
625.8163, 790.2881
626.2984, 790.6987
626.7805, 802.3463
627.2626, 798.1147
627.7448, 775.5932
628.2269, 752.4381
628.7090, 741.6830
629.1911, 740.2145
629.6732, 736.6834
630.1553, 730.1359
630.6375, 725.1082
631.1196, 729.5548
631.6017, 736.8425
632.0838, 737.0884
632.5659, 723.3946
633.0480, 709.6487
633.5302, 702.7686
634.0123, 700.1910
634.4944, 697.3148
634.9765, 689.8531
635.4586, 686.1088
635.9407, 689.5641
636.4229, 698.6687
636.9050, 703.6236
637.3871, 703.4647
637.8692, 701.4460
638.3513, 698.2341
638.8334, 694.0504
639.3155, 692.9682
639.7976, 695.2505
640.2797, 697.8115
640.7618, 696.4799
641.2440, 693.5946
641.7261, 694.5177
642.2082, 701.3787
642.6903, 707.8632
643.1724, 706.5023
643.6545, 702.5599
644.1367, 703.4035
644.6188, 716.3041
645.1009, 728.7115
645.5830, 740.3859
646.0651, 749.3190
646.5472, 749.0054
647.0294, 731.1324
647.5115, 717.4967
647.9936, 716.5726
648.4757, 727.1852
648.9578, 733.6344
649.4399, 735.7971
649.9221, 734.2999
650.4042, 725.6548
650.8863, 713.4849
651.3684, 712.5161
651.8505, 724.8434
652.3326, 736.4047
652.8148, 732.4706
653.2969, 720.6936
653.7790, 710.7737
654.2611, 705.5102
654.7432, 702.2707
655.2253, 701.5318
655.7075, 701.8349
656.1896, 700.7252
656.6717, 698.8173
657.1538, 694.0941
657.6359, 684.8539
658.1180, 672.5687
658.6002, 663.6292
659.0823, 659.0466
659.5644, 654.1219
660.0465, 646.6899
660.5286, 637.0496
661.0107, 626.2389
661.4929, 614.2380
661.9750, 603.1478
662.4571, 592.7788
662.9392, 585.1078
663.4213, 585.6964
663.9034, 597.8008
664.3856, 603.1580
664.8677, 582.7635
665.3498, 555.1415
665.8319, 538.6589
666.3140, 546.8569
666.7961, 553.8425
667.2783, 558.2879
667.7604, 560.1644
668.2425, 558.7935
668.7246, 552.6992
669.2067, 547.9824
669.6888, 546.2695
670.1710, 546.9186
670.6531, 549.6943
671.1352, 554.3063
671.6173, 555.5135
672.0994, 547.1559
672.5815, 535.1624
673.0637, 528.8301
673.5458, 527.8466
674.0279, 525.5988
674.5100, 513.9551
674.9921, 502.6052
675.4742, 499.7050
675.9564, 509.8287
676.4385, 516.6376
676.9206, 516.1533
677.4027, 512.9135
677.8848, 510.7272
678.3669, 511.0871
678.8491, 506.5835
679.3312, 493.2366
679.8133, 480.1472
680.2954, 486.9450
680.7775, 510.7681
681.2596, 524.8410
681.7418, 516.9471
682.2239, 500.4185
682.7060, 491.9485
683.1881, 489.6729
683.6702, 488.3276
684.1523, 482.6313
684.6345, 479.5034
685.1166, 484.9506
685.5987, 498.2621
686.0808, 507.8941
686.5629, 512.4384
687.0450, 512.3835
687.5272, 506.1371
688.0093, 492.3704
688.4914, 485.1450
688.9735, 485.7944
689.4556, 489.1002
689.9377, 490.3395
690.4199, 490.1096
690.9020, 492.5201
691.3841, 498.3695
691.8662, 504.4722
692.3483, 509.8152
692.8304, 512.6777
693.3126, 509.5122
693.7947, 493.4089
694.2768, 480.6937
694.7589, 482.4573
695.2410, 491.7949
695.7231, 496.1925
696.2053, 488.1816
696.6874, 482.7440
697.1695, 483.2253
697.6516, 487.7491
698.1337, 489.0267
698.6158, 486.1051
699.0980, 485.1984
699.5801, 490.5091
700.0622, 499.4091
700.5443, 504.1429
701.0264, 504.9122
701.5085, 503.7778
701.9907, 500.8024
702.4728, 497.4210
702.9549, 495.8296
703.4370, 496.4201
703.9191, 494.6734
704.4012, 484.9619
704.8834, 474.9273
705.3655, 470.3365
705.8476, 473.7858
706.3297, 476.9373
706.8118, 480.0640
707.2939, 482.5764
707.7761, 482.9416
708.2582, 480.9642
708.7403, 483.8369
709.2224, 495.0553
709.7045, 504.7189
710.1866, 493.3428
710.6688, 468.9434
711.1509, 452.9067
711.6330, 457.2100
712.1151, 467.0300
712.5972, 473.8442
713.0793, 478.5687
713.5615, 483.3329
714.0436, 488.9103
714.5257, 494.3071
715.0078, 499.1771
715.4899, 503.5766
715.9720, 508.5613
716.4542, 515.3019
716.9363, 518.9358
717.4184, 515.6226
717.9005, 506.9820
718.3826, 502.8405
718.8647, 503.0921
719.3469, 501.8661
719.8290, 490.0597
720.3111, 476.6632
720.7932, 473.9761
721.2753, 483.9176
721.7574, 494.6592
722.2396, 504.0454
722.7217, 509.6986
723.2038, 508.8765
723.6859, 494.6622
724.1680, 488.5660
724.6501, 494.3599
725.1323, 504.1174
725.6144, 510.1191
726.0965, 512.2552
726.5786, 510.6934
727.0607, 504.3080
727.5428, 497.4484
728.0250, 496.9407
728.5071, 500.9058
728.9892, 504.2364
729.4713, 502.4307
729.9534, 503.1652
730.4355, 518.2292
730.9177, 539.1421
731.3998, 547.8261
731.8819, 524.3156
732.3640, 505.8517
732.8461, 502.2518
733.3282, 510.1568
733.8104, 516.4825
734.2925, 521.2505
734.7746, 524.0443
735.2567, 523.8673
735.7388, 521.7885
736.2209, 521.8550
736.7031, 523.8620
737.1852, 525.4633
737.6673, 524.2082
738.1494, 522.3336
738.6315, 522.2747
739.1136, 524.1550
739.5958, 526.0327
740.0779, 527.5526
740.5600, 528.5570
741.0421, 528.7938
741.5242, 528.0155
742.0063, 527.4627
742.4885, 526.5545
742.9706, 526.8597
743.4527, 531.8167
743.9348, 540.8144
744.4169, 540.9224
744.8990, 529.6399
745.3812, 517.6477
745.8633, 515.1940
746.3454, 519.5267
746.8275, 527.2029
747.3096, 540.0549
747.7917, 549.3768
748.2739, 547.1401
748.7560, 540.3824
749.2381, 529.3461
749.7202, 540.7683
750.2023, 547.1597
750.6844, 548.7905
751.1666, 531.4025
751.6487, 538.5734
752.1308, 535.9022
752.6129, 532.8274
753.0950, 543.4548
753.5771, 528.8331
754.0593, 539.2432
754.5414, 539.6611
755.0235, 544.6522
755.5056, 539.7404
755.9877, 537.8873
756.4698, 545.9402
756.9520, 548.5081
757.4341, 542.4564
757.9162, 547.7382
758.3983, 532.7705
758.8804, 535.5720
759.3625, 546.0401
759.8447, 540.4863
760.3268, 545.9491
760.8089, 547.2162
761.2910, 529.4153
761.7731, 541.7664
762.2552, 547.0787
762.7373, 552.9091
763.2194, 556.9673
763.7015, 556.1451
764.1837, 554.1898
764.6658, 554.2958
765.1479, 556.9603
765.6300, 558.2387
766.1121, 556.4820
766.5942, 554.0298
767.0764, 551.8889
767.5585, 550.0148
768.0406, 548.7406
768.5227, 548.1995
769.0048, 547.6387
769.4869, 546.6790
769.9691, 545.1384
770.4512, 541.7509
770.9333, 536.0592
771.4154, 532.0631
771.8975, 535.9766
772.3796, 541.4857
772.8618, 542.3062
773.3439, 536.2321
773.8260, 527.4946
774.3081, 509.4287
774.7902, 494.4042
775.2723, 495.9778
775.7545, 519.1923
776.2366, 536.8690
776.7187, 547.0027
777.2008, 550.5115
777.6829, 545.2975
778.1650, 534.2449
778.6472, 525.7575
779.1293, 521.2680
779.6114, 521.6506
780.0935, 534.4429
780.5756, 550.4695
781.0577, 556.5776
781.5399, 536.4363
782.0220, 522.5906
782.5041, 521.4257
782.9862, 527.5695
783.4683, 532.1898
783.9504, 535.0552
784.4326, 537.5315
784.9147, 540.0160
785.3968, 542.1845
785.8789, 543.4610
786.3610, 543.9063
786.8431, 543.6446
787.3253, 542.0646
787.8074, 540.5106
788.2895, 540.5469
788.7716, 541.2960
789.2537, 540.5146
789.7358, 532.7861
790.2180, 529.6347
790.7001, 535.6188
791.1822, 547.4687
791.6643, 552.8790
792.1464, 551.2999
792.6285, 548.2204
793.1107, 544.8273
793.5928, 542.0391
794.0749, 542.3308
794.5570, 545.0584
795.0391, 547.4861
795.5212, 547.4986
796.0034, 547.3642
796.4855, 548.3193
796.9676, 550.3492
797.4497, 553.0400
797.9318, 558.7135
798.4139, 561.7300
798.8961, 559.2016
799.3782, 552.2569
799.8603, 549.0318
800.3424, 549.6829
800.8245, 551.1729
801.3066, 551.5348
801.7888, 551.6882
802.2709, 553.3705
802.7530, 556.4094
803.2351, 559.6425
803.7172, 563.8433
804.1993, 566.9061
804.6815, 567.3948
805.1636, 565.0873
805.6457, 562.2542
806.1278, 557.9617
806.6099, 545.3741
807.0920, 556.8051
807.5742, 563.2053
808.0563, 564.8449
808.5384, 547.4658
809.0205, 554.6454
809.5026, 551.9830
809.9847, 548.9171
810.4669, 559.5533
810.9490, 544.9404
811.4311, 555.3593
811.9132, 555.7860
812.3953, 560.7859
812.8774, 555.8829
813.3596, 554.0386
813.8417, 562.1004
814.3238, 564.6771
814.8059, 567.2038
815.2880, 563.2184
815.7701, 547.2631
816.2523, 544.7543
816.7344, 556.0129
817.2165, 566.0899
817.6986, 560.0812
818.1807, 550.0192
818.6628, 547.0652
819.1450, 553.1379
819.6271, 559.3876
820.1092, 567.0917
820.5913, 571.3687
821.0734, 568.2280
821.5555, 556.3145
822.0377, 550.8023
822.5198, 552.5086
823.0019, 555.7975
823.4840, 557.4355
823.9661, 556.9551
824.4482, 550.9988
824.9304, 539.2490
825.4125, 532.6167
825.8946, 542.0099
826.3767, 555.9627
826.8588, 567.5422
827.3409, 576.8171
827.8231, 577.9202
828.3052, 566.5771
828.7873, 553.7069
829.2694, 546.7114
829.7515, 545.3846
830.2336, 544.6434
830.7158, 544.3334
831.1979, 545.8917
831.6800, 555.9708
832.1621, 565.8049
832.6442, 561.5750
833.1263, 540.2790
833.6085, 523.9424
834.0906, 523.0978
834.5727, 527.6574
835.0548, 531.4872
835.5369, 534.2347
836.0190, 538.8035
836.5012, 546.0430
836.9833, 552.0872
837.4654, 553.5253
837.9475, 551.2491
838.4296, 545.5402
838.9117, 536.4647
839.3939, 532.8220
839.8760, 549.1837
840.3581, 567.6407
840.8402, 572.7925
841.3223, 560.5848
841.8044, 549.4204
842.2866, 539.6992
842.7687, 532.3511
843.2508, 527.8224
843.7329, 526.1087
844.2150, 528.8776
844.6971, 536.4279
845.1793, 544.0513
845.6614, 550.1831
846.1435, 553.1090
846.6256, 549.2419
847.1077, 538.3956
847.5898, 527.6432
848.0720, 517.6003
848.5541, 510.5935
849.0362, 508.1048
849.5183, 510.3669
850.0004, 513.1669
850.4825, 517.0990
850.9647, 519.5029
851.4468, 515.6211
851.9289, 509.1144
852.4110, 514.4185
852.8931, 530.4550
853.3752, 542.0297
853.8574, 533.1126
854.3395, 521.1225
854.8216, 519.6876
855.3037, 530.1387
855.7858, 535.0845
856.2679, 531.4554
856.7501, 525.3041
857.2322, 517.5526
857.7143, 509.1611
858.1964, 508.9724
858.6785, 516.8453
859.1606, 523.3225
859.6428, 520.3827
860.1249, 514.1303
860.6070, 510.3506
861.0891, 509.1955
861.5712, 510.1988
862.0533, 518.2828
862.5355, 522.8849
863.0176, 517.8505
863.4997, 505.4350
863.9818, 502.2881
864.4639, 509.8683
864.9460, 517.1483
865.4282, 518.7679
865.9103, 516.8889
866.3924, 515.2585
866.8745, 513.8167
867.3566, 512.2861
867.8387, 510.7842
868.3209, 508.9298
868.8030, 505.6745
869.2851, 501.7549
869.7672, 500.3580
870.2493, 502.4961
870.7314, 504.8409
871.2136, 506.5197
871.6957, 507.8092
872.1778, 510.7208
872.6599, 514.3452
873.1420, 513.8185
873.6241, 501.7093
874.1063, 490.7960
874.5884, 492.8831
875.0705, 503.3106
875.5526, 511.9554
876.0347, 517.0847
876.5168, 519.7197
876.9990, 520.0875
877.4811, 517.8577
877.9632, 510.0053
878.4453, 496.8574
878.9274, 490.8427
879.4095, 497.1668
879.8917, 506.5715
880.3738, 509.2910
880.8559, 507.5647
881.3380, 504.9782
881.8201, 501.9053
882.3022, 499.1011
882.7844, 497.1385
883.2665, 495.2603
883.7486, 491.4903
884.2307, 484.5758
884.7128, 484.5917
885.1949, 493.4079
885.6770, 506.7607
886.1591, 524.9620
886.6412, 542.5435
887.1234, 547.8727
887.6055, 535.4439
888.0876, 523.0608
888.5697, 515.1656
889.0518, 513.4379
889.5339, 521.2733
890.0161, 546.9119
890.4982, 552.9705
890.9803, 535.0133
891.4624, 512.3433
891.9445, 501.4911
892.4266, 500.0163
892.9088, 502.7565
893.3909, 509.3754
893.8730, 514.2384
894.3551, 511.8752
894.8372, 508.0021
895.3193, 506.1488
895.8015, 506.5617
896.2836, 510.9622
896.7657, 521.8785
897.2478, 531.3910
897.7299, 534.0260
898.2120, 531.5729
898.6942, 533.8990
899.1763, 540.2114
899.6584, 542.9763
900.1405, 530.8929
900.6226, 518.8652
901.1047, 520.4453
901.5869, 533.8894
902.0690, 542.0739
902.5511, 539.8658
903.0332, 538.3542
903.5153, 541.5024
903.9974, 547.1829
904.4796, 545.5142
904.9617, 537.8020
905.4438, 536.9071
905.9259, 555.1256
906.4080, 574.7560
906.8901, 578.7599
907.3723, 572.2032
907.8544, 566.1212
908.3365, 562.5060
908.8186, 560.6027
909.3007, 559.3938
909.7828, 560.6285
910.2650, 570.4803
910.7471, 588.3302
911.2292, 596.7203
911.7113, 590.4258
912.1934, 578.9319
912.6755, 567.7291
913.1577, 559.8798
913.6398, 560.8200
914.1219, 580.3889
914.6040, 591.0331
915.0861, 584.3176
915.5682, 571.6013
916.0504, 561.3470
916.5325, 553.4590
917.0146, 551.3658
917.4967, 556.0510
917.9788, 558.4760
918.4609, 543.9998
918.9431, 525.6794
919.4252, 522.8659
919.9073, 538.9826
920.3894, 549.6185
920.8715, 541.3270
921.3536, 531.5397
921.8358, 528.3676
922.3179, 531.5206
922.8000, 535.4246
923.2821, 540.4006
923.7642, 540.9975
924.2463, 529.2463
924.7285, 513.9302
925.2106, 507.2206
925.6927, 507.6817
926.1748, 508.6822
926.6569, 512.8596
927.1390, 510.8599
927.6212, 495.1879
928.1033, 472.9836
928.5854, 463.3947
929.0675, 466.9505
929.5496, 478.4108
930.0317, 500.4825
930.5139, 521.7328
930.9960, 526.1130
931.4781, 518.4162
931.9602, 507.5487
932.4423, 488.3684
932.9244, 477.9031
933.4066, 486.8966
933.8887, 501.7192
934.3708, 509.1039
934.8529, 508.6562
935.3350, 501.6104
935.8171, 486.5910
936.2993, 473.9501
936.7814, 479.5715
937.2635, 492.5604
937.7456, 495.5467
938.2277, 484.2014
938.7098, 476.9629
939.1920, 483.8216
939.6741, 493.2633
940.1562, 500.1893
940.6383, 504.5802
941.1204, 503.1831
941.6025, 495.2508
942.0847, 491.4826
942.5668, 505.5136
943.0489, 523.6728
943.5310, 527.2789
944.0131, 518.4992
944.4952, 509.4887
944.9774, 503.2079
945.4595, 498.9995
945.9416, 496.6651
946.4237, 496.1454
946.9058, 496.3515
947.3879, 497.1754
947.8701, 504.7979
948.3522, 524.9434
948.8343, 544.5899
949.3164, 544.7200
949.7985, 534.2924
950.2806, 528.3264
950.7628, 534.8394
951.2449, 540.2703
951.7270, 541.6154
952.2091, 542.3314
952.6912, 546.2206
953.1733, 553.3176
953.6555, 561.0144
954.1376, 569.5344
954.6197, 573.6789
955.1018, 563.8242
955.5839, 550.2369
956.0660, 543.8564
956.5482, 546.3236
957.0303, 551.3211
957.5124, 556.6098
957.9945, 566.0837
958.4766, 585.1363
958.9587, 610.2879
959.4409, 615.6694
959.9230, 602.8671
960.4051, 593.8301
960.8872, 603.5831
961.3693, 619.7931
961.8514, 635.8527
962.3336, 649.8423
962.8157, 656.4296
963.2978, 643.7231
963.7799, 641.5671
964.2620, 655.4715
964.7441, 679.9149
965.2263, 709.9741
965.7084, 743.0175
966.1905, 764.7515
966.6726, 770.4001
967.1547, 771.8321
967.6368, 772.4694
968.1190, 776.7601
968.6011, 789.5663
969.0832, 812.9523
969.5653, 840.5508
970.0474, 873.8027
970.5295, 908.3335
971.0117, 939.2505
971.4938, 969.2420
971.9759, 1008.414
972.4580, 1056.841
972.9401, 1107.764
973.4222, 1158.890
973.9044, 1211.294
974.3865, 1261.714
974.8686, 1313.620
975.3507, 1381.517
975.8328, 1468.380
976.3149, 1558.830
976.7971, 1646.435
977.2792, 1734.999
977.7613, 1827.085
978.2434, 1926.068
978.7255, 2040.263
979.2076, 2172.519
979.6898, 2319.437
980.1719, 2483.373
980.6540, 2661.232
981.1361, 2854.523
981.6182, 3065.936
982.1003, 3271.294
982.5825, 3467.034
983.0646, 3672.150
983.5467, 3908.098
984.0288, 4158.303
984.5109, 4405.525
984.9930, 4648.321
985.4752, 4892.034
985.9573, 5148.123
986.4394, 5395.019
986.9215, 5633.620
987.4036, 5856.659
987.8857, 6024.141
988.3679, 6138.555
988.8500, 6221.129
989.3321, 6281.064
989.8142, 6312.542
990.2963, 6309.498
990.7784, 6274.483
991.2606, 6211.238
991.7427, 6123.816
992.2248, 6004.290
992.7069, 5857.026
993.1890, 5668.262
993.6711, 5421.335
994.1533, 5120.767
994.6354, 4778.025
995.1175, 4396.188
995.5996, 4000.779
996.0817, 3587.863
996.5638, 3190.474
997.0460, 2829.198
997.5281, 2506.665
998.0102, 2224.233
998.4923, 1982.140
998.9744, 1776.586
999.4565, 1609.241
999.9387, 1473.327
1000.421, 1368.191
1000.903, 1286.497
1001.385, 1210.365
1001.867, 1126.604
1002.349, 1055.925
1002.831, 1013.099
1003.313, 981.1808
1003.796, 939.7414
1004.278, 887.3800
1004.760, 847.1485
1005.242, 821.8764
1005.724, 802.3057
1006.206, 780.7186
1006.688, 759.1780
1007.170, 740.6421
1007.653, 725.5962
1008.135, 708.2932
1008.617, 683.5408
1009.099, 663.8737
1009.581, 656.6297
1010.063, 657.5911
1010.545, 651.1546
1011.027, 638.4428
1011.509, 624.6716
1011.992, 609.7794
1012.474, 597.6918
1012.956, 592.9726
1013.438, 591.7841
1013.920, 587.2778
1014.402, 577.1165
1014.884, 570.8887
1015.366, 569.9156
1015.848, 570.6833
1016.331, 570.7950
1016.813, 569.3657
1017.295, 563.2102
1017.777, 551.9431
1018.259, 544.0909
1018.741, 549.0356
1019.223, 551.5049
1019.705, 543.6102
1020.188, 527.6912
1020.670, 517.8284
1021.152, 513.8932
1021.634, 511.4713
1022.116, 509.2183
1022.598, 506.8244
1023.080, 502.4385
1023.562, 498.1137
1024.044, 497.4896
1024.527, 504.1344
1025.009, 509.5931
1025.491, 513.6309
1025.973, 516.3925
1026.455, 519.3207
1026.937, 520.9874
1027.419, 514.8766
1027.901, 500.9092
1028.384, 489.3662
1028.866, 485.7975
1029.348, 486.8627
1029.830, 493.3588
1030.312, 503.2730
1030.794, 508.1052
1031.276, 507.8526
1031.758, 501.5296
1032.240, 484.9996
1032.723, 469.7096
1033.205, 473.3033
1033.687, 487.0270
1034.169, 497.0569
1034.651, 497.8041
1035.133, 497.9766
1035.615, 497.5889
1036.097, 497.8476
1036.579, 501.1879
1037.062, 506.3843
1037.544, 505.7268
1038.026, 499.3231
1038.508, 492.2983
1038.990, 482.4583
1039.472, 478.1081
1039.954, 490.1837
1040.436, 512.4183
1040.919, 520.5871
1041.401, 511.6366
1041.883, 503.9172
1042.365, 501.7838
1042.847, 501.9594
1043.329, 499.9877
1043.811, 497.3009
1044.293, 496.2985
1044.776, 498.0663
1045.258, 499.5180
1045.740, 500.6657
1046.222, 500.5021
1046.704, 496.2661
1047.186, 489.5799
1047.668, 496.5103
1048.150, 514.8144
1048.632, 527.7255
1049.115, 520.4313
1049.597, 509.6800
1050.079, 502.8577
1050.561, 500.7868
1051.043, 504.9567
1051.525, 518.0008
1052.007, 527.3815
1052.489, 531.5945
1052.971, 531.7704
1053.454, 525.2921
1053.936, 517.3833
1054.418, 517.6860
1054.900, 528.0984
1055.382, 534.1851
1055.864, 525.4116
1056.346, 520.8154
1056.828, 530.4556
1057.311, 548.4292
1057.793, 548.4484
1058.275, 534.2261
1058.757, 527.9925
1059.239, 544.1929
1059.721, 561.4921
1060.203, 567.5604
1060.685, 566.7284
1061.167, 564.0172
1061.650, 557.9735
1062.132, 556.7029
1062.614, 560.6776
1063.096, 567.2728
1063.578, 577.4766
1064.060, 587.0477
1064.542, 588.6487
1065.024, 583.5269
1065.506, 580.9406
1065.989, 584.6471
1066.471, 589.5249
1066.953, 594.2095
1067.435, 600.0942
1067.917, 611.1025
1068.399, 625.8474
1068.881, 638.1395
1069.363, 645.9756
1069.846, 654.2772
1070.328, 669.6073
1070.810, 683.2043
1071.292, 686.9706
1071.774, 680.7626
1072.256, 682.5060
1072.738, 692.7921
1073.220, 701.6115
1073.702, 702.0729
1074.185, 699.6326
1074.667, 697.1620
1075.149, 696.8555
1075.631, 703.5361
1076.113, 724.8549
1076.595, 741.9192
1077.077, 753.2624
1077.559, 760.9331
1078.042, 766.4666
1078.524, 769.9456
1079.006, 769.7764
1079.488, 766.3550
1079.970, 767.2644
1080.452, 782.9522
1080.934, 795.9531
1081.416, 798.5546
1081.898, 794.2888
1082.380, 792.3516
1082.863, 792.8046
1083.345, 798.1788
1083.827, 812.0350
1084.309, 820.9212
1084.791, 805.4658
1085.273, 784.4886
1085.755, 780.5213
1086.237, 799.9558
1086.720, 801.3057
1087.202, 780.6741
1087.684, 759.9114
1088.166, 751.6459
1088.648, 750.7366
1089.130, 750.2542
1089.612, 749.9553
1090.094, 749.2173
1090.577, 746.3442
1091.059, 745.4164
1091.541, 747.8267
1092.023, 750.7769
1092.505, 751.1222
1092.987, 749.3454
1093.469, 747.1393
1093.951, 744.6500
1094.433, 742.3627
1094.916, 738.7410
1095.398, 737.3165
1095.880, 740.2717
1096.362, 746.6064
1096.844, 754.1189
1097.326, 762.8526
1097.808, 769.9701
1098.290, 774.3069
1098.772, 778.5719
1099.255, 788.3912
1099.737, 797.6117
1100.219, 797.8300
1100.701, 785.1320
1101.183, 782.1420
1101.665, 790.8055
1102.147, 801.9308
1102.629, 811.9989
1103.112, 820.1284
1103.594, 824.4214
1104.076, 825.6390
1104.558, 825.6695
1105.040, 820.1992
1105.522, 821.1624
1106.004, 831.0417
1106.486, 844.8723
1106.969, 858.7686
1107.451, 872.3836
1107.933, 885.7906
1108.415, 898.4601
1108.897, 906.2244
1109.379, 898.3187
1109.861, 894.3142
1110.343, 906.9286
1110.825, 927.3279
1111.307, 936.6786
1111.790, 935.1396
1112.272, 935.4391
1112.754, 939.6970
1113.236, 947.3304
1113.718, 958.8467
1114.200, 972.6281
1114.682, 989.0223
1115.164, 1007.823
1115.647, 1017.774
1116.129, 1016.887
1116.611, 1016.442
1117.093, 1018.733
1117.575, 1027.191
1118.057, 1051.490
1118.539, 1083.685
1119.021, 1111.237
1119.504, 1132.066
1119.986, 1144.419
1120.468, 1144.546
1120.950, 1144.932
1121.432, 1156.671
1121.914, 1175.111
1122.396, 1186.110
1122.878, 1191.946
1123.360, 1201.749
1123.843, 1219.963
1124.325, 1242.701
1124.807, 1273.210
1125.289, 1302.907
1125.771, 1319.595
1126.253, 1325.268
1126.735, 1332.838
1127.217, 1343.427
1127.699, 1355.046
1128.182, 1367.930
1128.664, 1379.865
1129.146, 1389.099
1129.628, 1396.476
1130.110, 1407.444
1130.592, 1422.280
1131.074, 1421.551
1131.556, 1397.258
1132.039, 1370.390
1132.521, 1364.995
1133.003, 1363.716
1133.485, 1347.474
1133.967, 1313.371
1134.449, 1291.364
1134.931, 1285.069
1135.413, 1270.329
1135.896, 1232.616
1136.378, 1186.559
1136.860, 1148.649
1137.342, 1117.228
1137.824, 1089.232
1138.306, 1068.155
1138.788, 1041.729
1139.270, 1008.171
1139.752, 972.5418
1140.234, 935.0219
1140.717, 898.7951
1141.199, 870.6146
1141.681, 849.5492
1142.163, 831.0795
1142.645, 815.7462
1143.127, 800.2366
1143.609, 784.6989
1144.091, 768.3517
1144.574, 749.0048
1145.056, 728.2258
1145.538, 712.5832
1146.020, 702.4918
1146.502, 695.0952
1146.984, 694.7448
1147.466, 689.9055
1147.948, 672.9708
1148.431, 650.9719
1148.913, 640.7354
1149.395, 640.9369
1149.877, 640.8984
1150.359, 638.1954
1150.841, 637.1161
1151.323, 648.3254
1151.805, 655.0957
1152.287, 640.7309
1152.770, 609.7238
1153.252, 597.6544
1153.734, 604.5710
1154.216, 609.4534
1154.698, 602.7889
1155.180, 595.9719
1155.662, 601.6722
1156.144, 611.4055
1156.626, 614.2154
1157.109, 608.0353
1157.591, 608.6760
1158.073, 617.0441
1158.555, 624.3681
1159.037, 624.6920
1159.519, 622.2466
1160.001, 619.7953
1160.483, 618.5674
1160.966, 621.1673
1161.448, 629.1656
1161.930, 639.0466
1162.412, 652.3149
1162.894, 661.3528
1163.376, 655.7811
1163.858, 644.3766
1164.340, 639.5115
1164.823, 640.5966
1165.305, 644.1232
1165.787, 654.6602
1166.269, 657.0274
1166.751, 647.1179
1167.233, 634.4312
1167.715, 628.9990
1168.197, 629.6570
1168.679, 636.8454
1169.161, 649.7826
1169.644, 657.4853
1170.126, 655.2579
1170.608, 648.0604
1171.090, 634.6666
1171.572, 619.9695
1172.054, 614.6794
1172.536, 614.8271
1173.018, 608.7358
1173.501, 593.1158
1173.983, 581.3539
1174.465, 587.4796
1174.947, 587.2072
1175.429, 567.2780
1175.911, 537.0015
1176.393, 525.0651
1176.875, 527.8984
1177.358, 534.1764
1177.840, 543.6378
1178.322, 546.8036
1178.804, 532.9222
1179.286, 517.6529
1179.768, 512.0381
1180.250, 513.5914
1180.732, 501.4164
1181.214, 478.8477
1181.697, 465.3919
1182.179, 475.8514
1182.661, 487.5997
1183.143, 493.0608
1183.625, 492.1809
1184.107, 482.9624
1184.589, 465.3462
1185.071, 453.4855
1185.553, 447.2303
1186.036, 444.2369
1186.518, 444.3557
1187.000, 446.0721
1187.482, 449.0642
1187.964, 452.9397
1188.446, 458.0364
1188.928, 464.6198
1189.410, 466.9070
1189.893, 464.5946
1190.375, 457.6622
1190.857, 439.4249
1191.339, 423.3029
1191.821, 420.1526
1192.303, 425.1854
1192.785, 427.2237
1193.267, 425.9320
1193.750, 427.9612
1194.232, 434.5225
1194.714, 439.5258
1195.196, 435.4576
1195.678, 429.9212
1196.160, 429.6677
1196.642, 433.2593
1197.124, 433.3670
1197.606, 429.6735
1198.089, 426.8871
1198.571, 426.2362
1199.053, 425.5756
1199.535, 420.4232
1200.017, 416.2314
1200.499, 419.8989
1200.981, 430.5700
1201.463, 435.5380
1201.945, 434.5827
1202.427, 428.6848
1202.910, 415.7506
1203.392, 404.9857
1203.874, 407.5174
1204.356, 415.7516
1204.838, 421.9002
1205.320, 425.3871
1205.802, 429.2264
1206.284, 433.8114
1206.767, 433.7210
1207.249, 423.4189
1207.731, 413.5968
1208.213, 416.9166
1208.695, 426.6200
1209.177, 434.3070
1209.659, 439.3340
1210.141, 442.7520
1210.624, 444.6530
1211.106, 443.7282
1211.588, 438.0517
1212.070, 430.6529
1212.552, 423.4033
1213.034, 416.9575
1213.516, 411.9945
1213.998, 407.8195
1214.480, 408.0460
1214.963, 413.1179
1215.445, 418.5687
1215.927, 422.5242
1216.409, 424.3402
1216.891, 421.5086
1217.373, 416.5858
1217.855, 415.1798
1218.337, 419.2289
1218.819, 419.5970
1219.302, 415.5543
1219.784, 411.3511
1220.266, 409.8638
1220.748, 410.2396
1221.230, 412.1537
1221.712, 415.3272
1222.194, 419.5825
1222.676, 426.1940
1223.159, 426.2998
1223.641, 418.1944
1224.123, 411.9149
1224.605, 417.3599
1225.087, 427.4520
1225.569, 441.8662
1226.051, 455.0857
1226.533, 447.1534
1227.016, 411.5080
1227.498, 394.2673
1227.980, 403.3055
1228.462, 416.5774
1228.944, 414.0649
1229.426, 406.8199
1229.908, 404.2423
1230.390, 405.6944
1230.872, 404.4236
1231.354, 399.6375
1231.837, 400.8322
1232.319, 410.6120
1232.801, 420.5963
1233.283, 426.4435
1233.765, 426.4438
1234.247, 412.0806
1234.729, 389.3387
1235.211, 391.1142
1235.694, 418.9170
1236.176, 435.5045
1236.658, 430.4304
1237.140, 420.5155
1237.622, 417.9489
1238.104, 418.6557
1238.586, 419.9687
1239.068, 421.5106
1239.551, 422.1805
1240.033, 421.9911
1240.515, 421.0653
1240.997, 419.2929
1241.479, 417.3885
1241.961, 413.6766
1242.443, 412.2282
1242.925, 418.2499
1243.407, 429.5975
1243.890, 429.4206
1244.372, 419.0401
1244.854, 414.5338
1245.336, 424.3522
1245.818, 431.8347
1246.300, 422.5528
1246.782, 410.0519
1247.264, 404.3394
1247.746, 404.4612
1248.229, 404.4009
1248.711, 403.9860
1249.193, 401.1875
1249.675, 391.1087
1250.157, 388.5138
1250.639, 413.4545
1251.121, 435.9435
1251.603, 434.4095
1252.086, 413.9041
1252.568, 403.6588
1253.050, 402.1606
1253.532, 402.7193
1254.014, 403.5273
1254.496, 404.5873
1254.978, 406.0805
1255.460, 407.6101
1255.943, 409.2411
1256.425, 410.6119
1256.907, 409.3636
1257.389, 406.5365
1257.871, 405.8350
1258.353, 411.4644
1258.835, 414.2776
1259.317, 411.7462
1259.799, 407.8641
1260.281, 405.5067
1260.764, 403.9854
1261.246, 399.6078
1261.728, 394.4217
1262.210, 394.2886
1262.692, 408.0960
1263.174, 415.8532
1263.656, 415.8772
1264.138, 411.2571
1264.621, 400.8125
1265.103, 389.1971
1265.585, 386.8985
1266.067, 390.7973
1266.549, 392.7241
1267.031, 382.3950
1267.513, 388.5010
1267.995, 417.2297
1268.478, 441.0953
1268.960, 428.9106
1269.442, 406.7360
1269.924, 415.2069
1270.406, 440.7889
1270.888, 447.6529
1271.370, 423.3225
1271.852, 412.7141
1272.334, 418.9418
1272.817, 426.5447
1273.299, 423.9492
1273.781, 416.9562
1274.263, 407.7027
1274.745, 399.1790
1275.227, 397.2582
1275.709, 403.0521
1276.191, 409.3848
1276.673, 416.0942
1277.156, 419.8210
1277.638, 414.9754
1278.120, 409.7925
1278.602, 409.6017
1279.084, 412.7056
1279.566, 416.6842
1280.048, 421.5655
1280.530, 427.1838
1281.013, 433.2398
1281.495, 434.1757
1281.977, 419.1673
1282.459, 407.3207
1282.941, 408.2541
1283.423, 415.4840
1283.905, 424.5868
1284.387, 433.9193
1284.870, 430.8691
1285.352, 416.6939
1285.834, 405.6234
1286.316, 407.2398
1286.798, 408.7667
1287.280, 405.8164
1287.762, 403.8909
1288.244, 412.7856
1288.726, 426.4608
1289.208, 430.0195
1289.691, 424.0844
1290.173, 416.3627
1290.655, 403.7972
1291.137, 399.7087
1291.619, 407.7726
1292.101, 417.6079
1292.583, 416.9186
1293.065, 411.9545
1293.548, 412.5919
1294.030, 417.3234
1294.512, 417.7501
1294.994, 411.4486
1295.476, 406.5297
1295.958, 403.8743
##END=



