##NAMES=Orthoclase
##RRUFFID=R060077
##IDEAL CHEMISTRY=KAlSi_3_O_8_
##LOCALITY=pegmatite near Minh Tien, 15 km south of Luc Yen, Vietnam
##OWNER=RRUFF
##SOURCE=Marcus Origlieri
##DESCRIPTION=Green fragment. Crystal structure determined to demonstrate that it is orthoclase
##STATUS=The identification of this mineral has been confirmed by X-ray diffraction and chemical analysis
##URL=rruff.info/R060077
##MEASURED CHEMISTRY=(K_0.88_Na_0.12_)AlSi_3_O_8_
93.74609, 112.4518
94.22821, 107.1926
94.71033, 109.8510
95.19244, 119.1041
95.67456, 130.1829
96.15668, 141.2011
96.63879, 152.6381
97.12091, 165.9754
97.60303, 181.1819
98.08514, 198.7048
98.56726, 219.4261
99.04938, 243.4853
99.53149, 268.7260
100.0136, 294.0598
100.4957, 319.3690
100.9778, 345.2809
101.4600, 371.5679
101.9421, 398.4859
102.4242, 426.0581
102.9063, 454.7239
103.3884, 483.4159
103.8705, 511.4789
104.3527, 539.7894
104.8348, 565.6260
105.3169, 588.4064
105.7990, 608.4437
106.2811, 629.5134
106.7632, 651.3522
107.2454, 674.3135
107.7275, 698.2073
108.2096, 722.2158
108.6917, 748.7975
109.1738, 778.6848
109.6559, 812.4140
110.1381, 846.9203
110.6202, 881.8436
111.1023, 917.9701
111.5844, 956.0935
112.0665, 997.6170
112.5486, 1040.298
113.0308, 1083.903
113.5129, 1128.981
113.9950, 1174.462
114.4771, 1221.043
114.9592, 1267.612
115.4413, 1313.250
115.9235, 1355.071
116.4056, 1397.663
116.8877, 1442.970
117.3698, 1493.816
117.8519, 1543.393
118.3340, 1590.709
118.8162, 1635.196
119.2983, 1675.326
119.7804, 1708.548
120.2625, 1738.715
120.7446, 1768.858
121.2267, 1801.961
121.7089, 1832.404
122.1910, 1856.304
122.6731, 1874.323
123.1552, 1889.559
123.6373, 1904.310
124.1194, 1917.218
124.6016, 1926.604
125.0837, 1928.830
125.5658, 1929.395
126.0479, 1933.463
126.5300, 1940.992
127.0121, 1950.986
127.4943, 1963.026
127.9764, 1976.880
128.4585, 1992.350
128.9406, 2007.820
129.4227, 2025.061
129.9048, 2047.219
130.3869, 2074.376
130.8691, 2105.773
131.3512, 2140.145
131.8333, 2170.626
132.3154, 2194.595
132.7975, 2220.767
133.2796, 2252.191
133.7618, 2289.007
134.2439, 2331.850
134.7260, 2378.837
135.2081, 2426.252
135.6902, 2474.284
136.1723, 2524.901
136.6545, 2579.715
137.1366, 2638.524
137.6187, 2699.602
138.1008, 2765.238
138.5829, 2831.181
139.0650, 2889.364
139.5472, 2939.854
140.0293, 2983.258
140.5114, 3019.787
140.9935, 3048.960
141.4756, 3074.127
141.9577, 3095.519
142.4399, 3113.420
142.9220, 3128.694
143.4041, 3140.941
143.8862, 3151.370
144.3683, 3160.687
144.8504, 3167.813
145.3326, 3176.021
145.8147, 3184.612
146.2968, 3193.929
146.7789, 3208.678
147.2610, 3229.557
147.7431, 3255.359
148.2253, 3285.630
148.7074, 3321.783
149.1895, 3360.260
149.6716, 3398.642
150.1537, 3435.976
150.6358, 3481.384
151.1180, 3537.083
151.6001, 3599.597
152.0822, 3664.481
152.5643, 3734.179
153.0464, 3803.683
153.5285, 3871.541
154.0107, 3936.420
154.4928, 4001.730
154.9749, 4073.360
155.4570, 4144.330
155.9391, 4205.963
156.4212, 4259.653
156.9034, 4302.757
157.3855, 4334.808
157.8676, 4355.568
158.3497, 4365.455
158.8318, 4364.788
159.3139, 4353.631
159.7961, 4332.112
160.2782, 4302.534
160.7603, 4261.237
161.2424, 4205.671
161.7245, 4132.540
162.2066, 4052.070
162.6888, 3965.963
163.1709, 3874.856
163.6530, 3780.175
164.1351, 3678.480
164.6172, 3575.668
165.0993, 3475.091
165.5815, 3375.558
166.0636, 3281.035
166.5457, 3192.254
167.0278, 3109.068
167.5099, 3031.209
167.9921, 2958.577
168.4742, 2891.112
168.9563, 2828.630
169.4384, 2769.956
169.9205, 2717.470
170.4026, 2674.091
170.8848, 2638.625
171.3669, 2606.947
171.8490, 2576.416
172.3311, 2548.378
172.8132, 2524.750
173.2953, 2508.775
173.7775, 2494.622
174.2596, 2478.506
174.7417, 2460.177
175.2238, 2437.767
175.7059, 2409.083
176.1880, 2375.770
176.6702, 2340.676
177.1523, 2305.787
177.6344, 2268.660
178.1165, 2225.097
178.5986, 2174.961
179.0807, 2123.677
179.5629, 2073.755
180.0450, 2025.289
180.5271, 1979.449
181.0092, 1936.782
181.4913, 1896.219
181.9734, 1856.074
182.4556, 1816.265
182.9377, 1778.692
183.4198, 1744.254
183.9019, 1712.957
184.3840, 1685.612
184.8661, 1662.847
185.3483, 1644.001
185.8304, 1627.024
186.3125, 1611.986
186.7946, 1598.984
187.2767, 1588.333
187.7588, 1579.853
188.2409, 1573.080
188.7231, 1567.694
189.2052, 1563.836
189.6873, 1561.420
190.1694, 1560.155
190.6515, 1561.714
191.1336, 1569.208
191.6158, 1582.315
192.0979, 1596.313
192.5800, 1608.787
193.0621, 1620.259
193.5442, 1634.854
194.0263, 1653.278
194.5085, 1673.174
194.9906, 1692.693
195.4727, 1711.906
195.9548, 1726.228
196.4369, 1732.828
196.9190, 1731.979
197.4012, 1728.988
197.8833, 1724.867
198.3654, 1716.320
198.8475, 1697.830
199.3296, 1668.932
199.8117, 1634.683
200.2939, 1595.860
200.7760, 1552.570
201.2581, 1509.500
201.7402, 1466.337
202.2223, 1424.455
202.7044, 1385.996
203.1866, 1351.375
203.6687, 1319.827
204.1508, 1291.488
204.6329, 1266.535
205.1150, 1242.680
205.5971, 1219.501
206.0793, 1197.911
206.5614, 1179.965
207.0435, 1166.393
207.5256, 1154.256
208.0077, 1142.242
208.4898, 1130.170
208.9720, 1119.305
209.4541, 1109.608
209.9362, 1101.143
210.4183, 1094.085
210.9004, 1088.564
211.3825, 1084.162
211.8647, 1080.816
212.3468, 1078.712
212.8289, 1076.866
213.3110, 1075.608
213.7931, 1074.333
214.2752, 1071.536
214.7574, 1066.615
215.2395, 1061.572
215.7216, 1057.125
216.2037, 1053.238
216.6858, 1050.308
217.1679, 1048.556
217.6501, 1047.644
218.1322, 1046.778
218.6143, 1045.819
219.0964, 1045.200
219.5785, 1045.327
220.0606, 1046.762
220.5428, 1047.112
221.0249, 1045.993
221.5070, 1043.958
221.9891, 1042.381
222.4712, 1041.505
222.9533, 1040.586
223.4355, 1039.201
223.9176, 1036.878
224.3997, 1035.369
224.8818, 1034.785
225.3639, 1034.949
225.8460, 1035.458
226.3282, 1036.296
226.8103, 1037.516
227.2924, 1039.331
227.7745, 1042.528
228.2566, 1044.168
228.7387, 1043.478
229.2209, 1041.568
229.7030, 1041.078
230.1851, 1042.660
230.6672, 1044.623
231.1493, 1046.310
231.6314, 1047.631
232.1136, 1048.866
232.5957, 1049.588
233.0778, 1050.417
233.5599, 1052.852
234.0420, 1057.960
234.5241, 1062.928
235.0063, 1066.407
235.4884, 1067.346
235.9705, 1069.697
236.4526, 1073.724
236.9347, 1079.051
237.4168, 1085.087
237.8990, 1092.468
238.3811, 1099.481
238.8632, 1105.183
239.3453, 1108.698
239.8274, 1113.611
240.3095, 1120.381
240.7917, 1128.335
241.2738, 1136.179
241.7559, 1143.518
242.2380, 1151.387
242.7201, 1160.076
243.2022, 1169.663
243.6844, 1179.969
244.1665, 1191.082
244.6486, 1202.950
245.1307, 1215.556
245.6128, 1229.285
246.0949, 1243.117
246.5771, 1256.612
247.0592, 1269.470
247.5413, 1283.104
248.0234, 1296.807
248.5055, 1311.671
248.9876, 1329.327
249.4697, 1351.292
249.9519, 1373.450
250.4340, 1394.601
250.9161, 1414.547
251.3982, 1434.471
251.8803, 1453.661
252.3624, 1473.291
252.8446, 1494.402
253.3267, 1516.638
253.8088, 1541.410
254.2909, 1569.859
254.7730, 1602.820
255.2551, 1633.717
255.7373, 1661.146
256.2194, 1687.947
256.7015, 1717.012
257.1836, 1748.997
257.6657, 1782.092
258.1479, 1815.834
258.6300, 1849.825
259.1121, 1885.821
259.5942, 1924.714
260.0763, 1964.555
260.5584, 2004.350
261.0406, 2043.209
261.5227, 2083.260
262.0048, 2125.601
262.4869, 2169.810
262.9690, 2212.821
263.4511, 2254.314
263.9333, 2294.674
264.4154, 2333.784
264.8975, 2371.358
265.3796, 2409.724
265.8617, 2449.884
266.3438, 2491.400
266.8260, 2533.375
267.3081, 2575.612
267.7902, 2618.307
268.2723, 2660.465
268.7544, 2702.616
269.2365, 2744.558
269.7187, 2785.448
270.2008, 2826.274
270.6829, 2870.914
271.1650, 2920.359
271.6471, 2971.134
272.1292, 3018.653
272.6114, 3061.648
273.0935, 3108.841
273.5756, 3161.849
274.0577, 3218.946
274.5398, 3275.463
275.0219, 3330.727
275.5041, 3386.257
275.9862, 3444.104
276.4683, 3504.979
276.9504, 3561.913
277.4325, 3615.106
277.9146, 3663.201
278.3968, 3702.801
278.8788, 3733.611
279.3610, 3757.244
279.8431, 3775.507
280.3252, 3788.551
280.8073, 3790.727
281.2894, 3782.195
281.7715, 3762.253
282.2537, 3728.889
282.7358, 3681.874
283.2179, 3624.466
283.7000, 3556.741
284.1821, 3478.597
284.6642, 3395.884
285.1464, 3307.979
285.6285, 3216.062
286.1106, 3120.832
286.5927, 3022.203
287.0748, 2923.540
287.5569, 2826.034
288.0391, 2729.208
288.5212, 2632.994
289.0033, 2536.454
289.4854, 2442.289
289.9675, 2354.175
290.4496, 2271.524
290.9318, 2192.027
291.4139, 2113.295
291.8960, 2036.323
292.3781, 1966.328
292.8602, 1902.939
293.3423, 1844.499
293.8245, 1788.949
294.3066, 1736.285
294.7887, 1686.295
295.2708, 1639.538
295.7529, 1595.563
296.2350, 1553.777
296.7172, 1514.364
297.1993, 1477.393
297.6814, 1442.700
298.1635, 1410.093
298.6456, 1379.690
299.1277, 1351.289
299.6099, 1324.761
300.0920, 1301.141
300.5741, 1279.935
301.0562, 1259.953
301.5383, 1239.916
302.0204, 1220.312
302.5026, 1202.423
302.9847, 1186.502
303.4668, 1171.948
303.9489, 1157.439
304.4310, 1143.523
304.9131, 1131.165
305.3953, 1122.601
305.8774, 1115.451
306.3595, 1106.394
306.8416, 1094.463
307.3237, 1082.677
307.8058, 1074.319
308.2880, 1068.241
308.7701, 1061.901
309.2522, 1052.789
309.7343, 1043.488
310.2164, 1036.797
310.6985, 1033.146
311.1807, 1029.603
311.6628, 1023.805
312.1449, 1016.855
312.6270, 1010.611
313.1091, 1005.708
313.5912, 1001.802
314.0734, 998.9567
314.5555, 997.1775
315.0376, 995.3776
315.5197, 992.9238
316.0018, 990.1677
316.4839, 987.5358
316.9661, 984.8397
317.4482, 982.5401
317.9303, 980.9716
318.4124, 980.0368
318.8945, 979.1336
319.3766, 977.9333
319.8588, 976.7149
320.3409, 975.6771
320.8230, 974.6609
321.3051, 974.0551
321.7872, 974.2839
322.2693, 975.0564
322.7515, 975.4883
323.2336, 975.3339
323.7157, 974.8192
324.1978, 974.0068
324.6799, 972.7177
325.1620, 971.5327
325.6442, 970.4584
326.1263, 969.5526
326.6084, 968.9146
327.0905, 968.4766
327.5726, 968.3866
328.0547, 968.7900
328.5369, 969.9117
329.0190, 970.8110
329.5011, 971.5160
329.9832, 971.9860
330.4653, 972.1549
330.9474, 971.6547
331.4296, 971.3305
331.9117, 971.4062
332.3938, 971.9139
332.8759, 972.3354
333.3580, 972.7362
333.8401, 973.0104
334.3223, 973.0664
334.8044, 972.8640
335.2865, 972.5019
335.7686, 971.8682
336.2507, 971.0482
336.7328, 970.5245
337.2150, 970.1453
337.6971, 970.2759
338.1792, 971.4719
338.6613, 974.3412
339.1434, 975.6182
339.6255, 974.6674
340.1077, 972.3649
340.5898, 970.6289
341.0719, 969.5734
341.5540, 968.7341
342.0361, 967.9346
342.5182, 967.1766
343.0004, 966.5516
343.4825, 966.1022
343.9646, 965.7505
344.4467, 965.4361
344.9288, 965.1762
345.4109, 964.8312
345.8931, 964.3083
346.3752, 963.6711
346.8573, 963.1039
347.3394, 962.5717
347.8215, 962.3434
348.3036, 962.9244
348.7858, 964.1148
349.2679, 964.9086
349.7500, 964.7463
350.2321, 964.3436
350.7142, 965.2373
351.1964, 967.2902
351.6785, 969.2822
352.1606, 970.1423
352.6427, 970.3201
353.1248, 970.6407
353.6069, 971.1700
354.0891, 972.0901
354.5712, 974.0598
355.0533, 976.6699
355.5354, 978.7714
356.0175, 979.2822
356.4996, 979.1927
356.9818, 979.5002
357.4639, 980.2997
357.9460, 981.4225
358.4281, 983.3664
358.9102, 985.4352
359.3923, 986.5794
359.8745, 984.8658
360.3566, 983.3020
360.8387, 984.1171
361.3208, 987.1482
361.8029, 989.9534
362.2850, 991.6036
362.7672, 992.4427
363.2493, 992.7313
363.7314, 992.0560
364.2135, 991.4095
364.6956, 991.2394
365.1777, 991.3670
365.6599, 991.2411
366.1420, 990.7979
366.6241, 990.0177
367.1062, 988.8756
367.5883, 987.2709
368.0704, 985.5137
368.5526, 983.3887
369.0347, 981.1806
369.5168, 979.2961
369.9989, 978.6284
370.4810, 977.3405
370.9631, 974.8649
371.4453, 971.0276
371.9274, 967.2186
372.4095, 963.0432
372.8916, 959.2596
373.3737, 956.6031
373.8558, 955.8354
374.3380, 954.6448
374.8201, 952.6215
375.3022, 949.9077
375.7843, 947.3220
376.2664, 944.8062
376.7485, 942.5175
377.2307, 940.6201
377.7128, 939.1923
378.1949, 937.7194
378.6770, 936.2372
379.1591, 934.6746
379.6412, 932.9494
380.1234, 931.0639
380.6055, 928.9522
381.0876, 925.9833
381.5697, 922.5458
382.0518, 921.5224
382.5339, 923.1702
383.0161, 925.8077
383.4982, 927.8967
383.9803, 929.4498
384.4624, 930.3815
384.9445, 930.2842
385.4266, 929.8829
385.9088, 930.4430
386.3909, 931.9124
386.8730, 933.8495
387.3551, 936.1631
387.8372, 938.6830
388.3193, 941.0516
388.8015, 943.0644
389.2836, 945.3425
389.7657, 948.5162
390.2478, 952.4254
390.7299, 956.6209
391.2120, 961.6036
391.6942, 966.3391
392.1763, 969.5793
392.6584, 971.1357
393.1405, 973.0950
393.6226, 976.2197
394.1047, 980.4690
394.5869, 985.7634
395.0690, 994.1360
395.5511, 1001.524
396.0332, 1005.597
396.5153, 1007.050
396.9974, 1009.629
397.4796, 1013.871
397.9617, 1019.816
398.4438, 1027.706
398.9259, 1039.247
399.4080, 1049.747
399.8901, 1058.439
400.3723, 1065.915
400.8544, 1073.173
401.3365, 1080.501
401.8186, 1087.359
402.3007, 1093.467
402.7828, 1098.710
403.2649, 1104.363
403.7470, 1111.103
404.2292, 1117.538
404.7113, 1122.432
405.1934, 1125.806
405.6755, 1127.697
406.1576, 1128.255
406.6397, 1127.265
407.1219, 1123.797
407.6040, 1117.620
408.0861, 1109.799
408.5682, 1100.867
409.0503, 1090.959
409.5324, 1079.149
410.0146, 1064.980
410.4967, 1050.089
410.9788, 1036.587
411.4609, 1024.522
411.9430, 1013.220
412.4251, 1002.505
412.9073, 992.4376
413.3894, 982.5876
413.8715, 972.9296
414.3536, 963.8737
414.8357, 955.3264
415.3178, 947.5522
415.8000, 941.2604
416.2821, 936.8435
416.7642, 933.3349
417.2463, 930.0685
417.7284, 926.9747
418.2105, 923.9603
418.6927, 920.6791
419.1748, 917.6315
419.6569, 915.1819
420.1390, 913.3773
420.6211, 911.9542
421.1032, 910.7820
421.5854, 909.8983
422.0675, 909.3378
422.5496, 908.8238
423.0317, 908.9311
423.5138, 909.7294
423.9959, 911.2447
424.4781, 913.6702
424.9602, 917.7396
425.4423, 922.1199
425.9244, 926.2560
426.4065, 930.3220
426.8886, 933.6298
427.3708, 934.9936
427.8529, 936.1080
428.3350, 939.7424
428.8171, 947.0085
429.2992, 954.7408
429.7813, 962.0720
430.2635, 969.0002
430.7456, 976.7337
431.2277, 985.2307
431.7098, 994.5316
432.1919, 1004.973
432.6740, 1016.690
433.1562, 1027.683
433.6383, 1037.218
434.1204, 1046.634
434.6025, 1058.807
435.0846, 1073.692
435.5667, 1089.403
436.0489, 1105.065
436.5310, 1120.950
437.0131, 1137.656
437.4952, 1155.246
437.9773, 1173.923
438.4594, 1194.048
438.9416, 1215.408
439.4237, 1237.541
439.9058, 1260.359
440.3879, 1283.887
440.8700, 1308.541
441.3521, 1334.217
441.8343, 1360.525
442.3164, 1385.993
442.7985, 1412.824
443.2806, 1443.182
443.7627, 1477.615
444.2448, 1513.176
444.7270, 1548.423
445.2091, 1583.844
445.6912, 1619.842
446.1733, 1656.124
446.6554, 1693.496
447.1375, 1732.784
447.6197, 1773.791
448.1018, 1812.752
448.5839, 1846.041
449.0660, 1879.807
449.5481, 1917.066
450.0302, 1963.039
450.5124, 2002.305
450.9945, 2033.347
451.4766, 2058.412
451.9587, 2080.786
452.4408, 2100.849
452.9229, 2117.532
453.4051, 2130.987
453.8872, 2141.064
454.3693, 2147.167
454.8514, 2149.142
455.3335, 2147.860
455.8156, 2143.726
456.2978, 2136.807
456.7799, 2127.570
457.2620, 2115.611
457.7441, 2102.240
458.2262, 2088.595
458.7083, 2074.919
459.1905, 2061.787
459.6726, 2048.823
460.1547, 2036.975
460.6368, 2027.164
461.1189, 2019.362
461.6010, 2014.671
462.0832, 2014.590
462.5653, 2017.729
463.0474, 2022.302
463.5295, 2026.778
464.0116, 2034.710
464.4937, 2047.646
464.9759, 2065.404
465.4580, 2087.312
465.9401, 2112.830
466.4222, 2142.813
466.9043, 2177.115
467.3864, 2215.551
467.8686, 2259.903
468.3507, 2314.184
468.8328, 2372.122
469.3149, 2428.974
469.7970, 2481.271
470.2791, 2538.231
470.7613, 2602.515
471.2434, 2670.933
471.7255, 2735.464
472.2076, 2796.939
472.6897, 2852.520
473.1718, 2903.050
473.6540, 2948.270
474.1361, 2983.811
474.6182, 3010.548
475.1003, 3024.527
475.5824, 3020.708
476.0645, 2999.719
476.5467, 2967.602
477.0288, 2924.863
477.5109, 2872.637
477.9930, 2810.621
478.4751, 2739.901
478.9572, 2665.607
479.4394, 2587.108
479.9215, 2507.997
480.4036, 2433.132
480.8857, 2362.367
481.3678, 2296.568
481.8499, 2235.777
482.3321, 2180.220
482.8142, 2130.892
483.2963, 2088.086
483.7784, 2050.576
484.2605, 2019.543
484.7426, 1993.709
485.2248, 1970.205
485.7069, 1948.815
486.1890, 1929.565
486.6711, 1912.276
487.1532, 1896.732
487.6353, 1884.634
488.1175, 1877.332
488.5996, 1872.598
489.0817, 1868.582
489.5638, 1864.393
490.0459, 1863.080
490.5280, 1864.524
491.0102, 1869.246
491.4923, 1878.959
491.9744, 1894.177
492.4565, 1912.174
492.9386, 1931.159
493.4207, 1951.905
493.9029, 1978.533
494.3850, 2011.247
494.8671, 2049.888
495.3492, 2094.516
495.8313, 2145.317
496.3134, 2203.243
496.7956, 2268.260
497.2777, 2340.640
497.7598, 2419.712
498.2419, 2506.023
498.7240, 2598.574
499.2061, 2698.137
499.6883, 2804.217
500.1704, 2916.013
500.6525, 3033.605
501.1346, 3159.382
501.6167, 3295.183
502.0988, 3440.380
502.5810, 3594.031
503.0631, 3754.760
503.5452, 3929.258
504.0273, 4115.011
504.5094, 4315.559
504.9915, 4531.927
505.4737, 4764.506
505.9558, 5011.673
506.4379, 5271.334
506.9200, 5543.577
507.4021, 5830.638
507.8842, 6139.056
508.3664, 6455.375
508.8485, 6777.444
509.3306, 7105.472
509.8127, 7429.662
510.2948, 7752.060
510.7769, 8060.009
511.2591, 8339.339
511.7412, 8587.781
512.2233, 8787.027
512.7054, 8942.810
513.1875, 9038.728
513.6696, 9053.266
514.1517, 8987.149
514.6339, 8843.732
515.1160, 8608.778
515.5981, 8307.396
516.0802, 7951.249
516.5623, 7534.786
517.0444, 7104.617
517.5266, 6667.787
518.0087, 6234.581
518.4908, 5816.200
518.9729, 5402.881
519.4550, 5016.718
519.9371, 4666.544
520.4193, 4348.798
520.9014, 4058.124
521.3835, 3794.923
521.8656, 3555.614
522.3477, 3340.446
522.8298, 3150.630
523.3120, 2973.472
523.7941, 2811.627
524.2762, 2664.046
524.7583, 2532.082
525.2404, 2415.426
525.7225, 2310.386
526.2047, 2216.791
526.6868, 2132.025
527.1689, 2050.718
527.6510, 1973.782
528.1331, 1904.980
528.6152, 1848.530
529.0974, 1799.678
529.5795, 1750.470
530.0616, 1700.973
530.5437, 1655.195
531.0258, 1616.736
531.5079, 1582.357
531.9901, 1547.789
532.4722, 1511.176
532.9543, 1477.272
533.4364, 1448.005
533.9185, 1422.311
534.4006, 1398.170
534.8828, 1376.044
535.3649, 1354.744
535.8470, 1334.473
536.3291, 1314.961
536.8112, 1296.184
537.2933, 1277.818
537.7755, 1260.717
538.2576, 1245.741
538.7397, 1233.050
539.2218, 1220.072
539.7039, 1206.980
540.1860, 1193.547
540.6682, 1179.053
541.1503, 1163.805
541.6324, 1150.709
542.1145, 1140.890
542.5966, 1132.690
543.0787, 1123.958
543.5609, 1114.724
544.0430, 1105.077
544.5251, 1093.704
545.0072, 1082.794
545.4893, 1075.561
545.9714, 1071.739
546.4536, 1067.097
546.9357, 1057.916
547.4178, 1047.937
547.8999, 1040.103
548.3820, 1035.814
548.8641, 1031.543
549.3463, 1026.442
549.8284, 1021.018
550.3105, 1015.930
550.7926, 1011.320
551.2747, 1006.819
551.7568, 1002.067
552.2390, 997.3402
552.7211, 994.0184
553.2032, 992.7232
553.6853, 990.9311
554.1674, 986.9438
554.6495, 980.9993
555.1317, 976.8375
555.6138, 974.7186
556.0959, 973.0099
556.5780, 969.9674
557.0601, 966.1338
557.5422, 963.0284
558.0244, 961.0997
558.5065, 959.5677
558.9886, 957.3997
559.4707, 955.0696
559.9528, 953.5754
560.4349, 954.3672
560.9171, 955.1365
561.3992, 954.3047
561.8813, 952.1252
562.3634, 950.5871
562.8455, 950.9531
563.3276, 951.4346
563.8098, 950.8232
564.2919, 948.1360
564.7740, 947.7322
565.2561, 950.9930
565.7382, 955.1409
566.2203, 957.4905
566.7025, 957.5912
567.1846, 957.7383
567.6667, 958.2787
568.1488, 958.9509
568.6309, 958.9402
569.1130, 958.3091
569.5952, 958.3837
570.0773, 960.3378
570.5594, 963.0917
571.0415, 964.2215
571.5236, 963.9745
572.0057, 964.4800
572.4879, 968.0580
572.9700, 972.6891
573.4521, 976.2936
573.9342, 978.5090
574.4163, 980.3531
574.8984, 981.5580
575.3806, 982.9575
575.8627, 985.4182
576.3448, 990.3826
576.8269, 994.8317
577.3090, 998.5519
577.7911, 1001.515
578.2733, 1003.643
578.7554, 1004.470
579.2375, 1005.343
579.7196, 1006.968
580.2017, 1009.112
580.6838, 1009.477
581.1660, 1007.952
581.6481, 1005.355
582.1302, 1001.918
582.6123, 997.8414
583.0944, 994.2277
583.5765, 991.2617
584.0587, 987.8624
584.5408, 982.5467
585.0229, 976.1823
585.5050, 970.2203
585.9871, 965.0220
586.4692, 960.4475
586.9514, 956.6442
587.4335, 953.3305
587.9156, 950.0026
588.3977, 946.7838
588.8798, 943.2405
589.3619, 938.7841
589.8441, 933.4423
590.3262, 929.4265
590.8083, 927.2214
591.2904, 925.7436
591.7725, 924.4670
592.2546, 923.3240
592.7368, 923.0081
593.2189, 923.9552
593.7010, 924.5887
594.1831, 922.5607
594.6652, 918.3129
595.1473, 914.9893
595.6295, 913.2188
596.1116, 912.5245
596.5937, 912.8541
597.0758, 913.7939
597.5579, 914.2471
598.0400, 913.4965
598.5222, 912.2391
599.0043, 910.6850
599.4864, 908.9523
599.9685, 907.5902
600.4506, 907.0368
600.9327, 906.7141
601.4149, 906.2584
601.8970, 905.4835
602.3791, 905.3616
602.8612, 906.4879
603.3433, 907.6761
603.8254, 908.0545
604.3076, 907.5558
604.7897, 906.4874
605.2718, 904.7477
605.7539, 902.6617
606.2360, 900.6269
606.7181, 898.6608
607.2003, 897.2846
607.6824, 897.0545
608.1645, 897.0070
608.6466, 894.7988
609.1287, 891.1962
609.6108, 889.1810
610.0930, 892.0818
610.5751, 895.9481
611.0572, 897.8995
611.5393, 897.7925
612.0214, 896.9807
612.5035, 895.2111
612.9857, 893.3995
613.4678, 892.0022
613.9499, 890.8193
614.4320, 890.7529
614.9141, 892.5201
615.3962, 894.7388
615.8784, 895.7816
616.3605, 895.2372
616.8426, 895.5783
617.3247, 897.4802
617.8068, 899.9509
618.2889, 900.5745
618.7711, 899.6456
619.2532, 899.6066
619.7353, 902.2546
620.2174, 905.7816
620.6995, 907.5884
621.1816, 907.8841
621.6638, 907.6643
622.1459, 906.4421
622.6280, 905.6954
623.1101, 906.7776
623.5922, 909.9512
624.0743, 912.9293
624.5565, 915.6252
625.0386, 917.5497
625.5207, 918.2668
626.0028, 916.9031
626.4849, 916.2529
626.9670, 916.5975
627.4492, 917.3328
627.9313, 917.7247
628.4134, 917.7525
628.8955, 917.5333
629.3776, 917.0329
629.8597, 916.3742
630.3419, 915.1678
630.8240, 913.7714
631.3061, 913.9120
631.7882, 918.5051
632.2703, 923.6746
632.7524, 925.3076
633.2346, 923.7341
633.7167, 920.7796
634.1988, 916.4048
634.6809, 911.7177
635.1630, 907.3099
635.6451, 903.2548
636.1273, 899.4384
636.6094, 896.0234
637.0915, 892.7396
637.5736, 889.4700
638.0557, 886.1716
638.5378, 882.8646
639.0200, 879.3346
639.5021, 876.1373
639.9842, 874.3035
640.4663, 873.7272
640.9484, 872.6098
641.4305, 870.2726
641.9127, 867.7399
642.3948, 866.3072
642.8769, 865.8372
643.3590, 865.9276
643.8411, 866.9265
644.3232, 867.9498
644.8054, 868.2773
645.2875, 868.0490
645.7696, 868.0246
646.2517, 868.9843
646.7338, 869.6994
647.2159, 869.2787
647.6981, 867.5193
648.1802, 867.2354
648.6623, 869.3538
649.1444, 871.5350
649.6265, 872.1724
650.1086, 871.1823
650.5908, 870.1135
651.0729, 868.9766
651.5550, 867.9725
652.0371, 867.1565
652.5192, 866.6501
653.0013, 866.9628
653.4835, 868.4911
653.9656, 870.0982
654.4477, 870.6494
654.9298, 870.5875
655.4119, 870.6562
655.8940, 871.7119
656.3762, 872.3129
656.8583, 871.3990
657.3404, 869.5217
657.8225, 868.7953
658.3046, 870.7422
658.7867, 871.6600
659.2689, 869.9724
659.7510, 866.0511
660.2331, 863.8979
660.7152, 863.7320
661.1973, 864.1036
661.6794, 864.4472
662.1616, 864.6055
662.6437, 864.0121
663.1258, 862.6533
663.6079, 860.6448
664.0900, 857.4196
664.5721, 853.9288
665.0543, 851.3552
665.5364, 850.1113
666.0185, 849.1158
666.5006, 848.2402
666.9827, 847.2501
667.4648, 845.8986
667.9470, 843.4439
668.4291, 841.6461
668.9112, 841.0281
669.3933, 840.8097
669.8754, 839.4224
670.3575, 836.5146
670.8397, 834.1715
671.3218, 832.8538
671.8039, 832.4664
672.2860, 833.4982
672.7681, 835.5944
673.2502, 836.6022
673.7324, 834.4518
674.2145, 831.1956
674.6966, 828.8837
675.1787, 827.4788
675.6608, 826.7181
676.1429, 827.5029
676.6251, 828.0560
677.1072, 827.0817
677.5893, 824.0983
678.0714, 822.2269
678.5535, 822.1992
679.0356, 822.5961
679.5178, 822.6093
679.9999, 822.2014
680.4820, 821.4828
680.9641, 820.2903
681.4462, 819.3270
681.9283, 819.7938
682.4105, 821.2358
682.8926, 821.6754
683.3747, 820.5787
683.8568, 819.0870
684.3389, 817.9761
684.8210, 817.2839
685.3032, 817.0553
685.7853, 817.9360
686.2674, 818.5421
686.7495, 817.8929
687.2316, 816.6682
687.7137, 816.5048
688.1959, 818.5855
688.6780, 819.8859
689.1601, 819.3424
689.6422, 817.6237
690.1243, 817.6404
690.6064, 819.6187
691.0886, 821.4997
691.5707, 822.1320
692.0528, 822.0291
692.5349, 822.6140
693.0170, 823.8031
693.4991, 824.8270
693.9813, 824.8380
694.4634, 824.6981
694.9455, 825.2255
695.4276, 826.5070
695.9097, 827.9196
696.3918, 829.4572
696.8740, 830.9071
697.3561, 832.1216
697.8382, 832.9837
698.3203, 833.8651
698.8024, 834.4919
699.2845, 835.5358
699.7667, 838.0184
700.2488, 841.9186
700.7309, 844.4958
701.2130, 845.1716
701.6951, 845.5975
702.1772, 848.3316
702.6594, 852.3099
703.1415, 855.0566
703.6236, 855.3583
704.1057, 855.3618
704.5878, 856.2827
705.0699, 857.8583
705.5521, 859.6583
706.0342, 861.8828
706.5163, 863.9588
706.9984, 865.3620
707.4805, 866.6495
707.9626, 869.6387
708.4448, 875.2036
708.9269, 879.3700
709.4090, 880.3370
709.8911, 879.3295
710.3732, 880.1096
710.8553, 882.5057
711.3374, 884.7399
711.8195, 885.2073
712.3016, 885.3367
712.7838, 887.0680
713.2659, 890.1683
713.7480, 892.8387
714.2301, 893.5626
714.7122, 894.2067
715.1943, 895.9737
715.6765, 899.1859
716.1586, 901.7025
716.6407, 903.1734
717.1228, 904.4494
717.6049, 906.1292
718.0870, 908.2952
718.5692, 909.8889
719.0513, 910.8657
719.5334, 911.5088
720.0155, 911.4905
720.4976, 911.4388
720.9797, 913.0253
721.4619, 916.6927
721.9440, 920.5526
722.4261, 923.2081
722.9082, 925.2759
723.3903, 927.3807
723.8724, 929.5375
724.3546, 931.9238
724.8367, 934.5272
725.3188, 937.3732
725.8009, 940.6228
726.2830, 944.4947
726.7651, 947.8591
727.2473, 950.3619
727.7294, 952.7631
728.2115, 956.4964
728.6936, 961.3870
729.1757, 966.2655
729.6578, 970.4778
730.1400, 974.9827
730.6221, 981.3244
731.1042, 988.7493
731.5863, 995.5540
732.0684, 1000.219
732.5505, 1005.112
733.0327, 1010.977
733.5148, 1017.796
733.9969, 1025.172
734.4790, 1033.442
734.9611, 1041.489
735.4432, 1048.920
735.9254, 1055.899
736.4075, 1063.011
736.8896, 1070.251
737.3717, 1077.833
737.8538, 1086.034
738.3359, 1094.471
738.8181, 1102.219
739.3002, 1109.459
739.7823, 1117.368
740.2644, 1128.274
740.7465, 1138.592
741.2286, 1145.950
741.7108, 1149.974
742.1929, 1153.799
742.6750, 1157.650
743.1571, 1161.329
743.6392, 1164.741
744.1213, 1167.887
744.6035, 1171.227
745.0856, 1174.868
745.5677, 1178.131
746.0498, 1180.185
746.5319, 1181.476
747.0140, 1183.150
747.4962, 1185.353
747.9783, 1186.745
748.4604, 1185.335
748.9425, 1183.394
749.4246, 1183.114
749.9067, 1185.589
750.3889, 1187.327
750.8710, 1187.522
751.3531, 1187.151
751.8352, 1186.829
752.3173, 1186.451
752.7994, 1186.681
753.2816, 1187.786
753.7637, 1188.702
754.2458, 1187.837
754.7279, 1185.768
755.2100, 1184.145
755.6921, 1183.193
756.1743, 1183.157
756.6564, 1185.655
757.1385, 1188.628
757.6206, 1189.490
758.1027, 1185.487
758.5848, 1182.625
759.0670, 1182.399
759.5491, 1183.509
760.0312, 1184.622
760.5133, 1185.943
760.9954, 1186.656
761.4775, 1186.780
761.9597, 1186.038
762.4418, 1183.236
762.9239, 1178.974
763.4060, 1175.770
763.8881, 1174.257
764.3702, 1174.295
764.8524, 1177.096
765.3345, 1181.094
765.8166, 1183.562
766.2987, 1182.396
766.7808, 1181.066
767.2629, 1180.650
767.7451, 1180.479
768.2272, 1179.025
768.7093, 1175.738
769.1914, 1173.173
769.6735, 1172.253
770.1556, 1172.018
770.6378, 1170.284
771.1199, 1167.287
771.6020, 1164.199
772.0841, 1161.541
772.5662, 1159.022
773.0483, 1156.220
773.5305, 1153.352
774.0126, 1150.961
774.4947, 1149.684
774.9768, 1148.418
775.4589, 1147.185
775.9410, 1145.714
776.4232, 1142.713
776.9053, 1137.395
777.3874, 1133.237
777.8695, 1131.723
778.3516, 1131.918
778.8337, 1131.675
779.3159, 1130.940
779.7980, 1129.401
780.2801, 1125.500
780.7622, 1121.837
781.2443, 1120.963
781.7264, 1122.386
782.2086, 1124.008
782.6907, 1126.265
783.1728, 1127.411
783.6549, 1125.972
784.1370, 1122.733
784.6191, 1122.951
785.1013, 1127.534
785.5834, 1131.634
786.0655, 1132.364
786.5476, 1131.299
787.0297, 1132.784
787.5118, 1136.715
787.9940, 1142.147
788.4761, 1151.075
788.9582, 1159.339
789.4403, 1162.547
789.9224, 1161.381
790.4045, 1161.854
790.8867, 1166.397
791.3688, 1171.762
791.8509, 1176.709
792.3330, 1181.407
792.8151, 1187.329
793.2972, 1194.713
793.7794, 1202.086
794.2615, 1209.137
794.7436, 1215.527
795.2257, 1219.948
795.7078, 1222.741
796.1899, 1225.618
796.6721, 1230.244
797.1542, 1234.840
797.6363, 1237.731
798.1184, 1239.017
798.6005, 1241.863
799.0826, 1248.411
799.5648, 1254.150
800.0469, 1257.177
800.5290, 1257.775
801.0111, 1258.628
801.4932, 1259.677
801.9753, 1261.856
802.4575, 1266.775
802.9396, 1272.732
803.4217, 1276.646
803.9038, 1278.730
804.3859, 1280.862
804.8680, 1284.113
805.3502, 1287.564
805.8323, 1290.761
806.3144, 1293.641
806.7965, 1296.461
807.2786, 1298.934
807.7607, 1301.861
808.2429, 1306.210
808.7250, 1311.390
809.2071, 1313.500
809.6892, 1312.623
810.1713, 1310.750
810.6534, 1310.330
811.1356, 1308.906
811.6177, 1303.558
812.0998, 1294.488
812.5819, 1283.674
813.0640, 1272.000
813.5461, 1258.641
814.0283, 1242.900
814.5104, 1224.916
814.9925, 1206.589
815.4746, 1187.687
815.9567, 1168.729
816.4388, 1149.915
816.9210, 1131.054
817.4031, 1110.986
817.8852, 1089.902
818.3673, 1069.969
818.8494, 1052.894
819.3315, 1037.109
819.8137, 1021.452
820.2958, 1005.922
820.7779, 991.4822
821.2600, 978.9899
821.7421, 966.5095
822.2242, 953.1277
822.7064, 939.3519
823.1885, 929.1996
823.6706, 922.9794
824.1527, 917.4307
824.6348, 910.5117
825.1169, 903.5616
825.5991, 899.5502
826.0812, 897.7057
826.5633, 894.7478
827.0454, 887.2678
827.5275, 880.1032
828.0096, 875.4762
828.4918, 873.2856
828.9739, 871.8901
829.4560, 872.0692
829.9381, 871.2542
830.4202, 868.1727
830.9023, 863.9042
831.3845, 862.0132
831.8666, 862.1690
832.3487, 861.7434
832.8308, 858.5917
833.3129, 855.1451
833.7950, 853.8274
834.2772, 854.0518
834.7593, 854.3011
835.2414, 854.7435
835.7235, 854.3519
836.2056, 852.2316
836.6877, 849.3766
837.1699, 848.6783
837.6520, 850.4680
838.1341, 851.9172
838.6162, 852.1580
839.0983, 851.7363
839.5804, 851.6280
840.0626, 851.6196
840.5447, 851.1620
841.0268, 849.4628
841.5089, 847.9063
841.9910, 847.5702
842.4731, 847.7109
842.9553, 846.8589
843.4374, 844.3383
843.9195, 842.0961
844.4016, 840.3054
844.8837, 839.0275
845.3658, 838.5294
845.8480, 838.7244
846.3301, 839.0775
846.8122, 839.5551
847.2943, 839.9293
847.7764, 839.9813
848.2585, 839.8034
848.7407, 839.5119
849.2228, 838.9915
849.7049, 838.5764
850.1870, 838.1854
850.6691, 837.9907
851.1512, 838.2606
851.6334, 839.0608
852.1155, 839.7559
852.5976, 840.3408
853.0797, 840.4470
853.5618, 838.5177
854.0439, 836.1060
854.5261, 836.5504
855.0082, 841.3096
855.4903, 845.2330
855.9724, 845.4500
856.4545, 844.0074
856.9366, 842.5886
857.4188, 841.1462
857.9009, 840.2783
858.3830, 840.2969
858.8651, 840.1772
859.3472, 838.4760
859.8293, 835.8392
860.3115, 835.2407
860.7936, 836.8678
861.2757, 838.1466
861.7578, 836.5015
862.2399, 834.2156
862.7220, 833.1363
863.2042, 833.5763
863.6863, 834.2672
864.1684, 835.2936
864.6505, 836.1812
865.1326, 836.5748
865.6147, 836.5349
866.0969, 837.0809
866.5790, 838.2079
867.0611, 838.9518
867.5432, 838.5238
868.0253, 837.4701
868.5074, 836.1484
868.9896, 834.6871
869.4717, 833.7190
869.9538, 833.4006
870.4359, 833.7347
870.9180, 835.0137
871.4001, 836.9385
871.8823, 838.1908
872.3644, 838.8178
872.8465, 838.3491
873.3286, 835.9737
873.8107, 833.0818
874.2928, 832.4523
874.7750, 833.4088
875.2571, 834.0371
875.7392, 832.8963
876.2213, 831.9328
876.7034, 832.2045
877.1855, 833.1544
877.6677, 833.4993
878.1498, 832.8972
878.6319, 832.7277
879.1140, 833.4138
879.5961, 834.2718
880.0782, 833.7725
880.5604, 832.4641
881.0425, 832.3984
881.5246, 834.7708
882.0067, 836.6518
882.4888, 835.4296
882.9709, 832.8734
883.4531, 830.9640
883.9352, 829.6711
884.4173, 829.8265
884.8994, 832.2436
885.3815, 834.8102
885.8636, 834.8509
886.3458, 832.8702
886.8279, 832.9567
887.3100, 835.5751
887.7921, 837.6992
888.2742, 835.4397
888.7563, 832.3348
889.2385, 832.4149
889.7206, 836.7487
890.2027, 838.9651
890.6848, 836.3930
891.1669, 833.9121
891.6490, 834.3968
892.1312, 837.4869
892.6133, 837.5507
893.0954, 834.5906
893.5775, 831.9044
894.0596, 831.8538
894.5417, 833.0780
895.0239, 834.6271
895.5060, 836.2261
895.9881, 836.7527
896.4702, 834.1011
896.9523, 832.3995
897.4344, 833.2435
897.9166, 835.7666
898.3987, 836.9107
898.8808, 836.6074
899.3629, 836.4371
899.8450, 837.1827
900.3271, 837.8707
900.8093, 836.4471
901.2914, 834.0381
901.7735, 832.9475
902.2556, 835.6008
902.7377, 837.5665
903.2198, 836.6027
903.7020, 834.9233
904.1841, 835.3174
904.6662, 838.3814
905.1483, 840.2351
905.6304, 840.3569
906.1125, 839.8012
906.5947, 839.4866
907.0768, 839.4465
907.5589, 839.9753
908.0410, 841.2736
908.5231, 841.9107
909.0052, 840.5790
909.4874, 838.8282
909.9695, 837.5095
910.4516, 836.5056
910.9337, 837.3754
911.4158, 840.6168
911.8979, 843.5385
912.3801, 844.0995
912.8622, 843.1015
913.3443, 842.1174
913.8264, 841.1726
914.3085, 840.2567
914.7906, 839.0985
915.2728, 838.2521
915.7549, 838.1036
916.2370, 838.5370
916.7191, 839.1285
917.2012, 840.0471
917.6833, 840.4401
918.1655, 839.8203
918.6476, 838.8948
919.1297, 839.1387
919.6118, 840.1903
920.0939, 841.0616
920.5760, 841.3415
921.0582, 841.4172
921.5403, 841.2206
922.0224, 841.0178
922.5045, 841.1283
922.9866, 841.4655
923.4688, 842.4135
923.9509, 844.1787
924.4330, 845.9869
924.9151, 846.6561
925.3972, 846.7073
925.8793, 847.6904
926.3615, 849.8892
926.8436, 851.2818
927.3257, 849.8516
927.8078, 847.8934
928.2899, 847.1889
928.7720, 847.8783
929.2542, 847.8705
929.7363, 846.8892
930.2184, 846.2048
930.7005, 846.7339
931.1826, 847.9609
931.6647, 848.5594
932.1469, 848.6284
932.6290, 848.5795
933.1111, 848.2943
933.5932, 848.2822
934.0753, 849.1669
934.5574, 850.4745
935.0396, 850.8143
935.5217, 849.7562
936.0038, 849.2224
936.4859, 849.7960
936.9680, 850.4854
937.4501, 849.1723
937.9323, 846.8309
938.4144, 846.0707
938.8965, 848.2049
939.3786, 849.7062
939.8607, 846.8550
940.3428, 843.9146
940.8250, 845.3765
941.3071, 853.5084
941.7892, 855.6208
942.2713, 850.2970
942.7534, 844.6729
943.2355, 845.1140
943.7177, 849.0403
944.1998, 851.4743
944.6819, 852.2733
945.1640, 852.1793
945.6461, 849.7523
946.1282, 848.3205
946.6104, 849.9079
947.0925, 853.8104
947.5746, 857.7507
948.0567, 861.8383
948.5388, 865.3139
949.0209, 867.9468
949.5031, 869.8378
949.9852, 870.6864
950.4673, 870.9883
950.9494, 871.8162
951.4315, 874.1174
951.9136, 876.0080
952.3958, 876.6328
952.8779, 876.8008
953.3600, 877.0418
953.8421, 877.1962
954.3242, 879.0959
954.8063, 883.1143
955.2885, 886.6271
955.7706, 886.3370
956.2527, 884.5167
956.7348, 884.2522
957.2169, 885.7805
957.6990, 887.5071
958.1811, 889.1260
958.6632, 890.5421
959.1453, 891.4382
959.6274, 892.1084
960.1096, 894.4235
960.5917, 898.3839
961.0738, 902.1503
961.5559, 905.1254
962.0380, 907.3699
962.5201, 908.5945
963.0023, 909.2487
963.4844, 910.1796
963.9665, 910.9902
964.4486, 913.1711
964.9307, 917.7429
965.4128, 922.5999
965.8950, 925.0278
966.3771, 925.2701
966.8592, 925.7582
967.3413, 926.7303
967.8234, 927.7958
968.3055, 928.0667
968.7877, 928.6804
969.2698, 930.9619
969.7519, 935.1738
970.2340, 938.5483
970.7161, 940.5086
971.1982, 942.6149
971.6804, 945.7057
972.1625, 949.3239
972.6446, 951.9135
973.1267, 953.7193
973.6088, 955.8846
974.0909, 958.3603
974.5731, 962.0179
975.0552, 968.8279
975.5373, 976.6494
976.0194, 981.9286
976.5015, 983.6650
976.9836, 985.1302
977.4658, 986.3190
977.9479, 987.9482
978.4300, 990.9877
978.9121, 994.9963
979.3942, 999.4985
979.8763, 1004.446
980.3585, 1008.229
980.8406, 1008.298
981.3227, 1008.559
981.8048, 1011.074
982.2869, 1015.674
982.7690, 1021.103
983.2512, 1027.516
983.7333, 1033.163
984.2154, 1037.325
984.6975, 1040.270
985.1796, 1041.634
985.6617, 1042.260
986.1439, 1043.826
986.6260, 1047.590
987.1081, 1051.511
987.5902, 1055.743
988.0723, 1059.618
988.5544, 1062.052
989.0366, 1063.156
989.5187, 1064.922
990.0008, 1067.534
990.4829, 1070.677
990.9650, 1075.066
991.4471, 1079.180
991.9293, 1081.254
992.4114, 1081.123
992.8935, 1081.953
993.3756, 1084.598
993.8577, 1086.749
994.3398, 1087.281
994.8220, 1087.025
995.3041, 1088.281
995.7862, 1090.671
996.2683, 1092.930
996.7504, 1094.829
997.2325, 1096.009
997.7147, 1096.083
998.1968, 1095.408
998.6789, 1094.429
999.1610, 1093.065
999.6431, 1091.804
1000.125, 1090.729
1000.607, 1089.539
1001.089, 1087.567
1001.572, 1085.506
1002.054, 1084.657
1002.536, 1084.987
1003.018, 1085.318
1003.500, 1085.715
1003.982, 1085.378
1004.464, 1083.884
1004.946, 1081.577
1005.429, 1079.462
1005.911, 1077.521
1006.393, 1075.867
1006.875, 1074.599
1007.357, 1073.384
1007.839, 1071.748
1008.321, 1070.018
1008.803, 1068.570
1009.285, 1067.596
1009.768, 1066.734
1010.250, 1066.168
1010.732, 1065.302
1011.214, 1063.537
1011.696, 1061.120
1012.178, 1059.087
1012.660, 1057.380
1013.142, 1055.517
1013.625, 1052.228
1014.107, 1049.776
1014.589, 1049.860
1015.071, 1051.515
1015.553, 1052.863
1016.035, 1054.093
1016.517, 1053.657
1016.999, 1050.957
1017.481, 1047.812
1017.964, 1046.713
1018.446, 1046.530
1018.928, 1045.447
1019.410, 1042.899
1019.892, 1041.172
1020.374, 1041.137
1020.856, 1041.502
1021.338, 1041.797
1021.820, 1041.984
1022.303, 1041.531
1022.785, 1040.611
1023.267, 1040.582
1023.749, 1043.490
1024.231, 1045.947
1024.713, 1045.063
1025.195, 1042.391
1025.677, 1040.659
1026.160, 1040.248
1026.642, 1040.202
1027.124, 1040.600
1027.606, 1040.920
1028.088, 1040.767
1028.570, 1040.102
1029.052, 1038.270
1029.534, 1035.392
1030.016, 1033.917
1030.499, 1036.588
1030.981, 1038.882
1031.463, 1039.003
1031.945, 1037.583
1032.427, 1036.691
1032.909, 1036.303
1033.391, 1036.120
1033.873, 1036.192
1034.356, 1036.040
1034.838, 1034.832
1035.320, 1033.349
1035.802, 1032.734
1036.284, 1034.061
1036.766, 1033.348
1037.248, 1030.221
1037.730, 1026.191
1038.213, 1021.247
1038.695, 1016.539
1039.177, 1016.274
1039.659, 1019.318
1040.141, 1020.872
1040.623, 1017.615
1041.105, 1013.824
1041.587, 1010.231
1042.069, 1007.276
1042.552, 1005.808
1043.034, 1005.844
1043.516, 1005.777
1043.998, 1005.369
1044.480, 1004.930
1044.962, 1005.073
1045.444, 1005.055
1045.926, 1004.001
1046.408, 1001.760
1046.891, 999.7804
1047.373, 997.8363
1047.855, 996.9542
1048.337, 997.9132
1048.819, 999.7001
1049.301, 1000.358
1049.783, 1000.101
1050.265, 999.3865
1050.748, 998.0963
1051.230, 996.9337
1051.712, 996.2797
1052.194, 995.7448
1052.676, 995.2260
1053.158, 994.7650
1053.640, 992.5013
1054.122, 988.4481
1054.604, 985.5455
1055.087, 987.2350
1055.569, 989.6288
1056.051, 989.5638
1056.533, 987.5412
1057.015, 985.4203
1057.497, 983.0724
1057.979, 981.5267
1058.461, 981.2433
1058.943, 981.0000
1059.426, 978.8539
1059.908, 975.7239
1060.390, 973.3548
1060.872, 972.0279
1061.354, 970.8127
1061.836, 968.9167
1062.318, 967.6359
1062.800, 967.8117
1063.283, 968.9003
1063.765, 968.5790
1064.247, 966.9623
1064.729, 965.0402
1065.211, 962.3543
1065.693, 961.1390
1066.175, 964.7977
1066.657, 969.9128
1067.140, 972.2873
1067.622, 970.8734
1068.104, 970.3657
1068.586, 970.7531
1069.068, 972.1639
1069.550, 975.4561
1070.032, 979.4083
1070.514, 981.9474
1070.996, 983.4873
1071.479, 985.4594
1071.961, 989.2161
1072.443, 992.1777
1072.925, 993.8671
1073.407, 994.8676
1073.889, 995.7033
1074.371, 996.5159
1074.853, 997.7476
1075.335, 999.4317
1075.818, 1002.404
1076.300, 1008.745
1076.782, 1015.005
1077.264, 1019.304
1077.746, 1021.835
1078.228, 1022.562
1078.710, 1021.369
1079.192, 1021.329
1079.675, 1023.660
1080.157, 1026.605
1080.639, 1028.075
1081.121, 1029.198
1081.603, 1031.410
1082.085, 1035.335
1082.567, 1039.265
1083.049, 1043.435
1083.531, 1046.888
1084.014, 1048.736
1084.496, 1049.735
1084.978, 1051.571
1085.460, 1054.070
1085.942, 1056.760
1086.424, 1058.113
1086.906, 1061.720
1087.388, 1070.295
1087.870, 1079.116
1088.353, 1082.915
1088.835, 1082.180
1089.317, 1081.356
1089.799, 1080.714
1090.281, 1081.271
1090.763, 1084.463
1091.245, 1088.312
1091.727, 1091.986
1092.209, 1095.313
1092.692, 1097.751
1093.174, 1099.138
1093.656, 1101.040
1094.138, 1103.924
1094.620, 1106.465
1095.102, 1106.429
1095.584, 1105.732
1096.066, 1106.746
1096.549, 1109.908
1097.031, 1112.554
1097.513, 1114.528
1097.995, 1115.960
1098.477, 1116.934
1098.959, 1117.361
1099.441, 1116.176
1099.923, 1114.443
1100.406, 1114.701
1100.888, 1118.807
1101.370, 1122.225
1101.852, 1123.009
1102.334, 1123.658
1102.816, 1126.061
1103.298, 1129.838
1103.780, 1131.974
1104.262, 1132.599
1104.745, 1132.721
1105.227, 1131.992
1105.709, 1131.892
1106.191, 1133.793
1106.673, 1136.466
1107.155, 1138.070
1107.637, 1138.431
1108.119, 1139.071
1108.601, 1140.088
1109.084, 1141.097
1109.566, 1141.791
1110.048, 1142.338
1110.530, 1142.591
1111.012, 1142.794
1111.494, 1144.127
1111.976, 1147.099
1112.458, 1149.828
1112.941, 1152.095
1113.423, 1153.764
1113.905, 1153.781
1114.387, 1153.505
1114.869, 1155.495
1115.351, 1160.235
1115.833, 1164.153
1116.315, 1166.320
1116.797, 1167.801
1117.280, 1168.616
1117.762, 1169.321
1118.244, 1171.294
1118.726, 1174.290
1119.208, 1177.709
1119.690, 1181.396
1120.172, 1185.403
1120.654, 1190.442
1121.136, 1195.127
1121.619, 1198.342
1122.101, 1200.329
1122.583, 1204.218
1123.065, 1209.643
1123.547, 1213.377
1124.029, 1212.424
1124.511, 1211.190
1124.993, 1212.566
1125.476, 1215.142
1125.958, 1217.155
1126.440, 1218.681
1126.922, 1218.759
1127.404, 1217.255
1127.886, 1216.152
1128.368, 1217.603
1128.850, 1219.533
1129.333, 1219.702
1129.815, 1218.746
1130.297, 1218.856
1130.779, 1221.123
1131.261, 1221.544
1131.743, 1219.501
1132.225, 1216.479
1132.707, 1213.260
1133.189, 1210.541
1133.672, 1210.125
1134.154, 1211.677
1134.636, 1210.673
1135.118, 1204.086
1135.600, 1198.972
1136.082, 1197.156
1136.564, 1196.889
1137.046, 1195.243
1137.528, 1192.906
1138.011, 1192.002
1138.493, 1193.164
1138.975, 1192.108
1139.457, 1184.728
1139.939, 1177.733
1140.421, 1173.628
1140.903, 1171.556
1141.385, 1169.225
1141.868, 1166.538
1142.350, 1162.893
1142.832, 1157.730
1143.314, 1152.855
1143.796, 1149.853
1144.278, 1146.889
1144.760, 1142.827
1145.242, 1137.680
1145.724, 1131.786
1146.207, 1125.256
1146.689, 1118.728
1147.171, 1111.647
1147.653, 1106.102
1148.135, 1106.025
1148.617, 1106.818
1149.099, 1102.897
1149.581, 1093.295
1150.063, 1085.167
1150.546, 1078.546
1151.028, 1073.317
1151.510, 1070.430
1151.992, 1068.110
1152.474, 1065.357
1152.956, 1061.963
1153.438, 1057.313
1153.920, 1050.386
1154.403, 1046.446
1154.885, 1046.236
1155.367, 1045.954
1155.849, 1041.623
1156.331, 1035.852
1156.813, 1031.058
1157.295, 1027.391
1157.777, 1025.159
1158.260, 1025.164
1158.742, 1024.258
1159.224, 1021.991
1159.706, 1018.786
1160.188, 1014.671
1160.670, 1010.190
1161.152, 1006.025
1161.634, 1002.257
1162.116, 999.0208
1162.599, 996.2512
1163.081, 994.2094
1163.563, 993.1090
1164.045, 992.4582
1164.527, 991.9393
1165.009, 991.1447
1165.491, 989.0383
1165.973, 985.3373
1166.455, 981.8828
1166.938, 979.1117
1167.420, 976.6469
1167.902, 974.3112
1168.384, 972.2191
1168.866, 970.9907
1169.348, 970.1866
1169.830, 968.5071
1170.312, 965.3154
1170.795, 962.4798
1171.277, 960.8120
1171.759, 959.5017
1172.241, 958.4034
1172.723, 957.3159
1173.205, 955.2210
1173.687, 952.4196
1174.169, 949.8846
1174.651, 948.1556
1175.134, 946.3407
1175.616, 943.3555
1176.098, 940.9003
1176.580, 940.2726
1177.062, 941.2023
1177.544, 941.6407
1178.026, 941.6035
1178.508, 941.2105
1178.990, 940.8087
1179.473, 939.6368
1179.955, 936.4984
1180.437, 933.0536
1180.919, 930.7282
1181.401, 929.5322
1181.883, 928.5544
1182.365, 927.8268
1182.847, 927.8317
1183.330, 930.6808
1183.812, 932.2789
1184.294, 929.1508
1184.776, 924.3663
1185.258, 921.7477
1185.740, 921.3812
1186.222, 920.3533
1186.704, 918.5622
1187.187, 916.6472
1187.669, 914.3868
1188.151, 912.7927
1188.633, 913.2491
1189.115, 914.5030
1189.597, 914.2291
1190.079, 912.3338
1190.561, 910.9127
1191.043, 910.1401
1191.526, 909.4944
1192.008, 908.1758
1192.490, 907.1920
1192.972, 907.8646
1193.454, 909.2936
1193.936, 909.0352
1194.418, 906.9662
1194.900, 905.0253
1195.382, 903.5279
1195.865, 901.9328
1196.347, 899.0305
1196.829, 896.5362
1197.311, 896.3253
1197.793, 897.7214
1198.275, 897.8612
1198.757, 896.6853
1199.239, 895.1643
1199.722, 893.3889
1200.204, 892.0940
1200.686, 892.3829
1201.168, 893.0748
1201.650, 893.1442
1202.132, 892.6519
1202.614, 892.2797
1203.096, 892.0131
1203.578, 892.0766
1204.061, 892.6149
1204.543, 893.0808
1205.025, 893.0491
1205.507, 892.6003
1205.989, 891.3592
1206.471, 889.4628
1206.953, 889.5660
1207.435, 891.8154
1207.917, 893.3035
1208.400, 892.9963
1208.882, 891.8736
1209.364, 890.0961
1209.846, 888.5140
1210.328, 888.6691
1210.810, 890.4954
1211.292, 889.3376
1211.774, 884.9753
1212.257, 881.8334
1212.739, 881.8937
1213.221, 883.0616
1213.703, 883.9575
1214.185, 884.5248
1214.667, 884.6272
1215.149, 884.2746
1215.631, 883.9277
1216.114, 883.5692
1216.596, 883.6963
1217.078, 884.6285
1217.560, 885.9316
1218.042, 887.9764
1218.524, 889.7115
1219.006, 889.7246
1219.488, 887.8575
1219.970, 886.6285
1220.453, 886.0486
1220.935, 885.4264
1221.417, 883.9045
1221.899, 882.9743
1222.381, 884.6435
1222.863, 887.0738
1223.345, 887.8953
1223.827, 886.8389
1224.309, 886.7360
1224.792, 887.5840
1225.274, 888.1674
1225.756, 887.9122
1226.238, 887.0587
1226.720, 885.2311
1227.202, 883.2545
1227.684, 882.1721
1228.166, 882.0985
1228.649, 881.9119
1229.131, 881.6252
1229.613, 881.4006
1230.095, 881.1396
1230.577, 881.1847
1231.059, 881.8871
1231.541, 882.9256
1232.023, 884.0510
1232.505, 885.2935
1232.988, 885.5489
1233.470, 884.8286
1233.952, 883.5174
1234.434, 880.6767
1234.916, 878.6387
1235.398, 879.1107
1235.880, 880.8368
1236.362, 882.9355
1236.844, 885.3639
1237.327, 885.1188
1237.809, 882.4530
1238.291, 880.4181
1238.773, 881.3798
1239.255, 882.7474
1239.737, 883.9847
1240.219, 884.5586
1240.701, 883.4349
1241.184, 880.9082
1241.666, 879.4816
1242.148, 879.1758
1242.630, 879.4177
1243.112, 880.6799
1243.594, 881.3831
1244.076, 880.6804
1244.558, 879.6328
1245.041, 879.4151
1245.523, 879.8832
1246.005, 880.5048
1246.487, 881.1862
1246.969, 881.5485
1247.451, 880.3899
1247.933, 880.4366
1248.415, 882.8954
1248.897, 885.7003
1249.380, 886.3154
1249.862, 885.3848
1250.344, 884.7609
1250.826, 884.4802
1251.308, 884.2018
1251.790, 883.1339
1252.272, 883.2034
1252.754, 885.1890
1253.236, 887.2983
1253.719, 887.5401
1254.201, 886.4005
1254.683, 884.0723
1255.165, 881.1140
1255.647, 879.9653
1256.129, 883.2006
1256.611, 885.0031
1257.093, 884.5806
1257.576, 883.2264
1258.058, 881.8034
1258.540, 880.6595
1259.022, 880.6253
1259.504, 881.4280
1259.986, 881.6247
1260.468, 880.6671
1260.950, 880.1158
1261.432, 880.1075
1261.915, 880.6951
1262.397, 882.5706
1262.879, 884.5783
1263.361, 885.2436
1263.843, 884.8802
1264.325, 885.0154
1264.807, 886.0099
1265.289, 885.9211
1265.771, 884.4175
1266.254, 883.0470
1266.736, 883.2743
1267.218, 884.1209
1267.700, 885.3666
1268.182, 886.4401
1268.664, 885.8373
1269.146, 883.4083
1269.628, 881.4072
1270.111, 880.0280
1270.593, 879.9414
1271.075, 883.2844
1271.557, 886.3854
1272.039, 886.3672
1272.521, 884.8734
1273.003, 884.3857
1273.485, 884.8251
1273.968, 884.7581
1274.450, 884.1558
1274.932, 884.8146
1275.414, 890.6071
1275.896, 894.2310
1276.378, 892.1051
1276.860, 887.6993
1277.342, 885.2853
1277.824, 884.6747
1278.307, 885.7457
1278.789, 888.1701
1279.271, 889.4778
1279.753, 887.5432
1280.235, 885.8094
1280.717, 885.0450
1281.199, 884.5866
1281.681, 883.3629
1282.163, 881.9766
1282.646, 881.6144
1283.128, 882.3047
1283.610, 883.7654
1284.092, 886.9485
1284.574, 888.8903
1285.056, 889.1116
1285.538, 888.6148
1286.020, 888.4872
1286.503, 888.1818
1286.985, 886.4954
1287.467, 883.9670
1287.949, 882.6445
1288.431, 882.8984
1288.913, 883.2431
1289.395, 883.4800
1289.877, 884.5040
1290.359, 888.7344
1290.842, 892.5090
1291.324, 891.9049
1291.806, 888.6708
1292.288, 887.1082
1292.770, 887.3812
1293.252, 887.1966
1293.734, 886.4310
1294.216, 885.6881
1294.698, 884.7155
1295.181, 884.6058
1295.663, 887.1181
1296.145, 890.0703
1296.627, 890.8528
1297.109, 889.6972
1297.591, 887.8409
1298.073, 885.5744
1298.555, 884.3542
1299.038, 885.4269
1299.520, 887.0865
1300.002, 889.4457
1300.484, 891.7141
1300.966, 892.0697
1301.448, 891.4048
1301.930, 893.5060
1302.412, 897.4310
1302.895, 899.5019
1303.377, 896.0333
1303.859, 894.8593
1304.341, 896.8470
1304.823, 898.1566
1305.305, 894.9576
##END=



