##NAMES=Orthoserpierite
##RRUFFID=R060793
##IDEAL CHEMISTRY=CaCu^2+^_4_(S^6+^O_4_)_2_(OH)_6_&#183;3H_2_O
##LOCALITY=Mi Fiel Rosita mine, Bolsico District, Copiapo, Chile
##OWNER=RRUFF
##SOURCE=Bob Jenkins
##DESCRIPTION=Light blue aggregate of lathlike crystals
##STATUS=The identification of this mineral has been confirmed by single-crystal X-ray diffraction.
##URL=rruff.info/R060793
124.898, 1206.053
125.380, 1217.224
125.862, 1228.444
126.344, 1238.756
126.826, 1245.648
127.308, 1250.112
127.790, 1256.539
128.273, 1269.156
128.755, 1285.667
129.237, 1300.971
129.719, 1315.128
130.201, 1326.531
130.683, 1327.936
131.165, 1319.392
131.648, 1316.527
132.130, 1338.926
132.612, 1382.343
133.094, 1413.120
133.576, 1419.927
134.058, 1409.568
134.540, 1405.628
135.022, 1407.938
135.504, 1417.057
135.986, 1436.791
136.469, 1468.308
136.951, 1495.833
137.433, 1512.079
137.915, 1517.119
138.397, 1531.857
138.879, 1559.929
139.361, 1592.702
139.843, 1617.859
140.326, 1635.135
140.808, 1646.305
141.290, 1649.802
141.772, 1641.152
142.254, 1641.988
142.736, 1655.013
143.218, 1676.572
143.700, 1697.722
144.182, 1720.271
144.665, 1739.682
145.147, 1753.759
145.629, 1763.427
146.111, 1765.687
146.593, 1756.258
147.075, 1737.498
147.557, 1726.150
148.039, 1730.248
148.521, 1735.228
149.004, 1731.659
149.486, 1705.475
149.968, 1687.491
150.450, 1685.399
150.932, 1700.101
151.414, 1705.858
151.896, 1692.850
152.378, 1675.588
152.861, 1666.260
153.343, 1672.372
153.825, 1679.856
154.307, 1685.610
154.789, 1689.068
155.271, 1694.104
155.753, 1704.522
156.235, 1716.042
156.717, 1723.329
157.200, 1715.514
157.682, 1711.405
158.164, 1720.362
158.646, 1749.491
159.128, 1774.011
159.610, 1781.573
160.092, 1779.957
160.574, 1784.026
161.057, 1804.945
161.539, 1828.726
162.021, 1847.075
162.503, 1855.867
162.985, 1863.420
163.467, 1872.177
163.949, 1882.152
164.431, 1893.715
164.913, 1910.489
165.396, 1927.225
165.878, 1939.321
166.360, 1941.528
166.842, 1943.567
167.324, 1954.107
167.806, 1971.395
168.288, 1983.950
168.770, 1985.048
169.253, 1977.992
169.735, 1966.500
170.217, 1949.709
170.699, 1930.728
171.181, 1911.395
171.663, 1891.682
172.145, 1872.813
172.627, 1853.087
173.109, 1834.920
173.592, 1822.027
174.074, 1820.132
174.556, 1822.372
175.038, 1821.283
175.520, 1816.600
176.002, 1809.616
176.484, 1798.544
176.966, 1785.755
177.449, 1777.093
177.931, 1779.847
178.413, 1787.356
178.895, 1788.714
179.377, 1782.625
179.859, 1772.880
180.341, 1760.292
180.823, 1746.351
181.305, 1738.076
181.788, 1744.500
182.270, 1759.250
182.752, 1766.473
183.234, 1762.808
183.716, 1755.198
184.198, 1752.953
184.680, 1755.826
185.162, 1761.464
185.645, 1774.780
186.127, 1791.066
186.609, 1789.984
187.091, 1761.844
187.573, 1724.285
188.055, 1713.507
188.537, 1729.744
189.019, 1753.186
189.501, 1771.872
189.984, 1786.025
190.466, 1795.737
190.948, 1800.280
191.430, 1801.010
191.912, 1799.141
192.394, 1793.937
192.876, 1792.800
193.358, 1805.627
193.840, 1831.623
194.323, 1853.225
194.805, 1866.667
195.287, 1872.532
195.769, 1870.859
196.251, 1859.879
196.733, 1848.714
197.215, 1847.935
197.697, 1858.063
198.180, 1867.589
198.662, 1872.419
199.144, 1873.573
199.626, 1880.205
200.108, 1893.859
200.590, 1909.114
201.072, 1918.815
201.554, 1922.227
202.036, 1925.614
202.519, 1929.686
203.001, 1934.491
203.483, 1946.443
203.965, 1968.444
204.447, 1992.364
204.929, 2004.051
205.411, 1999.693
205.893, 2000.228
206.376, 2014.883
206.858, 2045.165
207.340, 2071.904
207.822, 2096.654
208.304, 2115.916
208.786, 2121.200
209.268, 2107.276
209.750, 2095.780
210.232, 2095.233
210.714, 2106.949
211.197, 2123.030
211.679, 2144.712
212.161, 2169.896
212.643, 2196.260
213.125, 2227.367
213.607, 2250.770
214.089, 2258.070
214.572, 2241.393
215.054, 2237.788
215.536, 2253.004
216.018, 2278.323
216.500, 2292.103
216.982, 2290.331
217.464, 2284.436
217.946, 2279.228
218.428, 2274.663
218.911, 2270.739
219.393, 2267.271
219.875, 2264.434
220.357, 2262.781
220.839, 2262.690
221.321, 2263.201
221.803, 2264.120
222.285, 2266.239
222.767, 2266.821
223.250, 2265.490
223.732, 2262.651
224.214, 2259.262
224.696, 2253.575
225.178, 2250.063
225.660, 2251.844
226.142, 2262.258
226.624, 2269.995
227.107, 2273.337
227.589, 2273.280
228.071, 2273.921
228.553, 2273.008
229.035, 2275.726
229.517, 2286.302
229.999, 2311.133
230.481, 2329.924
230.963, 2338.588
231.445, 2339.238
231.928, 2344.001
232.410, 2353.681
232.892, 2366.510
233.374, 2380.971
233.856, 2396.219
234.338, 2415.312
234.820, 2441.318
235.303, 2472.574
235.785, 2496.586
236.267, 2509.382
236.749, 2519.732
237.231, 2533.490
237.713, 2551.302
238.195, 2571.057
238.677, 2592.966
239.159, 2616.867
239.641, 2640.898
240.124, 2665.072
240.606, 2689.765
241.088, 2715.259
241.570, 2740.528
242.052, 2768.372
242.534, 2800.935
243.016, 2837.432
243.498, 2868.504
243.981, 2893.353
244.463, 2913.511
244.945, 2929.134
245.427, 2935.587
245.909, 2946.646
246.391, 2966.828
246.873, 2994.951
247.355, 3014.411
247.837, 3021.552
248.320, 3024.020
248.802, 3028.099
249.284, 3036.625
249.766, 3041.098
250.248, 3041.760
250.730, 3038.307
251.212, 3024.954
251.694, 2999.051
252.176, 2966.803
252.659, 2931.306
253.141, 2887.478
253.623, 2852.302
254.105, 2832.567
254.587, 2826.328
255.069, 2806.021
255.551, 2766.640
256.033, 2719.722
256.516, 2673.530
256.998, 2628.275
257.480, 2582.124
257.962, 2531.981
258.444, 2478.775
258.926, 2440.059
259.408, 2421.184
259.890, 2408.361
260.372, 2390.715
260.855, 2366.278
261.337, 2341.767
261.819, 2319.991
262.301, 2299.570
262.783, 2268.140
263.265, 2217.854
263.747, 2168.791
264.229, 2137.839
264.711, 2131.300
265.194, 2124.838
265.676, 2117.058
266.158, 2106.970
266.640, 2085.406
267.122, 2048.709
267.604, 2008.123
268.086, 1971.870
268.569, 1939.089
269.051, 1912.956
269.533, 1894.620
270.015, 1883.351
270.497, 1875.055
270.979, 1869.444
271.461, 1867.590
271.943, 1873.922
272.425, 1892.351
272.908, 1897.240
273.390, 1880.195
273.872, 1847.773
274.354, 1827.479
274.836, 1822.209
275.318, 1819.643
275.800, 1809.321
276.282, 1789.694
276.764, 1775.243
277.247, 1768.599
277.729, 1768.054
278.211, 1769.461
278.693, 1774.235
279.175, 1774.663
279.657, 1760.798
280.139, 1731.526
280.621, 1714.557
281.103, 1717.193
281.586, 1730.917
282.068, 1731.561
282.550, 1717.361
283.032, 1702.469
283.514, 1695.890
283.996, 1697.492
284.478, 1704.824
284.960, 1721.778
285.443, 1739.092
285.925, 1729.496
286.407, 1691.706
286.889, 1658.967
287.371, 1658.828
287.853, 1686.332
288.335, 1701.698
288.817, 1698.007
289.299, 1685.918
289.782, 1685.508
290.264, 1696.338
290.746, 1707.212
291.228, 1711.047
291.710, 1709.277
292.192, 1707.082
292.674, 1704.105
293.156, 1703.024
293.638, 1709.733
294.121, 1723.264
294.603, 1735.915
295.085, 1743.394
295.567, 1746.931
296.049, 1749.329
296.531, 1750.554
297.013, 1751.744
297.496, 1752.538
297.978, 1753.917
298.460, 1759.902
298.942, 1779.718
299.424, 1803.882
299.906, 1812.651
300.388, 1803.105
300.870, 1790.014
301.352, 1786.105
301.835, 1790.534
302.317, 1801.021
302.799, 1824.200
303.281, 1849.496
303.763, 1862.168
304.245, 1860.952
304.727, 1855.802
305.209, 1851.649
305.691, 1849.759
306.174, 1852.671
306.656, 1863.896
307.138, 1878.933
307.620, 1893.686
308.102, 1908.238
308.584, 1923.570
309.066, 1943.040
309.548, 1963.344
310.030, 1979.349
310.513, 1982.989
310.995, 1986.764
311.477, 1998.328
311.959, 2017.437
312.441, 2042.306
312.923, 2080.798
313.405, 2120.979
313.887, 2149.868
314.370, 2153.338
314.852, 2155.757
315.334, 2168.674
315.816, 2190.923
316.298, 2216.189
316.780, 2247.260
317.262, 2277.569
317.744, 2301.784
318.226, 2309.861
318.709, 2322.675
319.191, 2350.821
319.673, 2390.102
320.155, 2426.044
320.637, 2456.652
321.119, 2481.171
321.601, 2498.903
322.083, 2506.917
322.565, 2512.384
323.048, 2511.805
323.530, 2509.361
324.012, 2514.977
324.494, 2541.237
324.976, 2566.735
325.458, 2582.287
325.940, 2580.915
326.422, 2583.137
326.905, 2598.907
327.387, 2617.648
327.869, 2621.565
328.351, 2594.428
328.833, 2567.790
329.315, 2549.445
329.797, 2541.065
330.279, 2535.054
330.762, 2531.740
331.244, 2530.623
331.726, 2531.481
332.208, 2537.708
332.690, 2540.863
333.172, 2538.476
333.654, 2530.116
334.136, 2522.174
334.618, 2515.581
335.100, 2508.386
335.583, 2497.852
336.065, 2481.250
336.547, 2468.694
337.029, 2464.787
337.511, 2467.586
337.993, 2457.433
338.475, 2429.302
338.957, 2399.153
339.440, 2381.064
339.922, 2378.003
340.404, 2367.921
340.886, 2344.640
341.368, 2313.879
341.850, 2294.964
342.332, 2290.319
342.814, 2285.782
343.297, 2271.094
343.779, 2246.602
344.261, 2223.550
344.743, 2202.309
345.225, 2183.963
345.707, 2172.094
346.189, 2166.444
346.671, 2160.039
347.153, 2150.937
347.635, 2138.175
348.118, 2113.588
348.600, 2072.746
349.082, 2036.076
349.564, 2039.153
350.046, 2072.326
350.528, 2093.902
351.010, 2071.882
351.492, 2030.290
351.975, 2011.239
352.457, 2016.484
352.939, 2025.761
353.421, 2023.260
353.903, 2011.705
354.385, 1996.114
354.867, 1971.076
355.349, 1948.217
355.832, 1941.199
356.314, 1948.554
356.796, 1957.407
357.278, 1960.981
357.760, 1960.977
358.242, 1959.422
358.724, 1958.276
359.206, 1953.901
359.688, 1941.841
360.171, 1924.184
360.653, 1908.235
361.135, 1897.401
361.617, 1889.201
362.099, 1882.480
362.581, 1878.242
363.063, 1872.615
363.545, 1858.142
364.027, 1841.815
364.510, 1837.200
364.992, 1863.399
365.474, 1888.462
365.956, 1899.080
366.438, 1890.208
366.920, 1880.662
367.402, 1870.234
367.884, 1861.022
368.366, 1855.482
368.849, 1856.846
369.331, 1858.676
369.813, 1859.616
370.295, 1859.545
370.777, 1861.266
371.259, 1867.599
371.741, 1873.264
372.224, 1873.367
372.706, 1862.037
373.188, 1857.064
373.670, 1863.775
374.152, 1878.751
374.634, 1883.675
375.116, 1872.459
375.598, 1863.536
376.080, 1871.319
376.562, 1900.827
377.045, 1917.405
377.527, 1914.621
378.009, 1902.612
378.491, 1904.146
378.973, 1920.915
379.455, 1937.078
379.937, 1944.998
380.419, 1945.292
380.902, 1940.744
381.384, 1928.989
381.866, 1921.843
382.348, 1939.997
382.830, 1979.162
383.312, 2012.789
383.794, 2029.413
384.276, 2034.251
384.759, 2033.837
385.241, 2028.284
385.723, 2029.203
386.205, 2053.184
386.687, 2089.885
387.169, 2119.666
387.651, 2134.978
388.133, 2143.797
388.615, 2154.176
389.098, 2165.118
389.580, 2172.915
390.062, 2169.057
390.544, 2164.197
391.026, 2169.828
391.508, 2191.395
391.990, 2212.719
392.472, 2225.028
392.954, 2231.186
393.437, 2236.442
393.919, 2237.850
394.401, 2243.045
394.883, 2257.361
395.365, 2282.333
395.847, 2306.368
396.329, 2331.855
396.811, 2352.597
397.293, 2362.702
397.776, 2340.399
398.258, 2329.740
398.740, 2342.237
399.222, 2376.680
399.704, 2410.371
400.186, 2446.225
400.668, 2478.566
401.151, 2503.215
401.633, 2508.592
402.115, 2527.873
402.597, 2568.320
403.079, 2621.202
403.561, 2664.782
404.043, 2696.294
404.525, 2724.307
405.007, 2747.901
405.490, 2764.144
405.972, 2806.215
406.454, 2881.518
406.936, 2967.106
407.418, 3031.201
407.900, 3072.339
408.382, 3117.629
408.864, 3176.836
409.346, 3245.919
409.828, 3309.862
410.311, 3367.963
410.793, 3426.964
411.275, 3492.731
411.757, 3564.750
412.239, 3640.199
412.721, 3720.246
413.203, 3801.700
413.685, 3876.727
414.168, 3947.346
414.650, 4023.518
415.132, 4115.833
415.614, 4214.093
416.096, 4305.263
416.578, 4388.441
417.060, 4465.790
417.542, 4538.075
418.025, 4604.961
418.507, 4665.742
418.989, 4717.030
419.471, 4765.371
419.953, 4818.837
420.435, 4875.832
420.917, 4919.877
421.399, 4938.230
421.881, 4945.272
422.364, 4951.087
422.846, 4960.482
423.328, 4965.167
423.810, 4969.288
424.292, 4968.566
424.774, 4949.891
425.256, 4894.725
425.738, 4839.429
426.220, 4799.674
426.703, 4784.955
427.185, 4749.739
427.667, 4687.403
428.149, 4610.142
428.631, 4532.127
429.113, 4452.512
429.595, 4371.587
430.077, 4289.568
430.560, 4206.797
431.042, 4123.926
431.524, 4040.085
432.006, 3960.923
432.488, 3891.328
432.970, 3831.095
433.452, 3773.709
433.934, 3715.558
434.417, 3664.211
434.899, 3638.108
435.381, 3633.846
435.863, 3623.711
436.345, 3584.870
436.827, 3532.153
437.309, 3491.270
437.791, 3463.249
438.273, 3451.339
438.755, 3470.420
439.238, 3505.627
439.720, 3532.595
440.202, 3543.335
440.684, 3542.502
441.166, 3524.345
441.648, 3494.191
442.130, 3475.447
442.612, 3492.583
443.095, 3516.542
443.577, 3526.391
444.059, 3513.317
444.541, 3499.459
445.023, 3488.602
445.505, 3481.054
445.987, 3477.405
446.469, 3490.754
446.952, 3495.005
447.434, 3478.348
447.916, 3438.583
448.398, 3411.903
448.880, 3408.839
449.362, 3409.348
449.844, 3397.931
450.326, 3369.078
450.808, 3342.017
451.290, 3317.426
451.773, 3296.234
452.255, 3280.245
452.737, 3269.308
453.219, 3263.918
453.701, 3267.613
454.183, 3279.790
454.665, 3283.002
455.147, 3276.125
455.630, 3264.745
456.112, 3253.978
456.594, 3244.043
457.076, 3234.933
457.558, 3223.375
458.040, 3215.818
458.522, 3229.359
459.004, 3260.396
459.487, 3283.802
459.969, 3271.803
460.451, 3247.507
460.933, 3240.152
461.415, 3258.950
461.897, 3280.824
462.379, 3293.634
462.861, 3299.542
463.343, 3302.340
463.826, 3296.181
464.308, 3293.656
464.790, 3304.099
465.272, 3327.984
465.754, 3343.705
466.236, 3337.995
466.718, 3328.294
467.200, 3326.208
467.682, 3337.397
468.165, 3349.731
468.647, 3363.698
469.129, 3378.628
469.611, 3393.021
470.093, 3407.648
470.575, 3420.164
471.057, 3428.702
471.539, 3432.643
472.022, 3441.175
472.504, 3455.247
472.986, 3471.503
473.468, 3487.365
473.950, 3502.693
474.432, 3515.647
474.914, 3525.519
475.396, 3533.314
475.878, 3541.328
476.361, 3549.467
476.843, 3556.159
477.325, 3559.061
477.807, 3560.391
478.289, 3564.425
478.771, 3571.933
479.253, 3578.930
479.735, 3581.618
480.217, 3581.781
480.700, 3582.075
481.182, 3582.781
481.664, 3584.432
482.146, 3589.547
482.628, 3596.553
483.110, 3598.483
483.592, 3590.532
484.074, 3578.285
484.556, 3563.814
485.039, 3544.099
485.521, 3529.269
486.003, 3524.011
486.485, 3522.456
486.967, 3517.366
487.449, 3507.394
487.931, 3496.411
488.414, 3486.590
488.896, 3477.254
489.378, 3460.505
489.860, 3435.848
490.342, 3405.183
490.824, 3367.491
491.306, 3322.270
491.788, 3280.192
492.270, 3241.307
492.753, 3206.702
493.235, 3181.780
493.717, 3164.660
494.199, 3139.214
494.681, 3091.689
495.163, 3035.401
495.645, 2993.014
496.127, 2963.893
496.609, 2936.512
497.092, 2900.544
497.574, 2863.274
498.056, 2834.053
498.538, 2819.123
499.020, 2802.513
499.502, 2775.153
499.984, 2740.344
500.466, 2703.979
500.948, 2667.482
501.431, 2630.678
501.913, 2591.056
502.395, 2548.445
502.877, 2515.851
503.359, 2508.407
503.841, 2500.698
504.323, 2476.844
504.805, 2422.621
505.288, 2381.287
505.770, 2359.769
506.252, 2346.912
506.734, 2318.066
507.216, 2267.003
507.698, 2226.999
508.180, 2214.383
508.662, 2223.266
509.145, 2218.500
509.627, 2199.196
510.109, 2176.137
510.591, 2159.576
511.073, 2146.719
511.555, 2127.332
512.037, 2096.849
512.519, 2068.113
513.001, 2059.284
513.484, 2063.354
513.966, 2064.609
514.448, 2049.420
514.930, 2033.693
515.412, 2033.079
515.894, 2046.536
516.376, 2050.463
516.858, 2025.695
517.341, 1993.989
517.823, 1970.005
518.305, 1957.787
518.787, 1950.371
519.269, 1952.256
519.751, 1957.286
520.233, 1955.014
520.715, 1940.466
521.197, 1927.084
521.680, 1918.939
522.162, 1915.462
522.644, 1906.447
523.126, 1888.110
523.608, 1875.651
524.090, 1885.728
524.572, 1917.464
525.054, 1935.256
525.536, 1934.771
526.019, 1924.903
526.501, 1915.172
526.983, 1906.057
527.465, 1899.255
527.947, 1898.809
528.429, 1898.665
528.911, 1889.171
529.393, 1872.066
529.875, 1857.688
530.358, 1853.756
530.840, 1854.209
531.322, 1853.068
531.804, 1846.885
532.286, 1847.130
532.768, 1869.320
533.250, 1896.098
533.732, 1905.878
534.214, 1874.620
534.697, 1850.749
535.179, 1844.753
535.661, 1853.234
536.143, 1855.541
536.625, 1847.647
537.107, 1840.713
537.589, 1841.394
538.071, 1850.956
538.554, 1856.929
539.036, 1859.228
539.518, 1858.010
540.000, 1850.831
540.482, 1838.899
540.964, 1831.317
541.446, 1830.464
541.928, 1834.803
542.411, 1846.113
542.893, 1861.800
543.375, 1871.563
543.857, 1862.092
544.339, 1848.122
544.821, 1843.908
545.303, 1850.778
545.785, 1859.518
546.268, 1869.433
546.750, 1877.135
547.232, 1879.617
547.714, 1872.780
548.196, 1865.116
548.678, 1855.249
549.160, 1845.543
549.642, 1841.542
550.124, 1848.560
550.606, 1853.055
551.089, 1849.095
551.571, 1837.078
552.053, 1836.456
552.535, 1851.072
553.017, 1865.435
553.499, 1866.219
553.981, 1854.444
554.463, 1843.693
554.945, 1834.885
555.428, 1828.810
555.910, 1828.328
556.392, 1831.772
556.874, 1834.002
557.356, 1829.055
557.838, 1825.225
558.320, 1834.280
558.802, 1853.211
559.284, 1866.991
559.767, 1862.852
560.249, 1854.983
560.731, 1852.988
561.213, 1860.034
561.695, 1865.171
562.177, 1860.613
562.659, 1856.093
563.141, 1861.912
563.624, 1891.248
564.106, 1908.779
564.588, 1908.027
565.070, 1894.362
565.552, 1880.643
566.034, 1864.820
566.516, 1857.148
566.998, 1866.581
567.481, 1889.186
567.963, 1897.934
568.445, 1892.093
568.927, 1884.503
569.409, 1887.648
569.891, 1897.071
570.373, 1902.972
570.855, 1902.771
571.338, 1901.378
571.820, 1904.838
572.302, 1909.752
572.784, 1910.268
573.266, 1892.472
573.748, 1881.109
574.230, 1891.034
574.712, 1919.257
575.194, 1942.697
575.677, 1952.827
576.159, 1961.501
576.641, 1973.938
577.123, 1992.108
577.605, 2006.905
578.087, 2017.842
578.569, 2026.177
579.051, 2032.555
579.533, 2036.756
580.016, 2041.305
580.498, 2046.499
580.980, 2052.417
581.462, 2059.325
581.944, 2067.113
582.426, 2075.385
582.908, 2083.094
583.390, 2091.470
583.872, 2102.494
584.355, 2116.006
584.837, 2130.483
585.319, 2142.997
585.801, 2157.418
586.283, 2178.380
586.765, 2210.758
587.247, 2238.112
587.729, 2253.216
588.211, 2262.397
588.694, 2273.011
589.176, 2281.540
589.658, 2297.405
590.140, 2324.104
590.622, 2358.535
591.104, 2391.452
591.586, 2423.362
592.068, 2450.468
592.551, 2465.045
593.033, 2471.502
593.515, 2503.786
593.997, 2563.674
594.479, 2625.627
594.961, 2668.746
595.443, 2698.202
595.925, 2722.116
596.407, 2740.444
596.890, 2758.983
597.372, 2783.634
597.854, 2810.982
598.336, 2835.820
598.818, 2850.174
599.300, 2868.221
599.782, 2899.021
600.265, 2939.079
600.747, 2970.688
601.229, 2988.521
601.711, 3002.050
602.193, 3014.414
602.675, 3025.767
603.157, 3034.258
603.639, 3041.670
604.121, 3042.174
604.604, 3024.850
605.086, 2991.058
605.568, 2973.236
606.050, 2977.910
606.532, 2990.421
607.014, 2990.851
607.496, 2983.187
607.978, 2978.313
608.460, 2984.912
608.943, 2991.740
609.425, 2990.822
609.907, 2982.571
610.389, 2968.459
610.871, 2941.604
611.353, 2915.422
611.835, 2898.642
612.317, 2894.348
612.799, 2881.804
613.282, 2852.372
613.764, 2821.869
614.246, 2802.085
614.728, 2798.154
615.210, 2787.188
615.692, 2767.288
616.174, 2741.750
616.656, 2716.564
617.138, 2691.413
617.621, 2660.149
618.103, 2615.572
618.585, 2569.653
619.067, 2544.296
619.549, 2534.835
620.031, 2522.975
620.513, 2494.608
620.995, 2462.271
621.477, 2436.968
621.960, 2419.189
622.442, 2398.221
622.924, 2357.952
623.406, 2321.770
623.888, 2305.912
624.370, 2326.175
624.852, 2337.938
625.334, 2340.978
625.817, 2335.649
626.299, 2319.278
626.781, 2287.844
627.263, 2266.971
627.745, 2264.906
628.227, 2271.733
628.709, 2262.281
629.191, 2238.973
629.674, 2222.858
630.156, 2233.188
630.638, 2252.520
631.120, 2256.615
631.602, 2247.084
632.084, 2237.480
632.566, 2233.305
633.048, 2233.674
633.531, 2238.831
634.013, 2250.058
634.495, 2260.818
634.977, 2269.537
635.459, 2277.508
635.941, 2286.089
636.423, 2297.734
636.905, 2304.049
637.387, 2301.460
637.870, 2296.038
638.352, 2300.349
638.834, 2314.861
639.316, 2328.923
639.798, 2338.725
640.280, 2346.268
640.762, 2357.634
641.244, 2371.581
641.726, 2380.224
642.209, 2371.532
642.691, 2360.076
643.173, 2359.700
643.655, 2371.451
644.137, 2387.223
644.619, 2411.267
645.101, 2433.321
645.583, 2446.633
646.065, 2452.179
646.548, 2443.689
647.030, 2408.382
647.512, 2369.554
647.994, 2359.776
648.476, 2387.579
648.958, 2404.000
649.440, 2401.328
649.922, 2381.738
650.404, 2338.298
650.887, 2275.837
651.369, 2231.895
651.851, 2241.534
652.333, 2268.275
652.815, 2266.451
653.297, 2239.792
653.779, 2207.320
654.261, 2171.164
654.744, 2138.884
655.226, 2115.614
655.708, 2102.355
656.190, 2093.963
656.672, 2101.344
657.154, 2104.184
657.636, 2085.588
658.118, 2030.597
658.601, 2003.358
659.083, 2016.242
659.565, 2039.965
660.047, 2027.409
660.529, 1982.130
661.011, 1952.155
661.493, 1954.144
661.975, 1969.776
662.458, 1976.285
662.940, 1975.810
663.422, 1974.321
663.904, 1976.531
664.386, 1977.185
664.868, 1970.795
665.350, 1958.680
665.832, 1950.652
666.314, 1954.344
666.797, 1957.764
667.279, 1955.429
667.761, 1946.237
668.243, 1938.035
668.725, 1929.158
669.207, 1924.150
669.689, 1928.657
670.171, 1942.154
670.653, 1952.865
671.135, 1960.206
671.618, 1962.443
672.100, 1952.826
672.582, 1937.067
673.064, 1928.309
673.546, 1936.624
674.028, 1942.444
674.510, 1928.887
674.992, 1904.219
675.474, 1884.094
675.957, 1868.867
676.439, 1863.760
676.921, 1877.545
677.403, 1904.427
677.885, 1917.515
678.367, 1912.251
678.849, 1902.907
679.331, 1893.316
679.814, 1884.129
680.296, 1882.552
680.778, 1888.940
681.260, 1896.322
681.742, 1897.480
682.224, 1896.153
682.706, 1899.724
683.188, 1909.321
683.670, 1919.892
684.153, 1929.136
684.635, 1937.018
685.117, 1943.889
685.599, 1952.703
686.081, 1955.655
686.563, 1947.107
687.045, 1934.135
687.528, 1925.086
688.010, 1921.202
688.492, 1918.326
688.974, 1915.587
689.456, 1913.656
689.938, 1914.460
690.420, 1917.841
690.902, 1921.723
691.384, 1927.940
691.867, 1932.062
692.349, 1920.922
692.831, 1899.301
693.313, 1889.849
693.795, 1926.456
694.277, 1961.890
694.759, 1958.943
695.241, 1911.786
695.723, 1883.458
696.206, 1904.009
696.688, 1927.254
697.170, 1927.950
697.652, 1897.833
698.134, 1884.377
698.616, 1891.616
699.098, 1904.932
699.580, 1910.670
700.062, 1909.457
700.545, 1903.624
701.027, 1892.477
701.509, 1881.064
701.991, 1872.876
702.473, 1868.402
702.955, 1868.900
703.437, 1887.811
703.919, 1895.584
704.402, 1866.367
704.884, 1819.233
705.366, 1797.657
705.848, 1820.643
706.330, 1846.171
706.812, 1871.245
707.294, 1892.106
707.776, 1886.750
708.258, 1851.039
708.741, 1823.795
709.223, 1837.599
709.705, 1869.889
710.187, 1851.723
710.669, 1788.403
711.151, 1739.383
711.633, 1756.578
712.115, 1796.109
712.597, 1819.963
713.080, 1823.370
713.562, 1825.974
714.044, 1834.864
714.526, 1843.749
715.008, 1848.429
715.490, 1847.315
715.972, 1846.081
716.455, 1844.385
716.937, 1843.127
717.419, 1844.421
717.901, 1847.863
718.383, 1847.891
718.865, 1843.445
719.347, 1836.033
719.829, 1822.603
720.311, 1808.173
720.794, 1802.374
721.276, 1815.602
721.758, 1829.070
722.240, 1833.373
722.722, 1831.548
723.204, 1829.721
723.686, 1829.733
724.168, 1828.411
724.651, 1824.208
725.133, 1818.448
725.615, 1816.554
726.097, 1819.294
726.579, 1820.904
727.061, 1818.041
727.543, 1812.669
728.025, 1807.660
728.507, 1803.741
728.990, 1805.935
729.472, 1831.307
729.954, 1854.532
730.436, 1847.346
730.918, 1808.136
731.400, 1780.506
731.882, 1786.679
732.364, 1799.211
732.846, 1802.653
733.328, 1794.021
733.811, 1791.154
734.293, 1796.621
734.775, 1801.949
735.257, 1796.757
735.739, 1783.412
736.221, 1780.771
736.703, 1792.133
737.185, 1803.705
737.667, 1799.594
738.150, 1787.698
738.632, 1779.435
739.114, 1778.956
739.596, 1779.704
740.078, 1779.181
740.560, 1778.484
741.042, 1779.384
741.524, 1785.807
742.007, 1786.241
742.489, 1775.195
742.971, 1761.638
743.453, 1764.522
743.935, 1783.954
744.417, 1803.233
744.899, 1819.974
745.381, 1830.022
745.864, 1821.844
746.346, 1801.149
746.828, 1784.278
747.310, 1780.412
747.792, 1781.400
748.274, 1780.477
748.756, 1784.226
749.238, 1786.840
749.721, 1788.382
750.203, 1785.636
750.685, 1788.427
751.167, 1788.998
751.649, 1789.479
752.131, 1793.049
752.613, 1790.927
753.095, 1794.447
753.577, 1795.716
754.060, 1798.015
754.542, 1798.081
755.024, 1798.837
755.506, 1801.827
755.988, 1803.580
756.470, 1803.389
756.952, 1805.754
757.434, 1803.554
757.916, 1805.359
758.399, 1808.893
758.881, 1808.815
759.363, 1809.206
759.845, 1803.633
760.327, 1778.576
760.809, 1753.401
761.291, 1747.489
761.773, 1757.019
762.255, 1772.714
762.738, 1795.623
763.220, 1811.024
763.702, 1797.599
764.184, 1774.560
764.666, 1763.908
765.148, 1781.181
765.630, 1792.450
766.112, 1784.020
766.594, 1771.683
767.077, 1773.333
767.559, 1793.696
768.041, 1810.863
768.523, 1823.092
769.005, 1829.335
769.487, 1825.813
769.969, 1814.490
770.451, 1802.672
770.934, 1789.652
771.416, 1782.259
771.898, 1791.381
772.380, 1809.672
772.862, 1823.489
773.344, 1827.919
773.826, 1828.534
774.308, 1825.621
774.791, 1820.116
775.273, 1813.391
775.755, 1804.737
776.237, 1797.859
776.719, 1794.752
777.201, 1793.201
777.683, 1784.606
778.165, 1771.505
778.648, 1766.703
779.130, 1786.399
779.612, 1809.135
780.094, 1816.742
780.576, 1811.720
781.058, 1804.401
781.540, 1793.365
782.022, 1785.136
782.504, 1780.575
782.987, 1780.075
783.469, 1789.602
783.951, 1814.403
784.433, 1828.967
784.915, 1814.743
785.397, 1783.296
785.879, 1772.652
786.361, 1780.643
786.843, 1791.101
787.326, 1797.394
787.808, 1798.962
788.290, 1791.000
788.772, 1774.295
789.254, 1767.526
789.736, 1790.648
790.218, 1809.367
790.700, 1805.935
791.182, 1779.066
791.665, 1772.280
792.147, 1788.758
792.629, 1809.915
793.111, 1828.169
793.593, 1840.538
794.075, 1833.979
794.557, 1808.947
795.039, 1789.017
795.521, 1801.794
796.004, 1818.885
796.486, 1814.740
796.968, 1781.145
797.450, 1760.429
797.932, 1763.358
798.414, 1773.258
798.896, 1780.756
799.378, 1785.360
799.860, 1795.087
800.343, 1811.808
800.825, 1822.313
801.307, 1805.547
801.789, 1776.488
802.271, 1768.057
802.753, 1785.543
803.235, 1802.109
803.718, 1798.486
804.200, 1789.594
804.682, 1788.661
805.164, 1804.639
805.646, 1808.979
806.128, 1795.527
806.610, 1778.539
807.092, 1770.705
807.574, 1771.837
808.057, 1772.573
808.539, 1772.671
809.021, 1769.848
809.503, 1753.842
809.985, 1736.187
810.467, 1738.367
810.949, 1770.510
811.431, 1795.866
811.914, 1792.401
812.396, 1779.473
812.878, 1774.944
813.360, 1786.099
813.842, 1789.809
814.324, 1784.805
814.806, 1774.729
815.288, 1757.943
815.770, 1737.854
816.253, 1735.990
816.735, 1757.742
817.217, 1782.602
817.699, 1797.231
818.181, 1801.503
818.663, 1793.295
819.145, 1762.103
819.627, 1741.229
820.109, 1747.096
820.592, 1760.178
821.074, 1763.404
821.556, 1753.548
822.038, 1748.689
822.520, 1750.699
823.002, 1755.872
823.484, 1762.160
823.966, 1767.912
824.448, 1767.432
824.931, 1757.010
825.413, 1750.116
825.895, 1760.120
826.377, 1776.174
826.859, 1787.120
827.341, 1790.154
827.823, 1788.191
828.305, 1778.286
828.787, 1766.826
829.270, 1762.059
829.752, 1763.920
830.234, 1760.911
830.716, 1749.666
831.198, 1743.219
831.680, 1766.057
832.162, 1799.704
832.644, 1814.620
833.127, 1798.244
833.609, 1777.993
834.091, 1756.994
834.573, 1740.952
835.055, 1735.742
835.537, 1746.994
836.019, 1753.556
836.501, 1754.026
836.984, 1751.230
837.466, 1747.746
837.948, 1743.775
838.430, 1739.058
838.912, 1732.719
839.394, 1729.999
839.876, 1740.444
840.358, 1753.984
840.841, 1759.209
841.323, 1747.071
841.805, 1740.878
842.287, 1745.965
842.769, 1753.078
843.251, 1750.892
843.733, 1738.292
844.215, 1740.851
844.697, 1763.428
845.180, 1784.536
845.662, 1777.404
846.144, 1754.863
846.626, 1735.627
847.108, 1722.605
847.590, 1715.515
848.072, 1718.611
848.554, 1724.776
849.036, 1728.468
849.519, 1730.390
850.001, 1727.122
850.483, 1717.668
850.965, 1705.778
851.447, 1693.255
851.929, 1681.220
852.411, 1673.473
852.893, 1670.396
853.375, 1670.675
853.858, 1676.473
854.340, 1683.197
854.822, 1687.064
855.304, 1687.529
855.786, 1684.637
856.268, 1675.559
856.750, 1667.113
857.232, 1664.081
857.714, 1666.521
858.197, 1669.391
858.679, 1672.713
859.161, 1675.128
859.643, 1674.303
860.125, 1672.505
860.607, 1672.792
861.089, 1675.525
861.571, 1678.182
862.054, 1680.996
862.536, 1682.333
863.018, 1680.523
863.500, 1675.079
863.982, 1675.193
864.464, 1682.628
864.946, 1687.586
865.428, 1679.806
865.911, 1665.458
866.393, 1659.013
866.875, 1660.364
867.357, 1664.137
867.839, 1671.275
868.321, 1676.241
868.803, 1673.685
869.285, 1663.272
869.767, 1659.287
870.250, 1664.267
870.732, 1670.620
871.214, 1674.856
871.696, 1677.916
872.178, 1687.176
872.660, 1701.158
873.142, 1706.470
873.624, 1682.785
874.106, 1657.082
874.589, 1656.499
875.071, 1675.720
875.553, 1687.295
876.035, 1679.989
876.517, 1670.061
876.999, 1659.202
877.481, 1648.920
877.963, 1645.341
878.445, 1648.513
878.928, 1653.424
879.410, 1659.130
879.892, 1664.196
880.374, 1665.032
880.856, 1663.791
881.338, 1665.619
881.820, 1680.275
882.302, 1689.167
882.784, 1684.180
883.267, 1671.136
883.749, 1657.629
884.231, 1641.035
884.713, 1641.579
885.195, 1670.071
885.677, 1703.302
886.159, 1701.251
886.641, 1677.003
887.124, 1660.161
887.606, 1663.549
888.088, 1669.977
888.570, 1675.976
889.052, 1678.625
889.534, 1672.509
890.016, 1647.600
890.498, 1642.785
890.981, 1666.867
891.463, 1695.647
891.945, 1694.065
892.427, 1671.905
892.909, 1660.283
893.391, 1665.457
893.873, 1675.155
894.355, 1685.187
894.838, 1692.938
895.320, 1695.491
895.802, 1690.384
896.284, 1686.068
896.766, 1684.423
897.248, 1680.102
897.730, 1661.783
898.212, 1634.957
898.694, 1640.146
899.177, 1678.523
899.659, 1709.457
900.141, 1691.245
900.623, 1659.699
901.105, 1646.508
901.587, 1655.434
902.069, 1659.579
902.551, 1653.688
903.033, 1645.984
903.516, 1638.137
903.998, 1631.111
904.480, 1610.627
904.962, 1637.738
905.444, 1653.296
905.926, 1657.921
906.408, 1618.871
906.890, 1636.219
907.372, 1630.964
907.855, 1624.784
908.337, 1650.069
908.819, 1617.371
909.301, 1642.158
909.783, 1643.998
910.265, 1656.340
910.747, 1645.940
911.229, 1642.565
911.711, 1661.938
912.194, 1643.414
912.676, 1651.423
913.158, 1671.019
913.640, 1681.864
914.122, 1664.529
914.604, 1654.781
915.086, 1665.819
915.568, 1681.563
916.051, 1677.514
916.533, 1650.624
917.015, 1645.620
917.497, 1671.715
917.979, 1702.578
918.461, 1709.039
918.943, 1701.315
919.425, 1692.811
919.907, 1684.571
920.390, 1681.955
920.872, 1693.407
921.354, 1705.585
921.836, 1708.765
922.318, 1701.157
922.800, 1699.771
923.282, 1705.008
923.764, 1712.990
924.247, 1726.536
924.729, 1737.658
925.211, 1726.950
925.693, 1696.452
926.175, 1681.488
926.657, 1723.124
927.139, 1754.959
927.621, 1739.545
928.104, 1688.161
928.586, 1674.098
929.068, 1701.772
929.550, 1730.209
930.032, 1744.192
930.514, 1746.432
930.996, 1735.592
931.478, 1716.486
931.960, 1702.537
932.443, 1705.672
932.925, 1706.486
933.407, 1693.548
933.889, 1677.414
934.371, 1676.482
934.853, 1693.255
935.335, 1708.000
935.817, 1717.840
936.299, 1722.098
936.782, 1714.754
937.264, 1702.502
937.746, 1698.046
938.228, 1708.434
938.710, 1714.355
939.192, 1699.143
939.674, 1684.995
940.156, 1691.345
940.638, 1724.466
941.121, 1736.852
941.603, 1726.454
942.085, 1711.217
942.567, 1703.567
943.049, 1701.763
943.531, 1703.835
944.013, 1709.533
944.495, 1717.288
944.977, 1734.899
945.460, 1744.932
945.942, 1735.384
946.424, 1711.585
946.906, 1712.612
947.388, 1740.308
947.870, 1756.856
948.352, 1735.965
948.834, 1706.738
949.317, 1712.015
949.799, 1739.500
950.281, 1761.384
950.763, 1762.017
951.245, 1763.073
951.727, 1769.927
952.209, 1778.483
952.691, 1783.651
953.174, 1785.481
953.656, 1778.969
954.138, 1760.766
954.620, 1746.585
955.102, 1757.585
955.584, 1780.010
956.066, 1795.886
956.548, 1799.078
957.031, 1807.814
957.513, 1835.304
957.995, 1857.367
958.477, 1854.630
958.959, 1828.782
959.441, 1827.731
959.923, 1851.243
960.405, 1872.744
960.887, 1870.013
961.370, 1860.096
961.852, 1856.873
962.334, 1860.592
962.816, 1869.421
963.298, 1884.912
963.780, 1902.490
964.262, 1920.691
964.744, 1940.960
965.226, 1967.643
965.709, 1999.951
966.191, 2033.827
966.673, 2072.121
967.155, 2103.431
967.637, 2107.115
968.119, 2102.615
968.601, 2115.864
969.083, 2156.726
969.565, 2207.117
970.048, 2272.030
970.530, 2337.786
971.012, 2386.561
971.494, 2425.186
971.976, 2477.830
972.458, 2547.137
972.940, 2633.411
973.422, 2741.620
973.904, 2865.050
974.387, 2998.012
974.869, 3141.876
975.351, 3306.309
975.833, 3493.389
976.315, 3691.879
976.797, 3894.650
977.279, 4104.720
977.761, 4331.462
978.244, 4576.608
978.726, 4847.776
979.208, 5141.759
979.690, 5468.476
980.172, 5838.472
980.654, 6243.745
981.136, 6682.207
981.618, 7156.841
982.101, 7644.657
982.583, 8139.389
983.065, 8657.130
983.547, 9212.397
984.029, 9798.868
984.511, 10407.210
984.993, 11043.780
985.475, 11663.200
985.957, 12329.080
986.440, 12894.220
986.922, 13312.650
987.404, 13577.660
987.886, 13582.010
988.368, 13328.680
988.850, 12933.030
989.332, 12406.470
989.814, 11813.510
990.296, 11198.400
990.779, 10568.850
991.261, 9926.480
991.743, 9253.631
992.225, 8607.870
992.707, 8001.227
993.189, 7415.835
993.671, 6829.858
994.153, 6244.990
994.635, 5671.070
995.118, 5100.796
995.600, 4582.841
996.082, 4151.409
996.564, 3786.733
997.046, 3479.831
997.528, 3233.728
998.010, 3019.952
998.492, 2838.316
998.974, 2687.826
999.457, 2575.375
999.939, 2490.005
1000.421, 2415.539
1000.903, 2349.223
1001.385, 2281.015
1001.867, 2191.546
1002.349, 2117.025
1002.831, 2080.173
1003.314, 2063.551
1003.796, 2032.964
1004.278, 1985.685
1004.760, 1960.282
1005.242, 1968.584
1005.724, 1981.428
1006.206, 1963.205
1006.688, 1930.870
1007.171, 1906.342
1007.653, 1895.346
1008.135, 1884.007
1008.617, 1868.731
1009.099, 1855.176
1009.581, 1848.330
1010.063, 1846.516
1010.545, 1836.423
1011.027, 1819.193
1011.510, 1803.959
1011.992, 1795.852
1012.474, 1792.080
1012.956, 1797.061
1013.438, 1804.612
1013.920, 1794.902
1014.402, 1756.269
1014.884, 1735.827
1015.367, 1745.229
1015.849, 1764.391
1016.331, 1765.672
1016.813, 1754.982
1017.295, 1743.708
1017.777, 1733.770
1018.259, 1725.534
1018.741, 1721.414
1019.223, 1716.958
1019.706, 1707.699
1020.188, 1693.803
1020.670, 1693.075
1021.152, 1705.833
1021.634, 1716.880
1022.116, 1713.829
1022.598, 1707.115
1023.080, 1706.075
1023.563, 1709.959
1024.045, 1716.773
1024.527, 1731.667
1025.009, 1740.886
1025.491, 1743.987
1025.973, 1738.985
1026.455, 1713.607
1026.937, 1676.976
1027.419, 1666.010
1027.901, 1689.068
1028.384, 1713.424
1028.866, 1722.419
1029.348, 1722.130
1029.830, 1715.065
1030.312, 1701.838
1030.794, 1686.298
1031.276, 1666.791
1031.758, 1657.351
1032.241, 1672.123
1032.723, 1694.087
1033.205, 1695.651
1033.687, 1685.179
1034.169, 1681.777
1034.651, 1701.877
1035.133, 1715.240
1035.615, 1716.786
1036.098, 1712.321
1036.580, 1706.191
1037.062, 1699.431
1037.544, 1700.838
1038.026, 1711.502
1038.508, 1722.229
1038.990, 1728.415
1039.472, 1730.401
1039.954, 1725.698
1040.437, 1715.163
1040.919, 1713.052
1041.401, 1721.688
1041.883, 1729.502
1042.365, 1732.854
1042.847, 1732.542
1043.329, 1725.501
1043.811, 1716.685
1044.293, 1716.529
1044.776, 1734.121
1045.258, 1750.695
1045.740, 1767.634
1046.222, 1777.103
1046.704, 1767.424
1047.186, 1740.121
1047.668, 1726.396
1048.150, 1726.939
1048.633, 1739.095
1049.115, 1778.153
1049.597, 1812.854
1050.079, 1814.119
1050.561, 1788.484
1051.043, 1777.655
1051.525, 1785.013
1052.007, 1798.590
1052.490, 1816.663
1052.972, 1837.467
1053.454, 1865.112
1053.936, 1891.594
1054.418, 1898.126
1054.900, 1870.820
1055.382, 1859.711
1055.864, 1893.267
1056.346, 1929.730
1056.828, 1943.737
1057.311, 1938.627
1057.793, 1951.176
1058.275, 1979.398
1058.757, 2001.218
1059.239, 1990.522
1059.721, 1983.163
1060.203, 2010.204
1060.685, 2056.424
1061.168, 2088.726
1061.650, 2105.938
1062.132, 2106.767
1062.614, 2086.942
1063.096, 2067.098
1063.578, 2070.784
1064.060, 2089.351
1064.542, 2111.629
1065.025, 2136.415
1065.507, 2159.709
1065.989, 2184.930
1066.471, 2201.013
1066.953, 2199.334
1067.435, 2188.067
1067.917, 2199.253
1068.399, 2228.141
1068.881, 2247.802
1069.364, 2243.251
1069.846, 2237.773
1070.328, 2250.160
1070.810, 2266.552
1071.292, 2270.139
1071.774, 2254.974
1072.256, 2256.055
1072.738, 2276.585
1073.220, 2289.476
1073.703, 2259.416
1074.185, 2219.431
1074.667, 2214.981
1075.149, 2238.970
1075.631, 2256.935
1076.113, 2260.508
1076.595, 2257.730
1077.077, 2249.109
1077.559, 2235.775
1078.042, 2215.989
1078.524, 2193.246
1079.006, 2177.965
1079.488, 2172.554
1079.970, 2170.570
1080.452, 2174.177
1080.934, 2174.697
1081.416, 2166.013
1081.899, 2149.517
1082.381, 2136.304
1082.863, 2126.433
1083.345, 2122.975
1083.827, 2132.898
1084.309, 2141.344
1084.791, 2130.640
1085.273, 2110.968
1085.755, 2098.282
1086.238, 2096.360
1086.720, 2098.430
1087.202, 2107.203
1087.684, 2110.884
1088.166, 2093.278
1088.648, 2066.275
1089.130, 2051.251
1089.612, 2047.941
1090.094, 2048.815
1090.577, 2052.476
1091.059, 2059.303
1091.541, 2073.719
1092.023, 2086.916
1092.505, 2076.321
1092.987, 2048.343
1093.469, 2035.728
1093.951, 2045.594
1094.434, 2063.332
1094.916, 2086.664
1095.398, 2108.156
1095.880, 2120.516
1096.362, 2124.656
1096.844, 2135.819
1097.326, 2154.698
1097.808, 2168.257
1098.291, 2167.965
1098.773, 2164.000
1099.255, 2168.520
1099.737, 2176.801
1100.219, 2181.344
1100.701, 2175.697
1101.183, 2177.009
1101.665, 2187.090
1102.147, 2199.176
1102.630, 2209.018
1103.112, 2216.098
1103.594, 2218.648
1104.076, 2217.188
1104.558, 2214.761
1105.040, 2204.703
1105.522, 2204.977
1106.004, 2223.282
1106.486, 2249.150
1106.969, 2264.909
1107.451, 2272.122
1107.933, 2278.252
1108.415, 2284.073
1108.897, 2292.625
1109.379, 2306.390
1109.861, 2323.178
1110.343, 2341.308
1110.826, 2360.958
1111.308, 2386.839
1111.790, 2419.278
1112.272, 2446.623
1112.754, 2466.034
1113.236, 2476.593
1113.718, 2466.771
1114.200, 2452.692
1114.682, 2456.634
1115.165, 2487.474
1115.647, 2516.095
1116.129, 2543.338
1116.611, 2564.476
1117.093, 2567.996
1117.575, 2567.778
1118.057, 2592.645
1118.539, 2634.690
1119.021, 2669.716
1119.504, 2682.306
1119.986, 2697.626
1120.468, 2718.112
1120.950, 2743.323
1121.432, 2774.441
1121.914, 2809.759
1122.396, 2845.566
1122.878, 2881.396
1123.361, 2914.128
1123.843, 2944.823
1124.325, 2968.162
1124.807, 2975.585
1125.289, 2978.012
1125.771, 3008.540
1126.253, 3064.293
1126.735, 3116.180
1127.218, 3157.863
1127.700, 3191.547
1128.182, 3210.167
1128.664, 3227.840
1129.146, 3259.912
1129.628, 3305.895
1130.110, 3341.951
1130.592, 3367.751
1131.074, 3386.603
1131.557, 3402.388
1132.039, 3408.507
1132.521, 3401.161
1133.003, 3377.944
1133.485, 3332.874
1133.967, 3250.359
1134.449, 3181.081
1134.931, 3126.736
1135.413, 3078.474
1135.896, 3034.918
1136.378, 2990.655
1136.860, 2935.650
1137.342, 2871.635
1137.824, 2803.816
1138.306, 2724.694
1138.788, 2654.874
1139.270, 2596.296
1139.752, 2547.120
1140.235, 2505.658
1140.717, 2471.309
1141.199, 2445.597
1141.681, 2428.339
1142.163, 2403.455
1142.645, 2350.690
1143.127, 2304.626
1143.609, 2278.717
1144.092, 2267.031
1144.574, 2261.459
1145.056, 2259.004
1145.538, 2240.958
1146.020, 2199.171
1146.502, 2160.435
1146.984, 2142.944
1147.466, 2134.592
1147.948, 2129.326
1148.431, 2126.088
1148.913, 2109.238
1149.395, 2079.437
1149.877, 2057.221
1150.359, 2056.852
1150.841, 2057.304
1151.323, 2039.408
1151.805, 2014.267
1152.287, 1995.935
1152.770, 1986.313
1153.252, 1975.956
1153.734, 1964.632
1154.216, 1953.598
1154.698, 1943.064
1155.180, 1933.922
1155.662, 1928.982
1156.144, 1926.051
1156.627, 1918.507
1157.109, 1900.591
1157.591, 1894.111
1158.073, 1902.726
1158.555, 1914.633
1159.037, 1921.808
1159.519, 1923.110
1160.001, 1914.448
1160.484, 1897.123
1160.966, 1881.775
1161.448, 1868.216
1161.930, 1861.413
1162.412, 1864.545
1162.894, 1869.548
1163.376, 1861.491
1163.858, 1847.744
1164.340, 1846.380
1164.823, 1861.499
1165.305, 1861.718
1165.787, 1819.806
1166.269, 1807.108
1166.751, 1820.902
1167.233, 1828.264
1167.715, 1829.542
1168.197, 1806.510
1168.679, 1814.870
1169.162, 1810.647
1169.644, 1805.910
1170.126, 1818.687
1170.608, 1799.191
1171.090, 1811.691
1171.572, 1811.418
1172.054, 1816.991
1172.536, 1809.906
1173.019, 1806.729
1173.501, 1816.216
1173.983, 1818.692
1174.465, 1810.150
1174.947, 1802.821
1175.429, 1792.128
1175.911, 1778.234
1176.393, 1777.128
1176.875, 1787.114
1177.358, 1789.959
1177.840, 1765.319
1178.322, 1741.440
1178.804, 1736.771
1179.286, 1739.322
1179.768, 1732.489
1180.250, 1716.296
1180.732, 1699.804
1181.214, 1683.700
1181.697, 1672.578
1182.179, 1674.872
1182.661, 1678.154
1183.143, 1673.798
1183.625, 1663.921
1184.107, 1653.282
1184.589, 1641.581
1185.071, 1634.609
1185.554, 1633.594
1186.036, 1634.421
1186.518, 1635.143
1187.000, 1634.836
1187.482, 1633.212
1187.964, 1629.949
1188.446, 1621.743
1188.928, 1607.532
1189.411, 1599.597
1189.893, 1602.842
1190.375, 1607.365
1190.857, 1596.797
1191.339, 1586.353
1191.821, 1599.036
1192.303, 1637.579
1192.785, 1637.405
1193.267, 1591.447
1193.750, 1560.269
1194.232, 1573.565
1194.714, 1600.669
1195.196, 1614.242
1195.678, 1616.590
1196.160, 1607.661
1196.642, 1582.378
1197.124, 1573.150
1197.606, 1582.333
1198.089, 1593.167
1198.571, 1597.469
1199.053, 1597.110
1199.535, 1590.814
1200.017, 1582.537
1200.499, 1579.601
1200.981, 1586.279
1201.463, 1590.575
1201.945, 1592.627
1202.428, 1591.347
1202.910, 1583.104
1203.392, 1573.119
1203.874, 1567.723
1204.356, 1565.891
1204.838, 1564.904
1205.320, 1564.881
1205.802, 1563.704
1206.285, 1560.583
1206.767, 1559.140
1207.249, 1561.409
1207.731, 1568.222
1208.213, 1585.640
1208.695, 1609.845
1209.177, 1622.161
1209.659, 1619.681
1210.141, 1606.726
1210.624, 1580.023
1211.106, 1557.106
1211.588, 1563.923
1212.070, 1582.086
1212.552, 1586.997
1213.034, 1577.821
1213.516, 1568.610
1213.998, 1556.378
1214.480, 1559.085
1214.963, 1586.161
1215.445, 1612.298
1215.927, 1599.120
1216.409, 1567.267
1216.891, 1540.296
1217.373, 1521.396
1217.855, 1522.920
1218.337, 1555.926
1218.820, 1575.650
1219.302, 1565.678
1219.784, 1545.164
1220.266, 1538.837
1220.748, 1541.551
1221.230, 1546.271
1221.712, 1551.617
1222.194, 1564.389
1222.677, 1589.361
1223.159, 1606.419
1223.641, 1606.853
1224.123, 1596.859
1224.605, 1583.182
1225.087, 1566.283
1225.569, 1544.164
1226.051, 1509.792
1226.533, 1503.381
1227.016, 1535.147
1227.498, 1558.213
1227.980, 1542.281
1228.462, 1515.085
1228.944, 1516.537
1229.426, 1534.295
1229.908, 1548.730
1230.390, 1556.209
1230.872, 1559.799
1231.355, 1558.883
1231.837, 1556.856
1232.319, 1556.210
1232.801, 1555.244
1233.283, 1551.590
1233.765, 1546.023
1234.247, 1539.522
1234.729, 1529.451
1235.212, 1526.534
1235.694, 1531.545
1236.176, 1539.186
1236.658, 1550.856
1237.140, 1558.669
1237.622, 1546.773
1238.104, 1525.567
1238.586, 1519.771
1239.068, 1537.197
1239.551, 1546.346
1240.033, 1545.359
1240.515, 1541.784
1240.997, 1536.833
1241.479, 1536.344
1241.961, 1552.523
1242.443, 1576.512
1242.925, 1585.076
1243.407, 1574.144
1243.890, 1565.412
1244.372, 1560.682
1244.854, 1556.418
1245.336, 1543.621
1245.818, 1535.578
1246.300, 1526.527
1246.782, 1521.633
1247.264, 1530.253
1247.747, 1535.595
1248.229, 1537.831
1248.711, 1527.665
1249.193, 1533.513
1249.675, 1532.943
1250.157, 1532.110
1250.639, 1540.212
1251.121, 1537.806
1251.604, 1540.620
1252.086, 1547.722
1252.568, 1543.147
1253.050, 1523.599
1253.532, 1510.636
1254.014, 1530.888
1254.496, 1553.304
1254.978, 1558.732
1255.460, 1551.160
1255.943, 1534.719
1256.425, 1511.157
1256.907, 1505.727
1257.389, 1524.076
1257.871, 1539.901
1258.353, 1530.084
1258.835, 1519.516
1259.317, 1523.541
1259.799, 1534.890
1260.281, 1529.458
1260.764, 1512.310
1261.246, 1510.251
1261.728, 1530.316
1262.210, 1549.443
1262.692, 1563.834
1263.174, 1564.179
1263.656, 1542.403
1264.138, 1509.212
1264.621, 1488.060
1265.103, 1478.378
1265.585, 1480.068
1266.067, 1494.647
1266.549, 1510.390
1267.031, 1527.817
1267.513, 1539.376
1267.995, 1542.202
1268.478, 1537.565
1268.960, 1522.424
1269.442, 1503.352
1269.924, 1495.983
1270.406, 1505.744
1270.888, 1515.452
1271.370, 1524.843
1271.852, 1527.807
1272.334, 1519.097
1272.817, 1506.784
1273.299, 1506.372
1273.781, 1511.907
1274.263, 1512.645
1274.745, 1504.160
1275.227, 1504.084
1275.709, 1515.045
1276.191, 1526.954
1276.673, 1536.934
1277.156, 1543.625
1277.638, 1543.889
1278.120, 1540.564
1278.602, 1537.778
1279.084, 1536.565
1279.566, 1531.228
1280.048, 1521.248
1280.530, 1511.378
1281.013, 1502.293
1281.495, 1496.554
1281.977, 1497.277
1282.459, 1502.186
1282.941, 1509.487
1283.423, 1519.000
1283.905, 1526.044
1284.387, 1530.688
1284.870, 1534.326
1285.352, 1537.858
1285.834, 1539.872
1286.316, 1539.319
1286.798, 1536.747
1287.280, 1532.718
1287.762, 1527.316
1288.244, 1520.143
1288.726, 1512.038
1289.208, 1507.377
1289.691, 1509.613
1290.173, 1512.609
1290.655, 1512.347
1291.137, 1514.206
1291.619, 1526.081
1292.101, 1541.530
1292.583, 1525.878
1293.065, 1491.173
1293.548, 1474.968
1294.030, 1507.333
1294.512, 1522.964
1294.994, 1506.792
1295.476, 1486.994
1295.958, 1480.039
1296.440, 1482.503
1296.922, 1486.331
1297.405, 1496.880
1297.887, 1520.846
1298.369, 1577.592
1298.851, 1589.024
1299.333, 1542.369
1299.815, 1497.875
1300.297, 1483.245
1300.779, 1498.482
##END=



