##NAMES=Orthoclase
##RRUFFID=R060077
##IDEAL CHEMISTRY=KAlSi_3_O_8_
##LOCALITY=pegmatite near Minh Tien, 15 km south of Luc Yen, Vietnam
##OWNER=RRUFF
##SOURCE=Marcus Origlieri
##DESCRIPTION=Green fragment. Crystal structure determined to demonstrate that it is orthoclase
##STATUS=The identification of this mineral has been confirmed by X-ray diffraction and chemical analysis
##URL=rruff.info/R060077
##MEASURED CHEMISTRY=(K_0.88_Na_0.12_)AlSi_3_O_8_
93.46680, 5331.961
93.94891, 5212.625
94.43103, 5229.358
94.91315, 5349.289
95.39526, 5471.180
95.87738, 5569.634
96.35950, 5654.601
96.84161, 5725.708
97.32373, 5786.869
97.80585, 5836.200
98.28796, 5875.933
98.77008, 5907.509
99.25220, 5933.463
99.73431, 5955.988
100.2164, 5974.680
100.6985, 5978.551
101.1807, 5981.328
101.6628, 5987.079
102.1449, 5997.539
102.6270, 6013.240
103.1091, 6032.666
103.5912, 6050.062
104.0734, 6060.535
104.5555, 6073.041
105.0376, 6089.350
105.5197, 6108.553
106.0018, 6128.564
106.4839, 6147.541
106.9661, 6165.156
107.4482, 6183.460
107.9303, 6200.595
108.4124, 6217.779
108.8945, 6235.192
109.3766, 6252.952
109.8588, 6272.108
110.3409, 6294.438
110.8230, 6320.455
111.3051, 6344.816
111.7872, 6365.742
112.2693, 6384.732
112.7515, 6403.751
113.2336, 6422.348
113.7157, 6442.690
114.1978, 6467.536
114.6799, 6496.577
115.1620, 6527.067
115.6442, 6556.839
116.1263, 6586.079
116.6084, 6616.787
117.0905, 6652.844
117.5726, 6688.110
118.0547, 6718.580
118.5369, 6743.306
119.0190, 6764.766
119.5011, 6786.239
119.9832, 6807.563
120.4653, 6828.903
120.9474, 6852.444
121.4296, 6874.977
121.9117, 6893.576
122.3938, 6906.933
122.8759, 6916.208
123.3580, 6925.390
123.8401, 6936.282
124.3223, 6944.768
124.8044, 6949.567
125.2865, 6951.777
125.7686, 6952.167
126.2507, 6950.632
126.7328, 6947.847
127.2150, 6953.480
127.6971, 6968.967
128.1792, 6989.000
128.6613, 7010.888
129.1434, 7035.045
129.6255, 7063.967
130.1077, 7100.502
130.5898, 7144.775
131.0719, 7190.677
131.5540, 7236.711
132.0361, 7285.335
132.5182, 7339.462
133.0004, 7399.602
133.4825, 7463.898
133.9646, 7532.058
134.4467, 7603.506
134.9288, 7676.313
135.4109, 7747.929
135.8931, 7819.852
136.3752, 7899.533
136.8573, 7993.453
137.3394, 8087.190
137.8215, 8174.266
138.3036, 8254.889
138.7858, 8329.575
139.2679, 8399.898
139.7500, 8466.411
140.2321, 8523.983
140.7142, 8569.282
141.1963, 8607.970
141.6785, 8640.639
142.1606, 8668.076
142.6427, 8692.407
143.1248, 8716.439
143.6069, 8742.135
144.0890, 8762.454
144.5712, 8771.802
145.0533, 8780.354
145.5354, 8794.522
146.0175, 8816.220
146.4996, 8844.077
146.9817, 8875.841
147.4639, 8912.256
147.9460, 8952.104
148.4281, 8992.755
148.9102, 9037.693
149.3923, 9092.438
149.8744, 9159.955
150.3566, 9235.658
150.8387, 9310.056
151.3208, 9382.030
151.8029, 9456.232
152.2850, 9533.468
152.7671, 9614.149
153.2493, 9698.837
153.7314, 9789.888
154.2135, 9883.901
154.6956, 9976.314
155.1777, 10068.76
155.6598, 10154.78
156.1420, 10230.38
156.6241, 10295.50
157.1062, 10347.12
157.5883, 10379.60
158.0704, 10398.01
158.5525, 10406.30
159.0347, 10406.29
159.5168, 10393.73
159.9989, 10361.29
160.4810, 10306.10
160.9631, 10236.15
161.4452, 10150.43
161.9274, 10055.18
162.4095, 9954.074
162.8916, 9848.610
163.3737, 9740.304
163.8558, 9634.816
164.3379, 9530.253
164.8201, 9431.615
165.3022, 9343.750
165.7843, 9260.878
166.2664, 9174.233
166.7485, 9076.987
167.2306, 8972.725
167.7128, 8889.454
168.1949, 8847.705
168.6770, 8804.845
169.1591, 8746.592
169.6412, 8679.714
170.1233, 8619.429
170.6055, 8577.084
171.0876, 8552.044
171.5697, 8524.022
172.0518, 8486.368
172.5339, 8452.392
173.0160, 8430.636
173.4982, 8419.421
173.9803, 8409.434
174.4624, 8394.108
174.9445, 8373.184
175.4266, 8350.999
175.9087, 8325.362
176.3909, 8299.822
176.8730, 8278.226
177.3551, 8260.871
177.8372, 8243.335
178.3193, 8221.951
178.8014, 8197.494
179.2836, 8172.759
179.7657, 8147.355
180.2478, 8122.260
180.7299, 8098.161
181.2120, 8074.502
181.6941, 8053.959
182.1763, 8038.270
182.6584, 8026.649
183.1405, 8018.679
183.6226, 8015.302
184.1047, 8015.424
184.5868, 8015.502
185.0690, 8015.284
185.5511, 8015.331
186.0332, 8016.193
186.5153, 8017.435
186.9974, 8018.148
187.4795, 8017.170
187.9617, 8014.760
188.4438, 8014.731
188.9259, 8018.455
189.4080, 8023.486
189.8901, 8028.825
190.3722, 8034.820
190.8544, 8042.265
191.3365, 8051.619
191.8186, 8062.891
192.3007, 8077.221
192.7828, 8097.171
193.2649, 8117.967
193.7471, 8138.821
194.2292, 8159.224
194.7113, 8178.900
195.1934, 8197.757
195.6755, 8216.521
196.1576, 8229.782
196.6398, 8236.383
197.1219, 8239.966
197.6040, 8242.351
198.0861, 8243.479
198.5682, 8242.095
199.0503, 8236.867
199.5325, 8227.111
200.0146, 8215.411
200.4967, 8198.315
200.9788, 8181.852
201.4609, 8170.569
201.9430, 8164.669
202.4252, 8160.497
202.9073, 8153.969
203.3894, 8144.695
203.8715, 8139.920
204.3536, 8141.649
204.8357, 8147.063
205.3179, 8154.745
205.8000, 8164.743
206.2821, 8173.837
206.7642, 8177.178
207.2463, 8176.077
207.7284, 8178.904
208.2106, 8192.624
208.6927, 8209.331
209.1748, 8216.941
209.6569, 8212.577
210.1390, 8205.980
210.6211, 8204.405
211.1033, 8206.841
211.5854, 8211.949
212.0675, 8219.697
212.5496, 8229.734
213.0317, 8241.741
213.5138, 8256.612
213.9960, 8271.395
214.4781, 8284.021
214.9602, 8295.152
215.4423, 8306.105
215.9244, 8317.019
216.4065, 8328.200
216.8886, 8340.877
217.3708, 8356.167
217.8529, 8371.322
218.3350, 8385.728
218.8171, 8399.102
219.2992, 8410.851
219.7813, 8419.876
220.2635, 8426.823
220.7456, 8435.995
221.2277, 8448.186
221.7098, 8461.982
222.1919, 8478.464
222.6740, 8495.983
223.1562, 8511.953
223.6383, 8524.418
224.1204, 8533.638
224.6025, 8542.559
225.0846, 8548.413
225.5667, 8557.026
226.0489, 8571.225
226.5310, 8589.123
227.0131, 8607.323
227.4952, 8623.624
227.9773, 8638.053
228.4594, 8652.590
228.9416, 8667.399
229.4237, 8682.018
229.9058, 8695.568
230.3879, 8708.833
230.8700, 8722.867
231.3521, 8738.338
231.8343, 8755.311
232.3164, 8774.728
232.7985, 8803.179
233.2806, 8826.792
233.7627, 8837.730
234.2448, 8841.057
234.7270, 8847.541
235.2091, 8864.488
235.6912, 8890.418
236.1733, 8911.067
236.6554, 8920.129
237.1375, 8931.920
237.6197, 8952.285
238.1018, 8978.856
238.5839, 9006.786
239.0660, 9033.890
239.5481, 9059.568
240.0302, 9080.496
240.5124, 9095.345
240.9945, 9108.002
241.4766, 9117.907
241.9587, 9126.407
242.4408, 9136.237
242.9229, 9148.025
243.4051, 9163.154
243.8872, 9186.116
244.3693, 9222.002
244.8514, 9257.021
245.3335, 9284.627
245.8156, 9306.371
246.2978, 9326.637
246.7799, 9346.558
247.2620, 9366.927
247.7441, 9389.405
248.2262, 9413.881
248.7083, 9440.134
249.1905, 9468.406
249.6726, 9498.401
250.1547, 9529.470
250.6368, 9561.676
251.1189, 9594.900
251.6010, 9629.311
252.0832, 9665.712
252.5653, 9700.238
253.0474, 9729.622
253.5295, 9754.998
254.0116, 9782.077
254.4937, 9811.760
254.9759, 9844.698
255.4580, 9880.892
255.9401, 9920.394
256.4222, 9961.970
256.9043, 10006.26
257.3864, 10052.44
257.8686, 10095.61
258.3507, 10131.94
258.8328, 10168.77
259.3149, 10212.31
259.7970, 10261.98
260.2791, 10313.26
260.7613, 10363.16
261.2434, 10411.99
261.7255, 10462.50
262.2076, 10515.63
262.6897, 10569.37
263.1718, 10622.92
263.6540, 10676.11
264.1361, 10728.43
264.6182, 10779.86
265.1003, 10830.13
265.5824, 10878.87
266.0645, 10925.29
266.5467, 10970.83
267.0288, 11015.08
267.5109, 11059.17
267.9930, 11105.17
268.4751, 11154.19
268.9572, 11206.11
269.4394, 11260.61
269.9215, 11316.50
270.4036, 11377.75
270.8857, 11449.49
271.3678, 11526.13
271.8499, 11598.90
272.3321, 11662.51
272.8142, 11719.46
273.2963, 11776.88
273.7784, 11832.78
274.2605, 11892.26
274.7426, 11959.17
275.2248, 12029.09
275.7069, 12096.19
276.1890, 12158.17
276.6711, 12215.86
277.1532, 12271.68
277.6353, 12329.45
278.1175, 12377.47
278.5996, 12414.78
279.0817, 12442.84
279.5638, 12462.20
280.0459, 12473.17
280.5280, 12477.73
281.0102, 12481.45
281.4923, 12492.56
281.9744, 12483.91
282.4565, 12446.42
282.9386, 12395.76
283.4207, 12342.63
283.9029, 12290.17
284.3850, 12236.16
284.8671, 12176.83
285.3492, 12110.09
285.8313, 12042.95
286.3134, 11974.05
286.7956, 11905.94
287.2777, 11839.54
287.7598, 11775.46
288.2419, 11713.93
288.7240, 11654.43
289.2061, 11596.17
289.6883, 11544.54
290.1704, 11501.63
290.6525, 11462.93
291.1346, 11427.27
291.6167, 11394.08
292.0988, 11362.96
292.5810, 11333.45
293.0631, 11305.50
293.5452, 11279.96
294.0273, 11258.00
294.5094, 11237.12
294.9915, 11217.94
295.4737, 11199.23
295.9558, 11177.98
296.4379, 11151.23
296.9200, 11119.74
297.4021, 11097.31
297.8842, 11089.34
298.3664, 11085.39
298.8485, 11085.66
299.3306, 11088.36
299.8127, 11091.48
300.2948, 11093.98
300.7769, 11095.75
301.2591, 11096.18
301.7412, 11094.08
302.2233, 11091.98
302.7054, 11086.81
303.1875, 11083.05
303.6696, 11087.01
304.1518, 11101.08
304.6339, 11120.15
305.1160, 11133.33
305.5981, 11135.96
306.0802, 11138.90
306.5623, 11140.65
307.0445, 11143.73
307.5266, 11149.44
308.0087, 11158.39
308.4908, 11171.69
308.9729, 11191.95
309.4550, 11225.24
309.9372, 11249.77
310.4193, 11260.82
310.9014, 11268.64
311.3835, 11279.75
311.8656, 11294.32
312.3477, 11308.16
312.8299, 11316.48
313.3120, 11317.97
313.7941, 11323.35
314.2762, 11332.76
314.7583, 11345.23
315.2404, 11360.74
315.7226, 11379.02
316.2047, 11399.91
316.6868, 11423.46
317.1689, 11449.41
317.6510, 11474.19
318.1331, 11502.50
318.6153, 11524.41
319.0974, 11531.98
319.5795, 11532.73
320.0616, 11538.25
320.5437, 11554.69
321.0258, 11578.76
321.5080, 11599.79
321.9901, 11614.45
322.4722, 11629.76
322.9543, 11647.67
323.4364, 11665.68
323.9185, 11680.85
324.4007, 11692.26
324.8828, 11702.31
325.3649, 11714.76
325.8470, 11729.31
326.3291, 11747.71
326.8112, 11772.41
327.2934, 11798.82
327.7755, 11825.64
328.2576, 11851.74
328.7397, 11874.63
329.2218, 11890.90
329.7039, 11898.31
330.1861, 11910.37
330.6682, 11929.67
331.1503, 11950.49
331.6324, 11972.38
332.1145, 11993.95
332.5966, 12011.99
333.0788, 12023.51
333.5609, 12029.09
334.0430, 12039.17
334.5251, 12057.31
335.0072, 12076.45
335.4893, 12096.05
335.9715, 12115.55
336.4536, 12132.87
336.9357, 12146.58
337.4178, 12160.43
337.8999, 12186.14
338.3820, 12238.27
338.8642, 12280.80
339.3463, 12308.21
339.8284, 12327.38
340.3105, 12343.62
340.7926, 12358.76
341.2747, 12372.13
341.7568, 12382.26
342.2390, 12386.67
342.7211, 12393.92
343.2032, 12403.67
343.6853, 12416.04
344.1674, 12432.44
344.6495, 12452.03
345.1317, 12471.80
345.6138, 12488.71
346.0959, 12502.51
346.5780, 12517.75
347.0601, 12536.63
347.5422, 12554.94
348.0244, 12569.67
348.5065, 12583.23
348.9886, 12600.49
349.4707, 12624.99
349.9528, 12654.29
350.4349, 12677.90
350.9171, 12693.21
351.3992, 12706.79
351.8813, 12718.71
352.3634, 12730.36
352.8455, 12742.77
353.3276, 12756.33
353.8098, 12771.29
354.2919, 12788.44
354.7740, 12808.96
355.2561, 12827.99
355.7382, 12840.76
356.2203, 12855.17
356.7025, 12876.93
357.1846, 12905.80
357.6667, 12936.47
358.1488, 12966.10
358.6309, 12994.87
359.1130, 13014.06
359.5952, 13012.90
360.0773, 13013.88
360.5594, 13027.41
361.0415, 13049.88
361.5236, 13073.73
362.0057, 13095.77
362.4879, 13115.29
362.9700, 13129.56
363.4521, 13135.57
363.9342, 13142.81
364.4163, 13153.82
364.8984, 13167.95
365.3806, 13185.45
365.8627, 13206.86
366.3448, 13229.13
366.8269, 13248.43
367.3090, 13264.60
367.7911, 13279.68
368.2733, 13292.33
368.7554, 13305.56
369.2375, 13320.62
369.7196, 13337.84
370.2017, 13358.77
370.6838, 13386.81
371.1660, 13420.17
371.6481, 13450.82
372.1302, 13480.31
372.6123, 13502.75
373.0944, 13510.63
373.5765, 13509.17
374.0587, 13509.44
374.5408, 13513.49
375.0229, 13522.91
375.5050, 13541.81
375.9871, 13571.06
376.4692, 13601.71
376.9514, 13630.74
377.4335, 13657.72
377.9156, 13682.02
378.3977, 13703.03
378.8798, 13722.82
379.3619, 13742.64
379.8441, 13762.43
380.3262, 13781.79
380.8083, 13800.37
381.2904, 13819.02
381.7725, 13838.95
382.2546, 13860.01
382.7368, 13881.29
383.2189, 13903.86
383.7010, 13926.03
384.1831, 13944.92
384.6652, 13960.16
385.1473, 13974.64
385.6295, 13990.92
386.1116, 14008.58
386.5937, 14025.06
387.0758, 14039.93
387.5579, 14053.89
388.0400, 14065.72
388.5222, 14076.61
389.0043, 14091.26
389.4864, 14112.71
389.9685, 14137.76
390.4506, 14157.86
390.9327, 14170.08
391.4149, 14185.10
391.8970, 14205.83
392.3791, 14230.16
392.8612, 14257.03
393.3433, 14285.88
393.8254, 14313.18
394.3076, 14334.08
394.7897, 14346.60
395.2718, 14363.59
395.7539, 14387.01
396.2360, 14412.70
396.7181, 14438.66
397.2003, 14464.84
397.6824, 14491.68
398.1645, 14519.82
398.6466, 14548.55
399.1287, 14575.28
399.6108, 14598.53
400.0930, 14621.30
400.5751, 14645.09
401.0572, 14668.06
401.5393, 14688.02
402.0214, 14704.38
402.5035, 14718.95
402.9857, 14734.19
403.4678, 14749.73
403.9499, 14767.20
404.4320, 14786.83
404.9141, 14808.03
405.3962, 14829.34
405.8784, 14851.84
406.3605, 14879.19
406.8426, 14915.35
407.3247, 14958.19
407.8068, 14991.11
408.2889, 15011.65
408.7711, 15024.24
409.2532, 15024.11
409.7353, 15019.98
410.2174, 15020.94
410.6995, 15030.15
411.1816, 15044.48
411.6638, 15060.35
412.1459, 15078.18
412.6280, 15094.82
413.1101, 15105.16
413.5922, 15118.32
414.0743, 15141.03
414.5565, 15171.71
415.0386, 15202.92
415.5207, 15228.11
416.0028, 15249.73
416.4849, 15278.39
416.9670, 15319.01
417.4492, 15354.45
417.9313, 15372.52
418.4134, 15381.26
418.8955, 15389.32
419.3776, 15397.35
419.8597, 15408.59
420.3419, 15427.29
420.8240, 15452.83
421.3061, 15479.15
421.7882, 15503.67
422.2703, 15529.56
422.7524, 15561.69
423.2346, 15600.07
423.7167, 15636.19
424.1988, 15667.87
424.6809, 15695.14
425.1630, 15716.04
425.6451, 15730.21
426.1273, 15746.08
426.6094, 15770.71
427.0915, 15802.30
427.5736, 15829.74
428.0557, 15850.76
428.5378, 15870.17
429.0200, 15887.69
429.5021, 15905.26
429.9842, 15927.36
430.4663, 15955.92
430.9484, 15987.64
431.4305, 16016.94
431.9127, 16041.63
432.3948, 16069.64
432.8769, 16103.55
433.3590, 16138.71
433.8411, 16173.01
434.3232, 16205.53
434.8054, 16234.87
435.2875, 16259.29
435.7696, 16279.43
436.2517, 16302.98
436.7338, 16330.31
437.2159, 16360.83
437.6981, 16397.91
438.1802, 16436.52
438.6623, 16471.72
439.1444, 16501.67
439.6265, 16527.53
440.1086, 16549.97
440.5908, 16566.76
441.0729, 16587.64
441.5550, 16614.75
442.0371, 16644.42
442.5192, 16674.37
443.0013, 16705.68
443.4835, 16741.78
443.9656, 16786.38
444.4477, 16835.86
444.9298, 16876.50
445.4119, 16904.73
445.8940, 16933.88
446.3762, 16967.42
446.8583, 17004.44
447.3404, 17044.91
447.8225, 17088.85
448.3046, 17133.31
448.7867, 17175.47
449.2689, 17215.61
449.7510, 17257.04
450.2331, 17302.98
450.7152, 17344.04
451.1973, 17366.95
451.6794, 17378.47
452.1616, 17396.68
452.6437, 17430.54
453.1258, 17469.49
453.6079, 17504.84
454.0900, 17536.65
454.5721, 17564.57
455.0543, 17587.60
455.5364, 17607.70
456.0185, 17628.54
456.5006, 17649.58
456.9827, 17672.38
457.4648, 17699.64
457.9470, 17727.48
458.4291, 17751.26
458.9112, 17770.73
459.3933, 17789.64
459.8754, 17810.44
460.3575, 17833.36
460.8397, 17863.39
461.3218, 17910.78
461.8039, 17952.38
462.2860, 17972.12
462.7681, 17986.16
463.2502, 18018.63
463.7324, 18077.39
464.2145, 18147.13
464.6966, 18203.31
465.1787, 18239.31
465.6608, 18280.65
466.1429, 18329.46
466.6251, 18380.93
467.1072, 18432.83
467.5893, 18485.75
468.0714, 18541.17
468.5535, 18599.76
469.0356, 18661.98
469.5178, 18731.23
469.9999, 18812.61
470.4820, 18887.72
470.9641, 18948.43
471.4462, 19003.66
471.9283, 19059.46
472.4105, 19116.56
472.8926, 19171.92
473.3747, 19226.37
473.8568, 19277.76
474.3389, 19317.42
474.8210, 19344.99
475.3032, 19360.59
475.7853, 19359.51
476.2674, 19347.03
476.7495, 19332.22
477.2316, 19315.29
477.7137, 19298.32
478.1959, 19284.04
478.6780, 19271.05
479.1601, 19255.00
479.6422, 19234.65
480.1243, 19210.78
480.6064, 19182.74
481.0886, 19148.75
481.5707, 19122.90
482.0528, 19107.95
482.5349, 19099.62
483.0170, 19097.57
483.4991, 19100.03
483.9813, 19102.77
484.4634, 19103.36
484.9455, 19103.01
485.4276, 19105.16
485.9097, 19106.37
486.3918, 19115.99
486.8740, 19142.28
487.3561, 19170.72
487.8382, 19189.28
488.3203, 19198.49
488.8024, 19207.31
489.2845, 19222.41
489.7667, 19244.16
490.2488, 19276.53
490.7309, 19330.60
491.2130, 19377.41
491.6951, 19399.96
492.1772, 19417.21
492.6594, 19449.85
493.1415, 19503.02
493.6236, 19563.30
494.1057, 19616.65
494.5878, 19664.45
495.0699, 19716.62
495.5521, 19774.14
496.0342, 19836.12
496.5163, 19900.59
496.9984, 19968.68
497.4805, 20044.09
497.9626, 20135.25
498.4448, 20225.37
498.9269, 20294.77
499.4090, 20349.94
499.8911, 20414.97
500.3732, 20498.54
500.8553, 20592.65
501.3375, 20686.44
501.8196, 20778.63
502.3017, 20878.41
502.7838, 20985.34
503.2659, 21100.91
503.7480, 21227.68
504.2302, 21364.29
504.7123, 21508.42
505.1944, 21658.97
505.6765, 21815.89
506.1586, 21979.26
506.6407, 22149.90
507.1228, 22327.82
507.6049, 22514.01
508.0871, 22706.71
508.5692, 22909.24
509.0513, 23118.44
509.5334, 23325.32
510.0155, 23525.14
510.4977, 23716.59
510.9798, 23889.38
511.4619, 24051.13
511.9440, 24177.20
512.4261, 24265.13
512.9083, 24311.63
513.3904, 24310.29
513.8725, 24259.96
514.3546, 24167.04
514.8367, 24021.47
515.3188, 23837.51
515.8010, 23655.36
516.2831, 23480.84
516.7652, 23294.28
517.2473, 23074.20
517.7294, 22831.88
518.2115, 22606.58
518.6937, 22400.92
519.1758, 22211.37
519.6579, 22032.30
520.1400, 21869.48
520.6221, 21736.35
521.1042, 21635.07
521.5864, 21549.29
522.0685, 21460.78
522.5506, 21367.63
523.0327, 21291.25
523.5148, 21234.69
523.9969, 21187.47
524.4791, 21150.06
524.9612, 21118.88
525.4433, 21089.50
525.9254, 21060.53
526.4075, 21033.68
526.8896, 21010.04
527.3718, 20987.50
527.8539, 20979.57
528.3360, 20998.05
528.8181, 21018.93
529.3002, 21033.03
529.7823, 21042.18
530.2645, 21051.06
530.7466, 21062.47
531.2287, 21071.85
531.7108, 21071.18
532.1929, 21061.25
532.6750, 21055.35
533.1572, 21058.83
533.6393, 21063.49
534.1214, 21055.98
534.6035, 21039.24
535.0856, 21034.79
535.5677, 21054.97
536.0499, 21082.11
536.5320, 21107.07
537.0141, 21128.37
537.4962, 21141.40
537.9783, 21143.17
538.4604, 21142.18
538.9426, 21153.81
539.4247, 21185.73
539.9068, 21211.06
540.3889, 21222.26
540.8710, 21234.37
541.3531, 21254.89
541.8353, 21282.87
542.3174, 21315.56
542.7995, 21351.86
543.2816, 21388.99
543.7637, 21421.99
544.2458, 21453.00
544.7280, 21472.60
545.2101, 21464.11
545.6922, 21457.00
546.1743, 21468.41
546.6564, 21495.55
547.1385, 21525.84
547.6207, 21554.96
548.1028, 21582.45
548.5849, 21608.22
549.0670, 21632.34
549.5491, 21651.54
550.0313, 21663.45
550.5134, 21671.78
550.9955, 21678.72
551.4776, 21683.01
551.9597, 21699.79
552.4418, 21740.29
552.9240, 21787.52
553.4061, 21831.03
553.8882, 21869.84
554.3703, 21904.23
554.8524, 21934.41
555.3345, 21960.22
555.8167, 21981.03
556.2988, 21992.34
556.7809, 22006.91
557.2630, 22021.60
557.7451, 22041.56
558.2272, 22073.46
558.7094, 22112.88
559.1915, 22148.43
559.6736, 22172.76
560.1557, 22192.43
560.6378, 22224.08
561.1199, 22271.17
561.6021, 22306.93
562.0842, 22319.85
562.5663, 22325.16
563.0484, 22333.49
563.5305, 22345.13
564.0126, 22360.97
564.4948, 22382.31
564.9769, 22407.50
565.4590, 22438.17
565.9411, 22472.26
566.4232, 22498.73
566.9053, 22511.94
567.3875, 22521.02
567.8696, 22540.15
568.3517, 22572.43
568.8338, 22606.01
569.3159, 22640.04
569.7980, 22675.98
570.2802, 22715.94
570.7623, 22758.16
571.2444, 22801.25
571.7265, 22844.34
572.2086, 22883.76
572.6907, 22910.55
573.1729, 22920.34
573.6550, 22935.58
574.1371, 22960.44
574.6192, 22987.51
575.1013, 23013.71
575.5834, 23039.58
576.0656, 23066.74
576.5477, 23096.76
577.0298, 23126.03
577.5119, 23149.47
577.9940, 23168.23
578.4761, 23188.80
578.9583, 23213.02
579.4404, 23237.76
579.9225, 23257.70
580.4046, 23273.89
580.8867, 23300.55
581.3688, 23344.04
581.8510, 23391.53
582.3331, 23448.50
582.8152, 23502.24
583.2973, 23529.49
583.7794, 23525.56
584.2615, 23514.15
584.7437, 23521.96
585.2258, 23549.51
585.7079, 23586.87
586.1900, 23639.56
586.6721, 23696.21
587.1542, 23766.18
587.6363, 23832.30
588.1184, 23872.32
588.6005, 23881.94
589.0826, 23883.84
589.5648, 23900.14
590.0469, 23925.63
590.5290, 23938.23
591.0111, 23933.21
591.4932, 23932.69
591.9753, 23947.44
592.4575, 23976.67
592.9396, 24018.76
593.4217, 24084.84
593.9038, 24135.32
594.3859, 24147.33
594.8680, 24144.21
595.3502, 24147.48
595.8323, 24159.76
596.3144, 24176.97
596.7965, 24196.05
597.2786, 24218.40
597.7607, 24249.32
598.2429, 24292.57
598.7250, 24338.44
599.2071, 24394.56
599.6892, 24445.76
600.1713, 24480.36
600.6534, 24501.22
601.1356, 24519.28
601.6177, 24538.92
602.0998, 24561.85
602.5819, 24592.03
603.0640, 24629.42
603.5461, 24669.46
604.0283, 24713.46
604.5104, 24755.68
604.9925, 24788.07
605.4746, 24811.93
605.9567, 24835.70
606.4388, 24860.49
606.9210, 24885.79
607.4031, 24912.53
607.8852, 24939.43
608.3673, 24963.02
608.8494, 24982.42
609.3315, 25002.73
609.8137, 25030.84
610.2958, 25067.86
610.7779, 25101.00
611.2600, 25126.07
611.7421, 25152.18
612.2242, 25180.75
612.7064, 25211.68
613.1885, 25244.49
613.6706, 25279.05
614.1527, 25315.95
614.6348, 25357.23
615.1169, 25400.91
615.5991, 25440.57
616.0812, 25475.30
616.5633, 25512.20
617.0454, 25558.75
617.5275, 25607.75
618.0096, 25643.17
618.4918, 25663.30
618.9739, 25678.88
619.4560, 25689.89
619.9381, 25699.27
620.4202, 25706.47
620.9023, 25714.09
621.3845, 25728.96
621.8666, 25755.00
622.3487, 25788.36
622.8308, 25819.82
623.3129, 25847.03
623.7950, 25880.00
624.2772, 25925.93
624.7593, 25971.04
625.2414, 26009.79
625.7235, 26042.82
626.2056, 26069.78
626.6877, 26086.40
627.1699, 26108.34
627.6520, 26156.34
628.1341, 26221.97
628.6162, 26278.09
629.0983, 26320.04
629.5804, 26353.96
630.0626, 26384.66
630.5447, 26411.77
631.0268, 26433.43
631.5089, 26447.17
631.9910, 26459.52
632.4731, 26467.28
632.9553, 26477.04
633.4374, 26492.46
633.9195, 26515.44
634.4016, 26550.25
634.8837, 26601.90
635.3658, 26663.78
635.8480, 26716.68
636.3301, 26761.88
636.8122, 26792.34
637.2943, 26797.46
637.7764, 26796.33
638.2585, 26801.96
638.7407, 26814.24
639.2228, 26832.32
639.7049, 26857.90
640.1870, 26887.40
640.6691, 26921.13
641.1512, 26956.23
641.6334, 26985.46
642.1155, 27006.85
642.5976, 27026.59
643.0797, 27051.86
643.5618, 27082.64
644.0439, 27105.39
644.5261, 27110.61
645.0082, 27119.37
645.4903, 27128.42
645.9724, 27146.24
646.4545, 27187.74
646.9366, 27249.46
647.4188, 27304.63
647.9009, 27329.23
648.3830, 27335.65
648.8651, 27349.47
649.3472, 27370.70
649.8293, 27398.79
650.3115, 27435.38
650.7936, 27475.97
651.2757, 27516.35
651.7578, 27556.99
652.2399, 27590.46
652.7220, 27611.77
653.2042, 27630.55
653.6863, 27651.93
654.1684, 27673.61
654.6505, 27690.30
655.1326, 27701.16
655.6147, 27712.32
656.0969, 27729.58
656.5790, 27753.03
657.0611, 27786.51
657.5432, 27836.95
658.0253, 27882.60
658.5074, 27914.47
658.9896, 27938.94
659.4717, 27958.39
659.9538, 27973.49
660.4359, 27994.04
660.9180, 28029.96
661.4001, 28069.19
661.8823, 28098.54
662.3644, 28120.01
662.8465, 28142.69
663.3286, 28170.09
663.8107, 28198.01
664.2928, 28219.90
664.7750, 28233.90
665.2571, 28254.70
665.7392, 28292.09
666.2213, 28324.91
666.7034, 28342.80
667.1855, 28356.72
667.6677, 28377.75
668.1498, 28408.40
668.6319, 28445.91
669.1140, 28495.07
669.5961, 28547.79
670.0782, 28584.88
670.5604, 28606.25
671.0425, 28620.45
671.5246, 28625.94
672.0067, 28634.81
672.4888, 28667.57
672.9709, 28730.99
673.4531, 28784.54
673.9352, 28827.22
674.4173, 28859.82
674.8994, 28876.40
675.3815, 28885.26
675.8636, 28895.59
676.3458, 28910.67
676.8279, 28932.55
677.3100, 28966.78
677.7921, 29010.31
678.2742, 29040.38
678.7563, 29050.73
679.2385, 29072.16
679.7206, 29124.84
680.2027, 29186.90
680.6848, 29231.58
681.1669, 29259.24
681.6490, 29279.51
682.1312, 29287.90
682.6133, 29296.27
683.0954, 29309.66
683.5775, 29329.71
684.0596, 29359.61
684.5417, 29400.02
685.0239, 29447.70
685.5060, 29501.51
685.9881, 29560.69
686.4702, 29606.21
686.9523, 29634.45
687.4344, 29655.43
687.9166, 29658.88
688.3987, 29665.15
688.8808, 29696.52
689.3629, 29751.57
689.8450, 29800.64
690.3271, 29824.11
690.8093, 29841.57
691.2914, 29870.26
691.7735, 29908.25
692.2556, 29953.43
692.7377, 30005.15
693.2198, 30048.69
693.7020, 30065.66
694.1841, 30056.29
694.6662, 30062.47
695.1483, 30098.46
695.6304, 30129.42
696.1125, 30144.24
696.5947, 30156.33
697.0768, 30178.44
697.5589, 30209.56
698.0410, 30237.64
698.5231, 30251.86
699.0052, 30264.64
699.4874, 30294.33
699.9695, 30336.82
700.4516, 30374.31
700.9337, 30401.71
701.4158, 30428.70
701.8979, 30466.19
702.3801, 30512.81
702.8622, 30545.46
703.3443, 30546.34
703.8264, 30556.27
704.3085, 30582.98
704.7906, 30616.69
705.2728, 30652.44
705.7549, 30688.23
706.2370, 30721.64
706.7191, 30749.57
707.2012, 30777.38
707.6833, 30815.18
708.1655, 30860.31
708.6476, 30897.29
709.1297, 30922.17
709.6118, 30944.98
710.0939, 30972.47
710.5760, 31004.71
711.0582, 31042.23
711.5403, 31099.73
712.0224, 31141.74
712.5045, 31154.57
712.9866, 31160.89
713.4688, 31174.46
713.9509, 31195.32
714.4330, 31218.30
714.9151, 31240.76
715.3972, 31266.22
715.8793, 31302.80
716.3615, 31347.85
716.8436, 31386.51
717.3257, 31417.12
717.8078, 31439.32
718.2899, 31445.80
718.7720, 31447.84
719.2542, 31478.79
719.7363, 31552.54
720.2184, 31617.86
720.7005, 31668.50
721.1826, 31711.16
721.6647, 31750.80
722.1469, 31784.99
722.6290, 31804.51
723.1111, 31806.63
723.5932, 31811.27
724.0753, 31848.00
724.5574, 31908.81
725.0396, 31949.38
725.5217, 31966.63
726.0038, 31978.08
726.4859, 31988.96
726.9680, 32000.79
727.4501, 32014.76
727.9323, 32029.81
728.4144, 32054.72
728.8965, 32104.59
729.3786, 32148.66
729.8607, 32164.97
730.3428, 32171.51
730.8250, 32190.25
731.3071, 32226.78
731.7892, 32277.63
732.2713, 32347.85
732.7534, 32425.34
733.2355, 32471.37
733.7177, 32484.55
734.1998, 32494.68
734.6819, 32507.26
735.1640, 32525.08
735.6461, 32552.77
736.1282, 32589.94
736.6104, 32623.01
737.0925, 32649.45
737.5746, 32674.79
738.0567, 32696.33
738.5388, 32719.99
739.0209, 32751.57
739.5031, 32790.79
739.9852, 32836.08
740.4673, 32889.42
740.9494, 32939.45
741.4315, 32959.74
741.9136, 32954.11
742.3958, 32969.92
742.8779, 33018.68
743.3600, 33068.98
743.8421, 33100.11
744.3242, 33116.68
744.8063, 33133.11
745.2885, 33147.04
745.7706, 33165.64
746.2527, 33193.88
746.7348, 33222.76
747.2169, 33245.75
747.6990, 33265.63
748.1812, 33286.52
748.6633, 33309.92
749.1454, 33341.10
749.6275, 33394.05
750.1096, 33458.88
750.5917, 33497.30
751.0739, 33507.41
751.5560, 33521.62
752.0381, 33556.27
752.5202, 33595.13
753.0023, 33612.24
753.4844, 33601.44
753.9666, 33608.12
754.4487, 33649.15
754.9308, 33685.24
755.4129, 33694.60
755.8950, 33700.71
756.3771, 33731.74
756.8593, 33786.84
757.3414, 33840.00
757.8235, 33875.81
758.3056, 33899.32
758.7877, 33913.43
759.2698, 33920.83
759.7520, 33935.26
760.2341, 33960.29
760.7162, 33984.86
761.1983, 33998.61
761.6804, 34005.49
762.1625, 34025.23
762.6447, 34069.24
763.1268, 34108.19
763.6089, 34141.68
764.0910, 34170.15
764.5731, 34191.12
765.0552, 34207.98
765.5374, 34225.16
766.0195, 34242.91
766.5016, 34268.55
766.9837, 34314.85
767.4658, 34369.11
767.9479, 34409.58
768.4301, 34436.65
768.9122, 34462.04
769.3943, 34490.80
769.8764, 34519.77
770.3585, 34543.08
770.8406, 34559.60
771.3228, 34583.02
771.8049, 34620.86
772.2870, 34653.96
772.7691, 34670.50
773.2512, 34685.68
773.7333, 34718.56
774.2155, 34766.16
774.6976, 34799.72
775.1797, 34793.33
775.6618, 34785.84
776.1439, 34804.48
776.6260, 34840.41
777.1082, 34881.57
777.5903, 34924.93
778.0724, 34970.80
778.5545, 35020.25
779.0366, 35069.06
779.5187, 35104.38
780.0009, 35124.00
780.4830, 35143.79
780.9651, 35165.13
781.4472, 35186.11
781.9293, 35206.40
782.4114, 35224.84
782.8936, 35236.45
783.3757, 35235.67
783.8578, 35248.36
784.3399, 35293.83
784.8220, 35341.83
785.3041, 35370.31
785.7863, 35387.25
786.2684, 35409.85
786.7505, 35442.51
787.2326, 35474.25
787.7147, 35491.35
788.1968, 35500.52
788.6790, 35525.03
789.1611, 35565.14
789.6432, 35603.23
790.1253, 35632.93
790.6074, 35664.05
791.0895, 35706.56
791.5717, 35759.64
792.0538, 35812.01
792.5359, 35873.95
793.0180, 35920.98
793.5001, 35945.96
793.9822, 35960.20
794.4644, 35962.51
794.9465, 35961.74
795.4286, 35975.43
795.9107, 36010.93
796.3928, 36055.11
796.8749, 36106.00
797.3571, 36153.79
797.8392, 36173.59
798.3213, 36168.24
798.8034, 36166.47
799.2855, 36180.34
799.7676, 36203.90
800.2498, 36229.49
800.7319, 36257.18
801.2140, 36282.61
801.6961, 36300.41
802.1782, 36325.59
802.6603, 36379.91
803.1425, 36429.00
803.6246, 36438.41
804.1067, 36416.33
804.5888, 36406.09
805.0709, 36421.21
805.5530, 36448.43
806.0352, 36479.29
806.5173, 36519.80
806.9994, 36587.49
807.4815, 36673.48
807.9636, 36744.49
808.4457, 36781.87
808.9279, 36801.88
809.4100, 36828.71
809.8921, 36861.89
810.3742, 36893.07
810.8563, 36921.91
811.3384, 36947.42
811.8206, 36966.63
812.3027, 36985.27
812.7848, 37014.09
813.2669, 37056.11
813.7490, 37083.70
814.2311, 37091.68
814.7133, 37091.88
815.1954, 37076.39
815.6775, 37062.60
816.1596, 37066.05
816.6417, 37086.89
817.1238, 37118.16
817.6060, 37160.10
818.0881, 37202.89
818.5702, 37239.69
819.0523, 37268.67
819.5344, 37278.37
820.0165, 37271.40
820.4987, 37278.75
820.9808, 37318.60
821.4629, 37373.64
821.9450, 37411.77
822.4271, 37430.16
822.9092, 37452.20
823.3914, 37482.20
823.8735, 37506.82
824.3556, 37517.35
824.8377, 37522.91
825.3198, 37529.05
825.8019, 37536.75
826.2841, 37557.52
826.7662, 37612.41
827.2483, 37658.27
827.7304, 37664.52
828.2125, 37661.38
828.6946, 37683.82
829.1768, 37729.59
829.6589, 37776.21
830.1410, 37812.27
830.6231, 37840.18
831.1052, 37858.97
831.5873, 37872.04
832.0695, 37893.58
832.5516, 37924.53
833.0337, 37960.06
833.5158, 38000.05
833.9979, 38035.90
834.4800, 38052.29
834.9622, 38045.42
835.4443, 38057.59
835.9264, 38101.51
836.4085, 38144.92
836.8906, 38184.35
837.3727, 38218.50
837.8549, 38246.32
838.3370, 38268.15
838.8191, 38284.77
839.3012, 38291.06
839.7833, 38303.48
840.2654, 38333.04
840.7476, 38372.36
841.2297, 38416.01
841.7118, 38462.07
842.1939, 38508.60
842.6760, 38554.69
843.1581, 38597.02
843.6403, 38630.32
844.1224, 38655.94
844.6045, 38680.54
845.0866, 38704.08
845.5687, 38725.11
846.0508, 38743.64
846.5330, 38757.38
847.0151, 38762.81
847.4972, 38760.69
847.9793, 38760.66
848.4614, 38760.37
848.9435, 38765.67
849.4257, 38776.04
849.9078, 38792.71
850.3899, 38820.95
850.8720, 38854.71
851.3541, 38881.39
851.8362, 38896.85
852.3184, 38919.07
852.8005, 38970.13
853.2826, 39022.08
853.7647, 39042.07
854.2468, 39043.40
854.7289, 39059.20
855.2111, 39095.54
855.6932, 39126.05
856.1753, 39123.25
856.6574, 39106.11
857.1395, 39134.38
857.6216, 39207.59
858.1038, 39245.60
858.5859, 39228.35
859.0680, 39213.80
859.5501, 39242.04
860.0322, 39294.22
860.5143, 39326.20
860.9965, 39332.84
861.4786, 39334.99
861.9607, 39316.46
862.4428, 39313.80
862.9249, 39345.89
863.4070, 39393.51
863.8892, 39441.29
864.3713, 39486.68
864.8534, 39525.55
865.3355, 39554.80
865.8176, 39579.83
866.2997, 39604.65
866.7819, 39626.88
867.2640, 39638.78
867.7461, 39644.27
868.2282, 39659.26
868.7103, 39691.51
869.1924, 39727.85
869.6746, 39748.72
870.1567, 39757.63
870.6388, 39774.52
871.1209, 39799.82
871.6030, 39821.30
872.0851, 39834.25
872.5673, 39845.29
873.0494, 39861.71
873.5315, 39882.79
874.0136, 39901.00
874.4957, 39914.56
874.9778, 39928.85
875.4600, 39937.28
875.9421, 39953.95
876.4242, 39996.18
876.9063, 40047.47
877.3884, 40076.41
877.8705, 40074.57
878.3527, 40079.67
878.8348, 40111.59
879.3169, 40147.21
879.7990, 40170.25
880.2811, 40187.42
880.7632, 40212.12
881.2454, 40243.73
881.7275, 40267.10
882.2096, 40269.83
882.6917, 40265.67
883.1738, 40270.05
883.6559, 40284.55
884.1381, 40319.91
884.6202, 40375.36
885.1023, 40422.89
885.5844, 40447.56
886.0665, 40465.64
886.5486, 40504.30
887.0308, 40564.17
887.5129, 40605.50
887.9950, 40624.36
888.4771, 40633.74
888.9592, 40629.23
889.4413, 40624.63
889.9235, 40630.76
890.4056, 40646.35
890.8877, 40667.08
891.3698, 40697.23
891.8519, 40724.05
892.3340, 40739.13
892.8162, 40757.61
893.2983, 40797.26
893.7804, 40841.76
894.2625, 40864.82
894.7446, 40863.06
895.2267, 40857.73
895.7089, 40858.37
896.1910, 40864.79
896.6731, 40881.30
897.1552, 40901.87
897.6373, 40913.23
898.1194, 40915.82
898.6016, 40919.40
899.0837, 40928.69
899.5658, 40950.47
900.0479, 41003.40
900.5300, 41081.77
901.0121, 41138.30
901.4943, 41170.39
901.9764, 41203.19
902.4585, 41247.87
902.9406, 41285.58
903.4227, 41293.43
903.9048, 41275.83
904.3870, 41272.67
904.8691, 41294.46
905.3512, 41309.33
905.8333, 41303.15
906.3154, 41303.52
906.7975, 41328.64
907.2797, 41366.50
907.7618, 41397.95
908.2439, 41420.29
908.7260, 41448.81
909.2081, 41493.91
909.6902, 41537.93
910.1724, 41577.59
910.6545, 41607.68
911.1366, 41614.79
911.6187, 41606.68
912.1008, 41612.06
912.5829, 41645.99
913.0651, 41687.62
913.5472, 41725.02
914.0293, 41753.49
914.5114, 41756.97
914.9935, 41743.90
915.4756, 41747.78
915.9578, 41778.48
916.4398, 41813.07
916.9219, 41827.09
917.4041, 41829.76
917.8862, 41852.01
918.3683, 41894.14
918.8504, 41939.25
919.3325, 41985.71
919.8146, 42033.55
920.2968, 42086.07
920.7789, 42134.74
921.2610, 42163.23
921.7431, 42168.90
922.2252, 42170.26
922.7073, 42163.06
923.1895, 42158.08
923.6716, 42159.04
924.1537, 42161.63
924.6358, 42160.01
925.1179, 42157.24
925.6000, 42164.04
926.0822, 42184.20
926.5643, 42207.64
927.0464, 42230.45
927.5285, 42257.40
928.0106, 42299.70
928.4927, 42343.93
928.9749, 42368.25
929.4570, 42371.73
929.9391, 42375.12
930.4212, 42391.02
930.9033, 42410.18
931.3854, 42424.14
931.8676, 42435.80
932.3497, 42445.98
932.8318, 42458.07
933.3139, 42485.13
933.7960, 42532.36
934.2781, 42579.79
934.7603, 42601.39
935.2424, 42604.88
935.7245, 42614.29
936.2066, 42629.46
936.6887, 42649.19
937.1708, 42672.96
937.6530, 42703.44
938.1351, 42744.74
938.6172, 42788.88
939.0993, 42811.95
939.5814, 42805.39
940.0635, 42829.07
940.5457, 42902.10
941.0278, 42957.52
941.5099, 42966.70
941.9920, 42956.93
942.4741, 42951.80
942.9562, 42951.67
943.4384, 42960.74
943.9205, 42986.98
944.4026, 43009.77
944.8847, 43025.14
945.3668, 43040.26
945.8489, 43061.02
946.3311, 43082.34
946.8132, 43096.83
947.2953, 43103.80
947.7774, 43109.13
948.2595, 43106.42
948.7416, 43113.01
949.2238, 43146.38
949.7059, 43186.80
950.1880, 43214.07
950.6701, 43230.80
951.1522, 43251.19
951.6343, 43280.54
952.1165, 43305.95
952.5986, 43312.24
953.0807, 43312.10
953.5628, 43321.56
954.0449, 43339.00
954.5270, 43361.05
955.0092, 43386.23
955.4913, 43412.21
955.9734, 43437.75
956.4555, 43460.69
956.9376, 43475.46
957.4197, 43484.02
957.9019, 43495.30
958.3840, 43509.76
958.8661, 43536.67
959.3482, 43580.38
959.8303, 43622.45
960.3124, 43643.10
960.7946, 43651.23
961.2767, 43686.49
961.7588, 43759.97
962.2409, 43803.07
962.7230, 43802.31
963.2051, 43796.06
963.6873, 43797.66
964.1694, 43806.51
964.6515, 43825.24
965.1336, 43853.74
965.6157, 43866.80
966.0978, 43840.23
966.5800, 43835.55
967.0621, 43869.49
967.5442, 43912.04
968.0263, 43951.75
968.5084, 43988.40
968.9905, 44025.34
969.4727, 44063.95
969.9548, 44084.13
970.4369, 44068.60
970.9190, 44050.51
971.4011, 44035.58
971.8832, 44029.79
972.3654, 44045.51
972.8475, 44073.52
973.3296, 44089.93
973.8117, 44086.55
974.2938, 44087.37
974.7759, 44112.12
975.2581, 44141.36
975.7402, 44163.12
976.2223, 44175.69
976.7044, 44170.02
977.1865, 44152.05
977.6686, 44145.82
978.1508, 44163.94
978.6329, 44195.07
979.1150, 44236.95
979.5971, 44278.08
980.0792, 44292.16
980.5613, 44287.13
981.0435, 44291.02
981.5256, 44310.91
982.0077, 44339.24
982.4898, 44370.54
982.9719, 44405.91
983.4540, 44450.81
983.9362, 44502.31
984.4183, 44544.98
984.9004, 44577.75
985.3825, 44595.98
985.8646, 44597.46
986.3467, 44589.41
986.8289, 44576.90
987.3110, 44563.31
987.7931, 44560.13
988.2752, 44565.52
988.7573, 44597.61
989.2394, 44664.81
989.7216, 44733.08
990.2037, 44792.17
990.6858, 44834.39
991.1679, 44846.50
991.6500, 44830.23
992.1321, 44819.75
992.6143, 44812.40
993.0964, 44817.27
993.5785, 44839.00
994.0606, 44868.00
994.5427, 44904.64
995.0248, 44942.86
995.5070, 44975.56
995.9891, 45003.40
996.4712, 45018.31
996.9533, 45004.18
997.4354, 45000.27
997.9175, 45024.52
998.3997, 45048.38
998.8818, 45048.38
999.3639, 45038.84
999.8460, 45046.74
1000.328, 45076.18
1000.810, 45104.14
1001.292, 45128.07
1001.774, 45145.12
1002.257, 45145.73
1002.739, 45145.93
1003.221, 45161.24
1003.703, 45186.64
1004.185, 45208.29
1004.667, 45222.31
1005.149, 45238.05
1005.631, 45260.81
1006.114, 45286.17
1006.596, 45311.23
1007.078, 45337.17
1007.560, 45368.70
1008.042, 45402.60
1008.524, 45430.44
1009.006, 45449.05
1009.488, 45459.24
1009.970, 45461.01
1010.453, 45455.42
1010.935, 45433.75
1011.417, 45409.80
1011.899, 45413.36
1012.381, 45441.73
1012.863, 45463.46
1013.345, 45462.07
1013.827, 45459.41
1014.310, 45480.20
1014.792, 45516.07
1015.274, 45555.09
1015.756, 45594.88
1016.238, 45632.64
1016.720, 45666.06
1017.202, 45684.40
1017.684, 45679.92
1018.166, 45670.81
1018.649, 45692.20
1019.131, 45730.64
1019.613, 45728.14
1020.095, 45692.14
1020.577, 45681.11
1021.059, 45708.13
1021.541, 45745.31
1022.023, 45775.23
1022.505, 45794.57
1022.988, 45792.29
1023.470, 45771.08
1023.952, 45763.60
1024.434, 45770.48
1024.916, 45773.68
1025.398, 45767.58
1025.880, 45767.59
1026.362, 45786.61
1026.845, 45816.11
1027.327, 45833.30
1027.809, 45836.07
1028.291, 45860.76
1028.773, 45915.11
1029.255, 45940.63
1029.737, 45911.88
1030.219, 45882.27
1030.702, 45895.56
1031.184, 45939.65
1031.666, 45984.20
1032.148, 46032.85
1032.630, 46059.52
1033.112, 46056.64
1033.594, 46052.54
1034.076, 46052.16
1034.558, 46058.64
1035.041, 46075.71
1035.523, 46101.29
1036.005, 46129.45
1036.487, 46163.04
1036.969, 46190.43
1037.451, 46212.74
1037.933, 46227.38
1038.415, 46230.42
1038.897, 46230.07
1039.380, 46236.46
1039.862, 46243.81
1040.344, 46229.45
1040.826, 46171.94
1041.308, 46156.45
1041.790, 46218.24
1042.272, 46271.00
1042.754, 46289.27
1043.237, 46294.35
1043.719, 46300.11
1044.201, 46306.05
1044.683, 46308.39
1045.165, 46299.45
1045.647, 46310.86
1046.129, 46384.07
1046.611, 46424.59
1047.094, 46369.20
1047.576, 46306.63
1048.058, 46310.03
1048.540, 46361.53
1049.022, 46409.18
1049.504, 46449.55
1049.986, 46483.59
1050.468, 46518.01
1050.950, 46537.06
1051.432, 46518.13
1051.915, 46497.45
1052.397, 46512.37
1052.879, 46546.75
1053.361, 46553.12
1053.843, 46514.98
1054.325, 46506.05
1054.807, 46571.85
1055.289, 46630.75
1055.772, 46647.02
1056.254, 46650.39
1056.736, 46668.13
1057.218, 46692.26
1057.700, 46699.93
1058.182, 46685.87
1058.664, 46671.75
1059.146, 46649.72
1059.629, 46647.12
1060.111, 46691.37
1060.593, 46744.67
1061.075, 46787.26
1061.557, 46811.16
1062.039, 46795.87
1062.521, 46735.73
1063.003, 46699.96
1063.485, 46739.25
1063.968, 46771.47
1064.450, 46744.35
1064.932, 46711.29
1065.414, 46721.38
1065.896, 46757.36
1066.378, 46782.66
1066.860, 46790.45
1067.342, 46794.81
1067.824, 46807.08
1068.307, 46809.45
1068.789, 46772.52
1069.271, 46743.23
1069.753, 46772.61
1070.235, 46831.33
1070.717, 46869.47
1071.199, 46878.53
1071.681, 46873.34
1072.164, 46843.08
1072.646, 46825.12
1073.128, 46849.36
1073.610, 46879.40
1074.092, 46880.44
1074.574, 46870.77
1075.056, 46884.44
1075.538, 46922.54
1076.021, 46955.36
1076.503, 46974.38
1076.985, 46980.36
1077.467, 46962.87
1077.949, 46943.85
1078.431, 46938.12
1078.913, 46942.53
1079.395, 46957.77
1079.877, 46978.41
1080.359, 46981.23
1080.842, 46945.19
1081.324, 46927.71
1081.806, 46977.04
1082.288, 47030.77
1082.770, 47044.09
1083.252, 47039.00
1083.734, 47042.57
1084.216, 47056.46
1084.698, 47071.30
1085.181, 47084.17
1085.663, 47098.01
1086.145, 47116.39
1086.627, 47133.34
1087.109, 47148.04
1087.591, 47157.18
1088.073, 47147.19
1088.555, 47130.35
1089.038, 47143.01
1089.520, 47198.29
1090.002, 47244.28
1090.484, 47257.91
1090.966, 47259.07
1091.448, 47252.37
1091.930, 47242.68
1092.412, 47233.74
1092.895, 47225.19
1093.377, 47211.73
1093.859, 47192.38
1094.341, 47189.70
1094.823, 47220.73
1095.305, 47258.18
1095.787, 47311.38
1096.269, 47346.63
1096.751, 47324.78
1097.234, 47274.11
1097.716, 47238.50
1098.198, 47224.04
1098.680, 47217.00
1099.162, 47217.25
1099.644, 47218.59
1100.126, 47213.98
1100.608, 47215.64
1101.090, 47237.48
1101.573, 47265.44
1102.055, 47281.87
1102.537, 47286.68
1103.019, 47291.49
1103.501, 47302.18
1103.983, 47303.97
1104.465, 47289.75
1104.947, 47269.80
1105.430, 47236.44
1105.912, 47209.14
1106.394, 47214.93
1106.876, 47242.24
1107.358, 47247.99
1107.840, 47213.29
1108.322, 47209.55
1108.804, 47287.58
1109.286, 47345.08
1109.769, 47333.79
1110.251, 47308.81
1110.733, 47305.57
1111.215, 47321.29
1111.697, 47355.82
1112.179, 47416.20
1112.661, 47434.98
1113.143, 47369.26
1113.625, 47317.75
1114.108, 47294.07
1114.590, 47287.43
1115.072, 47298.10
1115.554, 47317.88
1116.036, 47333.74
1116.518, 47345.56
1117.000, 47370.62
1117.482, 47429.72
1117.965, 47462.40
1118.447, 47458.44
1118.929, 47438.25
1119.411, 47389.68
1119.893, 47350.62
1120.375, 47369.52
1120.857, 47429.45
1121.339, 47454.83
1121.822, 47433.95
1122.304, 47417.02
1122.786, 47401.94
1123.268, 47398.51
1123.750, 47413.37
1124.232, 47435.74
1124.714, 47464.51
1125.196, 47487.44
1125.678, 47471.43
1126.161, 47411.19
1126.643, 47397.11
1127.125, 47441.82
1127.607, 47479.65
1128.089, 47500.04
1128.571, 47509.39
1129.053, 47506.50
1129.535, 47507.33
1130.017, 47537.60
1130.500, 47589.57
1130.982, 47611.77
1131.464, 47601.23
1131.946, 47601.02
1132.428, 47616.07
1132.910, 47619.80
1133.392, 47600.32
1133.874, 47584.22
1134.357, 47596.32
1134.839, 47629.04
1135.321, 47669.12
1135.803, 47714.56
1136.285, 47747.25
1136.767, 47766.07
1137.249, 47754.76
1137.731, 47711.32
1138.214, 47680.65
1138.696, 47691.23
1139.178, 47718.21
1139.660, 47723.21
1140.142, 47717.90
1140.624, 47742.14
1141.106, 47786.39
1141.588, 47821.88
1142.070, 47841.77
1142.552, 47828.33
1143.035, 47777.30
1143.517, 47732.52
1143.999, 47737.34
1144.481, 47762.56
1144.963, 47766.86
1145.445, 47759.74
1145.927, 47756.55
1146.409, 47757.91
1146.892, 47763.63
1147.374, 47771.84
1147.856, 47773.54
1148.338, 47761.53
1148.820, 47752.85
1149.302, 47767.26
1149.784, 47787.96
1150.266, 47800.45
1150.749, 47805.54
1151.231, 47800.77
1151.713, 47791.34
1152.195, 47790.49
1152.677, 47802.40
1153.159, 47818.15
1153.641, 47847.73
1154.123, 47861.18
1154.605, 47810.19
1155.088, 47766.07
1155.570, 47811.50
1156.052, 47894.95
1156.534, 47925.71
1157.016, 47899.43
1157.498, 47887.20
1157.980, 47916.49
1158.462, 47941.15
1158.944, 47939.82
1159.427, 47943.88
1159.909, 47980.69
1160.391, 48017.65
1160.873, 48012.32
1161.355, 47983.02
1161.837, 47989.26
1162.319, 48045.89
1162.801, 48082.89
1163.284, 48091.40
1163.766, 48093.61
1164.248, 48091.55
1164.730, 48084.65
1165.212, 48067.49
1165.694, 48051.47
1166.176, 48056.12
1166.658, 48077.54
1167.141, 48075.71
1167.623, 48038.69
1168.105, 48033.44
1168.587, 48074.95
1169.069, 48098.83
1169.551, 48080.57
1170.033, 48058.37
1170.515, 48064.07
1170.997, 48082.53
1171.479, 48078.79
1171.962, 48055.80
1172.444, 48050.19
1172.926, 48061.30
1173.408, 48069.71
1173.890, 48072.61
1174.372, 48076.93
1174.854, 48085.87
1175.336, 48093.37
1175.819, 48091.07
1176.301, 48086.50
1176.783, 48097.13
1177.265, 48116.86
1177.747, 48130.22
1178.229, 48137.95
1178.711, 48146.53
1179.193, 48157.45
1179.676, 48169.77
1180.158, 48183.17
1180.640, 48194.39
1181.122, 48208.86
1181.604, 48211.19
1182.086, 48168.34
1182.568, 48113.77
1183.050, 48099.09
1183.532, 48113.46
1184.015, 48114.75
1184.497, 48094.44
1184.979, 48088.09
1185.461, 48125.00
1185.943, 48158.38
1186.425, 48166.87
1186.907, 48165.10
1187.389, 48146.27
1187.871, 48134.64
1188.354, 48174.14
1188.836, 48245.71
1189.318, 48270.68
1189.800, 48221.11
1190.282, 48193.57
1190.764, 48211.99
1191.246, 48231.76
1191.728, 48250.88
1192.211, 48260.43
1192.693, 48247.18
1193.175, 48229.88
1193.657, 48238.60
1194.139, 48268.26
1194.621, 48269.65
1195.103, 48230.18
1195.585, 48218.45
1196.068, 48243.23
1196.550, 48267.96
1197.032, 48284.35
1197.514, 48282.04
1197.996, 48248.75
1198.478, 48212.65
1198.960, 48230.05
1199.442, 48287.25
1199.924, 48313.46
1200.406, 48311.68
1200.889, 48294.30
1201.371, 48266.43
1201.853, 48248.02
1202.335, 48246.07
1202.817, 48253.09
1203.299, 48267.94
1203.781, 48272.11
1204.263, 48220.26
1204.746, 48157.72
1205.228, 48156.45
1205.710, 48195.45
1206.192, 48244.82
1206.674, 48288.77
1207.156, 48298.36
1207.638, 48263.77
1208.120, 48230.32
1208.603, 48227.66
1209.085, 48227.70
1209.567, 48203.50
1210.049, 48188.63
1210.531, 48229.89
1211.013, 48282.98
1211.495, 48277.73
1211.977, 48224.12
1212.459, 48199.61
1212.942, 48225.76
1213.424, 48246.32
1213.906, 48247.80
1214.388, 48258.35
1214.870, 48299.09
1215.352, 48326.00
1215.834, 48309.94
1216.316, 48270.42
1216.798, 48229.70
1217.281, 48191.27
1217.763, 48187.98
1218.245, 48226.75
1218.727, 48239.05
1219.209, 48220.21
1219.691, 48190.30
1220.173, 48153.84
1220.655, 48133.39
1221.138, 48145.15
1221.620, 48171.68
1222.102, 48193.81
1222.584, 48207.21
1223.066, 48194.77
1223.548, 48165.91
1224.030, 48142.90
1224.512, 48128.40
1224.995, 48118.24
1225.477, 48113.27
1225.959, 48126.71
1226.441, 48169.48
1226.923, 48217.23
1227.405, 48255.38
1227.887, 48283.93
1228.369, 48305.13
1228.851, 48314.30
1229.333, 48301.46
1229.816, 48274.07
1230.298, 48246.93
1230.780, 48222.71
1231.262, 48199.14
1231.744, 48167.17
1232.226, 48150.55
1232.708, 48162.79
1233.190, 48178.26
1233.673, 48193.84
1234.155, 48203.55
1234.637, 48203.02
1235.119, 48192.95
1235.601, 48170.26
1236.083, 48135.02
1236.565, 48135.98
1237.047, 48178.98
1237.530, 48213.12
1238.012, 48233.25
1238.494, 48243.69
1238.976, 48245.80
1239.458, 48236.13
1239.940, 48209.99
1240.422, 48180.44
1240.904, 48170.96
1241.386, 48173.40
1241.869, 48164.49
1242.351, 48152.18
1242.833, 48161.74
1243.315, 48186.82
1243.797, 48194.64
1244.279, 48178.53
1244.761, 48170.56
1245.243, 48190.35
1245.725, 48218.80
1246.208, 48248.91
1246.690, 48277.47
1247.172, 48315.67
1247.654, 48339.88
1248.136, 48312.81
1248.618, 48256.58
1249.100, 48220.41
1249.582, 48209.07
1250.065, 48216.92
1250.547, 48269.66
1251.029, 48290.58
1251.511, 48258.67
1251.993, 48231.85
1252.475, 48229.71
1252.957, 48235.90
1253.439, 48240.25
1253.922, 48238.04
1254.404, 48213.66
1254.886, 48175.73
1255.368, 48195.93
1255.850, 48264.80
1256.332, 48297.13
1256.814, 48287.82
1257.296, 48260.38
1257.778, 48225.48
1258.260, 48203.10
1258.743, 48207.38
1259.225, 48219.77
1259.707, 48223.65
1260.189, 48222.21
1260.671, 48214.77
1261.153, 48207.52
1261.635, 48209.36
1262.117, 48217.07
1262.600, 48224.00
1263.082, 48228.68
1263.564, 48228.95
1264.046, 48211.71
1264.528, 48221.58
1265.010, 48290.26
1265.492, 48354.29
1265.974, 48403.52
1266.457, 48431.80
1266.939, 48428.02
1267.421, 48409.57
1267.903, 48398.88
1268.385, 48395.64
1268.867, 48399.44
1269.349, 48410.64
1269.831, 48421.42
1270.313, 48431.62
1270.796, 48447.75
1271.278, 48470.71
1271.760, 48491.48
1272.242, 48505.41
1272.724, 48510.26
1273.206, 48500.92
1273.688, 48486.51
1274.170, 48482.61
1274.652, 48479.16
1275.135, 48463.85
1275.617, 48437.79
1276.099, 48389.62
1276.581, 48335.61
1277.063, 48328.43
1277.545, 48383.77
1278.027, 48439.05
1278.509, 48487.27
1278.992, 48515.07
1279.474, 48516.86
1279.956, 48500.27
1280.438, 48457.48
1280.920, 48411.91
1281.402, 48379.73
1281.884, 48361.33
1282.366, 48360.80
1282.849, 48376.49
1283.331, 48381.89
1283.813, 48376.96
1284.295, 48372.99
1284.777, 48371.04
1285.259, 48367.27
1285.741, 48361.16
1286.223, 48358.14
1286.705, 48365.67
1287.188, 48385.14
##END=



