##NAMES=Osumilite
##RRUFFID=R060385
##IDEAL CHEMISTRY=KFe^2+^_2_(Al_5_Si_10_)O_30_
##LOCALITY=Funtanafigu Quarry, Monte Arci, near Oristano, Sardinia
##OWNER=RRUFF
##SOURCE=Michael Scott
##DESCRIPTION=Black tabular distorted hexagonal crystals associated with colorless tridymite
##STATUS=The identification of this mineral is confirmed by single-crystal X-ray diffraction and chemical analysis.
##URL=rruff.info/R060385
##MEASURED CHEMISTRY=(K_0.72_Na_0.15_Ca_0.01_)_Σ=0.88_(Fe^2+^_1.07_Mg_0.93_Mn_0.06_)_Σ=2.06_(Al_2.69_Fe^3+^_0.31_)_Σ=3_(Si_10.28_Al_1.72_)_Σ=12_O_30_
182.6374, 194.3849
183.1195, 194.9608
183.6017, 196.7574
184.0838, 198.4912
184.5659, 198.3946
185.0480, 196.7995
185.5301, 195.3741
186.0123, 195.0739
186.4944, 195.5787
186.9765, 195.8996
187.4586, 195.9721
187.9407, 195.9718
188.4228, 196.1912
188.9050, 196.6017
189.3871, 196.9262
189.8692, 197.1039
190.3513, 197.1032
190.8334, 196.5974
191.3155, 195.3968
191.7977, 194.1520
192.2798, 194.1221
192.7619, 195.3039
193.2440, 196.3449
193.7261, 196.4774
194.2082, 195.7766
194.6904, 195.1145
195.1725, 194.5767
195.6546, 194.0196
196.1367, 193.0856
196.6188, 191.7292
197.1009, 190.5379
197.5831, 189.8804
198.0652, 189.7471
198.5473, 189.6260
199.0294, 189.4601
199.5115, 189.3275
199.9937, 189.5199
200.4758, 190.1262
200.9579, 190.4757
201.4400, 189.9381
201.9221, 188.3963
202.4042, 187.7245
202.8864, 188.3820
203.3685, 189.6044
203.8506, 189.3817
204.3327, 187.3586
204.8148, 185.3459
205.2969, 184.4416
205.7791, 184.8288
206.2612, 184.9770
206.7433, 184.7734
207.2254, 184.3021
207.7075, 183.6748
208.1896, 182.7424
208.6718, 182.0826
209.1539, 182.2182
209.6360, 183.4520
210.1181, 183.8801
210.6002, 183.1472
211.0823, 181.6945
211.5645, 180.8012
212.0466, 180.6753
212.5287, 180.6182
213.0108, 180.2129
213.4929, 179.3207
213.9750, 178.6474
214.4572, 178.3223
214.9393, 178.2057
215.4214, 177.8197
215.9035, 176.9777
216.3856, 176.2391
216.8678, 175.9540
217.3499, 176.2688
217.8320, 176.5268
218.3141, 176.6720
218.7962, 176.7406
219.2783, 176.8867
219.7605, 177.2356
220.2426, 177.4209
220.7247, 177.1495
221.2068, 176.0989
221.6889, 175.5514
222.1710, 175.8103
222.6532, 176.5509
223.1353, 176.7085
223.6174, 176.0037
224.0995, 175.1920
224.5816, 174.6976
225.0637, 174.7688
225.5459, 174.4956
226.0280, 173.7014
226.5101, 172.5787
226.9922, 171.7379
227.4743, 171.2481
227.9564, 170.9178
228.4386, 170.6730
228.9207, 170.5889
229.4028, 170.4067
229.8849, 170.0621
230.3670, 169.6288
230.8492, 169.3093
231.3313, 169.1510
231.8134, 169.0383
232.2955, 168.9757
232.7776, 169.2072
233.2597, 168.8559
233.7419, 167.4346
234.2240, 165.5633
234.7061, 165.0407
235.1882, 166.8636
235.6703, 168.5217
236.1524, 168.8642
236.6346, 167.1046
237.1167, 165.8162
237.5988, 165.0478
238.0809, 164.7213
238.5630, 164.7081
239.0451, 165.2793
239.5273, 165.7507
240.0094, 165.7864
240.4915, 165.0856
240.9736, 164.7763
241.4557, 165.2250
241.9378, 165.8965
242.4200, 165.5165
242.9021, 162.9975
243.3842, 161.1201
243.8663, 161.2308
244.3484, 164.5341
244.8306, 166.1546
245.3127, 165.4545
245.7948, 163.4028
246.2769, 161.6840
246.7590, 160.1940
247.2411, 159.2517
247.7233, 159.1361
248.2054, 160.2387
248.6875, 160.6369
249.1696, 159.8242
249.6517, 158.6459
250.1338, 158.5825
250.6160, 160.3558
251.0981, 161.9561
251.5802, 162.7596
252.0623, 162.6838
252.5444, 162.2328
253.0265, 161.1920
253.5087, 159.9569
253.9908, 159.1226
254.4729, 158.8448
254.9550, 158.6404
255.4371, 158.3745
255.9192, 158.0345
256.4014, 157.6819
256.8835, 156.9986
257.3656, 156.6197
257.8477, 157.5906
258.3298, 160.9852
258.8120, 163.2696
259.2941, 163.1319
259.7762, 160.3429
260.2583, 159.1119
260.7404, 159.9972
261.2225, 161.7279
261.7047, 163.0556
262.1868, 164.0051
262.6689, 164.4455
263.1510, 164.1418
263.6331, 163.1295
264.1152, 162.7516
264.5974, 163.2316
265.0795, 164.0060
265.5616, 164.4714
266.0437, 164.4488
266.5258, 164.7638
267.0079, 165.7041
267.4901, 167.1731
267.9722, 168.1293
268.4543, 168.3236
268.9364, 168.5331
269.4185, 169.4874
269.9006, 171.4023
270.3828, 173.1670
270.8649, 174.7644
271.3470, 176.0809
271.8291, 176.4678
272.3112, 175.6324
272.7933, 174.6316
273.2755, 174.2135
273.7576, 174.4234
274.2397, 174.8801
274.7218, 175.6530
275.2039, 176.5723
275.6860, 177.0440
276.1682, 176.9477
276.6503, 176.8734
277.1324, 177.4956
277.6145, 178.9502
278.0966, 179.1482
278.5787, 177.6220
279.0609, 175.1399
279.5430, 173.3795
280.0251, 172.4615
280.5072, 171.6074
280.9893, 170.4263
281.4715, 168.9313
281.9536, 167.2959
282.4357, 165.5405
282.9178, 163.6190
283.3999, 161.2478
283.8820, 158.3763
284.3642, 155.8998
284.8463, 154.5071
285.3284, 154.0613
285.8105, 153.0696
286.2926, 151.4645
286.7747, 149.4715
287.2569, 147.1788
287.7390, 144.6095
288.2211, 142.4090
288.7032, 140.8145
289.1853, 139.8022
289.6674, 139.5298
290.1496, 140.1498
290.6317, 140.5235
291.1138, 138.7735
291.5959, 135.2841
292.0780, 132.8084
292.5602, 132.6451
293.0423, 133.9397
293.5244, 134.7801
294.0065, 135.1730
294.4886, 134.8306
294.9707, 132.8387
295.4529, 129.7336
295.9350, 127.5191
296.4171, 126.8946
296.8992, 127.2434
297.3813, 127.6651
297.8634, 128.1470
298.3456, 128.5635
298.8277, 129.0087
299.3098, 129.3070
299.7919, 128.9284
300.2740, 127.4440
300.7561, 125.8179
301.2383, 125.4781
301.7204, 126.1985
302.2025, 126.9808
302.6846, 127.4543
303.1667, 127.5212
303.6488, 126.8719
304.1310, 125.2373
304.6131, 123.5968
305.0952, 122.9995
305.5773, 123.2001
306.0594, 123.5346
306.5415, 123.7197
307.0237, 123.8273
307.5058, 123.9080
307.9879, 123.9522
308.4700, 124.0642
308.9521, 124.6666
309.4343, 125.3573
309.9164, 125.4493
310.3985, 123.6923
310.8806, 121.8721
311.3627, 121.5982
311.8448, 122.9547
312.3270, 124.2687
312.8091, 124.4541
313.2912, 124.0614
313.7733, 123.7409
314.2554, 124.0043
314.7375, 124.1555
315.2197, 123.5817
315.7018, 122.4009
316.1839, 121.6552
316.6660, 122.1588
317.1481, 123.1181
317.6302, 123.8894
318.1124, 124.3777
318.5945, 124.5899
319.0766, 124.4781
319.5587, 124.0804
320.0408, 123.5330
320.5229, 122.8068
321.0051, 121.9926
321.4872, 121.1442
321.9693, 120.3255
322.4514, 119.3853
322.9335, 117.8008
323.4156, 116.1109
323.8978, 115.3554
324.3799, 116.7910
324.8620, 118.2521
325.3441, 118.8818
325.8262, 118.2471
326.3083, 117.9433
326.7905, 118.3574
327.2726, 119.0817
327.7547, 119.6085
328.2368, 120.2662
328.7189, 120.3637
329.2010, 119.3362
329.6832, 116.9728
330.1653, 115.9633
330.6474, 117.6167
331.1295, 119.6818
331.6116, 120.2370
332.0938, 117.6055
332.5759, 116.1903
333.0580, 117.2281
333.5401, 120.2309
334.0222, 121.3772
334.5043, 119.7164
334.9865, 117.5267
335.4686, 116.1034
335.9507, 115.5841
336.4328, 115.4896
336.9149, 115.9258
337.3970, 116.7091
337.8792, 117.4279
338.3613, 118.2386
338.8434, 118.5807
339.3255, 117.9472
339.8076, 116.0988
340.2898, 115.1845
340.7719, 115.3971
341.2540, 116.1985
341.7361, 116.8766
342.2182, 117.4202
342.7003, 117.8371
343.1825, 118.0258
343.6646, 118.0591
344.1467, 118.5782
344.6288, 119.7203
345.1109, 120.6763
345.5930, 120.3692
346.0752, 118.9444
346.5573, 117.8727
347.0394, 117.6038
347.5215, 117.8110
348.0036, 117.6476
348.4857, 117.1300
348.9679, 116.8942
349.4500, 117.7609
349.9321, 119.3070
350.4142, 120.2492
350.8963, 120.2805
351.3784, 119.9527
351.8606, 119.9859
352.3427, 120.2776
352.8248, 120.4485
353.3069, 119.8548
353.7890, 119.1794
354.2711, 119.5766
354.7533, 121.2533
355.2354, 122.8902
355.7175, 123.0534
356.1996, 122.4233
356.6817, 122.1861
357.1638, 123.2855
357.6460, 124.6418
358.1281, 125.4718
358.6102, 125.7869
359.0923, 125.9211
359.5744, 125.9569
360.0565, 125.9457
360.5387, 125.9203
361.0208, 125.6686
361.5029, 125.6825
361.9850, 126.1989
362.4671, 127.1560
362.9492, 128.3646
363.4314, 130.4791
363.9135, 132.3048
364.3956, 132.9592
364.8777, 131.4596
365.3598, 130.8792
365.8419, 132.8066
366.3241, 135.8320
366.8062, 137.8308
367.2883, 137.3617
367.7704, 136.9429
368.2526, 137.4056
368.7347, 139.0238
369.2168, 140.0315
369.6989, 139.8914
370.1810, 139.4531
370.6631, 139.4000
371.1453, 139.7866
371.6274, 140.4874
372.1095, 141.5750
372.5916, 143.0022
373.0737, 144.4886
373.5558, 146.4005
374.0380, 147.8472
374.5201, 148.1084
375.0022, 146.4983
375.4843, 146.1278
375.9664, 147.7151
376.4485, 150.0467
376.9307, 150.4834
377.4128, 148.5246
377.8949, 146.7805
378.3770, 146.3891
378.8591, 147.2797
379.3412, 148.1695
379.8234, 149.1181
380.3055, 149.8292
380.7876, 149.9192
381.2697, 149.4094
381.7518, 148.6059
382.2339, 147.3955
382.7161, 146.0970
383.1982, 145.6149
383.6803, 145.9248
384.1624, 146.1731
384.6445, 145.5282
385.1266, 144.3437
385.6088, 143.4496
386.0909, 142.9354
386.5730, 142.8467
387.0551, 143.8076
387.5372, 145.3392
388.0193, 146.0758
388.5015, 144.6317
388.9836, 142.3763
389.4657, 140.6973
389.9478, 139.6751
390.4299, 138.9957
390.9120, 138.4949
391.3942, 138.1935
391.8763, 138.1282
392.3584, 138.5332
392.8405, 138.9637
393.3226, 139.2255
393.8047, 139.3299
394.2869, 139.3277
394.7690, 139.6044
395.2511, 139.5326
395.7332, 138.5600
396.2154, 135.7952
396.6975, 133.8282
397.1796, 133.5420
397.6617, 134.3297
398.1438, 135.1388
398.6259, 136.0010
399.1081, 136.7071
399.5902, 137.1675
400.0723, 137.3513
400.5544, 137.5127
401.0365, 137.7670
401.5186, 137.9091
402.0008, 137.7240
402.4829, 136.8485
402.9650, 136.3465
403.4471, 136.4903
403.9292, 137.0934
404.4113, 137.3288
404.8935, 137.0303
405.3756, 136.7505
405.8577, 136.7695
406.3398, 137.1100
406.8219, 137.7013
407.3040, 138.7580
407.7862, 139.6612
408.2683, 139.2018
408.7504, 137.3254
409.2325, 135.9748
409.7146, 136.0377
410.1967, 137.0786
410.6789, 137.7061
411.1610, 137.9172
411.6431, 137.8512
412.1252, 137.4457
412.6073, 136.8458
413.0894, 136.4666
413.5716, 136.4046
414.0537, 136.5691
414.5358, 137.0262
415.0179, 137.6581
415.5000, 138.0979
415.9821, 138.2563
416.4643, 138.0522
416.9464, 137.0743
417.4285, 135.2167
417.9106, 133.8986
418.3927, 134.4949
418.8748, 135.9951
419.3570, 137.1884
419.8391, 137.5170
420.3212, 137.6160
420.8033, 137.5851
421.2854, 137.4960
421.7675, 137.6732
422.2497, 138.8133
422.7318, 139.8043
423.2139, 139.8850
423.6960, 138.1085
424.1781, 137.3256
424.6602, 138.9250
425.1424, 141.4086
425.6245, 142.5436
426.1066, 141.0242
426.5887, 139.7900
427.0709, 139.5895
427.5530, 140.4212
428.0351, 140.8024
428.5172, 140.3942
428.9993, 140.0024
429.4814, 140.2563
429.9636, 141.3414
430.4457, 142.4136
430.9278, 143.5577
431.4099, 144.4993
431.8920, 144.3837
432.3741, 143.0328
432.8563, 142.0034
433.3384, 142.1633
433.8205, 143.3273
434.3026, 144.3004
434.7847, 145.1012
435.2668, 145.6145
435.7490, 145.4138
436.2311, 144.7633
436.7132, 144.6663
437.1953, 145.6166
437.6774, 146.9142
438.1595, 147.5511
438.6417, 147.6824
439.1238, 147.9501
439.6059, 149.0432
440.0880, 150.3167
440.5701, 150.9310
441.0522, 150.6749
441.5344, 150.6482
442.0165, 151.7605
442.4986, 153.4289
442.9807, 154.9348
443.4628, 156.1781
443.9449, 157.0808
444.4271, 157.2211
444.9092, 156.8212
445.3913, 157.1334
445.8734, 159.6772
446.3555, 162.0712
446.8376, 162.9526
447.3198, 160.7798
447.8019, 159.9815
448.2840, 161.2677
448.7661, 163.7059
449.2482, 166.0937
449.7303, 168.7140
450.2125, 170.7355
450.6946, 171.7440
451.1767, 171.8524
451.6588, 172.7195
452.1409, 174.5831
452.6230, 176.6687
453.1052, 178.5147
453.5873, 180.1532
454.0694, 181.2208
454.5515, 181.5050
455.0337, 181.5885
455.5158, 182.4751
455.9979, 184.1283
456.4800, 185.8951
456.9621, 187.4554
457.4442, 188.9636
457.9264, 190.7947
458.4085, 192.9360
458.8906, 195.2973
459.3727, 198.0664
459.8548, 200.9294
460.3369, 203.1853
460.8191, 204.3506
461.3012, 205.7494
461.7833, 208.9929
462.2654, 213.2491
462.7475, 216.7731
463.2296, 218.1454
463.7118, 219.1652
464.1939, 220.7265
464.6760, 222.9006
465.1581, 225.4706
465.6402, 228.7522
466.1223, 232.1489
466.6045, 235.1973
467.0866, 237.3762
467.5687, 239.7553
468.0508, 242.7124
468.5329, 245.8867
469.0150, 248.4771
469.4972, 249.9805
469.9793, 251.6196
470.4614, 253.8371
470.9435, 256.6786
471.4256, 259.2906
471.9077, 261.8482
472.3899, 263.8363
472.8720, 264.5672
473.3541, 263.9241
473.8362, 263.6217
474.3183, 264.0900
474.8004, 264.7102
475.2826, 264.1572
475.7647, 262.4958
476.2468, 260.6561
476.7289, 259.3928
477.2110, 258.2204
477.6931, 256.1423
478.1753, 253.1436
478.6574, 249.3718
479.1395, 244.6157
479.6216, 239.2570
480.1037, 233.8103
480.5858, 228.2443
481.0680, 222.8903
481.5501, 218.0871
482.0322, 213.6491
482.5143, 209.2312
482.9964, 204.6742
483.4786, 200.1313
483.9607, 195.6636
484.4428, 191.3195
484.9249, 186.9724
485.4070, 182.4341
485.8892, 178.0343
486.3713, 174.0075
486.8534, 170.3238
487.3355, 167.1032
487.8176, 164.3981
488.2997, 162.1475
488.7819, 160.2573
489.2640, 159.0043
489.7461, 157.4195
490.2282, 154.8902
490.7103, 151.5203
491.1924, 149.7438
491.6746, 149.8806
492.1567, 150.2366
492.6388, 149.0457
493.1209, 146.5365
493.6030, 144.9988
494.0851, 144.9254
494.5673, 145.3241
495.0494, 144.6343
495.5315, 143.1536
496.0136, 141.9823
496.4957, 142.0106
496.9778, 142.3860
497.4600, 142.0516
497.9421, 141.0790
498.4242, 140.2120
498.9063, 139.8616
499.3884, 139.8272
499.8705, 139.8937
500.3527, 139.8927
500.8348, 140.3142
501.3169, 141.7603
501.7990, 143.6104
502.2811, 144.9996
502.7632, 145.4743
503.2454, 145.7796
503.7275, 146.0312
504.2096, 146.2361
504.6917, 146.4545
505.1738, 146.6775
505.6559, 146.9252
506.1381, 147.1582
506.6202, 147.2828
507.1023, 147.8080
507.5844, 148.8068
508.0665, 150.0744
508.5486, 151.2790
509.0308, 152.4189
509.5129, 153.8893
509.9950, 155.9948
510.4771, 158.2962
510.9592, 159.8342
511.4413, 160.6499
511.9235, 161.2433
512.4056, 161.4013
512.8877, 161.7282
513.3698, 163.5932
513.8519, 167.2272
514.3340, 170.3013
514.8162, 170.2664
515.2983, 169.0034
515.7804, 168.8156
516.2625, 171.5426
516.7446, 173.9971
517.2267, 174.1772
517.7089, 173.1084
518.1910, 173.3085
518.6731, 177.3522
519.1552, 180.8482
519.6373, 181.8244
520.1194, 179.9625
520.6016, 179.1407
521.0837, 179.7813
521.5658, 180.9931
522.0479, 182.1604
522.5300, 183.2067
523.0121, 184.4467
523.4943, 185.9253
523.9764, 187.5704
524.4585, 189.4608
524.9406, 191.5838
525.4227, 193.1195
525.9048, 193.5245
526.3870, 193.2544
526.8691, 193.5209
527.3513, 194.2866
527.8334, 194.9601
528.3155, 194.7654
528.7976, 194.3470
529.2797, 194.8094
529.7618, 196.4430
530.2440, 197.9897
530.7261, 198.3004
531.2082, 198.0692
531.6903, 198.1789
532.1724, 199.2167
532.6545, 200.3201
533.1367, 201.3816
533.6188, 202.3221
534.1009, 202.9084
534.5830, 202.9771
535.0651, 202.7877
535.5472, 202.2477
536.0294, 201.1941
536.5115, 200.9918
536.9936, 201.9344
537.4757, 203.3191
537.9578, 204.6681
538.4399, 206.0487
538.9221, 207.0435
539.4042, 207.6208
539.8863, 207.7957
540.3684, 207.4195
540.8505, 206.5465
541.3326, 205.8264
541.8148, 205.4749
542.2969, 205.4677
542.7790, 205.9549
543.2611, 206.8614
543.7432, 207.6033
544.2253, 207.7696
544.7075, 207.5795
545.1896, 207.1290
545.6717, 206.3303
546.1538, 205.8577
546.6359, 206.7416
547.1180, 207.8316
547.6002, 207.8913
548.0823, 205.7876
548.5644, 203.6058
549.0465, 201.5414
549.5286, 199.6483
550.0107, 198.0926
550.4929, 197.0373
550.9750, 196.0669
551.4571, 195.0033
551.9392, 193.8402
552.4213, 193.1798
552.9034, 193.2749
553.3856, 193.0731
553.8677, 191.4871
554.3498, 188.6484
554.8319, 186.0920
555.3140, 183.9335
555.7961, 182.2114
556.2783, 181.0882
556.7604, 180.4648
557.2425, 180.1118
557.7246, 180.2915
558.2067, 180.3433
558.6888, 179.1948
559.1710, 177.2774
559.6531, 176.0715
560.1352, 177.5591
560.6173, 178.9888
561.0994, 178.3467
561.5815, 175.1395
562.0637, 172.8473
562.5458, 172.9424
563.0279, 173.6842
563.5100, 173.7725
563.9921, 172.5756
564.4742, 171.8497
564.9564, 171.8534
565.4385, 172.1684
565.9206, 172.1181
566.4027, 171.6797
566.8848, 170.9528
567.3669, 169.8548
567.8491, 168.5473
568.3312, 167.5562
568.8133, 166.8804
569.2954, 166.4214
569.7775, 166.3389
570.2596, 166.3740
570.7418, 166.0572
571.2239, 165.3557
571.7060, 164.4310
572.1881, 163.2183
572.6702, 161.9371
573.1523, 160.8036
573.6345, 159.8405
574.1166, 159.1114
574.5987, 158.8636
575.0808, 158.8301
575.5629, 158.5607
576.0450, 157.9926
576.5272, 157.1686
577.0093, 156.0818
577.4914, 154.7515
577.9735, 153.1442
578.4556, 150.8999
578.9377, 149.1547
579.4199, 148.6394
579.9020, 149.3895
580.3841, 149.8387
580.8662, 149.9859
581.3483, 149.8532
581.8304, 149.0907
582.3126, 148.0134
582.7947, 147.9202
583.2768, 149.3828
583.7589, 150.8694
584.2410, 150.4675
584.7231, 148.9120
585.2053, 147.6580
585.6874, 147.4849
586.1696, 147.6186
586.6517, 147.8228
587.1338, 148.0298
587.6159, 147.9753
588.0980, 147.0785
588.5801, 146.3561
589.0623, 146.4057
589.5444, 147.4260
590.0265, 147.8550
590.5086, 147.4633
590.9907, 146.7755
591.4728, 146.0681
591.9550, 145.2563
592.4371, 145.1527
592.9192, 146.0367
593.4013, 147.1319
593.8834, 147.2711
594.3655, 146.5691
594.8477, 145.6982
595.3298, 144.7528
595.8119, 143.9163
596.2940, 143.4671
596.7761, 143.3506
597.2582, 143.3685
597.7404, 143.2761
598.2225, 143.3862
598.7046, 144.0085
599.1867, 145.1486
599.6688, 146.2755
600.1509, 147.7356
600.6331, 148.7744
601.1152, 148.7634
601.5973, 146.8798
602.0794, 145.9418
602.5615, 146.5213
603.0436, 147.5064
603.5258, 147.4473
604.0079, 145.9985
604.4900, 145.4352
604.9721, 146.3074
605.4542, 147.9777
605.9363, 149.3649
606.4185, 150.4502
606.9006, 151.1512
607.3827, 151.2637
607.8648, 151.0602
608.3469, 150.8048
608.8290, 150.5339
609.3112, 150.4657
609.7933, 151.0804
610.2754, 151.6979
610.7575, 151.6379
611.2396, 150.6906
611.7217, 150.1827
612.2039, 150.5470
612.6860, 151.4502
613.1681, 152.6949
613.6502, 154.8572
614.1323, 156.2819
614.6144, 156.6755
615.0966, 156.5521
615.5787, 156.5893
616.0608, 156.7693
616.5429, 157.3345
617.0250, 158.6258
617.5071, 160.0131
617.9893, 159.5823
618.4714, 157.6051
618.9535, 156.2071
619.4356, 156.8416
619.9177, 158.4776
620.3998, 160.1108
620.8820, 161.6625
621.3641, 162.6355
621.8462, 162.1178
622.3283, 161.3626
622.8104, 161.4035
623.2925, 162.6621
623.7747, 163.5100
624.2568, 163.1660
624.7389, 162.5975
625.2210, 162.6309
625.7031, 163.7841
626.1852, 164.3711
626.6674, 164.1595
627.1495, 163.5030
627.6316, 162.9041
628.1137, 162.3582
628.5958, 161.9982
629.0779, 161.9183
629.5601, 161.9848
630.0422, 161.9514
630.5243, 161.8339
631.0064, 161.6986
631.4885, 161.6363
631.9706, 161.5399
632.4528, 161.3505
632.9349, 161.0576
633.4170, 160.5618
633.8991, 159.4646
634.3812, 158.4219
634.8633, 157.8477
635.3455, 157.9445
635.8276, 158.0387
636.3097, 158.2073
636.7918, 158.2766
637.2739, 158.1308
637.7560, 157.8106
638.2382, 157.0420
638.7203, 155.6736
639.2024, 154.1022
639.6845, 152.7627
640.1666, 151.6834
640.6487, 151.1949
641.1309, 151.6272
641.6130, 152.3539
642.0951, 152.5471
642.5772, 152.3197
643.0594, 151.9825
643.5415, 152.2851
644.0236, 152.0025
644.5057, 149.8824
644.9879, 146.1584
645.4700, 143.2478
645.9521, 141.6872
646.4342, 141.1015
646.9163, 141.5216
647.3984, 143.2195
647.8806, 144.1090
648.3627, 144.0369
648.8448, 143.4724
649.3269, 142.6671
649.8090, 141.6231
650.2911, 140.7285
650.7733, 139.9889
651.2554, 139.4534
651.7375, 139.2583
652.2196, 139.3023
652.7017, 139.3437
653.1838, 139.3400
653.6660, 139.2609
654.1481, 139.0529
654.6302, 138.7557
655.1123, 138.4375
655.5944, 138.1914
656.0765, 137.8490
656.5587, 137.3613
657.0408, 136.7301
657.5229, 135.9219
658.0050, 134.6100
658.4871, 133.7145
658.9692, 133.7080
659.4514, 134.4817
659.9335, 134.8270
660.4156, 134.7163
660.8977, 134.4036
661.3798, 133.9752
661.8619, 133.4954
662.3441, 133.1724
662.8262, 133.0249
663.3083, 132.8131
663.7904, 132.2178
664.2725, 131.5191
664.7546, 131.0372
665.2368, 130.8989
665.7189, 130.8122
666.2010, 130.9089
666.6831, 130.9071
667.1652, 130.4320
667.6473, 128.6781
668.1295, 127.8512
668.6116, 128.6120
669.0937, 130.0002
669.5758, 129.8903
670.0579, 128.0673
670.5400, 126.9108
671.0222, 127.4767
671.5043, 128.7435
671.9864, 128.1731
672.4685, 126.1935
672.9506, 124.9299
673.4327, 126.5778
673.9149, 128.7413
674.3970, 129.1752
674.8791, 128.0337
675.3612, 126.8038
675.8433, 125.9369
676.3254, 125.2423
676.8076, 124.5713
677.2897, 123.8538
677.7718, 123.6460
678.2539, 124.2222
678.7360, 124.9328
679.2181, 125.2776
679.7003, 125.1838
680.1824, 125.6882
680.6645, 127.0313
681.1466, 128.0735
681.6287, 126.8887
682.1108, 124.3980
682.5930, 123.4248
683.0751, 124.9449
683.5572, 126.5772
684.0393, 125.9056
684.5214, 124.1863
685.0035, 123.2170
685.4857, 124.2824
685.9678, 125.3331
686.4499, 125.9916
686.9320, 126.2623
687.4141, 126.1433
687.8962, 125.2371
688.3784, 124.7184
688.8605, 124.9765
689.3426, 125.7515
689.8247, 126.1293
690.3068, 126.1005
690.7889, 126.0459
691.2711, 126.2002
691.7532, 126.4331
692.2353, 126.5946
692.7174, 126.6420
693.1995, 126.3142
693.6816, 124.6065
694.1638, 123.0880
694.6459, 123.3639
695.1280, 125.6421
695.6101, 127.0951
696.0922, 126.3546
696.5743, 125.1539
697.0565, 124.4390
697.5386, 124.3629
698.0207, 124.0647
698.5028, 123.4031
698.9849, 122.8224
699.4670, 122.8521
699.9492, 123.4205
700.4313, 123.7945
700.9135, 123.8941
701.3956, 123.7619
701.8777, 123.1069
702.3598, 122.3258
702.8419, 122.1618
703.3240, 123.1398
703.8062, 124.1056
704.2883, 124.3340
704.7704, 124.2115
705.2525, 124.2988
705.7346, 125.0736
706.2167, 125.5552
706.6989, 125.4983
707.1810, 125.1630
707.6631, 125.2357
708.1452, 125.8556
708.6273, 126.0248
709.1094, 125.2704
709.5916, 124.0526
710.0737, 123.3456
710.5558, 123.1184
711.0379, 123.1749
711.5200, 123.5432
712.0021, 124.0502
712.4843, 124.6269
712.9664, 125.2367
713.4485, 125.7139
713.9306, 126.0559
714.4127, 126.1886
714.8948, 125.9529
715.3770, 125.3430
715.8591, 125.0340
716.3412, 125.1515
716.8233, 125.3229
717.3054, 125.3597
717.7875, 125.2646
718.2697, 124.9342
718.7518, 124.3221
719.2339, 124.0808
719.7160, 125.4679
720.1981, 127.3403
720.6802, 127.5985
721.1624, 125.8398
721.6445, 124.2179
722.1266, 124.2273
722.6087, 124.8119
723.0908, 125.0331
723.5729, 124.2916
724.0551, 124.1417
724.5372, 124.9899
725.0193, 126.1304
725.5014, 126.9099
725.9835, 127.3372
726.4656, 127.2115
726.9478, 126.2999
727.4299, 125.3968
727.9120, 126.0408
728.3941, 127.6773
728.8762, 128.4522
729.3583, 127.5625
729.8405, 126.2868
730.3226, 125.5790
730.8047, 125.2273
731.2868, 124.9044
731.7689, 124.3605
732.2510, 124.0022
732.7332, 124.0066
733.2153, 124.2377
733.6974, 124.3626
734.1795, 124.1211
734.6616, 124.6052
735.1437, 126.4691
735.6259, 128.8795
736.1080, 129.4406
736.5901, 128.3366
737.0722, 127.1951
737.5543, 126.7073
738.0364, 126.6548
738.5186, 127.0766
739.0007, 127.7752
739.4828, 128.0613
739.9649, 127.2530
740.4470, 126.3345
740.9291, 125.5240
741.4113, 124.9040
741.8934, 125.1124
742.3755, 126.6845
742.8576, 128.1268
743.3397, 128.8158
743.8218, 128.8372
744.3040, 128.8391
744.7861, 128.8202
745.2682, 128.8477
745.7503, 129.0165
746.2324, 129.2412
746.7145, 129.4013
747.1967, 129.4907
747.6788, 129.4844
748.1609, 129.3376
748.6430, 129.1131
749.1251, 128.8130
749.6072, 128.3965
750.0894, 128.1296
750.5715, 127.9842
751.0536, 128.0337
751.5357, 128.4231
752.0178, 129.2129
752.4999, 129.5925
752.9821, 129.5178
753.4642, 129.3374
753.9463, 129.3044
754.4284, 129.4212
754.9105, 129.7858
755.3926, 130.4553
755.8748, 130.9283
756.3569, 130.7648
756.8390, 130.3302
757.3211, 129.8729
757.8032, 129.0896
758.2853, 129.1343
758.7675, 130.5116
759.2496, 132.2493
759.7318, 133.6248
760.2139, 134.6823
760.6960, 134.7988
761.1781, 133.7278
761.6602, 132.4111
762.1423, 131.9789
762.6245, 132.1975
763.1066, 132.5936
763.5887, 133.1992
764.0708, 133.4972
764.5529, 132.5798
765.0350, 131.3723
765.5172, 130.9720
765.9993, 132.5770
766.4814, 133.7122
766.9635, 134.1386
767.4456, 134.1125
767.9277, 133.8097
768.4099, 133.0948
768.8920, 133.1170
769.3741, 134.3060
769.8562, 135.6702
770.3383, 135.4497
770.8204, 134.2235
771.3026, 133.6441
771.7847, 134.6925
772.2668, 135.6397
772.7489, 135.0484
773.2310, 133.6583
773.7131, 132.6395
774.1953, 132.2703
774.6774, 132.2935
775.1595, 132.9317
775.6416, 133.7873
776.1237, 134.0084
776.6058, 133.4632
777.0880, 133.3983
777.5701, 134.3573
778.0522, 135.4773
778.5343, 134.8748
779.0164, 133.1857
779.4985, 132.2892
779.9807, 133.7045
780.4628, 135.2159
780.9449, 135.4294
781.4270, 134.7624
781.9091, 134.0931
782.3912, 133.1685
782.8734, 132.8589
783.3555, 133.6952
783.8376, 135.0318
784.3197, 135.0645
784.8018, 133.6560
785.2839, 132.6285
785.7661, 132.6662
786.2482, 133.2137
786.7303, 133.4377
787.2124, 133.4073
787.6945, 133.3249
788.1766, 133.3558
788.6588, 133.2854
789.1409, 132.8461
789.6230, 132.2159
790.1051, 131.9044
790.5872, 132.1781
791.0693, 132.4309
791.5515, 132.5422
792.0336, 132.5568
792.5157, 132.6469
792.9978, 132.8140
793.4799, 132.7731
793.9620, 132.2798
794.4442, 131.6851
794.9263, 131.5595
795.4084, 131.7603
795.8905, 131.8868
796.3726, 131.7586
796.8547, 131.5182
797.3369, 131.1762
797.8190, 130.7608
798.3011, 130.3320
798.7832, 129.6690
799.2653, 129.4893
799.7474, 130.2466
800.2296, 131.3930
800.7117, 131.2268
801.1938, 129.8604
801.6759, 128.5014
802.1580, 127.5044
802.6401, 126.9325
803.1223, 127.1434
803.6044, 127.8612
804.0865, 128.3598
804.5686, 128.3401
805.0507, 128.1027
805.5328, 127.5579
806.0150, 126.8810
806.4971, 126.6044
806.9792, 126.9838
807.4613, 126.8914
807.9434, 125.8051
808.4255, 124.2908
808.9077, 123.6349
809.3898, 123.7066
809.8719, 123.9365
810.3540, 124.3829
810.8361, 124.5572
811.3182, 123.7840
811.8004, 122.4548
812.2825, 121.4827
812.7646, 121.1890
813.2467, 121.2035
813.7288, 121.6801
814.2109, 122.3246
814.6931, 122.2695
815.1752, 121.4141
815.6573, 120.8154
816.1394, 120.8561
816.6215, 121.1770
817.1037, 121.1915
817.5858, 120.9961
818.0679, 120.8441
818.5500, 120.7915
819.0322, 120.8642
819.5143, 121.2886
819.9964, 121.8147
820.4785, 121.8612
820.9606, 120.8906
821.4427, 120.4577
821.9249, 121.0550
822.4070, 122.0398
822.8891, 121.9879
823.3712, 120.9927
823.8533, 120.0775
824.3354, 119.5314
824.8176, 119.1738
825.2997, 118.9923
825.7818, 118.8206
826.2639, 118.3774
826.7460, 116.9324
827.2281, 115.9775
827.7103, 116.0382
828.1924, 116.6790
828.6745, 117.4730
829.1566, 118.5915
829.6387, 119.0970
830.1208, 118.7428
830.6030, 117.9746
831.0851, 117.2960
831.5672, 116.7659
832.0493, 116.5726
832.5314, 116.8262
833.0135, 117.2723
833.4957, 118.1781
833.9778, 118.9827
834.4599, 119.0348
834.9420, 117.7578
835.4241, 116.2420
835.9063, 114.0930
836.3884, 112.1922
836.8705, 111.8396
837.3526, 112.9859
837.8347, 113.8184
838.3168, 114.1229
838.7990, 114.0959
839.2811, 113.6208
839.7632, 113.0834
840.2453, 113.0963
840.7274, 113.9812
841.2095, 114.7091
841.6917, 114.7994
842.1738, 114.6835
842.6559, 114.7070
843.1380, 114.9317
843.6201, 115.1133
844.1022, 115.2999
844.5844, 115.2777
845.0665, 114.3809
845.5486, 113.1613
846.0307, 113.4420
846.5128, 115.4179
846.9949, 117.2329
847.4771, 117.8013
847.9592, 117.6020
848.4413, 116.7721
848.9234, 115.0859
849.4055, 114.2202
849.8876, 114.6489
850.3698, 115.2056
850.8519, 115.1322
851.3340, 114.5041
851.8161, 114.2868
852.2982, 114.4784
852.7803, 114.9475
853.2625, 116.1076
853.7446, 117.1565
854.2267, 116.9541
854.7088, 115.6012
855.1909, 114.7380
855.6730, 115.3545
856.1552, 116.1080
856.6373, 116.5257
857.1194, 116.6365
857.6015, 116.6516
858.0836, 116.5541
858.5657, 116.5037
859.0479, 116.6168
859.5300, 116.7985
860.0121, 116.7780
860.4942, 116.6469
860.9763, 116.7285
861.4584, 117.9338
861.9406, 118.6172
862.4227, 117.3210
862.9048, 114.8288
863.3869, 113.9864
863.8690, 115.5838
864.3511, 116.8642
864.8333, 117.1820
865.3154, 116.8438
865.7975, 116.1682
866.2796, 115.3430
866.7617, 115.2512
867.2438, 116.7181
867.7260, 118.1304
868.2081, 118.1430
868.6902, 117.3364
869.1723, 116.6299
869.6544, 115.9699
870.1365, 115.7947
870.6187, 116.3591
871.1008, 117.1527
871.5829, 117.4716
872.0650, 117.3357
872.5471, 117.0832
873.0292, 116.7219
873.5114, 116.4841
873.9935, 116.8568
874.4756, 117.3841
874.9577, 117.3796
875.4399, 116.4008
875.9220, 115.8976
876.4041, 116.7948
876.8862, 117.8150
877.3683, 118.0881
877.8505, 117.4605
878.3326, 117.1479
878.8147, 117.1821
879.2968, 117.2921
879.7789, 117.2869
880.2610, 117.1846
880.7432, 116.9210
881.2253, 116.5112
881.7074, 116.3369
882.1895, 116.9679
882.6716, 117.5284
883.1537, 117.3489
883.6359, 116.4967
884.1180, 116.4119
884.6001, 117.2810
885.0822, 118.1375
885.5643, 118.5440
886.0464, 118.6044
886.5286, 118.4495
887.0107, 118.1411
887.4928, 117.9314
887.9749, 118.3625
888.4570, 118.5163
888.9391, 117.3693
889.4213, 115.5561
889.9034, 115.2037
890.3855, 117.2240
890.8676, 118.5975
891.3497, 118.5779
891.8318, 117.8150
892.3140, 117.3170
892.7961, 117.1189
893.2782, 117.4612
893.7603, 118.7262
894.2424, 119.8063
894.7245, 119.6077
895.2067, 118.8566
895.6888, 118.4419
896.1709, 118.8584
896.6530, 119.0061
897.1351, 118.6406
897.6172, 118.3881
898.0994, 118.9277
898.5815, 120.1877
899.0636, 122.0711
899.5457, 124.6415
900.0278, 126.0936
900.5099, 123.4988
900.9921, 120.0615
901.4742, 118.9655
901.9563, 120.9472
902.4384, 122.3033
902.9205, 122.3670
903.4026, 122.0737
903.8848, 121.6831
904.3669, 121.2734
904.8490, 121.8407
905.3311, 123.3222
905.8132, 124.1383
906.2953, 122.4523
906.7775, 120.3176
907.2596, 119.7903
907.7417, 120.5667
908.2238, 121.4768
908.7059, 122.7279
909.1880, 123.3826
909.6702, 123.0764
910.1523, 122.1766
910.6344, 121.3712
911.1165, 120.6715
911.5986, 120.7312
912.0807, 122.0109
912.5629, 123.4102
913.0450, 123.6274
913.5271, 123.1539
914.0092, 122.6754
914.4913, 122.0249
914.9734, 122.0904
915.4556, 123.7663
915.9377, 125.4679
916.4198, 125.5117
916.9019, 123.7510
917.3840, 122.9662
917.8661, 123.3433
918.3483, 124.2847
918.8304, 125.8977
919.3125, 127.4034
919.7946, 127.6047
920.2767, 126.3697
920.7589, 125.3955
921.2410, 125.2985
921.7231, 125.4851
922.2052, 125.8562
922.6873, 126.3438
923.1694, 126.1269
923.6516, 125.1730
924.1337, 124.7083
924.6158, 125.7388
925.0979, 127.2554
925.5800, 128.0438
926.0621, 128.2368
926.5443, 128.1750
927.0264, 127.4492
927.5085, 127.1729
927.9906, 127.9154
928.4727, 128.9673
928.9548, 128.9503
929.4370, 127.8052
929.9191, 127.3771
930.4012, 128.0749
930.8833, 129.1819
931.3654, 130.2829
931.8475, 131.1243
932.3297, 131.2674
932.8118, 130.3799
933.2939, 129.7009
933.7761, 129.4362
934.2582, 129.5508
934.7403, 130.1874
935.2224, 131.3731
935.7045, 131.9206
936.1866, 131.8131
936.6688, 131.6397
937.1509, 132.1270
937.6330, 132.5608
938.1151, 131.7409
938.5972, 129.9830
939.0793, 129.0045
939.5615, 130.2958
940.0436, 131.2166
940.5257, 130.8683
941.0078, 129.8551
941.4899, 129.9185
941.9720, 131.0128
942.4542, 131.8877
942.9363, 132.1269
943.4184, 132.1813
943.9005, 132.4184
944.3826, 132.8265
944.8647, 133.4388
945.3469, 134.6643
945.8290, 135.2402
946.3111, 134.6068
946.7932, 133.9196
947.2753, 134.5242
947.7574, 136.3014
948.2396, 136.3263
948.7217, 134.4921
949.2038, 132.6629
949.6859, 132.0150
950.1680, 132.2358
950.6501, 133.5282
951.1323, 135.7649
951.6144, 136.9211
952.0965, 136.1931
952.5786, 135.3446
953.0607, 134.7791
953.5428, 134.5434
954.0250, 134.9274
954.5071, 135.8310
954.9892, 136.6594
955.4713, 137.0800
955.9534, 137.5110
956.4355, 138.7253
956.9177, 139.9724
957.3998, 140.1134
957.8819, 138.0276
958.3640, 136.7433
958.8461, 136.4483
959.3282, 136.7061
959.8104, 137.2188
960.2925, 137.9008
960.7746, 138.5344
961.2567, 139.0996
961.7388, 139.2961
962.2209, 138.1692
962.7031, 137.2541
963.1852, 138.0377
963.6673, 140.4032
964.1494, 141.2506
964.6315, 140.0370
965.1136, 139.1529
965.5958, 139.5815
966.0779, 140.8041
966.5600, 142.0540
967.0421, 143.2109
967.5242, 143.9043
968.0063, 143.7343
968.4885, 143.4445
968.9706, 143.1684
969.4527, 143.0079
969.9348, 143.1061
970.4169, 143.5305
970.8990, 143.8687
971.3812, 144.0771
971.8633, 144.3068
972.3454, 144.7574
972.8275, 145.2954
973.3096, 145.8537
973.7917, 146.4085
974.2739, 146.4810
974.7560, 145.1557
975.2381, 144.1429
975.7202, 144.2251
976.2023, 145.1427
976.6844, 145.5168
977.1666, 145.3598
977.6487, 145.4644
978.1308, 146.5048
978.6129, 147.3862
979.0950, 146.5103
979.5771, 144.8078
980.0593, 143.8014
980.5414, 144.5358
981.0235, 145.0231
981.5056, 145.0077
981.9877, 144.9778
982.4698, 145.5802
982.9520, 146.6625
983.4341, 147.3625
983.9162, 147.6195
984.3983, 147.2793
984.8804, 145.4690
985.3625, 143.6494
985.8447, 143.0622
986.3268, 143.6958
986.8089, 143.8567
987.2910, 143.3056
987.7731, 142.9691
988.2552, 143.2598
988.7374, 143.7876
989.2195, 143.8099
989.7016, 143.4136
990.1837, 142.7877
990.6658, 141.8436
991.1479, 140.9835
991.6301, 140.5806
992.1122, 140.2001
992.5944, 139.2949
993.0765, 137.6259
993.5586, 136.8949
994.0407, 137.1878
994.5228, 137.8547
995.0049, 138.6818
995.4871, 139.3738
995.9692, 139.4915
996.4513, 139.0752
996.9334, 138.5329
997.4155, 137.6001
997.8976, 137.0952
998.3798, 137.4719
998.8619, 138.2106
999.3440, 137.8136
999.8261, 136.4466
1000.308, 135.8525
1000.790, 136.7856
1001.272, 137.5797
1001.755, 136.5529
1002.237, 134.8040
1002.719, 133.4208
1003.201, 132.3775
1003.683, 132.4732
1004.165, 134.2555
1004.647, 135.8031
1005.129, 135.6046
1005.612, 134.2747
1006.094, 133.6344
1006.576, 133.5359
1007.058, 133.2443
1007.540, 131.7425
1008.022, 130.6921
1008.504, 131.1858
1008.986, 132.4136
1009.468, 133.1220
1009.951, 133.3193
1010.433, 132.6427
1010.915, 130.7932
1011.397, 129.1809
1011.879, 130.0069
1012.361, 131.6765
1012.843, 132.0541
1013.325, 130.6219
1013.807, 129.7175
1014.290, 130.0615
1014.772, 130.5009
1015.254, 130.5042
1015.736, 130.2225
1016.218, 130.4760
1016.700, 131.1104
1017.182, 131.1941
1017.664, 129.5240
1018.147, 128.2050
1018.629, 129.1611
1019.111, 131.0903
1019.593, 131.9591
1020.075, 131.2790
1020.557, 130.8887
1021.039, 130.9595
1021.521, 130.9427
1022.003, 129.8259
1022.486, 128.4650
1022.968, 128.8118
1023.450, 130.7601
1023.932, 131.9535
1024.414, 130.7770
1024.896, 129.4475
1025.378, 128.4598
1025.860, 127.9428
1026.343, 128.6152
1026.825, 130.3450
1027.307, 131.3532
1027.789, 130.9543
1028.271, 130.3509
1028.753, 130.6857
1029.235, 131.3693
1029.717, 131.7877
1030.199, 131.8986
1030.682, 131.4388
1031.164, 130.0847
1031.646, 129.0570
1032.128, 129.4035
1032.610, 130.5204
1033.092, 130.8520
1033.574, 130.5632
1034.056, 130.2490
1034.539, 129.8890
1035.021, 129.9134
1035.503, 130.9858
1035.985, 132.1694
1036.467, 132.0237
1036.949, 130.5040
1037.431, 129.4771
1037.913, 129.1625
1038.396, 129.2553
1038.878, 129.7175
1039.360, 130.2876
1039.842, 130.7988
1040.324, 131.2206
1040.806, 131.2897
1041.288, 130.7908
1041.770, 130.4421
1042.252, 130.4861
1042.734, 130.7890
1043.217, 131.2619
1043.699, 131.7574
1044.181, 131.8497
1044.663, 131.1942
1045.145, 130.6380
1045.627, 130.7208
1046.109, 130.8482
1046.591, 130.4811
1047.074, 129.5786
1047.556, 129.2619
1048.038, 129.5297
1048.520, 130.1706
1049.002, 131.6071
1049.484, 132.8481
1049.966, 132.6929
1050.448, 131.6525
1050.931, 131.2567
1051.413, 132.2420
1051.895, 132.4864
1052.377, 131.5415
1052.859, 130.3343
1053.341, 129.8839
1053.823, 130.0468
1054.305, 130.7831
1054.787, 132.0889
1055.270, 132.6778
1055.752, 130.9584
1056.234, 129.5095
1056.716, 129.5401
1057.198, 130.6536
1057.680, 131.4777
1058.162, 131.9996
1058.644, 131.8919
1059.126, 130.6736
1059.609, 129.7572
1060.091, 131.2241
1060.573, 133.2379
1061.055, 133.4569
1061.537, 130.8694
1062.019, 129.8860
1062.501, 130.8521
1062.983, 132.1621
1063.466, 132.9088
1063.948, 133.2081
1064.430, 133.2584
1064.912, 133.0508
1065.394, 132.5539
1065.876, 131.1504
1066.358, 130.3172
1066.840, 130.4843
1067.323, 131.0612
1067.805, 131.2458
1068.287, 131.1422
1068.769, 131.7138
1069.251, 133.0287
1069.733, 133.8538
1070.215, 132.3337
1070.697, 130.9249
1071.179, 131.8921
1071.661, 134.4721
1072.144, 135.1171
1072.626, 133.4769
1073.108, 132.2809
1073.590, 132.3284
1074.072, 132.7923
1074.554, 132.8080
1075.036, 132.5277
1075.518, 132.1030
1076.001, 131.4991
1076.483, 131.0789
1076.965, 130.9443
1077.447, 130.8431
1077.929, 130.6438
1078.411, 130.3895
1078.893, 130.2049
1079.375, 130.0719
1079.858, 129.9428
1080.340, 130.0105
1080.822, 129.7669
1081.304, 128.3286
1081.786, 127.0313
1082.268, 127.6221
1082.750, 130.1708
1083.232, 129.7342
1083.714, 126.2338
1084.197, 123.3074
1084.679, 124.1604
1085.161, 126.0301
1085.643, 127.2659
1086.125, 127.7646
1086.607, 127.5375
1087.089, 126.3446
1087.571, 125.2510
1088.054, 124.3252
1088.536, 123.8706
1089.018, 124.6241
1089.500, 125.8896
1089.982, 126.7654
1090.464, 127.1512
1090.946, 126.9263
1091.428, 125.6031
1091.911, 124.4136
1092.393, 123.6487
1092.875, 123.3490
1093.357, 123.9741
1093.839, 125.1546
1094.321, 125.6586
1094.803, 124.8820
1095.285, 124.2533
1095.767, 124.7720
1096.250, 125.3784
1096.732, 125.3250
1097.214, 124.6550
1097.696, 124.1315
1098.178, 123.7627
1098.660, 123.7405
1099.142, 124.5489
1099.624, 125.2800
1100.106, 125.0452
1100.589, 124.3563
1101.071, 124.0307
1101.553, 124.1913
1102.035, 124.4264
1102.517, 124.7409
1102.999, 125.0550
1103.481, 125.1845
1103.963, 125.3470
1104.446, 126.0237
1104.928, 127.0279
1105.410, 127.5621
1105.892, 127.0967
1106.374, 126.7721
1106.856, 126.8559
1107.338, 126.8906
1107.820, 125.8726
1108.302, 124.4045
1108.785, 123.9912
1109.267, 124.8083
1109.749, 125.8504
1110.231, 127.2233
1110.713, 128.0821
1111.195, 127.9549
1111.677, 127.2461
1112.159, 127.1403
1112.641, 127.5240
1113.124, 127.6510
1113.606, 127.2705
1114.088, 126.8900
1114.570, 126.9826
1115.052, 127.1017
1115.534, 126.7277
1116.016, 125.9132
1116.498, 126.1047
1116.981, 127.3403
1117.463, 128.4604
1117.945, 128.8930
1118.427, 129.0954
1118.909, 129.7074
1119.391, 130.3002
1119.873, 130.1304
1120.355, 128.5344
1120.838, 128.1986
1121.320, 129.4534
1121.802, 130.5373
1122.284, 130.2007
1122.766, 128.9520
1123.248, 126.6900
1123.730, 124.1714
1124.212, 123.3859
1124.694, 126.7946
1125.177, 129.2485
1125.659, 130.3048
1126.141, 130.5117
1126.623, 130.2374
1127.105, 129.6117
1127.587, 128.9035
1128.069, 128.1510
1128.551, 127.5136
1129.033, 126.5389
1129.516, 126.4419
1129.998, 127.8969
1130.480, 129.9603
1130.962, 131.1759
1131.444, 131.5977
1131.926, 131.4526
1132.408, 130.7508
1132.890, 129.9795
1133.373, 128.9503
1133.855, 128.4834
1134.337, 129.5971
1134.819, 131.5121
1135.301, 131.0792
1135.783, 128.4131
1136.265, 126.7071
1136.747, 126.8968
1137.229, 127.7896
1137.712, 128.6687
1138.194, 129.5616
1138.676, 130.7212
1139.158, 132.1505
1139.640, 132.1044
1140.122, 130.3550
1140.604, 129.4196
1141.086, 130.7696
1141.569, 132.5496
1142.051, 132.7818
1142.533, 132.1078
1143.015, 131.3672
1143.497, 130.6969
1143.979, 129.7314
1144.461, 128.1588
1144.943, 127.5863
1145.426, 129.7851
1145.908, 132.9236
1146.390, 134.0150
1146.872, 133.7488
1147.354, 133.5824
1147.836, 134.2842
1148.318, 134.4515
1148.800, 133.7984
1149.282, 133.2040
1149.765, 133.9046
1150.247, 135.0253
1150.729, 134.0693
1151.211, 131.5981
1151.693, 130.0918
1152.175, 131.5587
1152.657, 132.5970
1153.139, 132.4686
1153.621, 132.0134
1154.104, 132.2282
1154.586, 132.9430
1155.068, 133.8007
1155.550, 134.7112
1156.032, 134.9850
1156.514, 133.7410
1156.996, 132.4337
1157.478, 131.2623
1157.961, 130.5386
1158.443, 131.1653
1158.925, 132.8381
1159.407, 133.7314
1159.889, 133.5640
1160.371, 133.4760
1160.853, 134.5847
1161.335, 135.4849
1161.818, 135.3233
1162.300, 134.4773
1162.782, 133.8954
1163.264, 133.5966
1163.746, 133.9064
1164.228, 135.0225
1164.710, 135.9622
1165.192, 136.1104
1165.674, 135.7028
1166.156, 134.6263
1166.639, 133.1050
1167.121, 132.5615
1167.603, 132.9953
1168.085, 133.6269
1168.567, 134.3869
1169.049, 134.7498
1169.531, 133.5688
1170.013, 132.2417
1170.496, 132.4560
1170.978, 134.2580
1171.460, 134.9656
1171.942, 134.5310
1172.424, 133.9063
1172.906, 133.4195
1173.388, 133.0857
1173.870, 133.0855
1174.353, 133.1714
1174.835, 133.0951
1175.317, 132.9757
1175.799, 131.7061
1176.281, 129.0476
1176.763, 127.0933
1177.245, 127.2971
1177.727, 128.4922
1178.209, 129.8236
1178.692, 131.0517
1179.174, 131.7404
1179.656, 131.6990
1180.138, 131.4591
1180.620, 130.9299
1181.102, 130.6549
1181.584, 131.7049
1182.066, 132.7142
1182.548, 131.2090
1183.031, 128.3964
1183.513, 127.2184
1183.995, 129.2652
1184.477, 130.2007
1184.959, 129.6375
1185.441, 128.8076
1185.923, 128.7709
1186.405, 129.1456
1186.888, 129.6190
1187.370, 130.0570
1187.852, 130.0192
1188.334, 129.2225
1188.816, 128.3267
1189.298, 127.2899
1189.780, 126.5123
1190.262, 126.6444
1190.745, 127.1695
1191.227, 127.3691
1191.709, 127.2272
1192.191, 126.8804
1192.673, 126.0482
1193.155, 125.6931
1193.637, 126.0961
1194.119, 126.5849
1194.601, 126.0517
1195.084, 125.2252
1195.566, 125.5571
1196.048, 126.9873
1196.530, 127.6733
1197.012, 127.0498
1197.494, 126.0123
1197.976, 124.4646
1198.458, 123.1883
1198.941, 123.9380
1199.423, 125.4385
1199.905, 125.1934
1200.387, 123.0032
1200.869, 121.6728
1201.351, 122.1331
1201.833, 122.7218
1202.315, 123.1549
1202.797, 123.2965
1203.280, 122.6601
1203.762, 121.6880
1204.244, 121.2090
1204.726, 121.3785
1205.208, 121.3922
1205.690, 121.1968
1206.172, 120.6099
1206.654, 119.3359
1207.136, 118.0677
1207.619, 118.2633
1208.101, 119.2330
1208.583, 119.7882
1209.065, 119.6856
1209.547, 119.4154
1210.029, 118.9477
1210.511, 118.5774
1210.993, 118.4543
1211.476, 118.4046
1211.958, 117.8770
1212.440, 118.2507
1212.922, 117.4223
1213.404, 118.7586
1213.886, 119.5677
1214.368, 119.7769
1214.850, 119.1907
1215.333, 117.3695
1215.815, 115.2509
1216.297, 114.4982
1216.779, 114.7065
1217.261, 115.2995
1217.743, 116.4727
1218.225, 116.5639
1218.707, 114.9671
1219.189, 113.6823
1219.672, 113.8561
1220.154, 114.6026
1220.636, 114.1079
1221.118, 113.0509
1221.600, 112.7372
1222.082, 113.9398
1222.564, 114.2650
1223.046, 113.2533
1223.528, 112.4445
1224.011, 112.7706
1224.493, 113.6110
1224.975, 114.0900
1225.457, 114.2567
1225.939, 114.1977
1226.421, 113.8830
1226.903, 113.3964
1227.385, 112.6686
1227.868, 112.0151
1228.350, 111.5487
1228.832, 111.3271
1229.314, 111.5739
1229.796, 112.0837
1230.278, 112.5357
1230.760, 112.9738
1231.242, 112.9377
1231.724, 112.2896
1232.207, 111.8442
1232.689, 112.5276
1233.171, 113.2040
1233.653, 111.6943
1234.135, 112.3750
1234.617, 112.3180
1235.099, 111.5468
1235.581, 112.2438
1236.063, 110.6824
1236.546, 109.4429
1237.028, 110.8632
1237.510, 112.6383
1237.992, 112.0875
1238.474, 110.3190
1238.956, 109.1460
1239.438, 108.7184
1239.920, 108.7672
1240.403, 109.3293
1240.885, 109.8386
1241.367, 109.8260
1241.849, 109.7099
1242.331, 109.9101
1242.813, 110.2068
1243.295, 110.2255
1243.777, 109.8419
1244.260, 109.9869
1244.742, 110.6618
1245.224, 111.0142
1245.706, 110.0065
1246.188, 109.0491
1246.670, 109.3440
1247.152, 110.1278
1247.634, 110.3512
1248.116, 109.9838
1248.599, 109.4444
1249.081, 108.7655
1249.563, 108.3294
1250.045, 108.3506
1250.527, 108.7012
1251.009, 109.5503
1251.491, 110.5306
1251.973, 111.4514
1252.455, 112.2745
1252.938, 111.7060
1253.420, 109.9441
1253.902, 108.6183
1254.384, 108.7535
1254.866, 109.3407
1255.348, 110.5333
1255.830, 111.4913
1256.313, 111.1286
1256.795, 109.7762
1257.277, 109.8930
1257.759, 111.1096
1258.241, 111.4696
1258.723, 108.7176
1259.205, 106.9736
1259.687, 107.2795
1260.169, 108.3454
1260.651, 109.2435
1261.134, 109.9580
1261.616, 110.4675
1262.098, 110.7482
1262.580, 110.7409
1263.062, 110.1823
1263.544, 109.6567
1264.026, 109.1311
1264.508, 108.8366
1264.991, 109.3094
1265.473, 109.9648
1265.955, 109.2438
1266.437, 107.7909
1266.919, 107.3382
1267.401, 109.2513
1267.883, 110.5255
1268.365, 111.0757
1268.848, 111.1692
1269.330, 110.8664
1269.812, 110.3362
1270.294, 109.5693
1270.776, 108.7848
1271.258, 108.5411
1271.740, 109.1665
1272.222, 109.2523
1272.704, 108.7151
1273.187, 108.2234
1273.669, 108.2938
1274.151, 108.5557
1274.633, 108.6769
1275.115, 108.7830
1275.597, 109.1716
1276.079, 109.9946
1276.561, 109.8445
1277.043, 108.7536
1277.526, 107.8576
1278.008, 107.9921
1278.490, 108.3736
1278.972, 108.8040
1279.454, 109.0548
1279.936, 108.7956
1280.418, 108.0588
1280.900, 107.6733
1281.383, 107.6248
1281.865, 107.8142
1282.347, 108.5706
1282.829, 109.0041
1283.311, 108.4639
1283.793, 107.9216
1284.275, 108.2674
1284.757, 109.2015
1285.240, 109.5437
1285.722, 109.3747
1286.204, 108.9168
1286.686, 107.6186
1287.168, 107.2942
1287.650, 108.4760
1288.132, 109.7618
1288.614, 110.2024
1289.096, 110.0763
1289.578, 109.7605
1290.061, 109.3641
1290.543, 109.1374
1291.025, 109.4051
1291.507, 109.0660
1291.989, 107.9286
1292.471, 107.0708
1292.953, 107.1432
1293.435, 107.7701
1293.918, 109.0819
1294.400, 110.3747
1294.882, 110.3805
1295.364, 108.8592
1295.846, 108.4802
1296.328, 109.2723
1296.810, 109.6401
1297.292, 108.3963
1297.775, 107.2515
1298.257, 107.7822
1298.739, 108.8673
1299.221, 109.4977
1299.703, 109.6874
1300.185, 109.3242
1300.667, 108.5647
1301.149, 108.4141
1301.631, 109.5851
1302.114, 110.4771
1302.596, 110.7007
##END=



