##NAMES=Osumilite
##RRUFFID=R060385
##IDEAL CHEMISTRY=KFe^2+^_2_(Al_5_Si_10_)O_30_
##LOCALITY=Funtanafigu Quarry, Monte Arci, near Oristano, Sardinia
##OWNER=RRUFF
##SOURCE=Michael Scott
##DESCRIPTION=Black tabular distorted hexagonal crystals associated with colorless tridymite
##STATUS=The identification of this mineral is confirmed by single-crystal X-ray diffraction and chemical analysis.
##URL=rruff.info/R060385
##MEASURED CHEMISTRY=(K_0.72_Na_0.15_Ca_0.01_)_Σ=0.88_(Fe^2+^_1.07_Mg_0.93_Mn_0.06_)_Σ=2.06_(Al_2.69_Fe^3+^_0.31_)_Σ=3_(Si_10.28_Al_1.72_)_Σ=12_O_30_
185.5824, 47.91284
186.0645, 47.48560
186.5466, 48.00071
187.0287, 48.31906
187.5108, 48.12029
187.9930, 47.68848
188.4751, 47.42405
188.9572, 47.56576
189.4393, 48.00053
189.9214, 48.08684
190.4035, 47.31409
190.8857, 46.76075
191.3678, 46.67235
191.8499, 46.93756
192.3320, 47.41335
192.8141, 48.06556
193.2962, 48.81730
193.7784, 49.03581
194.2605, 48.30938
194.7426, 47.62687
195.2247, 47.39805
195.7068, 47.49936
196.1889, 47.53058
196.6711, 47.20617
197.1532, 46.63422
197.6353, 46.36690
198.1174, 46.66844
198.5995, 46.99748
199.0816, 46.97873
199.5638, 46.67202
200.0459, 46.50993
200.5280, 46.88533
201.0101, 47.54413
201.4922, 47.74548
201.9743, 47.18983
202.4565, 46.44788
202.9386, 45.93484
203.4207, 45.64974
203.9028, 45.58194
204.3849, 45.94613
204.8670, 46.45589
205.3492, 46.67168
205.8313, 46.38031
206.3134, 45.94262
206.7955, 45.88254
207.2776, 46.32050
207.7597, 46.57328
208.2419, 46.12172
208.7240, 45.40038
209.2061, 44.78105
209.6882, 44.35351
210.1703, 44.13500
210.6524, 44.21614
211.1346, 44.74269
211.6167, 45.19136
212.0988, 45.42394
212.5809, 45.49724
213.0630, 45.43670
213.5451, 45.24074
214.0273, 44.96305
214.5094, 44.72626
214.9915, 44.56237
215.4736, 44.38205
215.9557, 44.10973
216.4378, 43.83885
216.9200, 43.65798
217.4021, 43.60769
217.8842, 43.66628
218.3663, 43.78062
218.8484, 44.01233
219.3305, 44.21249
219.8127, 44.38765
220.2948, 44.51731
220.7769, 44.59847
221.2590, 44.62996
221.7411, 44.58230
222.2232, 44.36288
222.7054, 43.66230
223.1875, 43.16041
223.6696, 42.96145
224.1517, 42.95565
224.6338, 43.03408
225.1159, 43.14867
225.5980, 43.29142
226.0802, 43.43995
226.5623, 43.70339
227.0444, 43.83810
227.5265, 43.75603
228.0086, 43.55462
228.4907, 43.32525
228.9729, 43.09948
229.4550, 42.92532
229.9371, 42.95220
230.4192, 43.41986
230.9013, 43.70502
231.3834, 43.56164
231.8656, 43.21088
232.3477, 42.98901
232.8298, 43.03410
233.3119, 43.22297
233.7940, 43.26704
234.2761, 43.05067
234.7583, 42.99423
235.2404, 43.43602
235.7225, 44.07134
236.2046, 44.32870
236.6867, 43.96276
237.1688, 43.29626
237.6510, 42.85518
238.1331, 42.62658
238.6152, 42.53616
239.0973, 42.63090
239.5794, 42.84309
240.0615, 43.04375
240.5437, 43.22080
241.0258, 43.32937
241.5079, 43.28535
241.9900, 43.09346
242.4721, 42.90087
242.9542, 42.73471
243.4364, 42.61345
243.9185, 42.60566
244.4006, 42.77449
244.8827, 42.96837
245.3648, 43.07510
245.8469, 43.09713
246.3290, 42.98155
246.8112, 42.51638
247.2933, 41.87643
247.7754, 41.66741
248.2575, 42.24009
248.7396, 42.78472
249.2217, 42.51152
249.7039, 41.65098
250.1860, 40.98893
250.6681, 41.12622
251.1502, 41.83040
251.6323, 42.24087
252.1144, 42.25708
252.5966, 42.05666
253.0787, 41.64681
253.5608, 41.12680
254.0429, 40.72333
254.5250, 40.66174
255.0071, 40.82364
255.4893, 40.68967
255.9714, 39.94096
256.4535, 39.42541
256.9356, 39.64395
257.4177, 40.28866
257.8998, 40.86893
258.3820, 41.12489
258.8641, 41.11839
259.3462, 41.03870
259.8283, 40.76512
260.3104, 40.62825
260.7925, 40.81494
261.2747, 41.15483
261.7568, 41.44719
262.2389, 41.61483
262.7210, 41.63560
263.2031, 41.40564
263.6852, 40.67865
264.1674, 40.12554
264.6495, 39.95344
265.1316, 39.98527
265.6137, 40.01977
266.0958, 39.96459
266.5779, 39.91613
267.0601, 40.14697
267.5422, 40.95658
268.0243, 41.49504
268.5064, 41.63198
268.9885, 41.50037
269.4706, 41.10363
269.9528, 40.46071
270.4349, 39.81346
270.9170, 39.70267
271.3991, 40.67486
271.8812, 41.08949
272.3633, 40.48731
272.8455, 39.60696
273.3276, 38.96256
273.8097, 38.69487
274.2918, 38.67212
274.7739, 38.72485
275.2560, 38.95348
275.7382, 39.03505
276.2202, 38.76965
276.7024, 38.53596
277.1845, 38.67233
277.6666, 39.16697
278.1487, 39.66631
278.6308, 39.72481
279.1129, 39.19260
279.5951, 38.72398
280.0772, 38.24118
280.5593, 37.87043
281.0414, 37.75794
281.5235, 37.85089
282.0056, 37.94131
282.4878, 37.83081
282.9699, 37.49672
283.4520, 37.10612
283.9341, 36.38782
284.4162, 35.87545
284.8983, 35.95338
285.3805, 36.44771
285.8626, 36.87296
286.3447, 36.83704
286.8268, 36.35075
287.3089, 36.05347
287.7910, 36.09002
288.2732, 36.14334
288.7553, 36.06406
289.2374, 35.94032
289.7195, 35.99144
290.2016, 36.37617
290.6837, 36.98635
291.1659, 37.21125
291.6480, 36.64204
292.1301, 36.16661
292.6122, 35.92611
293.0943, 35.86559
293.5764, 35.96919
294.0586, 36.24089
294.5407, 36.53088
295.0228, 36.43182
295.5049, 35.25648
295.9870, 34.52900
296.4691, 34.57253
296.9513, 34.97380
297.4334, 35.32787
297.9155, 35.49779
298.3976, 35.55198
298.8797, 35.59944
299.3618, 35.62657
299.8440, 35.67503
300.3261, 35.74690
300.8082, 35.83767
301.2903, 35.94867
301.7724, 36.07804
302.2545, 36.23260
302.7367, 36.46454
303.2188, 36.89918
303.7009, 36.81330
304.1830, 35.71526
304.6651, 34.54635
305.1472, 33.83836
305.6294, 33.62611
306.1115, 33.72855
306.5936, 34.03214
307.0757, 34.55540
307.5578, 34.92239
308.0399, 34.97532
308.5221, 35.05774
309.0042, 35.45667
309.4863, 36.02419
309.9684, 36.30912
310.4505, 35.96498
310.9326, 35.13720
311.4148, 34.87072
311.8969, 35.76037
312.3790, 36.43237
312.8611, 36.42262
313.3432, 36.00637
313.8253, 35.61686
314.3075, 35.44669
314.7896, 35.44503
315.2717, 35.48865
315.7538, 35.62944
316.2359, 35.74121
316.7180, 35.81081
317.2001, 35.84826
317.6823, 35.84286
318.1644, 35.79478
318.6465, 35.76543
319.1286, 35.87132
319.6107, 36.29302
320.0928, 36.37338
320.5750, 35.83096
321.0571, 35.15204
321.5392, 34.70763
322.0213, 34.53662
322.5034, 34.43944
322.9855, 34.20834
323.4677, 33.80271
323.9498, 33.57240
324.4319, 33.54232
324.9140, 33.63181
325.3961, 33.90809
325.8782, 34.28755
326.3604, 34.54316
326.8425, 34.49613
327.3246, 34.18243
327.8067, 34.01076
328.2888, 34.16674
328.7709, 34.23441
329.2531, 33.91514
329.7352, 33.47223
330.2173, 33.43119
330.6994, 34.06844
331.1815, 35.02716
331.6636, 35.33948
332.1458, 34.02058
332.6279, 33.26091
333.1100, 33.60439
333.5921, 34.30173
334.0742, 34.59737
334.5563, 34.28641
335.0385, 33.70650
335.5206, 33.33347
336.0027, 33.19881
336.4848, 33.23072
336.9669, 33.61636
337.4490, 34.00389
337.9312, 34.18627
338.4133, 34.14454
338.8954, 33.93419
339.3775, 33.56947
339.8596, 33.01231
340.3417, 32.78032
340.8239, 33.19733
341.3060, 33.55735
341.7881, 33.52855
342.2702, 33.25435
342.7523, 33.06325
343.2344, 33.16507
343.7166, 33.49231
344.1987, 33.71605
344.6808, 33.73176
345.1629, 33.75502
345.6450, 33.80990
346.1271, 33.87914
346.6093, 33.96396
347.0914, 34.06005
347.5735, 34.12019
348.0556, 34.02758
348.5377, 33.53714
349.0198, 33.35369
349.5020, 33.74995
349.9841, 34.20684
350.4662, 34.32374
350.9483, 34.09026
351.4304, 33.81270
351.9125, 33.85456
352.3947, 34.30354
352.8768, 34.48270
353.3589, 33.98788
353.8410, 33.62618
354.3231, 33.78381
354.8052, 34.29640
355.2874, 34.78778
355.7695, 35.00224
356.2516, 34.98528
356.7337, 35.00929
357.2158, 35.21535
357.6979, 35.25814
358.1800, 34.85307
358.6621, 34.35833
359.1443, 34.23011
359.6264, 34.64039
360.1085, 35.25986
360.5906, 35.45654
361.0727, 34.99760
361.5548, 34.72398
362.0370, 34.65941
362.5191, 34.83522
363.0012, 35.47422
363.4833, 36.49154
363.9654, 37.37282
364.4475, 37.46492
364.9297, 36.69653
365.4118, 36.36091
365.8939, 37.01072
366.3760, 37.49436
366.8581, 37.19097
367.3402, 36.38975
367.8224, 35.71418
368.3045, 35.56887
368.7866, 35.76907
369.2687, 35.75491
369.7508, 35.41533
370.2329, 35.10500
370.7151, 34.91796
371.1972, 34.82774
371.6793, 34.81334
372.1614, 34.86982
372.6435, 35.00060
373.1256, 35.27284
373.6078, 35.70782
374.0899, 35.97124
374.5720, 35.90868
375.0541, 35.71431
375.5362, 35.49256
376.0183, 35.25827
376.5005, 35.07528
376.9826, 35.00036
377.4647, 35.01188
377.9468, 35.04351
378.4289, 35.12067
378.9110, 35.15100
379.3932, 34.98140
379.8753, 34.72754
380.3574, 34.63838
380.8395, 34.98618
381.3216, 35.35237
381.8037, 35.07368
382.2859, 34.13149
382.7680, 33.44189
383.2501, 33.52435
383.7322, 34.02832
384.2143, 34.36048
384.6964, 34.47350
385.1786, 34.53931
385.6607, 34.62564
386.1428, 34.73764
386.6249, 34.93145
387.1070, 35.27265
387.5891, 35.54742
388.0713, 35.44339
388.5534, 34.99931
389.0355, 34.55280
389.5176, 34.06065
389.9997, 33.66587
390.4818, 33.55965
390.9640, 33.73617
391.4461, 33.96025
391.9282, 34.05111
392.4103, 34.06354
392.8924, 34.27452
393.3745, 35.00657
393.8567, 35.56834
394.3388, 35.65393
394.8209, 35.38148
395.3030, 34.90790
395.7851, 34.25779
396.2672, 33.61308
396.7494, 33.30361
397.2315, 33.47895
397.7136, 33.65487
398.1957, 33.75758
398.6778, 33.89047
399.1599, 34.22774
399.6420, 34.73455
400.1241, 35.12378
400.6063, 35.11699
401.0884, 34.69881
401.5705, 34.40657
402.0526, 34.27490
402.5347, 34.21014
403.0168, 34.21385
403.4990, 34.26007
403.9811, 34.30221
404.4632, 34.31681
404.9453, 34.34166
405.4274, 34.47620
405.9095, 34.82204
406.3917, 35.10732
406.8738, 35.50616
407.3559, 35.71991
407.8380, 35.33974
408.3201, 34.44526
408.8022, 33.65087
409.2844, 33.65029
409.7665, 34.51652
410.2486, 35.00375
410.7307, 34.79289
411.2128, 34.52224
411.6949, 34.40205
412.1771, 34.34234
412.6592, 34.13091
413.1413, 33.61748
413.6234, 33.05206
414.1055, 33.04507
414.5876, 33.82528
415.0698, 34.46768
415.5519, 34.88911
416.0340, 35.00086
416.5161, 34.50068
416.9982, 33.41901
417.4803, 32.50826
417.9625, 32.55414
418.4446, 33.40385
418.9267, 33.99625
419.4088, 34.17885
419.8909, 34.23890
420.3730, 34.35117
420.8552, 34.48365
421.3373, 34.56773
421.8194, 34.57477
422.3015, 34.52974
422.7836, 34.40849
423.2657, 34.21397
423.7479, 34.18124
424.2300, 34.55761
424.7121, 35.00376
425.1942, 34.91573
425.6763, 34.15011
426.1584, 33.59915
426.6406, 33.80796
427.1227, 34.43332
427.6048, 34.92942
428.0869, 35.21150
428.5690, 35.33047
429.0511, 35.27889
429.5333, 35.06025
430.0154, 34.97728
430.4975, 35.16679
430.9796, 35.36428
431.4617, 35.39216
431.9438, 35.30721
432.4260, 35.28646
432.9081, 35.42639
433.3902, 35.62505
433.8723, 35.63477
434.3544, 35.28098
434.8365, 35.02235
435.3187, 34.85534
435.8008, 34.80055
436.2829, 34.93159
436.7650, 35.22183
437.2471, 35.52305
437.7292, 35.69893
438.2114, 35.74789
438.6935, 35.75842
439.1756, 35.67925
439.6577, 35.61860
440.1398, 35.51484
440.6219, 35.47230
441.1040, 35.68959
441.5862, 36.24738
442.0683, 36.90761
442.5504, 37.20096
443.0325, 36.98124
443.5146, 36.84649
443.9967, 36.84792
444.4789, 36.94719
444.9610, 37.21785
445.4431, 37.59315
445.9252, 37.87094
446.4073, 37.90697
446.8894, 37.72823
447.3716, 37.35622
447.8537, 36.59237
448.3358, 36.13572
448.8179, 36.65981
449.3000, 37.49358
449.7821, 37.83141
450.2643, 37.39313
450.7464, 37.00446
451.2285, 37.59657
451.7106, 38.93346
452.1927, 39.78274
452.6748, 39.79805
453.1570, 39.48114
453.6391, 39.22560
454.1212, 39.03356
454.6033, 38.97221
455.0854, 39.19599
455.5675, 39.45503
456.0497, 39.46862
456.5318, 39.28088
457.0139, 39.18256
457.4960, 39.32282
457.9781, 39.64680
458.4602, 40.04874
458.9424, 40.71828
459.4245, 41.07298
459.9066, 40.49517
460.3887, 39.84127
460.8708, 40.27756
461.3529, 41.82690
461.8351, 43.23772
462.3172, 43.26405
462.7993, 41.84645
463.2814, 40.89087
463.7635, 40.55978
464.2456, 40.46658
464.7278, 40.72976
465.2099, 41.10129
465.6920, 41.21907
466.1741, 40.95039
466.6562, 40.53532
467.1383, 40.42485
467.6205, 40.80954
468.1026, 40.89885
468.5847, 40.29511
469.0668, 39.72446
469.5489, 39.57381
470.0310, 39.73918
470.5132, 39.88676
470.9953, 39.81849
471.4774, 39.58978
471.9595, 39.32418
472.4416, 39.00559
472.9237, 38.71331
473.4059, 38.54475
473.8880, 38.37301
474.3701, 38.03721
474.8522, 37.51350
475.3343, 37.05772
475.8164, 36.91563
476.2986, 36.95918
476.7807, 36.84453
477.2628, 36.50580
477.7449, 36.16842
478.2270, 36.05627
478.7091, 36.08889
479.1913, 35.93092
479.6734, 35.35012
480.1555, 34.81556
480.6376, 34.58204
481.1197, 34.56867
481.6018, 34.64144
482.0839, 34.76564
482.5660, 34.85600
483.0482, 34.77441
483.5303, 34.43610
484.0124, 34.24072
484.4945, 34.30801
484.9766, 34.39667
485.4587, 34.40792
485.9409, 34.33362
486.4230, 34.16391
486.9051, 33.88383
487.3872, 33.56096
487.8693, 33.41297
488.3514, 33.63131
488.8336, 33.65763
489.3157, 33.19711
489.7978, 32.76223
490.2799, 32.75610
490.7620, 33.14074
491.2441, 33.56444
491.7263, 33.74831
492.2084, 33.73734
492.6905, 33.76125
493.1726, 33.87280
493.6547, 33.89199
494.1368, 33.52699
494.6190, 33.13840
495.1011, 33.16718
495.5832, 33.73857
496.0653, 34.33292
496.5474, 34.53634
497.0295, 34.44862
497.5117, 34.34486
497.9938, 34.24723
498.4759, 34.20649
498.9580, 34.25616
499.4401, 34.40223
499.9222, 34.64846
500.4044, 35.06340
500.8865, 35.50823
501.3686, 35.98912
501.8507, 36.44035
502.3328, 36.72307
502.8149, 36.78653
503.2971, 36.71301
503.7792, 36.60616
504.2613, 36.43879
504.7434, 36.33952
505.2255, 36.24857
505.7076, 36.27563
506.1898, 36.54180
506.6719, 36.95905
507.1540, 37.35750
507.6361, 37.64937
508.1182, 37.86352
508.6003, 38.06041
509.0825, 38.23595
509.5646, 38.40579
510.0467, 38.56147
510.5288, 38.71967
511.0109, 38.92773
511.4930, 39.15493
511.9752, 39.29943
512.4573, 39.28616
512.9394, 39.15482
513.4215, 38.94177
513.9036, 38.60581
514.3857, 38.45558
514.8679, 38.73969
515.3500, 39.17818
515.8321, 39.34149
516.3142, 39.16980
516.7963, 39.20077
517.2784, 39.99562
517.7606, 40.97656
518.2427, 41.22204
518.7248, 40.68732
519.2069, 40.14665
519.6890, 40.14520
520.1711, 40.54328
520.6533, 40.63941
521.1354, 39.94977
521.6175, 39.64755
522.0996, 40.31075
522.5817, 41.22931
523.0638, 41.62871
523.5460, 41.42677
524.0281, 41.12927
524.5102, 41.24628
524.9923, 41.75901
525.4744, 41.99581
525.9565, 41.74535
526.4387, 41.47749
526.9208, 41.17765
527.4029, 40.96459
527.8850, 41.06926
528.3671, 41.52184
528.8492, 41.88413
529.3314, 41.48523
529.8135, 40.45092
530.2956, 40.10792
530.7777, 40.83808
531.2598, 41.62219
531.7419, 41.77155
532.2241, 41.56642
532.7062, 41.45354
533.1883, 41.59452
533.6704, 41.67172
534.1525, 41.39311
534.6346, 40.89604
535.1168, 40.47086
535.5989, 40.17554
536.0810, 40.04201
536.5631, 40.13176
537.0452, 40.45818
537.5273, 40.74463
538.0095, 41.11216
538.4916, 41.31079
538.9737, 41.26052
539.4558, 40.98006
539.9379, 40.38921
540.4200, 39.49723
540.9022, 38.63650
541.3843, 38.29461
541.8664, 38.55779
542.3485, 38.85697
542.8306, 39.35150
543.3127, 39.70076
543.7948, 39.75542
544.2769, 39.60779
544.7590, 39.39793
545.2411, 39.17696
545.7233, 38.90770
546.2054, 38.50409
546.6875, 37.97912
547.1696, 37.55247
547.6517, 37.27013
548.1339, 37.06739
548.6160, 36.90909
549.0981, 36.78912
549.5802, 36.69585
550.0623, 36.58643
550.5444, 36.54691
551.0266, 36.73902
551.5087, 37.03429
551.9908, 37.12362
552.4729, 36.91023
552.9550, 36.54058
553.4371, 36.18104
553.9193, 35.82355
554.4014, 35.52443
554.8835, 35.28527
555.3656, 35.09364
555.8477, 34.97709
556.3298, 34.89343
556.8120, 34.74609
557.2941, 34.50709
557.7762, 34.32595
558.2583, 34.50446
558.7404, 35.12492
559.2225, 35.39050
559.7047, 35.01770
560.1868, 34.62189
560.6689, 34.47474
561.1510, 34.50336
561.6331, 34.61233
562.1152, 34.82775
562.5974, 34.96081
563.0795, 34.73145
563.5616, 34.25924
564.0437, 33.98778
564.5258, 34.01854
565.0079, 34.20115
565.4901, 34.47602
565.9722, 34.81756
566.4543, 34.89596
566.9364, 34.43933
567.4185, 34.03317
567.9006, 33.91235
568.3828, 33.97316
568.8649, 34.14137
569.3470, 34.36557
569.8291, 34.45918
570.3112, 34.17580
570.7933, 33.48779
571.2755, 32.89205
571.7576, 32.20370
572.2397, 31.86291
572.7218, 32.14145
573.2039, 32.72257
573.6860, 33.37685
574.1682, 34.03215
574.6503, 34.36998
575.1324, 33.89767
575.6145, 32.81469
576.0966, 31.96424
576.5787, 31.36870
577.0609, 31.13638
577.5430, 31.53314
578.0251, 32.29287
578.5072, 32.77309
578.9893, 32.92533
579.4714, 32.87889
579.9536, 32.48248
580.4357, 32.01882
580.9178, 31.90048
581.3999, 32.13374
581.8820, 32.33944
582.3641, 32.20625
582.8463, 31.81978
583.3284, 31.68150
583.8105, 32.00242
584.2926, 32.27559
584.7747, 32.45825
585.2568, 32.58654
585.7390, 32.69011
586.2211, 32.76894
586.7032, 32.79370
587.1853, 32.69484
587.6674, 32.56218
588.1495, 32.73108
588.6317, 33.29429
589.1138, 33.55482
589.5959, 33.05463
590.0780, 32.37440
590.5601, 32.26743
591.0422, 32.72145
591.5244, 33.02690
592.0065, 32.83223
592.4886, 32.50340
592.9707, 32.36190
593.4528, 32.37644
593.9349, 32.37804
594.4171, 32.28710
594.8992, 32.19234
595.3813, 32.26359
595.8634, 32.60280
596.3455, 32.80451
596.8276, 32.72085
597.3098, 32.67434
597.7919, 32.85552
598.2740, 33.15266
598.7561, 33.37682
599.2382, 33.45198
599.7203, 33.42083
600.2025, 33.28376
600.6846, 33.04708
601.1667, 32.96650
601.6488, 33.08711
602.1309, 33.32831
602.6130, 33.81295
603.0952, 34.35642
603.5773, 34.52077
604.0594, 34.02272
604.5415, 33.57547
605.0236, 33.58401
605.5057, 33.85827
605.9879, 34.17327
606.4700, 34.46842
606.9521, 34.63447
607.4342, 34.56743
607.9163, 34.29483
608.3984, 34.01718
608.8806, 33.53831
609.3627, 33.34169
609.8448, 33.64083
610.3269, 34.09731
610.8090, 34.52932
611.2911, 34.87435
611.7733, 35.06396
612.2554, 35.03756
612.7375, 34.83538
613.2196, 34.43311
613.7017, 33.77427
614.1838, 33.55866
614.6660, 34.29260
615.1481, 35.19723
615.6302, 35.23363
616.1123, 34.47341
616.5944, 33.98671
617.0765, 34.19576
617.5587, 34.55154
618.0408, 34.80907
618.5229, 34.91382
619.0050, 34.66650
619.4871, 34.01090
619.9692, 33.40348
620.4514, 33.52337
620.9335, 34.51665
621.4156, 35.12451
621.8977, 35.05978
622.3798, 34.93034
622.8619, 34.95306
623.3441, 34.96320
623.8262, 34.73143
624.3083, 34.21032
624.7904, 33.63190
625.2725, 33.16112
625.7546, 32.78896
626.2367, 32.47885
626.7188, 32.22258
627.2009, 32.11183
627.6830, 32.23108
628.1652, 32.49595
628.6473, 32.76009
629.1294, 33.12191
629.6115, 33.18962
630.0936, 32.60145
630.5757, 31.96105
631.0579, 31.71243
631.5400, 31.78703
632.0221, 31.89295
632.5042, 31.87982
632.9863, 31.87162
633.4684, 32.18958
633.9506, 32.99036
634.4327, 33.32993
634.9148, 32.90511
635.3969, 32.32216
635.8790, 31.79267
636.3611, 31.34610
636.8433, 31.02439
637.3254, 30.83051
637.8075, 30.79207
638.2896, 31.06149
638.7717, 31.46411
639.2538, 31.64819
639.7360, 31.56839
640.2181, 31.43578
640.7002, 31.43594
641.1823, 31.46922
641.6644, 31.12211
642.1465, 29.80609
642.6287, 28.92545
643.1108, 28.53319
643.5929, 28.54586
644.0750, 29.20602
644.5571, 30.22621
645.0392, 30.90609
645.5214, 30.82484
646.0035, 30.31268
646.4856, 29.85196
646.9677, 29.44303
647.4498, 29.17005
647.9319, 29.06292
648.4141, 29.06581
648.8962, 29.16015
649.3783, 29.33253
649.8604, 29.53231
650.3425, 29.81299
650.8246, 30.04204
651.3068, 30.17730
651.7889, 30.22594
652.2710, 30.18291
652.7531, 30.05581
653.2352, 29.87394
653.7173, 29.65494
654.1995, 29.40855
654.6816, 29.15191
655.1637, 28.80206
655.6458, 28.64341
656.1279, 28.99052
656.6100, 29.31650
657.0922, 29.28460
657.5743, 28.96474
658.0564, 28.62520
658.5385, 28.25303
659.0206, 28.06261
659.5027, 28.46073
659.9849, 29.20255
660.4670, 29.54680
660.9491, 29.31412
661.4312, 28.92854
661.9133, 28.75497
662.3954, 28.78319
662.8776, 28.86795
663.3597, 29.10944
663.8418, 29.27569
664.3239, 29.28641
664.8060, 29.25800
665.2881, 29.34826
665.7703, 29.50677
666.2524, 29.47335
666.7345, 28.97216
667.2166, 28.35392
667.6987, 28.39371
668.1808, 29.06662
668.6630, 29.38663
669.1451, 29.00031
669.6272, 28.49643
670.1093, 28.48072
670.5914, 28.90745
671.0735, 29.13231
671.5557, 29.02849
672.0378, 28.86466
672.5199, 28.72266
673.0020, 28.56683
673.4841, 28.32141
673.9662, 28.00340
674.4484, 27.72098
674.9305, 27.54148
675.4126, 27.48385
675.8947, 27.63628
676.3768, 28.04603
676.8589, 28.47830
677.3411, 29.09014
677.8232, 29.47460
678.3053, 29.05371
678.7874, 28.10752
679.2695, 27.69194
679.7516, 28.59069
680.2338, 29.38920
680.7159, 28.97540
681.1980, 28.03021
681.6801, 27.68951
682.1622, 28.10343
682.6443, 28.61026
683.1265, 28.67358
683.6086, 28.37576
684.0907, 28.09776
684.5728, 27.76419
685.0549, 27.61658
685.5370, 27.81020
686.0192, 28.09228
686.5013, 28.36230
686.9834, 28.60302
687.4655, 28.79929
687.9476, 28.95405
688.4297, 29.04473
688.9119, 29.12482
689.3940, 29.11392
689.8761, 28.71056
690.3582, 27.87510
690.8403, 27.13988
691.3224, 26.92712
691.8046, 27.13796
692.2867, 27.29981
692.7688, 27.33901
693.2509, 27.45007
693.7330, 27.78830
694.2151, 28.05986
694.6973, 27.99403
695.1794, 27.72623
695.6615, 27.63266
696.1436, 27.93306
696.6257, 28.25570
697.1078, 28.14506
697.5900, 27.71264
698.0721, 27.28477
698.5542, 26.89423
699.0363, 26.74613
699.5184, 27.03926
700.0005, 27.63874
700.4827, 28.07012
700.9648, 28.24582
701.4469, 28.38598
701.9290, 28.53084
702.4111, 28.60528
702.8932, 28.51888
703.3754, 28.33589
703.8575, 28.19704
704.3396, 28.16542
704.8217, 28.13347
705.3038, 27.91493
705.7859, 27.57198
706.2681, 27.45329
706.7502, 27.62849
707.2323, 27.70484
707.7144, 27.36258
708.1965, 26.86718
708.6786, 26.87839
709.1607, 27.63615
709.6428, 28.16684
710.1249, 28.30945
710.6071, 28.30838
711.0892, 28.20599
711.5713, 28.08606
712.0534, 28.11337
712.5355, 28.33097
713.0176, 28.49711
713.4998, 28.23109
713.9819, 27.65045
714.4640, 27.41560
714.9461, 27.57711
715.4282, 27.82771
715.9103, 28.10973
716.3925, 28.33525
716.8746, 28.30840
717.3567, 27.98237
717.8388, 27.84180
718.3209, 28.14120
718.8030, 28.40056
719.2852, 28.22896
719.7673, 27.95358
720.2494, 28.16090
720.7315, 28.90205
721.2136, 29.52344
721.6957, 29.35435
722.1779, 28.62356
722.6600, 28.11459
723.1421, 27.82690
723.6242, 27.77186
724.1063, 28.08453
724.5884, 28.42436
725.0706, 28.36535
725.5527, 27.94625
726.0348, 27.70380
726.5169, 27.86598
726.9990, 27.96183
727.4811, 27.75460
727.9633, 27.45197
728.4454, 27.27623
728.9275, 27.24253
729.4096, 27.21195
729.8917, 27.05022
730.3738, 26.93684
730.8560, 27.40611
731.3381, 28.48524
731.8202, 29.10943
732.3023, 29.01219
732.7844, 28.66356
733.2665, 28.30158
733.7487, 27.96931
734.2308, 27.81193
734.7129, 27.90056
735.1950, 28.02815
735.6771, 28.30400
736.1592, 28.47702
736.6414, 28.20254
737.1235, 27.67221
737.6056, 27.38202
738.0877, 27.55741
738.5698, 27.94788
739.0519, 28.26261
739.5341, 28.49638
740.0162, 28.56034
740.4983, 28.39459
740.9804, 28.33995
741.4625, 28.67306
741.9446, 29.11892
742.4268, 29.10461
742.9089, 28.50455
743.3910, 28.13906
743.8731, 28.31060
744.3552, 28.47460
744.8373, 28.26879
745.3195, 27.93653
745.8016, 27.86402
746.2837, 28.11924
746.7658, 28.42377
747.2479, 28.53906
747.7300, 28.51565
748.2122, 28.48762
748.6943, 28.45545
749.1764, 28.36436
749.6585, 28.16122
750.1406, 28.00174
750.6227, 28.11055
751.1049, 28.47013
751.5870, 28.51056
752.0691, 27.84758
752.5512, 27.41065
753.0333, 27.47406
753.5154, 27.73971
753.9976, 27.98261
754.4797, 28.19486
754.9618, 28.51447
755.4439, 29.08467
755.9260, 29.53220
756.4081, 29.13807
756.8903, 28.16683
757.3724, 27.79939
757.8545, 28.20812
758.3366, 28.69583
758.8187, 28.86248
759.3008, 28.78052
759.7830, 28.61228
760.2651, 28.22651
760.7472, 28.07084
761.2293, 28.33053
761.7114, 28.59738
762.1935, 28.64754
762.6757, 28.63276
763.1578, 28.80733
763.6399, 29.21839
764.1220, 29.58326
764.6041, 29.75466
765.0862, 29.72578
765.5684, 29.31812
766.0505, 28.65390
766.5326, 28.38806
767.0147, 28.74732
767.4968, 29.22736
767.9789, 29.24551
768.4611, 28.82996
768.9432, 28.65585
769.4253, 28.87053
769.9074, 29.07575
770.3895, 29.25653
770.8716, 29.36949
771.3538, 29.32311
771.8359, 29.17859
772.3180, 29.14367
772.8001, 29.38151
773.2822, 29.54344
773.7643, 29.28126
774.2465, 28.85138
774.7286, 28.65312
775.2107, 28.68611
775.6928, 28.69100
776.1749, 28.51858
776.6570, 28.28087
777.1392, 28.19580
777.6213, 28.28021
778.1034, 28.41937
778.5855, 28.73153
779.0676, 28.85855
779.5497, 28.37916
780.0319, 27.78689
780.5140, 27.78676
780.9961, 28.43699
781.4782, 28.97059
781.9603, 29.25021
782.4424, 29.31260
782.9246, 29.01433
783.4067, 28.58652
783.8888, 28.37312
784.3709, 28.42285
784.8530, 28.53454
785.3351, 28.55580
785.8173, 28.51581
786.2994, 28.47501
786.7815, 28.43344
787.2636, 28.42287
787.7457, 28.44896
788.2278, 28.51682
788.7100, 28.68603
789.1921, 28.88819
789.6742, 28.83373
790.1563, 28.27666
790.6384, 27.92742
791.1205, 27.91833
791.6026, 28.03095
792.0847, 28.24502
792.5668, 28.46032
793.0490, 28.53124
793.5311, 28.41576
794.0132, 28.21407
794.4953, 27.95680
794.9774, 27.69213
795.4595, 27.49598
795.9417, 27.37085
796.4238, 27.33467
796.9059, 27.39594
797.3880, 27.50222
797.8701, 27.60459
798.3522, 27.70025
798.8344, 27.73407
799.3165, 27.64556
799.7986, 27.61097
800.2807, 27.59256
800.7628, 27.69749
801.2449, 28.22659
801.7271, 28.92229
802.2092, 29.04734
802.6913, 28.19254
803.1734, 27.35421
803.6555, 26.99416
804.1376, 26.94683
804.6198, 27.21630
805.1019, 27.63123
805.5840, 27.73643
806.0661, 27.34090
806.5482, 26.83368
807.0303, 26.77105
807.5125, 27.09500
807.9946, 27.24537
808.4767, 27.19490
808.9588, 27.11952
809.4409, 27.04843
809.9230, 27.02449
810.4052, 27.12716
810.8873, 27.35557
811.3694, 27.47644
811.8515, 27.35377
812.3336, 27.30910
812.8157, 27.52579
813.2979, 27.74398
813.7800, 27.70908
814.2621, 27.49507
814.7442, 27.33983
815.2263, 27.33788
815.7084, 27.44632
816.1906, 27.73694
816.6727, 28.06948
817.1548, 28.09210
817.6369, 27.82962
818.1190, 27.66107
818.6011, 27.76686
819.0833, 27.90970
819.5654, 27.71734
820.0475, 27.17052
820.5296, 26.82295
821.0117, 26.67758
821.4938, 26.72888
821.9760, 27.27252
822.4581, 27.75137
822.9402, 27.55402
823.4223, 26.85158
823.9044, 26.46223
824.3865, 26.69909
824.8687, 27.02979
825.3508, 27.43876
825.8329, 27.70391
826.3150, 27.36548
826.7971, 26.70144
827.2792, 26.57930
827.7614, 27.39109
828.2435, 28.32733
828.7256, 28.34928
829.2077, 27.66568
829.6898, 26.94751
830.1719, 26.21941
830.6541, 25.92959
831.1362, 26.32943
831.6183, 26.92936
832.1004, 27.16828
832.5825, 27.04939
833.0646, 26.82112
833.5468, 26.19666
834.0289, 25.92035
834.5110, 26.40470
834.9931, 26.93836
835.4752, 27.01110
835.9573, 26.78392
836.4395, 26.74071
836.9216, 27.08497
837.4037, 27.34748
837.8858, 27.23164
838.3679, 26.94970
838.8500, 26.58035
839.3322, 26.25366
839.8143, 26.29861
840.2964, 26.80124
840.7785, 27.38872
841.2606, 27.69946
841.7427, 27.73921
842.2249, 27.38822
842.7070, 26.61626
843.1891, 26.27579
843.6712, 26.68867
844.1533, 27.21156
844.6354, 27.30747
845.1176, 27.05111
845.5997, 26.80216
846.0818, 26.38542
846.5639, 26.26501
847.0460, 26.79862
847.5281, 27.23242
848.0103, 27.17450
848.4924, 26.80845
848.9745, 26.31388
849.4566, 25.72756
849.9387, 25.49049
850.4208, 26.18491
850.9030, 27.00595
851.3851, 27.12768
851.8672, 26.86268
852.3493, 26.85958
852.8314, 27.21694
853.3135, 27.58597
853.7957, 27.70443
854.2778, 27.65097
854.7599, 27.62404
855.2420, 27.61960
855.7241, 27.36476
856.2062, 26.75530
856.6884, 26.27335
857.1705, 26.19483
857.6526, 26.38597
858.1347, 26.64923
858.6168, 27.07294
859.0989, 27.15846
859.5811, 26.45808
860.0632, 26.00661
860.5453, 26.26132
861.0274, 26.69276
861.5095, 26.85788
861.9916, 26.75353
862.4738, 26.55779
862.9559, 26.24482
863.4380, 26.02343
863.9201, 26.10965
864.4022, 26.30854
864.8843, 26.38302
865.3665, 26.34713
865.8486, 26.31195
866.3307, 26.32619
866.8128, 26.39440
867.2949, 26.66299
867.7770, 26.98816
868.2592, 26.50297
868.7413, 25.18890
869.2234, 24.54347
869.7055, 25.08261
870.1876, 25.98211
870.6697, 26.53484
871.1519, 26.76852
871.6340, 26.81805
872.1161, 26.54413
872.5981, 26.35304
873.0803, 26.32125
873.5624, 26.31217
874.0445, 26.27846
874.5266, 26.22910
875.0087, 26.21051
875.4908, 26.23730
875.9730, 26.11486
876.4551, 25.44357
876.9372, 24.96657
877.4193, 25.42733
877.9014, 26.20423
878.3835, 26.40226
878.8657, 26.00671
879.3478, 25.62374
879.8299, 25.61002
880.3120, 25.78315
880.7941, 26.02944
881.2762, 26.24339
881.7584, 25.93201
882.2405, 25.12107
882.7226, 24.61474
883.2047, 24.79245
883.6868, 25.25913
884.1689, 25.49379
884.6511, 25.50243
885.1332, 25.43126
885.6153, 25.18941
886.0974, 25.13889
886.5795, 25.55419
887.0616, 25.91571
887.5438, 25.75838
888.0259, 25.23895
888.5080, 24.82691
888.9901, 24.54713
889.4722, 24.34121
889.9543, 24.06717
890.4365, 24.00858
890.9186, 24.44952
891.4007, 25.12718
891.8828, 25.85074
892.3649, 26.50095
892.8470, 26.61597
893.3292, 25.45612
893.8113, 24.25743
894.2934, 24.49307
894.7755, 25.39443
895.2576, 25.52009
895.7397, 24.86929
896.2219, 24.42044
896.7040, 24.69106
897.1861, 25.26906
897.6682, 25.65439
898.1503, 25.82674
898.6324, 25.51608
899.1146, 24.67813
899.5967, 24.04928
900.0788, 23.87345
900.5609, 23.89874
901.0430, 23.88871
901.5251, 23.86147
902.0073, 23.93689
902.4894, 24.19563
902.9715, 24.39126
903.4536, 24.44806
903.9357, 24.51446
904.4178, 24.76013
904.9000, 25.00191
905.3821, 24.91146
905.8642, 24.43971
906.3463, 24.16789
906.8284, 24.39079
907.3105, 24.65639
907.7927, 24.88183
908.2748, 24.95646
908.7569, 24.62259
909.2390, 24.03556
909.7211, 23.70264
910.2032, 23.87819
910.6854, 24.18740
911.1675, 24.34424
911.6496, 24.37946
912.1317, 24.22735
912.6138, 23.99482
913.0959, 24.09475
913.5781, 24.62493
914.0602, 25.17089
914.5423, 25.36829
915.0244, 25.25398
915.5065, 24.80054
915.9886, 24.00154
916.4708, 23.73196
916.9529, 24.17571
917.4350, 24.76358
917.9171, 25.28027
918.3992, 25.58114
918.8813, 25.33755
919.3635, 24.41505
919.8456, 23.99007
920.3277, 24.48304
920.8098, 24.78214
921.2919, 24.36037
921.7740, 23.93288
922.2562, 24.11289
922.7383, 24.68697
923.2204, 24.97423
923.7025, 24.72478
924.1846, 24.63134
924.6667, 25.22705
925.1489, 25.64219
925.6310, 25.03441
926.1131, 24.08898
926.5952, 23.86900
927.0773, 24.43196
927.5594, 24.84095
928.0416, 24.41224
928.5237, 23.90464
929.0058, 24.19630
929.4879, 24.76390
929.9700, 24.61065
930.4521, 23.90059
930.9343, 23.66372
931.4164, 24.31572
931.8985, 25.05421
932.3806, 24.80101
932.8627, 23.94150
933.3448, 23.84096
933.8270, 24.41474
934.3091, 24.65118
934.7912, 24.31252
935.2733, 24.01029
935.7554, 24.19681
936.2375, 24.66380
936.7197, 24.90122
937.2018, 24.85839
937.6839, 24.88431
938.1660, 25.02107
938.6481, 25.12352
939.1302, 25.16169
939.6124, 25.12529
940.0945, 24.99842
940.5766, 24.78517
941.0587, 24.51998
941.5408, 24.01065
942.0229, 23.74300
942.5051, 23.88086
942.9872, 24.10928
943.4693, 24.36192
943.9514, 24.56664
944.4335, 24.59221
944.9156, 24.43446
945.3978, 24.35761
945.8799, 24.48386
946.3620, 24.67389
946.8441, 24.82670
947.3262, 25.03031
947.8083, 25.59188
948.2905, 26.25459
948.7726, 26.26258
949.2547, 25.32891
949.7368, 24.43215
950.2189, 24.46378
950.7010, 24.94521
951.1832, 25.37303
951.6653, 25.69170
952.1474, 25.78666
952.6295, 25.65401
953.1116, 25.36919
953.5938, 24.95385
954.0759, 24.59260
954.5580, 24.69657
955.0400, 25.14677
955.5222, 25.25046
956.0043, 24.99457
956.4864, 24.84435
956.9685, 24.94897
957.4506, 25.24902
957.9327, 25.74592
958.4149, 26.31762
958.8970, 26.38655
959.3791, 25.83969
959.8612, 25.32093
960.3433, 24.76760
960.8254, 24.55510
961.3076, 25.03932
961.7897, 25.72811
962.2718, 25.91603
962.7539, 25.58946
963.2360, 25.48484
963.7181, 25.75761
964.2003, 26.01414
964.6824, 26.20108
965.1645, 26.38145
965.6466, 26.69973
966.1287, 26.99090
966.6108, 26.89916
967.0930, 26.33816
967.5751, 25.99497
968.0572, 26.14908
968.5393, 26.37621
969.0214, 26.75508
969.5035, 26.93288
969.9857, 26.32492
970.4678, 25.28002
970.9499, 24.74681
971.4320, 25.06603
971.9141, 25.56211
972.3962, 25.98445
972.8784, 26.27502
973.3605, 26.26775
973.8426, 26.14779
974.3247, 26.28695
974.8068, 26.64261
975.2889, 26.75542
975.7711, 26.32751
976.2532, 25.82109
976.7353, 25.82996
977.2174, 26.07559
977.6995, 25.99188
978.1816, 25.67145
978.6638, 25.55659
979.1459, 25.75027
979.6280, 25.98908
980.1101, 26.07416
980.5922, 26.02575
981.0743, 25.84612
981.5565, 25.56022
982.0386, 25.31248
982.5207, 25.11431
983.0028, 24.93907
983.4849, 24.77332
983.9670, 24.67390
984.4492, 24.72137
984.9313, 24.87043
985.4134, 24.86455
985.8955, 24.65279
986.3776, 24.71038
986.8597, 25.16544
987.3419, 25.58057
987.8240, 25.72614
988.3061, 25.76590
988.7882, 25.97937
989.2703, 25.77886
989.7524, 26.28965
990.2346, 25.43636
990.7167, 24.84920
991.1988, 24.77665
991.6809, 24.82092
992.1630, 24.81467
992.6451, 24.75426
993.1273, 24.55180
993.6094, 24.12720
994.0915, 24.15096
994.5736, 25.32362
995.0557, 25.98237
995.5378, 25.35839
996.0200, 24.56908
996.5021, 24.37147
996.9842, 24.54914
997.4663, 24.62265
997.9484, 24.51938
998.4305, 24.38610
998.9127, 24.24319
999.3948, 24.09739
999.8769, 23.99158
1000.359, 23.85283
1000.841, 23.49521
1001.323, 23.06446
1001.805, 23.00561
1002.287, 23.51645
1002.770, 23.85270
1003.252, 23.39303
1003.734, 22.87844
1004.216, 22.90093
1004.698, 23.16508
1005.180, 23.26266
1005.662, 23.18438
1006.144, 23.14225
1006.627, 23.23371
1007.109, 23.33077
1007.591, 23.29378
1008.073, 23.23313
1008.555, 23.27114
1009.037, 23.38815
1009.519, 23.61438
1010.001, 23.88783
1010.483, 23.93760
1010.966, 23.58667
1011.448, 23.11122
1011.930, 22.70084
1012.412, 22.46701
1012.894, 22.83648
1013.376, 23.57113
1013.858, 23.81923
1014.340, 23.43400
1014.823, 22.94756
1015.305, 22.70526
1015.787, 22.71376
1016.269, 23.16300
1016.751, 23.86353
1017.233, 24.02825
1017.715, 23.69230
1018.197, 23.33923
1018.679, 23.11003
1019.162, 23.00566
1019.644, 23.04406
1020.126, 23.14590
1020.608, 23.09538
1021.090, 23.18728
1021.572, 22.94654
1022.054, 23.21613
1022.536, 23.33772
1023.018, 23.18217
1023.501, 22.88062
1023.983, 22.50821
1024.465, 22.15870
1024.947, 22.18550
1025.429, 22.63535
1025.911, 22.92107
1026.393, 23.03503
1026.875, 22.84679
1027.358, 22.17099
1027.840, 21.64625
1028.322, 21.96219
1028.804, 22.88320
1029.286, 23.45367
1029.768, 23.66072
1030.250, 23.51213
1030.732, 22.78199
1031.214, 22.35428
1031.697, 22.70786
1032.179, 23.18029
1032.661, 23.04528
1033.143, 22.46560
1033.625, 22.29736
1034.107, 22.83617
1034.589, 23.02326
1035.071, 22.61314
1035.553, 22.28938
1036.036, 22.38090
1036.518, 22.55519
1037.000, 22.43036
1037.482, 22.08308
1037.964, 21.96422
1038.446, 22.17368
1038.928, 22.42023
1039.410, 22.81873
1039.893, 23.09748
1040.375, 23.21857
1040.857, 23.13723
1041.339, 22.59342
1041.821, 21.74919
1042.303, 21.52150
1042.785, 22.37297
1043.267, 22.96639
1043.750, 23.27169
1044.232, 23.28180
1044.714, 22.70045
1045.196, 22.04780
1045.678, 21.87299
1046.160, 22.08824
1046.642, 22.21187
1047.124, 22.20974
1047.606, 22.09120
1048.089, 21.53308
1048.571, 21.25579
1049.053, 21.95967
1049.535, 22.75709
1050.017, 22.56424
1050.499, 21.65940
1050.981, 21.39183
1051.463, 22.36137
1051.945, 22.92180
1052.428, 22.29873
1052.910, 21.71501
1053.392, 21.90059
1053.874, 22.25128
1054.356, 22.08791
1054.838, 21.53137
1055.320, 21.15475
1055.802, 21.09185
1056.285, 21.14709
1056.767, 21.28066
1057.249, 21.50040
1057.731, 21.93464
1058.213, 22.35806
1058.695, 22.44101
1059.177, 22.32644
1059.659, 22.55115
1060.141, 23.37841
1060.624, 23.87433
1061.106, 23.60336
1061.588, 23.05907
1062.070, 22.10319
1062.552, 21.30813
1063.034, 21.43469
1063.516, 22.16990
1063.998, 22.57847
1064.480, 22.40369
1064.963, 22.17236
1065.445, 22.02948
1065.927, 21.96043
1066.409, 22.01105
1066.891, 22.08737
1067.373, 22.10129
1067.855, 22.06497
1068.337, 22.03407
1068.820, 22.02391
1069.302, 21.97554
1069.784, 21.76757
1070.266, 21.63498
1070.748, 21.94854
1071.230, 22.17814
1071.712, 21.59555
1072.194, 20.61400
1072.677, 20.17378
1073.159, 20.47415
1073.641, 20.86679
1074.123, 21.21639
1074.605, 21.40315
1075.087, 21.24734
1075.569, 21.01174
1076.051, 20.91748
1076.533, 20.91900
1077.016, 20.86098
1077.498, 20.73181
1077.980, 20.76517
1078.462, 21.35761
1078.944, 21.70040
1079.426, 21.11570
1079.908, 20.40569
1080.390, 20.15447
1080.872, 20.25990
1081.354, 20.66602
1081.837, 21.24714
1082.319, 21.33221
1082.801, 20.16711
1083.283, 19.44735
1083.765, 20.47939
1084.247, 21.70917
1084.729, 22.13656
1085.211, 21.96821
1085.694, 21.35147
1086.176, 20.48475
1086.658, 20.00977
1087.140, 20.26242
1087.622, 20.56960
1088.104, 20.74643
1088.586, 20.77826
1089.068, 20.53943
1089.551, 20.23335
1090.033, 20.02685
1090.515, 19.97112
1090.997, 20.18110
1091.479, 20.77489
1091.961, 21.23440
1092.443, 21.26238
1092.925, 21.23172
1093.407, 21.41698
1093.890, 21.56730
1094.372, 21.37511
1094.854, 20.95173
1095.336, 20.61251
1095.818, 20.43096
1096.300, 20.24774
1096.782, 19.72989
1097.264, 19.57450
1097.746, 20.61110
1098.229, 21.58890
1098.711, 21.26443
1099.193, 20.25496
1099.675, 19.78983
1100.157, 20.04346
1100.639, 20.34720
1101.121, 20.64776
1101.603, 20.81822
1102.086, 20.72937
1102.568, 20.60268
1103.050, 20.55270
1103.532, 20.56294
1104.014, 20.58499
1104.496, 20.71510
1104.978, 20.76760
1105.460, 21.11639
1105.943, 21.42590
1106.425, 21.77073
1106.907, 21.93465
1107.389, 21.68892
1107.871, 21.31400
1108.353, 21.14466
1108.835, 21.12197
1109.317, 20.92995
1109.799, 20.56623
1110.281, 19.98000
1110.764, 18.37499
1111.246, 17.60316
1111.728, 18.98634
1112.210, 20.66641
1112.692, 21.12945
1113.174, 20.77963
1113.656, 20.71604
1114.138, 21.08275
1114.621, 21.07526
1115.103, 20.34845
1115.585, 19.80750
1116.067, 19.54697
1116.549, 19.57688
1117.031, 20.06130
1117.513, 20.72185
1117.995, 21.12793
1118.478, 21.27722
1118.960, 21.26796
1119.442, 21.00959
1119.924, 20.79746
1120.406, 20.60387
1120.888, 20.59619
1121.370, 21.01912
1121.852, 21.36910
1122.334, 20.94779
1122.817, 19.97570
1123.299, 19.71038
1123.781, 20.36985
1124.263, 20.80908
1124.745, 20.91502
1125.227, 21.17584
1125.709, 21.88262
1126.191, 22.28328
1126.673, 21.63115
1127.156, 20.45459
1127.638, 20.07559
1128.120, 20.52566
1128.602, 20.87622
1129.084, 21.13405
1129.566, 21.18940
1130.048, 21.01295
1130.530, 20.64132
1131.013, 20.04167
1131.495, 19.55691
1131.977, 19.74460
1132.459, 20.46218
1132.941, 21.10328
1133.423, 21.65108
1133.905, 21.68402
1134.387, 21.19074
1134.870, 20.95387
1135.352, 21.28196
1135.834, 21.71345
1136.316, 21.85111
1136.798, 21.67348
1137.280, 20.87425
1137.762, 19.75461
1138.244, 19.49680
1138.726, 19.98316
1139.208, 20.38960
1139.691, 20.51446
1140.173, 20.55566
1140.655, 20.62882
1141.137, 20.76369
1141.619, 21.13941
1142.101, 21.50899
1142.583, 21.30991
1143.065, 20.79567
1143.548, 20.50236
1144.030, 20.48977
1144.512, 20.68693
1144.994, 21.04824
1145.476, 21.25450
1145.958, 20.90089
1146.440, 20.46799
1146.922, 20.48799
1147.405, 20.67850
1147.887, 20.69320
1148.369, 20.58282
1148.851, 20.44732
1149.333, 20.35538
1149.815, 20.54603
1150.297, 21.31145
1150.779, 21.88790
1151.261, 21.62573
1151.744, 21.23206
1152.226, 21.23912
1152.708, 21.40031
1153.190, 21.35415
1153.672, 21.16775
1154.154, 21.20680
1154.636, 21.62063
1155.118, 21.77475
1155.600, 21.20813
1156.083, 20.72882
1156.565, 20.59015
1157.047, 20.65956
1157.529, 21.04370
1158.011, 21.46586
1158.493, 21.39774
1158.975, 20.83013
1159.457, 20.59112
1159.940, 21.06261
1160.422, 21.32546
1160.904, 21.53612
1161.386, 21.23931
1161.868, 19.72602
1162.350, 18.30844
1162.832, 18.28451
1163.314, 19.24151
1163.796, 19.91425
1164.279, 20.26368
1164.761, 20.53874
1165.243, 20.75198
1165.725, 20.81649
1166.207, 20.65226
1166.689, 20.57674
1167.171, 20.81443
1167.653, 21.11384
1168.135, 21.11908
1168.618, 20.86520
1169.100, 20.45402
1169.582, 19.89414
1170.064, 19.83278
1170.546, 20.31224
1171.028, 20.59234
1171.510, 20.42765
1171.992, 20.47617
1172.474, 21.35143
1172.957, 22.32125
1173.439, 21.91344
1173.921, 20.63324
1174.403, 19.83856
1174.885, 19.52281
1175.367, 19.69136
1175.849, 20.21988
1176.331, 20.62986
1176.814, 20.71122
1177.296, 20.55725
1177.778, 20.07060
1178.260, 19.63388
1178.742, 19.76289
1179.224, 20.16370
1179.706, 20.56429
1180.188, 20.86118
1180.671, 20.87196
1181.153, 20.62088
1181.635, 20.39374
1182.117, 20.32116
1182.599, 20.26333
1183.081, 20.07098
1183.563, 19.95931
1184.045, 20.20890
1184.527, 20.47948
1185.010, 20.36764
1185.492, 20.02310
1185.974, 19.81668
1186.456, 19.79841
1186.938, 19.93580
1187.420, 20.47448
1187.902, 20.78655
1188.384, 20.64600
1188.866, 20.41203
1189.349, 20.17773
1189.831, 19.99010
1190.313, 19.97541
1190.795, 20.03478
1191.277, 19.70829
1191.759, 18.75976
1192.241, 18.54336
1192.723, 19.32120
1193.206, 19.91872
1193.688, 20.10160
1194.170, 20.00782
1194.652, 19.65311
1195.134, 19.30067
1195.616, 19.34949
1196.098, 19.69054
1196.580, 19.85113
1197.063, 19.85333
1197.545, 19.95918
1198.027, 20.16726
1198.509, 20.29714
1198.991, 20.28864
1199.473, 20.06893
1199.955, 19.56449
1200.437, 19.02452
1200.919, 18.69530
1201.401, 18.60230
1201.884, 19.01704
1202.366, 19.58596
1202.848, 19.48176
1203.330, 18.89379
1203.812, 18.72252
1204.294, 19.18137
1204.776, 19.45070
1205.258, 18.81611
1205.741, 18.33380
1206.223, 19.02355
1206.705, 19.75659
1207.187, 19.54009
1207.669, 18.94841
1208.151, 18.66272
1208.633, 18.69244
1209.115, 18.82053
1209.598, 19.03885
1210.080, 19.19729
1210.562, 19.21727
1211.044, 19.26094
1211.526, 19.50259
1212.008, 19.58765
1212.490, 19.18743
1212.972, 18.72770
1213.454, 18.76783
1213.937, 19.17059
1214.419, 19.23988
1214.901, 18.86854
1215.383, 18.73878
1215.865, 18.91370
1216.347, 18.93098
1216.829, 18.66438
1217.311, 18.42494
1217.793, 18.38970
1218.276, 18.50833
1218.758, 18.74627
1219.240, 19.04215
1219.722, 19.22719
1220.204, 19.31988
1220.686, 19.42385
1221.168, 19.50009
1221.650, 19.31765
1222.133, 18.87168
1222.615, 18.46898
1223.097, 18.27441
1223.579, 18.23430
1224.061, 18.42990
1224.543, 18.61856
1225.025, 18.44236
1225.507, 18.22000
1225.990, 18.44224
1226.472, 18.87735
1226.954, 18.92120
1227.436, 18.54368
1227.918, 18.50345
1228.400, 19.42371
1228.882, 19.83282
1229.364, 18.89500
1229.846, 18.03325
1230.328, 17.79111
1230.811, 17.84707
1231.293, 18.13359
1231.775, 18.41340
1232.257, 18.14319
1232.739, 17.33070
1233.221, 17.15794
1233.703, 17.80043
1234.185, 18.30282
1234.668, 18.57452
1235.150, 18.86500
1235.632, 19.29199
1236.114, 19.40606
1236.596, 18.79644
1237.078, 17.97897
1237.560, 17.86834
1238.042, 18.27562
1238.525, 18.70992
1239.007, 19.09438
1239.489, 19.07811
1239.971, 18.76950
1240.453, 18.78563
1240.935, 19.23117
1241.417, 19.34581
1241.899, 18.50988
1242.381, 17.73385
1242.864, 17.90720
1243.346, 18.37762
1243.828, 18.77435
1244.310, 19.02439
1244.792, 18.97615
1245.274, 18.77265
1245.756, 18.75002
1246.238, 18.95467
1246.720, 19.03150
1247.203, 18.80875
1247.685, 18.64672
1248.167, 18.70804
1248.649, 18.59661
1249.131, 17.94115
1249.613, 17.51444
1250.095, 18.05439
1250.577, 18.99088
1251.059, 19.18213
1251.542, 18.69754
1252.024, 18.33095
1252.506, 18.08170
1252.988, 18.05952
1253.470, 18.26016
1253.952, 18.47849
1254.434, 18.63429
1254.916, 18.54715
1255.399, 18.06511
1255.881, 17.50934
1256.363, 17.19659
1256.845, 17.13380
1257.327, 17.46834
1257.809, 17.97225
1258.291, 18.44127
1258.773, 18.73471
1259.255, 18.48706
1259.738, 17.76221
1260.220, 17.44579
1260.702, 18.08876
1261.184, 18.50097
1261.666, 17.97305
1262.148, 17.58480
1262.630, 17.97461
1263.112, 18.42898
1263.594, 18.37574
1264.077, 18.11718
1264.559, 18.11530
1265.041, 18.05861
1265.523, 17.98564
1266.005, 18.09231
1266.487, 18.00794
1266.969, 18.10986
1267.451, 18.25027
1267.934, 18.39695
1268.416, 18.47301
1268.898, 18.43118
1269.380, 18.38824
1269.862, 18.50164
1270.344, 18.67012
1270.826, 18.75401
1271.308, 18.73087
1271.791, 18.42715
1272.273, 18.03858
1272.755, 18.04401
1273.237, 18.39591
1273.719, 18.59762
1274.201, 18.47270
1274.683, 18.34210
1275.165, 18.25373
1275.647, 18.32479
1276.130, 18.78962
1276.612, 19.20388
1277.094, 19.34076
1277.576, 19.26353
1278.058, 18.95930
1278.540, 18.54700
1279.022, 18.38315
1279.504, 18.13483
1279.986, 17.91965
1280.469, 17.91331
1280.951, 17.72009
1281.433, 17.86824
1281.915, 18.09651
1282.397, 18.31259
1282.879, 18.47416
1283.361, 18.54412
1283.843, 18.56952
1284.326, 18.60628
1284.808, 18.65306
##END=



