##NAMES=Ottrelite
##RRUFFID=R060832
##IDEAL CHEMISTRY=Mn^2+^Al_2_O(SiO_4_)(OH)_2_
##LOCALITY=Ottre, Belgium
##OWNER=RRUFF
##SOURCE=Michael Scott
##DESCRIPTION=Black pseudohexagonal flakes, triply twinned with a 120 deg rotation around c*
##STATUS=The identification of this mineral has been confirmed only by single crystal X-ray diffraction.
##URL=rruff.info/R060832
128.2770, 470.4395
128.7592, 479.6315
129.2413, 490.1466
129.7234, 502.5803
130.2055, 514.8806
130.6876, 525.5369
131.1698, 536.3888
131.6519, 550.7540
132.1340, 570.7126
132.6161, 590.6243
133.0982, 596.2243
133.5803, 576.3705
134.0625, 560.7827
134.5446, 556.6696
135.0267, 558.6000
135.5088, 561.1260
135.9909, 561.6074
136.4730, 560.5432
136.9552, 559.6668
137.4373, 557.5889
137.9194, 557.6697
138.4015, 560.5253
138.8836, 565.7404
139.3657, 573.0336
139.8479, 582.5004
140.3300, 593.6265
140.8121, 603.2527
141.2942, 609.5999
141.7763, 616.0042
142.2584, 621.2012
142.7406, 626.9897
143.2227, 636.6259
143.7048, 652.8368
144.1869, 675.1935
144.6690, 694.2601
145.1511, 704.4025
145.6333, 717.0279
146.1154, 735.9016
146.5975, 759.9931
147.0796, 786.8900
147.5617, 815.1433
148.0438, 845.0302
148.5260, 870.2755
149.0081, 894.1338
149.4902, 911.7312
149.9723, 919.2583
150.4544, 918.2560
150.9365, 913.3842
151.4187, 908.3546
151.9008, 903.2051
152.3829, 896.7800
152.8650, 887.9238
153.3471, 879.0161
153.8292, 872.9267
154.3114, 868.7354
154.7935, 861.6717
155.2756, 846.6063
155.7577, 821.8337
156.2398, 802.2810
156.7219, 789.4658
157.2041, 780.1512
157.6862, 772.0369
158.1683, 765.0918
158.6504, 761.3048
159.1325, 763.0655
159.6146, 771.7562
160.0968, 779.3783
160.5789, 785.1887
161.0610, 790.3918
161.5431, 795.3775
162.0252, 800.3016
162.5073, 806.2726
162.9895, 815.1067
163.4716, 827.6487
163.9537, 836.5969
164.4358, 839.3538
164.9179, 839.7966
165.4000, 840.0062
165.8822, 840.3398
166.3643, 843.8096
166.8464, 855.5666
167.3285, 876.7172
167.8106, 892.2317
168.2927, 896.8317
168.7749, 896.9984
169.2570, 900.1206
169.7391, 907.5897
170.2212, 914.5222
170.7033, 914.8519
171.1854, 908.4605
171.6676, 902.6988
172.1497, 898.5188
172.6318, 895.6446
173.1139, 893.4438
173.5960, 891.6647
174.0781, 891.7199
174.5603, 897.4595
175.0424, 908.7004
175.5245, 914.4153
176.0066, 906.9439
176.4887, 894.5453
176.9708, 889.6679
177.4530, 895.3724
177.9351, 902.9827
178.4172, 901.7371
178.8993, 892.6313
179.3814, 885.6370
179.8635, 882.9858
180.3457, 883.9737
180.8278, 888.9180
181.3099, 898.9423
181.7920, 908.6804
182.2741, 910.0226
182.7562, 904.4272
183.2384, 901.9788
183.7205, 907.7215
184.2026, 917.7487
184.6847, 926.6376
185.1668, 934.0186
185.6489, 938.6627
186.1311, 934.6297
186.6132, 924.0789
187.0953, 921.9480
187.5774, 941.8989
188.0595, 970.9671
188.5416, 984.9631
189.0238, 977.3711
189.5059, 966.1448
189.9880, 973.6090
190.4701, 994.9104
190.9522, 1006.546
191.4343, 989.8807
191.9165, 961.7393
192.3986, 952.1183
192.8807, 967.4619
193.3628, 990.8857
193.8449, 1009.138
194.3270, 1023.233
194.8092, 1034.891
195.2913, 1043.532
195.7734, 1050.451
196.2555, 1057.423
196.7376, 1064.336
197.2197, 1072.319
197.7019, 1083.856
198.1840, 1097.765
198.6661, 1109.755
199.1482, 1117.736
199.6303, 1123.317
200.1124, 1129.334
200.5946, 1136.474
201.0767, 1142.240
201.5588, 1142.794
202.0409, 1139.974
202.5230, 1138.553
203.0051, 1141.319
203.4873, 1145.738
203.9694, 1147.897
204.4515, 1147.174
204.9336, 1146.009
205.4157, 1145.788
205.8978, 1146.503
206.3800, 1148.496
206.8621, 1155.298
207.3442, 1161.933
207.8263, 1160.201
208.3084, 1148.590
208.7905, 1136.677
209.2727, 1130.864
209.7548, 1130.006
210.2369, 1131.968
210.7190, 1140.512
211.2011, 1149.461
211.6832, 1150.605
212.1654, 1143.192
212.6475, 1134.591
213.1296, 1129.092
213.6117, 1125.998
214.0938, 1123.682
214.5760, 1121.416
215.0581, 1120.186
215.5402, 1122.353
216.0223, 1128.101
216.5044, 1131.441
216.9865, 1126.730
217.4687, 1117.518
217.9508, 1112.509
218.4329, 1117.398
218.9150, 1122.190
219.3971, 1116.542
219.8792, 1100.958
220.3614, 1086.692
220.8435, 1078.757
221.3256, 1076.945
221.8077, 1079.327
222.2898, 1090.215
222.7719, 1099.825
223.2541, 1100.169
223.7362, 1092.305
224.2183, 1083.080
224.7004, 1074.097
225.1825, 1066.884
225.6646, 1064.368
226.1468, 1068.708
226.6289, 1073.818
227.1110, 1077.587
227.5931, 1079.616
228.0752, 1077.773
228.5573, 1069.843
229.0395, 1058.962
229.5216, 1051.635
230.0037, 1048.745
230.4858, 1046.702
230.9679, 1044.103
231.4500, 1041.181
231.9322, 1038.256
232.4143, 1035.065
232.8964, 1032.641
233.3785, 1033.025
233.8606, 1036.349
234.3427, 1040.856
234.8249, 1047.533
235.3070, 1054.773
235.7891, 1059.148
236.2712, 1059.277
236.7533, 1058.177
237.2354, 1060.717
237.7176, 1067.478
238.1997, 1073.938
238.6818, 1080.485
239.1639, 1085.820
239.6460, 1087.551
240.1281, 1085.019
240.6103, 1081.419
241.0924, 1080.354
241.5745, 1082.054
242.0566, 1085.570
242.5387, 1091.078
243.0208, 1098.256
243.5030, 1107.832
243.9851, 1119.638
244.4672, 1130.692
244.9493, 1137.180
245.4314, 1137.871
245.9135, 1144.395
246.3957, 1163.126
246.8778, 1182.604
247.3599, 1194.964
247.8420, 1200.256
248.3241, 1202.471
248.8062, 1204.173
249.2884, 1205.344
249.7705, 1209.472
250.2526, 1222.385
250.7347, 1232.266
251.2168, 1234.135
251.6989, 1228.434
252.1811, 1216.308
252.6632, 1197.370
253.1453, 1172.964
253.6274, 1156.292
254.1095, 1150.065
254.5916, 1147.379
255.0738, 1149.463
255.5559, 1153.530
256.0380, 1155.061
256.5201, 1151.624
257.0022, 1144.427
257.4843, 1137.703
257.9665, 1134.208
258.4486, 1127.940
258.9307, 1115.688
259.4128, 1101.469
259.8949, 1089.560
260.3770, 1081.629
260.8592, 1076.933
261.3413, 1074.078
261.8234, 1075.531
262.3055, 1074.984
262.7876, 1073.080
263.2697, 1068.911
263.7519, 1061.288
264.2340, 1050.164
264.7161, 1036.944
265.1982, 1022.777
265.6803, 1004.511
266.1624, 993.6782
266.6446, 994.1010
267.1267, 997.7735
267.6088, 1001.947
268.0909, 1005.537
268.5730, 1007.297
269.0551, 1005.340
269.5373, 998.9937
270.0194, 994.7621
270.5015, 994.9595
270.9836, 995.3412
271.4657, 992.5711
271.9478, 988.6295
272.4300, 988.7473
272.9121, 998.0992
273.3942, 1014.989
273.8763, 1026.945
274.3584, 1030.205
274.8405, 1033.354
275.3227, 1037.077
275.8048, 1042.987
276.2869, 1053.959
276.7690, 1072.471
277.2511, 1095.384
277.7332, 1115.438
278.2154, 1131.794
278.6975, 1147.306
279.1796, 1162.150
279.6617, 1177.047
280.1438, 1193.226
280.6259, 1211.545
281.1081, 1229.405
281.5902, 1242.711
282.0723, 1250.953
282.5544, 1261.309
283.0365, 1278.578
283.5186, 1296.933
284.0008, 1311.206
284.4829, 1320.829
284.9650, 1327.829
285.4471, 1334.565
285.9292, 1340.284
286.4113, 1340.651
286.8935, 1333.121
287.3756, 1322.435
287.8577, 1313.695
288.3398, 1306.761
288.8219, 1298.602
289.3040, 1287.851
289.7862, 1275.214
290.2683, 1261.187
290.7504, 1245.573
291.2325, 1230.400
291.7146, 1218.337
292.1967, 1208.767
292.6789, 1197.107
293.1610, 1180.276
293.6431, 1162.920
294.1252, 1149.179
294.6073, 1138.991
295.0894, 1129.700
295.5716, 1118.979
296.0537, 1107.820
296.5358, 1101.668
297.0179, 1106.311
297.5000, 1109.379
297.9821, 1105.733
298.4643, 1096.606
298.9464, 1083.702
299.4285, 1067.065
299.9106, 1049.448
300.3927, 1038.362
300.8748, 1039.835
301.3570, 1039.207
301.8391, 1032.094
302.3212, 1023.519
302.8033, 1020.274
303.2854, 1023.936
303.7675, 1028.575
304.2497, 1025.418
304.7318, 1011.051
305.2139, 996.8177
305.6960, 977.9147
306.1781, 962.8346
306.6602, 959.6797
307.1424, 966.6807
307.6245, 973.9833
308.1066, 971.7853
308.5887, 959.2122
309.0708, 952.5306
309.5529, 960.7058
310.0351, 966.0000
310.5172, 960.7905
310.9993, 949.5781
311.4814, 940.7429
311.9635, 939.4899
312.4456, 943.7287
312.9278, 946.6912
313.4099, 949.0733
313.8920, 948.6360
314.3741, 942.1460
314.8562, 934.3237
315.3383, 930.6667
315.8205, 933.2015
316.3026, 936.7509
316.7847, 932.5261
317.2668, 918.7740
317.7489, 911.4933
318.2310, 919.1257
318.7132, 930.3290
319.1953, 936.2575
319.6774, 936.5593
320.1595, 937.5710
320.6416, 945.9565
321.1237, 958.9451
321.6059, 965.0305
322.0880, 959.9459
322.5701, 954.4128
323.0522, 957.5441
323.5343, 967.4655
324.0164, 979.1651
324.4986, 993.0703
324.9807, 1007.044
325.4628, 1017.491
325.9449, 1024.407
326.4270, 1033.343
326.9091, 1049.423
327.3913, 1069.735
327.8734, 1082.893
328.3555, 1083.238
328.8376, 1083.238
329.3197, 1091.584
329.8018, 1103.550
330.2840, 1107.921
330.7661, 1099.457
331.2482, 1084.682
331.7303, 1076.519
332.2124, 1079.944
332.6945, 1080.356
333.1767, 1076.207
333.6588, 1069.059
334.1409, 1058.125
334.6230, 1044.304
335.1051, 1033.039
335.5872, 1031.158
336.0694, 1041.728
336.5515, 1043.811
337.0336, 1029.127
337.5157, 1015.427
337.9979, 1010.687
338.4800, 1012.406
338.9621, 1014.032
339.4442, 1011.482
339.9263, 1005.384
340.4084, 998.3881
340.8906, 988.2365
341.3727, 980.8112
341.8548, 977.5544
342.3369, 977.0106
342.8190, 978.2468
343.3011, 980.9897
343.7833, 984.0251
344.2654, 985.2690
344.7475, 984.2689
345.2296, 985.0767
345.7117, 990.7366
346.1938, 996.2181
346.6760, 997.8667
347.1581, 995.9130
347.6402, 993.2823
348.1223, 991.0777
348.6044, 989.5675
349.0865, 989.5269
349.5687, 991.1141
350.0508, 993.8524
350.5329, 999.3510
351.0150, 1005.777
351.4971, 1008.302
351.9792, 1001.443
352.4614, 994.3749
352.9435, 994.8228
353.4256, 1001.732
353.9077, 1010.803
354.3898, 1021.607
354.8719, 1031.520
355.3541, 1032.686
355.8362, 1021.033
356.3183, 1011.459
356.8004, 1009.143
357.2825, 1009.889
357.7646, 1007.367
358.2468, 1000.527
358.7289, 995.7271
359.2110, 1001.418
359.6931, 1021.661
360.1752, 1033.473
360.6573, 1033.655
361.1395, 1029.894
361.6216, 1021.683
362.1037, 1012.395
362.5858, 1009.495
363.0679, 1018.883
363.5500, 1036.615
364.0322, 1043.697
364.5143, 1028.593
364.9964, 1020.529
365.4785, 1026.539
365.9606, 1039.786
366.4427, 1055.799
366.9249, 1073.050
367.4070, 1087.705
367.8891, 1094.130
368.3712, 1091.808
368.8533, 1088.614
369.3354, 1085.904
369.8176, 1081.806
370.2997, 1073.489
370.7818, 1062.256
371.2639, 1053.842
371.7460, 1052.367
372.2281, 1055.214
372.7103, 1058.672
373.1924, 1063.068
373.6745, 1064.857
374.1566, 1060.499
374.6387, 1052.280
375.1208, 1046.646
375.6030, 1046.330
376.0851, 1045.102
376.5672, 1037.710
377.0493, 1027.072
377.5314, 1019.659
378.0135, 1017.608
378.4957, 1019.244
378.9778, 1022.170
379.4599, 1026.463
379.9420, 1032.191
380.4241, 1043.731
380.9063, 1053.376
381.3884, 1053.178
381.8705, 1044.958
382.3526, 1038.146
382.8347, 1040.798
383.3168, 1051.699
383.7990, 1055.573
384.2811, 1043.191
384.7632, 1034.389
385.2453, 1033.880
385.7274, 1037.952
386.2095, 1042.962
386.6917, 1047.584
387.1738, 1051.069
387.6559, 1051.238
388.1380, 1046.945
388.6201, 1046.201
389.1022, 1051.769
389.5844, 1059.716
390.0665, 1068.806
390.5486, 1078.522
391.0307, 1086.865
391.5128, 1090.625
391.9949, 1092.757
392.4771, 1100.793
392.9592, 1115.933
393.4413, 1129.620
393.9234, 1136.695
394.4055, 1138.766
394.8876, 1140.162
395.3698, 1139.090
395.8519, 1140.424
396.3340, 1149.750
396.8161, 1162.913
397.2982, 1170.492
397.7803, 1169.347
398.2625, 1165.405
398.7446, 1166.898
399.2267, 1176.555
399.7088, 1182.962
400.1909, 1184.087
400.6730, 1183.884
401.1552, 1184.472
401.6373, 1185.794
402.1194, 1186.424
402.6015, 1184.960
403.0836, 1182.817
403.5657, 1186.940
404.0479, 1201.947
404.5300, 1216.472
405.0121, 1228.198
405.4942, 1239.206
405.9763, 1252.826
406.4584, 1269.498
406.9406, 1283.578
407.4227, 1288.797
407.9048, 1285.349
408.3869, 1277.952
408.8690, 1262.985
409.3511, 1250.246
409.8333, 1247.193
410.3154, 1251.098
410.7975, 1255.388
411.2796, 1258.190
411.7617, 1260.163
412.2438, 1261.473
412.7260, 1262.285
413.2081, 1264.149
413.6902, 1267.895
414.1723, 1272.777
414.6544, 1277.272
415.1365, 1281.250
415.6187, 1285.266
416.1008, 1286.631
416.5829, 1289.745
417.0650, 1301.888
417.5471, 1322.286
418.0292, 1340.361
418.5114, 1346.273
418.9935, 1340.175
419.4756, 1336.769
419.9577, 1334.921
420.4398, 1337.266
420.9219, 1349.606
421.4041, 1364.447
421.8862, 1371.359
422.3683, 1366.666
422.8504, 1358.444
423.3325, 1360.414
423.8146, 1374.900
424.2968, 1381.695
424.7789, 1371.052
425.2610, 1360.196
425.7431, 1360.480
426.2252, 1369.801
426.7073, 1379.587
427.1895, 1388.232
427.6716, 1393.868
428.1537, 1391.394
428.6358, 1380.887
429.1179, 1372.955
429.6000, 1373.317
430.0822, 1378.754
430.5643, 1381.631
431.0464, 1380.237
431.5285, 1380.733
432.0106, 1385.408
432.4927, 1392.492
432.9749, 1400.975
433.4570, 1410.244
433.9391, 1418.161
434.4212, 1422.457
434.9033, 1423.028
435.3854, 1424.708
435.8676, 1427.040
436.3497, 1431.023
436.8318, 1438.495
437.3139, 1447.148
437.7960, 1453.932
438.2781, 1457.670
438.7603, 1460.435
439.2424, 1464.810
439.7245, 1470.724
440.2066, 1479.133
440.6887, 1493.998
441.1708, 1506.930
441.6530, 1512.062
442.1351, 1510.938
442.6172, 1508.854
443.0993, 1506.030
443.5814, 1504.630
444.0635, 1507.036
444.5457, 1513.226
445.0278, 1524.358
445.5099, 1543.730
445.9920, 1564.807
446.4741, 1571.632
446.9562, 1558.629
447.4384, 1549.573
447.9205, 1548.613
448.4026, 1553.006
448.8847, 1563.869
449.3668, 1579.040
449.8489, 1589.728
450.3311, 1588.178
450.8132, 1575.988
451.2953, 1568.462
451.7774, 1568.463
452.2595, 1569.689
452.7416, 1568.669
453.2238, 1569.666
453.7059, 1578.735
454.1880, 1596.877
454.6701, 1615.703
455.1522, 1623.458
455.6343, 1621.960
456.1165, 1630.951
456.5986, 1654.799
457.0807, 1683.419
457.5628, 1711.344
458.0449, 1739.022
458.5270, 1767.621
459.0092, 1798.926
459.4913, 1829.293
459.9734, 1856.396
460.4555, 1880.511
460.9376, 1902.646
461.4197, 1922.934
461.9019, 1941.794
462.3840, 1960.509
462.8661, 1981.971
463.3482, 1990.889
463.8303, 1982.403
464.3124, 1967.137
464.7946, 1952.031
465.2767, 1934.162
465.7588, 1906.028
466.2409, 1863.092
466.7230, 1810.097
467.2051, 1755.821
467.6873, 1697.452
468.1694, 1647.238
468.6515, 1610.401
469.1336, 1580.217
469.6157, 1552.376
470.0978, 1527.286
470.5800, 1507.703
471.0621, 1499.300
471.5442, 1495.449
472.0263, 1485.960
472.5084, 1470.729
472.9905, 1451.703
473.4727, 1427.289
473.9548, 1401.923
474.4369, 1387.780
474.9190, 1388.224
475.4011, 1389.058
475.8832, 1389.202
476.3654, 1387.702
476.8475, 1382.688
477.3296, 1374.724
477.8117, 1366.661
478.2938, 1360.440
478.7759, 1356.270
479.2581, 1356.230
479.7402, 1366.622
480.2223, 1371.078
480.7044, 1361.834
481.1865, 1349.089
481.6686, 1340.775
482.1508, 1338.574
482.6329, 1341.614
483.1150, 1350.357
483.5971, 1363.841
484.0792, 1379.935
484.5613, 1399.542
485.0435, 1416.604
485.5256, 1424.499
486.0077, 1427.425
486.4898, 1438.745
486.9719, 1466.046
487.4540, 1490.240
487.9362, 1500.183
488.4183, 1504.207
488.9004, 1512.383
489.3825, 1527.127
489.8646, 1548.012
490.3467, 1575.894
490.8289, 1611.118
491.3110, 1640.629
491.7931, 1655.565
492.2752, 1674.901
492.7573, 1704.899
493.2394, 1740.330
493.7216, 1776.425
494.2037, 1811.878
494.6858, 1843.265
495.1679, 1866.111
495.6500, 1881.311
496.1321, 1895.074
496.6143, 1907.290
497.0964, 1919.884
497.5785, 1938.583
498.0606, 1958.651
498.5427, 1965.182
499.0248, 1944.855
499.5070, 1925.586
499.9891, 1923.372
500.4712, 1930.541
500.9533, 1934.782
501.4355, 1932.902
501.9176, 1928.458
502.3997, 1925.694
502.8818, 1925.100
503.3639, 1921.188
503.8460, 1911.500
504.3282, 1901.099
504.8103, 1888.317
505.2924, 1876.703
505.7745, 1871.192
506.2566, 1873.464
506.7387, 1879.220
507.2209, 1887.605
507.7030, 1897.058
508.1851, 1892.490
508.6672, 1867.446
509.1493, 1840.324
509.6314, 1827.707
510.1136, 1824.041
510.5957, 1810.697
511.0778, 1780.594
511.5599, 1746.833
512.0420, 1710.046
512.5241, 1675.258
513.0062, 1654.199
513.4883, 1648.704
513.9705, 1643.065
514.4526, 1617.858
514.9347, 1570.656
515.4168, 1537.549
515.8989, 1529.912
516.3810, 1524.045
516.8632, 1517.135
517.3453, 1507.855
517.8274, 1492.990
518.3095, 1471.559
518.7916, 1452.057
519.2737, 1444.467
519.7559, 1446.510
520.2380, 1448.462
520.7201, 1449.692
521.2022, 1449.548
521.6843, 1447.909
522.1664, 1444.362
522.6486, 1437.951
523.1307, 1423.895
523.6128, 1413.187
524.0949, 1410.320
524.5770, 1412.277
525.0591, 1415.849
525.5413, 1420.254
526.0234, 1426.259
526.5055, 1435.848
526.9876, 1448.320
527.4697, 1450.805
527.9518, 1436.787
528.4340, 1423.149
528.9161, 1415.388
529.3982, 1409.279
529.8803, 1400.525
530.3624, 1388.359
530.8445, 1375.611
531.3267, 1363.889
531.8088, 1352.965
532.2909, 1343.510
532.7730, 1335.622
533.2551, 1324.154
533.7372, 1306.066
534.2194, 1282.175
534.7015, 1254.899
535.1836, 1216.010
535.6657, 1187.074
536.1478, 1173.637
536.6299, 1168.386
537.1121, 1168.552
537.5942, 1171.810
538.0763, 1173.623
538.5584, 1170.488
539.0405, 1164.004
539.5226, 1159.658
540.0048, 1158.521
540.4869, 1155.243
540.9690, 1143.535
541.4511, 1133.570
541.9332, 1136.560
542.4153, 1151.703
542.8975, 1163.346
543.3796, 1161.390
543.8617, 1156.745
544.3438, 1160.790
544.8259, 1171.626
545.3080, 1180.745
545.7902, 1184.381
546.2723, 1185.451
546.7544, 1188.888
547.2365, 1194.532
547.7186, 1203.263
548.2007, 1216.591
548.6829, 1231.192
549.1650, 1247.197
549.6471, 1263.167
550.1292, 1277.113
550.6113, 1288.385
551.0934, 1296.546
551.5756, 1299.054
552.0577, 1297.010
552.5398, 1301.733
553.0219, 1319.697
553.5040, 1330.121
553.9861, 1312.743
554.4683, 1269.939
554.9504, 1232.339
555.4325, 1203.055
555.9146, 1175.501
556.3967, 1142.559
556.8788, 1112.562
557.3610, 1099.042
557.8431, 1102.681
558.3252, 1108.163
558.8073, 1099.664
559.2894, 1078.909
559.7715, 1064.109
560.2537, 1055.840
560.7358, 1052.346
561.2179, 1057.494
561.7000, 1064.659
562.1821, 1067.912
562.6642, 1066.593
563.1464, 1063.365
563.6285, 1058.345
564.1106, 1052.802
564.5927, 1047.758
565.0748, 1043.504
565.5569, 1041.490
566.0391, 1042.780
566.5212, 1045.622
567.0033, 1046.081
567.4854, 1043.633
567.9675, 1039.744
568.4496, 1030.432
568.9318, 1023.716
569.4139, 1023.333
569.8960, 1028.643
570.3781, 1038.258
570.8602, 1052.382
571.3423, 1067.813
571.8245, 1081.589
572.3066, 1093.390
572.7887, 1100.827
573.2708, 1102.403
573.7529, 1103.461
574.2350, 1108.697
574.7172, 1117.880
575.1993, 1126.772
575.6814, 1133.417
576.1635, 1142.205
576.6456, 1155.458
577.1277, 1170.761
577.6099, 1185.624
578.0920, 1199.625
578.5741, 1213.857
579.0562, 1228.003
579.5383, 1243.508
580.0204, 1267.622
580.5026, 1301.588
580.9847, 1340.298
581.4668, 1384.329
581.9489, 1430.429
582.4310, 1469.729
582.9132, 1500.996
583.3953, 1551.409
583.8774, 1629.170
584.3596, 1728.684
584.8417, 1848.200
585.3238, 1985.973
585.8059, 2139.744
586.2880, 2307.902
586.7701, 2488.816
587.2523, 2677.424
587.7344, 2871.025
588.2165, 3083.821
588.6986, 3317.947
589.1807, 3570.632
589.6628, 3844.516
590.1450, 4132.680
590.6271, 4424.144
591.1092, 4711.933
591.5913, 5018.439
592.0734, 5386.201
592.5555, 5772.037
593.0377, 6136.968
593.5198, 6467.147
594.0019, 6681.896
594.4840, 6733.539
594.9661, 6620.040
595.4482, 6328.022
595.9304, 5744.073
596.4125, 5163.504
596.8946, 4552.492
597.3767, 3985.667
597.8588, 3502.724
598.3409, 3099.659
598.8231, 2767.458
599.3052, 2507.409
599.7873, 2303.910
600.2694, 2146.226
600.7515, 2030.192
601.2336, 1935.029
601.7158, 1857.488
602.1979, 1794.930
602.6800, 1746.370
603.1621, 1711.754
603.6442, 1681.327
604.1263, 1660.674
604.6085, 1636.715
605.0906, 1601.783
605.5727, 1566.083
606.0548, 1537.950
606.5369, 1519.001
607.0190, 1507.099
607.5012, 1502.675
607.9833, 1502.983
608.4654, 1502.284
608.9475, 1500.583
609.4296, 1497.148
609.9117, 1491.640
610.3939, 1484.522
610.8760, 1476.893
611.3581, 1469.132
611.8402, 1456.398
612.3223, 1432.759
612.8044, 1410.564
613.2866, 1394.401
613.7687, 1383.025
614.2508, 1375.865
614.7329, 1372.104
615.2150, 1367.403
615.6971, 1356.245
616.1793, 1339.897
616.6614, 1325.972
617.1435, 1314.862
617.6256, 1304.716
618.1077, 1295.388
618.5898, 1286.172
619.0720, 1275.201
619.5541, 1261.366
620.0362, 1251.830
620.5183, 1253.048
621.0004, 1253.896
621.4825, 1246.832
621.9647, 1234.059
622.4468, 1219.578
622.9289, 1205.094
623.4110, 1192.987
623.8931, 1187.223
624.3752, 1187.723
624.8574, 1188.662
625.3395, 1191.780
625.8216, 1190.275
626.3037, 1177.344
626.7858, 1159.071
627.2679, 1146.711
627.7501, 1141.519
628.2322, 1138.531
628.7143, 1138.861
629.1964, 1138.934
629.6785, 1135.389
630.1606, 1129.047
630.6428, 1122.403
631.1249, 1116.599
631.6070, 1111.710
632.0891, 1108.770
632.5712, 1108.120
633.0533, 1103.598
633.5355, 1093.315
634.0176, 1082.173
634.4997, 1073.094
634.9818, 1065.022
635.4639, 1055.152
635.9460, 1040.531
636.4282, 1031.639
636.9103, 1038.105
637.3924, 1047.273
637.8745, 1046.326
638.3566, 1036.969
638.8387, 1028.539
639.3209, 1026.152
639.8030, 1026.282
640.2851, 1021.355
640.7672, 1010.458
641.2493, 1004.655
641.7314, 1009.250
642.2136, 1010.924
642.6957, 995.8186
643.1778, 973.0796
643.6599, 962.7155
644.1420, 972.7633
644.6241, 980.4106
645.1063, 974.2429
645.5884, 964.8677
646.0705, 963.0998
646.5526, 967.9048
647.0347, 972.5793
647.5168, 973.5427
647.9990, 970.8198
648.4811, 962.4741
648.9632, 947.4585
649.4453, 939.5313
649.9274, 942.9399
650.4095, 947.7864
650.8917, 947.0930
651.3738, 943.2079
651.8559, 942.1337
652.3380, 945.5026
652.8201, 948.9325
653.3022, 954.7798
653.7844, 957.3862
654.2665, 949.0393
654.7486, 932.4363
655.2307, 916.3340
655.7128, 905.2088
656.1949, 899.3034
656.6771, 900.7641
657.1592, 909.7872
657.6413, 915.6539
658.1234, 915.6191
658.6055, 916.8167
659.0876, 927.2724
659.5698, 941.7590
660.0519, 943.4568
660.5340, 921.5099
661.0161, 908.8364
661.4982, 921.9078
661.9803, 938.6498
662.4625, 940.7398
662.9446, 931.4159
663.4267, 923.5723
663.9088, 923.6555
664.3909, 926.1798
664.8730, 923.2586
665.3552, 915.2612
665.8373, 905.0892
666.3194, 892.0897
666.8015, 880.7690
667.2836, 872.6479
667.7657, 868.7950
668.2479, 873.3131
668.7300, 892.2144
669.2121, 906.1090
669.6942, 913.4927
670.1763, 915.3932
670.6584, 907.0142
671.1406, 894.7495
671.6227, 891.6165
672.1048, 903.2494
672.5869, 917.9496
673.0690, 922.3914
673.5511, 919.0302
674.0333, 915.5751
674.5154, 912.5036
674.9975, 912.5804
675.4796, 919.2919
675.9617, 926.9286
676.4438, 922.3812
676.9260, 897.7777
677.4081, 880.3683
677.8902, 872.7294
678.3723, 868.8834
678.8544, 866.4721
679.3365, 866.2088
679.8187, 870.7859
680.3008, 881.0837
680.7829, 889.8162
681.2650, 889.4964
681.7471, 884.7157
682.2292, 883.3724
682.7114, 885.4119
683.1935, 887.4013
683.6756, 887.7855
684.1577, 887.8259
684.6398, 889.8396
685.1219, 894.6594
685.6041, 896.6031
686.0862, 893.8826
686.5683, 890.6382
687.0504, 888.9406
687.5325, 886.8842
688.0146, 881.2767
688.4968, 871.8258
688.9789, 864.9006
689.4610, 863.6303
689.9431, 865.9293
690.4252, 873.3266
690.9073, 882.3077
691.3895, 882.9663
691.8716, 872.8291
692.3537, 861.7731
692.8358, 861.4116
693.3179, 870.5938
693.8000, 876.9099
694.2822, 880.5631
694.7643, 880.3029
695.2464, 871.3132
695.7285, 862.4851
696.2106, 864.9392
696.6927, 877.4605
697.1749, 885.9247
697.6570, 886.6891
698.1391, 884.6251
698.6212, 881.3928
699.1033, 876.8210
699.5854, 868.4641
700.0676, 857.6370
700.5497, 851.3440
701.0318, 855.5701
701.5139, 866.2204
701.9960, 876.5574
702.4781, 886.3440
702.9603, 888.8148
703.4424, 881.5407
703.9245, 870.1695
704.4066, 856.8826
704.8887, 843.2397
705.3708, 839.1097
705.8530, 855.8524
706.3351, 865.8167
706.8172, 862.5267
707.2993, 856.2191
707.7814, 852.1798
708.2635, 850.9531
708.7457, 852.2401
709.2278, 856.2675
709.7099, 861.4666
710.1920, 865.1578
710.6741, 869.3185
711.1563, 881.7849
711.6384, 901.4252
712.1205, 911.2952
712.6026, 900.4203
713.0847, 879.5598
713.5668, 872.7496
714.0490, 885.7329
714.5311, 890.9741
715.0132, 882.0334
715.4953, 874.2505
715.9774, 874.8541
716.4595, 879.8641
716.9417, 885.1284
717.4238, 890.6857
717.9059, 892.8383
718.3880, 884.3228
718.8701, 877.4373
719.3522, 885.3229
719.8344, 901.0242
720.3165, 909.5084
720.7986, 906.7524
721.2807, 902.2269
721.7628, 907.0605
722.2449, 918.1606
722.7271, 919.5389
723.2092, 909.6556
723.6913, 908.8616
724.1734, 926.6540
724.6555, 948.2303
725.1376, 957.4789
725.6198, 954.2291
726.1019, 950.2228
726.5840, 941.7590
727.0661, 937.5665
727.5482, 944.3395
728.0303, 952.0142
728.5125, 948.7794
728.9946, 938.2231
729.4767, 936.4437
729.9588, 956.0737
730.4409, 977.0571
730.9230, 977.1896
731.4052, 964.7014
731.8873, 957.1502
732.3694, 956.4146
732.8515, 954.4324
733.3336, 945.3694
733.8157, 934.3424
734.2979, 935.5485
734.7800, 953.5256
735.2621, 962.4846
735.7442, 955.6000
736.2263, 949.0635
736.7084, 954.4048
737.1906, 963.9282
737.6727, 964.0058
738.1548, 950.8359
738.6369, 942.9260
739.1190, 950.0028
739.6011, 958.1065
740.0833, 959.2776
740.5654, 955.1799
741.0475, 947.1833
741.5296, 936.6273
742.0117, 930.2760
742.4938, 938.3854
742.9760, 953.2097
743.4581, 957.7444
743.9402, 952.2828
744.4223, 935.8936
744.9044, 905.9647
745.3865, 881.3774
745.8687, 883.6065
746.3508, 909.7612
746.8329, 924.7547
747.3150, 923.1523
747.7971, 919.6383
748.2792, 914.7997
748.7614, 909.7499
749.2435, 904.8831
749.7256, 900.3658
750.2077, 897.0997
750.6898, 898.2614
751.1719, 894.2985
751.6541, 870.6449
752.1362, 846.4542
752.6183, 847.6660
753.1004, 867.5048
753.5825, 880.5734
754.0646, 875.1074
754.5468, 859.9973
755.0289, 843.8276
755.5110, 827.9607
755.9931, 822.7781
756.4752, 829.5336
756.9573, 835.8395
757.4395, 835.9841
757.9216, 834.7797
758.4037, 840.2833
758.8858, 854.5462
759.3679, 859.6381
759.8500, 841.2928
760.3322, 831.8338
760.8143, 851.4835
761.2964, 871.6328
761.7785, 861.7495
762.2606, 826.2266
762.7427, 800.8551
763.2249, 804.9890
763.7070, 815.6613
764.1891, 819.8931
764.6712, 819.7935
765.1533, 816.5021
765.6354, 811.5433
766.1176, 809.8732
766.5997, 814.9149
767.0818, 821.8870
767.5639, 822.0770
768.0460, 815.8671
768.5281, 808.0366
769.0103, 798.2298
769.4924, 791.3455
769.9745, 790.8461
770.4566, 793.2971
770.9387, 791.7070
771.4208, 783.1476
771.9030, 782.3701
772.3851, 795.3370
772.8672, 808.5792
773.3493, 821.9457
773.8314, 831.6891
774.3135, 832.2145
774.7957, 824.1913
775.2778, 817.5635
775.7599, 822.7662
776.2420, 824.1419
776.7241, 801.8097
777.2062, 772.8099
777.6884, 764.9731
778.1705, 778.9738
778.6526, 795.5046
779.1347, 802.6076
779.6168, 803.2490
780.0989, 800.4829
780.5811, 795.1230
781.0632, 797.1600
781.5453, 808.7223
782.0274, 818.8088
782.5095, 822.1334
782.9916, 819.1670
783.4738, 809.2933
783.9559, 787.4722
784.4380, 778.0660
784.9201, 791.3766
785.4022, 804.3314
785.8843, 810.5741
786.3665, 813.6918
786.8486, 817.7408
787.3307, 822.7265
787.8128, 824.8111
788.2949, 820.1770
788.7770, 815.2047
789.2592, 812.1713
789.7413, 811.6849
790.2234, 816.5323
790.7055, 825.0718
791.1876, 830.5588
791.6697, 828.6671
792.1519, 823.6039
792.6340, 820.6114
793.1161, 819.6403
793.5982, 821.6892
794.0803, 826.7319
794.5624, 828.4594
795.0446, 822.7728
795.5267, 816.0616
796.0088, 820.5381
796.4909, 838.7252
796.9730, 846.6989
797.4551, 840.9983
797.9373, 831.4800
798.4194, 816.2928
798.9015, 802.4984
799.3836, 799.0693
799.8657, 804.8281
800.3478, 806.8243
800.8300, 797.1879
801.3121, 791.6773
801.7942, 798.8764
802.2763, 809.1341
802.7584, 812.9368
803.2405, 812.3069
803.7227, 816.0029
804.2048, 828.7254
804.6869, 840.5997
805.1690, 844.2463
805.6511, 840.3468
806.1332, 823.5196
806.6154, 799.0044
807.0975, 790.3405
807.5796, 806.4221
808.0617, 828.5526
808.5438, 834.3497
809.0259, 825.7223
809.5081, 813.5299
809.9902, 795.6569
810.4723, 790.6736
810.9544, 807.8387
811.4365, 827.5386
811.9186, 831.7621
812.4008, 823.2453
812.8829, 818.2347
813.3650, 816.7919
813.8471, 818.9252
814.3292, 830.1677
814.8113, 839.0750
815.2935, 838.4714
815.7756, 832.2880
816.2577, 827.2189
816.7398, 824.6206
817.2219, 821.5314
817.7040, 811.8748
818.1862, 806.1141
818.6683, 815.7853
819.1504, 833.0562
819.6325, 846.1160
820.1146, 852.4070
820.5967, 854.9705
821.0789, 855.8731
821.5610, 854.4080
822.0431, 847.4748
822.5252, 837.1387
823.0073, 830.3292
823.4894, 828.0641
823.9716, 831.1866
824.4537, 841.0550
824.9358, 852.5431
825.4179, 853.8160
825.9000, 842.6572
826.3821, 840.1193
826.8643, 848.3596
827.3464, 859.3652
827.8285, 871.8854
828.3106, 883.8755
828.7927, 892.8307
829.2748, 898.6502
829.7570, 902.7327
830.2391, 903.9495
830.7212, 905.0657
831.2033, 903.1100
831.6854, 904.2279
832.1675, 914.0468
832.6497, 930.3542
833.1318, 948.0223
833.6139, 967.3995
834.0960, 981.7800
834.5781, 984.9236
835.0602, 984.0211
835.5424, 983.6807
836.0245, 984.9291
836.5066, 989.1947
836.9887, 996.5956
837.4708, 1004.633
837.9529, 1010.921
838.4351, 1016.778
838.9172, 1026.805
839.3993, 1038.791
839.8814, 1041.987
840.3635, 1034.965
840.8456, 1029.218
841.3278, 1032.911
841.8099, 1042.428
842.2920, 1049.488
842.7741, 1053.786
843.2562, 1059.259
843.7383, 1067.340
844.2205, 1072.235
844.7026, 1071.872
845.1847, 1066.447
845.6668, 1054.416
846.1489, 1034.831
846.6310, 1022.298
847.1132, 1020.781
847.5953, 1020.987
848.0774, 1026.928
848.5595, 1029.483
849.0416, 1018.225
849.5237, 998.7467
850.0059, 986.9880
850.4880, 988.0405
850.9701, 991.2281
851.4522, 997.3729
851.9343, 999.7998
852.4164, 990.0417
852.8986, 974.5590
853.3807, 964.2410
853.8628, 961.3873
854.3449, 960.5816
854.8270, 958.1030
855.3091, 955.6564
855.7913, 956.0146
856.2734, 957.7883
856.7555, 958.7532
857.2376, 958.1694
857.7197, 953.4189
858.2018, 942.2627
858.6840, 931.6668
859.1661, 936.1417
859.6482, 952.8118
860.1303, 960.3839
860.6124, 957.7733
861.0945, 956.2866
861.5767, 960.6360
862.0588, 964.4373
862.5409, 959.1747
863.0230, 946.4168
863.5051, 943.3278
863.9872, 952.4293
864.4694, 964.3026
864.9515, 980.7919
865.4336, 994.9143
865.9157, 999.6121
866.3978, 999.5332
866.8799, 1006.605
867.3621, 1023.865
867.8442, 1038.579
868.3263, 1045.442
868.8084, 1055.540
869.2905, 1077.714
869.7726, 1101.574
870.2548, 1114.763
870.7369, 1118.201
871.2190, 1123.506
871.7011, 1132.217
872.1832, 1146.865
872.6653, 1172.890
873.1475, 1202.005
873.6296, 1227.281
874.1117, 1248.736
874.5938, 1267.887
875.0759, 1285.305
875.5580, 1301.938
876.0402, 1318.673
876.5223, 1334.948
877.0044, 1351.118
877.4865, 1366.132
877.9686, 1378.022
878.4507, 1386.218
878.9329, 1390.202
879.4150, 1389.390
879.8971, 1385.146
880.3792, 1381.104
880.8613, 1376.173
881.3434, 1362.155
881.8256, 1338.816
882.3077, 1317.771
882.7898, 1304.443
883.2719, 1291.530
883.7540, 1268.468
884.2361, 1237.189
884.7183, 1217.050
885.2004, 1211.267
885.6825, 1202.731
886.1646, 1187.809
886.6467, 1171.574
887.1288, 1158.481
887.6110, 1145.674
888.0931, 1125.047
888.5752, 1091.779
889.0573, 1065.576
889.5394, 1047.239
890.0215, 1034.860
890.5037, 1035.094
890.9858, 1035.434
891.4679, 1020.338
891.9500, 992.7667
892.4321, 975.2576
892.9142, 977.3900
893.3964, 980.1633
893.8785, 984.8762
894.3606, 983.7584
894.8427, 963.5229
895.3248, 937.1155
895.8069, 927.4081
896.2891, 939.2181
896.7712, 953.2342
897.2533, 966.8384
897.7354, 972.3397
898.2175, 956.6550
898.6996, 934.5454
899.1818, 925.6130
899.6639, 929.1729
900.1460, 932.6711
900.6281, 930.3192
901.1102, 925.4606
901.5923, 919.2220
902.0745, 913.8427
902.5566, 915.5609
903.0387, 920.9150
903.5208, 917.7765
904.0029, 904.0100
904.4850, 891.9327
904.9672, 892.5345
905.4493, 899.8239
905.9314, 900.8176
906.4135, 897.7494
906.8956, 903.6015
907.3777, 918.7295
907.8599, 925.9488
908.3420, 916.6511
908.8241, 902.2484
909.3062, 898.6894
909.7883, 904.5530
910.2704, 907.8812
910.7526, 908.5784
911.2347, 908.0811
911.7168, 907.1706
912.1990, 901.9075
912.6811, 886.8838
913.1632, 869.4443
913.6453, 870.5798
914.1274, 898.7181
914.6096, 905.3689
915.0917, 878.6219
915.5738, 858.0284
916.0559, 858.1018
916.5380, 866.8333
917.0201, 874.3197
917.5023, 880.1789
917.9844, 880.8391
918.4665, 873.7908
918.9486, 865.6586
919.4307, 852.9999
919.9128, 843.3804
920.3950, 840.3770
920.8771, 842.0512
921.3592, 848.7670
921.8413, 860.8998
922.3234, 862.5042
922.8055, 839.8185
923.2877, 822.0175
923.7698, 814.0593
924.2519, 816.3646
924.7340, 840.7293
925.2161, 872.5436
925.6982, 878.3854
926.1804, 846.8239
926.6625, 820.9748
927.1446, 820.0529
927.6267, 827.1368
928.1088, 838.6654
928.5909, 848.2789
929.0731, 846.6437
929.5552, 836.0198
930.0373, 827.6037
930.5194, 825.2694
931.0015, 828.6846
931.4836, 844.6128
931.9658, 860.2409
932.4479, 860.8007
932.9300, 851.2477
933.4121, 841.7821
933.8942, 834.8426
934.3763, 827.3297
934.8585, 815.2336
935.3406, 805.5635
935.8227, 808.2275
936.3048, 817.9237
936.7869, 825.0690
937.2690, 830.3403
937.7512, 842.4772
938.2333, 863.7223
938.7154, 877.9927
939.1975, 864.7390
939.6796, 838.8698
940.1617, 829.3372
940.6439, 832.2634
941.1260, 834.9078
941.6081, 835.8749
942.0902, 842.3453
942.5723, 858.5952
943.0544, 873.1725
943.5366, 866.9730
944.0187, 845.5409
944.5008, 832.5102
944.9829, 827.4894
945.4650, 828.7935
945.9471, 836.0696
946.4293, 842.3062
946.9114, 842.6236
947.3935, 838.7697
947.8756, 832.9477
948.3577, 825.2971
948.8398, 824.0383
949.3220, 829.7390
949.8041, 835.9053
950.2862, 840.7069
950.7683, 844.8508
951.2504, 849.5814
951.7325, 853.3238
952.2147, 848.5168
952.6968, 832.4333
953.1789, 827.8671
953.6610, 838.9457
954.1431, 849.2573
954.6252, 852.4836
955.1074, 852.2909
955.5895, 853.5663
956.0716, 855.3532
956.5537, 847.8616
957.0358, 824.4861
957.5179, 813.1068
958.0001, 819.1224
958.4822, 831.3688
958.9643, 848.9365
959.4464, 864.4119
959.9285, 865.2618
960.4106, 850.9577
960.8928, 842.8927
961.3749, 844.1531
961.8570, 845.4462
962.3391, 846.6087
962.8212, 846.0736
963.3033, 841.1024
963.7855, 834.8808
964.2676, 833.9582
964.7497, 839.7045
965.2318, 842.6205
965.7139, 844.7154
966.1960, 840.9747
966.6782, 820.4937
967.1603, 803.7255
967.6424, 808.3184
968.1245, 825.4839
968.6066, 835.3137
969.0887, 836.7907
969.5709, 833.2334
970.0530, 816.9492
970.5351, 806.0595
971.0172, 812.9336
971.4993, 820.3168
971.9814, 810.8323
972.4636, 790.5906
972.9457, 779.8915
973.4278, 784.5087
973.9099, 787.6775
974.3920, 788.4277
974.8741, 785.7540
975.3563, 771.0450
975.8384, 759.1329
976.3205, 770.2775
976.8026, 797.8643
977.2847, 811.3896
977.7668, 799.0000
978.2490, 788.1595
978.7311, 784.4965
979.2132, 783.9705
979.6953, 788.9844
980.1774, 793.0089
980.6595, 786.5316
981.1417, 771.4214
981.6238, 761.1306
982.1059, 759.9854
982.5880, 761.6964
983.0701, 767.6749
983.5522, 772.4543
984.0344, 773.2844
984.5165, 770.7056
984.9986, 761.6730
985.4807, 748.5014
985.9628, 747.2304
986.4449, 773.4090
986.9271, 793.6077
987.4092, 793.0805
987.8913, 785.4639
988.3734, 776.9816
988.8555, 769.2166
989.3376, 763.5579
989.8198, 760.0228
990.3019, 756.7708
990.7840, 754.6904
991.2661, 750.4573
991.7482, 738.0909
992.2303, 727.5401
992.7125, 728.9496
993.1946, 736.2957
993.6767, 738.0587
994.1588, 733.0806
994.6409, 732.6415
995.1230, 745.4779
995.6052, 758.0924
996.0873, 765.8932
996.5694, 769.3996
997.0515, 767.4608
997.5336, 762.2201
998.0157, 756.3964
998.4979, 750.7250
998.9800, 746.7027
999.4621, 744.0495
999.9442, 744.3657
1000.426, 751.7241
1000.908, 759.3922
1001.391, 759.6959
1001.873, 756.6606
1002.355, 760.2374
1002.837, 771.8284
1003.319, 777.4333
1003.801, 763.6824
1004.283, 751.7335
1004.765, 750.3790
1005.247, 756.8425
1005.730, 776.5282
1006.212, 799.1207
1006.694, 804.7625
1007.176, 789.8560
1007.658, 775.0522
1008.140, 770.7941
1008.622, 766.9499
1009.104, 757.8039
1009.587, 747.5761
1010.069, 735.8218
1010.551, 727.3566
1011.033, 734.7134
1011.515, 759.6924
1011.997, 773.8807
1012.479, 754.6217
1012.961, 735.7773
1013.443, 733.0436
1013.926, 737.5085
1014.408, 745.4946
1014.890, 753.3264
1015.372, 755.3462
1015.854, 750.5212
1016.336, 744.6792
1016.818, 737.7671
1017.300, 733.2106
1017.783, 735.7288
1018.265, 738.0770
1018.747, 731.8978
1019.229, 722.2641
1019.711, 719.3270
1020.193, 724.7273
1020.675, 730.1898
1021.157, 733.6273
1021.639, 735.8240
1022.122, 738.4098
1022.604, 738.5148
1023.086, 734.1464
1023.568, 725.7562
1024.050, 710.2444
1024.532, 687.7455
1025.014, 679.9460
1025.496, 708.3149
1025.979, 730.2586
1026.461, 728.9678
1026.943, 721.2560
1027.425, 715.1565
1027.907, 711.6993
1028.389, 710.9109
1028.871, 712.8593
1029.353, 718.8950
1029.835, 738.1456
1030.318, 748.5729
1030.800, 733.4059
1031.282, 721.2371
1031.764, 736.7512
1032.246, 760.8750
1032.728, 762.8289
1033.210, 741.6995
1033.692, 730.9621
1034.174, 745.0137
1034.657, 753.5995
1035.139, 749.4010
1035.621, 742.9459
1036.103, 737.5209
1036.585, 733.8030
1037.067, 734.0551
1037.549, 737.8624
1038.031, 736.9331
1038.514, 723.5139
1038.996, 717.3045
1039.478, 723.9702
1039.960, 731.4085
1040.442, 737.7021
1040.924, 740.1948
1041.406, 731.4059
1041.888, 714.4220
1042.370, 715.2025
1042.853, 750.8085
1043.335, 768.3901
1043.817, 759.4740
1044.299, 745.4745
1044.781, 728.8390
1045.263, 716.9893
1045.745, 720.5172
1046.227, 734.5222
1046.709, 735.3655
1047.192, 715.6186
1047.674, 706.4208
1048.156, 710.9749
1048.638, 718.5285
1049.120, 728.4301
1049.602, 733.8290
1050.084, 726.1089
1050.566, 712.2048
1051.049, 715.4000
1051.531, 740.6243
1052.013, 746.8840
1052.495, 728.8641
1052.977, 719.6426
1053.459, 729.4117
1053.941, 741.5572
1054.423, 744.2272
1054.906, 740.2279
1055.388, 734.9534
1055.870, 728.4411
1056.352, 720.2575
1056.834, 710.0975
1057.316, 710.9615
1057.798, 726.2816
1058.280, 738.3823
1058.762, 736.2043
1059.245, 727.0599
1059.727, 721.0630
1060.209, 718.2831
1060.691, 719.3963
1061.173, 724.1181
1061.655, 732.1526
1062.137, 742.7017
1062.619, 747.0413
1063.101, 740.8562
1063.584, 731.7003
1064.066, 727.8138
1064.548, 727.6816
1065.030, 728.3423
1065.512, 729.6650
1065.994, 732.1689
1066.476, 735.0764
1066.958, 734.3585
1067.441, 728.8768
1067.923, 723.8365
1068.405, 724.2227
1068.887, 726.3298
1069.369, 724.0095
1069.851, 720.5143
1070.333, 722.9634
1070.815, 728.7532
1071.297, 728.9800
1071.780, 722.5512
1072.262, 718.9589
1072.744, 726.1539
1073.226, 731.9288
1073.708, 721.0005
1074.190, 707.7341
1074.672, 707.3027
1075.154, 715.1181
1075.636, 724.4799
1076.119, 733.0771
1076.601, 738.6112
1077.083, 740.1486
1077.565, 738.5486
1078.047, 731.2067
1078.529, 724.3444
1079.011, 722.7799
1079.494, 723.1370
1079.976, 721.5712
1080.458, 718.5574
1080.940, 717.0863
1081.422, 718.5531
1081.904, 716.9700
1082.386, 704.4458
1082.868, 697.4525
1083.350, 706.9475
1083.833, 718.2910
1084.315, 723.7550
1084.797, 722.5685
1085.279, 709.8944
1085.761, 682.6262
1086.243, 674.7334
1086.725, 701.9885
1087.207, 721.8834
1087.689, 730.5916
1088.172, 730.7724
1088.654, 717.8200
1089.136, 703.8949
1089.618, 705.7456
1090.100, 721.0064
1090.582, 729.9785
1091.064, 732.8791
1091.546, 727.2054
1092.029, 709.9431
1092.511, 694.6789
1092.993, 684.8516
1093.475, 684.0051
1093.957, 697.3529
1094.439, 717.7772
1094.921, 725.3763
1095.403, 720.6600
1095.885, 719.8756
1096.368, 723.1332
1096.850, 725.9621
1097.332, 727.2890
1097.814, 725.4671
1098.296, 719.3325
1098.778, 710.8848
1099.260, 700.0347
1099.742, 690.4409
1100.224, 694.6475
1100.707, 708.4647
1101.189, 720.8580
1101.671, 729.5641
1102.153, 733.6899
1102.635, 732.7923
1103.117, 725.0913
1103.599, 702.7410
1104.081, 681.9777
1104.564, 684.5073
1105.046, 698.0558
1105.528, 712.3412
1106.010, 721.6381
1106.492, 712.9142
1106.974, 687.6729
1107.456, 671.2044
1107.938, 677.2681
1108.421, 689.1335
1108.903, 707.3876
1109.385, 717.7079
1109.867, 700.0863
1110.349, 676.5357
1110.831, 673.7825
1111.313, 688.4540
1111.795, 700.9437
1112.277, 708.1856
1112.760, 712.0528
1113.242, 713.3838
1113.724, 710.6868
1114.206, 694.3885
1114.688, 683.8466
1115.170, 698.2567
1115.652, 721.7934
1116.134, 727.1522
1116.616, 713.9708
1117.099, 702.6764
1117.581, 691.6393
1118.063, 687.8675
1118.545, 693.6071
1119.027, 702.7927
1119.509, 715.2122
1119.991, 722.7471
1120.473, 715.7647
1120.956, 699.5679
1121.438, 691.0745
1121.920, 689.9902
1122.402, 688.5590
1122.884, 686.6179
1123.366, 686.3649
1123.848, 688.3094
1124.330, 692.0765
1124.813, 697.6281
1125.295, 702.4327
1125.777, 702.3927
1126.259, 699.4621
1126.741, 698.1404
1127.223, 697.1094
1127.705, 693.2025
1128.187, 686.5743
1128.669, 677.1406
1129.151, 665.7407
1129.634, 661.8397
1130.116, 678.3892
1130.598, 694.1693
1131.080, 687.6884
1131.562, 677.3165
1132.044, 682.2587
1132.526, 694.1868
1133.008, 698.4640
1133.491, 694.9733
1133.973, 694.2012
1134.455, 700.4124
1134.937, 704.6570
1135.419, 703.1870
1135.901, 701.4982
1136.383, 705.5133
1136.865, 706.2406
1137.348, 688.6099
1137.830, 666.3650
1138.312, 668.2545
1138.794, 696.3389
1139.276, 712.6844
1139.758, 713.8699
1140.240, 713.4778
1140.722, 713.6932
1141.204, 708.5524
1141.687, 693.3478
1142.169, 679.7009
1142.651, 679.8266
1143.133, 690.1137
1143.615, 703.2884
1144.097, 717.9681
1144.579, 720.7164
1145.061, 712.2190
1145.543, 699.1813
1146.026, 684.2125
1146.508, 676.5732
1146.990, 681.7034
1147.472, 689.8506
1147.954, 687.4590
1148.436, 683.5611
1148.918, 696.6807
1149.400, 713.8940
1149.883, 711.7175
1150.365, 696.1804
1150.847, 686.9445
1151.329, 688.0951
1151.811, 688.4873
1152.293, 679.8802
1152.775, 676.0044
1153.257, 688.5791
1153.740, 701.7675
1154.222, 708.5466
1154.704, 709.0345
1155.186, 699.8732
1155.668, 685.3170
1156.150, 679.0375
1156.632, 684.2482
1157.114, 687.4025
1157.596, 688.2937
1158.078, 687.1996
1158.561, 682.2726
1159.043, 679.2664
1159.525, 680.4685
1160.007, 686.9426
1160.489, 702.5820
1160.971, 721.8617
1161.453, 718.4011
1161.935, 693.6160
1162.418, 682.3183
1162.900, 685.3016
1163.382, 690.6618
1163.864, 694.9147
1164.346, 694.0302
1164.828, 685.1556
1165.310, 675.8933
1165.792, 678.3131
1166.275, 683.6727
1166.757, 675.1417
1167.239, 662.6141
1167.721, 665.7900
1168.203, 678.4524
1168.685, 679.7107
1169.167, 666.4126
1169.649, 657.4873
1170.131, 663.2736
1170.614, 670.8094
1171.096, 678.4649
1171.578, 681.8714
1172.060, 673.9186
1172.542, 664.6102
1173.024, 664.0811
1173.506, 670.1311
1173.988, 675.9500
1174.470, 681.9056
1174.953, 683.4941
1175.435, 676.9485
1175.917, 677.5950
1176.399, 689.8387
1176.881, 700.7173
1177.363, 705.1052
1177.845, 703.8733
1178.327, 696.8896
1178.810, 687.4199
1179.292, 684.9378
1179.774, 687.5610
1180.256, 685.0749
1180.738, 679.0052
1181.220, 677.4547
1181.702, 681.3259
1182.184, 686.9092
1182.667, 692.5085
1183.149, 697.1132
1183.631, 699.2305
1184.113, 700.7847
1184.595, 705.2057
1185.077, 708.3557
1185.559, 706.5630
1186.041, 700.1979
1186.523, 686.4965
1187.005, 668.5886
1187.488, 661.5830
1187.970, 672.8501
1188.452, 682.0817
1188.934, 687.5361
1189.416, 689.1074
1189.898, 684.9960
1190.380, 679.6719
1190.862, 674.9176
1191.345, 671.3439
1191.827, 669.4532
1192.309, 669.6409
1192.791, 675.7192
1193.273, 687.6953
1193.755, 691.8892
1194.237, 688.1865
1194.719, 688.0699
1195.202, 693.9103
1195.684, 696.4475
1196.166, 690.0300
1196.648, 680.9844
1197.130, 673.6557
1197.612, 670.6389
1198.094, 680.4988
1198.576, 693.0527
1199.058, 691.8231
1199.541, 682.7092
1200.023, 679.4509
1200.505, 684.1855
1200.987, 692.7286
1201.469, 709.9214
1201.951, 714.8699
1202.433, 690.5359
1202.915, 669.2444
1203.397, 663.0380
1203.880, 662.4543
1204.362, 662.2346
1204.844, 664.0762
1205.326, 672.6120
1205.808, 685.8874
1206.290, 683.8871
1206.772, 665.3826
1207.254, 650.0052
1207.737, 639.0706
1208.219, 645.6034
1208.701, 672.0232
1209.183, 694.2119
1209.665, 696.7084
1210.147, 691.7681
1210.629, 692.8663
1211.111, 696.6450
1211.594, 701.4230
1212.076, 703.4835
1212.558, 692.6125
1213.040, 676.6614
1213.522, 672.8863
1214.004, 682.5690
1214.486, 692.5233
1214.968, 698.4716
1215.450, 705.3403
1215.932, 717.7488
1216.415, 726.2913
1216.897, 728.3858
1217.379, 724.9880
1217.861, 711.5986
1218.343, 699.8022
1218.825, 709.3715
1219.307, 733.7807
1219.789, 731.4988
1220.272, 702.5555
1220.754, 693.6553
1221.236, 705.4927
1221.718, 717.1965
1222.200, 723.4742
1222.682, 723.0060
1223.164, 714.9785
1223.646, 707.0074
1224.129, 709.5162
1224.611, 712.3284
1225.093, 699.6218
1225.575, 685.4180
1226.057, 687.4324
1226.539, 697.9633
1227.021, 703.8050
1227.503, 704.1998
1227.985, 704.4584
1228.468, 705.0637
1228.950, 707.3521
1229.432, 714.1587
1229.914, 717.8441
1230.396, 717.0985
1230.878, 713.4836
1231.360, 707.2330
1231.842, 699.3066
1232.324, 689.9540
1232.807, 681.3107
1233.289, 679.7697
1233.771, 683.9930
1234.253, 690.4457
1234.735, 696.2619
1235.217, 687.3168
1235.699, 666.5059
1236.181, 654.6888
1236.664, 658.6840
1237.146, 664.5567
1237.628, 666.0618
1238.110, 662.0377
1238.592, 643.5391
1239.074, 628.9307
1239.556, 634.0961
1240.038, 645.7510
1240.521, 649.3647
1241.003, 649.1708
1241.485, 657.7274
1241.967, 675.1346
1242.449, 686.6110
1242.931, 691.9261
1243.413, 691.3120
1243.895, 683.8480
1244.377, 679.5648
1244.859, 681.3754
1245.342, 687.5908
1245.824, 697.4420
1246.306, 707.2586
1246.788, 712.9043
1247.270, 714.9827
1247.752, 713.1414
1248.234, 709.1951
1248.716, 704.4886
1249.199, 700.4078
1249.681, 699.8709
1250.163, 702.2117
1250.645, 702.1729
1251.127, 697.0936
1251.609, 695.2341
1252.091, 697.0632
1252.573, 704.6003
1253.056, 725.3588
1253.538, 737.1208
1254.020, 726.7605
1254.502, 711.5602
1254.984, 709.4604
1255.466, 714.6800
1255.948, 711.6796
1256.430, 703.5701
1256.912, 707.1025
1257.395, 718.3296
1257.877, 723.1250
1258.359, 721.4387
1258.841, 720.3347
##END=



