##NAMES=Overite
##RRUFFID=R100024
##IDEAL CHEMISTRY=CaMgAl(PO_4_)_2_(OH)&#183;4H_2_O
##LOCALITY=Clay Canyon deposit, near Fairfield, Utah County, Utah, USA
##OWNER=RRUFF
##SOURCE=Terry Szenics
##DESCRIPTION=Light apple-green lathlike crystals
##STATUS=The identification of this mineral has been confirmed by single-crystal X-ray diffraction.
##URL=rruff.info/R100024
164.7382, 1237.583
165.2203, 1244.208
165.7024, 1249.850
166.1845, 1254.745
166.6666, 1258.865
167.1487, 1262.632
167.6309, 1266.586
168.1130, 1270.433
168.5951, 1273.477
169.0772, 1274.138
169.5593, 1274.568
170.0414, 1276.602
170.5236, 1280.740
171.0057, 1286.017
171.4878, 1293.770
171.9699, 1302.633
172.4520, 1308.269
172.9341, 1305.725
173.4163, 1299.636
173.8984, 1295.288
174.3805, 1293.706
174.8626, 1294.247
175.3447, 1297.156
175.8268, 1301.976
176.3090, 1306.658
176.7911, 1309.067
177.2732, 1310.508
177.7553, 1313.147
178.2374, 1317.946
178.7195, 1323.684
179.2017, 1329.379
179.6838, 1334.978
180.1659, 1339.432
180.6480, 1341.087
181.1301, 1341.002
181.6122, 1341.747
182.0944, 1344.468
182.5765, 1348.095
183.0586, 1351.274
183.5407, 1353.953
184.0228, 1355.579
184.5049, 1354.761
184.9871, 1352.214
185.4692, 1350.577
185.9513, 1351.150
186.4334, 1352.976
186.9155, 1353.957
187.3976, 1354.076
187.8798, 1353.507
188.3619, 1351.842
188.8440, 1349.335
189.3261, 1347.762
189.8082, 1348.135
190.2903, 1349.881
190.7725, 1350.913
191.2546, 1351.173
191.7367, 1351.106
192.2188, 1351.241
192.7009, 1351.559
193.1830, 1351.711
193.6652, 1351.204
194.1473, 1350.285
194.6294, 1350.684
195.1115, 1352.562
195.5936, 1355.190
196.0757, 1358.068
196.5579, 1361.245
197.0400, 1363.356
197.5221, 1363.493
198.0042, 1361.808
198.4863, 1360.403
198.9684, 1359.204
199.4506, 1358.489
199.9327, 1358.944
200.4148, 1360.716
200.8969, 1362.311
201.3790, 1363.041
201.8611, 1362.862
202.3433, 1362.751
202.8254, 1362.615
203.3075, 1362.651
203.7896, 1363.377
204.2717, 1364.972
204.7538, 1366.256
205.2360, 1366.177
205.7181, 1364.336
206.2002, 1364.990
206.6823, 1369.037
207.1644, 1374.479
207.6465, 1377.322
208.1287, 1376.789
208.6108, 1376.350
209.0929, 1377.763
209.5750, 1381.541
210.0571, 1384.421
210.5392, 1385.985
211.0214, 1387.099
211.5035, 1389.523
211.9856, 1393.389
212.4677, 1398.192
212.9498, 1404.160
213.4319, 1411.906
213.9140, 1417.920
214.3962, 1421.588
214.8783, 1423.899
215.3604, 1427.005
215.8425, 1431.000
216.3246, 1435.568
216.8067, 1440.771
217.2889, 1446.881
217.7710, 1452.379
218.2531, 1457.013
218.7352, 1461.084
219.2173, 1465.436
219.6994, 1470.147
220.1816, 1474.981
220.6637, 1479.973
221.1458, 1485.321
221.6279, 1490.232
222.1100, 1494.365
222.5921, 1498.231
223.0743, 1503.549
223.5564, 1511.413
224.0385, 1518.830
224.5206, 1524.038
225.0027, 1525.900
225.4848, 1528.961
225.9670, 1533.711
226.4491, 1539.552
226.9312, 1545.139
227.4133, 1550.814
227.8954, 1555.619
228.3775, 1558.634
228.8597, 1558.276
229.3418, 1560.186
229.8239, 1565.395
230.3060, 1572.590
230.7881, 1577.967
231.2702, 1580.740
231.7524, 1582.872
232.2345, 1585.395
232.7166, 1589.411
233.1987, 1591.156
233.6808, 1589.774
234.1629, 1586.345
234.6451, 1583.811
235.1272, 1583.144
235.6093, 1582.025
236.0914, 1579.427
236.5735, 1574.932
237.0556, 1570.048
237.5378, 1564.753
238.0199, 1559.149
238.5020, 1553.431
238.9841, 1547.367
239.4662, 1541.489
239.9483, 1535.974
240.4305, 1530.870
240.9126, 1526.140
241.3947, 1521.897
241.8768, 1517.957
242.3589, 1513.758
242.8410, 1508.557
243.3232, 1504.171
243.8053, 1501.806
244.2874, 1503.462
244.7695, 1501.980
245.2516, 1495.575
245.7337, 1486.721
246.2159, 1481.119
246.6980, 1480.531
247.1801, 1480.443
247.6622, 1479.041
248.1443, 1475.648
248.6264, 1472.870
249.1086, 1470.718
249.5907, 1469.176
250.0728, 1468.388
250.5549, 1469.179
251.0370, 1469.311
251.5191, 1467.497
252.0013, 1462.474
252.4834, 1459.870
252.9655, 1460.728
253.4476, 1463.358
253.9297, 1464.666
254.4118, 1464.155
254.8940, 1463.170
255.3761, 1462.000
255.8582, 1460.387
256.3403, 1459.713
256.8224, 1460.434
257.3046, 1461.759
257.7867, 1462.244
258.2688, 1461.320
258.7509, 1460.847
259.2330, 1461.772
259.7151, 1464.607
260.1973, 1465.796
260.6794, 1464.451
261.1615, 1462.350
261.6436, 1462.295
262.1257, 1465.220
262.6078, 1467.890
263.0900, 1469.012
263.5721, 1468.295
264.0542, 1469.041
264.5363, 1471.796
265.0184, 1475.328
265.5005, 1478.218
265.9827, 1480.363
266.4648, 1482.016
266.9469, 1483.111
267.4290, 1483.616
267.9111, 1484.267
268.3932, 1485.186
268.8754, 1486.033
269.3575, 1486.412
269.8396, 1486.260
270.3217, 1485.890
270.8038, 1485.302
271.2859, 1484.520
271.7681, 1483.910
272.2502, 1483.328
272.7323, 1483.232
273.2144, 1484.460
273.6965, 1487.430
274.1786, 1489.457
274.6608, 1489.728
275.1429, 1488.518
275.6250, 1487.736
276.1071, 1487.375
276.5892, 1487.480
277.0714, 1488.221
277.5535, 1489.676
278.0356, 1491.086
278.5177, 1492.173
278.9998, 1493.155
279.4819, 1495.029
279.9641, 1497.986
280.4462, 1501.185
280.9283, 1503.886
281.4104, 1506.045
281.8925, 1508.617
282.3746, 1511.775
282.8568, 1515.420
283.3389, 1519.106
283.8210, 1522.731
284.3031, 1527.093
284.7852, 1533.100
285.2673, 1540.585
285.7495, 1547.851
286.2316, 1554.750
286.7137, 1561.169
287.1958, 1566.363
287.6779, 1570.247
288.1600, 1574.883
288.6422, 1582.482
289.1243, 1592.485
289.6064, 1600.291
290.0885, 1605.376
290.5706, 1608.822
291.0527, 1612.363
291.5349, 1615.956
292.0170, 1618.807
292.4991, 1619.912
292.9812, 1619.852
293.4633, 1620.880
293.9454, 1623.368
294.4276, 1625.960
294.9097, 1626.846
295.3918, 1626.219
295.8739, 1625.027
296.3560, 1623.038
296.8381, 1620.863
297.3203, 1620.145
297.8024, 1620.986
298.2845, 1622.462
298.7666, 1624.859
299.2487, 1627.321
299.7308, 1627.291
300.2130, 1621.850
300.6951, 1613.960
301.1772, 1608.297
301.6593, 1604.883
302.1414, 1602.569
302.6235, 1600.955
303.1057, 1599.743
303.5878, 1598.373
304.0699, 1596.815
304.5520, 1594.892
305.0341, 1592.159
305.5162, 1588.725
305.9984, 1585.360
306.4805, 1582.559
306.9626, 1580.196
307.4447, 1578.153
307.9268, 1576.388
308.4089, 1574.860
308.8911, 1573.680
309.3732, 1572.737
309.8553, 1571.622
310.3374, 1569.708
310.8195, 1567.660
311.3016, 1566.184
311.7838, 1565.539
312.2659, 1565.261
312.7480, 1565.516
313.2301, 1565.982
313.7122, 1565.846
314.1943, 1564.830
314.6765, 1563.043
315.1586, 1560.089
315.6407, 1555.223
316.1228, 1551.722
316.6049, 1552.571
317.0870, 1555.660
317.5692, 1557.501
318.0513, 1556.638
318.5334, 1554.390
319.0155, 1550.646
319.4976, 1544.925
319.9797, 1540.870
320.4619, 1540.689
320.9440, 1542.401
321.4261, 1543.786
321.9082, 1544.543
322.3903, 1544.652
322.8724, 1543.661
323.3546, 1541.543
323.8367, 1540.288
324.3188, 1541.207
324.8009, 1542.661
325.2830, 1543.396
325.7651, 1541.658
326.2473, 1541.046
326.7294, 1542.721
327.2115, 1546.371
327.6936, 1549.344
328.1757, 1551.534
328.6578, 1552.984
329.1400, 1553.703
329.6221, 1553.014
330.1042, 1552.478
330.5863, 1551.926
331.0684, 1551.504
331.5505, 1551.715
332.0327, 1553.081
332.5148, 1554.406
332.9969, 1555.121
333.4790, 1554.702
333.9611, 1555.098
334.4432, 1557.040
334.9254, 1559.357
335.4075, 1559.832
335.8896, 1557.302
336.3717, 1555.342
336.8538, 1555.542
337.3359, 1558.308
337.8180, 1558.480
338.3001, 1554.572
338.7823, 1550.376
339.2644, 1551.012
339.7465, 1557.972
340.2286, 1563.188
340.7107, 1564.252
341.1928, 1561.829
341.6750, 1560.272
342.1571, 1559.435
342.6392, 1559.826
343.1213, 1562.342
343.6034, 1566.984
344.0855, 1571.246
344.5677, 1574.644
345.0498, 1577.427
345.5319, 1579.870
346.0140, 1581.944
346.4961, 1584.451
346.9782, 1588.635
347.4604, 1593.964
347.9425, 1597.175
348.4246, 1597.475
348.9067, 1597.272
349.3888, 1600.774
349.8709, 1607.288
350.3531, 1612.886
350.8352, 1615.625
351.3173, 1616.117
351.7994, 1614.528
352.2815, 1610.604
352.7636, 1607.910
353.2458, 1611.214
353.7279, 1618.300
354.2100, 1624.379
354.6921, 1627.047
355.1742, 1628.193
355.6563, 1629.735
356.1385, 1631.601
356.6206, 1633.217
357.1027, 1633.965
357.5848, 1634.309
358.0669, 1634.814
358.5490, 1635.724
359.0312, 1636.660
359.5133, 1637.860
359.9954, 1638.980
360.4775, 1639.001
360.9596, 1637.264
361.4417, 1634.355
361.9239, 1630.325
362.4060, 1624.522
362.8881, 1619.546
363.3702, 1617.545
363.8523, 1616.762
364.3344, 1614.510
364.8166, 1608.067
365.2987, 1601.757
365.7808, 1597.763
366.2629, 1596.539
366.7450, 1594.276
367.2271, 1589.099
367.7093, 1583.290
368.1914, 1578.859
368.6735, 1576.679
369.1556, 1575.133
369.6377, 1574.391
370.1198, 1574.320
370.6020, 1573.817
371.0841, 1572.854
371.5662, 1571.479
372.0483, 1569.647
372.5304, 1566.674
373.0125, 1564.544
373.4947, 1563.814
373.9768, 1563.777
374.4589, 1562.518
374.9410, 1558.997
375.4231, 1556.397
375.9052, 1556.249
376.3874, 1558.982
376.8695, 1560.687
377.3516, 1560.995
377.8337, 1560.942
378.3158, 1561.951
378.7979, 1564.192
379.2801, 1566.350
379.7622, 1568.273
380.2443, 1569.819
380.7264, 1570.137
381.2085, 1569.054
381.6906, 1567.889
382.1728, 1567.736
382.6549, 1568.482
383.1370, 1569.450
383.6191, 1570.493
384.1012, 1571.758
384.5833, 1573.936
385.0655, 1576.839
385.5476, 1579.085
386.0297, 1579.645
386.5118, 1579.104
386.9939, 1578.316
387.4760, 1577.264
387.9582, 1576.611
388.4403, 1576.964
388.9224, 1578.184
389.4045, 1579.956
389.8866, 1583.727
390.3687, 1586.920
390.8509, 1586.148
391.3330, 1581.840
391.8151, 1578.849
392.2972, 1581.761
392.7793, 1586.603
393.2614, 1589.498
393.7436, 1588.214
394.2257, 1586.540
394.7078, 1585.763
395.1899, 1585.784
395.6720, 1586.338
396.1541, 1587.540
396.6363, 1589.121
397.1184, 1591.264
397.6005, 1594.638
398.0826, 1596.545
398.5647, 1594.847
399.0468, 1592.068
399.5290, 1591.265
400.0111, 1595.275
400.4932, 1598.435
400.9753, 1599.379
401.4574, 1598.115
401.9395, 1597.661
402.4217, 1597.996
402.9038, 1599.121
403.3859, 1601.126
403.8680, 1604.397
404.3501, 1607.655
404.8322, 1610.969
405.3144, 1614.115
405.7965, 1616.399
406.2786, 1617.734
406.7607, 1618.528
407.2428, 1618.755
407.7249, 1618.382
408.2071, 1618.340
408.6892, 1618.483
409.1713, 1619.350
409.6534, 1622.082
410.1355, 1626.563
410.6176, 1630.647
411.0998, 1633.703
411.5819, 1635.995
412.0640, 1638.059
412.5461, 1639.884
413.0282, 1641.617
413.5103, 1643.117
413.9925, 1644.610
414.4746, 1646.635
414.9567, 1649.365
415.4388, 1652.403
415.9209, 1655.424
416.4030, 1658.445
416.8852, 1661.601
417.3673, 1665.501
417.8494, 1669.159
418.3315, 1671.456
418.8136, 1672.288
419.2957, 1673.420
419.7779, 1676.143
420.2600, 1679.520
420.7421, 1682.568
421.2242, 1685.264
421.7063, 1687.371
422.1884, 1688.445
422.6706, 1688.806
423.1527, 1689.678
423.6348, 1691.879
424.1169, 1694.238
424.5990, 1696.282
425.0811, 1697.964
425.5633, 1699.352
426.0454, 1700.308
426.5275, 1701.047
427.0096, 1701.802
427.4917, 1702.142
427.9738, 1703.177
428.4560, 1705.322
428.9381, 1708.531
429.4202, 1711.582
429.9023, 1714.823
430.3844, 1717.180
430.8665, 1717.465
431.3487, 1715.219
431.8308, 1713.663
432.3129, 1713.197
432.7950, 1713.351
433.2771, 1712.943
433.7592, 1711.908
434.2414, 1711.674
434.7235, 1713.396
435.2056, 1716.507
435.6877, 1718.926
436.1698, 1720.652
436.6519, 1721.510
437.1341, 1720.938
437.6162, 1719.326
438.0983, 1717.603
438.5804, 1715.742
439.0625, 1714.300
439.5446, 1714.213
440.0268, 1715.195
440.5089, 1716.178
440.9910, 1717.324
441.4731, 1717.764
441.9552, 1716.355
442.4373, 1712.622
442.9195, 1709.173
443.4016, 1707.365
443.8837, 1706.590
444.3658, 1706.107
444.8479, 1705.517
445.3300, 1705.376
445.8122, 1706.146
446.2943, 1707.687
446.7764, 1708.828
447.2585, 1709.237
447.7406, 1709.316
448.2227, 1709.225
448.7049, 1708.740
449.1870, 1708.551
449.6691, 1709.070
450.1512, 1709.677
450.6333, 1709.096
451.1154, 1705.976
451.5976, 1704.594
452.0797, 1706.489
452.5618, 1711.411
453.0439, 1715.981
453.5260, 1720.342
454.0081, 1723.650
454.4903, 1724.488
454.9724, 1722.905
455.4545, 1722.748
455.9366, 1724.523
456.4187, 1727.823
456.9008, 1732.811
457.3830, 1739.211
457.8651, 1744.370
458.3472, 1745.800
458.8293, 1745.629
459.3114, 1748.034
459.7935, 1753.011
460.2757, 1758.370
460.7578, 1762.548
461.2399, 1765.912
461.7220, 1768.978
462.2041, 1772.039
462.6862, 1774.601
463.1684, 1775.845
463.6505, 1776.329
464.1326, 1777.325
464.6147, 1779.474
465.0968, 1782.143
465.5789, 1785.267
466.0611, 1788.990
466.5432, 1791.830
467.0253, 1792.816
467.5074, 1793.109
467.9895, 1793.683
468.4716, 1795.758
468.9538, 1796.563
469.4359, 1794.977
469.9180, 1792.032
470.4001, 1791.102
470.8822, 1792.968
471.3643, 1795.576
471.8465, 1798.607
472.3286, 1802.334
472.8107, 1803.410
473.2928, 1801.037
473.7749, 1798.042
474.2570, 1797.806
474.7392, 1800.318
475.2213, 1802.760
475.7034, 1804.454
476.1855, 1805.816
476.6676, 1808.044
477.1497, 1810.982
477.6319, 1813.127
478.1140, 1812.906
478.5961, 1811.514
479.0782, 1810.898
479.5603, 1811.191
480.0424, 1811.958
480.5246, 1812.400
481.0067, 1813.207
481.4888, 1815.446
481.9709, 1821.509
482.4530, 1826.723
482.9352, 1827.030
483.4173, 1824.235
483.8994, 1824.047
484.3815, 1831.062
484.8636, 1838.947
485.3457, 1844.683
485.8279, 1847.620
486.3100, 1850.112
486.7921, 1851.879
487.2742, 1853.546
487.7563, 1855.718
488.2384, 1858.913
488.7206, 1861.766
489.2027, 1864.141
489.6848, 1866.077
490.1669, 1867.667
490.6490, 1868.912
491.1311, 1869.820
491.6133, 1870.703
492.0954, 1871.555
492.5775, 1870.484
493.0596, 1867.294
493.5417, 1863.054
494.0238, 1858.729
494.5060, 1854.309
494.9881, 1849.950
495.4702, 1846.164
495.9523, 1841.758
496.4344, 1833.972
496.9165, 1823.808
497.3987, 1815.071
497.8808, 1811.483
498.3629, 1809.268
498.8450, 1804.344
499.3271, 1796.213
499.8092, 1788.757
500.2914, 1784.884
500.7735, 1782.200
501.2556, 1778.285
501.7377, 1770.487
502.2198, 1763.927
502.7019, 1760.367
503.1841, 1758.855
503.6662, 1756.766
504.1483, 1753.872
504.6304, 1750.336
505.1125, 1745.749
505.5946, 1739.874
506.0768, 1736.301
506.5589, 1736.357
507.0410, 1736.834
507.5231, 1734.993
508.0052, 1730.502
508.4873, 1725.835
508.9695, 1720.919
509.4516, 1716.631
509.9337, 1715.185
510.4158, 1716.432
510.8979, 1717.568
511.3800, 1717.195
511.8622, 1715.910
512.3443, 1714.801
512.8264, 1713.891
513.3085, 1713.633
513.7906, 1715.189
514.2728, 1717.295
514.7549, 1718.460
515.2370, 1718.582
515.7191, 1717.183
516.2012, 1712.143
516.6833, 1705.799
517.1655, 1701.651
517.6476, 1702.065
518.1297, 1703.659
518.6118, 1705.961
519.0939, 1708.791
519.5760, 1710.534
520.0582, 1710.348
520.5403, 1709.570
521.0224, 1708.645
521.5045, 1707.312
521.9866, 1706.603
522.4688, 1706.807
522.9509, 1707.293
523.4330, 1707.059
523.9151, 1705.788
524.3972, 1705.619
524.8793, 1707.409
525.3615, 1710.232
525.8436, 1711.632
526.3257, 1711.626
526.8078, 1711.342
527.2899, 1711.501
527.7720, 1711.857
528.2542, 1711.651
528.7363, 1710.833
529.2184, 1710.339
529.7005, 1711.104
530.1826, 1712.643
530.6647, 1714.388
531.1469, 1716.605
531.6290, 1718.266
532.1111, 1718.061
532.5932, 1716.912
533.0753, 1716.705
533.5574, 1718.617
534.0396, 1720.928
534.5217, 1723.034
535.0038, 1724.851
535.4859, 1727.090
535.9680, 1730.818
536.4501, 1733.887
536.9323, 1734.745
537.4144, 1731.905
537.8965, 1731.247
538.3786, 1733.714
538.8607, 1737.262
539.3428, 1738.588
539.8250, 1737.532
540.3071, 1736.745
540.7892, 1737.095
541.2713, 1738.142
541.7534, 1738.618
542.2355, 1738.624
542.7177, 1739.138
543.1998, 1741.101
543.6819, 1743.875
544.1640, 1746.750
544.6461, 1749.721
545.1282, 1751.879
545.6104, 1752.161
546.0925, 1751.411
546.5746, 1750.461
547.0567, 1748.150
547.5388, 1747.581
548.0209, 1751.570
548.5031, 1757.951
548.9852, 1762.050
549.4673, 1760.964
549.9494, 1759.842
550.4315, 1760.267
550.9136, 1762.229
551.3958, 1762.623
551.8779, 1760.617
552.3600, 1758.454
552.8421, 1757.646
553.3242, 1758.365
553.8063, 1758.827
554.2885, 1758.930
554.7706, 1758.849
555.2527, 1758.463
555.7348, 1757.943
556.2169, 1758.441
556.6990, 1760.691
557.1812, 1763.612
557.6633, 1766.038
558.1454, 1767.903
558.6275, 1768.953
559.1096, 1767.637
559.5917, 1766.411
560.0739, 1767.818
560.5560, 1772.081
561.0381, 1775.691
561.5202, 1775.870
562.0023, 1775.641
562.4844, 1777.306
562.9666, 1783.358
563.4487, 1788.011
563.9308, 1789.880
564.4129, 1790.638
564.8950, 1792.863
565.3771, 1797.098
565.8593, 1801.489
566.3414, 1805.658
566.8235, 1809.623
567.3056, 1813.605
567.7877, 1817.533
568.2698, 1821.752
568.7520, 1826.903
569.2341, 1832.560
569.7162, 1837.230
570.1983, 1840.803
570.6804, 1843.926
571.1625, 1846.775
571.6447, 1849.657
572.1268, 1853.052
572.6089, 1857.175
573.0910, 1861.725
573.5731, 1867.388
574.0552, 1873.250
574.5374, 1877.830
575.0195, 1878.510
575.5016, 1879.970
575.9837, 1884.509
576.4658, 1891.806
576.9479, 1897.514
577.4301, 1900.402
577.9122, 1902.994
578.3943, 1906.342
578.8764, 1910.505
579.3585, 1915.293
579.8406, 1921.214
580.3228, 1926.621
580.8049, 1929.250
581.2870, 1929.272
581.7691, 1930.210
582.2512, 1932.864
582.7333, 1936.085
583.2155, 1938.495
583.6975, 1940.046
584.1796, 1940.754
584.6617, 1939.843
585.1439, 1938.586
585.6260, 1937.788
586.1081, 1937.528
586.5902, 1938.236
587.0723, 1941.919
587.5544, 1945.205
588.0366, 1945.779
588.5187, 1942.522
589.0008, 1940.450
589.4829, 1941.818
589.9650, 1943.502
590.4471, 1943.109
590.9293, 1939.648
591.4114, 1936.487
591.8935, 1934.053
592.3756, 1931.792
592.8577, 1928.638
593.3398, 1924.587
593.8220, 1920.388
594.3041, 1916.727
594.7862, 1912.742
595.2683, 1905.666
595.7504, 1895.978
596.2325, 1886.723
596.7147, 1880.701
597.1968, 1875.721
597.6789, 1868.759
598.1610, 1859.569
598.6431, 1851.119
599.1252, 1845.391
599.6074, 1841.039
600.0895, 1836.951
600.5716, 1832.994
601.0537, 1829.193
601.5358, 1825.275
602.0179, 1821.665
602.5001, 1819.098
602.9822, 1818.637
603.4643, 1816.994
603.9464, 1812.993
604.4285, 1807.644
604.9106, 1804.247
605.3928, 1802.953
605.8749, 1802.271
606.3570, 1801.573
606.8391, 1800.896
607.3212, 1800.323
607.8033, 1799.854
608.2855, 1799.668
608.7676, 1800.014
609.2497, 1800.681
609.7318, 1801.466
610.2139, 1802.405
610.6960, 1803.159
611.1782, 1803.285
611.6603, 1803.246
612.1424, 1803.543
612.6245, 1805.156
613.1066, 1806.063
613.5887, 1805.486
614.0709, 1804.152
614.5530, 1803.413
615.0351, 1803.159
615.5172, 1803.837
615.9993, 1805.943
616.4814, 1809.099
616.9636, 1811.284
617.4457, 1812.471
617.9278, 1813.121
618.4099, 1813.037
618.8920, 1812.678
619.3741, 1813.515
619.8563, 1815.626
620.3384, 1817.755
620.8205, 1818.534
621.3026, 1818.875
621.7847, 1819.957
622.2668, 1822.328
622.7490, 1824.633
623.2311, 1826.279
623.7132, 1827.523
624.1953, 1828.698
624.6774, 1830.288
625.1595, 1831.241
625.6417, 1830.987
626.1238, 1830.097
626.6059, 1830.455
627.0880, 1832.865
627.5701, 1834.044
628.0522, 1832.014
628.5344, 1827.836
629.0165, 1827.391
629.4986, 1830.769
629.9807, 1834.195
630.4628, 1834.550
630.9449, 1833.205
631.4271, 1832.606
631.9092, 1832.930
632.3913, 1833.853
632.8734, 1836.038
633.3555, 1838.237
633.8376, 1839.074
634.3198, 1837.434
634.8019, 1835.973
635.2840, 1835.637
635.7661, 1835.763
636.2482, 1835.428
636.7303, 1834.568
637.2125, 1833.286
637.6946, 1831.433
638.1767, 1829.243
638.6588, 1827.357
639.1409, 1825.801
639.6230, 1824.435
640.1052, 1823.601
640.5873, 1822.802
641.0694, 1820.170
641.5515, 1815.867
642.0336, 1811.668
642.5157, 1808.098
642.9979, 1805.695
643.4800, 1805.923
643.9621, 1809.056
644.4442, 1811.077
644.9263, 1808.932
645.4084, 1805.494
645.8906, 1802.972
646.3727, 1801.368
646.8548, 1801.357
647.3369, 1804.242
647.8190, 1807.719
648.3011, 1808.832
648.7833, 1806.682
649.2654, 1804.972
649.7475, 1804.154
650.2296, 1804.112
650.7117, 1804.941
651.1938, 1806.538
651.6760, 1807.748
652.1581, 1808.268
652.6402, 1808.016
653.1223, 1806.356
653.6044, 1803.682
654.0865, 1801.495
654.5687, 1800.606
655.0508, 1800.583
655.5329, 1801.528
656.0150, 1803.489
656.4971, 1804.831
656.9792, 1804.643
657.4614, 1804.180
657.9435, 1804.111
658.4256, 1804.544
658.9077, 1804.945
659.3898, 1805.263
659.8719, 1805.605
660.3541, 1806.273
660.8362, 1807.228
661.3183, 1807.366
661.8004, 1806.343
662.2825, 1805.024
662.7646, 1804.605
663.2468, 1804.793
663.7289, 1804.899
664.2110, 1804.944
664.6931, 1804.521
665.1752, 1802.840
665.6573, 1800.508
666.1395, 1798.896
666.6216, 1798.621
667.1037, 1798.949
667.5858, 1799.788
668.0679, 1801.092
668.5500, 1802.626
669.0322, 1804.558
669.5143, 1806.409
669.9964, 1808.053
670.4785, 1809.459
670.9606, 1810.256
671.4427, 1810.392
671.9249, 1810.243
672.4070, 1809.864
672.8891, 1809.449
673.3712, 1809.703
673.8533, 1810.795
674.3354, 1811.263
674.8176, 1808.405
675.2997, 1805.174
675.7818, 1804.949
676.2639, 1810.678
676.7460, 1815.304
677.2281, 1816.937
677.7103, 1816.703
678.1924, 1815.771
678.6745, 1813.344
679.1566, 1812.072
679.6387, 1812.553
680.1208, 1814.138
680.6030, 1815.407
681.0851, 1816.334
681.5672, 1817.730
682.0493, 1820.425
682.5314, 1823.197
683.0135, 1823.603
683.4957, 1822.084
683.9778, 1820.416
684.4599, 1819.305
684.9420, 1818.572
685.4241, 1818.241
685.9063, 1818.262
686.3884, 1818.081
686.8705, 1816.535
687.3526, 1815.762
687.8347, 1817.232
688.3168, 1821.636
688.7990, 1823.236
689.2811, 1821.024
689.7632, 1818.386
690.2453, 1818.179
690.7274, 1820.191
691.2095, 1821.489
691.6917, 1821.765
692.1738, 1822.172
692.6559, 1824.759
693.1380, 1828.066
693.6201, 1829.370
694.1022, 1827.357
694.5844, 1825.135
695.0665, 1824.350
695.5486, 1824.425
696.0307, 1824.635
696.5128, 1823.864
696.9949, 1824.532
697.4771, 1827.870
697.9592, 1832.319
698.4413, 1834.517
698.9234, 1833.841
699.4055, 1833.550
699.8876, 1834.873
700.3698, 1836.795
700.8519, 1836.346
701.3340, 1833.881
701.8161, 1831.676
702.2982, 1831.075
702.7803, 1831.272
703.2625, 1831.484
703.7446, 1831.746
704.2267, 1832.203
704.7088, 1832.864
705.1909, 1833.809
705.6730, 1835.305
706.1552, 1837.446
706.6373, 1838.813
707.1194, 1839.099
707.6015, 1838.999
708.0836, 1838.670
708.5657, 1838.039
709.0479, 1838.203
709.5300, 1839.174
710.0121, 1840.626
710.4942, 1842.382
710.9763, 1844.335
711.4584, 1846.640
711.9406, 1849.461
712.4227, 1851.172
712.9048, 1849.398
713.3869, 1846.486
713.8690, 1845.025
714.3511, 1847.048
714.8333, 1847.981
715.3154, 1845.898
715.7975, 1842.967
716.2796, 1841.539
716.7617, 1842.295
717.2438, 1842.781
717.7260, 1842.717
718.2081, 1842.343
718.6902, 1841.993
719.1723, 1841.680
719.6544, 1841.446
720.1365, 1841.342
720.6187, 1841.248
721.1008, 1840.547
721.5829, 1839.727
722.0650, 1839.946
722.5471, 1842.457
723.0292, 1845.295
723.5114, 1848.019
723.9935, 1850.384
724.4756, 1851.493
724.9577, 1850.568
725.4398, 1849.517
725.9219, 1848.763
726.4041, 1848.330
726.8862, 1848.395
727.3683, 1848.992
727.8504, 1849.886
728.3325, 1851.452
728.8146, 1853.109
729.2968, 1853.534
729.7789, 1852.803
730.2610, 1851.566
730.7431, 1849.308
731.2252, 1847.406
731.7073, 1847.203
732.1895, 1848.976
732.6716, 1850.108
733.1537, 1849.198
733.6358, 1848.335
734.1179, 1848.664
734.6000, 1850.495
735.0822, 1851.484
735.5643, 1851.438
736.0464, 1851.156
736.5285, 1851.666
737.0106, 1852.584
737.4927, 1852.229
737.9749, 1850.334
738.4570, 1848.331
738.9391, 1847.233
739.4212, 1846.906
739.9033, 1847.451
740.3854, 1849.726
740.8676, 1850.888
741.3497, 1848.859
741.8318, 1846.093
742.3139, 1845.153
742.7960, 1846.960
743.2781, 1848.199
743.7603, 1848.334
744.2424, 1848.320
744.7245, 1849.768
745.2066, 1852.443
745.6887, 1854.720
746.1708, 1856.178
746.6530, 1857.101
747.1351, 1857.746
747.6172, 1858.085
748.0993, 1858.089
748.5814, 1857.884
749.0635, 1857.169
749.5457, 1855.158
750.0278, 1852.684
750.5099, 1851.557
750.9920, 1852.348
751.4741, 1853.595
751.9562, 1855.477
752.4384, 1857.372
752.9205, 1857.342
753.4026, 1855.454
753.8847, 1853.614
754.3668, 1852.507
754.8489, 1851.928
755.3311, 1851.783
755.8132, 1851.933
756.2953, 1851.966
756.7774, 1851.233
757.2595, 1850.775
757.7416, 1851.619
758.2238, 1853.353
758.7059, 1853.647
759.1880, 1851.186
759.6701, 1849.274
760.1522, 1849.146
760.6343, 1850.350
761.1165, 1849.771
761.5986, 1847.244
762.0807, 1846.573
762.5628, 1851.906
763.0449, 1859.538
763.5270, 1862.910
764.0092, 1862.544
764.4913, 1861.383
764.9734, 1860.349
765.4555, 1859.596
765.9376, 1859.363
766.4197, 1859.655
766.9019, 1859.726
767.3840, 1859.199
767.8661, 1858.971
768.3482, 1859.633
768.8303, 1861.131
769.3124, 1861.558
769.7946, 1860.796
770.2767, 1860.448
770.7588, 1862.400
771.2409, 1865.256
771.7230, 1866.445
772.2051, 1865.908
772.6873, 1864.897
773.1694, 1863.421
773.6515, 1862.264
774.1336, 1862.138
774.6157, 1863.350
775.0978, 1863.914
775.5800, 1863.250
776.0621, 1862.604
776.5442, 1862.795
777.0263, 1863.869
777.5084, 1864.531
777.9905, 1864.744
778.4727, 1864.922
778.9548, 1865.226
779.4369, 1865.810
779.9190, 1867.390
780.4011, 1870.111
780.8832, 1871.786
781.3654, 1869.996
781.8475, 1867.512
782.3296, 1866.539
782.8117, 1868.184
783.2938, 1868.695
783.7759, 1867.585
784.2581, 1866.075
784.7402, 1864.630
785.2223, 1863.254
785.7044, 1864.901
786.1865, 1870.083
786.6686, 1874.495
787.1508, 1872.314
787.6329, 1867.291
788.1150, 1865.373
788.5971, 1867.784
789.0792, 1870.886
789.5613, 1873.323
790.0435, 1875.420
790.5256, 1877.610
791.0077, 1880.605
791.4898, 1881.441
791.9719, 1878.889
792.4540, 1876.192
792.9362, 1877.220
793.4183, 1881.494
793.9004, 1882.655
794.3825, 1879.955
794.8646, 1876.717
795.3467, 1876.378
795.8289, 1877.362
796.3110, 1877.355
796.7931, 1875.598
797.2752, 1874.518
797.7573, 1874.542
798.2394, 1875.971
798.7216, 1879.343
799.2037, 1886.710
799.6858, 1890.254
800.1679, 1888.920
800.6500, 1886.123
801.1321, 1885.731
801.6143, 1886.969
802.0964, 1885.221
802.5785, 1879.542
803.0606, 1874.924
803.5427, 1877.531
804.0248, 1882.723
804.5070, 1885.158
804.9891, 1882.650
805.4712, 1881.102
805.9533, 1882.281
806.4354, 1884.531
806.9175, 1886.857
807.3997, 1889.439
807.8818, 1891.610
808.3639, 1893.555
808.8460, 1894.380
809.3281, 1892.146
809.8102, 1888.171
810.2924, 1886.029
810.7745, 1886.368
811.2566, 1886.959
811.7387, 1885.678
812.2208, 1884.266
812.7029, 1884.338
813.1851, 1886.656
813.6672, 1889.109
814.1493, 1891.987
814.6314, 1894.449
815.1135, 1895.635
815.5956, 1895.481
816.0778, 1895.630
816.5599, 1896.208
817.0420, 1896.560
817.5241, 1895.488
818.0062, 1894.001
818.4883, 1893.911
818.9705, 1895.656
819.4526, 1897.049
819.9347, 1895.825
820.4168, 1894.746
820.8989, 1896.570
821.3810, 1903.033
821.8632, 1904.803
822.3453, 1900.155
822.8274, 1894.602
823.3095, 1892.688
823.7916, 1893.830
824.2737, 1895.538
824.7559, 1897.722
825.2380, 1898.852
825.7201, 1895.962
826.2022, 1892.465
826.6843, 1892.266
827.1664, 1896.256
827.6486, 1899.228
828.1307, 1899.114
828.6128, 1898.518
829.0949, 1898.588
829.5770, 1899.348
830.0591, 1900.528
830.5413, 1902.193
831.0234, 1903.853
831.5055, 1905.570
831.9876, 1906.877
832.4697, 1906.376
832.9518, 1904.169
833.4340, 1902.428
833.9161, 1902.834
834.3982, 1903.756
834.8803, 1904.133
835.3624, 1903.832
835.8445, 1903.975
836.3267, 1904.865
836.8088, 1905.642
837.2909, 1906.081
837.7730, 1906.098
838.2551, 1904.619
838.7372, 1901.792
839.2194, 1899.698
839.7015, 1900.324
840.1836, 1901.902
840.6657, 1902.610
841.1478, 1902.621
841.6299, 1903.184
842.1121, 1905.764
842.5942, 1907.756
843.0763, 1907.815
843.5584, 1906.481
844.0405, 1907.027
844.5226, 1909.653
845.0048, 1912.578
845.4869, 1915.654
845.9690, 1917.966
846.4511, 1916.216
846.9332, 1911.891
847.4153, 1909.953
847.8975, 1915.630
848.3796, 1921.385
848.8617, 1923.275
849.3438, 1922.285
849.8259, 1922.105
850.3080, 1923.574
850.7902, 1924.285
851.2723, 1923.617
851.7544, 1922.064
852.2365, 1920.265
852.7186, 1918.415
853.2007, 1917.633
853.6829, 1918.784
854.1650, 1920.424
854.6471, 1921.008
855.1292, 1921.273
855.6113, 1922.466
856.0934, 1927.252
856.5756, 1929.712
857.0577, 1927.845
857.5398, 1924.474
858.0219, 1923.910
858.5040, 1926.333
858.9861, 1927.852
859.4683, 1927.549
859.9504, 1927.149
860.4325, 1929.364
860.9146, 1932.795
861.3967, 1935.044
861.8788, 1935.320
862.3610, 1934.909
862.8431, 1933.455
863.3252, 1932.057
863.8073, 1931.865
864.2894, 1933.658
864.7715, 1933.867
865.2537, 1931.738
865.7358, 1930.329
866.2179, 1935.213
866.7000, 1943.012
867.1821, 1943.113
867.6642, 1934.157
868.1464, 1925.876
868.6285, 1925.601
869.1106, 1927.873
869.5927, 1928.274
870.0748, 1925.632
870.5569, 1925.387
871.0391, 1928.587
871.5212, 1932.228
872.0033, 1934.560
872.4854, 1935.723
872.9675, 1936.918
873.4496, 1938.101
873.9318, 1938.755
874.4139, 1937.755
874.8960, 1936.614
875.3781, 1936.988
875.8602, 1938.657
876.3423, 1939.602
876.8245, 1938.573
877.3066, 1937.649
877.7887, 1937.417
878.2708, 1937.734
878.7529, 1938.062
879.2350, 1938.424
879.7172, 1938.565
880.1993, 1938.035
880.6814, 1937.671
881.1635, 1939.470
881.6456, 1942.266
882.1277, 1943.309
882.6099, 1938.363
883.0920, 1935.406
883.5741, 1938.450
884.0562, 1943.919
884.5383, 1946.097
885.0204, 1944.481
885.5026, 1942.601
885.9847, 1940.862
886.4668, 1939.674
886.9489, 1940.120
887.4310, 1941.434
887.9131, 1941.889
888.3953, 1940.488
888.8774, 1939.802
889.3595, 1942.049
889.8416, 1944.856
890.3237, 1945.710
890.8058, 1943.029
891.2880, 1943.295
891.7701, 1947.365
892.2522, 1951.683
892.7343, 1952.436
893.2164, 1950.986
893.6985, 1951.406
894.1807, 1953.977
894.6628, 1955.733
895.1449, 1953.399
895.6270, 1950.688
896.1091, 1950.426
896.5912, 1953.012
897.0734, 1954.115
897.5555, 1953.027
898.0376, 1952.099
898.5197, 1952.591
899.0018, 1954.061
899.4839, 1955.102
899.9661, 1955.714
900.4482, 1955.867
900.9303, 1954.649
901.4124, 1953.844
901.8945, 1955.143
902.3766, 1957.874
902.8588, 1959.782
903.3409, 1960.448
903.8230, 1960.708
904.3051, 1960.779
904.7872, 1960.466
905.2693, 1958.903
905.7515, 1956.406
906.2336, 1954.912
906.7157, 1955.081
907.1978, 1955.975
907.6799, 1957.351
908.1620, 1958.708
908.6442, 1959.402
909.1263, 1958.350
909.6084, 1958.438
910.0905, 1960.559
910.5726, 1962.697
911.0547, 1962.677
911.5369, 1960.765
912.0190, 1960.077
912.5011, 1960.845
912.9832, 1961.875
913.4653, 1961.927
913.9474, 1961.960
914.4296, 1962.757
914.9117, 1964.391
915.3938, 1967.071
915.8759, 1972.547
916.3580, 1976.538
916.8401, 1976.665
917.3223, 1973.794
917.8044, 1973.245
918.2865, 1974.874
918.7686, 1976.557
919.2507, 1977.153
919.7328, 1977.279
920.2150, 1977.739
920.6971, 1978.210
921.1792, 1977.898
921.6613, 1974.965
922.1434, 1973.542
922.6255, 1974.850
923.1077, 1977.373
923.5898, 1978.382
924.0719, 1977.973
924.5540, 1977.888
925.0361, 1978.504
925.5182, 1979.371
926.0004, 1980.144
926.4825, 1980.824
926.9646, 1981.319
927.4467, 1981.250
927.9288, 1982.045
928.4109, 1984.560
928.8931, 1987.020
929.3752, 1987.879
929.8573, 1987.187
930.3394, 1988.115
930.8215, 1990.670
931.3036, 1993.115
931.7858, 1994.400
932.2679, 1994.849
932.7500, 1994.398
933.2321, 1993.278
933.7142, 1992.822
934.1964, 1994.027
934.6785, 1995.036
935.1606, 1995.219
935.6427, 1994.995
936.1248, 1995.339
936.6069, 1996.296
937.0891, 1998.565
937.5712, 2003.008
938.0533, 2007.649
938.5354, 2010.866
939.0175, 2012.928
939.4996, 2014.160
939.9818, 2012.029
940.4639, 2013.333
940.9460, 2020.291
941.4281, 2027.862
941.9102, 2030.391
942.3923, 2028.448
942.8745, 2026.728
943.3566, 2025.498
943.8387, 2026.514
944.3208, 2032.125
944.8029, 2039.887
945.2850, 2048.781
945.7672, 2058.709
946.2493, 2065.342
946.7314, 2066.538
947.2135, 2068.007
947.6956, 2072.091
948.1777, 2078.068
948.6599, 2082.458
949.1420, 2085.828
949.6241, 2091.422
950.1062, 2102.868
950.5883, 2114.532
951.0704, 2120.542
951.5526, 2124.512
952.0347, 2133.529
952.5168, 2151.242
952.9989, 2167.399
953.4810, 2180.558
953.9631, 2193.344
954.4453, 2208.556
954.9274, 2226.129
955.4095, 2245.706
955.8916, 2267.003
956.3737, 2291.251
956.8558, 2320.103
957.3380, 2351.478
957.8201, 2383.480
958.3022, 2415.752
958.7843, 2454.156
959.2664, 2500.259
959.7485, 2548.052
960.2307, 2594.578
960.7128, 2640.727
961.1949, 2687.082
961.6770, 2734.546
962.1591, 2785.246
962.6412, 2842.500
963.1234, 2901.262
963.6055, 2956.489
964.0876, 3013.668
964.5697, 3083.365
965.0518, 3167.011
965.5339, 3254.153
966.0161, 3344.188
966.4982, 3436.407
966.9803, 3530.243
967.4624, 3626.262
967.9445, 3726.095
968.4266, 3832.520
968.9088, 3927.907
969.3909, 4012.020
969.8730, 4077.499
970.3551, 4125.081
970.8372, 4153.252
971.3193, 4146.403
971.8015, 4104.341
972.2836, 4032.801
972.7657, 3927.906
973.2478, 3802.214
973.7299, 3660.300
974.2120, 3508.941
974.6942, 3363.593
975.1763, 3225.600
975.6584, 3099.434
976.1405, 2983.063
976.6226, 2879.384
977.1047, 2793.864
977.5869, 2724.949
978.0690, 2663.431
978.5511, 2608.686
979.0332, 2560.147
979.5153, 2517.772
979.9974, 2480.714
980.4796, 2448.794
980.9617, 2422.620
981.4438, 2397.020
981.9259, 2370.244
982.4080, 2346.773
982.8901, 2329.221
983.3723, 2315.885
983.8544, 2301.601
984.3365, 2286.725
984.8186, 2272.755
985.3007, 2260.148
985.7828, 2248.896
986.2650, 2239.096
986.7471, 2230.531
987.2292, 2222.866
987.7113, 2216.626
988.1934, 2209.149
988.6755, 2199.980
989.1577, 2190.325
989.6398, 2181.595
990.1219, 2173.371
990.6040, 2165.061
991.0861, 2156.600
991.5682, 2148.055
992.0504, 2138.531
992.5325, 2130.009
993.0146, 2123.564
993.4967, 2118.937
993.9788, 2114.298
994.4609, 2109.675
994.9431, 2103.786
995.4252, 2094.675
995.9073, 2086.291
996.3894, 2084.373
996.8715, 2085.660
997.3536, 2084.738
997.8358, 2077.821
998.3179, 2072.154
998.8000, 2067.880
999.2821, 2064.902
999.7642, 2063.322
1000.246, 2062.930
1000.728, 2063.404
1001.211, 2064.583
1001.693, 2063.940
1002.175, 2056.628
1002.657, 2049.718
1003.139, 2048.807
1003.621, 2053.054
1004.103, 2054.988
1004.585, 2053.952
1005.068, 2053.100
1005.550, 2053.449
1006.032, 2054.134
1006.514, 2053.482
1006.996, 2052.197
1007.478, 2051.787
1007.960, 2053.243
1008.442, 2054.195
1008.924, 2053.496
1009.407, 2052.403
1009.889, 2051.620
1010.371, 2051.146
1010.853, 2051.099
1011.335, 2051.476
1011.817, 2052.369
1012.299, 2054.769
1012.781, 2056.934
1013.263, 2056.750
1013.746, 2054.922
1014.228, 2054.023
1014.710, 2054.738
1015.192, 2055.881
1015.674, 2057.503
1016.156, 2059.120
1016.638, 2059.897
1017.120, 2060.079
1017.603, 2060.298
1018.085, 2060.605
1018.567, 2061.441
1019.049, 2063.835
1019.531, 2066.170
1020.013, 2067.458
1020.495, 2067.701
1020.977, 2066.801
1021.459, 2064.632
1021.942, 2062.307
1022.424, 2059.970
1022.906, 2058.208
1023.388, 2059.128
1023.870, 2060.979
1024.352, 2060.326
1024.834, 2052.483
1025.316, 2047.392
1025.799, 2046.601
1026.281, 2047.787
1026.763, 2049.257
1027.245, 2050.770
1027.727, 2050.139
1028.209, 2047.365
1028.691, 2045.436
1029.173, 2048.310
1029.656, 2050.974
1030.138, 2049.313
1030.620, 2044.150
1031.102, 2040.393
1031.584, 2037.885
1032.066, 2037.578
1032.548, 2040.312
1033.030, 2043.759
1033.512, 2044.523
1033.995, 2043.531
1034.477, 2042.155
1034.959, 2040.353
1035.441, 2039.470
1035.923, 2040.809
1036.405, 2042.031
1036.887, 2041.708
1037.369, 2040.088
1037.851, 2039.501
1038.334, 2039.827
1038.816, 2039.665
1039.298, 2036.930
1039.780, 2034.801
1040.262, 2035.750
1040.744, 2038.768
1041.226, 2041.995
1041.708, 2046.304
1042.191, 2047.593
1042.673, 2044.831
1043.155, 2041.968
1043.637, 2043.758
1044.119, 2047.962
1044.601, 2050.517
1045.083, 2051.228
1045.565, 2052.720
1046.047, 2056.870
1046.530, 2060.857
1047.012, 2063.851
1047.494, 2065.999
1047.976, 2067.409
1048.458, 2068.234
1048.940, 2069.548
1049.422, 2071.655
1049.904, 2074.316
1050.386, 2078.175
1050.869, 2082.009
1051.351, 2084.129
1051.833, 2083.815
1052.315, 2086.354
1052.797, 2092.434
1053.279, 2098.207
1053.761, 2101.048
1054.243, 2102.479
1054.726, 2105.063
1055.208, 2108.428
1055.690, 2111.616
1056.172, 2114.359
1056.654, 2116.765
1057.136, 2118.773
1057.618, 2120.625
1058.100, 2122.737
1058.583, 2125.004
1059.065, 2126.484
1059.547, 2127.138
1060.029, 2128.087
1060.511, 2131.901
1060.993, 2134.569
1061.475, 2132.296
1061.957, 2126.554
1062.439, 2123.804
1062.922, 2124.563
1063.404, 2125.439
1063.886, 2126.089
1064.368, 2124.988
1064.850, 2117.900
1065.332, 2108.958
1065.814, 2104.427
1066.296, 2107.120
1066.778, 2106.622
1067.261, 2100.122
1067.743, 2093.809
1068.225, 2091.269
1068.707, 2091.074
1069.189, 2088.196
1069.671, 2083.474
1070.153, 2079.993
1070.635, 2081.130
1071.118, 2081.085
1071.600, 2076.182
1072.082, 2069.867
1072.564, 2065.469
1073.046, 2063.121
1073.528, 2061.353
1074.010, 2060.116
1074.492, 2059.779
1074.974, 2061.787
1075.457, 2063.838
1075.939, 2063.330
1076.421, 2060.968
1076.903, 2060.048
1077.385, 2061.623
1077.867, 2062.198
1078.349, 2061.035
1078.831, 2059.131
1079.313, 2057.409
1079.796, 2056.026
1080.278, 2055.488
1080.760, 2055.917
1081.242, 2055.911
1081.724, 2054.399
1082.206, 2053.062
1082.688, 2052.531
1083.170, 2052.588
1083.652, 2052.634
1084.135, 2052.662
1084.617, 2052.691
1085.099, 2052.917
1085.581, 2052.710
1086.063, 2051.511
1086.545, 2049.859
1087.027, 2048.035
1087.509, 2045.933
1087.992, 2045.584
1088.474, 2047.131
1088.956, 2048.606
1089.438, 2048.825
1089.920, 2048.356
1090.402, 2047.243
1090.884, 2045.962
1091.366, 2045.571
1091.849, 2046.552
1092.331, 2047.633
1092.813, 2048.725
1093.295, 2049.781
1093.777, 2050.841
1094.259, 2051.764
1094.741, 2052.385
1095.223, 2052.665
1095.705, 2052.454
1096.188, 2051.333
1096.670, 2050.201
1097.152, 2049.225
1097.634, 2048.521
1098.116, 2048.083
1098.598, 2048.065
1099.080, 2049.606
1099.562, 2053.135
1100.044, 2055.738
1100.527, 2054.459
1101.009, 2052.568
1101.491, 2052.584
1101.973, 2054.031
1102.455, 2053.336
1102.937, 2050.354
1103.419, 2049.102
1103.901, 2051.666
1104.384, 2054.521
1104.866, 2052.813
1105.348, 2049.883
1105.830, 2050.224
1106.312, 2055.897
1106.794, 2057.959
1107.276, 2055.385
1107.758, 2052.744
1108.240, 2052.954
1108.723, 2054.468
1109.205, 2054.731
1109.687, 2054.101
1110.169, 2053.405
1110.651, 2052.026
1111.133, 2052.122
1111.615, 2054.542
1112.097, 2057.287
1112.579, 2058.259
1113.062, 2058.065
1113.544, 2059.302
1114.026, 2061.736
1114.508, 2063.260
1114.990, 2061.896
1115.472, 2060.509
1115.954, 2060.236
1116.436, 2060.462
1116.919, 2060.104
1117.401, 2059.233
1117.883, 2059.307
1118.365, 2060.500
1118.847, 2061.888
1119.329, 2062.741
1119.811, 2063.552
1120.293, 2064.700
1120.776, 2066.090
1121.258, 2067.528
1121.740, 2069.124
1122.222, 2069.567
1122.704, 2068.422
1123.186, 2066.555
1123.668, 2063.670
1124.150, 2061.294
1124.632, 2061.426
1125.115, 2064.677
1125.597, 2067.475
1126.079, 2070.123
1126.561, 2071.088
1127.043, 2069.017
1127.525, 2066.194
1128.007, 2066.887
1128.489, 2069.351
1128.971, 2070.391
1129.454, 2068.201
1129.936, 2067.695
1130.418, 2070.163
1130.900, 2072.643
1131.382, 2073.240
1131.864, 2072.581
1132.346, 2071.994
1132.828, 2071.738
1133.311, 2072.671
1133.793, 2076.025
1134.275, 2079.397
1134.757, 2082.808
1135.239, 2085.446
1135.721, 2086.221
1136.203, 2085.404
1136.685, 2085.588
1137.167, 2086.611
1137.650, 2086.702
1138.132, 2083.884
1138.614, 2080.989
1139.096, 2079.261
1139.578, 2078.269
1140.060, 2077.307
1140.542, 2076.358
1141.024, 2077.167
1141.506, 2079.916
1141.989, 2082.266
1142.471, 2082.139
1142.953, 2081.315
1143.435, 2081.034
1143.917, 2081.106
1144.399, 2080.458
1144.881, 2078.806
1145.363, 2079.137
1145.846, 2082.356
1146.328, 2085.179
1146.810, 2083.331
1147.292, 2080.150
1147.774, 2078.710
1148.256, 2079.336
1148.738, 2080.702
1149.220, 2083.230
1149.703, 2084.499
1150.185, 2083.386
1150.667, 2082.016
1151.149, 2083.563
1151.631, 2086.421
1152.113, 2088.161
1152.595, 2088.075
1153.077, 2089.617
1153.559, 2093.818
1154.042, 2097.198
1154.524, 2097.720
1155.006, 2097.536
1155.488, 2102.051
1155.970, 2108.481
1156.452, 2110.953
1156.934, 2106.402
1157.416, 2102.824
1157.898, 2100.865
1158.381, 2100.631
1158.863, 2103.048
1159.345, 2106.749
1159.827, 2107.665
1160.309, 2106.556
1160.791, 2105.382
1161.273, 2104.257
1161.755, 2104.369
1162.238, 2106.457
1162.720, 2109.196
1163.202, 2112.193
1163.684, 2115.095
1164.166, 2115.322
1164.648, 2113.531
1165.130, 2112.617
1165.612, 2114.692
1166.094, 2116.940
1166.577, 2118.903
1167.059, 2120.160
1167.541, 2120.058
1168.023, 2118.687
1168.505, 2117.049
1168.987, 2115.185
1169.469, 2113.488
1169.951, 2112.179
1170.433, 2111.047
1170.916, 2110.061
1171.398, 2109.142
1171.880, 2108.080
1172.362, 2106.925
1172.844, 2107.047
1173.326, 2108.506
1173.808, 2108.484
1174.290, 2103.663
1174.773, 2098.251
1175.255, 2094.093
1175.737, 2091.341
1176.219, 2091.189
1176.701, 2093.677
1177.183, 2093.099
1177.665, 2088.522
1178.147, 2084.529
1178.630, 2086.387
1179.112, 2088.596
1179.594, 2086.148
1180.076, 2080.871
1180.558, 2079.171
1181.040, 2081.220
1181.522, 2083.048
1182.004, 2083.930
1182.486, 2084.101
1182.969, 2083.450
1183.451, 2082.394
1183.933, 2080.664
1184.415, 2078.634
1184.897, 2079.099
1185.379, 2082.362
1185.861, 2084.585
1186.343, 2084.620
1186.825, 2084.006
1187.308, 2084.484
1187.790, 2084.906
1188.272, 2083.976
1188.754, 2081.714
1189.236, 2079.399
1189.718, 2076.823
1190.200, 2077.031
1190.682, 2081.999
1191.165, 2087.288
1191.647, 2088.652
1192.129, 2087.498
1192.611, 2084.563
1193.093, 2079.767
1193.575, 2077.459
1194.057, 2077.841
1194.539, 2079.111
1195.021, 2080.680
1195.504, 2082.498
1195.986, 2085.109
1196.468, 2087.581
1196.950, 2088.413
1197.432, 2087.087
1197.914, 2086.979
1198.396, 2088.295
1198.878, 2089.403
1199.360, 2089.775
1199.843, 2089.178
1200.325, 2085.974
1200.807, 2082.283
1201.289, 2081.554
1201.771, 2085.193
1202.253, 2086.875
1202.735, 2086.433
1203.217, 2085.258
1203.700, 2083.432
1204.182, 2082.173
1204.664, 2083.709
1205.146, 2086.458
1205.628, 2087.836
1206.110, 2087.343
1206.592, 2085.989
1207.074, 2083.473
1207.557, 2081.783
1208.039, 2082.524
1208.521, 2084.364
1209.003, 2086.397
1209.485, 2088.279
1209.967, 2089.308
1210.449, 2089.258
1210.931, 2088.795
1211.413, 2087.786
1211.896, 2087.208
1212.378, 2087.417
1212.860, 2088.685
1213.342, 2092.048
1213.824, 2096.530
1214.306, 2100.289
1214.788, 2104.113
1215.270, 2103.852
1215.752, 2098.984
1216.235, 2093.703
1216.717, 2091.019
1217.199, 2089.489
1217.681, 2087.448
1218.163, 2085.506
1218.645, 2085.317
1219.127, 2087.683
1219.609, 2088.384
1220.092, 2087.044
1220.574, 2086.069
1221.056, 2088.524
1221.538, 2091.164
1222.020, 2090.343
1222.502, 2087.507
1222.984, 2086.089
1223.466, 2086.253
1223.948, 2087.666
1224.431, 2090.376
1224.913, 2093.313
1225.395, 2096.843
1225.877, 2099.076
1226.359, 2097.453
1226.841, 2093.524
1227.323, 2091.173
1227.805, 2090.553
1228.287, 2090.880
1228.770, 2092.150
1229.252, 2093.335
1229.734, 2092.816
1230.216, 2092.653
1230.698, 2095.427
1231.180, 2095.142
1231.662, 2095.718
1232.144, 2097.245
1232.627, 2096.327
1233.109, 2097.843
1233.591, 2098.946
1234.073, 2096.939
1234.555, 2094.386
1235.037, 2092.472
1235.519, 2091.423
1236.001, 2091.730
1236.484, 2093.407
1236.966, 2095.746
1237.448, 2098.670
1237.930, 2100.144
1238.412, 2096.413
1238.894, 2093.396
1239.376, 2095.783
1239.858, 2100.327
1240.340, 2101.530
1240.823, 2099.740
1241.305, 2099.643
1241.787, 2101.592
1242.269, 2102.766
1242.751, 2100.301
1243.233, 2097.970
1243.715, 2097.578
1244.197, 2098.144
1244.679, 2097.778
1245.162, 2099.236
1245.644, 2098.480
1246.126, 2102.519
1246.608, 2106.166
1247.090, 2108.392
1247.572, 2109.188
1248.054, 2108.004
1248.536, 2106.340
1249.019, 2106.588
1249.501, 2108.235
1249.983, 2109.591
1250.465, 2110.564
1250.947, 2112.223
1251.429, 2117.102
1251.911, 2119.416
1252.393, 2116.868
1252.875, 2113.353
1253.358, 2114.804
1253.840, 2119.089
1254.322, 2122.023
1254.804, 2123.163
1255.286, 2121.988
1255.768, 2115.983
1256.250, 2111.955
1256.732, 2111.366
1257.214, 2112.066
1257.697, 2110.836
1258.179, 2109.481
1258.661, 2112.171
1259.143, 2118.137
1259.625, 2120.342
1260.107, 2116.388
1260.589, 2112.930
1261.071, 2110.739
1261.554, 2109.958
1262.036, 2111.884
1262.518, 2114.462
1263.000, 2115.240
1263.482, 2114.402
1263.964, 2113.548
1264.446, 2112.469
1264.928, 2112.856
1265.411, 2115.120
1265.893, 2117.122
1266.375, 2115.366
1266.857, 2113.911
1267.339, 2117.762
1267.821, 2124.620
1268.303, 2126.829
1268.785, 2123.927
1269.267, 2122.667
1269.750, 2123.815
1270.232, 2124.976
1270.714, 2123.821
1271.196, 2122.670
1271.678, 2124.033
1272.160, 2122.056
1272.642, 2124.346
1273.124, 2119.770
1273.606, 2116.632
1274.089, 2115.348
1274.571, 2116.117
1275.053, 2121.720
1275.535, 2126.108
1276.017, 2126.812
1276.499, 2125.617
1276.981, 2124.681
1277.463, 2123.876
1277.946, 2122.395
1278.428, 2120.379
1278.910, 2119.077
1279.392, 2119.306
1279.874, 2119.953
1280.356, 2120.605
1280.838, 2121.924
1281.320, 2126.301
1281.802, 2131.177
1282.285, 2130.013
1282.767, 2124.104
1283.249, 2120.250
1283.731, 2121.633
1284.213, 2122.269
1284.695, 2121.523
1285.177, 2120.734
1285.659, 2121.405
1286.141, 2122.566
1286.624, 2122.937
1287.106, 2122.789
1287.588, 2122.911
1288.070, 2123.226
1288.552, 2124.663
1289.034, 2127.420
1289.516, 2129.514
1289.998, 2128.945
1290.481, 2127.569
1290.963, 2126.663
1291.445, 2126.027
1291.927, 2125.016
1292.409, 2123.497
1292.891, 2123.597
1293.373, 2125.342
1293.855, 2128.169
1294.338, 2133.669
1294.820, 2137.827
1295.302, 2137.621
1295.784, 2136.097
1296.266, 2135.571
1296.748, 2136.018
1297.230, 2137.290
1297.712, 2139.372
1298.194, 2141.792
1298.677, 2144.347
1299.159, 2146.006
1299.641, 2146.367
1300.123, 2146.287
1300.605, 2146.167
1301.087, 2146.050
1301.569, 2146.056
1302.051, 2145.666
1302.533, 2143.855
1303.016, 2138.679
##END=



