##NAMES=Owyheeite
##RRUFFID=R070543
##IDEAL CHEMISTRY=Ag^1+^_3_Pb^2+^_10_Sb^3+^_11_S^2-^_28_
##LOCALITY=Covada, Colville Indian Reservation, Ferry County, Washington, USA
##OWNER=RRUFF
##SOURCE=James Shigley
##DESCRIPTION=Aggregate of metallic black acicular crystals associated with quartz
##STATUS=The identification of this mineral has been confirmed by single-crystal X-ray diffraction.
##URL=rruff.info/R070543
148.3985, 3462.075
148.8806, 3559.313
149.3627, 3646.001
149.8449, 3721.214
150.3270, 3786.516
150.8091, 3844.503
151.2912, 3898.548
151.7733, 3934.508
152.2554, 3948.611
152.7376, 3950.821
153.2197, 3944.179
153.7018, 3930.818
154.1839, 3915.997
154.6660, 3907.208
155.1481, 3907.107
155.6303, 3908.623
156.1124, 3917.600
156.5945, 3924.638
157.0766, 3915.754
157.5587, 3889.487
158.0408, 3864.551
158.5230, 3870.633
159.0051, 3932.895
159.4872, 3984.518
159.9693, 4014.145
160.4514, 4021.331
160.9335, 4024.010
161.4157, 4036.636
161.8978, 4052.614
162.3799, 4061.491
162.8620, 4059.504
163.3441, 4057.891
163.8262, 4052.419
164.3084, 4049.872
164.7905, 4061.083
165.2726, 4089.372
165.7547, 4121.786
166.2368, 4136.616
166.7189, 4127.799
167.2011, 4117.276
167.6832, 4103.520
168.1653, 4090.774
168.6474, 4086.373
169.1295, 4093.110
169.6116, 4102.594
170.0938, 4099.427
170.5759, 4078.560
171.0580, 4060.412
171.5401, 4049.700
172.0222, 4042.739
172.5043, 4034.896
172.9865, 4024.768
173.4686, 4012.796
173.9507, 3998.724
174.4328, 3979.905
174.9149, 3966.077
175.3970, 3963.434
175.8792, 3965.595
176.3613, 3960.882
176.8434, 3944.105
177.3255, 3925.696
177.8076, 3925.971
178.2897, 3948.775
178.7719, 3968.243
179.2540, 3978.138
179.7361, 3980.692
180.2182, 3977.811
180.7003, 3968.786
181.1824, 3958.601
181.6646, 3956.672
182.1467, 3963.868
182.6288, 3970.423
183.1109, 3970.241
183.5930, 3968.317
184.0751, 3974.942
184.5573, 3994.873
185.0394, 4018.491
185.5215, 4031.087
186.0036, 4033.061
186.4857, 4031.871
186.9678, 4027.209
187.4500, 4021.305
187.9321, 4017.441
188.4142, 4015.647
188.8963, 4018.040
189.3784, 4031.135
189.8605, 4055.595
190.3427, 4074.466
190.8248, 4075.092
191.3069, 4067.948
191.7890, 4075.002
192.2711, 4105.105
192.7532, 4138.760
193.2354, 4148.238
193.7175, 4134.909
194.1996, 4121.985
194.6817, 4118.556
195.1638, 4120.013
195.6459, 4116.475
196.1281, 4103.986
196.6102, 4092.835
197.0923, 4101.040
197.5744, 4126.841
198.0565, 4142.666
198.5386, 4128.646
199.0207, 4102.346
199.5029, 4094.469
199.9850, 4112.472
200.4671, 4140.466
200.9492, 4168.407
201.4313, 4195.826
201.9134, 4207.353
202.3956, 4181.620
202.8777, 4142.560
203.3598, 4129.752
203.8419, 4152.529
204.3240, 4184.383
204.8061, 4201.939
205.2883, 4207.245
205.7704, 4204.878
206.2525, 4185.804
206.7346, 4163.389
207.2167, 4157.429
207.6988, 4171.344
208.1810, 4192.663
208.6631, 4214.146
209.1452, 4234.896
209.6273, 4249.378
210.1094, 4253.990
210.5915, 4252.822
211.0737, 4247.962
211.5558, 4238.637
212.0379, 4234.249
212.5200, 4245.935
213.0021, 4269.776
213.4842, 4289.969
213.9664, 4303.899
214.4485, 4313.231
214.9306, 4319.541
215.4127, 4322.883
215.8948, 4323.126
216.3769, 4317.894
216.8591, 4309.341
217.3412, 4305.112
217.8233, 4308.417
218.3054, 4314.696
218.7875, 4321.587
219.2696, 4328.986
219.7518, 4333.032
220.2339, 4327.888
220.7160, 4318.197
221.1981, 4318.879
221.6802, 4343.314
222.1623, 4366.752
222.6445, 4367.109
223.1266, 4347.574
223.6087, 4331.232
224.0908, 4329.135
224.5729, 4340.140
225.0550, 4357.176
225.5371, 4388.396
226.0193, 4415.184
226.5014, 4423.725
226.9835, 4417.771
227.4656, 4414.583
227.9477, 4425.094
228.4298, 4439.775
228.9120, 4434.768
229.3941, 4399.396
229.8762, 4366.481
230.3583, 4353.940
230.8404, 4355.187
231.3225, 4352.873
231.8047, 4339.764
232.2868, 4321.211
232.7689, 4307.033
233.2510, 4294.355
233.7331, 4291.041
234.2152, 4307.158
234.6974, 4333.065
235.1795, 4350.839
235.6616, 4354.560
236.1437, 4350.771
236.6258, 4350.292
237.1079, 4355.211
237.5901, 4355.060
238.0722, 4342.798
238.5543, 4326.225
239.0364, 4316.139
239.5185, 4315.215
240.0006, 4317.197
240.4828, 4314.354
240.9649, 4305.766
241.4470, 4296.702
241.9291, 4283.182
242.4112, 4271.927
242.8933, 4272.852
243.3755, 4286.563
243.8576, 4299.080
244.3397, 4294.922
244.8218, 4269.852
245.3039, 4256.204
245.7860, 4263.359
246.2682, 4274.146
246.7503, 4276.817
247.2324, 4271.378
247.7145, 4265.151
248.1966, 4265.608
248.6787, 4272.880
249.1608, 4263.692
249.6430, 4219.766
250.1251, 4179.543
250.6072, 4166.681
251.0893, 4173.067
251.5714, 4173.212
252.0535, 4148.991
252.5357, 4104.677
253.0178, 4078.868
253.4999, 4085.050
253.9820, 4091.638
254.4641, 4095.893
254.9462, 4094.457
255.4284, 4080.150
255.9105, 4048.448
256.3926, 4006.380
256.8747, 3976.859
257.3568, 3971.289
257.8390, 3965.560
258.3211, 3956.799
258.8032, 3947.593
259.2853, 3944.308
259.7674, 3948.742
260.2495, 3951.376
260.7316, 3932.869
261.2137, 3872.841
261.6959, 3823.078
262.1780, 3785.609
262.6601, 3756.263
263.1422, 3736.601
263.6243, 3724.796
264.1064, 3711.103
264.5886, 3680.010
265.0707, 3618.978
265.5528, 3579.440
266.0349, 3577.247
266.5170, 3579.933
266.9991, 3575.952
267.4813, 3562.104
267.9634, 3536.289
268.4455, 3492.492
268.9276, 3428.276
269.4097, 3382.718
269.8918, 3378.855
270.3740, 3372.753
270.8561, 3350.088
271.3382, 3315.124
271.8203, 3278.887
272.3024, 3248.299
272.7845, 3222.380
273.2667, 3195.278
273.7488, 3162.536
274.2309, 3135.740
274.7130, 3123.827
275.1951, 3117.296
275.6772, 3103.022
276.1594, 3073.756
276.6415, 3037.842
277.1236, 3014.654
277.6057, 3011.526
278.0878, 3000.639
278.5699, 2964.552
279.0521, 2923.241
279.5342, 2893.447
280.0163, 2879.682
280.4984, 2873.521
280.9805, 2865.677
281.4626, 2855.867
281.9448, 2849.060
282.4269, 2854.304
282.9090, 2855.809
283.3911, 2837.619
283.8732, 2799.638
284.3553, 2764.222
284.8375, 2749.429
285.3196, 2751.330
285.8017, 2751.379
286.2838, 2748.375
286.7659, 2741.136
287.2480, 2725.684
287.7302, 2704.393
288.2123, 2687.322
288.6944, 2680.634
289.1765, 2679.854
289.6586, 2678.527
290.1407, 2676.696
290.6229, 2672.191
291.1050, 2661.985
291.5871, 2647.760
292.0692, 2634.560
292.5513, 2616.917
293.0334, 2605.276
293.5156, 2612.466
293.9977, 2635.948
294.4798, 2657.552
294.9619, 2668.142
295.4440, 2669.966
295.9261, 2670.291
296.4083, 2667.673
296.8904, 2665.903
297.3725, 2667.613
297.8546, 2671.101
298.3367, 2672.287
298.8188, 2669.261
299.3010, 2665.485
299.7831, 2667.217
300.2652, 2675.101
300.7473, 2686.642
301.2294, 2703.824
301.7115, 2723.310
302.1937, 2743.423
302.6758, 2763.331
303.1579, 2780.001
303.6400, 2789.276
304.1221, 2788.623
304.6042, 2793.789
305.0864, 2805.483
305.5685, 2821.429
306.0506, 2844.230
306.5327, 2870.804
307.0148, 2893.807
307.4969, 2907.914
307.9791, 2913.670
308.4612, 2918.093
308.9433, 2915.887
309.4254, 2918.352
309.9075, 2930.504
310.3896, 2947.464
310.8717, 2962.823
311.3539, 2973.601
311.8360, 2981.989
312.3181, 2993.946
312.8002, 3015.592
313.2823, 3027.998
313.7644, 3025.627
314.2466, 3017.230
314.7287, 3009.491
315.2108, 3003.397
315.6929, 2994.808
316.1750, 2977.093
316.6571, 2948.779
317.1393, 2925.718
317.6214, 2915.067
318.1035, 2903.287
318.5856, 2883.455
319.0677, 2856.754
319.5498, 2827.552
320.0320, 2795.191
320.5141, 2762.693
320.9962, 2741.030
321.4783, 2733.525
321.9604, 2728.662
322.4425, 2723.109
322.9247, 2715.570
323.4068, 2702.847
323.8889, 2680.194
324.3710, 2657.604
324.8531, 2650.457
325.3352, 2657.583
325.8174, 2652.782
326.2995, 2617.319
326.7816, 2572.218
327.2637, 2552.659
327.7458, 2564.361
328.2279, 2578.765
328.7101, 2586.590
329.1922, 2587.940
329.6743, 2581.090
330.1564, 2564.574
330.6385, 2546.450
331.1206, 2535.900
331.6028, 2533.603
332.0849, 2534.272
332.5670, 2544.595
333.0491, 2552.571
333.5312, 2547.696
334.0133, 2530.949
334.4955, 2510.099
334.9776, 2489.284
335.4597, 2469.248
335.9418, 2459.802
336.4239, 2470.676
336.9060, 2479.308
337.3882, 2481.990
337.8703, 2478.310
338.3524, 2466.259
338.8345, 2444.995
339.3166, 2419.539
339.7987, 2401.379
340.2809, 2395.904
340.7630, 2388.149
341.2451, 2379.360
341.7272, 2367.268
342.2093, 2349.947
342.6914, 2327.443
343.1736, 2301.483
343.6557, 2272.655
344.1378, 2240.506
344.6199, 2212.854
345.1020, 2190.365
345.5841, 2172.188
346.0663, 2162.436
346.5484, 2156.100
347.0305, 2143.836
347.5126, 2119.691
347.9947, 2088.344
348.4768, 2057.949
348.9590, 2027.135
349.4411, 2002.483
349.9232, 1990.661
350.4053, 1984.296
350.8874, 1977.199
351.3695, 1968.989
351.8517, 1957.719
352.3338, 1940.005
352.8159, 1917.504
353.2980, 1895.945
353.7801, 1875.244
354.2622, 1858.738
354.7444, 1853.410
355.2265, 1857.924
355.7086, 1859.940
356.1907, 1855.302
356.6728, 1847.715
357.1549, 1841.649
357.6371, 1836.939
358.1192, 1828.348
358.6013, 1809.848
359.0834, 1784.369
359.5655, 1774.037
360.0476, 1793.876
360.5297, 1808.904
361.0118, 1805.199
361.4940, 1791.193
361.9761, 1779.476
362.4582, 1774.748
362.9403, 1773.871
363.4224, 1771.340
363.9045, 1766.179
364.3867, 1761.246
364.8688, 1758.683
365.3509, 1754.634
365.8330, 1745.448
366.3151, 1732.068
366.7972, 1718.711
367.2794, 1708.918
367.7615, 1702.494
368.2436, 1697.203
368.7257, 1693.045
369.2078, 1690.109
369.6899, 1687.804
370.1721, 1686.778
370.6542, 1689.062
371.1363, 1696.449
371.6184, 1703.019
372.1005, 1697.719
372.5826, 1679.154
373.0648, 1666.439
373.5469, 1668.292
374.0290, 1674.075
374.5111, 1672.809
374.9932, 1664.432
375.4753, 1658.598
375.9575, 1664.688
376.4396, 1675.324
376.9217, 1674.247
377.4038, 1658.514
377.8859, 1644.224
378.3680, 1645.012
378.8502, 1658.598
379.3323, 1666.459
379.8144, 1666.817
380.2965, 1662.847
380.7786, 1652.760
381.2607, 1639.653
381.7429, 1630.751
382.2250, 1629.295
382.7071, 1632.148
383.1892, 1633.298
383.6713, 1632.659
384.1534, 1630.105
384.6356, 1621.031
385.1177, 1613.448
385.5998, 1614.923
386.0819, 1624.576
386.5640, 1635.077
387.0461, 1640.169
387.5283, 1639.970
388.0104, 1638.200
388.4925, 1633.564
388.9746, 1628.846
389.4567, 1625.801
389.9388, 1622.629
390.4210, 1615.557
390.9031, 1602.502
391.3852, 1590.448
391.8673, 1592.379
392.3494, 1610.392
392.8315, 1620.624
393.3137, 1613.524
393.7958, 1601.913
394.2779, 1594.069
394.7600, 1590.302
395.2421, 1592.009
395.7242, 1607.762
396.2064, 1626.530
396.6885, 1627.225
397.1706, 1607.939
397.6527, 1587.356
398.1348, 1575.198
398.6169, 1571.610
399.0991, 1574.620
399.5812, 1593.248
400.0633, 1606.537
400.5454, 1602.052
401.0275, 1588.007
401.5096, 1577.702
401.9918, 1575.170
402.4739, 1576.148
402.9560, 1574.725
403.4381, 1569.650
403.9202, 1566.234
404.4023, 1565.955
404.8845, 1565.666
405.3666, 1561.708
405.8487, 1556.345
406.3308, 1556.036
406.8129, 1565.855
407.2950, 1581.391
407.7772, 1586.649
408.2592, 1576.304
408.7414, 1566.127
409.2235, 1558.218
409.7056, 1552.373
410.1877, 1549.317
410.6698, 1548.989
411.1519, 1548.488
411.6341, 1544.157
412.1162, 1537.109
412.5983, 1533.762
413.0804, 1536.087
413.5625, 1538.786
414.0446, 1538.412
414.5268, 1535.513
415.0089, 1530.752
415.4910, 1519.974
415.9731, 1511.513
416.4552, 1513.819
416.9373, 1523.959
417.4195, 1532.340
417.9016, 1535.364
418.3837, 1534.961
418.8658, 1534.264
419.3479, 1533.158
419.8300, 1532.037
420.3122, 1531.218
420.7943, 1530.168
421.2764, 1527.128
421.7585, 1523.159
422.2406, 1522.960
422.7227, 1531.337
423.2049, 1545.458
423.6870, 1545.516
424.1691, 1514.769
424.6512, 1494.683
425.1333, 1502.236
425.6154, 1516.703
426.0976, 1515.510
426.5797, 1494.180
427.0618, 1472.846
427.5439, 1476.990
428.0260, 1504.208
428.5081, 1518.809
428.9903, 1512.874
429.4724, 1503.212
429.9545, 1500.711
430.4366, 1487.192
430.9187, 1506.079
431.4008, 1516.491
431.8830, 1518.881
432.3651, 1489.229
432.8472, 1500.953
433.3293, 1496.096
433.8114, 1490.558
434.2935, 1508.106
434.7757, 1483.114
435.2578, 1500.296
435.7399, 1500.643
436.2220, 1508.695
436.7041, 1500.063
437.1862, 1496.583
437.6684, 1509.794
438.1505, 1513.763
438.6326, 1503.210
439.1147, 1511.752
439.5968, 1486.177
440.0789, 1490.540
440.5611, 1507.820
441.0432, 1498.105
441.5253, 1506.952
442.0074, 1508.730
442.4895, 1478.382
442.9716, 1503.904
443.4538, 1505.264
443.9359, 1481.814
444.4180, 1505.422
444.9001, 1485.393
445.3822, 1480.940
445.8643, 1488.208
446.3465, 1483.257
446.8286, 1497.571
447.3107, 1493.325
447.7928, 1487.422
448.2749, 1488.755
448.7570, 1469.581
449.2392, 1488.451
449.7213, 1481.334
450.2034, 1487.135
450.6855, 1480.051
451.1676, 1474.566
451.6497, 1471.445
452.1319, 1475.081
452.6140, 1476.557
453.0961, 1468.555
453.5782, 1455.570
454.0603, 1447.013
454.5424, 1447.714
455.0246, 1453.713
455.5067, 1456.278
455.9888, 1454.048
456.4709, 1452.277
456.9530, 1453.113
457.4351, 1453.217
457.9172, 1449.278
458.3994, 1442.455
458.8815, 1437.838
459.3636, 1438.592
459.8457, 1443.320
460.3278, 1450.598
460.8099, 1460.621
461.2921, 1469.325
461.7742, 1476.051
462.2563, 1479.313
462.7384, 1475.563
463.2205, 1462.035
463.7026, 1451.180
464.1848, 1449.481
464.6669, 1450.419
465.1490, 1445.518
465.6311, 1434.971
466.1132, 1427.101
466.5953, 1429.027
467.0775, 1439.359
467.5596, 1445.697
468.0417, 1445.056
468.5238, 1443.974
469.0059, 1444.921
469.4880, 1444.791
469.9702, 1437.883
470.4523, 1424.250
470.9344, 1413.822
471.4165, 1422.001
471.8986, 1445.881
472.3807, 1451.836
472.8629, 1431.321
473.3450, 1410.026
473.8271, 1403.042
474.3092, 1404.872
474.7913, 1407.957
475.2734, 1410.899
475.7556, 1415.268
476.2377, 1424.268
476.7198, 1435.071
477.2019, 1442.130
477.6840, 1444.209
478.1661, 1441.100
478.6483, 1430.681
479.1304, 1411.427
479.6125, 1403.635
480.0946, 1423.764
480.5767, 1435.259
481.0588, 1415.108
481.5410, 1382.424
482.0231, 1366.044
482.5052, 1376.056
482.9873, 1396.784
483.4694, 1406.417
483.9515, 1403.555
484.4337, 1399.287
484.9158, 1389.793
485.3979, 1384.604
485.8800, 1393.029
486.3621, 1408.511
486.8442, 1416.455
487.3264, 1408.738
487.8085, 1397.022
488.2906, 1393.990
488.7727, 1396.916
489.2548, 1392.995
489.7369, 1376.970
490.2191, 1359.508
490.7012, 1353.949
491.1833, 1363.033
491.6654, 1370.436
492.1475, 1378.554
492.6296, 1382.682
493.1118, 1377.679
493.5939, 1367.500
494.0760, 1359.405
494.5581, 1356.646
495.0402, 1356.745
495.5223, 1354.798
496.0045, 1349.307
496.4866, 1348.168
496.9687, 1359.773
497.4508, 1367.614
497.9329, 1358.720
498.4150, 1339.852
498.8972, 1328.363
499.3793, 1334.962
499.8614, 1347.026
500.3435, 1348.919
500.8256, 1342.608
501.3077, 1340.710
501.7899, 1348.319
502.2720, 1357.923
502.7541, 1359.596
503.2362, 1351.558
503.7183, 1345.665
504.2004, 1343.275
504.6826, 1342.009
505.1647, 1342.609
505.6468, 1343.066
506.1289, 1338.169
506.6110, 1325.563
507.0931, 1311.974
507.5752, 1311.352
508.0573, 1328.859
508.5395, 1338.706
509.0216, 1334.795
509.5037, 1327.877
509.9858, 1320.518
510.4679, 1314.380
510.9500, 1313.230
511.4322, 1321.047
511.9143, 1330.463
512.3964, 1334.206
512.8785, 1332.748
513.3607, 1326.833
513.8428, 1315.251
514.3249, 1304.867
514.8070, 1305.146
515.2891, 1318.647
515.7712, 1324.016
516.2534, 1312.805
516.7355, 1302.604
517.2176, 1303.489
517.6997, 1310.075
518.1818, 1313.649
518.6639, 1310.814
519.1461, 1303.139
519.6282, 1290.446
520.1103, 1270.805
520.5924, 1260.768
521.0745, 1265.922
521.5566, 1274.106
522.0388, 1281.679
522.5209, 1287.400
523.0030, 1288.190
523.4851, 1280.400
523.9672, 1273.566
524.4493, 1279.646
524.9315, 1292.273
525.4136, 1292.414
525.8957, 1275.177
526.3778, 1256.828
526.8599, 1253.262
527.3420, 1264.899
527.8242, 1273.296
528.3063, 1278.232
528.7884, 1280.762
529.2705, 1279.796
529.7526, 1277.265
530.2347, 1275.287
530.7169, 1274.365
531.1990, 1273.649
531.6810, 1272.765
532.1631, 1271.554
532.6453, 1267.010
533.1274, 1256.280
533.6095, 1249.332
534.0916, 1255.572
534.5737, 1266.701
535.0558, 1270.314
535.5380, 1263.118
536.0201, 1256.305
536.5022, 1254.165
536.9843, 1255.718
537.4664, 1262.460
537.9485, 1273.134
538.4307, 1278.438
538.9128, 1270.403
539.3949, 1253.384
539.8770, 1248.474
540.3591, 1271.203
540.8412, 1281.658
541.3234, 1266.603
541.8055, 1247.528
542.2876, 1239.530
542.7697, 1242.590
543.2518, 1248.458
543.7339, 1252.989
544.2161, 1255.988
544.6982, 1258.077
545.1803, 1259.328
545.6624, 1253.646
546.1445, 1234.467
546.6266, 1213.669
547.1088, 1210.003
547.5909, 1225.113
548.0730, 1238.851
548.5551, 1251.923
549.0372, 1260.238
549.5193, 1257.978
550.0015, 1249.489
550.4836, 1244.623
550.9657, 1247.607
551.4478, 1252.564
551.9299, 1247.937
552.4120, 1230.396
552.8942, 1222.157
553.3763, 1230.020
553.8584, 1239.611
554.3405, 1245.253
554.8226, 1247.346
555.3047, 1246.233
555.7869, 1240.831
556.2690, 1235.053
556.7511, 1232.061
557.2332, 1230.697
557.7153, 1228.973
558.1974, 1226.508
558.6796, 1222.167
559.1617, 1214.013
559.6438, 1202.956
560.1259, 1198.468
560.6080, 1207.537
561.0901, 1214.538
561.5723, 1217.118
562.0544, 1217.609
562.5365, 1218.569
563.0186, 1219.880
563.5007, 1218.832
563.9828, 1211.279
564.4650, 1200.864
564.9471, 1198.069
565.4292, 1203.602
565.9113, 1207.266
566.3934, 1205.256
566.8755, 1199.672
567.3577, 1192.032
567.8398, 1181.400
568.3219, 1176.215
568.8040, 1180.758
569.2861, 1188.129
569.7682, 1196.008
570.2504, 1203.039
570.7325, 1207.625
571.2146, 1209.056
571.6967, 1207.323
572.1788, 1200.975
572.6609, 1188.758
573.1431, 1181.874
573.6252, 1183.221
574.1073, 1185.985
574.5894, 1187.907
575.0715, 1188.614
575.5536, 1186.630
576.0358, 1179.762
576.5179, 1175.670
577.0000, 1181.810
577.4821, 1192.325
577.9642, 1198.589
578.4464, 1199.563
578.9285, 1197.635
579.4106, 1194.189
579.8927, 1189.653
580.3748, 1185.947
580.8569, 1183.729
581.3391, 1181.256
581.8212, 1178.021
582.3033, 1174.843
582.7854, 1173.844
583.2675, 1173.639
583.7496, 1168.953
584.2318, 1152.491
584.7139, 1135.894
585.1960, 1138.211
585.6781, 1155.860
586.1602, 1168.889
586.6423, 1171.623
587.1245, 1169.170
587.6066, 1166.414
588.0887, 1163.302
588.5708, 1160.720
589.0529, 1160.576
589.5350, 1158.642
590.0172, 1148.447
590.4993, 1138.707
590.9814, 1142.370
591.4635, 1160.234
591.9456, 1176.748
592.4277, 1175.135
592.9099, 1160.833
593.3920, 1156.542
593.8741, 1164.478
594.3562, 1167.104
594.8383, 1154.277
595.3204, 1135.440
595.8026, 1126.222
596.2847, 1127.349
596.7668, 1129.270
597.2489, 1129.895
597.7310, 1131.510
598.2131, 1139.231
598.6953, 1148.386
599.1774, 1147.151
599.6595, 1131.118
600.1416, 1113.514
600.6237, 1116.623
601.1058, 1141.808
601.5880, 1155.411
602.0701, 1152.689
602.5522, 1146.307
603.0343, 1140.734
603.5164, 1136.306
603.9985, 1134.085
604.4807, 1135.314
604.9628, 1134.940
605.4449, 1127.447
605.9270, 1119.783
606.4091, 1119.689
606.8912, 1126.567
607.3734, 1137.019
607.8555, 1149.935
608.3376, 1159.820
608.8197, 1150.428
609.3018, 1111.264
609.7839, 1091.274
610.2661, 1107.401
610.7482, 1127.352
611.2303, 1135.615
611.7124, 1135.220
612.1945, 1132.069
612.6766, 1125.765
613.1588, 1121.236
613.6409, 1124.236
614.1230, 1130.036
614.6051, 1130.153
615.0872, 1124.002
615.5693, 1117.633
616.0515, 1115.311
616.5336, 1116.233
617.0157, 1116.968
617.4978, 1115.086
617.9799, 1118.112
618.4620, 1136.543
618.9442, 1151.132
619.4263, 1147.362
619.9084, 1130.555
620.3905, 1117.691
620.8726, 1116.989
621.3547, 1119.492
621.8369, 1118.144
622.3190, 1113.763
622.8011, 1107.262
623.2832, 1098.959
623.7653, 1092.121
624.2474, 1089.433
624.7296, 1090.680
625.2117, 1094.309
625.6938, 1102.906
626.1759, 1109.686
626.6580, 1116.047
627.1401, 1118.870
627.6223, 1112.821
628.1044, 1100.596
628.5865, 1092.874
629.0686, 1097.897
629.5507, 1105.539
630.0328, 1103.203
630.5149, 1093.907
630.9970, 1087.689
631.4791, 1086.979
631.9612, 1088.221
632.4434, 1088.249
632.9255, 1087.106
633.4076, 1085.576
633.8897, 1083.701
634.3718, 1081.341
634.8539, 1077.744
635.3361, 1074.228
635.8182, 1071.541
636.3003, 1069.880
636.7824, 1069.558
637.2645, 1071.403
637.7466, 1073.974
638.2288, 1074.691
638.7109, 1074.445
639.1930, 1078.043
639.6751, 1087.205
640.1572, 1094.699
640.6393, 1092.721
641.1215, 1081.581
641.6036, 1072.578
642.0857, 1061.286
642.5678, 1058.462
643.0499, 1076.289
643.5320, 1094.907
644.0142, 1095.968
644.4963, 1080.946
644.9784, 1066.387
645.4605, 1062.096
645.9426, 1062.075
646.4247, 1058.687
646.9069, 1053.108
647.3890, 1050.152
647.8711, 1051.180
648.3532, 1053.014
648.8353, 1052.141
649.3174, 1048.790
649.7996, 1048.738
650.2817, 1055.391
650.7638, 1060.568
651.2459, 1064.204
651.7280, 1065.227
652.2101, 1061.779
652.6923, 1054.600
653.1744, 1047.313
653.6565, 1040.745
654.1386, 1036.005
654.6207, 1034.540
655.1028, 1035.936
655.5850, 1039.294
656.0671, 1044.398
656.5492, 1050.462
657.0313, 1057.626
657.5134, 1065.180
657.9955, 1064.801
658.4777, 1047.903
658.9598, 1037.516
659.4419, 1042.701
659.9240, 1049.941
660.4061, 1048.255
660.8882, 1039.556
661.3704, 1034.506
661.8525, 1040.374
662.3346, 1047.676
662.8167, 1047.626
663.2988, 1042.839
663.7809, 1038.216
664.2631, 1034.909
664.7452, 1033.709
665.2273, 1036.084
665.7094, 1040.345
666.1915, 1036.923
666.6736, 1020.172
667.1558, 1008.818
667.6379, 1010.269
668.1200, 1013.571
668.6021, 1010.848
669.0842, 1004.539
669.5663, 1002.783
670.0485, 1009.971
670.5306, 1018.811
671.0127, 1027.372
671.4948, 1033.568
671.9769, 1033.169
672.4590, 1026.583
672.9412, 1019.082
673.4233, 1014.254
673.9054, 1011.323
674.3875, 1007.681
674.8696, 1002.411
675.3517, 1000.933
675.8339, 1006.499
676.3160, 1012.264
676.7981, 1013.678
677.2802, 1012.078
677.7623, 1009.855
678.2444, 1006.134
678.7266, 1004.311
679.2087, 1007.890
679.6908, 1012.279
680.1729, 1013.544
680.6550, 1011.457
681.1371, 1006.114
681.6193, 997.2302
682.1014, 988.6626
682.5835, 987.3860
683.0656, 993.3530
683.5477, 999.7871
684.0298, 1007.850
684.5120, 1010.799
684.9941, 1001.415
685.4762, 986.0059
685.9583, 979.5760
686.4404, 984.4014
686.9225, 990.3613
687.4047, 1000.103
687.8868, 1006.877
688.3689, 1005.898
688.8510, 999.3180
689.3331, 990.1586
689.8152, 979.5656
690.2974, 970.4431
690.7795, 965.6503
691.2616, 964.7286
691.7437, 967.2511
692.2258, 973.2562
692.7079, 977.9791
693.1901, 979.3622
693.6722, 978.8263
694.1543, 978.5708
694.6364, 978.9910
695.1185, 977.6386
695.6006, 971.8572
696.0828, 967.6411
696.5649, 967.3119
697.0470, 968.8198
697.5291, 969.6823
698.0112, 969.7349
698.4933, 971.1971
698.9755, 978.1020
699.4576, 985.0772
699.9397, 984.9849
700.4218, 979.5303
700.9039, 973.1788
701.3860, 967.2010
701.8682, 963.0325
702.3503, 962.1685
702.8324, 964.3527
703.3145, 967.4102
703.7966, 972.1992
704.2787, 975.9434
704.7609, 979.0737
705.2430, 980.0536
705.7251, 977.7930
706.2072, 972.5364
706.6893, 964.9127
707.1714, 949.8015
707.6536, 940.0563
708.1357, 945.4137
708.6178, 957.3726
709.0999, 967.9322
709.5820, 975.3491
710.0641, 978.6538
710.5463, 977.0291
711.0284, 972.3089
711.5105, 967.5668
711.9926, 962.8112
712.4747, 957.5397
712.9568, 950.6780
713.4390, 946.9995
713.9211, 950.4560
714.4032, 958.4472
714.8853, 964.8167
715.3674, 971.6539
715.8495, 971.9427
716.3317, 958.0645
716.8138, 945.0683
717.2959, 941.2131
717.7780, 943.2059
718.2601, 945.8011
718.7422, 947.4303
719.2244, 948.0276
719.7065, 947.3990
720.1886, 945.7674
720.6707, 942.2173
721.1528, 937.5556
721.6349, 937.2042
722.1171, 943.3923
722.5992, 950.9130
723.0813, 953.1959
723.5634, 950.2020
724.0455, 947.2205
724.5276, 942.8412
725.0098, 940.9940
725.4919, 945.7502
725.9740, 950.9211
726.4561, 951.8167
726.9382, 948.7995
727.4203, 944.9603
727.9025, 938.2041
728.3846, 934.3241
728.8667, 937.2757
729.3488, 944.2595
729.8309, 953.9755
730.3130, 964.5806
730.7951, 970.6901
731.2772, 968.3031
731.7593, 962.1408
732.2415, 962.7612
732.7236, 969.5005
733.2057, 966.2589
733.6878, 948.0945
734.1699, 935.0144
734.6520, 941.7710
735.1342, 959.5742
735.6163, 965.9949
736.0984, 955.4318
736.5805, 945.8278
737.0626, 935.4492
737.5447, 927.9019
738.0269, 924.8517
738.5090, 925.4565
738.9911, 931.0679
739.4732, 941.5936
739.9553, 945.8101
740.4374, 927.2281
740.9196, 905.4534
741.4017, 908.4973
741.8838, 928.0277
742.3659, 938.1944
742.8480, 931.8146
743.3301, 921.7999
743.8123, 921.3766
744.2944, 928.5437
744.7765, 931.2121
745.2586, 928.0200
745.7407, 925.6346
746.2228, 924.6058
746.7050, 925.9115
747.1871, 933.2604
747.6692, 944.1727
748.1513, 947.3594
748.6334, 934.1450
749.1155, 925.8779
749.5977, 931.2599
750.0798, 939.0587
750.5619, 942.2292
751.0440, 940.6704
751.5261, 934.8182
752.0082, 924.2360
752.4904, 915.9185
752.9725, 920.1589
753.4546, 930.4500
753.9367, 931.0150
754.4188, 922.7499
754.9009, 919.2185
755.3831, 926.4890
755.8652, 936.9054
756.3473, 939.7490
756.8294, 934.8270
757.3115, 929.1551
757.7936, 921.3094
758.2758, 915.8221
758.7579, 915.1232
759.2400, 916.2963
759.7221, 916.9406
760.2042, 917.0618
760.6863, 916.8393
761.1685, 914.7122
761.6506, 914.2465
762.1327, 915.8500
762.6148, 920.3470
763.0969, 933.0200
763.5790, 949.4978
764.0612, 956.1040
764.5433, 944.6371
765.0254, 927.4698
765.5075, 918.6848
765.9896, 916.4904
766.4717, 917.3027
766.9539, 920.4013
767.4360, 918.9612
767.9181, 908.8268
768.4002, 896.5200
768.8823, 893.6523
769.3644, 901.8873
769.8466, 906.0351
770.3287, 905.4592
770.8108, 901.8304
771.2929, 889.3069
771.7750, 878.7001
772.2571, 884.9296
772.7393, 906.1375
773.2214, 916.2316
773.7035, 895.7189
774.1856, 881.0080
774.6677, 893.3410
775.1498, 914.0929
775.6320, 925.2109
776.1141, 925.8436
776.5962, 923.2186
777.0783, 921.1671
777.5604, 917.0790
778.0425, 902.4329
778.5247, 884.0171
779.0068, 883.2081
779.4889, 900.5826
779.9710, 919.5176
780.4531, 932.6619
780.9352, 938.1161
781.4174, 930.5073
781.8995, 907.7473
782.3816, 895.6769
782.8637, 898.9338
783.3458, 903.1260
783.8279, 904.0325
784.3101, 903.7494
784.7922, 904.1599
785.2743, 905.2711
785.7564, 907.3740
786.2385, 911.8696
786.7206, 915.5639
787.2028, 918.8717
787.6849, 919.8801
788.1670, 915.9704
788.6491, 908.2606
789.1312, 899.3134
789.6133, 889.3975
790.0955, 883.0222
790.5776, 886.6507
791.0597, 896.0037
791.5418, 904.5752
792.0239, 911.3716
792.5060, 914.5441
792.9882, 913.2600
793.4703, 909.2151
793.9524, 904.1899
794.4345, 898.3206
794.9166, 893.5122
795.3987, 889.5084
795.8809, 888.0772
796.3630, 891.5651
796.8451, 894.6048
797.3272, 889.7131
797.8093, 878.3268
798.2914, 877.0399
798.7736, 897.4154
799.2557, 910.4204
799.7378, 909.4836
800.2199, 904.0731
800.7020, 897.3493
801.1841, 891.3856
801.6663, 890.0463
802.1484, 895.2258
802.6305, 899.0244
803.1126, 895.8347
803.5947, 889.6686
804.0768, 881.9645
804.5590, 875.2656
805.0411, 876.6714
805.5232, 887.1093
806.0053, 896.3777
806.4874, 894.8030
806.9695, 885.2709
807.4517, 872.8209
807.9338, 858.0916
808.4159, 853.6010
808.8980, 862.9633
809.3801, 874.3616
809.8622, 879.6102
810.3444, 879.7345
810.8265, 877.4160
811.3086, 869.8326
811.7907, 867.2630
812.2728, 874.5294
812.7549, 880.4409
813.2371, 877.9422
813.7192, 872.8669
814.2013, 873.3108
814.6834, 880.1547
815.1655, 884.2612
815.6476, 882.4369
816.1298, 879.0250
816.6119, 873.7655
817.0940, 869.3799
817.5761, 870.3463
818.0582, 875.3392
818.5403, 877.9584
819.0225, 874.8401
819.5046, 868.2399
819.9867, 855.7444
820.4688, 843.3278
820.9509, 845.2348
821.4330, 859.4272
821.9152, 870.7700
822.3973, 872.3327
822.8794, 867.5928
823.3615, 859.0471
823.8436, 847.8288
824.3257, 846.8793
824.8079, 857.8144
825.2900, 865.1428
825.7721, 862.6562
826.2542, 860.6461
826.7363, 870.8306
827.2184, 890.5662
827.7006, 899.7516
828.1826, 892.4940
828.6647, 884.8436
829.1469, 875.4860
829.6290, 868.1191
830.1111, 865.7109
830.5932, 865.9967
831.0753, 864.8229
831.5574, 861.1603
832.0396, 859.5246
832.5217, 864.4365
833.0038, 868.3578
833.4859, 862.3603
833.9680, 855.1057
834.4501, 862.0971
834.9323, 881.7994
835.4144, 893.8157
835.8965, 881.9893
836.3786, 865.0403
836.8607, 866.0387
837.3428, 877.1639
837.8250, 883.8420
838.3071, 884.1866
838.7892, 877.7916
839.2713, 864.1469
839.7534, 850.2482
840.2355, 848.2374
840.7177, 856.5115
841.1998, 855.4610
841.6819, 843.6036
842.1640, 838.7149
842.6461, 847.8933
843.1282, 859.8344
843.6104, 863.1016
844.0925, 859.1797
844.5746, 859.2680
845.0567, 866.6396
845.5388, 871.2069
846.0209, 870.8651
846.5031, 869.1456
846.9852, 867.3906
847.4673, 865.5992
847.9494, 863.4887
848.4315, 860.7424
848.9136, 859.5630
849.3958, 862.3022
849.8779, 864.4429
850.3600, 865.0262
850.8421, 863.2484
851.3242, 856.1801
851.8063, 845.5379
852.2885, 838.7881
852.7706, 840.4351
853.2527, 844.6348
853.7348, 848.4660
854.2169, 850.8553
854.6990, 848.6812
855.1812, 843.7004
855.6633, 842.4890
856.1454, 847.3835
856.6275, 852.0261
857.1096, 847.3932
857.5917, 837.8074
858.0739, 836.0715
858.5560, 841.3774
859.0381, 848.5909
859.5202, 856.6708
860.0023, 859.0188
860.4844, 848.9088
860.9666, 832.7271
861.4487, 831.3261
861.9308, 848.5535
862.4129, 855.3905
862.8950, 846.5206
863.3771, 838.4336
863.8593, 838.5271
864.3414, 842.6747
864.8235, 845.3174
865.3056, 846.2596
865.7877, 848.1349
866.2698, 854.6793
866.7520, 856.9075
867.2341, 849.3209
867.7162, 841.2004
868.1983, 839.1084
868.6804, 841.2842
869.1625, 842.5529
869.6447, 841.0761
870.1268, 842.1362
870.6089, 852.9313
871.0910, 860.9028
871.5731, 855.5049
872.0552, 843.7790
872.5374, 834.4529
873.0195, 829.5331
873.5016, 828.3988
873.9837, 832.4636
874.4658, 837.4286
874.9479, 839.4122
875.4301, 839.6472
875.9122, 839.9052
876.3943, 840.2629
876.8764, 839.5999
877.3585, 837.4493
877.8406, 836.3946
878.3228, 842.0503
878.8049, 850.4919
879.2870, 849.2390
879.7691, 839.8153
880.2512, 831.8259
880.7333, 827.6161
881.2155, 825.8304
881.6976, 825.4792
882.1797, 826.5384
882.6618, 830.0202
883.1439, 836.4809
883.6260, 836.8635
884.1082, 829.1218
884.5903, 822.0591
885.0724, 818.9097
885.5545, 819.3052
886.0366, 823.7811
886.5187, 832.3335
887.0009, 835.3792
887.4830, 828.3453
887.9651, 824.7986
888.4472, 829.6652
888.9293, 834.9205
889.4114, 834.9357
889.8936, 831.9179
890.3757, 830.4083
890.8578, 830.9701
891.3399, 831.4669
891.8220, 833.0304
892.3041, 832.8577
892.7863, 826.6978
893.2684, 820.6386
893.7505, 823.5518
894.2326, 833.0450
894.7147, 835.1298
895.1968, 819.6682
895.6790, 808.0166
896.1611, 813.4678
896.6432, 823.9885
897.1253, 831.7435
897.6074, 835.6830
898.0895, 835.1168
898.5717, 830.1793
899.0538, 823.6033
899.5359, 813.1268
900.0180, 806.2223
900.5001, 816.0681
900.9822, 832.7891
901.4644, 838.4709
901.9465, 832.7513
902.4286, 824.9870
902.9107, 819.6931
903.3928, 816.6066
903.8749, 816.7092
904.3571, 818.3359
904.8392, 815.5339
905.3213, 809.6937
905.8034, 809.7967
906.2855, 817.7856
906.7676, 824.6949
907.2498, 822.8425
907.7319, 816.8270
908.2140, 818.5834
908.6961, 827.8243
909.1782, 833.6699
909.6603, 835.4505
910.1425, 832.9549
910.6246, 824.8320
911.1067, 817.7343
911.5888, 820.7234
912.0709, 832.3147
912.5530, 837.7286
913.0352, 835.9785
913.5173, 830.8655
913.9994, 819.7679
914.4815, 812.4238
914.9636, 816.5380
915.4457, 826.1284
915.9279, 829.9108
916.4100, 827.0391
916.8921, 822.9580
917.3742, 814.5383
917.8563, 809.7692
918.3384, 815.6991
918.8206, 820.8039
919.3027, 812.5693
919.7848, 797.0928
920.2669, 793.5619
920.7490, 809.5813
921.2311, 820.6000
921.7133, 819.8062
922.1954, 818.2188
922.6775, 819.7259
923.1596, 823.2471
923.6417, 830.9330
924.1238, 840.4069
924.6060, 838.6616
925.0881, 811.1006
925.5702, 791.2104
926.0523, 797.8016
926.5344, 810.8234
927.0165, 818.5487
927.4986, 820.6775
927.9807, 816.2372
928.4628, 806.1721
928.9449, 801.2318
929.4271, 814.0835
929.9092, 826.0569
930.3913, 819.8109
930.8734, 807.9826
931.3555, 806.2932
931.8376, 812.8680
932.3198, 817.7319
932.8019, 817.2215
933.2840, 816.0726
933.7661, 821.3322
934.2482, 825.5792
934.7303, 816.1129
935.2125, 799.9092
935.6946, 791.4260
936.1767, 791.7067
936.6588, 792.3290
937.1409, 788.3758
937.6230, 786.4246
938.1052, 799.1529
938.5873, 818.0060
939.0694, 823.2934
939.5515, 817.2421
940.0336, 810.0800
940.5157, 804.5283
940.9979, 798.7416
941.4800, 791.0221
941.9621, 783.3946
942.4442, 778.2863
942.9263, 776.5103
943.4084, 784.7928
943.8906, 802.3165
944.3727, 815.4364
944.8548, 819.3923
945.3369, 817.8772
945.8190, 813.9409
946.3011, 808.5969
946.7833, 805.2988
947.2654, 804.0090
947.7475, 803.1415
948.2296, 802.6025
948.7117, 801.6909
949.1938, 800.0176
949.6760, 798.1517
950.1581, 796.6660
950.6402, 795.7012
951.1223, 797.0323
951.6044, 801.3591
952.0865, 803.4124
952.5687, 802.5222
953.0508, 798.0838
953.5329, 787.4949
954.0150, 777.6978
954.4971, 782.4033
954.9792, 802.7932
955.4614, 811.7581
955.9435, 805.0773
956.4256, 799.7063
956.9077, 798.2917
957.3898, 800.0398
957.8719, 805.3989
958.3541, 812.7918
958.8362, 819.0447
959.3183, 825.0907
959.8004, 825.1904
960.2825, 815.8276
960.7646, 807.1619
961.2468, 799.5358
961.7289, 796.1306
962.2110, 803.2676
962.6931, 815.9851
963.1752, 817.0742
963.6573, 800.1113
964.1395, 788.1725
964.6216, 779.5322
965.1037, 778.4250
965.5858, 793.9424
966.0679, 810.8990
966.5500, 813.9094
967.0322, 806.2256
967.5143, 803.3010
967.9964, 810.6765
968.4785, 812.5711
968.9606, 800.6264
969.4427, 792.4818
969.9249, 799.6926
970.4070, 810.1125
970.8891, 809.6485
971.3712, 799.8571
971.8533, 794.9402
972.3354, 799.4606
972.8176, 803.6879
973.2997, 809.5969
973.7818, 811.2466
974.2639, 801.5267
974.7460, 788.6281
975.2281, 781.3453
975.7103, 780.3946
976.1924, 784.7028
976.6745, 801.9860
977.1566, 812.8208
977.6387, 807.6710
978.1208, 800.7076
978.6030, 801.3401
979.0851, 804.7991
979.5672, 803.9890
980.0493, 798.2458
980.5314, 790.9321
981.0135, 777.6552
981.4957, 770.3134
981.9778, 777.8241
982.4599, 787.1261
982.9420, 789.3965
983.4241, 787.2245
983.9063, 784.4739
984.3884, 781.9884
984.8705, 782.8746
985.3526, 792.1024
985.8347, 799.5789
986.3168, 801.1085
986.7990, 799.6711
987.2811, 797.0991
987.7632, 793.4595
988.2453, 786.6099
988.7274, 776.4113
989.2095, 773.0514
989.6917, 789.0343
990.1738, 801.4641
990.6559, 796.9908
991.1380, 787.3585
991.6201, 781.6056
992.1022, 778.8953
992.5844, 776.1279
993.0665, 772.6255
993.5486, 768.0984
994.0307, 759.5630
994.5128, 753.6168
994.9949, 755.2860
995.4771, 759.5635
995.9592, 762.9108
996.4413, 764.8774
996.9234, 765.0016
997.4055, 763.1520
997.8876, 762.8180
998.3698, 766.6302
998.8519, 770.9991
999.3340, 775.6812
999.8161, 778.6608
1000.298, 778.1096
1000.780, 774.3411
1001.262, 766.8185
1001.745, 755.2634
1002.227, 748.4747
1002.709, 751.0397
1003.191, 758.6718
1003.673, 775.3832
1004.155, 790.7010
1004.637, 792.8521
1005.119, 785.8090
1005.602, 779.1815
1006.084, 775.2433
1006.566, 773.7052
1007.048, 777.9401
1007.530, 780.2215
1008.012, 772.4916
1008.494, 764.2513
1008.976, 767.6327
1009.458, 776.8283
1009.941, 776.0337
1010.423, 761.2209
1010.905, 751.2501
1011.387, 758.3081
1011.869, 766.8187
1012.351, 768.2167
1012.833, 768.1425
1013.315, 774.6091
1013.797, 782.9142
1014.280, 780.6017
1014.762, 764.6846
1015.244, 753.6337
1015.726, 759.4984
1016.208, 765.4080
1016.690, 762.0493
1017.172, 756.8651
1017.654, 756.6843
1018.137, 759.4927
1018.619, 759.1699
1019.101, 754.4853
1019.583, 755.3178
1020.065, 771.2214
1020.547, 784.9901
1021.029, 792.5732
1021.511, 792.9050
1021.993, 778.0461
1022.476, 758.3727
1022.958, 755.0897
1023.440, 771.3594
1023.922, 777.9797
1024.404, 754.7686
1024.886, 737.5289
1025.368, 742.1485
1025.850, 751.8314
1026.333, 756.7321
1026.815, 757.9368
1027.297, 757.4183
1027.779, 755.5156
1028.261, 756.4708
1028.743, 764.7065
1029.225, 770.7708
1029.707, 772.5346
1030.189, 771.4634
1030.672, 766.6478
1031.154, 760.5019
1031.636, 755.1569
1032.118, 750.9872
1032.600, 752.2579
1033.082, 767.2236
1033.564, 776.0535
1034.046, 771.7552
1034.528, 765.6485
1035.011, 764.1216
1035.493, 763.3220
1035.975, 755.8214
1036.457, 742.4204
1036.939, 738.1228
1037.421, 752.4635
1037.903, 761.6456
1038.385, 763.4794
1038.868, 761.5396
1039.350, 754.2915
1039.832, 746.1903
1040.314, 742.8262
1040.796, 743.2181
1041.278, 740.1396
1041.760, 725.4860
1042.242, 724.5140
1042.724, 748.8024
1043.207, 767.1206
1043.689, 766.2938
1044.171, 759.4026
1044.653, 758.3489
1045.135, 761.5151
1045.617, 762.4279
1046.099, 760.8477
1046.581, 757.2443
1047.063, 748.9592
1047.546, 746.3864
1048.028, 756.5945
1048.510, 763.9818
1048.992, 753.5218
1049.474, 733.7502
1049.956, 728.3022
1050.438, 739.2935
1050.920, 747.8224
1051.403, 753.9664
1051.885, 756.7938
1052.367, 755.2766
1052.849, 753.8871
1053.331, 756.0856
1053.813, 759.1305
1054.295, 757.2440
1054.777, 750.7126
1055.260, 746.9512
1055.742, 746.0499
1056.224, 745.7319
1056.706, 745.6093
1057.188, 745.7943
1057.670, 746.3657
1058.152, 747.2241
1058.634, 748.7051
1059.116, 750.0991
1059.599, 747.7645
1060.081, 742.1704
1060.563, 736.4808
1061.045, 731.3101
1061.527, 729.0699
1062.009, 730.7963
1062.491, 734.0966
1062.973, 736.8315
1063.455, 738.7031
1063.938, 738.9407
1064.420, 737.7404
1064.902, 733.7448
1065.384, 728.6430
1065.866, 730.7791
1066.348, 742.0411
1066.830, 753.6145
1067.312, 759.2715
1067.795, 760.0062
1068.277, 754.2969
1068.759, 746.2198
1069.241, 743.0453
1069.723, 743.3540
1070.205, 742.5497
1070.687, 739.9868
1071.169, 738.0873
1071.651, 737.8182
1072.134, 740.2433
1072.616, 750.6848
1073.098, 760.1437
1073.580, 759.2545
1074.062, 751.0858
1074.544, 735.4889
1075.026, 717.7057
1075.508, 714.0441
1075.990, 732.1439
1076.473, 747.8948
1076.955, 747.1841
1077.437, 741.9460
1077.919, 736.6312
1078.401, 732.5403
1078.883, 729.8875
1079.365, 729.5286
1079.847, 734.6907
1080.329, 746.3907
1080.812, 752.7033
1081.294, 746.5682
1081.776, 740.2098
1082.258, 735.2051
1082.740, 732.9056
1083.222, 735.8362
1083.704, 741.0130
1084.186, 745.3743
1084.669, 748.6069
1085.151, 746.4612
1085.633, 729.6156
1086.115, 723.0098
1086.597, 733.5844
1087.079, 744.9755
1087.561, 753.0461
1088.043, 757.2987
1088.526, 756.5222
1089.008, 751.7551
1089.490, 747.1248
1089.972, 743.1571
1090.454, 736.6817
1090.936, 726.2516
1091.418, 718.2184
1091.900, 713.4802
1092.382, 714.9883
1092.865, 726.3561
1093.347, 741.3637
1093.829, 747.9882
1094.311, 746.8364
1094.793, 746.6852
1095.275, 747.4870
1095.757, 745.1826
1096.239, 739.2579
1096.721, 739.3801
1097.204, 750.5787
1097.686, 758.5634
1098.168, 743.6202
1098.650, 718.1799
1099.132, 712.8997
1099.614, 721.9962
1100.096, 729.3380
1100.578, 733.4304
1101.061, 734.5417
1101.543, 733.4213
1102.025, 735.0613
1102.507, 744.3601
1102.989, 753.2361
1103.471, 751.8419
1103.953, 745.3279
1104.435, 737.1853
1104.917, 730.5869
1105.400, 731.9517
1105.882, 739.8771
1106.364, 746.1624
1106.846, 747.7832
1107.328, 746.4112
1107.810, 739.4279
1108.292, 734.0317
1108.774, 736.9549
1109.256, 741.5838
1109.739, 739.8893
1110.221, 735.4423
1110.703, 738.1343
1111.185, 749.6530
1111.667, 755.0069
1112.149, 746.9934
1112.631, 738.8580
1113.113, 730.2036
1113.596, 725.1929
1114.078, 729.6401
1114.560, 735.8161
1115.042, 734.4583
1115.524, 727.2219
1116.006, 723.7826
1116.488, 725.5312
1116.970, 727.1012
1117.453, 728.7610
1117.935, 729.3950
1118.417, 728.4293
1118.899, 727.0805
1119.381, 725.9758
1119.863, 725.6335
1120.345, 726.9473
1120.827, 729.9497
1121.309, 736.6351
1121.792, 746.5955
1122.274, 748.7037
1122.756, 741.8102
1123.238, 737.4880
1123.720, 740.7701
1124.202, 745.6226
1124.684, 745.7546
1125.166, 743.8312
1125.648, 745.1990
1126.131, 748.0844
1126.613, 750.1143
1127.095, 749.7973
1127.577, 741.2119
1128.059, 725.6137
1128.541, 715.7199
1129.023, 719.1411
1129.505, 725.4756
1129.988, 728.3964
1130.470, 728.7339
1130.952, 724.9984
1131.434, 720.7518
1131.916, 719.8810
1132.398, 722.1470
1132.880, 727.2007
1133.362, 735.1949
1133.844, 737.9932
1134.327, 727.5947
1134.809, 720.0583
1135.291, 719.3436
1135.773, 722.6700
1136.255, 734.4357
1136.737, 745.0540
1137.219, 740.3304
1137.701, 724.1646
1138.183, 718.2021
1138.666, 727.5555
1139.148, 731.1151
1139.630, 726.5880
1140.112, 723.1703
1140.594, 722.6259
1141.076, 725.6782
1141.558, 733.5179
1142.040, 743.0792
1142.523, 750.1706
1143.005, 754.0327
1143.487, 746.4257
1143.969, 729.7087
1144.451, 725.6957
1144.933, 735.1558
1145.415, 744.4658
1145.897, 748.6006
1146.380, 751.0994
1146.862, 755.8160
1147.344, 756.9869
1147.826, 742.1461
1148.308, 722.5651
1148.790, 714.9348
1149.272, 715.3447
1149.754, 715.6688
1150.236, 715.1056
1150.719, 716.3018
1151.201, 720.1401
1151.683, 726.2073
1152.165, 738.4126
1152.647, 747.3876
1153.129, 744.7960
1153.611, 741.2919
1154.093, 749.6820
1154.575, 759.7051
1155.058, 751.1530
1155.540, 725.2858
1156.022, 714.5615
1156.504, 730.6118
1156.986, 738.5859
1157.468, 734.1998
1157.950, 731.0000
1158.432, 733.7568
1158.915, 735.4523
1159.397, 729.5710
1159.879, 722.6944
1160.361, 728.7341
1160.843, 745.2816
1161.325, 748.2269
1161.807, 738.6558
1162.289, 735.9531
1162.771, 741.6719
1163.254, 746.7380
1163.736, 747.8655
1164.218, 747.4004
1164.700, 747.4463
1165.182, 746.1393
1165.664, 738.8753
1166.146, 730.2701
1166.628, 726.8317
1167.110, 727.4296
1167.593, 730.2637
1168.075, 734.5180
1168.557, 739.5840
1169.039, 745.3563
1169.521, 749.2242
1170.003, 749.5438
1170.485, 748.3953
1170.967, 744.4091
1171.450, 741.6475
1171.932, 745.8672
1172.414, 750.6711
1172.896, 745.9734
1173.378, 734.0400
1173.860, 727.4166
1174.342, 727.9498
1174.824, 727.1088
1175.306, 723.0724
1175.789, 724.2748
1176.271, 734.1277
1176.753, 742.7874
1177.235, 744.9106
1177.717, 741.9351
1178.199, 734.9366
1178.681, 725.4540
1179.163, 716.1072
1179.646, 708.8773
1180.128, 716.8922
1180.610, 735.5251
1181.092, 741.2297
1181.574, 730.4858
1182.056, 720.5063
1182.538, 720.8485
1183.020, 722.9070
1183.502, 715.4755
1183.984, 710.8447
1184.467, 727.9425
1184.949, 746.2737
1185.431, 739.3399
1185.913, 718.6032
1186.395, 707.5661
1186.877, 709.1283
1187.359, 714.8063
1187.841, 728.4914
1188.324, 736.1768
1188.806, 733.7268
1189.288, 729.9799
1189.770, 725.9911
1190.252, 723.5764
1190.734, 724.6203
1191.216, 727.1312
1191.698, 727.6945
1192.181, 726.3372
1192.663, 721.4048
1193.145, 713.4141
1193.627, 717.1349
1194.109, 732.2368
1194.591, 738.6845
1195.073, 731.0581
1195.555, 723.3378
1196.037, 725.6934
1196.520, 727.9034
1197.002, 711.1124
1197.484, 694.2037
1197.966, 706.4044
1198.448, 728.8354
1198.930, 735.0444
1199.412, 728.4965
1199.894, 722.8596
1200.376, 720.9446
1200.859, 720.5807
1201.341, 723.6735
1201.823, 723.6746
1202.305, 716.1411
1202.787, 709.6283
1203.269, 705.7631
1203.751, 705.6998
1204.233, 712.1110
1204.716, 720.8309
1205.198, 723.6936
1205.680, 721.2128
1206.162, 721.2643
1206.644, 723.8908
1207.126, 723.4255
1207.608, 719.5761
1208.090, 716.8525
1208.573, 716.6328
1209.055, 718.0220
1209.537, 720.6092
1210.019, 722.8990
1210.501, 723.4413
1210.983, 722.3121
1211.465, 717.7782
1211.947, 712.9767
1212.429, 712.4154
1212.911, 715.0491
1213.394, 718.2684
1213.876, 721.4197
1214.358, 724.1267
1214.840, 728.0652
1215.322, 727.7653
1215.804, 718.5830
1216.286, 710.3393
1216.768, 705.3290
1217.251, 702.4027
1217.733, 700.9321
1218.215, 701.0467
1218.697, 703.2853
1219.179, 707.1503
1219.661, 708.9243
1220.143, 708.9275
1220.625, 714.1785
1221.108, 723.8644
1221.590, 727.2382
1222.072, 722.4141
1222.554, 716.7036
1223.036, 713.9915
1223.518, 713.0082
1224.000, 715.8162
1224.482, 716.0441
1224.964, 703.5192
1225.447, 689.1797
1225.929, 684.0894
1226.411, 685.3012
1226.893, 687.1158
1227.375, 689.2554
1227.857, 695.3591
1228.339, 711.0626
1228.821, 712.9707
1229.303, 686.7485
1229.786, 677.5339
1230.268, 699.3807
1230.750, 719.6373
1231.232, 722.7987
1231.714, 717.7773
1232.196, 712.9344
1232.678, 709.4511
1233.160, 711.5091
1233.643, 717.1315
1234.125, 719.4111
1234.607, 718.8309
1235.089, 718.6262
1235.571, 717.7580
1236.053, 707.8429
1236.535, 687.6366
1237.017, 676.8760
1237.500, 692.7829
1237.982, 708.9403
1238.464, 711.7519
1238.946, 711.0854
1239.428, 711.3853
1239.910, 711.8785
1240.392, 712.9458
1240.874, 712.7385
1241.356, 706.5771
1241.839, 694.8373
1242.321, 690.5174
1242.803, 694.4999
1243.285, 700.5015
1243.767, 708.3515
1244.249, 709.1955
1244.731, 700.9033
1245.213, 692.7311
1245.695, 690.2236
1246.178, 691.1487
1246.660, 694.1064
1247.142, 697.7993
1247.624, 702.5046
1248.106, 705.2819
1248.588, 698.8175
1249.070, 689.8626
1249.552, 692.1753
1250.035, 703.3785
1250.517, 706.1167
1250.999, 693.7902
1251.481, 688.5024
1251.963, 698.2755
1252.445, 703.3929
1252.927, 699.7850
1253.409, 695.9036
1253.891, 695.1773
1254.374, 695.2531
1254.856, 693.9746
1255.338, 692.2482
1255.820, 691.9637
1256.302, 692.7488
1256.784, 692.7651
1257.266, 693.0519
1257.748, 698.1425
1258.230, 705.7263
1258.713, 707.8450
1259.195, 703.2773
1259.677, 697.8313
1260.159, 693.5809
1260.641, 690.0451
1261.123, 684.4826
1261.605, 683.1244
1262.087, 694.9465
1262.570, 703.5455
1263.052, 694.9106
1263.534, 684.2897
1264.016, 691.7839
1264.498, 710.6307
1264.980, 716.0930
1265.462, 708.4589
1265.944, 690.4940
##END=



