##NAMES=Pabstite
##RRUFFID=R060386
##IDEAL CHEMISTRY=BaSnSi_3_O_9_
##LOCALITY=Kalkar Quarry, Santa Cruz County, California, USA
##OWNER=RRUFF
##SOURCE=Michael Scott
##DESCRIPTION=Colorless, with a faint hint of pink, lamellar crystals associated with actinolite, diopside and calcite. Strongly fluorescent under short-wave ultraviolet light
##STATUS=The identification of this mineral is confirmed by single-crystal X-ray diffraction and chemical analysis.
##URL=rruff.info/R060386
##MEASURED CHEMISTRY=Ba_1.00_(Sn_0.76_Ti_0.24_)_Î£=1_Si_3.00_O_9_; trace amounts of Fe
217.4427, 23918.55
217.9249, 23919.96
218.4070, 23923.83
218.8891, 23915.41
219.3712, 23893.83
219.8533, 23890.86
220.3354, 23911.36
220.8176, 23947.38
221.2997, 24012.90
221.7818, 24092.58
222.2639, 24157.91
222.7460, 24187.11
223.2281, 24183.84
223.7103, 24184.97
224.1924, 24181.71
224.6745, 24194.10
225.1566, 24232.94
225.6387, 24288.60
226.1208, 24349.07
226.6030, 24408.45
227.0851, 24464.59
227.5672, 24508.92
228.0493, 24545.52
228.5314, 24562.15
229.0135, 24554.62
229.4957, 24528.47
229.9778, 24487.43
230.4599, 24432.77
230.9420, 24369.55
231.4241, 24307.95
231.9062, 24238.79
232.3884, 24189.53
232.8705, 24175.25
233.3526, 24172.83
233.8347, 24161.12
234.3168, 24133.42
234.7989, 24099.63
235.2811, 24075.97
235.7632, 24062.42
236.2453, 24060.00
236.7274, 24085.80
237.2095, 24109.59
237.6916, 24098.45
238.1738, 24051.74
238.6559, 24011.26
239.1380, 24038.79
239.6201, 24161.33
240.1022, 24251.86
240.5843, 24278.12
241.0665, 24294.29
241.5486, 24326.21
242.0307, 24374.26
242.5128, 24422.65
242.9949, 24448.79
243.4770, 24447.94
243.9592, 24483.56
244.4413, 24592.49
244.9234, 24706.01
245.4055, 24800.90
245.8876, 24879.61
246.3697, 24952.26
246.8519, 25022.92
247.3340, 25093.55
247.8161, 25176.88
248.2982, 25270.58
248.7803, 25383.09
249.2624, 25515.39
249.7446, 25666.86
250.2267, 25836.80
250.7088, 26028.67
251.1909, 26236.18
251.6730, 26443.31
252.1551, 26653.60
252.6373, 26857.35
253.1194, 27044.97
253.6015, 27227.46
254.0836, 27415.22
254.5657, 27611.05
255.0478, 27816.62
255.5300, 28038.42
256.0121, 28279.93
256.4942, 28522.47
256.9763, 28752.94
257.4584, 28986.68
257.9406, 29235.13
258.4227, 29500.26
258.9048, 29785.16
259.3869, 30108.03
259.8690, 30472.26
260.3511, 30804.29
260.8333, 31042.31
261.3154, 31291.22
261.7975, 31651.69
262.2796, 32117.63
262.7617, 32564.97
263.2438, 32908.83
263.7260, 33159.72
264.2081, 33379.94
264.6902, 33595.38
265.1723, 33744.11
265.6544, 33791.36
266.1365, 33746.50
266.6187, 33630.14
267.1008, 33455.07
267.5829, 33214.54
268.0650, 32890.55
268.5471, 32477.56
269.0292, 31999.97
269.5114, 31433.58
269.9935, 30818.79
270.4756, 30214.89
270.9577, 29627.00
271.4398, 29064.81
271.9219, 28538.07
272.4041, 28045.90
272.8862, 27588.22
273.3683, 27164.10
273.8504, 26779.26
274.3325, 26438.21
274.8146, 26148.58
275.2968, 25888.66
275.7789, 25650.04
276.2610, 25430.87
276.7431, 25219.23
277.2252, 25005.66
277.7073, 24805.93
278.1895, 24647.55
278.6716, 24534.74
279.1537, 24431.40
279.6358, 24321.17
280.1179, 24213.12
280.6000, 24122.84
281.0822, 24053.40
281.5643, 24002.80
282.0464, 23978.59
282.5285, 23985.20
283.0106, 23963.02
283.4927, 23876.26
283.9749, 23776.31
284.4570, 23711.03
284.9391, 23683.12
285.4212, 23664.55
285.9033, 23633.33
286.3854, 23589.74
286.8676, 23552.36
287.3497, 23507.44
287.8318, 23481.09
288.3139, 23508.55
288.7960, 23567.18
289.2781, 23593.94
289.7603, 23549.74
290.2424, 23454.30
290.7245, 23391.32
291.2066, 23382.73
291.6887, 23376.76
292.1708, 23375.33
292.6530, 23368.99
293.1351, 23345.27
293.6172, 23299.90
294.0993, 23239.03
294.5814, 23171.53
295.0635, 23075.29
295.5457, 23017.29
296.0278, 23024.41
296.5099, 23047.55
296.9920, 23055.28
297.4741, 23042.74
297.9562, 23019.85
298.4384, 22995.08
298.9205, 22966.74
299.4026, 22948.50
299.8847, 22954.46
300.3668, 22956.16
300.8489, 22937.26
301.3310, 22906.39
301.8131, 22882.29
302.2953, 22877.20
302.7774, 22888.83
303.2595, 22907.37
303.7416, 22948.74
304.2237, 22972.23
304.7058, 22957.30
305.1880, 22927.60
305.6701, 22906.10
306.1522, 22901.04
306.6343, 22910.88
307.1164, 22939.39
307.5985, 22996.51
308.0807, 23034.67
308.5628, 23038.07
309.0449, 23024.26
309.5270, 22994.96
310.0091, 22953.07
310.4912, 22915.23
310.9734, 22897.54
311.4555, 22898.31
311.9376, 22899.16
312.4197, 22896.78
312.9018, 22897.73
313.3839, 22908.02
313.8661, 22924.58
314.3482, 22939.41
314.8303, 22952.03
315.3124, 22959.38
315.7945, 22954.46
316.2766, 22935.81
316.7588, 22913.35
317.2409, 22889.63
317.7230, 22866.48
318.2051, 22846.91
318.6872, 22831.72
319.1693, 22819.57
319.6515, 22805.81
320.1336, 22793.13
320.6157, 22792.78
321.0978, 22807.53
321.5799, 22838.11
322.0620, 22891.98
322.5442, 22973.00
323.0263, 23046.13
323.5084, 23106.75
323.9905, 23152.05
324.4726, 23172.19
324.9547, 23165.79
325.4369, 23155.73
325.9190, 23163.60
326.4011, 23191.54
326.8832, 23220.02
327.3653, 23250.77
327.8474, 23280.58
328.3296, 23301.87
328.8117, 23319.96
329.2938, 23350.18
329.7759, 23402.38
330.2580, 23472.52
330.7401, 23540.76
331.2223, 23625.53
331.7044, 23685.68
332.1865, 23678.47
332.6686, 23662.23
333.1507, 23718.17
333.6328, 23864.90
334.1150, 24026.99
334.5971, 24077.27
335.0792, 23927.73
335.5613, 23908.52
336.0434, 24144.19
336.5255, 24383.97
337.0077, 24478.62
337.4898, 24454.74
337.9719, 24437.25
338.4540, 24525.32
338.9361, 24708.21
339.4182, 24894.28
339.9004, 25113.02
340.3825, 25285.87
340.8646, 25403.62
341.3467, 25464.85
341.8288, 25466.16
342.3109, 25405.03
342.7931, 25291.25
343.2752, 25132.04
343.7573, 24922.71
344.2394, 24696.28
344.7215, 24420.23
345.2036, 24162.73
345.6858, 23988.46
346.1679, 23897.95
346.6500, 23812.86
347.1321, 23656.99
347.6142, 23469.17
348.0963, 23365.51
348.5785, 23375.03
349.0606, 23414.10
349.5427, 23434.03
350.0248, 23433.04
350.5069, 23400.33
350.9890, 23283.34
351.4712, 23173.81
351.9533, 23161.32
352.4354, 23229.52
352.9175, 23288.80
353.3996, 23291.30
353.8817, 23265.53
354.3639, 23291.85
354.8460, 23397.43
355.3281, 23485.57
355.8102, 23505.94
356.2923, 23510.61
356.7744, 23572.96
357.2566, 23705.35
357.7387, 23844.27
358.2208, 23914.54
358.7029, 23897.15
359.1850, 23917.62
359.6671, 23975.31
360.1493, 24064.50
360.6314, 24198.69
361.1135, 24361.81
361.5956, 24524.88
362.0777, 24672.55
362.5598, 24804.52
363.0420, 24917.67
363.5241, 24981.37
364.0062, 25076.97
364.4883, 25219.55
364.9704, 25390.15
365.4525, 25580.32
365.9347, 25784.71
366.4168, 25991.29
366.8989, 26181.15
367.3810, 26353.98
367.8631, 26538.93
368.3452, 26734.89
368.8274, 26948.48
369.3095, 27202.39
369.7916, 27476.18
370.2737, 27718.56
370.7558, 27889.66
371.2379, 28029.09
371.7201, 28205.04
372.2022, 28421.29
372.6843, 28635.22
373.1664, 28832.58
373.6485, 29013.34
374.1306, 29184.88
374.6128, 29354.23
375.0949, 29489.10
375.5770, 29572.71
376.0591, 29608.98
376.5412, 29604.76
377.0233, 29561.38
377.5055, 29477.72
377.9876, 29349.74
378.4697, 29172.74
378.9518, 28969.66
379.4339, 28744.02
379.9160, 28489.92
380.3982, 28189.75
380.8803, 27857.83
381.3624, 27532.14
381.8445, 27231.71
382.3266, 26956.58
382.8087, 26702.23
383.2909, 26490.13
383.7730, 26274.48
384.2551, 26046.00
384.7372, 25819.50
385.2193, 25601.54
385.7014, 25396.17
386.1836, 25209.38
386.6657, 25049.42
387.1478, 24918.07
387.6299, 24790.77
388.1120, 24659.88
388.5941, 24542.13
389.0763, 24440.58
389.5584, 24355.82
390.0405, 24290.40
390.5226, 24246.02
391.0047, 24217.33
391.4868, 24202.52
391.9690, 24205.02
392.4511, 24185.91
392.9332, 24101.11
393.4153, 24022.69
393.8974, 24030.58
394.3795, 24124.28
394.8617, 24207.36
395.3438, 24220.04
395.8259, 24196.35
396.3080, 24194.70
396.7901, 24221.20
397.2722, 24248.52
397.7544, 24259.48
398.2365, 24254.75
398.7186, 24243.70
399.2007, 24226.68
399.6828, 24203.34
400.1649, 24177.20
400.6471, 24143.82
401.1292, 24097.95
401.6113, 24037.53
402.0934, 23958.02
402.5755, 23850.70
403.0576, 23708.05
403.5398, 23559.34
404.0219, 23392.63
404.5040, 23230.30
404.9861, 23084.88
405.4682, 22953.06
405.9503, 22824.31
406.4325, 22690.54
406.9146, 22557.95
407.3967, 22454.13
407.8788, 22399.69
408.3609, 22331.90
408.8430, 22221.87
409.3252, 22105.47
409.8073, 22006.48
410.2894, 21929.71
410.7715, 21873.95
411.2536, 21853.95
411.7357, 21858.87
412.2179, 21828.49
412.7000, 21745.93
413.1821, 21659.63
413.6642, 21596.66
414.1463, 21554.33
414.6284, 21534.14
415.1106, 21550.89
415.5927, 21571.89
416.0748, 21575.77
416.5569, 21564.75
417.0390, 21544.36
417.5211, 21515.61
418.0033, 21481.27
418.4854, 21443.74
418.9675, 21399.21
419.4496, 21366.09
419.9317, 21356.88
420.4138, 21349.83
420.8960, 21325.49
421.3781, 21289.21
421.8602, 21261.80
422.3423, 21257.43
422.8244, 21270.51
423.3065, 21277.05
423.7887, 21275.14
424.2708, 21269.07
424.7529, 21266.59
425.2350, 21255.84
425.7171, 21210.36
426.1992, 21135.15
426.6814, 21083.49
427.1635, 21129.61
427.6456, 21261.59
428.1277, 21329.01
428.6098, 21310.64
429.0919, 21267.37
429.5741, 21217.03
430.0562, 21166.08
430.5383, 21125.25
431.0204, 21099.14
431.5025, 21079.06
431.9846, 21053.41
432.4668, 21027.05
432.9489, 21021.23
433.4310, 21045.78
433.9131, 21077.18
434.3952, 21087.70
434.8773, 21075.17
435.3595, 21061.22
435.8416, 21037.09
436.3237, 21020.73
436.8058, 21033.83
437.2879, 21063.94
437.7701, 21078.82
438.2522, 21061.46
438.7343, 21022.16
439.2164, 20985.13
439.6985, 20935.85
440.1806, 20916.80
440.6628, 20949.48
441.1449, 20991.33
441.6270, 21021.82
442.1091, 21036.56
442.5912, 21033.68
443.0733, 21004.16
443.5555, 20958.82
444.0376, 20943.12
444.5197, 20968.47
445.0018, 20991.54
445.4839, 20996.06
445.9660, 20989.88
446.4482, 20979.07
446.9303, 20964.12
447.4124, 20946.72
447.8945, 20914.65
448.3766, 20883.47
448.8587, 20896.72
449.3409, 20963.76
449.8230, 21024.34
450.3051, 21025.73
450.7872, 20975.22
451.2693, 20953.00
451.7514, 20974.91
452.2336, 21004.21
452.7157, 21033.17
453.1978, 21060.75
453.6799, 21085.67
454.1620, 21107.59
454.6441, 21127.04
455.1263, 21143.21
455.6084, 21153.40
456.0905, 21175.40
456.5726, 21238.47
457.0547, 21282.91
457.5368, 21265.39
458.0190, 21223.12
458.5011, 21218.38
458.9832, 21280.85
459.4653, 21373.36
459.9474, 21445.26
460.4295, 21495.99
460.9117, 21544.76
461.3938, 21586.73
461.8759, 21639.72
462.3580, 21729.06
462.8401, 21846.82
463.3222, 21951.84
463.8044, 22038.33
464.2865, 22103.80
464.7686, 22134.09
465.2507, 22138.28
465.7328, 22149.74
466.2149, 22182.12
466.6971, 22232.57
467.1792, 22298.21
467.6613, 22407.15
468.1434, 22468.81
468.6255, 22444.73
469.1076, 22407.84
469.5898, 22405.97
470.0719, 22431.75
470.5540, 22452.73
471.0361, 22448.98
471.5182, 22425.29
472.0003, 22395.01
472.4825, 22359.01
472.9646, 22314.53
473.4467, 22242.02
473.9288, 22174.82
474.4109, 22151.43
474.8930, 22165.29
475.3752, 22149.40
475.8573, 22038.72
476.3394, 21884.60
476.8215, 21777.10
477.3036, 21718.85
477.7857, 21663.67
478.2679, 21589.29
478.7500, 21503.03
479.2321, 21417.32
479.7142, 21316.58
480.1963, 21253.85
480.6784, 21285.54
481.1606, 21328.49
481.6427, 21289.68
482.1248, 21177.14
482.6069, 21079.30
483.0890, 21065.88
483.5711, 21117.96
484.0533, 21128.69
484.5354, 21069.79
485.0175, 21014.56
485.4996, 20975.51
485.9817, 20942.43
486.4638, 20905.87
486.9460, 20865.60
487.4281, 20831.06
487.9102, 20813.14
488.3923, 20806.40
488.8744, 20793.30
489.3565, 20772.21
489.8387, 20753.11
490.3208, 20737.36
490.8029, 20729.34
491.2850, 20738.69
491.7671, 20774.48
492.2492, 20801.31
492.7314, 20801.30
493.2135, 20789.28
493.6956, 20777.95
494.1777, 20770.55
494.6598, 20772.66
495.1419, 20790.71
495.6241, 20820.49
496.1062, 20835.08
496.5883, 20825.29
497.0704, 20812.14
497.5525, 20787.62
498.0346, 20767.59
498.5168, 20766.24
498.9989, 20784.27
499.4810, 20811.63
499.9631, 20847.06
500.4452, 20885.01
500.9273, 20898.34
501.4095, 20878.79
501.8916, 20870.82
502.3737, 20907.04
502.8558, 20958.24
503.3379, 20980.31
503.8200, 20970.20
504.3022, 20940.06
504.7843, 20867.51
505.2664, 20792.72
505.7485, 20766.56
506.2306, 20789.25
506.7127, 20830.35
507.1949, 20872.65
507.6770, 20912.94
508.1591, 20936.43
508.6412, 20925.24
509.1233, 20923.17
509.6054, 20922.25
510.0876, 20938.51
510.5697, 20993.58
511.0518, 21080.49
511.5339, 21165.56
512.0161, 21220.96
512.4982, 21259.35
512.9803, 21310.25
513.4624, 21370.09
513.9445, 21463.49
514.4266, 21605.76
514.9088, 21781.82
515.3909, 21971.52
515.8730, 22175.36
516.3551, 22387.33
516.8372, 22608.91
517.3193, 22835.75
517.8015, 23049.62
518.2836, 23262.49
518.7657, 23530.06
519.2478, 23884.84
519.7299, 24293.49
520.2120, 24675.13
520.6942, 25004.82
521.1763, 25357.89
521.6584, 25748.12
522.1405, 26145.04
522.6226, 26505.82
523.1047, 26861.47
523.5869, 27288.29
524.0690, 27845.36
524.5511, 28456.23
525.0332, 28974.21
525.5153, 29400.38
525.9974, 29913.20
526.4796, 30581.63
526.9617, 31307.03
527.4438, 31973.02
527.9259, 32591.35
528.4080, 33261.10
528.8901, 34068.14
529.3723, 34860.40
529.8544, 35608.15
530.3365, 36266.65
530.8186, 36759.06
531.3007, 37060.55
531.7828, 37174.99
532.2650, 37113.54
532.7471, 36882.78
533.2292, 36431.66
533.7113, 35700.34
534.1934, 34795.28
534.6755, 33658.43
535.1577, 32406.75
535.6398, 31171.28
536.1219, 29979.87
536.6040, 28852.73
537.0861, 27796.57
537.5682, 26820.86
538.0504, 25972.24
538.5325, 25267.15
539.0146, 24637.55
539.4967, 24039.76
539.9788, 23484.87
540.4609, 23033.95
540.9431, 22738.05
541.4252, 22457.49
541.9073, 22150.15
542.3894, 21854.80
542.8715, 21611.07
543.3536, 21419.08
543.8358, 21250.29
544.3179, 21080.98
544.8000, 20916.88
545.2821, 20786.64
545.7642, 20702.79
546.2463, 20618.76
546.7285, 20518.38
547.2106, 20417.57
547.6926, 20328.22
548.1747, 20250.45
548.6569, 20176.63
549.1390, 20098.84
549.6211, 20027.36
550.1032, 19974.40
550.5853, 19938.34
551.0674, 19915.41
551.5496, 19905.91
552.0317, 19897.76
552.5138, 19869.50
552.9959, 19809.70
553.4780, 19768.40
553.9601, 19732.29
554.4423, 19725.61
554.9244, 19776.11
555.4065, 19856.87
555.8886, 19921.44
556.3707, 19952.23
556.8528, 19987.58
557.3350, 20061.20
557.8171, 20175.90
558.2992, 20359.25
558.7813, 20622.46
559.2634, 20927.97
559.7455, 21262.34
560.2277, 21621.25
560.7098, 21983.07
561.1919, 22349.89
561.6740, 22717.46
562.1561, 23090.05
562.6382, 23459.07
563.1204, 23804.85
563.6025, 24134.65
564.0846, 24490.46
564.5667, 24909.53
565.0488, 25375.58
565.5309, 25817.68
566.0131, 26184.61
566.4952, 26656.05
566.9773, 27299.28
567.4594, 28035.43
567.9415, 28810.87
568.4236, 29634.88
568.9058, 30557.94
569.3879, 31630.13
569.8700, 32790.54
570.3521, 33997.05
570.8342, 35247.63
571.3163, 36588.37
571.7985, 38052.43
572.2806, 39437.99
572.7627, 40553.08
573.2448, 41445.86
573.7269, 41618.34
574.2090, 40899.80
574.6912, 39705.24
575.1733, 37912.04
575.6554, 35814.13
576.1375, 33638.02
576.6196, 31460.40
577.1017, 29409.41
577.5839, 27553.61
578.0660, 25914.67
578.5481, 24585.07
579.0302, 23580.56
579.5123, 22778.47
579.9944, 22159.46
580.4766, 21684.43
580.9587, 21300.97
581.4408, 21017.81
581.9229, 20759.85
582.4050, 20512.29
582.8871, 20294.05
583.3693, 20122.99
583.8514, 19991.50
584.3335, 19881.61
584.8156, 19786.23
585.2977, 19702.12
585.7798, 19623.50
586.2620, 19550.26
586.7441, 19488.44
587.2262, 19449.79
587.7083, 19402.61
588.1904, 19320.98
588.6725, 19220.92
589.1547, 19127.16
589.6368, 19042.39
590.1189, 18964.49
590.6010, 18891.25
591.0831, 18824.71
591.5652, 18763.48
592.0474, 18710.20
592.5295, 18679.71
593.0116, 18684.75
593.4937, 18711.80
593.9758, 18720.30
594.4579, 18710.38
594.9401, 18681.51
595.4222, 18606.08
595.9043, 18536.85
596.3864, 18504.15
596.8685, 18498.91
597.3506, 18496.05
597.8328, 18487.38
598.3149, 18476.31
598.7970, 18469.21
599.2791, 18461.78
599.7612, 18441.56
600.2433, 18406.03
600.7255, 18361.75
601.2076, 18308.19
601.6897, 18251.13
602.1718, 18238.65
602.6539, 18336.80
603.1360, 18389.02
603.6182, 18348.44
604.1003, 18286.32
604.5824, 18254.07
605.0645, 18251.42
605.5466, 18251.92
606.0287, 18244.32
606.5109, 18226.22
606.9930, 18180.62
607.4751, 18114.23
607.9572, 18088.09
608.4393, 18125.77
608.9214, 18173.38
609.4036, 18174.86
609.8857, 18129.90
610.3678, 18100.82
610.8499, 18089.42
611.3320, 18089.92
611.8141, 18120.04
612.2963, 18149.50
612.7784, 18146.72
613.2605, 18109.81
613.7426, 18057.45
614.2247, 17994.75
614.7068, 17934.01
615.1890, 17908.68
615.6711, 17919.97
616.1532, 17941.25
616.6353, 17968.96
617.1174, 17996.70
617.5995, 18017.37
618.0817, 18030.83
618.5638, 18041.51
619.0459, 18050.37
619.5280, 18055.58
620.0101, 18052.70
620.4922, 18047.62
620.9744, 18050.21
621.4565, 18060.68
621.9386, 18066.39
622.4207, 18050.47
622.9028, 18023.02
623.3849, 18027.17
623.8671, 18068.14
624.3492, 18111.30
624.8313, 18151.35
625.3134, 18183.47
625.7955, 18194.98
626.2776, 18187.32
626.7598, 18193.65
627.2419, 18226.22
627.7240, 18265.37
628.2061, 18302.11
628.6882, 18338.63
629.1703, 18382.58
629.6525, 18433.37
630.1346, 18475.99
630.6167, 18493.54
631.0988, 18490.50
631.5809, 18492.57
632.0630, 18501.62
632.5452, 18508.15
633.0273, 18505.48
633.5094, 18502.82
633.9915, 18513.89
634.4736, 18537.63
634.9557, 18551.72
635.4379, 18539.56
635.9200, 18529.37
636.4021, 18554.54
636.8842, 18585.58
637.3663, 18573.02
637.8484, 18507.27
638.3306, 18419.35
638.8127, 18339.47
639.2948, 18264.54
639.7769, 18174.74
640.2590, 18062.84
640.7411, 17961.01
641.2233, 17881.61
641.7054, 17813.80
642.1875, 17742.49
642.6696, 17668.90
643.1517, 17612.30
643.6339, 17594.29
644.1160, 17575.37
644.5981, 17526.66
645.0802, 17465.82
645.5623, 17424.01
646.0444, 17405.61
646.5266, 17385.73
647.0087, 17338.17
647.4908, 17271.89
647.9729, 17232.80
648.4550, 17229.68
648.9371, 17217.72
649.4193, 17169.43
649.9014, 17126.26
650.3835, 17142.76
650.8656, 17207.56
651.3477, 17238.40
651.8298, 17185.27
652.3120, 17136.71
652.7941, 17152.11
653.2762, 17188.06
653.7583, 17172.94
654.2404, 17105.32
654.7225, 17058.23
655.2047, 17100.25
655.6868, 17194.76
656.1689, 17214.37
656.6510, 17146.42
657.1331, 17078.01
657.6152, 17012.77
658.0974, 16973.04
658.5795, 17002.03
659.0616, 17080.48
659.5437, 17120.62
660.0258, 17084.00
660.5079, 17046.23
660.9901, 17028.85
661.4722, 17025.60
661.9543, 17039.67
662.4364, 17063.22
662.9185, 17068.74
663.4006, 17033.58
663.8828, 16981.77
664.3649, 16967.71
664.8470, 16992.60
665.3291, 17012.63
665.8112, 17013.25
666.2933, 17027.92
666.7755, 17092.83
667.2576, 17192.86
667.7397, 17262.23
668.2218, 17296.56
668.7039, 17307.77
669.1860, 17271.38
669.6682, 17234.59
670.1503, 17249.38
670.6324, 17296.39
671.1145, 17317.05
671.5966, 17282.33
672.0787, 17210.33
672.5609, 17105.03
673.0430, 16976.77
673.5251, 16909.90
674.0072, 16921.42
674.4893, 16939.43
674.9714, 16920.83
675.4536, 16880.27
675.9357, 16856.58
676.4178, 16862.04
676.8999, 16857.29
677.3820, 16835.91
677.8641, 16809.60
678.3463, 16763.48
678.8284, 16723.67
679.3105, 16743.34
679.7926, 16839.22
680.2747, 16934.46
680.7568, 16954.40
681.2390, 16920.29
681.7211, 16876.94
682.2032, 16826.96
682.6853, 16773.68
683.1674, 16716.25
683.6495, 16663.82
684.1317, 16631.71
684.6138, 16624.77
685.0959, 16612.80
685.5780, 16584.43
686.0601, 16564.55
686.5422, 16578.45
687.0244, 16592.00
687.5065, 16552.93
687.9886, 16462.71
688.4707, 16405.10
688.9528, 16466.59
689.4349, 16554.99
689.9171, 16556.76
690.3992, 16497.89
690.8813, 16458.24
691.3634, 16459.35
691.8455, 16467.16
692.3276, 16445.80
692.8098, 16400.21
693.2919, 16376.29
693.7740, 16387.95
694.2561, 16390.30
694.7382, 16365.50
695.2203, 16337.44
695.7025, 16314.05
696.1846, 16300.00
696.6667, 16312.99
697.1488, 16389.88
697.6309, 16445.83
698.1130, 16416.79
698.5952, 16351.81
699.0773, 16307.02
699.5594, 16288.95
700.0415, 16283.96
700.5236, 16284.32
701.0057, 16288.82
701.4879, 16298.14
701.9700, 16313.21
702.4521, 16312.39
702.9342, 16287.50
703.4163, 16263.17
703.8984, 16258.62
704.3806, 16262.66
704.8627, 16244.48
705.3448, 16187.47
705.8269, 16157.24
706.3090, 16184.34
706.7911, 16218.91
707.2733, 16231.87
707.7554, 16231.38
708.2375, 16239.20
708.7196, 16260.69
709.2017, 16269.50
709.6838, 16226.30
710.1660, 16154.95
710.6481, 16117.34
711.1302, 16112.83
711.6123, 16117.57
712.0944, 16125.48
712.5765, 16128.97
713.0587, 16115.58
713.5408, 16083.59
714.0229, 16071.87
714.5050, 16104.83
714.9871, 16124.77
715.4692, 16114.65
715.9514, 16094.76
716.4335, 16081.08
716.9156, 16073.24
717.3977, 16062.70
717.8798, 16049.20
718.3619, 16027.21
718.8441, 15972.33
719.3262, 15913.70
719.8083, 15914.29
720.2904, 15972.49
720.7725, 16020.33
721.2546, 16009.80
721.7368, 15969.23
722.2189, 15974.40
722.7010, 16037.33
723.1831, 16060.30
723.6652, 16020.65
724.1473, 15970.55
724.6295, 15933.36
725.1116, 15907.65
725.5937, 15887.33
726.0758, 15868.00
726.5579, 15870.32
727.0400, 15932.90
727.5222, 15982.78
728.0043, 15957.69
728.4864, 15897.50
728.9685, 15870.54
729.4506, 15893.80
729.9327, 15928.87
730.4149, 15946.88
730.8970, 15949.67
731.3791, 15932.18
731.8612, 15898.26
732.3433, 15888.03
732.8254, 15915.80
733.3076, 15954.31
733.7897, 15979.76
734.2718, 15990.97
734.7539, 15970.59
735.2360, 15873.09
735.7181, 15820.63
736.2003, 15860.51
736.6824, 15916.22
737.1645, 15949.11
737.6466, 15959.26
738.1287, 15948.92
738.6108, 15900.29
739.0930, 15876.78
739.5751, 15949.08
740.0572, 16042.20
740.5393, 16063.63
741.0214, 16022.78
741.5035, 15977.48
741.9857, 15955.03
742.4678, 15940.44
742.9499, 15906.33
743.4320, 15855.95
743.9141, 15837.25
744.3962, 15856.11
744.8784, 15878.71
745.3605, 15896.42
745.8426, 15904.90
746.3247, 15892.75
746.8068, 15854.98
747.2889, 15845.24
747.7711, 15886.51
748.2532, 15924.24
748.7353, 15954.13
749.2174, 15968.92
749.6995, 15954.02
750.1816, 15916.75
750.6638, 15887.71
751.1459, 15887.19
751.6280, 15888.82
752.1101, 15865.70
752.5922, 15828.30
753.0743, 15791.60
753.5565, 15759.87
754.0386, 15745.52
754.5207, 15757.79
755.0028, 15777.84
755.4849, 15761.94
755.9670, 15702.93
756.4492, 15681.22
756.9313, 15718.64
757.4134, 15740.89
757.8955, 15704.95
758.3776, 15644.23
758.8597, 15607.63
759.3419, 15595.88
759.8240, 15594.08
760.3061, 15613.72
760.7882, 15628.01
761.2703, 15624.36
761.7524, 15612.00
762.2346, 15597.83
762.7167, 15584.72
763.1988, 15578.08
763.6809, 15585.99
764.1630, 15592.71
764.6451, 15574.21
765.1273, 15541.36
765.6094, 15520.59
766.0915, 15515.40
766.5736, 15517.85
767.0557, 15523.44
767.5378, 15532.10
768.0200, 15550.25
768.5021, 15586.47
768.9842, 15574.11
769.4663, 15483.92
769.9484, 15405.79
770.4305, 15382.19
770.9127, 15389.63
771.3948, 15392.46
771.8769, 15388.79
772.3590, 15403.47
772.8411, 15486.30
773.3232, 15531.55
773.8054, 15464.02
774.2875, 15361.27
774.7696, 15304.77
775.2517, 15298.65
775.7338, 15302.22
776.2159, 15298.80
776.6981, 15283.99
777.1802, 15240.70
777.6623, 15185.16
778.1444, 15157.35
778.6265, 15159.65
779.1086, 15169.54
779.5908, 15175.46
780.0729, 15174.90
780.5550, 15160.01
781.0371, 15128.19
781.5192, 15110.77
782.0013, 15115.43
782.4835, 15113.58
782.9656, 15089.75
783.4477, 15058.63
783.9298, 15036.93
784.4119, 15024.55
784.8940, 15022.43
785.3762, 15047.36
785.8583, 15060.90
786.3404, 15036.92
786.8225, 15009.82
787.3046, 15013.66
787.7867, 15042.01
788.2689, 15064.83
788.7510, 15069.72
789.2331, 15065.40
789.7152, 15060.64
790.1973, 15050.79
790.6794, 15020.44
791.1616, 14976.15
791.6437, 14945.81
792.1258, 14941.24
792.6079, 14957.36
793.0900, 14999.70
793.5721, 15060.64
794.0543, 15051.18
794.5364, 14955.65
795.0185, 14890.05
795.5006, 14894.37
795.9827, 14924.51
796.4648, 14938.34
796.9470, 14938.43
797.4291, 14951.75
797.9112, 15021.20
798.3933, 15041.41
798.8754, 14952.65
799.3575, 14868.13
799.8397, 14865.73
800.3218, 14910.69
800.8039, 14930.18
801.2860, 14904.16
801.7681, 14877.85
802.2502, 14875.48
802.7324, 14881.36
803.2145, 14889.80
803.6966, 14893.12
804.1787, 14871.81
804.6608, 14825.35
805.1429, 14784.62
805.6251, 14776.95
806.1072, 14790.28
806.5893, 14803.45
807.0714, 14815.31
807.5535, 14813.94
808.0356, 14796.43
808.5178, 14780.69
808.9999, 14778.88
809.4820, 14786.22
809.9641, 14791.63
810.4462, 14796.53
810.9283, 14793.99
811.4105, 14780.97
811.8926, 14765.36
812.3747, 14745.81
812.8568, 14728.14
813.3389, 14719.21
813.8210, 14719.09
814.3032, 14722.79
814.7853, 14732.56
815.2674, 14742.28
815.7495, 14752.87
816.2316, 14760.14
816.7137, 14759.39
817.1959, 14751.93
817.6780, 14744.52
818.1601, 14742.28
818.6422, 14729.66
819.1243, 14678.65
819.6064, 14616.90
820.0886, 14587.73
820.5707, 14587.86
821.0528, 14598.21
821.5349, 14611.40
822.0170, 14623.83
822.4991, 14633.26
822.9813, 14637.84
823.4634, 14627.60
823.9455, 14601.73
824.4276, 14573.34
824.9097, 14541.21
825.3918, 14523.41
825.8740, 14536.93
826.3561, 14572.75
826.8382, 14601.18
827.3203, 14624.82
827.8024, 14634.97
828.2845, 14627.56
828.7667, 14611.30
829.2488, 14589.39
829.7309, 14560.52
830.2130, 14518.06
830.6951, 14462.03
831.1772, 14419.82
831.6594, 14402.09
832.1415, 14394.38
832.6236, 14390.02
833.1057, 14392.84
833.5878, 14415.54
834.0699, 14449.34
834.5521, 14464.92
835.0342, 14446.04
835.5163, 14424.08
835.9984, 14437.47
836.4805, 14461.59
836.9626, 14451.60
837.4448, 14414.12
837.9269, 14381.85
838.4090, 14365.88
838.8911, 14354.99
839.3732, 14336.98
839.8553, 14315.21
840.3375, 14301.33
840.8196, 14295.39
841.3017, 14296.35
841.7838, 14304.76
842.2659, 14317.28
842.7480, 14333.51
843.2302, 14350.01
843.7123, 14358.18
844.1944, 14356.87
844.6765, 14351.10
845.1586, 14342.69
845.6407, 14327.12
846.1229, 14294.70
846.6050, 14259.91
847.0871, 14235.82
847.5692, 14222.41
848.0513, 14215.85
848.5334, 14229.20
849.0156, 14230.86
849.4977, 14201.87
849.9798, 14167.31
850.4619, 14137.12
850.9440, 14119.02
851.4261, 14129.83
851.9083, 14176.69
852.3904, 14221.33
852.8725, 14246.70
853.3546, 14250.90
853.8367, 14218.28
854.3188, 14167.26
854.8010, 14134.88
855.2831, 14127.31
855.7652, 14126.09
856.2473, 14117.79
856.7294, 14108.19
857.2115, 14107.03
857.6937, 14113.48
858.1758, 14126.40
858.6579, 14145.20
859.1400, 14160.43
859.6221, 14168.37
860.1042, 14166.14
860.5864, 14146.93
861.0685, 14111.81
861.5506, 14087.05
862.0327, 14072.12
862.5148, 14071.88
862.9969, 14096.95
863.4791, 14118.90
863.9612, 14117.53
864.4433, 14094.85
864.9254, 14056.40
865.4075, 13980.94
865.8896, 13934.04
866.3718, 13918.15
866.8539, 13926.29
867.3360, 13995.44
867.8181, 14062.41
868.3002, 14036.14
868.7823, 13920.86
869.2645, 13848.97
869.7466, 13894.39
870.2287, 13937.05
870.7108, 13925.59
871.1929, 13896.62
871.6750, 13881.45
872.1572, 13876.67
872.6393, 13865.86
873.1214, 13843.31
873.6035, 13820.53
874.0856, 13805.45
874.5677, 13794.67
875.0499, 13781.32
875.5320, 13770.03
876.0141, 13773.66
876.4962, 13792.04
876.9783, 13809.15
877.4604, 13813.55
877.9426, 13813.56
878.4247, 13823.79
878.9068, 13841.02
879.3889, 13856.71
879.8710, 13869.04
880.3531, 13861.72
880.8353, 13826.76
881.3174, 13793.77
881.7995, 13803.42
882.2816, 13844.23
882.7637, 13833.40
883.2458, 13759.07
883.7280, 13725.82
884.2101, 13760.32
884.6922, 13806.76
885.1743, 13833.21
885.6564, 13843.29
886.1385, 13842.71
886.6207, 13825.88
887.1028, 13824.20
887.5849, 13847.50
888.0670, 13870.10
888.5491, 13883.27
889.0313, 13894.89
889.5134, 13912.60
889.9955, 13934.84
890.4776, 13955.00
890.9597, 13977.96
891.4418, 13989.01
891.9240, 13973.53
892.4061, 13959.48
892.8882, 13965.75
893.3703, 13980.21
893.8524, 13978.10
894.3345, 13959.55
894.8167, 13967.04
895.2988, 14047.45
895.7809, 14121.66
896.2630, 14138.02
896.7451, 14134.51
897.2272, 14142.36
897.7094, 14166.75
898.1915, 14213.42
898.6736, 14284.64
899.1557, 14347.80
899.6378, 14362.21
900.1199, 14365.51
900.6021, 14406.61
901.0842, 14472.18
901.5663, 14531.75
902.0484, 14581.33
902.5305, 14636.23
903.0126, 14706.21
903.4948, 14782.89
903.9769, 14857.69
904.4590, 14928.44
904.9411, 14975.03
905.4232, 15004.03
905.9053, 15070.55
906.3875, 15192.06
906.8696, 15322.84
907.3517, 15415.76
907.8338, 15489.55
908.3159, 15617.18
908.7980, 15799.12
909.2802, 15932.43
909.7623, 16000.31
910.2444, 16060.74
910.7265, 16135.45
911.2086, 16235.65
911.6907, 16385.95
912.1729, 16585.17
912.6550, 16736.90
913.1371, 16820.17
913.6192, 16926.90
914.1013, 17092.77
914.5834, 17245.88
915.0656, 17327.35
915.5477, 17371.44
916.0298, 17460.86
916.5119, 17614.04
916.9940, 17744.22
917.4761, 17849.71
917.9583, 17934.30
918.4404, 17968.40
918.9225, 18008.73
919.4046, 18119.46
919.8867, 18275.56
920.3688, 18380.96
920.8510, 18401.88
921.3331, 18432.35
921.8152, 18496.44
922.2973, 18560.53
922.7794, 18612.47
923.2615, 18654.20
923.7437, 18680.22
924.2258, 18695.59
924.7079, 18730.47
925.1900, 18808.67
925.6721, 18883.71
926.1542, 18947.54
926.6364, 18990.41
927.1185, 18983.86
927.6006, 18958.72
928.0827, 18972.91
928.5648, 19035.50
929.0469, 19091.08
929.5291, 19098.13
930.0112, 19099.23
930.4933, 19140.49
930.9754, 19184.55
931.4575, 19181.39
931.9396, 19138.25
932.4218, 19088.33
932.9039, 19043.63
933.3860, 18998.27
933.8681, 18946.06
934.3502, 18891.35
934.8323, 18846.47
935.3145, 18801.28
935.7966, 18731.47
936.2787, 18638.70
936.7608, 18548.79
937.2429, 18476.35
937.7250, 18401.08
938.2072, 18289.03
938.6893, 18158.92
939.1714, 18049.57
939.6535, 17961.06
940.1356, 17896.06
940.6177, 17851.99
941.0999, 17803.72
941.5820, 17732.57
942.0641, 17651.95
942.5462, 17593.84
943.0283, 17549.04
943.5104, 17451.61
943.9926, 17306.65
944.4747, 17225.65
944.9568, 17244.79
945.4389, 17263.88
945.9210, 17191.41
946.4031, 17056.32
946.8853, 16933.98
947.3674, 16824.19
947.8495, 16727.36
948.3316, 16645.63
948.8137, 16547.91
949.2958, 16418.09
949.7780, 16291.20
950.2601, 16212.68
950.7422, 16167.66
951.2243, 16074.37
951.7064, 15926.71
952.1885, 15767.59
952.6707, 15595.54
953.1528, 15435.81
953.6349, 15299.85
954.1170, 15183.78
954.5991, 15085.36
955.0812, 15003.32
955.5634, 14895.02
956.0455, 14747.12
956.5276, 14613.85
957.0097, 14496.07
957.4918, 14404.79
957.9739, 14357.07
958.4561, 14326.87
958.9382, 14269.55
959.4203, 14181.78
959.9024, 14112.91
960.3845, 14078.39
960.8666, 14030.85
961.3488, 13948.17
961.8309, 13872.41
962.3130, 13840.72
962.7951, 13827.50
963.2772, 13776.37
963.7593, 13673.24
964.2415, 13607.65
964.7236, 13598.27
965.2057, 13599.34
965.6878, 13610.07
966.1699, 13622.35
966.6520, 13639.00
967.1342, 13651.69
967.6163, 13636.60
968.0984, 13580.45
968.5805, 13548.12
969.0626, 13578.34
969.5447, 13584.78
970.0269, 13511.47
970.5090, 13437.79
970.9911, 13434.88
971.4732, 13478.30
971.9553, 13498.74
972.4374, 13483.08
972.9196, 13468.75
973.4017, 13464.44
973.8838, 13457.62
974.3659, 13445.12
974.8480, 13427.26
975.3301, 13400.96
975.8123, 13369.79
976.2944, 13342.75
976.7765, 13316.70
977.2586, 13310.10
977.7407, 13354.22
978.2228, 13385.66
978.7050, 13359.51
979.1871, 13320.66
979.6692, 13324.20
980.1513, 13356.07
980.6334, 13350.34
981.1155, 13271.34
981.5977, 13222.52
982.0798, 13269.06
982.5619, 13312.85
983.0440, 13294.65
983.5261, 13254.08
984.0082, 13232.46
984.4904, 13231.30
984.9725, 13236.23
985.4546, 13242.25
985.9367, 13257.85
986.4188, 13298.16
986.9009, 13335.42
987.3831, 13346.28
987.8652, 13350.02
988.3473, 13379.15
988.8294, 13424.78
989.3115, 13437.61
989.7936, 13390.11
990.2758, 13346.62
990.7579, 13325.65
991.2400, 13325.83
991.7221, 13359.53
992.2042, 13405.03
992.6863, 13444.75
993.1685, 13471.84
993.6506, 13475.10
994.1327, 13450.68
994.6148, 13402.52
995.0969, 13294.40
995.5790, 13203.82
996.0612, 13201.99
996.5433, 13237.46
997.0254, 13242.91
997.5075, 13217.63
997.9896, 13206.26
998.4717, 13239.90
998.9539, 13240.80
999.4360, 13135.14
999.9181, 13024.62
1000.400, 12989.75
1000.882, 12986.74
1001.364, 12951.44
1001.847, 12887.37
1002.329, 12847.23
1002.811, 12856.43
1003.293, 12868.10
1003.775, 12873.81
1004.257, 12859.77
1004.739, 12787.45
1005.221, 12708.68
1005.703, 12704.81
1006.186, 12760.22
1006.668, 12778.55
1007.150, 12716.40
1007.632, 12652.87
1008.114, 12624.97
1008.596, 12606.55
1009.078, 12579.64
1009.560, 12553.15
1010.043, 12546.30
1010.525, 12551.62
1011.007, 12532.28
1011.489, 12463.31
1011.971, 12420.03
1012.453, 12459.63
1012.935, 12506.08
1013.417, 12506.17
1013.899, 12492.91
1014.382, 12510.13
1014.864, 12550.41
1015.346, 12576.71
1015.828, 12580.49
1016.310, 12562.71
1016.792, 12502.61
1017.274, 12445.89
1017.756, 12414.65
1018.239, 12401.42
1018.721, 12402.26
1019.203, 12413.02
1019.685, 12427.01
1020.167, 12445.15
1020.649, 12453.86
1021.131, 12447.41
1021.613, 12432.20
1022.095, 12401.04
1022.578, 12371.12
1023.060, 12353.59
1023.542, 12351.12
1024.024, 12370.90
1024.506, 12419.33
1024.988, 12456.17
1025.470, 12477.86
1025.952, 12477.09
1026.435, 12432.83
1026.917, 12381.61
1027.399, 12349.46
1027.881, 12333.98
1028.363, 12327.17
1028.845, 12329.03
1029.327, 12331.19
1029.809, 12337.07
1030.292, 12336.28
1030.774, 12317.57
1031.256, 12299.78
1031.738, 12304.17
1032.220, 12314.90
1032.702, 12296.15
1033.184, 12241.42
1033.666, 12216.19
1034.148, 12246.07
1034.630, 12278.04
1035.113, 12308.38
1035.595, 12333.55
1036.077, 12363.00
1036.559, 12380.13
1037.041, 12347.49
1037.523, 12262.27
1038.005, 12219.63
1038.487, 12251.12
1038.970, 12275.47
1039.452, 12292.54
1039.934, 12295.59
1040.416, 12268.53
1040.898, 12237.18
1041.380, 12237.30
1041.862, 12264.78
1042.344, 12273.59
1042.826, 12260.99
1043.309, 12231.70
1043.791, 12150.60
1044.273, 12123.21
1044.755, 12227.45
1045.237, 12344.67
1045.719, 12344.28
1046.201, 12256.90
1046.683, 12223.77
1047.166, 12253.00
1047.648, 12318.24
1048.130, 12451.72
1048.612, 12520.25
1049.094, 12467.76
1049.576, 12379.08
1050.058, 12322.99
1050.540, 12287.18
1051.022, 12234.38
1051.505, 12159.46
1051.987, 12125.98
1052.469, 12143.94
1052.951, 12140.39
1053.433, 12095.94
1053.915, 12038.38
1054.397, 11983.06
1054.879, 11935.42
1055.361, 11909.17
1055.844, 11901.10
1056.326, 11862.49
1056.808, 11793.40
1057.290, 11774.78
1057.772, 11821.08
1058.254, 11855.35
1058.736, 11836.73
1059.218, 11793.45
1059.701, 11759.84
1060.183, 11733.96
1060.665, 11710.30
1061.147, 11688.42
1061.629, 11666.30
1062.111, 11643.80
1062.593, 11619.32
1063.075, 11592.81
1063.557, 11577.97
1064.040, 11591.81
1064.522, 11618.08
1065.004, 11634.59
1065.486, 11637.45
1065.968, 11600.85
1066.450, 11541.68
1066.932, 11528.21
1067.414, 11571.35
1067.896, 11606.62
1068.379, 11586.97
1068.861, 11553.36
1069.343, 11552.70
1069.825, 11566.25
1070.307, 11568.51
1070.789, 11564.08
1071.271, 11566.11
1071.753, 11574.57
1072.236, 11581.50
1072.718, 11585.43
1073.200, 11571.75
1073.682, 11501.12
1074.164, 11439.26
1074.646, 11459.42
1075.128, 11506.88
1075.610, 11508.03
1076.093, 11476.21
1076.575, 11471.26
1077.057, 11510.10
1077.539, 11538.76
1078.021, 11521.18
1078.503, 11505.04
1078.985, 11515.18
1079.467, 11531.76
1079.949, 11545.22
1080.432, 11551.36
1080.914, 11540.36
1081.396, 11512.84
1081.878, 11498.46
1082.360, 11513.68
1082.842, 11525.22
1083.324, 11516.67
1083.806, 11517.18
1084.288, 11546.76
1084.771, 11586.91
1085.253, 11625.88
1085.735, 11658.75
1086.217, 11659.10
1086.699, 11603.64
1087.181, 11578.26
1087.663, 11594.45
1088.145, 11618.97
1088.628, 11650.51
1089.110, 11674.63
1089.592, 11679.13
1090.074, 11671.13
1090.556, 11666.36
1091.038, 11665.18
1091.520, 11654.64
1092.002, 11631.07
1092.484, 11623.74
1092.967, 11639.27
1093.449, 11658.21
1093.931, 11670.53
1094.413, 11684.65
1094.895, 11716.04
1095.377, 11752.52
1095.859, 11738.89
1096.341, 11684.08
1096.823, 11660.29
1097.306, 11670.51
1097.788, 11679.91
1098.270, 11677.56
1098.752, 11680.36
1099.234, 11705.06
1099.716, 11727.99
1100.198, 11705.42
1100.680, 11658.71
1101.163, 11621.52
1101.645, 11600.37
1102.127, 11618.42
1102.609, 11666.83
1103.091, 11695.82
1103.573, 11681.41
1104.055, 11652.56
1104.537, 11622.50
1105.020, 11600.25
1105.502, 11596.88
1105.984, 11604.16
1106.466, 11617.57
1106.948, 11631.22
1107.430, 11633.18
1107.912, 11621.86
1108.394, 11614.96
1108.876, 11632.09
1109.359, 11636.07
1109.841, 11592.00
1110.323, 11554.26
1110.805, 11564.57
1111.287, 11594.36
1111.769, 11609.85
1112.251, 11610.97
1112.733, 11610.29
1113.215, 11608.81
1113.698, 11605.73
1114.180, 11611.56
1114.662, 11598.21
1115.144, 11540.54
1115.626, 11489.26
1116.108, 11485.21
1116.590, 11502.63
1117.072, 11492.54
1117.555, 11454.73
1118.037, 11425.22
1118.519, 11406.56
1119.001, 11380.15
1119.483, 11341.76
1119.965, 11310.00
1120.447, 11293.36
1120.929, 11282.36
1121.411, 11268.73
1121.894, 11250.38
1122.376, 11214.98
1122.858, 11169.50
1123.340, 11151.77
1123.822, 11159.55
1124.304, 11176.38
1124.786, 11195.59
1125.268, 11201.84
1125.750, 11186.02
1126.233, 11161.63
1126.715, 11128.26
1127.197, 11108.95
1127.679, 11166.10
1128.161, 11240.75
1128.643, 11219.27
1129.125, 11133.94
1129.607, 11103.22
1130.090, 11151.53
1130.572, 11181.52
1131.054, 11129.27
1131.536, 11073.99
1132.018, 11061.25
1132.500, 11054.52
1132.982, 11028.76
1133.464, 10994.51
1133.947, 10961.36
1134.429, 10932.67
1134.911, 10917.10
1135.393, 10921.78
1135.875, 10918.66
1136.357, 10892.75
1136.839, 10878.14
1137.321, 10881.62
1137.803, 10897.65
1138.286, 10935.38
1138.768, 10968.61
1139.250, 10953.35
1139.732, 10896.79
1140.214, 10867.24
1140.696, 10867.28
1141.178, 10875.27
1141.660, 10890.61
1142.142, 10904.84
1142.625, 10915.13
1143.107, 10927.77
1143.589, 10950.34
1144.071, 10963.78
1144.553, 10922.67
1145.035, 10849.63
1145.517, 10807.15
1145.999, 10794.13
1146.482, 10819.37
1146.964, 10869.14
1147.446, 10887.31
1147.928, 10854.93
1148.410, 10820.25
1148.892, 10826.75
1149.374, 10831.96
1149.856, 10781.81
1150.339, 10727.71
1150.821, 10726.72
1151.303, 10753.22
1151.785, 10768.15
1152.267, 10767.77
1152.749, 10765.77
1153.231, 10768.70
1153.713, 10756.86
1154.195, 10713.05
1154.677, 10671.38
1155.160, 10619.63
1155.642, 10599.18
1156.124, 10665.14
1156.606, 10751.64
1157.088, 10754.66
1157.570, 10683.88
1158.052, 10655.47
1158.534, 10679.01
1159.017, 10705.26
1159.499, 10736.34
1159.981, 10737.71
1160.463, 10694.61
1160.945, 10658.28
1161.427, 10667.77
1161.909, 10695.05
1162.391, 10693.35
1162.874, 10670.33
1163.356, 10644.95
1163.838, 10621.79
1164.320, 10620.99
1164.802, 10638.44
1165.284, 10650.34
1165.766, 10649.20
1166.248, 10644.52
1166.730, 10645.21
1167.213, 10637.76
1167.695, 10605.35
1168.177, 10565.77
1168.659, 10527.70
1169.141, 10497.47
1169.623, 10485.07
1170.105, 10485.56
1170.587, 10481.99
1171.069, 10469.44
1171.552, 10469.70
1172.034, 10507.64
1172.516, 10525.56
1172.998, 10496.61
1173.480, 10472.43
1173.962, 10475.72
1174.444, 10493.05
1174.926, 10516.11
1175.409, 10537.48
1175.891, 10525.54
1176.373, 10476.03
1176.855, 10456.48
1177.337, 10467.48
1177.819, 10481.06
1178.301, 10491.87
1178.783, 10498.40
1179.266, 10499.85
1179.748, 10512.98
1180.230, 10567.97
1180.712, 10621.39
1181.194, 10580.87
1181.676, 10503.68
1182.158, 10493.14
1182.640, 10523.97
1183.122, 10527.39
1183.604, 10500.94
1184.087, 10492.59
1184.569, 10523.56
1185.051, 10543.78
1185.533, 10507.73
1186.015, 10486.99
1186.497, 10548.86
1186.979, 10596.81
1187.461, 10530.62
1187.944, 10431.20
1188.426, 10429.26
1188.908, 10503.33
1189.390, 10514.41
1189.872, 10434.01
1190.354, 10395.20
1190.836, 10410.00
1191.318, 10408.86
1191.801, 10372.17
1192.283, 10352.90
1192.765, 10383.86
1193.247, 10425.17
1193.729, 10427.70
1194.211, 10402.53
1194.693, 10362.15
1195.175, 10321.52
1195.657, 10337.06
1196.140, 10384.85
1196.622, 10381.23
1197.104, 10323.40
1197.586, 10285.77
1198.068, 10302.97
1198.550, 10323.52
1199.032, 10326.15
1199.514, 10308.62
1199.996, 10244.16
1200.479, 10185.38
1200.961, 10182.17
1201.443, 10205.74
1201.925, 10209.09
1202.407, 10194.62
1202.889, 10200.77
1203.371, 10240.23
1203.853, 10259.13
1204.336, 10252.25
1204.818, 10239.84
1205.300, 10223.02
1205.782, 10215.12
1206.264, 10224.32
1206.746, 10239.52
1207.228, 10248.61
1207.710, 10251.93
1208.193, 10251.90
1208.675, 10246.32
1209.157, 10218.85
1209.639, 10182.33
1210.121, 10183.49
1210.603, 10217.74
1211.085, 10229.38
1211.567, 10195.85
1212.049, 10162.09
1212.531, 10147.83
1213.014, 10151.40
1213.496, 10187.51
1213.978, 10223.79
1214.460, 10239.82
1214.942, 10241.51
1215.424, 10228.79
1215.906, 10209.94
1216.388, 10216.96
1216.871, 10259.94
1217.353, 10260.10
1217.835, 10198.74
1218.317, 10179.75
1218.799, 10224.89
1219.281, 10258.82
1219.763, 10249.63
1220.245, 10230.50
1220.728, 10232.38
1221.210, 10239.84
1221.692, 10218.19
1222.174, 10186.95
1222.656, 10200.00
1223.138, 10228.56
1223.620, 10199.87
1224.102, 10131.70
1224.584, 10099.73
1225.067, 10121.11
1225.549, 10142.70
1226.031, 10136.12
1226.513, 10137.89
1226.995, 10173.40
1227.477, 10202.68
1227.959, 10210.53
1228.441, 10202.21
1228.923, 10171.57
1229.406, 10137.95
1229.888, 10139.53
1230.370, 10170.61
1230.852, 10163.58
1231.334, 10116.19
1231.816, 10090.52
1232.298, 10089.15
1232.780, 10078.16
1233.263, 10050.56
1233.745, 10033.93
1234.227, 10044.40
1234.709, 10056.25
1235.191, 10036.96
1235.673, 10011.96
1236.155, 10007.26
1236.637, 10014.10
1237.120, 10031.59
1237.602, 10048.24
1238.084, 10042.19
1238.566, 10019.12
1239.048, 10013.26
1239.530, 10039.16
1240.012, 10041.67
1240.494, 9990.085
1240.976, 9972.780
1241.458, 10013.09
1241.941, 10055.95
1242.423, 10080.04
1242.905, 10094.09
##END=



