##NAMES=Pabstite
##RRUFFID=R060386
##IDEAL CHEMISTRY=BaSnSi_3_O_9_
##LOCALITY=Kalkar Quarry, Santa Cruz County, California, USA
##OWNER=RRUFF
##SOURCE=Michael Scott
##DESCRIPTION=Colorless, with a faint hint of pink, lamellar crystals associated with actinolite, diopside and calcite. Strongly fluorescent under short-wave ultraviolet light
##STATUS=The identification of this mineral is confirmed by single-crystal X-ray diffraction and chemical analysis.
##URL=rruff.info/R060386
##MEASURED CHEMISTRY=Ba_1.00_(Sn_0.76_Ti_0.24_)_Î£=1_Si_3.00_O_9_; trace amounts of Fe
187.2669, 29022.25
187.7491, 29286.31
188.2312, 29525.40
188.7133, 29749.05
189.1954, 30001.42
189.6775, 30284.82
190.1596, 30579.88
190.6418, 30866.62
191.1239, 31144.18
191.6060, 31426.64
192.0881, 31746.41
192.5702, 32090.85
193.0524, 32341.79
193.5345, 32487.22
194.0166, 32569.53
194.4987, 32653.57
194.9808, 32742.06
195.4629, 32790.99
195.9451, 32750.28
196.4272, 32622.26
196.9093, 32567.17
197.3914, 32603.89
197.8735, 32691.78
198.3556, 32753.92
198.8378, 32785.16
199.3199, 32821.86
199.8020, 32866.43
200.2841, 32913.67
200.7662, 33047.52
201.2483, 33292.78
201.7305, 33609.00
202.2126, 33892.63
202.6947, 34131.52
203.1768, 34383.19
203.6589, 34705.43
204.1410, 35115.62
204.6232, 35458.30
205.1053, 35732.43
205.5874, 35924.76
206.0695, 35989.54
206.5516, 35920.48
207.0337, 35740.34
207.5159, 35445.63
207.9980, 35024.27
208.4801, 34567.45
208.9622, 34065.31
209.4443, 33536.79
209.9264, 33077.41
210.4086, 32699.72
210.8907, 32364.60
211.3728, 32042.57
211.8549, 31720.06
212.3370, 31449.46
212.8191, 31244.88
213.3013, 31101.36
213.7834, 30963.17
214.2655, 30829.55
214.7476, 30701.93
215.2297, 30581.39
215.7118, 30463.18
216.1940, 30360.67
216.6761, 30269.13
217.1582, 30189.77
217.6403, 30171.95
218.1224, 30249.87
218.6045, 30343.84
219.0867, 30368.51
219.5688, 30281.64
220.0509, 30225.93
220.5330, 30240.53
221.0151, 30327.51
221.4972, 30392.53
221.9794, 30425.97
222.4615, 30448.86
222.9436, 30484.46
223.4257, 30538.77
223.9078, 30594.19
224.3899, 30646.22
224.8721, 30695.30
225.3542, 30743.20
225.8363, 30785.18
226.3184, 30830.84
226.8005, 30897.16
227.2827, 31005.89
227.7648, 31092.54
228.2469, 31137.38
228.7290, 31135.02
229.2111, 31133.35
229.6932, 31141.53
230.1754, 31143.04
230.6575, 31112.06
231.1396, 31025.65
231.6217, 30947.88
232.1038, 30899.58
232.5859, 30888.40
233.0681, 30863.25
233.5502, 30808.04
234.0323, 30750.48
234.5144, 30733.45
234.9965, 30780.66
235.4786, 30828.63
235.9608, 30856.91
236.4429, 30858.95
236.9250, 30869.27
237.4071, 30884.17
237.8892, 30909.68
238.3713, 30959.14
238.8535, 31053.53
239.3356, 31136.22
239.8177, 31181.00
240.2998, 31166.95
240.7819, 31198.45
241.2640, 31295.99
241.7462, 31427.62
242.2283, 31534.99
242.7104, 31588.22
243.1925, 31667.13
243.6746, 31811.72
244.1567, 32062.43
244.6389, 32234.24
245.1210, 32274.96
245.6031, 32267.55
246.0852, 32360.70
246.5673, 32592.25
247.0494, 32860.39
247.5316, 33136.50
248.0137, 33429.25
248.4958, 33698.34
248.9779, 33922.41
249.4600, 34133.59
249.9421, 34386.10
250.4243, 34691.79
250.9064, 35020.44
251.3885, 35364.38
251.8706, 35730.82
252.3527, 36090.48
252.8348, 36426.47
253.3170, 36765.03
253.7991, 37160.34
254.2812, 37634.59
254.7633, 38114.91
255.2454, 38574.86
255.7275, 39003.37
256.2097, 39433.61
256.6918, 39846.31
257.1739, 40269.01
257.6560, 40767.75
258.1381, 41382.11
258.6202, 41993.61
259.1024, 42567.16
259.5845, 43094.94
260.0666, 43590.88
260.5487, 44043.25
261.0308, 44471.66
261.5129, 44939.84
261.9951, 45469.26
262.4772, 45978.18
262.9593, 46441.50
263.4414, 46875.68
263.9235, 47205.14
264.4056, 47433.25
264.8878, 47556.37
265.3699, 47583.80
265.8520, 47532.54
266.3341, 47337.73
266.8162, 46965.21
267.2983, 46408.48
267.7805, 45720.70
268.2626, 44864.94
268.7447, 43924.80
269.2268, 43040.56
269.7089, 42221.81
270.1910, 41427.85
270.6732, 40630.30
271.1553, 39828.39
271.6374, 39063.84
272.1195, 38331.07
272.6016, 37642.36
273.0837, 37047.07
273.5659, 36551.33
274.0480, 36102.28
274.5301, 35671.76
275.0122, 35260.58
275.4943, 34912.03
275.9764, 34636.17
276.4586, 34404.05
276.9407, 34172.32
277.4228, 33941.91
277.9049, 33728.19
278.3870, 33536.37
278.8691, 33366.78
279.3513, 33228.23
279.8334, 33122.07
280.3155, 33043.52
280.7976, 33003.64
281.2798, 33005.77
281.7619, 32976.26
282.2440, 32865.89
282.7261, 32690.35
283.2082, 32570.49
283.6903, 32511.20
284.1725, 32489.64
284.6546, 32492.90
285.1367, 32519.42
285.6188, 32527.24
286.1009, 32489.63
286.5830, 32420.13
287.0652, 32374.79
287.5473, 32354.43
288.0294, 32355.66
288.5115, 32391.54
288.9936, 32455.73
289.4757, 32494.76
289.9579, 32481.58
290.4400, 32432.92
290.9221, 32395.12
291.4042, 32369.14
291.8863, 32341.92
292.3684, 32283.46
292.8506, 32206.96
293.3327, 32170.44
293.8148, 32213.21
294.2969, 32294.77
294.7790, 32342.93
295.2611, 32357.69
295.7433, 32344.30
296.2254, 32287.37
296.7075, 32203.28
297.1896, 32139.77
297.6717, 32110.15
298.1538, 32106.76
298.6360, 32122.97
299.1181, 32158.09
299.6002, 32202.04
300.0823, 32252.65
300.5644, 32306.39
301.0465, 32356.98
301.5287, 32402.10
302.0108, 32444.19
302.4929, 32489.17
302.9750, 32535.29
303.4571, 32569.99
303.9392, 32584.46
304.4214, 32582.90
304.9035, 32566.17
305.3856, 32516.61
305.8677, 32481.47
306.3498, 32515.38
306.8319, 32602.79
307.3141, 32690.02
307.7962, 32754.50
308.2783, 32798.15
308.7604, 32819.45
309.2425, 32807.05
309.7246, 32795.41
310.2068, 32812.52
310.6889, 32848.38
311.1710, 32877.08
311.6531, 32870.35
312.1352, 32861.34
312.6173, 32879.39
313.0995, 32940.94
313.5816, 32994.47
314.0637, 32998.11
314.5458, 32978.18
315.0279, 32984.31
315.5100, 33076.60
315.9922, 33168.95
316.4743, 33208.79
316.9564, 33176.10
317.4385, 33148.98
317.9206, 33148.36
318.4027, 33169.80
318.8849, 33207.05
319.3670, 33281.16
319.8491, 33350.84
320.3312, 33393.30
320.8133, 33399.20
321.2954, 33426.57
321.7776, 33503.69
322.2597, 33601.34
322.7418, 33688.36
323.2239, 33733.80
323.7060, 33794.64
324.1881, 33893.26
324.6703, 34034.54
325.1524, 34158.32
325.6345, 34244.98
326.1166, 34319.43
326.5987, 34402.30
327.0808, 34489.69
327.5630, 34590.49
328.0451, 34718.61
328.5272, 34871.39
329.0093, 34989.43
329.4914, 35031.93
329.9735, 35074.00
330.4557, 35167.93
330.9378, 35363.39
331.4199, 35523.47
331.9020, 35625.85
332.3841, 35683.36
332.8662, 35753.42
333.3484, 35816.67
333.8305, 35920.79
334.3126, 36108.40
334.7947, 36422.17
335.2768, 36679.98
335.7589, 36860.71
336.2411, 36986.72
336.7232, 37108.07
337.2053, 37209.68
337.6874, 37348.44
338.1695, 37559.28
338.6516, 37846.93
339.1338, 38159.63
339.6159, 38511.44
340.0980, 38860.14
340.5801, 39155.14
341.0622, 39408.66
341.5443, 39519.13
342.0265, 39423.80
342.5086, 39138.34
342.9907, 38778.31
343.4728, 38332.43
343.9549, 37868.04
344.4370, 37456.98
344.9192, 37101.59
345.4013, 36808.55
345.8834, 36596.95
346.3655, 36449.10
346.8476, 36330.34
347.3297, 36241.02
347.8119, 36179.79
348.2940, 36157.91
348.7761, 36165.63
349.2582, 36172.71
349.7403, 36162.21
350.2225, 36155.70
350.7046, 36189.64
351.1867, 36260.29
351.6688, 36336.66
352.1509, 36391.31
352.6331, 36438.84
353.1152, 36500.19
353.5973, 36578.31
354.0794, 36674.59
354.5615, 36803.28
355.0436, 36953.97
355.5258, 37094.95
356.0079, 37168.79
356.4900, 37247.47
356.9721, 37401.79
357.4542, 37660.40
357.9363, 37934.37
358.4185, 38174.70
358.9006, 38396.57
359.3827, 38626.22
359.8648, 38859.92
360.3469, 39115.12
360.8290, 39405.46
361.3112, 39737.04
361.7933, 40075.46
362.2754, 40401.36
362.7575, 40734.15
363.2396, 41096.43
363.7217, 41525.16
364.2039, 41947.11
364.6860, 42324.31
365.1681, 42657.36
365.6502, 43042.00
366.1323, 43529.62
366.6144, 44050.35
367.0966, 44558.09
367.5787, 45028.97
368.0608, 45507.95
368.5429, 46008.74
369.0250, 46525.27
369.5071, 47014.47
369.9893, 47472.48
370.4714, 47905.67
370.9535, 48313.34
371.4356, 48670.99
371.9177, 49056.58
372.3998, 49510.19
372.8820, 49973.75
373.3641, 50306.07
373.8462, 50474.58
374.3283, 50595.23
374.8104, 50715.00
375.2925, 50839.72
375.7747, 50915.77
376.2568, 50959.38
376.7389, 50923.77
377.2210, 50732.27
377.7031, 50378.23
378.1852, 49965.00
378.6674, 49514.55
379.1495, 49030.50
379.6316, 48495.78
380.1137, 47910.09
380.5958, 47316.82
381.0779, 46762.39
381.5601, 46236.23
382.0422, 45727.26
382.5243, 45218.84
383.0064, 44728.34
383.4885, 44281.81
383.9706, 43874.38
384.4528, 43501.18
384.9349, 43157.41
385.4170, 42842.84
385.8991, 42546.82
386.3812, 42261.69
386.8633, 42005.82
387.3455, 41801.09
387.8276, 41638.86
388.3097, 41496.19
388.7918, 41371.84
389.2739, 41257.79
389.7560, 41140.23
390.2382, 41015.33
390.7203, 40920.79
391.2024, 40899.66
391.6845, 40912.53
392.1666, 40913.81
392.6487, 40882.43
393.1309, 40842.36
393.6130, 40791.24
394.0951, 40732.32
394.5772, 40701.79
395.0593, 40716.16
395.5414, 40757.12
396.0236, 40813.34
396.5057, 40923.57
396.9878, 41001.38
397.4699, 41030.25
397.9520, 41019.33
398.4341, 40997.58
398.9163, 40961.55
399.3984, 40918.51
399.8805, 40876.97
400.3626, 40856.21
400.8447, 40777.04
401.3268, 40617.26
401.8090, 40415.49
402.2911, 40221.48
402.7732, 40040.72
403.2553, 39858.11
403.7374, 39667.59
404.2195, 39470.11
404.7017, 39282.45
405.1838, 39103.86
405.6659, 38935.24
406.1480, 38772.61
406.6301, 38614.86
407.1122, 38488.34
407.5944, 38408.18
408.0765, 38350.87
408.5586, 38259.88
409.0407, 38135.45
409.5228, 38006.10
410.0049, 37876.33
410.4871, 37757.06
410.9692, 37684.38
411.4513, 37668.99
411.9334, 37671.29
412.4155, 37649.20
412.8976, 37607.88
413.3798, 37563.55
413.8619, 37518.52
414.3440, 37476.44
414.8261, 37439.41
415.3082, 37407.43
415.7903, 37383.35
416.2725, 37373.97
416.7546, 37371.39
417.2367, 37366.16
417.7188, 37345.67
418.2009, 37332.80
418.6830, 37350.60
419.1652, 37388.21
419.6473, 37405.15
420.1294, 37340.97
420.6115, 37287.25
421.0937, 37302.22
421.5758, 37443.37
422.0579, 37544.90
422.5400, 37562.04
423.0221, 37531.95
423.5042, 37515.27
423.9864, 37504.12
424.4685, 37518.23
424.9506, 37574.89
425.4327, 37679.39
425.9148, 37747.60
426.3969, 37766.71
426.8791, 37764.17
427.3612, 37759.66
427.8433, 37748.11
428.3254, 37751.59
428.8075, 37777.82
429.2896, 37819.45
429.7718, 37855.45
430.2539, 37888.59
430.7360, 37902.83
431.2181, 37868.64
431.7002, 37792.47
432.1823, 37774.24
432.6645, 37826.42
433.1466, 37911.69
433.6287, 37991.96
434.1108, 38064.60
434.5929, 38114.97
435.0750, 38111.63
435.5572, 38092.66
436.0393, 38140.46
436.5214, 38251.43
437.0035, 38349.96
437.4856, 38354.02
437.9677, 38314.84
438.4499, 38306.52
438.9320, 38366.27
439.4141, 38429.84
439.8962, 38438.64
440.3783, 38414.29
440.8604, 38412.77
441.3426, 38485.53
441.8247, 38567.88
442.3068, 38623.02
442.7889, 38642.85
443.2710, 38655.14
443.7531, 38661.50
444.2353, 38666.30
444.7174, 38674.55
445.1995, 38686.11
445.6816, 38701.89
446.1637, 38714.29
446.6458, 38725.88
447.1280, 38771.86
447.6101, 38893.47
448.0922, 39004.24
448.5743, 39049.52
449.0564, 38993.37
449.5385, 38969.06
450.0207, 38986.09
450.5028, 39030.79
450.9849, 39073.80
451.4670, 39109.04
451.9491, 39172.80
452.4312, 39297.40
452.9134, 39469.47
453.3955, 39575.23
453.8776, 39605.18
454.3597, 39634.06
454.8418, 39752.25
455.3239, 39936.73
455.8061, 40082.65
456.2882, 40152.45
456.7703, 40197.85
457.2524, 40288.54
457.7345, 40418.24
458.2166, 40564.37
458.6988, 40719.56
459.1809, 40880.00
459.6630, 41039.53
460.1451, 41199.13
460.6272, 41357.97
461.1093, 41507.23
461.5915, 41657.38
462.0736, 41818.55
462.5557, 42019.56
463.0378, 42207.49
463.5199, 42345.12
464.0020, 42441.12
464.4842, 42567.04
464.9663, 42778.28
465.4484, 42991.92
465.9305, 43164.01
466.4126, 43268.43
466.8947, 43378.10
467.3769, 43499.29
467.8590, 43622.52
468.3411, 43735.64
468.8232, 43843.28
469.3053, 43929.97
469.7874, 43990.30
470.2696, 44025.11
470.7517, 44054.44
471.2338, 44084.74
471.7159, 44089.77
472.1980, 44030.75
472.6801, 43909.40
473.1623, 43821.02
473.6444, 43790.68
474.1265, 43774.82
474.6086, 43708.82
475.0907, 43593.48
475.5728, 43434.04
476.0550, 43175.24
476.5371, 42893.43
477.0192, 42736.95
477.5013, 42711.32
477.9834, 42690.40
478.4655, 42555.68
478.9477, 42373.32
479.4298, 42232.26
479.9119, 42177.49
480.3940, 42144.26
480.8761, 42105.93
481.3582, 42063.81
481.8404, 42022.10
482.3225, 41987.02
482.8046, 41948.70
483.2867, 41898.70
483.7688, 41828.26
484.2509, 41774.23
484.7331, 41752.42
485.2152, 41742.07
485.6973, 41723.02
486.1794, 41686.17
486.6615, 41656.52
487.1436, 41640.97
487.6258, 41635.31
488.1079, 41616.77
488.5900, 41578.67
489.0721, 41546.44
489.5542, 41534.43
490.0363, 41542.65
490.5185, 41558.75
491.0006, 41582.86
491.4827, 41613.04
491.9648, 41652.41
492.4470, 41697.90
492.9291, 41730.77
493.4112, 41735.45
493.8933, 41731.34
494.3754, 41742.85
494.8575, 41770.46
495.3397, 41816.56
495.8218, 41904.01
496.3039, 42001.26
496.7860, 42072.85
497.2681, 42111.93
497.7502, 42136.49
498.2324, 42136.00
498.7145, 42132.70
499.1966, 42156.80
499.6787, 42260.36
500.1608, 42349.06
500.6429, 42380.57
501.1251, 42359.36
501.6072, 42365.25
502.0893, 42415.25
502.5714, 42483.42
503.0535, 42562.80
503.5356, 42674.55
504.0178, 42742.94
504.4999, 42746.72
504.9820, 42725.84
505.4641, 42744.40
505.9462, 42810.64
506.4283, 42872.47
506.9105, 42911.23
507.3926, 42934.71
507.8747, 42973.02
508.3568, 43026.68
508.8389, 43089.63
509.3210, 43148.91
509.8032, 43214.93
510.2853, 43318.27
510.7674, 43465.05
511.2495, 43639.46
511.7316, 43828.58
512.2137, 44034.07
512.6959, 44255.91
513.1780, 44513.17
513.6601, 44773.21
514.1422, 44990.05
514.6243, 45177.27
515.1064, 45427.35
515.5886, 45806.83
516.0707, 46240.67
516.5528, 46673.29
517.0349, 47058.77
517.5170, 47531.82
517.9991, 48122.41
518.4813, 48797.70
518.9634, 49519.76
519.4455, 50303.57
519.9276, 51108.05
520.4097, 51928.66
520.8918, 52755.61
521.3740, 53622.68
521.8561, 54534.59
522.3382, 55471.06
522.8203, 56431.36
523.3024, 57405.95
523.7845, 58364.24
524.2667, 59305.98
524.7488, 60247.84
525.2309, 61244.96
525.7130, 62289.18
526.1951, 63329.86
526.6772, 64360.73
527.1594, 65385.46
527.6415, 66393.48
528.1236, 67384.32
528.6057, 68382.45
529.0878, 69504.29
529.5699, 70560.77
530.0521, 71429.98
530.5342, 72134.23
531.0163, 72516.82
531.4984, 72575.44
531.9805, 72271.42
532.4626, 71567.00
532.9448, 70365.25
533.4269, 68856.32
533.9090, 66956.41
534.3911, 64753.52
534.8732, 62655.04
535.3553, 60633.05
535.8375, 58718.79
536.3196, 56923.71
536.8017, 55218.31
537.2838, 53789.04
537.7659, 52657.19
538.2480, 51687.56
538.7302, 50724.00
539.2123, 49775.88
539.6944, 48972.14
540.1765, 48353.32
540.6586, 47866.11
541.1407, 47446.52
541.6229, 47087.63
542.1050, 46757.51
542.5871, 46444.61
543.0692, 46148.59
543.5513, 45861.23
544.0334, 45585.08
544.5156, 45360.33
544.9977, 45248.07
545.4798, 45170.80
545.9619, 45068.18
546.4440, 44903.46
546.9261, 44750.71
547.4083, 44615.26
547.8904, 44498.74
548.3725, 44404.74
548.8546, 44325.99
549.3367, 44282.96
549.8188, 44299.73
550.3010, 44366.67
550.7831, 44358.55
551.2652, 44252.87
551.7473, 44146.95
552.2294, 44104.46
552.7115, 44122.88
553.1937, 44194.76
553.6758, 44331.50
554.1579, 44471.95
554.6400, 44504.11
555.1221, 44474.93
555.6042, 44518.91
556.0864, 44713.32
556.5685, 44972.68
557.0506, 45194.14
557.5327, 45403.65
558.0148, 45695.53
558.4969, 46097.16
558.9791, 46611.57
559.4612, 47258.14
559.9433, 48058.14
560.4254, 48872.59
560.9075, 49649.19
561.3896, 50443.81
561.8718, 51310.01
562.3539, 52228.21
562.8360, 53262.61
563.3181, 54461.07
563.8002, 55746.98
564.2823, 56957.60
564.7645, 58071.67
565.2466, 59160.73
565.7287, 60235.38
566.2108, 61300.23
566.6929, 62338.80
567.1750, 63339.02
567.6572, 64397.55
568.1393, 65545.18
568.6214, 66800.91
569.1035, 68143.37
569.5856, 69557.25
570.0677, 71158.45
570.5499, 73159.86
571.0320, 75406.29
571.5141, 77663.87
571.9962, 80543.29
572.4783, 82726.09
572.9604, 83849.59
573.4426, 83867.75
573.9247, 82596.40
574.4068, 79212.02
574.8889, 75223.77
575.3710, 71057.73
575.8531, 66625.25
576.3353, 62727.70
576.8174, 59402.81
577.2995, 56612.99
577.7816, 54327.02
578.2637, 52572.59
578.7458, 51183.33
579.2280, 50178.57
579.7101, 49449.58
580.1922, 48842.36
580.6743, 48351.60
581.1564, 47947.43
581.6385, 47641.25
582.1207, 47399.49
582.6028, 47194.91
583.0849, 47026.23
583.5670, 46869.33
584.0491, 46725.54
584.5313, 46578.40
585.0134, 46404.49
585.4955, 46177.48
585.9776, 46000.51
586.4597, 45934.55
586.9418, 45918.86
587.4240, 45885.96
587.9061, 45824.16
588.3882, 45758.18
588.8703, 45684.64
589.3524, 45610.21
589.8345, 45554.43
590.3167, 45518.56
590.7988, 45497.50
591.2809, 45503.34
591.7630, 45524.43
592.2451, 45493.71
592.7272, 45409.69
593.2094, 45310.43
593.6915, 45206.75
594.1736, 45114.60
594.6557, 45073.29
595.1378, 45101.10
595.6199, 45132.01
596.1021, 45115.49
596.5842, 45071.30
597.0663, 45027.46
597.5485, 44986.05
598.0306, 44954.73
598.5127, 44929.58
598.9948, 44914.98
599.4769, 44930.60
599.9590, 45022.16
600.4412, 45088.71
600.9233, 45078.82
601.4054, 44982.41
601.8875, 44984.84
602.3696, 45127.35
602.8517, 45267.34
603.3339, 45261.91
603.8160, 45124.10
604.2981, 45023.03
604.7802, 44981.97
605.2623, 44968.06
605.7444, 44928.21
606.2266, 44881.20
606.7087, 44879.39
607.1908, 44963.63
607.6729, 45077.28
608.1550, 45203.91
608.6371, 45327.86
609.1193, 45402.74
609.6014, 45369.82
610.0835, 45316.75
610.5656, 45278.07
611.0477, 45254.77
611.5298, 45259.88
612.0120, 45325.59
612.4941, 45387.52
612.9762, 45394.32
613.4583, 45318.29
613.9404, 45292.47
614.4225, 45337.26
614.9047, 45407.02
615.3868, 45431.86
615.8689, 45415.99
616.3510, 45412.81
616.8331, 45442.66
617.3152, 45486.89
617.7974, 45513.63
618.2795, 45528.72
618.7616, 45555.94
619.2437, 45610.51
619.7258, 45680.34
620.2079, 45764.08
620.6901, 45860.74
621.1722, 45946.23
621.6543, 46013.29
622.1364, 46065.87
622.6185, 46102.83
623.1006, 46108.09
623.5828, 46137.28
624.0649, 46212.84
624.5470, 46291.76
625.0291, 46304.67
625.5112, 46225.98
625.9933, 46229.64
626.4755, 46375.59
626.9576, 46581.41
627.4397, 46659.96
627.9218, 46627.92
628.4039, 46612.82
628.8860, 46692.04
629.3682, 46817.01
629.8503, 46925.73
630.3324, 47019.91
630.8145, 47112.61
631.2966, 47225.95
631.7787, 47329.23
632.2609, 47397.29
632.7430, 47419.27
633.2251, 47436.50
633.7072, 47449.91
634.1893, 47465.69
634.6714, 47491.43
635.1536, 47542.83
635.6357, 47567.56
636.1178, 47553.16
636.5999, 47519.36
637.0820, 47506.82
637.5641, 47517.09
638.0463, 47512.61
638.5284, 47489.17
639.0105, 47436.53
639.4926, 47304.82
639.9747, 47110.18
640.4568, 46949.69
640.9390, 46895.52
641.4211, 46891.93
641.9032, 46908.33
642.3853, 46942.19
642.8674, 46927.30
643.3495, 46782.89
643.8317, 46616.82
644.3138, 46504.48
644.7959, 46495.74
645.2780, 46458.80
645.7601, 46354.22
646.2422, 46256.07
646.7244, 46268.45
647.2065, 46420.81
647.6886, 46528.08
648.1707, 46548.45
648.6528, 46520.04
649.1349, 46513.44
649.6171, 46526.60
650.0992, 46544.51
650.5813, 46563.31
651.0634, 46581.08
651.5455, 46581.31
652.0276, 46572.19
652.5098, 46597.93
652.9919, 46740.59
653.4740, 46880.11
653.9561, 46937.02
654.4382, 46891.80
654.9203, 46835.02
655.4025, 46742.96
655.8846, 46671.02
656.3667, 46662.57
656.8488, 46744.07
657.3309, 46810.35
657.8130, 46857.02
658.2952, 46889.84
658.7773, 46920.33
659.2594, 46947.19
659.7415, 46943.70
660.2236, 46879.36
660.7057, 46821.02
661.1879, 46898.68
661.6700, 47064.88
662.1521, 47186.34
662.6342, 47153.87
663.1163, 47094.53
663.5984, 47090.07
664.0806, 47134.69
664.5627, 47163.98
665.0448, 47147.28
665.5269, 47124.98
666.0090, 47111.36
666.4911, 47105.52
666.9733, 47122.59
667.4554, 47182.45
667.9375, 47225.79
668.4196, 47177.44
668.9017, 47042.48
669.3839, 46992.50
669.8660, 47052.00
670.3481, 47153.26
670.8302, 47236.42
671.3123, 47300.45
671.7944, 47341.37
672.2766, 47346.70
672.7587, 47346.17
673.2408, 47356.74
673.7229, 47375.70
674.2050, 47397.90
674.6871, 47430.27
675.1693, 47456.50
675.6514, 47462.45
676.1335, 47455.93
676.6156, 47486.22
677.0977, 47584.99
677.5798, 47647.99
678.0620, 47618.33
678.5441, 47505.95
679.0262, 47396.13
679.5083, 47285.59
679.9904, 47217.00
680.4725, 47250.04
680.9547, 47340.20
681.4368, 47414.07
681.9189, 47462.89
682.4010, 47493.07
682.8831, 47503.62
683.3652, 47499.70
683.8474, 47486.96
684.3295, 47476.92
684.8116, 47441.45
685.2937, 47329.67
685.7758, 47211.19
686.2579, 47185.01
686.7401, 47287.71
687.2222, 47384.46
687.7043, 47456.69
688.1864, 47503.47
688.6685, 47509.09
689.1506, 47476.83
689.6328, 47459.80
690.1149, 47489.05
690.5970, 47542.65
691.0791, 47602.58
691.5612, 47662.98
692.0433, 47693.11
692.5255, 47645.41
693.0076, 47587.92
693.4897, 47561.06
693.9718, 47569.35
694.4539, 47594.47
694.9360, 47665.36
695.4182, 47722.98
695.9003, 47731.78
696.3824, 47677.34
696.8645, 47630.07
697.3466, 47584.29
697.8287, 47560.64
698.3109, 47603.70
698.7930, 47696.05
699.2751, 47736.59
699.7572, 47694.82
700.2393, 47644.85
700.7214, 47670.76
701.2036, 47740.10
701.6857, 47799.13
702.1678, 47837.89
702.6499, 47852.36
703.1320, 47804.88
703.6141, 47732.69
704.0963, 47733.40
704.5784, 47879.70
705.0605, 47992.86
705.5426, 48027.36
706.0247, 48000.29
706.5068, 47987.98
706.9890, 47993.00
707.4711, 47990.69
707.9532, 47952.03
708.4353, 47900.29
708.9174, 47912.27
709.3995, 47980.59
709.8817, 48032.59
710.3638, 47978.02
710.8459, 47910.88
711.3280, 47930.11
711.8101, 48059.13
712.2922, 48153.36
712.7744, 48127.34
713.2565, 48086.44
713.7386, 48108.06
714.2207, 48242.45
714.7028, 48300.64
715.1849, 48250.86
715.6671, 48181.05
716.1492, 48208.37
716.6313, 48321.12
717.1134, 48370.78
717.5955, 48315.19
718.0776, 48243.24
718.5598, 48277.67
719.0419, 48373.36
719.5240, 48442.60
720.0061, 48442.57
720.4882, 48424.01
720.9703, 48387.78
721.4525, 48351.48
721.9346, 48355.27
722.4167, 48447.50
722.8988, 48523.60
723.3809, 48557.09
723.8630, 48560.82
724.3452, 48588.18
724.8273, 48642.13
725.3094, 48697.64
725.7915, 48744.41
726.2736, 48783.41
726.7557, 48809.99
727.2379, 48827.07
727.7200, 48857.68
728.2021, 48931.38
728.6842, 49014.28
729.1663, 49083.31
729.6484, 49136.16
730.1306, 49170.27
730.6127, 49152.23
731.0948, 49142.80
731.5769, 49179.92
732.0590, 49281.90
732.5411, 49353.95
733.0233, 49389.81
733.5054, 49409.75
733.9875, 49430.70
734.4696, 49452.16
734.9517, 49468.38
735.4338, 49477.55
735.9160, 49488.86
736.3981, 49507.68
736.8802, 49535.89
737.3623, 49578.56
737.8444, 49649.49
738.3266, 49710.84
738.8087, 49735.82
739.2908, 49747.32
739.7729, 49780.07
740.2551, 49860.24
740.7372, 49914.17
741.2193, 49919.54
741.7014, 49905.95
742.1835, 49949.90
742.6656, 50052.14
743.1478, 50115.36
743.6299, 50088.03
744.1120, 50031.00
744.5941, 50039.44
745.0762, 50099.21
745.5583, 50166.73
746.0405, 50223.29
746.5226, 50278.58
747.0047, 50337.61
747.4868, 50399.86
747.9689, 50461.14
748.4510, 50538.38
748.9332, 50590.75
749.4153, 50595.58
749.8974, 50558.73
750.3795, 50556.53
750.8616, 50594.64
751.3438, 50623.55
751.8259, 50591.83
752.3080, 50532.05
752.7901, 50533.36
753.2722, 50594.14
753.7543, 50644.32
754.2365, 50617.73
754.7186, 50574.63
755.2007, 50564.81
755.6828, 50599.52
756.1649, 50633.68
756.6470, 50665.99
757.1292, 50690.53
757.6113, 50704.79
758.0934, 50710.24
758.5755, 50693.05
759.0576, 50645.21
759.5397, 50600.98
760.0219, 50605.49
760.5040, 50643.23
760.9861, 50661.72
761.4682, 50648.71
761.9503, 50638.06
762.4324, 50653.27
762.9146, 50687.50
763.3967, 50736.27
763.8788, 50841.93
764.3609, 50890.50
764.8430, 50809.05
765.3251, 50691.65
765.8073, 50649.50
766.2894, 50707.88
766.7715, 50738.82
767.2536, 50715.71
767.7357, 50675.05
768.2178, 50680.54
768.7000, 50722.99
769.1821, 50765.13
769.6642, 50800.72
770.1463, 50822.63
770.6284, 50819.34
771.1105, 50798.63
771.5927, 50775.57
772.0748, 50749.50
772.5569, 50727.70
773.0390, 50713.77
773.5211, 50704.93
774.0032, 50697.25
774.4854, 50695.29
774.9675, 50674.52
775.4496, 50615.82
775.9317, 50543.94
776.4138, 50528.13
776.8959, 50559.70
777.3781, 50590.54
777.8602, 50595.10
778.3423, 50588.56
778.8244, 50581.12
779.3065, 50573.12
779.7886, 50565.18
780.2708, 50547.57
780.7529, 50541.26
781.2350, 50558.99
781.7171, 50596.58
782.1992, 50612.49
782.6813, 50601.63
783.1635, 50588.41
783.6456, 50576.14
784.1277, 50572.42
784.6098, 50615.57
785.0919, 50699.97
785.5740, 50771.33
786.0562, 50771.64
786.5383, 50761.40
787.0204, 50802.73
787.5025, 50898.90
787.9846, 50963.48
788.4667, 50959.68
788.9489, 50934.14
789.4310, 50900.05
789.9131, 50856.35
790.3952, 50826.44
790.8773, 50808.66
791.3594, 50813.58
791.8416, 50851.46
792.3237, 50917.98
792.8058, 51015.50
793.2879, 51143.88
793.7700, 51248.85
794.2521, 51287.15
794.7343, 51290.39
795.2164, 51272.89
795.6985, 51223.53
796.1806, 51218.08
796.6627, 51295.07
797.1448, 51382.08
797.6270, 51431.82
798.1091, 51439.32
798.5912, 51445.38
799.0733, 51447.93
799.5554, 51462.36
800.0375, 51519.66
800.5197, 51594.98
801.0018, 51641.80
801.4839, 51652.77
801.9660, 51640.86
802.4481, 51573.82
802.9302, 51512.17
803.4124, 51512.73
803.8945, 51630.80
804.3766, 51701.98
804.8587, 51698.22
805.3408, 51684.50
805.8229, 51726.51
806.3051, 51823.79
806.7872, 51908.02
807.2693, 51975.65
807.7514, 52017.07
808.2335, 52009.21
808.7156, 51974.09
809.1978, 51941.71
809.6799, 51913.91
810.1620, 51904.13
810.6441, 51936.61
811.1262, 51979.35
811.6083, 52000.23
812.0905, 51988.42
812.5726, 51975.39
813.0547, 51954.41
813.5368, 51946.54
814.0189, 51994.82
814.5010, 52085.14
814.9832, 52126.91
815.4653, 52096.61
815.9474, 52059.71
816.4295, 52080.06
816.9116, 52127.94
817.3937, 52166.76
817.8759, 52183.93
818.3580, 52198.39
818.8401, 52216.34
819.3222, 52231.37
819.8043, 52232.08
820.2864, 52208.64
820.7686, 52220.46
821.2507, 52279.32
821.7328, 52354.22
822.2149, 52408.19
822.6970, 52445.52
823.1791, 52480.21
823.6613, 52519.71
824.1434, 52541.02
824.6255, 52498.67
825.1076, 52443.15
825.5897, 52431.29
826.0718, 52518.50
826.5540, 52587.85
827.0361, 52649.13
827.5182, 52681.90
828.0003, 52645.07
828.4824, 52540.10
828.9645, 52467.59
829.4467, 52442.50
829.9288, 52453.60
830.4109, 52519.72
830.8930, 52603.35
831.3751, 52641.05
831.8572, 52586.11
832.3394, 52553.09
832.8215, 52622.40
833.3036, 52711.14
833.7857, 52722.16
834.2678, 52613.02
834.7499, 52552.38
835.2321, 52558.89
835.7142, 52596.41
836.1963, 52623.98
836.6784, 52644.71
837.1605, 52674.09
837.6426, 52720.68
838.1248, 52749.28
838.6069, 52706.09
839.0890, 52642.46
839.5711, 52617.76
840.0532, 52678.92
840.5353, 52714.76
841.0175, 52707.64
841.4996, 52684.62
841.9817, 52666.24
842.4638, 52651.35
842.9459, 52672.88
843.4280, 52739.64
843.9102, 52813.25
844.3923, 52856.51
844.8744, 52876.81
845.3565, 52882.12
845.8386, 52868.78
846.3207, 52861.05
846.8029, 52873.20
847.2850, 52892.50
847.7671, 52904.97
848.2492, 52894.72
848.7313, 52931.25
849.2134, 53038.37
849.6956, 53130.67
850.1777, 53088.24
850.6598, 52957.89
851.1419, 52909.24
851.6240, 52967.26
852.1061, 53056.60
852.5883, 53162.89
853.0704, 53247.77
853.5525, 53264.68
854.0346, 53165.05
854.5167, 53131.69
854.9988, 53210.57
855.4810, 53309.67
855.9631, 53358.86
856.4452, 53357.13
856.9273, 53393.98
857.4094, 53474.89
857.8915, 53546.68
858.3737, 53554.36
858.8558, 53528.73
859.3379, 53505.39
859.8200, 53488.65
860.3021, 53475.41
860.7842, 53473.90
861.2664, 53467.38
861.7485, 53442.04
862.2306, 53393.23
862.7127, 53373.75
863.1948, 53387.82
863.6769, 53411.80
864.1591, 53436.89
864.6412, 53457.56
865.1233, 53455.12
865.6054, 53431.22
866.0875, 53414.26
866.5696, 53426.18
867.0518, 53446.15
867.5339, 53464.46
868.0160, 53480.39
868.4981, 53485.18
868.9802, 53480.34
869.4623, 53460.27
869.9445, 53410.31
870.4266, 53343.73
870.9087, 53328.07
871.3908, 53359.42
871.8729, 53397.55
872.3550, 53418.97
872.8372, 53436.11
873.3193, 53466.56
873.8014, 53505.20
874.2835, 53520.68
874.7656, 53464.93
875.2477, 53434.90
875.7299, 53459.53
876.2120, 53527.26
876.6941, 53610.32
877.1762, 53708.42
877.6583, 53757.87
878.1404, 53701.52
878.6226, 53611.78
879.1047, 53572.61
879.5869, 53577.54
880.0690, 53608.66
880.5511, 53674.97
881.0332, 53748.79
881.5153, 53821.93
881.9974, 53897.13
882.4796, 53990.12
882.9617, 54110.64
883.4438, 54190.32
883.9259, 54203.49
884.4080, 54186.80
884.8901, 54188.85
885.3723, 54206.98
885.8544, 54232.95
886.3365, 54244.07
886.8186, 54294.91
887.3007, 54445.32
887.7828, 54634.75
888.2650, 54779.23
888.7471, 54866.70
889.2292, 54930.93
889.7113, 54966.65
890.1934, 54998.01
890.6755, 55059.03
891.1577, 55142.05
891.6398, 55224.68
892.1219, 55301.21
892.6040, 55381.36
893.0861, 55467.70
893.5682, 55562.13
894.0504, 55669.65
894.5325, 55805.99
895.0146, 55911.65
895.4967, 55972.16
895.9788, 56028.42
896.4609, 56109.85
896.9431, 56215.70
897.4252, 56341.63
897.9073, 56487.62
898.3894, 56648.39
898.8715, 56817.66
899.3536, 57004.79
899.8358, 57233.59
900.3179, 57509.70
900.8000, 57744.96
901.2821, 57890.08
901.7642, 58050.88
902.2463, 58279.89
902.7285, 58566.51
903.2106, 58865.72
903.6927, 59176.14
904.1748, 59490.09
904.6569, 59814.33
905.1390, 60135.28
905.6212, 60424.85
906.1033, 60693.30
906.5854, 61003.55
907.0675, 61402.03
907.5496, 61808.33
908.0317, 62209.79
908.5139, 62601.54
908.9960, 62957.27
909.4781, 63275.32
909.9602, 63659.07
910.4423, 64166.46
910.9244, 64713.49
911.4066, 65220.04
911.8887, 65684.77
912.3708, 66112.35
912.8529, 66472.19
913.3350, 66830.36
913.8171, 67196.84
914.2993, 67565.74
914.7814, 67928.06
915.2635, 68283.70
915.7456, 68641.51
916.2277, 69010.31
916.7098, 69349.57
917.1920, 69559.48
917.6741, 69726.12
918.1562, 69990.81
918.6383, 70417.92
919.1204, 70803.52
919.6025, 71082.50
920.0847, 71299.58
920.5668, 71478.34
921.0489, 71615.68
921.5310, 71723.39
922.0131, 71792.16
922.4952, 71903.25
922.9774, 72196.14
923.4595, 72536.91
923.9416, 72700.60
924.4237, 72685.84
924.9058, 72690.52
925.3879, 72791.45
925.8701, 72934.80
926.3522, 73122.66
926.8343, 73340.42
927.3164, 73453.55
927.7985, 73452.55
928.2806, 73438.47
928.7628, 73444.89
929.2449, 73476.86
929.7270, 73585.66
930.2091, 73727.92
930.6912, 73789.21
931.1733, 73650.24
931.6555, 73506.48
932.1376, 73416.16
932.6197, 73357.39
933.1018, 73308.07
933.5839, 73277.16
934.0660, 73182.55
934.5482, 73003.72
935.0303, 72771.80
935.5124, 72500.50
935.9945, 72207.80
936.4766, 71923.23
936.9587, 71635.78
937.4409, 71394.02
937.9230, 71238.66
938.4051, 71114.23
938.8872, 70985.45
939.3693, 70856.58
939.8514, 70689.02
940.3336, 70482.45
940.8157, 70250.77
941.2978, 69952.79
941.7799, 69661.55
942.2620, 69519.56
942.7441, 69523.25
943.2263, 69465.02
943.7084, 69229.13
944.1905, 68950.66
944.6726, 68674.16
945.1547, 68402.28
945.6368, 68153.37
946.1190, 67925.91
946.6011, 67716.80
947.0832, 67557.42
947.5653, 67378.84
948.0474, 67075.63
948.5295, 66678.95
949.0117, 66261.27
949.4938, 65790.38
949.9759, 65378.20
950.4580, 65082.09
950.9401, 64822.89
951.4222, 64476.86
951.9044, 64040.84
952.3865, 63630.48
952.8686, 63268.27
953.3507, 62915.32
953.8328, 62504.07
954.3149, 62089.80
954.7971, 61745.84
955.2792, 61510.42
955.7613, 61278.56
956.2434, 61038.66
956.7255, 60791.57
957.2076, 60526.29
957.6898, 60243.89
958.1719, 60028.67
958.6540, 59877.99
959.1361, 59730.21
959.6182, 59507.42
960.1003, 59293.47
960.5825, 59172.67
961.0646, 59133.96
961.5467, 59098.51
962.0288, 59079.71
962.5109, 59015.71
962.9930, 58869.20
963.4752, 58689.57
963.9573, 58606.69
964.4394, 58609.71
964.9215, 58630.37
965.4036, 58655.08
965.8857, 58672.36
966.3679, 58674.34
966.8500, 58662.91
967.3321, 58640.43
967.8142, 58615.71
968.2963, 58559.84
968.7784, 58457.71
969.2606, 58355.53
969.7427, 58293.25
970.2248, 58270.65
970.7069, 58303.95
971.1890, 58393.22
971.6711, 58464.07
972.1533, 58453.17
972.6354, 58418.71
973.1175, 58390.98
973.5996, 58372.65
974.0817, 58380.10
974.5638, 58416.50
975.0460, 58469.71
975.5281, 58549.45
976.0102, 58629.78
976.4923, 58639.61
976.9744, 58602.63
977.4565, 58588.48
977.9387, 58675.72
978.4208, 58734.49
978.9029, 58678.72
979.3850, 58588.08
979.8671, 58579.69
980.3492, 58675.38
980.8314, 58715.52
981.3135, 58670.44
981.7956, 58624.32
982.2777, 58722.04
982.7598, 58854.02
983.2419, 58829.25
983.7241, 58591.59
984.2062, 58441.44
984.6883, 58519.21
985.1704, 58659.05
985.6525, 58814.70
986.1346, 58977.52
986.6168, 59024.59
987.0989, 58960.79
987.5810, 58939.19
988.0631, 59122.13
988.5452, 59325.41
989.0273, 59345.61
989.5095, 59248.14
989.9916, 59201.75
990.4737, 59294.79
990.9558, 59352.02
991.4379, 59344.20
991.9200, 59304.57
992.4022, 59268.17
992.8843, 59242.37
993.3664, 59272.13
993.8485, 59377.70
994.3306, 59460.76
994.8127, 59440.61
995.2949, 59376.49
995.7770, 59317.77
996.2591, 59270.53
996.7412, 59208.56
997.2233, 59126.75
997.7054, 59050.82
998.1876, 59000.58
998.6697, 58965.78
999.1518, 58929.56
999.6339, 58888.88
1000.116, 58831.63
1000.598, 58717.28
1001.080, 58625.77
1001.562, 58598.95
1002.044, 58604.78
1002.527, 58579.43
1003.009, 58518.46
1003.491, 58503.84
1003.973, 58563.93
1004.455, 58617.18
1004.937, 58547.79
1005.419, 58429.87
1005.901, 58356.47
1006.384, 58350.52
1006.866, 58364.65
1007.348, 58410.64
1007.830, 58446.73
1008.312, 58447.06
1008.794, 58416.91
1009.276, 58383.08
1009.758, 58346.43
1010.240, 58313.06
1010.723, 58266.50
1011.205, 58244.12
1011.687, 58289.07
1012.169, 58375.16
1012.651, 58426.53
1013.133, 58419.11
1013.615, 58450.30
1014.097, 58547.18
1014.580, 58653.69
1015.062, 58687.54
1015.544, 58675.18
1016.026, 58663.12
1016.508, 58658.18
1016.990, 58664.73
1017.472, 58709.75
1017.954, 58741.95
1018.436, 58720.88
1018.919, 58651.29
1019.401, 58644.48
1019.883, 58700.63
1020.365, 58753.72
1020.847, 58755.37
1021.329, 58744.40
1021.811, 58770.76
1022.293, 58814.11
1022.776, 58823.41
1023.258, 58750.78
1023.740, 58706.18
1024.222, 58700.29
1024.704, 58726.09
1025.186, 58807.78
1025.668, 58914.06
1026.150, 58914.02
1026.632, 58780.68
1027.115, 58667.83
1027.597, 58705.63
1028.079, 58764.07
1028.561, 58734.69
1029.043, 58623.30
1029.525, 58621.19
1030.007, 58741.88
1030.489, 58860.55
1030.972, 58922.35
1031.454, 58947.54
1031.936, 58954.11
1032.418, 58948.21
1032.900, 58942.88
1033.382, 58937.36
1033.864, 58941.13
1034.346, 58962.95
1034.828, 58983.43
1035.311, 58966.71
1035.793, 58923.82
1036.275, 58942.17
1036.757, 59029.27
1037.239, 59103.61
1037.721, 59087.24
1038.203, 59054.91
1038.685, 59068.46
1039.167, 59121.50
1039.650, 59124.79
1040.132, 59062.98
1040.614, 59019.02
1041.096, 59026.04
1041.578, 59057.50
1042.060, 59081.65
1042.542, 59096.91
1043.024, 59099.39
1043.507, 59078.21
1043.989, 59063.34
1044.471, 59059.86
1044.953, 59064.25
1045.435, 59078.59
1045.917, 59101.07
1046.399, 59109.45
1046.881, 59103.20
1047.364, 59082.16
1047.846, 59049.44
1048.328, 58998.96
1048.810, 58905.72
1049.292, 58788.55
1049.774, 58725.87
1050.256, 58733.09
1050.738, 58743.08
1051.220, 58743.91
1051.703, 58738.61
1052.185, 58747.36
1052.667, 58747.74
1053.149, 58689.41
1053.631, 58542.84
1054.113, 58432.35
1054.595, 58393.15
1055.077, 58397.19
1055.559, 58446.85
1056.042, 58530.99
1056.524, 58581.15
1057.006, 58597.25
1057.488, 58578.64
1057.970, 58511.75
1058.452, 58423.58
1058.934, 58291.25
1059.416, 58161.32
1059.899, 58126.31
1060.381, 58220.60
1060.863, 58287.60
1061.345, 58312.05
1061.827, 58320.03
1062.309, 58342.60
1062.791, 58364.55
1063.273, 58360.60
1063.755, 58329.06
1064.238, 58293.49
1064.720, 58231.58
1065.202, 58205.27
1065.684, 58238.99
1066.166, 58316.59
1066.648, 58421.13
1067.130, 58534.56
1067.612, 58574.91
1068.094, 58490.11
1068.577, 58388.31
1069.059, 58279.45
1069.541, 58224.09
1070.023, 58295.82
1070.505, 58534.37
1070.987, 58654.06
1071.469, 58646.22
1071.951, 58619.86
1072.434, 58652.75
1072.916, 58707.27
1073.398, 58745.05
1073.880, 58766.89
1074.362, 58777.93
1074.844, 58763.65
1075.326, 58765.05
1075.808, 58787.55
1076.291, 58827.04
1076.773, 58891.46
1077.255, 58967.16
1077.737, 59006.48
1078.219, 59000.16
1078.701, 59002.64
1079.183, 59035.20
1079.665, 59091.83
1080.147, 59179.31
1080.630, 59287.41
1081.112, 59349.09
1081.594, 59366.25
1082.076, 59400.92
1082.558, 59492.23
1083.040, 59579.34
1083.522, 59586.52
1084.004, 59565.94
1084.486, 59591.40
1084.969, 59696.21
1085.451, 59764.98
1085.933, 59781.36
1086.415, 59820.99
1086.897, 59996.95
1087.379, 60206.92
1087.861, 60226.82
1088.343, 60105.91
1088.826, 60066.98
1089.308, 60317.68
1089.790, 60478.88
1090.272, 60437.90
1090.754, 60333.57
1091.236, 60408.83
1091.718, 60617.98
1092.200, 60744.17
1092.682, 60749.96
1093.165, 60738.83
1093.647, 60776.59
1094.129, 60816.42
1094.611, 60823.30
1095.093, 60803.96
1095.575, 60807.16
1096.057, 60833.31
1096.539, 60873.74
1097.022, 60931.20
1097.504, 60988.02
1097.986, 61040.34
1098.468, 61074.13
1098.950, 61061.52
1099.432, 60953.71
1099.914, 60930.52
1100.396, 61014.32
1100.879, 61111.21
1101.361, 61155.41
1101.843, 61165.10
1102.325, 61161.68
1102.807, 61153.86
1103.289, 61171.96
1103.771, 61263.84
1104.253, 61334.94
1104.735, 61377.09
1105.218, 61384.39
1105.700, 61316.35
1106.182, 61200.14
1106.664, 61177.86
1107.146, 61266.02
1107.628, 61376.50
1108.110, 61488.80
1108.592, 61574.88
1109.074, 61604.30
1109.557, 61595.43
1110.039, 61631.16
1110.521, 61712.96
1111.003, 61731.73
1111.485, 61630.98
1111.967, 61532.91
1112.449, 61581.69
1112.931, 61680.98
1113.414, 61727.39
1113.896, 61704.04
1114.378, 61651.14
1114.860, 61560.78
1115.342, 61475.75
1115.824, 61428.61
1116.306, 61394.18
1116.788, 61330.58
1117.271, 61248.73
1117.753, 61171.85
1118.235, 61098.38
1118.717, 61045.75
1119.199, 61016.47
1119.681, 61003.54
1120.163, 61011.99
1120.645, 61029.46
1121.127, 61011.45
1121.609, 60960.61
1122.092, 60921.08
1122.574, 60941.13
1123.056, 60943.04
1123.538, 60887.64
1124.020, 60810.54
1124.502, 60788.93
1124.984, 60815.41
1125.466, 60823.20
1125.949, 60797.23
1126.431, 60779.21
1126.913, 60845.14
1127.395, 60888.91
1127.877, 60794.68
1128.359, 60591.47
1128.841, 60530.17
1129.323, 60618.53
1129.806, 60712.74
1130.288, 60763.36
1130.770, 60792.50
1131.252, 60840.57
1131.734, 60871.71
1132.216, 60822.01
1132.698, 60633.55
1133.180, 60569.12
1133.662, 60654.48
1134.145, 60757.53
1134.627, 60805.06
1135.109, 60811.75
1135.591, 60773.51
1136.073, 60714.25
1136.555, 60695.47
1137.037, 60779.42
1137.519, 60837.22
1138.001, 60854.10
1138.484, 60858.62
1138.966, 60900.45
1139.448, 60947.35
1139.930, 60886.75
1140.412, 60730.65
1140.894, 60641.06
1141.376, 60733.90
1141.858, 60842.64
1142.341, 60936.17
1142.823, 61006.61
1143.305, 61031.40
1143.787, 61019.88
1144.269, 61015.70
1144.751, 61027.07
1145.233, 61035.13
1145.715, 61016.58
1146.198, 61005.38
1146.680, 61027.04
1147.162, 61070.26
1147.644, 61073.48
1148.126, 61040.62
1148.608, 61027.51
1149.090, 61062.05
1149.572, 61093.26
1150.054, 61066.71
1150.536, 61029.86
1151.019, 61028.47
1151.501, 61065.16
1151.983, 61116.07
1152.465, 61182.76
1152.947, 61229.92
1153.429, 61216.98
1153.911, 61200.26
1154.393, 61233.93
1154.876, 61300.83
1155.358, 61376.35
1155.840, 61475.28
1156.322, 61531.39
1156.804, 61544.04
1157.286, 61510.83
1157.768, 61374.87
1158.250, 61230.46
1158.733, 61211.65
1159.215, 61291.45
1159.697, 61355.71
1160.179, 61380.34
1160.661, 61404.71
1161.143, 61436.95
1161.625, 61459.62
1162.107, 61428.20
1162.589, 61385.11
1163.072, 61423.02
1163.554, 61540.72
1164.036, 61604.59
1164.518, 61551.30
1165.000, 61489.46
1165.482, 61435.26
1165.964, 61399.32
1166.446, 61420.49
1166.928, 61470.84
1167.411, 61479.49
1167.893, 61424.38
1168.375, 61395.96
1168.857, 61480.16
1169.339, 61520.64
1169.821, 61433.11
1170.303, 61277.88
1170.785, 61221.22
1171.268, 61247.84
1171.750, 61311.42
1172.232, 61415.02
1172.714, 61506.98
1173.196, 61577.03
1173.678, 61615.10
1174.160, 61597.71
1174.642, 61539.24
1175.125, 61531.75
1175.607, 61572.40
1176.089, 61646.93
1176.571, 61805.55
1177.053, 61921.84
1177.535, 61890.61
1178.017, 61828.01
1178.499, 61849.80
1178.981, 61954.64
1179.464, 61997.78
1179.946, 61982.42
1180.428, 61982.68
1180.910, 62072.47
1181.392, 62160.53
1181.874, 62180.90
1182.356, 62178.34
1182.838, 62229.45
1183.320, 62337.55
1183.803, 62410.41
1184.285, 62440.59
1184.767, 62447.93
1185.249, 62420.36
1185.731, 62401.41
1186.213, 62442.61
1186.695, 62513.30
1187.177, 62514.97
1187.660, 62439.85
1188.142, 62423.67
1188.624, 62494.97
1189.106, 62574.69
1189.588, 62621.92
1190.070, 62624.88
1190.552, 62538.89
1191.034, 62387.29
1191.516, 62346.13
1191.999, 62434.03
1192.481, 62435.55
1192.963, 62270.83
1193.445, 62100.05
1193.927, 62085.02
1194.409, 62143.62
1194.891, 62205.14
1195.373, 62263.66
1195.855, 62296.79
1196.338, 62301.83
1196.820, 62306.75
1197.302, 62324.40
1197.784, 62341.98
1198.266, 62345.49
1198.748, 62340.56
1199.230, 62331.73
1199.712, 62317.00
1200.195, 62316.07
1200.677, 62329.45
1201.159, 62353.92
1201.641, 62393.30
1202.123, 62435.63
1202.605, 62458.84
1203.087, 62478.27
1203.569, 62527.48
1204.052, 62650.15
1204.534, 62664.64
1205.016, 62551.84
1205.498, 62445.99
1205.980, 62447.02
1206.462, 62498.39
1206.944, 62543.82
1207.426, 62587.15
1207.908, 62639.11
1208.391, 62712.14
1208.873, 62755.52
1209.355, 62760.11
1209.837, 62775.31
1210.319, 62878.04
1210.801, 62987.20
1211.283, 62982.34
1211.765, 62900.87
1212.247, 62889.32
1212.730, 62993.73
1213.212, 63047.55
1213.694, 63025.27
1214.176, 62990.70
1214.658, 62988.47
1215.140, 63020.48
1215.622, 63126.09
1216.104, 63279.18
1216.587, 63313.15
1217.069, 63159.13
1217.551, 63107.79
1218.033, 63220.49
1218.515, 63384.13
1218.997, 63503.20
1219.479, 63583.11
1219.961, 63624.50
1220.443, 63627.98
1220.926, 63607.93
1221.408, 63545.98
1221.890, 63550.59
1222.372, 63668.16
1222.854, 63785.59
1223.336, 63734.26
1223.818, 63627.93
1224.300, 63605.26
1224.782, 63685.97
1225.265, 63723.01
1225.747, 63706.02
1226.229, 63689.11
1226.711, 63682.76
1227.193, 63699.86
1227.675, 63795.63
1228.157, 63900.57
1228.639, 63915.96
1229.122, 63820.21
1229.604, 63781.93
1230.086, 63804.77
1230.568, 63865.32
1231.050, 63978.26
1231.532, 64074.98
1232.014, 64054.01
1232.496, 63983.02
1232.979, 63940.12
1233.461, 63930.58
1233.943, 63972.55
1234.425, 64073.30
1234.907, 64148.57
1235.389, 64150.52
1235.871, 64123.04
1236.353, 64091.12
1236.835, 64066.39
1237.318, 64069.46
1237.800, 64105.89
1238.282, 64117.00
1238.764, 64100.71
1239.246, 64100.96
1239.728, 64158.57
1240.210, 64221.52
1240.692, 64236.06
1241.175, 64234.34
1241.657, 64261.43
1242.139, 64324.32
1242.621, 64378.29
1243.103, 64423.91
1243.585, 64457.41
1244.067, 64476.16
1244.549, 64483.64
1245.031, 64473.56
1245.514, 64458.50
1245.996, 64449.83
1246.478, 64444.66
1246.960, 64491.23
1247.442, 64588.00
1247.924, 64692.08
1248.406, 64818.54
1248.888, 64895.72
1249.370, 64844.88
1249.853, 64743.21
1250.335, 64687.61
1250.817, 64677.41
1251.299, 64672.24
1251.781, 64671.81
1252.263, 64695.62
1252.745, 64767.71
1253.227, 64854.00
1253.710, 64975.34
1254.192, 65073.52
1254.674, 65034.55
1255.156, 64890.05
1255.638, 64901.99
1256.120, 65068.72
1256.602, 65181.44
1257.084, 65041.05
1257.567, 64937.85
1258.049, 64988.53
1258.531, 65089.91
1259.013, 65086.65
1259.495, 65012.66
1259.977, 65000.05
1260.459, 65052.70
1260.941, 65092.75
1261.423, 65061.39
1261.906, 65049.14
1262.388, 65093.25
1262.870, 65136.59
1263.352, 65060.61
1263.834, 64931.06
1264.316, 64921.32
1264.798, 65035.04
1265.280, 65111.00
1265.762, 65071.05
1266.245, 65036.63
1266.727, 65028.59
1267.209, 65034.55
1267.691, 65057.83
1268.173, 65073.52
1268.655, 65013.70
1269.137, 64881.70
1269.619, 64841.75
1270.102, 64941.29
1270.584, 65045.06
1271.066, 65132.54
1271.548, 65188.65
1272.030, 65172.69
1272.512, 65127.05
1272.994, 65091.91
1273.476, 65074.58
1273.958, 65096.09
1274.441, 65168.71
1274.923, 65218.36
1275.405, 65226.91
1275.887, 65215.70
1276.369, 65184.85
1276.851, 65162.13
1277.333, 65185.39
1277.815, 65245.34
1278.297, 65276.77
1278.780, 65278.00
1279.262, 65278.82
1279.744, 65283.46
1280.226, 65303.27
1280.708, 65377.45
1281.190, 65442.12
1281.672, 65439.34
1282.154, 65391.89
1282.637, 65371.42
1283.119, 65378.96
1283.601, 65434.57
1284.083, 65552.01
1284.565, 65649.60
1285.047, 65674.41
1285.529, 65668.62
1286.011, 65657.41
1286.494, 65631.83
1286.976, 65531.46
1287.458, 65395.90
1287.940, 65380.56
1288.422, 65535.03
1288.904, 65657.00
1289.386, 65645.41
1289.868, 65620.01
1290.350, 65610.72
1290.833, 65620.80
1291.315, 65680.25
1291.797, 65756.70
1292.279, 65776.38
1292.761, 65716.07
1293.243, 65692.36
1293.725, 65734.48
1294.207, 65770.16
1294.689, 65778.87
1295.172, 65763.30
1295.654, 65682.20
1296.136, 65604.41
1296.618, 65651.83
1297.100, 65857.49
1297.582, 65901.73
1298.064, 65746.52
1298.546, 65682.77
1299.029, 65822.80
1299.511, 66015.40
1299.993, 66160.81
1300.475, 66236.19
1300.957, 66173.47
1301.439, 66005.96
1301.921, 65942.80
1302.403, 65979.19
1302.885, 65975.80
1303.368, 65885.74
##END=



