##NAMES=Pachnolite
##RRUFFID=R070596
##IDEAL CHEMISTRY=NaCaAlF_6_&#183;H_2_O
##LOCALITY=Ivigtut, Arsuk, Kitaa Province, Greenland
##OWNER=RRUFF
##SOURCE=James Shigley
##DESCRIPTION=White to colorless translucent prismatic crystals
##STATUS=The identification of this mineral has been confirmed by single-crystal X-ray diffraction.
##URL=rruff.info/R070596
112.5167, 3201.224
112.9988, 3199.265
113.4809, 3201.251
113.9630, 3207.342
114.4451, 3217.307
114.9272, 3229.986
115.4094, 3243.848
115.8915, 3269.241
116.3736, 3280.552
116.8557, 3274.245
117.3378, 3254.837
117.8199, 3224.060
118.3021, 3181.596
118.7842, 3131.261
119.2663, 3100.005
119.7484, 3094.851
120.2305, 3096.603
120.7127, 3098.109
121.1948, 3100.580
121.6769, 3111.296
122.1590, 3140.424
122.6411, 3187.058
123.1232, 3211.162
123.6054, 3196.510
124.0875, 3168.361
124.5696, 3149.872
125.0517, 3144.551
125.5338, 3142.924
126.0159, 3132.450
126.4981, 3115.515
126.9802, 3105.342
127.4623, 3112.334
127.9444, 3130.740
128.4265, 3142.309
128.9086, 3140.843
129.3907, 3134.650
129.8729, 3128.864
130.3550, 3123.670
130.8371, 3123.748
131.3192, 3137.995
131.8013, 3169.980
132.2834, 3190.425
132.7656, 3179.537
133.2477, 3162.407
133.7298, 3153.958
134.2119, 3158.644
134.6940, 3171.501
135.1761, 3183.701
135.6583, 3195.872
136.1404, 3205.999
136.6225, 3218.273
137.1046, 3227.323
137.5867, 3225.710
138.0688, 3208.379
138.5510, 3178.723
139.0331, 3158.887
139.5152, 3170.569
139.9973, 3170.658
140.4794, 3139.502
140.9615, 3089.028
141.4437, 3045.059
141.9258, 3028.983
142.4079, 3044.666
142.8900, 3051.503
143.3721, 3043.576
143.8542, 3033.635
144.3364, 3030.416
144.8185, 3033.867
145.3006, 3035.611
145.7827, 3024.727
146.2648, 2995.274
146.7469, 2977.529
147.2291, 2980.320
147.7112, 2992.094
148.1933, 3001.656
148.6754, 3006.812
149.1575, 3007.007
149.6396, 2995.438
150.1218, 2968.653
150.6039, 2955.770
151.0860, 2979.893
151.5681, 3028.123
152.0502, 3060.816
152.5324, 3059.585
153.0145, 3042.007
153.4966, 3036.084
153.9787, 3045.495
154.4608, 3054.291
154.9429, 3047.334
155.4251, 3023.760
155.9072, 3002.963
156.3893, 2994.940
156.8714, 2992.151
157.3535, 2987.232
157.8356, 2976.736
158.3178, 2966.992
158.7999, 2969.582
159.2820, 2990.387
159.7641, 3009.698
160.2462, 3023.228
160.7283, 3031.296
161.2105, 3031.591
161.6926, 3019.275
162.1747, 3000.835
162.6568, 3006.301
163.1389, 3067.827
163.6210, 3114.188
164.1032, 3120.114
164.5853, 3098.669
165.0674, 3072.467
165.5495, 3057.665
166.0316, 3054.533
166.5137, 3053.587
166.9959, 3059.635
167.4780, 3063.476
167.9601, 3058.603
168.4422, 3047.600
168.9243, 3039.166
169.4064, 3043.399
169.8886, 3066.535
170.3707, 3077.511
170.8528, 3062.883
171.3349, 3048.420
171.8170, 3054.449
172.2991, 3082.010
172.7813, 3112.664
173.2634, 3121.884
173.7455, 3096.494
174.2276, 3073.787
174.7097, 3049.222
175.1918, 3029.393
175.6740, 3024.666
176.1561, 3038.734
176.6382, 3059.036
177.1203, 3060.753
177.6024, 3035.560
178.0845, 3014.243
178.5667, 3004.841
179.0488, 3002.988
179.5309, 3000.950
180.0130, 2995.711
180.4951, 2989.120
180.9772, 2984.888
181.4594, 2982.299
181.9415, 2982.654
182.4236, 2989.825
182.9057, 3001.764
183.3878, 3008.486
183.8699, 3002.567
184.3521, 2990.634
184.8342, 2985.902
185.3163, 2990.736
185.7984, 2999.561
186.2805, 3012.807
186.7626, 3031.019
187.2448, 3037.285
187.7269, 3008.831
188.2090, 2968.159
188.6911, 2944.555
189.1732, 2949.333
189.6553, 2968.122
190.1375, 2984.410
190.6196, 3000.125
191.1017, 3006.490
191.5838, 2980.161
192.0659, 2947.087
192.5480, 2943.178
193.0302, 2999.348
193.5123, 3085.536
193.9944, 3121.457
194.4765, 3081.385
194.9586, 3033.125
195.4408, 2996.452
195.9229, 2971.972
196.4050, 2961.433
196.8871, 2968.714
197.3692, 2991.240
197.8513, 3012.904
198.3335, 3039.425
198.8156, 3057.411
199.2977, 3058.769
199.7798, 3048.663
200.2619, 3037.003
200.7440, 3030.182
201.2262, 3028.087
201.7083, 3033.877
202.1904, 3063.662
202.6725, 3087.237
203.1546, 3092.248
203.6367, 3081.696
204.1189, 3066.745
204.6010, 3057.611
205.0831, 3055.311
205.5652, 3053.222
206.0473, 3055.893
206.5294, 3055.005
207.0116, 3040.593
207.4937, 3015.979
207.9758, 2996.732
208.4579, 3003.070
208.9400, 3051.200
209.4221, 3072.681
209.9043, 3043.393
210.3864, 3010.563
210.8685, 3004.510
211.3506, 3028.769
211.8327, 3067.133
212.3148, 3100.002
212.7970, 3131.578
213.2791, 3143.487
213.7612, 3123.721
214.2433, 3093.298
214.7254, 3066.049
215.2075, 3046.004
215.6897, 3032.550
216.1718, 3024.925
216.6539, 3023.218
217.1360, 3029.075
217.6181, 3055.886
218.1002, 3084.523
218.5824, 3089.937
219.0645, 3064.243
219.5466, 3028.541
220.0287, 3020.330
220.5108, 3050.995
220.9929, 3081.908
221.4751, 3112.771
221.9572, 3139.878
222.4393, 3157.356
222.9214, 3162.804
223.4035, 3160.319
223.8856, 3157.035
224.3678, 3153.167
224.8499, 3148.342
225.3320, 3139.494
225.8141, 3129.880
226.2962, 3126.725
226.7783, 3134.035
227.2605, 3145.772
227.7426, 3149.852
228.2247, 3144.733
228.7068, 3138.812
229.1889, 3133.006
229.6710, 3128.608
230.1532, 3129.433
230.6353, 3137.931
231.1174, 3151.090
231.5995, 3165.837
232.0816, 3187.714
232.5637, 3196.807
233.0459, 3169.981
233.5280, 3118.020
234.0101, 3083.642
234.4922, 3086.652
234.9743, 3112.666
235.4564, 3137.264
235.9386, 3163.061
236.4207, 3180.529
236.9028, 3179.579
237.3849, 3162.649
237.8670, 3146.144
238.3491, 3135.984
238.8313, 3129.276
239.3134, 3121.719
239.7955, 3113.382
240.2776, 3103.807
240.7597, 3089.833
241.2418, 3072.069
241.7240, 3061.747
242.2061, 3069.247
242.6882, 3082.000
243.1703, 3083.743
243.6524, 3070.214
244.1345, 3055.505
244.6167, 3054.903
245.0988, 3068.572
245.5809, 3075.902
246.0630, 3064.870
246.5451, 3047.045
247.0272, 3033.251
247.5094, 3024.651
247.9915, 3020.878
248.4736, 3022.480
248.9557, 3029.720
249.4378, 3038.760
249.9199, 3050.789
250.4021, 3062.823
250.8842, 3073.650
251.3663, 3084.045
251.8484, 3088.679
252.3305, 3078.623
252.8126, 3051.745
253.2948, 3028.661
253.7769, 3020.195
254.2590, 3015.837
254.7411, 3006.441
255.2232, 2989.439
255.7053, 2972.967
256.1875, 2966.938
256.6696, 2972.660
257.1517, 2980.223
257.6338, 2992.276
258.1159, 3002.007
258.5981, 3001.696
259.0802, 2988.892
259.5623, 2975.218
260.0444, 2974.699
260.5265, 2988.837
261.0086, 3007.038
261.4908, 3043.045
261.9729, 3072.369
262.4550, 3073.772
262.9371, 3042.060
263.4192, 3000.009
263.9013, 2970.826
264.3835, 2954.459
264.8656, 2952.486
265.3477, 2983.418
265.8298, 3018.281
266.3119, 3038.256
266.7940, 3039.430
267.2762, 3033.461
267.7583, 3033.869
268.2404, 3041.981
268.7225, 3049.413
269.2046, 3058.783
269.6867, 3064.186
270.1689, 3058.246
270.6510, 3040.311
271.1331, 3022.707
271.6152, 3024.178
272.0973, 3050.783
272.5794, 3062.257
273.0616, 3034.777
273.5437, 3001.525
274.0258, 2979.372
274.5079, 2970.791
274.9900, 2969.139
275.4721, 2968.548
275.9543, 2969.445
276.4364, 2968.546
276.9185, 2966.206
277.4006, 2961.135
277.8827, 2949.340
278.3648, 2931.688
278.8470, 2916.962
279.3291, 2916.352
279.8112, 2932.086
280.2933, 2943.411
280.7754, 2949.189
281.2575, 2949.007
281.7397, 2937.071
282.2218, 2915.787
282.7039, 2898.811
283.1860, 2903.726
283.6681, 2932.973
284.1502, 2949.765
284.6324, 2940.703
285.1145, 2928.114
285.5966, 2920.807
286.0787, 2919.368
286.5608, 2921.934
287.0429, 2927.118
287.5251, 2934.861
288.0072, 2946.159
288.4893, 2969.080
288.9714, 2986.999
289.4535, 2992.093
289.9356, 2985.672
290.4178, 2972.969
290.8999, 2955.325
291.3820, 2933.187
291.8641, 2915.418
292.3462, 2899.409
292.8283, 2892.046
293.3105, 2901.502
293.7926, 2921.755
294.2747, 2938.272
294.7568, 2938.810
295.2389, 2926.746
295.7210, 2922.479
296.2032, 2928.596
296.6853, 2939.720
297.1674, 2959.455
297.6495, 2981.568
298.1316, 2993.621
298.6137, 2984.423
299.0959, 2961.166
299.5780, 2950.433
300.0601, 2958.661
300.5422, 2968.308
301.0243, 2970.382
301.5064, 2969.444
301.9886, 2972.523
302.4707, 2984.337
302.9528, 3000.825
303.4349, 3013.596
303.9170, 3024.374
304.3991, 3026.772
304.8813, 3010.839
305.3634, 2988.292
305.8455, 2973.965
306.3276, 2976.267
306.8097, 2983.444
307.2918, 2973.180
307.7740, 2938.838
308.2561, 2910.904
308.7382, 2904.618
309.2203, 2908.620
309.7024, 2914.303
310.1845, 2919.805
310.6667, 2925.205
311.1488, 2932.360
311.6309, 2942.310
312.1130, 2945.528
312.5951, 2926.496
313.0772, 2906.874
313.5594, 2909.874
314.0415, 2942.241
314.5236, 2975.000
315.0057, 2977.542
315.4878, 2950.339
315.9699, 2925.697
316.4521, 2908.151
316.9342, 2900.179
317.4163, 2905.540
317.8984, 2924.985
318.3805, 2945.804
318.8626, 2958.956
319.3448, 2965.535
319.8269, 2971.760
320.3090, 2978.138
320.7911, 2985.356
321.2732, 2996.742
321.7553, 3011.693
322.2375, 3019.705
322.7196, 3006.138
323.2017, 2981.324
323.6838, 2976.757
324.1659, 3003.238
324.6480, 3035.342
325.1302, 3047.580
325.6123, 3044.889
326.0944, 3047.742
326.5765, 3071.679
327.0586, 3102.749
327.5407, 3116.546
328.0229, 3108.385
328.5050, 3098.010
328.9871, 3104.274
329.4692, 3121.586
329.9513, 3130.971
330.4334, 3119.771
330.9156, 3104.649
331.3977, 3104.169
331.8798, 3118.809
332.3619, 3134.883
332.8440, 3145.218
333.3261, 3149.800
333.8083, 3151.160
334.2904, 3148.951
334.7725, 3143.863
335.2546, 3134.209
335.7367, 3121.165
336.2188, 3110.419
336.7010, 3104.435
337.1831, 3103.044
337.6652, 3104.548
338.1473, 3104.727
338.6294, 3113.213
339.1115, 3143.779
339.5937, 3185.178
340.0758, 3212.296
340.5579, 3214.660
341.0400, 3200.888
341.5221, 3187.206
342.0042, 3170.218
342.4864, 3160.335
342.9685, 3163.686
343.4506, 3173.613
343.9327, 3183.438
344.4148, 3191.386
344.8969, 3195.372
345.3791, 3191.581
345.8612, 3174.603
346.3433, 3163.782
346.8254, 3165.927
347.3075, 3169.723
347.7896, 3165.710
348.2718, 3153.101
348.7539, 3137.813
349.2360, 3125.829
349.7181, 3118.268
350.2002, 3106.889
350.6823, 3088.563
351.1645, 3069.979
351.6466, 3057.406
352.1287, 3047.951
352.6108, 3031.652
353.0929, 2999.140
353.5750, 2952.219
354.0572, 2924.555
354.5393, 2930.752
355.0214, 2939.843
355.5035, 2946.292
355.9856, 2951.059
356.4677, 2957.492
356.9499, 2967.649
357.4320, 2978.722
357.9141, 2981.047
358.3962, 2965.463
358.8783, 2954.067
359.3604, 2952.553
359.8426, 2954.198
360.3247, 2952.099
360.8068, 2944.163
361.2889, 2934.109
361.7710, 2927.561
362.2531, 2923.864
362.7353, 2925.644
363.2174, 2936.780
363.6995, 2950.233
364.1816, 2960.736
364.6637, 2968.363
365.1458, 2978.222
365.6280, 2997.256
366.1101, 3026.537
366.5922, 3051.229
367.0743, 3068.125
367.5564, 3083.087
368.0385, 3097.728
368.5207, 3112.637
369.0028, 3128.777
369.4849, 3147.244
369.9670, 3167.483
370.4491, 3188.467
370.9312, 3214.166
371.4134, 3232.215
371.8955, 3228.264
372.3776, 3215.051
372.8597, 3211.292
373.3418, 3223.632
373.8239, 3247.938
374.3061, 3283.166
374.7882, 3331.075
375.2703, 3371.858
375.7524, 3392.042
376.2345, 3403.233
376.7166, 3420.448
377.1988, 3445.567
377.6809, 3474.796
378.1630, 3507.463
378.6451, 3542.555
379.1272, 3575.923
379.6093, 3606.827
380.0915, 3635.101
380.5736, 3661.290
381.0557, 3686.013
381.5378, 3705.677
382.0199, 3713.110
382.5020, 3716.988
382.9842, 3732.746
383.4663, 3763.539
383.9484, 3793.397
384.4305, 3805.822
384.9126, 3799.036
385.3947, 3794.477
385.8769, 3788.535
386.3590, 3788.239
386.8411, 3803.496
387.3232, 3830.636
387.8053, 3854.422
388.2874, 3865.461
388.7696, 3864.148
389.2517, 3852.322
389.7338, 3815.473
390.2159, 3786.645
390.6980, 3781.910
391.1801, 3788.740
391.6623, 3789.491
392.1444, 3776.785
392.6265, 3752.511
393.1086, 3719.700
393.5907, 3665.227
394.0728, 3622.354
394.5550, 3599.486
395.0371, 3582.212
395.5192, 3560.159
396.0013, 3531.485
396.4834, 3499.826
396.9655, 3469.260
397.4477, 3439.680
397.9298, 3411.215
398.4119, 3386.658
398.8940, 3360.430
399.3761, 3326.209
399.8582, 3288.431
400.3404, 3257.952
400.8225, 3243.766
401.3046, 3241.796
401.7867, 3233.343
402.2688, 3215.257
402.7509, 3196.243
403.2331, 3181.143
403.7152, 3166.039
404.1973, 3144.912
404.6794, 3114.070
405.1615, 3082.415
405.6436, 3059.582
406.1258, 3045.250
406.6079, 3044.130
407.0900, 3072.312
407.5721, 3101.970
408.0542, 3103.739
408.5363, 3075.139
409.0185, 3044.744
409.5006, 3032.535
409.9827, 3031.237
410.4648, 3018.854
410.9469, 2987.904
411.4290, 2959.949
411.9112, 2964.918
412.3933, 2995.935
412.8754, 3008.398
413.3575, 2978.142
413.8396, 2938.141
414.3217, 2918.831
414.8039, 2918.814
415.2860, 2917.478
415.7681, 2900.162
416.2502, 2872.462
416.7323, 2862.240
417.2144, 2885.649
417.6966, 2904.441
418.1787, 2911.617
418.6608, 2906.812
419.1429, 2883.182
419.6250, 2837.942
420.1071, 2790.639
420.5893, 2776.059
421.0714, 2819.969
421.5535, 2844.543
422.0356, 2842.406
422.5177, 2828.563
422.9998, 2806.869
423.4820, 2781.473
423.9641, 2761.352
424.4462, 2755.760
424.9283, 2764.778
425.4104, 2768.962
425.8925, 2764.502
426.3747, 2759.141
426.8568, 2755.950
427.3389, 2752.849
427.8210, 2746.175
428.3031, 2733.731
428.7852, 2718.638
429.2674, 2706.051
429.7495, 2694.600
430.2316, 2690.315
430.7137, 2705.299
431.1958, 2721.708
431.6779, 2725.288
432.1601, 2714.185
432.6422, 2701.738
433.1243, 2700.276
433.6064, 2706.790
434.0885, 2708.227
434.5706, 2703.899
435.0528, 2692.284
435.5349, 2660.980
436.0170, 2618.286
436.4991, 2596.065
436.9812, 2616.724
437.4633, 2651.860
437.9455, 2676.751
438.4276, 2691.121
438.9097, 2697.486
439.3918, 2695.498
439.8739, 2687.503
440.3560, 2681.672
440.8382, 2682.115
441.3203, 2678.392
441.8024, 2658.339
442.2845, 2635.782
442.7666, 2633.884
443.2487, 2658.406
443.7309, 2689.366
444.2130, 2698.818
444.6951, 2678.679
445.1772, 2662.650
445.6593, 2647.564
446.1414, 2638.675
446.6236, 2642.640
447.1057, 2655.629
447.5878, 2668.188
448.0699, 2674.374
448.5520, 2674.065
449.0341, 2664.829
449.5163, 2631.125
449.9984, 2613.429
450.4805, 2633.024
450.9626, 2663.881
451.4447, 2678.081
451.9268, 2667.246
452.4090, 2649.707
452.8911, 2651.035
453.3732, 2672.216
453.8553, 2680.821
454.3374, 2663.614
454.8195, 2642.379
455.3017, 2635.037
455.7838, 2638.746
456.2659, 2639.618
456.7480, 2626.252
457.2301, 2608.353
457.7122, 2602.443
458.1944, 2609.510
458.6765, 2618.270
459.1586, 2624.963
459.6407, 2627.470
460.1229, 2620.575
460.6050, 2594.211
461.0871, 2573.362
461.5692, 2570.178
462.0513, 2578.914
462.5334, 2591.728
463.0156, 2606.508
463.4977, 2618.966
463.9798, 2622.694
464.4619, 2614.189
464.9440, 2607.268
465.4261, 2600.714
465.9083, 2596.667
466.3904, 2595.364
466.8725, 2597.510
467.3546, 2605.807
467.8367, 2623.350
468.3188, 2646.788
468.8010, 2658.366
469.2831, 2651.842
469.7652, 2642.492
470.2473, 2629.661
470.7294, 2617.440
471.2115, 2609.823
471.6937, 2607.749
472.1758, 2608.614
472.6579, 2610.974
473.1400, 2614.763
473.6221, 2614.686
474.1042, 2607.238
474.5864, 2600.069
475.0685, 2599.629
475.5506, 2603.798
476.0327, 2606.031
476.5148, 2599.275
476.9969, 2592.260
477.4791, 2595.379
477.9612, 2608.280
478.4433, 2627.852
478.9254, 2658.565
479.4075, 2689.688
479.8896, 2692.254
480.3718, 2651.781
480.8539, 2621.308
481.3360, 2623.582
481.8181, 2638.467
482.3002, 2641.786
482.7823, 2629.909
483.2645, 2615.266
483.7466, 2609.809
484.2287, 2613.748
484.7108, 2624.931
485.1929, 2657.300
485.6750, 2681.189
486.1572, 2680.821
486.6393, 2667.586
487.1214, 2661.506
487.6035, 2672.077
488.0856, 2686.971
488.5677, 2676.997
489.0499, 2628.701
489.5320, 2602.032
490.0141, 2626.666
490.4962, 2659.191
490.9783, 2679.351
491.4604, 2685.518
491.9426, 2681.686
492.4247, 2664.997
492.9068, 2641.073
493.3889, 2620.792
493.8710, 2603.477
494.3531, 2595.863
494.8353, 2606.323
495.3174, 2628.133
495.7995, 2645.549
496.2816, 2662.022
496.7637, 2667.100
497.2458, 2645.099
497.7280, 2610.871
498.2101, 2591.975
498.6922, 2595.611
499.1743, 2607.990
499.6564, 2613.637
500.1385, 2611.677
500.6207, 2606.275
501.1028, 2589.454
501.5849, 2577.512
502.0670, 2579.398
502.5491, 2591.452
503.0313, 2606.712
503.5134, 2621.778
503.9955, 2635.510
504.4776, 2644.906
504.9597, 2648.979
505.4418, 2651.006
505.9240, 2650.464
506.4061, 2648.798
506.8882, 2648.936
507.3703, 2649.848
507.8524, 2645.002
508.3345, 2623.222
508.8167, 2592.655
509.2988, 2576.867
509.7809, 2578.005
510.2630, 2586.314
510.7451, 2600.100
511.2272, 2616.403
511.7094, 2629.469
512.1915, 2640.913
512.6736, 2645.353
513.1557, 2633.859
513.6378, 2615.118
514.1199, 2603.728
514.6021, 2603.122
515.0842, 2610.491
515.5663, 2624.220
516.0484, 2646.558
516.5305, 2659.946
517.0126, 2666.024
517.4948, 2663.080
517.9769, 2639.651
518.4590, 2609.028
518.9411, 2595.720
519.4232, 2611.890
519.9053, 2640.190
520.3875, 2643.219
520.8696, 2609.496
521.3517, 2590.419
521.8338, 2610.882
522.3159, 2631.937
522.7980, 2626.564
523.2802, 2600.315
523.7623, 2582.391
524.2444, 2594.116
524.7265, 2622.414
525.2086, 2646.523
525.6907, 2666.726
526.1729, 2675.525
526.6550, 2664.263
527.1371, 2642.808
527.6192, 2632.923
528.1013, 2639.018
528.5834, 2643.790
529.0656, 2641.244
529.5477, 2635.351
530.0298, 2628.267
530.5119, 2621.344
530.9940, 2619.920
531.4761, 2629.634
531.9583, 2649.814
532.4404, 2664.603
532.9225, 2675.694
533.4046, 2678.753
533.8867, 2661.667
534.3688, 2641.668
534.8510, 2641.644
535.3331, 2666.875
535.8152, 2694.047
536.2973, 2690.725
536.7794, 2657.153
537.2615, 2638.103
537.7437, 2639.605
538.2258, 2650.372
538.7079, 2667.080
539.1900, 2687.233
539.6721, 2705.666
540.1542, 2722.413
540.6364, 2735.405
541.1185, 2741.373
541.6006, 2742.006
542.0827, 2742.702
542.5648, 2745.129
543.0469, 2748.040
543.5291, 2749.134
544.0112, 2746.640
544.4933, 2750.007
544.9754, 2767.997
545.4575, 2783.361
545.9396, 2779.614
546.4218, 2766.477
546.9039, 2768.465
547.3860, 2799.661
547.8681, 2843.329
548.3502, 2859.009
548.8323, 2833.725
549.3145, 2818.173
549.7966, 2820.447
550.2787, 2833.031
550.7608, 2857.737
551.2429, 2891.104
551.7250, 2920.488
552.2072, 2939.420
552.6893, 2950.097
553.1714, 2953.353
553.6535, 2949.224
554.1356, 2948.156
554.6177, 2953.582
555.0999, 2965.761
555.5820, 2986.853
556.0641, 3019.166
556.5462, 3050.859
557.0283, 3086.522
557.5104, 3115.714
557.9926, 3120.689
558.4747, 3107.254
558.9568, 3104.155
559.4389, 3133.778
559.9210, 3187.969
560.4031, 3224.592
560.8853, 3224.957
561.3674, 3239.400
561.8495, 3280.607
562.3316, 3332.322
562.8137, 3384.140
563.2958, 3433.964
563.7780, 3481.543
564.2601, 3525.649
564.7422, 3567.231
565.2243, 3609.007
565.7064, 3650.877
566.1885, 3693.172
566.6707, 3733.927
567.1528, 3775.957
567.6349, 3825.592
568.1170, 3887.153
568.5991, 3946.064
569.0812, 3996.285
569.5634, 4041.992
570.0455, 4088.597
570.5276, 4136.501
571.0097, 4180.938
571.4918, 4218.364
571.9739, 4249.017
572.4561, 4277.573
572.9382, 4312.829
573.4203, 4333.248
573.9024, 4325.267
574.3845, 4308.268
574.8666, 4304.748
575.3488, 4316.813
575.8309, 4320.432
576.3130, 4294.184
576.7951, 4241.689
577.2772, 4172.401
577.7593, 4079.101
578.2415, 3999.965
578.7236, 3970.248
579.2057, 3965.234
579.6878, 3925.908
580.1699, 3835.626
580.6520, 3742.719
581.1342, 3661.615
581.6163, 3590.052
582.0984, 3527.885
582.5805, 3474.100
583.0626, 3425.516
583.5447, 3379.906
584.0269, 3336.930
584.5090, 3292.493
584.9911, 3233.107
585.4732, 3191.815
585.9553, 3194.154
586.4374, 3203.491
586.9196, 3183.894
587.4017, 3130.006
587.8838, 3066.774
588.3659, 3010.438
588.8480, 2961.842
589.3301, 2923.666
589.8123, 2896.358
590.2944, 2877.384
590.7765, 2869.998
591.2586, 2868.307
591.7407, 2857.621
592.2228, 2835.977
592.7050, 2809.948
593.1871, 2772.302
593.6692, 2736.695
594.1513, 2723.434
594.6334, 2730.820
595.1155, 2735.763
595.5977, 2718.595
596.0798, 2684.218
596.5619, 2665.777
597.0440, 2677.472
597.5261, 2680.945
598.0082, 2663.112
598.4904, 2640.416
598.9725, 2625.118
599.4546, 2618.638
599.9367, 2616.087
600.4188, 2615.860
600.9009, 2616.793
601.3831, 2616.386
601.8652, 2614.562
602.3473, 2612.874
602.8294, 2613.496
603.3115, 2613.388
603.7936, 2604.095
604.2758, 2580.263
604.7579, 2562.735
605.2400, 2561.874
605.7221, 2562.568
606.2042, 2549.856
606.6863, 2527.369
607.1685, 2509.971
607.6506, 2507.315
608.1327, 2515.216
608.6148, 2522.696
609.0969, 2530.846
609.5790, 2535.100
610.0612, 2532.030
610.5433, 2527.008
611.0254, 2521.430
611.5075, 2516.385
611.9896, 2516.192
612.4717, 2529.451
612.9539, 2543.547
613.4360, 2546.083
613.9181, 2537.741
614.4002, 2518.298
614.8823, 2485.124
615.3644, 2452.533
615.8466, 2443.147
616.3287, 2464.985
616.8108, 2481.950
617.2929, 2494.155
617.7750, 2501.835
618.2571, 2507.287
618.7393, 2507.687
619.2214, 2494.000
619.7035, 2461.805
620.1856, 2431.352
620.6677, 2436.006
621.1498, 2474.763
621.6320, 2499.709
622.1141, 2502.107
622.5962, 2498.511
623.0783, 2502.041
623.5604, 2508.645
624.0425, 2506.584
624.5247, 2487.539
625.0068, 2469.378
625.4889, 2462.531
625.9710, 2460.493
626.4531, 2451.730
626.9352, 2435.082
627.4174, 2421.299
627.8995, 2421.361
628.3816, 2434.303
628.8637, 2443.357
629.3458, 2445.112
629.8279, 2448.330
630.3101, 2458.659
630.7922, 2468.694
631.2743, 2471.169
631.7564, 2465.353
632.2385, 2457.165
632.7206, 2449.437
633.2028, 2442.266
633.6849, 2433.610
634.1670, 2423.875
634.6491, 2423.867
635.1312, 2442.895
635.6133, 2467.891
636.0955, 2469.576
636.5776, 2426.260
637.0597, 2405.040
637.5418, 2428.322
638.0239, 2453.762
638.5060, 2452.899
638.9882, 2433.936
639.4703, 2420.373
639.9524, 2424.452
640.4345, 2437.143
640.9166, 2445.218
641.3987, 2448.796
641.8809, 2442.970
642.3630, 2419.751
642.8451, 2399.257
643.3272, 2403.902
643.8093, 2425.596
644.2914, 2437.437
644.7736, 2424.597
645.2557, 2413.863
645.7378, 2419.655
646.2199, 2434.414
646.7020, 2449.068
647.1841, 2460.805
647.6663, 2468.132
648.1484, 2469.743
648.6305, 2465.612
649.1126, 2453.699
649.5947, 2424.223
650.0768, 2404.729
650.5590, 2410.021
651.0411, 2422.790
651.5232, 2427.583
652.0053, 2422.975
652.4874, 2420.082
652.9695, 2426.201
653.4517, 2436.606
653.9338, 2448.485
654.4159, 2460.121
654.8980, 2460.777
655.3801, 2443.522
655.8622, 2420.601
656.3444, 2415.156
656.8265, 2437.031
657.3086, 2449.678
657.7907, 2441.687
658.2728, 2437.562
658.7549, 2458.427
659.2371, 2487.714
659.7192, 2492.861
660.2013, 2459.150
660.6834, 2418.915
661.1655, 2409.089
661.6476, 2424.241
662.1298, 2440.828
662.6119, 2457.339
663.0940, 2468.336
663.5761, 2469.110
664.0582, 2461.303
664.5403, 2452.866
665.0225, 2439.276
665.5046, 2431.437
665.9867, 2432.474
666.4688, 2438.907
666.9509, 2454.023
667.4330, 2472.851
667.9152, 2478.480
668.3973, 2455.341
668.8794, 2419.539
669.3615, 2414.623
669.8436, 2445.263
670.3257, 2464.647
670.8079, 2455.126
671.2900, 2441.200
671.7721, 2450.925
672.2542, 2479.569
672.7363, 2498.641
673.2184, 2496.083
673.7006, 2491.506
674.1827, 2499.058
674.6648, 2509.352
675.1469, 2504.606
675.6290, 2482.204
676.1111, 2458.506
676.5933, 2449.710
677.0754, 2455.126
677.5575, 2469.103
678.0396, 2499.884
678.5217, 2520.321
679.0038, 2511.464
679.4860, 2494.656
679.9681, 2492.048
680.4502, 2505.019
680.9323, 2512.739
681.4144, 2503.554
681.8965, 2488.641
682.3787, 2475.202
682.8608, 2464.811
683.3429, 2462.418
683.8250, 2470.130
684.3071, 2479.598
684.7892, 2477.362
685.2714, 2461.034
685.7535, 2447.307
686.2356, 2439.543
686.7177, 2429.891
687.1998, 2412.863
687.6819, 2393.795
688.1641, 2379.797
688.6462, 2372.581
689.1283, 2367.289
689.6104, 2361.776
690.0925, 2356.034
690.5746, 2348.881
691.0568, 2340.950
691.5389, 2336.407
692.0210, 2337.656
692.5031, 2343.067
692.9852, 2350.150
693.4673, 2365.007
693.9495, 2366.712
694.4316, 2340.611
694.9137, 2316.435
695.3958, 2305.580
695.8779, 2305.271
696.3600, 2310.969
696.8422, 2323.260
697.3243, 2332.976
697.8064, 2330.813
698.2885, 2320.866
698.7706, 2308.628
699.2527, 2295.415
699.7349, 2292.951
700.2170, 2312.402
700.6991, 2343.973
701.1812, 2352.795
701.6633, 2319.059
702.1454, 2296.656
702.6276, 2291.572
703.1097, 2292.584
703.5918, 2297.114
704.0739, 2302.302
704.5560, 2302.786
705.0381, 2295.087
705.5203, 2285.323
706.0024, 2276.744
706.4845, 2271.313
706.9666, 2278.899
707.4487, 2301.606
707.9308, 2318.531
708.4130, 2311.736
708.8951, 2286.765
709.3772, 2272.800
709.8593, 2279.937
710.3414, 2283.317
710.8235, 2280.583
711.3057, 2274.857
711.7878, 2263.000
712.2699, 2249.673
712.7520, 2248.313
713.2341, 2270.048
713.7162, 2297.098
714.1984, 2311.165
714.6805, 2313.336
715.1626, 2303.113
715.6447, 2279.345
716.1268, 2262.408
716.6089, 2272.483
717.0911, 2304.283
717.5732, 2318.981
718.0553, 2301.842
718.5374, 2287.615
719.0195, 2279.277
719.5016, 2274.225
719.9838, 2271.114
720.4659, 2269.609
720.9480, 2269.579
721.4301, 2272.082
721.9122, 2274.219
722.3943, 2270.970
722.8765, 2264.333
723.3586, 2263.215
723.8407, 2269.900
724.3228, 2272.584
724.8049, 2258.552
725.2870, 2231.117
725.7692, 2220.759
726.2513, 2241.528
726.7334, 2258.908
727.2155, 2270.888
727.6976, 2277.952
728.1797, 2276.357
728.6619, 2269.648
729.1440, 2269.794
729.6261, 2287.023
730.1082, 2306.427
730.5903, 2312.288
731.0724, 2307.501
731.5546, 2298.471
732.0367, 2286.589
732.5188, 2276.528
733.0009, 2272.630
733.4830, 2273.948
733.9651, 2273.728
734.4473, 2269.850
734.9294, 2268.143
735.4115, 2272.825
735.8936, 2276.597
736.3757, 2272.445
736.8578, 2262.965
737.3400, 2257.784
737.8221, 2263.309
738.3042, 2270.236
738.7863, 2269.559
739.2684, 2264.670
739.7505, 2263.958
740.2327, 2268.367
740.7148, 2270.031
741.1969, 2262.073
741.6790, 2247.121
742.1611, 2236.547
742.6432, 2229.813
743.1254, 2228.697
743.6075, 2237.559
744.0896, 2248.389
744.5717, 2256.943
745.0538, 2263.751
745.5359, 2271.473
746.0181, 2285.707
746.5002, 2292.485
746.9823, 2274.232
747.4644, 2247.417
747.9465, 2236.325
748.4286, 2242.851
748.9108, 2257.009
749.3929, 2273.607
749.8750, 2288.091
750.3571, 2285.614
750.8392, 2260.900
751.3214, 2243.205
751.8035, 2237.064
752.2856, 2236.578
752.7677, 2239.799
753.2498, 2245.548
753.7319, 2251.743
754.2141, 2260.779
754.6962, 2264.959
755.1783, 2255.489
755.6604, 2244.196
756.1425, 2244.801
756.6246, 2254.759
757.1068, 2263.252
757.5889, 2264.814
758.0710, 2259.016
758.5531, 2239.340
759.0352, 2206.276
759.5173, 2194.187
759.9995, 2212.144
760.4816, 2231.843
760.9637, 2236.996
761.4458, 2232.106
761.9279, 2229.207
762.4100, 2230.052
762.8922, 2228.391
763.3743, 2225.458
763.8564, 2217.946
764.3385, 2198.872
764.8206, 2174.888
765.3027, 2157.110
765.7849, 2149.605
766.2670, 2151.838
766.7491, 2168.657
767.2312, 2194.323
767.7133, 2211.749
768.1954, 2219.939
768.6776, 2220.111
769.1597, 2210.977
769.6418, 2198.361
770.1239, 2192.736
770.6060, 2196.700
771.0881, 2197.990
771.5703, 2194.626
772.0524, 2191.033
772.5345, 2189.972
773.0166, 2188.635
773.4987, 2181.964
773.9808, 2169.466
774.4630, 2160.175
774.9451, 2161.324
775.4272, 2167.375
775.9093, 2172.456
776.3914, 2176.498
776.8735, 2180.604
777.3557, 2185.095
777.8378, 2186.846
778.3199, 2181.106
778.8020, 2168.488
779.2841, 2163.312
779.7662, 2171.147
780.2484, 2173.968
780.7305, 2162.174
781.2126, 2147.726
781.6947, 2138.195
782.1768, 2134.287
782.6589, 2139.587
783.1411, 2168.605
783.6232, 2191.568
784.1053, 2186.002
784.5874, 2169.613
785.0695, 2167.151
785.5516, 2179.667
786.0338, 2189.406
786.5159, 2183.064
786.9980, 2167.097
787.4801, 2154.941
787.9622, 2146.558
788.4443, 2140.761
788.9265, 2137.585
789.4086, 2136.470
789.8907, 2138.039
790.3728, 2141.238
790.8549, 2141.134
791.3370, 2130.866
791.8192, 2127.803
792.3013, 2142.566
792.7834, 2155.631
793.2655, 2151.987
793.7476, 2137.740
794.2297, 2126.830
794.7119, 2124.243
795.1940, 2125.657
795.6761, 2129.066
796.1582, 2133.137
796.6403, 2134.653
797.1224, 2133.894
797.6046, 2134.443
798.0867, 2138.085
798.5688, 2143.413
799.0509, 2148.038
799.5330, 2151.811
800.0151, 2156.464
800.4973, 2166.323
800.9794, 2169.841
801.4615, 2158.178
801.9436, 2140.678
802.4257, 2125.304
802.9078, 2112.526
803.3900, 2104.017
803.8721, 2103.303
804.3542, 2103.720
804.8363, 2098.342
805.3184, 2092.699
805.8005, 2097.868
806.2827, 2114.224
806.7648, 2128.725
807.2469, 2129.335
807.7290, 2121.993
808.2111, 2123.806
808.6932, 2134.227
809.1754, 2131.776
809.6575, 2107.676
810.1396, 2087.792
810.6217, 2098.376
811.1038, 2132.874
811.5859, 2147.867
812.0681, 2120.455
812.5502, 2107.465
813.0323, 2129.780
813.5144, 2149.154
813.9965, 2136.025
814.4786, 2103.437
814.9608, 2083.157
815.4429, 2087.279
815.9250, 2096.415
816.4071, 2096.461
816.8892, 2094.438
817.3713, 2101.720
817.8535, 2116.295
818.3356, 2125.009
818.8177, 2121.651
819.2998, 2120.070
819.7819, 2151.001
820.2640, 2214.657
820.7462, 2223.169
821.2283, 2158.093
821.7104, 2103.575
822.1925, 2094.084
822.6746, 2107.653
823.1567, 2116.634
823.6389, 2120.528
824.1210, 2125.657
824.6031, 2134.276
825.0852, 2141.600
825.5673, 2146.705
826.0494, 2149.419
826.5316, 2147.469
827.0137, 2142.396
827.4958, 2141.600
827.9779, 2153.716
828.4600, 2164.776
828.9421, 2156.960
829.4243, 2136.310
829.9064, 2113.380
830.3885, 2091.211
830.8707, 2081.755
831.3528, 2095.279
831.8349, 2119.569
832.3170, 2120.502
832.7991, 2090.424
833.2813, 2076.547
833.7634, 2090.250
834.2455, 2103.729
834.7276, 2097.979
835.2097, 2084.769
835.6918, 2087.818
836.1740, 2112.887
836.6561, 2130.571
837.1382, 2137.582
837.6203, 2134.881
838.1024, 2113.699
838.5845, 2087.472
839.0667, 2075.704
839.5488, 2081.338
840.0309, 2089.580
840.5130, 2087.453
840.9951, 2082.848
841.4772, 2088.995
841.9594, 2103.133
842.4415, 2117.412
842.9236, 2129.679
843.4057, 2134.206
843.8878, 2124.032
844.3699, 2104.927
844.8521, 2102.999
845.3342, 2126.810
845.8163, 2136.471
846.2984, 2121.823
846.7805, 2100.552
847.2626, 2075.758
847.7448, 2053.942
848.2269, 2052.126
848.7090, 2081.977
849.1911, 2102.144
849.6732, 2100.374
850.1553, 2091.686
850.6375, 2078.328
851.1196, 2066.963
851.6017, 2069.442
852.0838, 2088.005
852.5659, 2106.129
853.0480, 2107.625
853.5302, 2102.773
854.0123, 2109.132
854.4944, 2123.233
854.9765, 2133.296
855.4586, 2135.959
855.9407, 2130.965
856.4229, 2116.645
856.9050, 2095.977
857.3871, 2081.444
857.8692, 2072.550
858.3513, 2073.521
858.8334, 2090.564
859.3156, 2107.818
859.7977, 2114.172
860.2798, 2112.296
860.7619, 2111.294
861.2440, 2112.288
861.7261, 2111.770
862.2083, 2105.903
862.6904, 2102.064
863.1725, 2106.004
863.6546, 2113.947
864.1367, 2120.945
864.6188, 2125.694
865.1010, 2126.029
865.5831, 2117.460
866.0652, 2106.133
866.5473, 2099.809
867.0294, 2096.417
867.5115, 2087.855
867.9937, 2073.369
868.4758, 2065.589
868.9579, 2077.161
869.4400, 2100.788
869.9221, 2113.592
870.4042, 2114.913
870.8864, 2115.059
871.3685, 2113.929
871.8506, 2118.301
872.3327, 2137.521
872.8148, 2162.546
873.2969, 2166.198
873.7791, 2133.697
874.2612, 2112.603
874.7433, 2108.718
875.2254, 2108.763
875.7075, 2109.757
876.1896, 2110.795
876.6718, 2111.000
877.1539, 2110.255
877.6360, 2109.298
878.1181, 2107.011
878.6002, 2106.094
879.0823, 2112.583
879.5645, 2119.641
880.0466, 2115.316
880.5287, 2099.744
881.0108, 2082.721
881.4929, 2068.401
881.9750, 2062.577
882.4572, 2085.816
882.9393, 2127.544
883.4214, 2133.619
883.9035, 2098.374
884.3856, 2067.260
884.8677, 2065.752
885.3499, 2082.158
885.8320, 2095.994
886.3141, 2108.524
886.7962, 2109.016
887.2783, 2089.788
887.7604, 2073.816
888.2426, 2066.628
888.7247, 2067.949
889.2068, 2083.688
889.6889, 2112.346
890.1710, 2123.752
890.6531, 2098.462
891.1353, 2078.014
891.6174, 2079.915
892.0995, 2085.244
892.5816, 2071.896
893.0637, 2048.493
893.5458, 2044.380
894.0280, 2075.680
894.5101, 2105.759
894.9922, 2101.615
895.4743, 2083.381
895.9564, 2076.732
896.4385, 2080.435
896.9207, 2084.731
897.4028, 2086.068
897.8849, 2087.810
898.3670, 2096.143
898.8491, 2106.881
899.3312, 2098.843
899.8134, 2072.228
900.2955, 2066.059
900.7776, 2093.079
901.2597, 2121.964
901.7418, 2127.073
902.2239, 2113.041
902.7061, 2098.892
903.1882, 2079.724
903.6703, 2072.891
904.1524, 2088.062
904.6345, 2103.936
905.1166, 2113.009
905.5988, 2115.420
906.0809, 2108.722
906.5630, 2090.624
907.0451, 2079.291
907.5272, 2084.387
908.0093, 2089.264
908.4915, 2086.329
908.9736, 2079.512
909.4557, 2070.706
909.9378, 2062.137
910.4199, 2060.010
910.9020, 2068.590
911.3842, 2082.194
911.8663, 2102.352
912.3484, 2120.778
912.8305, 2121.332
913.3126, 2106.726
913.7947, 2090.956
914.2769, 2080.465
914.7590, 2078.275
915.2411, 2095.331
915.7232, 2124.988
916.2053, 2132.271
916.6874, 2117.217
917.1696, 2101.892
917.6517, 2092.747
918.1338, 2085.163
918.6159, 2073.222
919.0980, 2059.305
919.5801, 2059.627
920.0623, 2081.643
920.5444, 2096.627
921.0265, 2100.042
921.5086, 2098.631
921.9907, 2094.157
922.4728, 2088.189
922.9550, 2084.466
923.4371, 2084.378
923.9192, 2081.055
924.4013, 2069.144
924.8834, 2059.575
925.3655, 2057.572
925.8477, 2059.384
926.3298, 2062.465
926.8119, 2065.686
927.2940, 2065.809
927.7761, 2057.899
928.2582, 2052.331
928.7404, 2057.463
929.2225, 2067.459
929.7046, 2076.688
930.1867, 2084.339
930.6688, 2091.368
931.1509, 2098.179
931.6331, 2102.089
932.1152, 2098.998
932.5973, 2091.436
933.0794, 2082.782
933.5615, 2074.312
934.0436, 2073.447
934.5258, 2081.909
935.0079, 2089.739
935.4900, 2087.526
935.9721, 2079.229
936.4542, 2079.745
936.9363, 2090.343
937.4185, 2089.636
937.9006, 2071.392
938.3827, 2058.444
938.8648, 2065.533
939.3469, 2081.426
939.8290, 2084.667
940.3112, 2071.092
940.7933, 2071.037
941.2754, 2101.343
941.7575, 2119.006
942.2396, 2100.568
942.7217, 2076.824
943.2039, 2073.478
943.6860, 2086.187
944.1681, 2093.870
944.6502, 2094.137
945.1323, 2089.436
945.6144, 2074.045
946.0966, 2060.072
946.5787, 2055.734
947.0608, 2057.933
947.5429, 2061.493
948.0250, 2065.217
948.5071, 2068.617
948.9893, 2073.116
949.4714, 2075.496
949.9535, 2067.819
950.4356, 2059.128
950.9177, 2065.609
951.3998, 2085.829
951.8820, 2104.545
952.3641, 2113.791
952.8462, 2116.124
953.3283, 2112.659
953.8104, 2105.299
954.2925, 2098.472
954.7747, 2092.129
955.2568, 2083.203
955.7389, 2070.720
956.2210, 2060.738
956.7031, 2060.187
957.1852, 2066.811
957.6674, 2074.093
958.1495, 2082.122
958.6316, 2078.891
959.1137, 2059.865
959.5958, 2046.851
960.0779, 2056.108
960.5601, 2075.132
961.0422, 2074.357
961.5243, 2046.891
962.0064, 2040.102
962.4885, 2066.527
962.9706, 2086.148
963.4528, 2086.491
963.9349, 2075.370
964.4170, 2054.187
964.8991, 2025.378
965.3812, 2016.175
965.8633, 2048.634
966.3455, 2066.581
966.8276, 2048.366
967.3097, 2035.009
967.7918, 2058.951
968.2739, 2095.965
968.7560, 2104.310
969.2382, 2076.961
969.7203, 2058.295
970.2024, 2070.204
970.6845, 2082.380
971.1666, 2079.597
971.6487, 2070.765
972.1309, 2064.282
972.6130, 2060.690
973.0951, 2057.421
973.5772, 2053.460
974.0593, 2049.768
974.5414, 2046.603
975.0236, 2044.380
975.5057, 2044.524
975.9878, 2045.686
976.4699, 2043.832
976.9520, 2038.838
977.4341, 2036.908
977.9163, 2043.369
978.3984, 2054.315
978.8805, 2068.719
979.3626, 2081.925
979.8447, 2078.603
980.3268, 2060.270
980.8090, 2046.230
981.2911, 2045.670
981.7732, 2047.754
982.2553, 2033.541
982.7374, 2010.121
983.2195, 2014.839
983.7017, 2045.837
984.1838, 2069.235
984.6659, 2077.378
985.1480, 2075.311
985.6301, 2065.312
986.1122, 2051.631
986.5944, 2045.197
987.0765, 2046.416
987.5586, 2051.547
988.0407, 2061.154
988.5228, 2072.957
989.0049, 2089.156
989.4871, 2100.794
989.9692, 2095.811
990.4513, 2076.004
990.9334, 2063.305
991.4155, 2058.908
991.8976, 2059.272
992.3798, 2068.030
992.8619, 2075.773
993.3440, 2075.026
993.8261, 2071.273
994.3082, 2075.468
994.7903, 2089.901
995.2725, 2099.469
995.7546, 2097.396
996.2367, 2099.328
996.7188, 2116.283
997.2009, 2131.707
997.6830, 2131.480
998.1652, 2119.393
998.6473, 2106.887
999.1294, 2094.105
999.6115, 2085.757
1000.094, 2083.399
1000.576, 2085.265
1001.058, 2098.774
1001.540, 2110.716
1002.022, 2101.186
1002.504, 2072.432
1002.986, 2049.799
1003.468, 2042.812
1003.951, 2043.899
1004.433, 2059.348
1004.915, 2072.105
1005.397, 2060.471
1005.879, 2035.732
1006.361, 2022.039
1006.843, 2025.224
1007.325, 2031.427
1007.807, 2033.978
1008.290, 2032.737
1008.772, 2023.648
1009.254, 2012.791
1009.736, 2011.702
1010.218, 2018.010
1010.700, 2017.030
1011.182, 2001.969
1011.664, 1991.726
1012.147, 2015.206
1012.629, 2049.575
1013.111, 2053.698
1013.593, 2037.446
1014.075, 2029.976
1014.557, 2035.784
1015.039, 2039.759
1015.521, 2031.705
1016.003, 2019.514
1016.486, 2016.200
1016.968, 2018.687
1017.450, 2016.145
1017.932, 2009.231
1018.414, 2005.731
1018.896, 2007.975
1019.378, 2010.564
1019.860, 2007.712
1020.343, 2003.767
1020.825, 2012.639
1021.307, 2032.607
1021.789, 2045.006
1022.271, 2048.195
1022.753, 2045.792
1023.235, 2038.846
1023.717, 2030.807
1024.199, 2025.582
1024.682, 2023.162
1025.164, 2025.125
1025.646, 2032.416
1026.128, 2030.062
1026.610, 2013.365
1027.092, 2001.944
1027.574, 2008.628
1028.056, 2022.624
1028.538, 2025.130
1029.021, 2015.818
1029.503, 2006.597
1029.985, 1995.105
1030.467, 1995.200
1030.949, 2016.638
1031.431, 2032.068
1031.913, 2018.406
1032.395, 1987.985
1032.878, 1973.369
1033.360, 1978.327
1033.842, 1981.666
1034.324, 1980.703
1034.806, 1984.904
1035.288, 2002.774
1035.770, 2017.908
1036.252, 2011.394
1036.734, 1990.348
1037.217, 1986.635
1037.699, 2011.983
1038.181, 2028.662
1038.663, 2031.400
1039.145, 2033.509
1039.627, 2039.527
1040.109, 2047.170
1040.591, 2052.662
1041.073, 2056.720
1041.556, 2067.810
1042.038, 2110.245
1042.520, 2121.795
1043.002, 2071.486
1043.484, 2023.981
1043.966, 2009.461
1044.448, 2011.107
1044.930, 2009.044
1045.413, 2002.713
1045.895, 1996.945
1046.377, 1987.578
1046.859, 1985.351
1047.341, 1999.697
1047.823, 2013.351
1048.305, 2014.137
1048.787, 2008.818
1049.270, 2007.856
1049.752, 2012.172
1050.234, 2020.248
1050.716, 2043.003
1051.198, 2054.185
1051.680, 2040.484
1052.162, 2019.256
1052.644, 1999.379
1053.126, 1982.273
1053.609, 1967.422
1054.091, 1953.497
1054.573, 1951.557
1055.055, 1984.119
1055.537, 2003.519
1056.019, 1972.023
1056.501, 1937.163
1056.983, 1944.717
1057.465, 1982.026
1057.948, 2010.709
1058.430, 2023.337
1058.912, 2027.311
1059.394, 2021.150
1059.876, 2011.253
1060.358, 1994.639
1060.840, 1980.452
1061.322, 1981.655
1061.805, 1993.117
1062.287, 1995.733
1062.769, 1981.523
1063.251, 1970.751
1063.733, 1970.421
1064.215, 1976.175
1064.697, 1989.496
1065.179, 2004.710
1065.661, 2019.623
1066.144, 2030.991
1066.626, 2028.165
1067.108, 2000.305
1067.590, 1981.355
1068.072, 2000.346
1068.554, 2016.176
1069.036, 1992.975
1069.518, 1956.866
1070.000, 1940.663
1070.483, 1945.797
1070.965, 1956.636
1071.447, 1971.148
1071.929, 1982.422
1072.411, 1987.771
1072.893, 1988.437
1073.375, 1981.145
1073.857, 1972.150
1074.340, 1969.607
1074.822, 1973.980
1075.304, 1980.633
1075.786, 1989.656
1076.268, 1996.790
1076.750, 1998.673
1077.232, 1999.288
1077.714, 2001.751
1078.197, 2004.815
1078.679, 2006.386
1079.161, 2006.280
1079.643, 2005.793
1080.125, 2006.632
1080.607, 2004.918
1081.089, 1996.899
1081.571, 1987.549
1082.053, 1979.901
1082.536, 1973.859
1083.018, 1968.851
1083.500, 1964.801
1083.982, 1962.018
1084.464, 1960.123
1084.946, 1960.363
1085.428, 1963.134
1085.910, 1968.430
1086.393, 1975.558
1086.875, 1985.521
1087.357, 2006.512
1087.839, 2035.840
1088.321, 2043.666
1088.803, 1997.917
1089.285, 1961.402
1089.767, 1969.428
1090.250, 1987.423
1090.732, 1991.188
1091.214, 1986.398
1091.696, 1984.467
1092.178, 1986.778
1092.660, 1987.535
1093.142, 1985.851
1093.624, 1980.600
1094.106, 1968.143
1094.589, 1955.268
1095.071, 1948.217
1095.553, 1943.249
1096.035, 1930.589
1096.517, 1910.987
1096.999, 1905.063
1097.481, 1934.379
1097.963, 1955.970
1098.445, 1942.358
1098.928, 1931.312
1099.410, 1956.819
1099.892, 1995.822
1100.374, 2012.079
1100.856, 2003.442
1101.338, 1997.093
1101.820, 2003.424
1102.302, 2007.469
1102.785, 2006.862
1103.267, 2001.589
1103.749, 1983.974
1104.231, 1966.101
1104.713, 1967.457
1105.195, 1987.706
1105.677, 2001.176
1106.159, 2004.023
1106.641, 1998.947
1107.124, 1976.981
1107.606, 1957.869
1108.088, 1953.665
1108.570, 1956.844
1109.052, 1956.798
1109.534, 1953.717
1110.016, 1957.074
1110.498, 1979.513
1110.980, 1990.152
1111.463, 1975.974
1111.945, 1961.906
1112.427, 1957.473
1112.909, 1959.475
1113.391, 1967.267
1113.873, 1979.652
1114.355, 1983.249
1114.837, 1969.597
1115.320, 1961.463
1115.802, 1964.455
1116.284, 1965.328
1116.766, 1954.527
1117.248, 1944.170
1117.730, 1951.196
1118.212, 1971.002
1118.694, 1971.836
1119.177, 1936.436
1119.659, 1922.115
1120.141, 1940.018
1120.623, 1958.792
1121.105, 1969.436
1121.587, 1974.379
1122.069, 1974.258
1122.551, 1970.871
1123.033, 1972.187
1123.516, 1980.490
1123.998, 1985.438
1124.480, 1986.185
1124.962, 1986.357
1125.444, 1988.042
1125.926, 1986.489
1126.408, 1975.882
1126.890, 1961.009
1127.372, 1956.156
1127.855, 1962.224
1128.337, 1973.451
1128.819, 1992.253
1129.301, 2000.198
1129.783, 1991.149
1130.265, 1976.396
1130.747, 1962.878
1131.229, 1953.828
1131.712, 1960.239
1132.194, 1981.110
1132.676, 1980.239
1133.158, 1957.531
1133.640, 1955.182
1134.122, 1982.878
1134.604, 2006.388
1135.086, 2003.809
1135.568, 1986.086
1136.051, 1965.745
1136.533, 1946.137
1137.015, 1945.516
1137.497, 1960.781
1137.979, 1973.690
1138.461, 1980.919
1138.943, 1982.345
1139.425, 1977.745
1139.907, 1973.215
1140.390, 1977.875
1140.872, 1986.548
1141.354, 1987.464
1141.836, 1983.142
1142.318, 1980.051
1142.800, 1978.834
1143.282, 1977.815
1143.764, 1976.355
1144.247, 1975.682
1144.729, 1978.637
1145.211, 1980.706
1145.693, 1970.979
1146.175, 1959.414
1146.657, 1969.109
1147.139, 1990.134
1147.621, 1989.635
1148.104, 1961.523
1148.586, 1938.202
1149.068, 1941.983
1149.550, 1954.688
1150.032, 1965.167
1150.514, 1974.559
1150.996, 1986.498
1151.478, 1997.159
1151.960, 1997.592
1152.443, 1988.698
1152.925, 1984.581
1153.407, 1993.703
1153.889, 2001.644
1154.371, 2004.545
1154.853, 2001.247
1155.335, 1984.657
1155.817, 1965.854
1156.299, 1955.929
1156.782, 1955.989
1157.264, 1967.150
1157.746, 1999.621
1158.228, 2014.212
1158.710, 1986.809
1159.192, 1962.035
1159.674, 1949.987
1160.156, 1951.861
1160.639, 1979.566
1161.121, 2019.940
1161.603, 2035.731
1162.085, 2020.838
1162.567, 2007.937
1163.049, 1995.964
1163.531, 1988.227
1164.013, 1988.484
1164.495, 1987.280
1164.978, 1975.345
1165.460, 1963.146
1165.942, 1970.809
1166.424, 1997.862
1166.906, 2008.297
1167.388, 1997.878
1167.870, 1992.797
1168.352, 1997.983
1168.834, 1998.010
1169.317, 1983.959
1169.799, 1971.281
1170.281, 1979.865
1170.763, 2002.091
1171.245, 2007.838
1171.727, 1998.789
1172.209, 1997.439
1172.691, 2004.727
1173.174, 2009.303
1173.656, 2007.573
1174.138, 2001.975
1174.620, 1993.893
1175.102, 1985.279
1175.584, 1977.173
1176.066, 1971.976
1176.548, 1980.506
1177.031, 1996.435
1177.513, 1997.209
1177.995, 1982.267
1178.477, 1973.607
1178.959, 1983.140
1179.441, 1995.481
1179.923, 1998.023
1180.405, 1994.291
1180.887, 1983.205
1181.370, 1971.576
1181.852, 1969.432
1182.334, 1975.336
1182.816, 1982.475
1183.298, 1988.856
1183.780, 1997.013
1184.262, 2014.639
1184.744, 2025.756
1185.226, 2019.471
1185.709, 2006.799
1186.191, 1990.574
1186.673, 1976.704
1187.155, 1976.212
1187.637, 1988.556
1188.119, 1993.280
1188.601, 1975.862
1189.083, 1969.174
1189.566, 1983.523
1190.048, 2000.065
1190.530, 2015.319
1191.012, 2026.726
1191.494, 2032.221
1191.976, 2031.822
1192.458, 2024.160
1192.940, 2005.190
1193.422, 1998.213
1193.905, 2005.880
1194.387, 2017.369
1194.869, 2032.136
1195.351, 2043.750
1195.833, 2048.633
1196.315, 2046.286
1196.797, 2033.916
1197.279, 2013.964
1197.761, 2000.222
1198.244, 1993.034
1198.726, 2002.866
1199.208, 2028.503
1199.690, 2038.642
1200.172, 2021.339
1200.654, 2000.849
1201.136, 2000.607
1201.618, 2009.434
1202.101, 2008.671
1202.583, 2003.713
1203.065, 2006.560
1203.547, 2014.045
1204.029, 2015.088
1204.511, 2009.210
1204.993, 2006.496
1205.475, 2012.082
1205.958, 2021.723
1206.440, 2038.863
1206.922, 2051.686
1207.404, 2050.868
1207.886, 2040.534
1208.368, 2015.042
1208.850, 1986.888
1209.332, 1991.737
1209.814, 2040.939
1210.297, 2062.925
1210.779, 2010.003
1211.261, 1972.949
1211.743, 1986.481
1212.225, 2006.132
1212.707, 2003.849
1213.189, 1996.475
1213.671, 2006.004
1214.153, 2029.840
1214.636, 2047.415
1215.118, 2060.120
1215.600, 2060.609
1216.082, 2044.824
1216.564, 2030.506
1217.046, 2022.224
1217.528, 2020.411
1218.010, 2026.657
1218.493, 2035.773
1218.975, 2038.567
1219.457, 2035.042
1219.939, 2020.518
1220.421, 1998.463
1220.903, 1995.407
1221.385, 2012.282
1221.867, 2025.370
1222.349, 2024.777
1222.832, 2022.937
1223.314, 2034.591
1223.796, 2045.637
1224.278, 2029.816
1224.760, 2007.071
1225.242, 2012.272
1225.724, 2031.060
1226.206, 2025.683
1226.688, 1996.381
1227.171, 1983.507
1227.653, 2009.393
1228.135, 2030.704
1228.617, 2018.000
1229.099, 2007.668
1229.581, 2024.434
1230.063, 2046.755
1230.545, 2057.397
1231.028, 2057.538
1231.510, 2049.752
1231.992, 2032.168
1232.474, 2027.365
1232.956, 2050.292
1233.438, 2052.352
1233.920, 2015.718
1234.402, 1989.335
1234.885, 1996.049
1235.367, 2015.103
1235.849, 2026.942
1236.331, 2031.616
1236.813, 2028.011
1237.295, 2016.533
1237.777, 2002.580
1238.259, 1987.352
1238.741, 1984.903
1239.224, 1997.417
1239.706, 2016.711
1240.188, 2038.755
1240.670, 2054.856
1241.152, 2052.054
1241.634, 2040.862
1242.116, 2036.548
1242.598, 2034.528
1243.080, 2025.161
1243.563, 2012.775
1244.045, 2008.190
1244.527, 2013.369
1245.009, 2023.717
1245.491, 2044.264
1245.973, 2052.697
1246.455, 2024.051
1246.937, 2000.158
1247.420, 2009.368
1247.902, 2027.853
1248.384, 2035.796
1248.866, 2033.833
1249.348, 2023.998
1249.830, 2004.205
1250.312, 1997.313
1250.794, 2007.147
1251.276, 2019.848
1251.759, 2036.002
1252.241, 2047.625
1252.723, 2051.611
1253.205, 2047.826
1253.687, 2034.333
1254.169, 2017.079
1254.651, 2011.874
1255.133, 2016.446
1255.615, 2020.500
1256.098, 2023.722
1256.580, 2027.301
1257.062, 2030.732
1257.544, 2027.909
1258.026, 2015.920
1258.508, 2011.690
1258.990, 2039.200
1259.472, 2070.293
1259.955, 2083.312
1260.437, 2083.445
1260.919, 2069.547
1261.401, 2050.102
1261.883, 2036.540
1262.365, 2030.503
1262.847, 2029.951
1263.329, 2037.203
1263.812, 2043.349
1264.294, 2048.868
1264.776, 2050.600
1265.258, 2046.079
1265.740, 2039.883
1266.222, 2033.203
1266.704, 2029.128
1267.186, 2033.851
1267.668, 2045.871
1268.151, 2050.447
1268.633, 2047.518
1269.115, 2051.369
##END=



