##NAMES=Painite
##RRUFFID=R100164
##IDEAL CHEMISTRY=CaZr^4+^Al_9_O_15_(BO_3_)
##LOCALITY=Mogok, Burma
##OWNER=RRUFF
##SOURCE=William W. Pinch
##DESCRIPTION=Brown fragment associated with red ruby corundum
##STATUS=The identification of this mineral has been confirmed by single-crystal X-ray diffraction.
##URL=rruff.info/R100164
169.6203, 3513.116
170.1024, 3495.965
170.5845, 3469.175
171.0666, 3444.226
171.5487, 3420.431
172.0309, 3397.915
172.5130, 3377.190
172.9951, 3359.926
173.4772, 3344.502
173.9593, 3328.315
174.4414, 3308.666
174.9236, 3288.688
175.4057, 3271.960
175.8878, 3258.267
176.3699, 3246.720
176.8520, 3236.932
177.3341, 3228.498
177.8163, 3220.590
178.2984, 3212.582
178.7805, 3204.930
179.2626, 3198.406
179.7447, 3193.120
180.2268, 3188.547
180.7090, 3184.907
181.1911, 3181.774
181.6732, 3177.861
182.1553, 3174.653
182.6374, 3170.042
183.1195, 3159.302
183.6017, 3141.882
184.0838, 3120.390
184.5659, 3094.961
185.0480, 3066.766
185.5301, 3040.543
186.0123, 3017.766
186.4944, 2998.625
186.9765, 2985.927
187.4586, 2980.702
187.9407, 2977.629
188.4228, 2968.246
188.9050, 2953.241
189.3871, 2939.648
189.8692, 2932.250
190.3513, 2929.788
190.8334, 2925.903
191.3155, 2920.292
191.7977, 2913.355
192.2798, 2904.960
192.7619, 2895.133
193.2440, 2886.415
193.7261, 2881.367
194.2082, 2879.508
194.6904, 2873.796
195.1725, 2862.726
195.6546, 2850.005
196.1367, 2843.326
196.6188, 2843.001
197.1009, 2843.742
197.5831, 2842.987
198.0652, 2840.727
198.5473, 2837.756
199.0294, 2833.794
199.5115, 2829.526
199.9937, 2826.488
200.4758, 2824.843
200.9579, 2823.360
201.4400, 2821.288
201.9221, 2818.532
202.4042, 2816.013
202.8864, 2813.567
203.3685, 2811.536
203.8506, 2810.879
204.3327, 2811.774
204.8148, 2813.246
205.2969, 2815.198
205.7791, 2817.914
206.2612, 2819.001
206.7433, 2818.185
207.2254, 2815.776
207.7075, 2812.197
208.1896, 2806.926
208.6718, 2802.001
209.1539, 2799.057
209.6360, 2798.983
210.1181, 2796.276
210.6002, 2789.407
211.0823, 2780.469
211.5645, 2775.656
212.0466, 2776.295
212.5287, 2778.039
213.0108, 2778.583
213.4929, 2777.615
213.9750, 2776.823
214.4572, 2776.126
214.9393, 2775.757
215.4214, 2776.421
215.9035, 2778.303
216.3856, 2780.806
216.8678, 2783.602
217.3499, 2786.760
217.8320, 2789.876
218.3141, 2792.749
218.7962, 2795.490
219.2783, 2798.902
219.7605, 2804.164
220.2426, 2807.729
220.7247, 2807.063
221.2068, 2799.954
221.6889, 2794.932
222.1710, 2793.019
222.6532, 2793.293
223.1353, 2793.329
223.6174, 2794.396
224.0995, 2793.211
224.5816, 2787.668
225.0637, 2775.467
225.5459, 2764.794
226.0280, 2756.605
226.5101, 2749.948
226.9922, 2741.969
227.4743, 2731.362
227.9564, 2721.380
228.4386, 2713.612
228.9207, 2709.253
229.4028, 2704.478
229.8849, 2699.081
230.3670, 2693.213
230.8492, 2686.976
231.3313, 2679.480
231.8134, 2673.027
232.2955, 2668.755
232.7776, 2667.745
233.2597, 2666.769
233.7419, 2666.374
234.2240, 2665.912
234.7061, 2663.478
235.1882, 2657.920
235.6703, 2652.273
236.1524, 2647.661
236.6346, 2643.946
237.1167, 2641.824
237.5988, 2641.965
238.0809, 2643.442
238.5630, 2644.135
239.0451, 2643.883
239.5273, 2642.997
240.0094, 2641.252
240.4915, 2637.420
240.9736, 2635.916
241.4557, 2637.863
241.9378, 2641.538
242.4200, 2643.372
242.9021, 2642.608
243.3842, 2641.124
243.8663, 2639.613
244.3484, 2638.229
244.8306, 2636.160
245.3127, 2632.527
245.7948, 2628.693
246.2769, 2627.523
246.7590, 2630.981
247.2411, 2633.809
247.7233, 2633.907
248.2054, 2630.222
248.6875, 2627.830
249.1696, 2627.023
249.6517, 2627.368
250.1338, 2628.551
250.6160, 2632.171
251.0981, 2633.745
251.5802, 2631.191
252.0623, 2623.264
252.5444, 2617.697
253.0265, 2615.211
253.5087, 2614.555
253.9908, 2614.228
254.4729, 2614.807
254.9550, 2614.516
255.4371, 2612.202
255.9192, 2607.275
256.4014, 2605.642
256.8835, 2609.244
257.3656, 2614.214
257.8477, 2615.383
258.3298, 2610.150
258.8120, 2607.039
259.2941, 2609.078
259.7762, 2616.760
260.2583, 2620.920
260.7404, 2620.297
261.2225, 2617.686
261.7047, 2616.004
262.1868, 2615.543
262.6689, 2615.113
263.1510, 2614.544
263.6331, 2613.810
264.1152, 2612.328
264.5974, 2609.646
265.0795, 2606.917
265.5616, 2605.422
266.0437, 2605.537
266.5258, 2605.697
267.0079, 2605.814
267.4901, 2605.851
267.9722, 2605.230
268.4543, 2603.964
268.9364, 2602.150
269.4185, 2599.561
269.9006, 2595.801
270.3828, 2593.151
270.8649, 2592.024
271.3470, 2592.237
271.8291, 2593.200
272.3112, 2595.310
272.7933, 2596.983
273.2755, 2596.651
273.7576, 2593.843
274.2397, 2592.017
274.7218, 2591.946
275.2039, 2592.840
275.6860, 2592.228
276.1682, 2589.805
276.6503, 2587.015
277.1324, 2584.444
277.6145, 2582.065
278.0966, 2581.450
278.5787, 2583.605
279.0609, 2586.722
279.5430, 2586.099
280.0251, 2581.128
280.5072, 2576.679
280.9893, 2575.903
281.4715, 2578.810
281.9536, 2580.956
282.4357, 2582.153
282.9178, 2582.515
283.3999, 2581.527
283.8820, 2578.997
284.3642, 2577.716
284.8463, 2579.821
285.3284, 2584.858
285.8105, 2587.677
286.2926, 2587.749
286.7747, 2586.989
287.2569, 2588.360
287.7390, 2591.732
288.2211, 2594.441
288.7032, 2595.040
289.1853, 2594.026
289.6674, 2593.891
290.1496, 2594.821
290.6317, 2595.569
291.1138, 2594.200
291.5959, 2591.113
292.0780, 2589.054
292.5602, 2589.963
293.0423, 2592.170
293.5244, 2590.713
294.0065, 2585.469
294.4886, 2580.030
294.9707, 2578.070
295.4529, 2578.706
295.9350, 2578.658
296.4171, 2576.498
296.8992, 2573.725
297.3813, 2573.198
297.8634, 2574.770
298.3456, 2576.802
298.8277, 2578.280
299.3098, 2579.277
299.7919, 2579.886
300.2740, 2579.996
300.7561, 2579.951
301.2383, 2580.352
301.7204, 2581.069
302.2025, 2581.462
302.6846, 2580.318
303.1667, 2578.834
303.6488, 2578.999
304.1310, 2581.446
304.6131, 2584.518
305.0952, 2587.105
305.5773, 2589.056
306.0594, 2589.959
306.5415, 2588.447
307.0237, 2586.340
307.5058, 2585.440
307.9879, 2585.925
308.4700, 2587.565
308.9521, 2592.209
309.4343, 2597.682
309.9164, 2600.290
310.3985, 2595.548
310.8806, 2589.302
311.3627, 2586.549
311.8448, 2587.528
312.3270, 2587.895
312.8091, 2584.388
313.2912, 2579.017
313.7733, 2574.157
314.2554, 2569.996
314.7375, 2567.127
315.2197, 2567.002
315.7018, 2569.157
316.1839, 2569.751
316.6660, 2564.885
317.1481, 2558.843
317.6302, 2555.254
318.1124, 2557.220
318.5945, 2558.927
319.0766, 2557.855
319.5587, 2554.819
320.0408, 2552.628
320.5229, 2552.778
321.0051, 2553.578
321.4872, 2554.175
321.9693, 2554.661
322.4514, 2554.495
322.9335, 2552.897
323.4156, 2550.627
323.8978, 2549.153
324.3799, 2549.905
324.8620, 2550.478
325.3441, 2549.755
325.8262, 2546.906
326.3083, 2545.186
326.7905, 2545.567
327.2726, 2546.977
327.7547, 2548.086
328.2368, 2549.584
328.7189, 2550.013
329.2010, 2548.467
329.6832, 2544.639
330.1653, 2542.469
330.6474, 2543.042
331.1295, 2544.500
331.6116, 2545.380
332.0938, 2545.585
332.5759, 2545.332
333.0580, 2544.473
333.5401, 2543.094
334.0222, 2541.864
334.5043, 2540.427
334.9865, 2539.595
335.4686, 2540.010
335.9507, 2542.321
336.4328, 2544.084
336.9149, 2545.066
337.3970, 2545.488
337.8792, 2545.918
338.3613, 2546.417
338.8434, 2546.810
339.3255, 2547.333
339.8076, 2548.234
340.2898, 2547.027
340.7719, 2542.738
341.2540, 2538.078
341.7361, 2537.590
342.2182, 2541.765
342.7003, 2545.652
343.1825, 2547.472
343.6646, 2547.508
344.1467, 2547.278
344.6288, 2546.649
345.1109, 2546.355
345.5930, 2547.236
346.0752, 2549.184
346.5573, 2551.426
347.0394, 2553.975
347.5215, 2556.490
348.0036, 2557.810
348.4857, 2557.960
348.9679, 2558.811
349.4500, 2563.125
349.9321, 2569.338
350.4142, 2572.739
350.8963, 2572.212
351.3784, 2569.777
351.8606, 2567.207
352.3427, 2564.740
352.8248, 2563.204
353.3069, 2564.461
353.7890, 2566.423
354.2711, 2566.064
354.7533, 2563.014
355.2354, 2559.097
355.7175, 2554.760
356.1996, 2550.767
356.6817, 2548.448
357.1638, 2551.145
357.6460, 2553.693
358.1281, 2551.160
358.6102, 2543.946
359.0923, 2537.450
359.5744, 2535.375
360.0565, 2535.267
360.5387, 2534.729
361.0208, 2532.490
361.5029, 2530.466
361.9850, 2529.635
362.4671, 2529.729
362.9492, 2529.941
363.4314, 2530.317
363.9135, 2530.512
364.3956, 2530.024
364.8777, 2527.720
365.3598, 2527.351
365.8419, 2531.959
366.3241, 2538.489
366.8062, 2542.324
367.2883, 2540.055
367.7704, 2537.690
368.2526, 2536.859
368.7347, 2537.869
369.2168, 2538.848
369.6989, 2539.733
370.1810, 2540.579
370.6631, 2541.450
371.1453, 2542.491
371.6274, 2543.294
372.1095, 2543.360
372.5916, 2542.991
373.0737, 2544.430
373.5558, 2549.127
374.0380, 2553.478
374.5201, 2555.216
375.0022, 2553.180
375.4843, 2552.334
375.9664, 2553.042
376.4485, 2554.832
376.9307, 2556.723
377.4128, 2558.540
377.8949, 2561.120
378.3770, 2564.806
378.8591, 2569.550
379.3412, 2575.500
379.8234, 2583.150
380.3055, 2590.075
380.7876, 2592.791
381.2697, 2591.566
381.7518, 2590.724
382.2339, 2591.812
382.7161, 2593.723
383.1982, 2594.116
383.6803, 2593.001
384.1624, 2590.472
384.6445, 2585.761
385.1266, 2579.724
385.6088, 2574.527
386.0909, 2570.633
386.5730, 2567.261
387.0551, 2563.302
387.5372, 2559.144
388.0193, 2555.813
388.5015, 2553.361
388.9836, 2552.300
389.4657, 2553.806
389.9478, 2558.008
390.4299, 2562.132
390.9120, 2563.618
391.3942, 2564.126
391.8763, 2565.687
392.3584, 2570.159
392.8405, 2574.750
393.3226, 2577.397
393.8047, 2578.700
394.2869, 2581.401
394.7690, 2588.875
395.2511, 2596.516
395.7332, 2601.038
396.2154, 2599.404
396.6975, 2599.970
397.1796, 2606.669
397.6617, 2616.365
398.1438, 2623.612
398.6259, 2626.833
399.1081, 2628.432
399.5902, 2629.137
400.0723, 2629.121
400.5544, 2626.979
401.0365, 2621.558
401.5186, 2614.780
402.0008, 2608.250
402.4829, 2602.131
402.9650, 2595.785
403.4471, 2589.076
403.9292, 2582.038
404.4113, 2574.861
404.8935, 2567.151
405.3756, 2560.108
405.8577, 2554.495
406.3398, 2550.562
406.8219, 2546.716
407.3040, 2542.938
407.7862, 2539.336
408.2683, 2536.002
408.7504, 2532.967
409.2325, 2530.246
409.7146, 2527.930
410.1967, 2525.995
410.6789, 2524.090
411.1610, 2522.236
411.6431, 2520.682
412.1252, 2520.516
412.6073, 2520.909
413.0894, 2519.057
413.5716, 2513.650
414.0537, 2507.613
414.5358, 2504.676
415.0179, 2504.169
415.5000, 2503.855
415.9821, 2502.108
416.4643, 2500.091
416.9464, 2498.745
417.4285, 2498.083
417.9106, 2498.640
418.3927, 2502.079
418.8748, 2506.449
419.3570, 2509.386
419.8391, 2508.797
420.3212, 2507.903
420.8033, 2508.263
421.2854, 2509.579
421.7675, 2510.392
422.2497, 2509.631
422.7318, 2508.784
423.2139, 2508.668
423.6960, 2509.640
424.1781, 2510.888
424.6602, 2512.897
425.1424, 2515.032
425.6245, 2516.277
426.1066, 2515.146
426.5887, 2515.031
427.0709, 2517.224
427.5530, 2521.706
428.0351, 2524.112
428.5172, 2523.044
428.9993, 2521.787
429.4814, 2522.746
429.9636, 2526.366
430.4457, 2530.468
430.9278, 2535.021
431.4099, 2539.792
431.8920, 2544.397
432.3741, 2548.927
432.8563, 2552.824
433.3384, 2554.831
433.8205, 2555.624
434.3026, 2560.646
434.7847, 2570.434
435.2668, 2580.332
435.7490, 2585.273
436.2311, 2586.314
436.7132, 2587.292
437.1953, 2590.240
437.6774, 2592.138
438.1595, 2587.956
438.6417, 2578.800
439.1238, 2569.224
439.6059, 2561.312
440.0880, 2554.735
440.5701, 2549.264
441.0522, 2544.920
441.5344, 2541.292
442.0165, 2538.797
442.4986, 2536.648
442.9807, 2533.887
443.4628, 2528.870
443.9449, 2524.474
444.4271, 2521.532
444.9092, 2520.057
445.3913, 2520.073
445.8734, 2522.536
446.3555, 2525.734
446.8376, 2528.968
447.3198, 2532.882
447.8019, 2535.374
448.2840, 2535.686
448.7661, 2534.847
449.2482, 2534.294
449.7303, 2534.519
450.2125, 2534.185
450.6946, 2532.711
451.1767, 2530.238
451.6588, 2528.747
452.1409, 2528.202
452.6230, 2528.719
453.1052, 2530.993
453.5873, 2535.307
454.0694, 2537.498
454.5515, 2536.585
455.0337, 2534.779
455.5158, 2536.183
455.9979, 2540.573
456.4800, 2544.553
456.9621, 2545.948
457.4442, 2546.168
457.9264, 2549.013
458.4085, 2554.382
458.8906, 2559.726
459.3727, 2562.491
459.8548, 2563.979
460.3369, 2565.983
460.8191, 2568.541
461.3012, 2572.672
461.7833, 2580.108
462.2654, 2589.728
462.7475, 2599.143
463.2296, 2606.564
463.7118, 2614.233
464.1939, 2624.260
464.6760, 2636.885
465.1581, 2647.254
465.6402, 2650.776
466.1223, 2653.207
466.6045, 2658.542
467.0866, 2673.884
467.5687, 2683.883
468.0508, 2686.254
468.5329, 2682.902
469.0150, 2678.051
469.4972, 2672.732
469.9793, 2664.407
470.4614, 2651.509
470.9435, 2633.740
471.4256, 2617.663
471.9077, 2603.330
472.3899, 2590.671
472.8720, 2579.937
473.3541, 2571.138
473.8362, 2562.722
474.3183, 2554.085
474.8004, 2546.212
475.2826, 2541.441
475.7647, 2539.599
476.2468, 2538.361
476.7289, 2537.066
477.2110, 2535.398
477.6931, 2532.446
478.1753, 2528.183
478.6574, 2523.752
479.1395, 2519.939
479.6216, 2516.592
480.1037, 2513.543
480.5858, 2510.906
481.0680, 2508.261
481.5501, 2505.333
482.0322, 2502.211
482.5143, 2499.076
482.9964, 2496.090
483.4786, 2493.088
483.9607, 2489.674
484.4428, 2485.776
484.9249, 2483.069
485.4070, 2483.052
485.8892, 2483.660
486.3713, 2483.402
486.8534, 2480.851
487.3355, 2479.505
487.8176, 2479.729
488.2997, 2481.097
488.7819, 2482.993
489.2640, 2486.229
489.7461, 2487.992
490.2282, 2486.619
490.7103, 2482.392
491.1924, 2480.894
491.6746, 2482.462
492.1567, 2485.205
492.6388, 2488.041
493.1209, 2490.843
493.6030, 2492.227
494.0851, 2491.855
494.5673, 2490.460
495.0494, 2488.532
495.5315, 2486.336
496.0136, 2484.912
496.4957, 2485.624
496.9778, 2486.839
497.4600, 2486.523
497.9421, 2484.830
498.4242, 2483.274
498.9063, 2483.135
499.3884, 2483.332
499.8705, 2482.977
500.3527, 2481.944
500.8348, 2480.242
501.3169, 2476.739
501.7990, 2472.912
502.2811, 2470.831
502.7632, 2471.957
503.2454, 2473.762
503.7275, 2476.199
504.2096, 2479.136
504.6917, 2481.060
505.1738, 2481.286
505.6559, 2481.461
506.1381, 2482.638
506.6202, 2485.383
507.1023, 2486.751
507.5844, 2486.188
508.0665, 2485.306
508.5486, 2486.612
509.0308, 2490.171
509.5129, 2493.060
509.9950, 2494.220
510.4771, 2494.491
510.9592, 2495.867
511.4413, 2498.176
511.9235, 2500.196
512.4056, 2501.132
512.8877, 2501.235
513.3698, 2500.750
513.8519, 2499.641
514.3340, 2498.491
514.8162, 2497.795
515.2983, 2497.283
515.7804, 2496.597
516.2625, 2494.784
516.7446, 2493.921
517.2267, 2495.698
517.7089, 2499.130
518.1910, 2501.731
518.6731, 2501.933
519.1552, 2502.281
519.6373, 2503.921
520.1194, 2507.073
520.6016, 2509.237
521.0837, 2508.970
521.5658, 2509.251
522.0479, 2512.692
522.5300, 2520.603
523.0121, 2526.386
523.4943, 2528.747
523.9764, 2529.900
524.4585, 2534.721
524.9406, 2543.255
525.4227, 2549.598
525.9048, 2550.238
526.3870, 2547.906
526.8691, 2550.094
527.3513, 2556.528
527.8334, 2562.742
528.3155, 2565.158
528.7976, 2565.548
529.2797, 2566.954
529.7618, 2570.169
530.2440, 2571.833
530.7261, 2567.660
531.2082, 2561.090
531.6903, 2556.608
532.1724, 2557.356
532.6545, 2558.544
533.1367, 2558.663
533.6188, 2557.972
534.1009, 2557.435
534.5830, 2557.209
535.0651, 2557.158
535.5472, 2557.201
536.0294, 2557.304
536.5115, 2558.017
536.9936, 2560.192
537.4757, 2561.821
537.9578, 2560.808
538.4399, 2556.558
538.9221, 2553.679
539.4042, 2553.218
539.8863, 2553.254
540.3684, 2550.203
540.8505, 2544.252
541.3326, 2537.663
541.8148, 2531.274
542.2969, 2524.889
542.7790, 2517.822
543.2611, 2510.214
543.7432, 2502.944
544.2253, 2496.536
544.7075, 2490.810
545.1896, 2486.042
545.6717, 2482.666
546.1538, 2477.978
546.6359, 2468.411
547.1180, 2457.771
547.6002, 2450.225
548.0823, 2449.553
548.5644, 2448.798
549.0465, 2446.196
549.5286, 2442.569
550.0107, 2440.429
550.4929, 2441.102
550.9750, 2441.189
551.4571, 2439.171
551.9392, 2435.010
552.4213, 2433.084
552.9034, 2434.130
553.3856, 2435.043
553.8677, 2431.747
554.3498, 2424.933
554.8319, 2424.155
555.3140, 2431.603
555.7961, 2440.615
556.2783, 2441.753
556.7604, 2437.313
557.2425, 2433.773
557.7246, 2434.400
558.2067, 2436.075
558.6888, 2435.403
559.1710, 2433.153
559.6531, 2431.904
560.1352, 2433.925
560.6173, 2436.565
561.0994, 2437.933
561.5815, 2437.599
562.0637, 2438.579
562.5458, 2443.280
563.0279, 2448.303
563.5100, 2451.106
563.9921, 2449.321
564.4742, 2449.466
564.9564, 2452.094
565.4385, 2456.317
565.9206, 2460.723
566.4027, 2465.210
566.8848, 2470.084
567.3669, 2475.487
567.8491, 2481.246
568.3312, 2486.951
568.8133, 2492.550
569.2954, 2497.311
569.7775, 2499.960
570.2596, 2501.652
570.7418, 2505.153
571.2239, 2510.769
571.7060, 2514.778
572.1881, 2512.007
572.6702, 2507.160
573.1523, 2505.861
573.6345, 2512.612
574.1166, 2517.449
574.5987, 2514.995
575.0808, 2508.551
575.5629, 2503.535
576.0450, 2503.224
576.5272, 2501.793
577.0093, 2497.963
577.4914, 2492.064
577.9735, 2485.897
578.4556, 2479.059
578.9377, 2472.923
579.4199, 2467.841
579.9020, 2463.880
580.3841, 2462.576
580.8662, 2464.329
581.3483, 2466.748
581.8304, 2467.335
582.3126, 2466.585
582.7947, 2466.166
583.2768, 2466.396
583.7589, 2466.999
584.2410, 2467.014
584.7231, 2467.211
585.2053, 2469.121
585.6874, 2475.215
586.1696, 2481.418
586.6517, 2485.781
587.1338, 2488.384
587.6159, 2489.850
588.0980, 2489.892
588.5801, 2489.122
589.0623, 2487.223
589.5444, 2483.693
590.0265, 2482.669
590.5086, 2486.462
590.9907, 2489.842
591.4728, 2488.206
591.9550, 2480.650
592.4371, 2474.477
592.9192, 2470.695
593.4013, 2467.614
593.8834, 2462.605
594.3655, 2456.010
594.8477, 2449.754
595.3298, 2444.644
595.8119, 2440.105
596.2940, 2435.170
596.7761, 2430.134
597.2582, 2425.823
597.7404, 2422.455
598.2225, 2420.086
598.7046, 2419.175
599.1867, 2419.680
599.6688, 2419.646
600.1509, 2418.269
600.6331, 2416.248
601.1152, 2413.883
601.5973, 2410.607
602.0794, 2408.338
602.5615, 2407.590
603.0436, 2407.372
603.5258, 2406.459
604.0079, 2404.617
604.4900, 2403.664
604.9721, 2404.382
605.4542, 2405.512
605.9363, 2403.555
606.4185, 2399.051
606.9006, 2396.450
607.3827, 2398.867
607.8648, 2403.759
608.3469, 2408.148
608.8290, 2411.940
609.3112, 2414.332
609.7933, 2412.840
610.2754, 2411.188
610.7575, 2412.404
611.2396, 2417.093
611.7217, 2422.130
612.2039, 2427.144
612.6860, 2431.756
613.1681, 2435.740
613.6502, 2439.296
614.1323, 2441.646
614.6144, 2442.081
615.0966, 2441.853
615.5787, 2442.731
616.0608, 2444.773
616.5429, 2447.840
617.0250, 2452.532
617.5071, 2457.563
617.9893, 2459.715
618.4714, 2459.253
618.9535, 2458.056
619.4356, 2456.594
619.9177, 2455.272
620.3998, 2455.333
620.8820, 2456.487
621.3641, 2456.064
621.8462, 2450.996
622.3283, 2444.830
622.8104, 2440.387
623.2925, 2438.603
623.7747, 2435.942
624.2568, 2430.609
624.7389, 2424.817
625.2210, 2420.341
625.7031, 2417.636
626.1852, 2415.244
626.6674, 2413.345
627.1495, 2411.439
627.6316, 2408.624
628.1137, 2404.865
628.5958, 2401.017
629.0779, 2397.221
629.5601, 2393.634
630.0422, 2390.629
630.5243, 2388.173
631.0064, 2385.890
631.4885, 2383.268
631.9706, 2380.980
632.4528, 2379.899
632.9349, 2379.964
633.4170, 2379.996
633.8991, 2379.263
634.3812, 2378.534
634.8633, 2378.198
635.3455, 2378.219
635.8276, 2378.990
636.3097, 2381.149
636.7918, 2383.444
637.2739, 2384.724
637.7560, 2384.618
638.2382, 2384.718
638.7203, 2384.977
639.2024, 2385.683
639.6845, 2387.540
640.1666, 2390.382
640.6487, 2393.074
641.1309, 2395.406
641.6130, 2397.190
642.0951, 2397.784
642.5772, 2397.524
643.0594, 2397.383
643.5415, 2397.253
644.0236, 2397.884
644.5057, 2400.682
644.9879, 2405.271
645.4700, 2407.912
645.9521, 2406.282
646.4342, 2403.923
646.9163, 2402.058
647.3984, 2400.482
647.8806, 2401.616
648.3627, 2407.351
648.8448, 2412.441
649.3269, 2411.501
649.8090, 2404.573
650.2911, 2401.519
650.7733, 2403.720
651.2554, 2406.931
651.7375, 2405.243
652.2196, 2400.638
652.7017, 2398.177
653.1838, 2400.275
653.6660, 2402.837
654.1481, 2402.602
654.6302, 2400.598
655.1123, 2398.655
655.5944, 2397.034
656.0765, 2395.841
656.5587, 2394.970
657.0408, 2394.471
657.5229, 2394.813
658.0050, 2397.210
658.4871, 2398.204
658.9692, 2396.006
659.4514, 2391.016
659.9335, 2388.151
660.4156, 2387.706
660.8977, 2387.050
661.3798, 2383.814
661.8619, 2379.004
662.3441, 2375.066
662.8262, 2372.156
663.3083, 2370.192
663.7904, 2369.752
664.2725, 2369.952
664.7546, 2370.040
665.2368, 2370.395
665.7189, 2369.265
666.2010, 2365.137
666.6831, 2359.687
667.1652, 2354.715
667.6473, 2348.808
668.1295, 2346.081
668.6116, 2348.182
669.0937, 2352.618
669.5758, 2354.412
670.0579, 2353.327
670.5400, 2351.869
671.0222, 2350.373
671.5043, 2349.331
671.9864, 2350.050
672.4685, 2352.236
672.9506, 2354.548
673.4327, 2356.048
673.9149, 2357.386
674.3970, 2359.579
674.8791, 2362.376
675.3612, 2363.998
675.8433, 2362.706
676.3254, 2360.946
676.8076, 2360.018
677.2897, 2360.175
677.7718, 2360.242
678.2539, 2360.460
678.7360, 2360.367
679.2181, 2359.269
679.7003, 2356.949
680.1824, 2356.724
680.6645, 2359.043
681.1466, 2362.083
681.6287, 2363.824
682.1108, 2364.676
682.5930, 2365.866
683.0751, 2367.863
683.5572, 2369.359
684.0393, 2368.528
684.5214, 2366.659
685.0035, 2365.611
685.4857, 2366.424
685.9678, 2367.526
686.4499, 2368.296
686.9320, 2369.099
687.4141, 2370.788
687.8962, 2373.832
688.3784, 2376.910
688.8605, 2379.927
689.3426, 2382.728
689.8247, 2384.761
690.3068, 2386.062
690.7889, 2386.659
691.2711, 2386.126
691.7532, 2385.127
692.2353, 2385.246
692.7174, 2386.278
693.1995, 2386.911
693.6816, 2385.977
694.1638, 2384.617
694.6459, 2383.652
695.1280, 2383.166
695.6101, 2382.840
696.0922, 2381.596
696.5743, 2381.427
697.0565, 2383.831
697.5386, 2390.079
698.0207, 2393.599
698.5028, 2393.691
698.9849, 2392.613
699.4670, 2392.231
699.9492, 2392.522
700.4313, 2393.175
700.9135, 2394.098
701.3956, 2395.539
701.8777, 2398.071
702.3598, 2401.172
702.8419, 2403.941
703.3240, 2405.880
703.8062, 2407.818
704.2883, 2410.354
704.7704, 2413.044
705.2525, 2415.216
705.7346, 2416.446
706.2167, 2417.550
706.6989, 2418.516
707.1810, 2419.484
707.6631, 2421.019
708.1452, 2423.399
708.6273, 2424.631
709.1094, 2423.468
709.5916, 2421.498
710.0737, 2422.862
710.5558, 2426.967
711.0379, 2430.727
711.5200, 2432.025
712.0021, 2432.561
712.4843, 2433.448
712.9664, 2434.789
713.4485, 2437.066
713.9306, 2442.154
714.4127, 2446.598
714.8948, 2448.094
715.3770, 2446.593
715.8591, 2446.996
716.3412, 2450.300
716.8233, 2453.542
717.3054, 2454.890
717.7875, 2454.448
718.2697, 2454.501
718.7518, 2455.144
719.2339, 2455.292
719.7160, 2454.233
720.1981, 2452.030
720.6802, 2448.273
721.1624, 2442.775
721.6445, 2437.854
722.1266, 2435.654
722.6087, 2434.218
723.0908, 2431.864
723.5729, 2427.870
724.0551, 2423.955
724.5372, 2420.586
725.0193, 2417.016
725.5014, 2411.927
725.9835, 2404.578
726.4656, 2400.701
726.9478, 2401.585
727.4299, 2404.097
727.9120, 2403.777
728.3941, 2401.348
728.8762, 2399.219
729.3583, 2398.438
729.8405, 2397.304
730.3226, 2393.691
730.8047, 2388.884
731.2868, 2385.124
731.7689, 2383.574
732.2510, 2382.514
732.7332, 2381.578
733.2153, 2380.882
733.6974, 2380.737
734.1795, 2381.336
734.6616, 2381.987
735.1437, 2382.499
735.6259, 2382.970
736.1080, 2383.784
736.5901, 2384.868
737.0722, 2385.618
737.5543, 2385.776
738.0364, 2385.398
738.5186, 2384.143
739.0007, 2382.313
739.4828, 2380.969
739.9649, 2380.304
740.4470, 2380.487
740.9291, 2382.186
741.4113, 2385.216
741.8934, 2386.995
742.3755, 2387.371
742.8576, 2386.733
743.3397, 2384.523
743.8218, 2381.239
744.3040, 2382.020
744.7861, 2387.009
745.2682, 2390.527
745.7503, 2386.136
746.2324, 2378.842
746.7145, 2377.485
747.1967, 2381.969
747.6788, 2386.300
748.1609, 2387.318
748.6430, 2386.916
749.1251, 2385.936
749.6072, 2384.107
750.0894, 2383.838
750.5715, 2386.298
751.0536, 2388.890
751.5357, 2389.771
752.0178, 2388.750
752.4999, 2388.810
752.9821, 2390.125
753.4642, 2391.474
753.9463, 2391.390
754.4284, 2390.571
754.9105, 2390.263
755.3926, 2390.574
755.8748, 2391.759
756.3569, 2394.955
756.8390, 2398.482
757.3211, 2400.804
757.8032, 2400.975
758.2853, 2401.345
758.7675, 2402.060
759.2496, 2402.984
759.7318, 2404.199
760.2139, 2405.858
760.6960, 2406.410
761.1781, 2405.431
761.6602, 2404.495
762.1423, 2406.328
762.6245, 2409.654
763.1066, 2410.930
763.5887, 2408.596
764.0708, 2406.914
764.5529, 2410.177
765.0350, 2415.244
765.5172, 2418.383
765.9993, 2415.452
766.4814, 2415.109
766.9635, 2419.204
767.4456, 2424.930
767.9277, 2428.483
768.4099, 2429.476
768.8920, 2431.082
769.3741, 2434.242
769.8562, 2437.010
770.3383, 2435.035
770.8204, 2430.356
771.3026, 2428.763
771.7847, 2433.536
772.2668, 2439.121
772.7489, 2442.216
773.2310, 2443.600
773.7131, 2444.458
774.1953, 2443.815
774.6774, 2444.473
775.1595, 2447.432
775.6416, 2451.465
776.1237, 2454.011
776.6058, 2454.733
777.0880, 2456.724
777.5701, 2461.043
778.0522, 2466.281
778.5343, 2469.743
779.0164, 2472.084
779.4985, 2475.321
779.9807, 2481.319
780.4628, 2487.039
780.9449, 2490.090
781.4270, 2491.531
781.9091, 2493.663
782.3912, 2497.236
782.8734, 2501.147
783.3555, 2505.366
783.8376, 2509.819
784.3197, 2514.441
784.8018, 2519.374
785.2839, 2523.398
785.7661, 2525.833
786.2482, 2527.623
786.7303, 2529.914
787.2124, 2532.814
787.6945, 2536.688
788.1766, 2544.253
788.6588, 2550.259
789.1409, 2550.461
789.6230, 2547.040
790.1051, 2546.398
790.5872, 2551.895
791.0693, 2555.909
791.5515, 2556.776
792.0336, 2555.274
792.5157, 2553.071
792.9978, 2550.167
793.4799, 2548.481
793.9620, 2549.909
794.4442, 2551.542
794.9263, 2548.140
795.4084, 2541.315
795.8905, 2535.537
796.3726, 2534.191
796.8547, 2532.839
797.3369, 2528.686
797.8190, 2522.909
798.3011, 2519.765
798.7832, 2520.946
799.2653, 2521.340
799.7474, 2519.619
800.2296, 2516.326
800.7117, 2512.867
801.1938, 2509.239
801.6759, 2505.491
802.1580, 2501.887
802.6401, 2497.948
803.1223, 2492.617
803.6044, 2486.548
804.0865, 2481.505
804.5686, 2479.485
805.0507, 2477.156
805.5328, 2472.704
806.0150, 2467.249
806.4971, 2464.010
806.9792, 2464.130
807.4613, 2462.641
807.9434, 2457.309
808.4255, 2450.477
808.9077, 2447.868
809.3898, 2448.642
809.8719, 2449.120
810.3540, 2447.997
810.8361, 2445.542
811.3182, 2440.684
811.8004, 2434.686
812.2825, 2430.460
812.7646, 2430.087
813.2467, 2429.998
813.7288, 2429.981
814.2109, 2429.653
814.6931, 2427.778
815.1752, 2424.167
815.6573, 2420.981
816.1394, 2419.092
816.6215, 2417.562
817.1037, 2414.251
817.5858, 2410.015
818.0679, 2407.013
818.5500, 2407.681
819.0322, 2408.112
819.5143, 2405.652
819.9964, 2401.687
820.4785, 2399.226
820.9606, 2399.526
821.4427, 2399.243
821.9249, 2398.007
822.4070, 2395.740
822.8891, 2391.528
823.3712, 2385.673
823.8533, 2381.763
824.3354, 2381.514
824.8176, 2382.110
825.2997, 2380.024
825.7818, 2376.664
826.2639, 2374.460
826.7460, 2375.183
827.2281, 2376.024
827.7103, 2377.053
828.1924, 2377.553
828.6745, 2376.194
829.1566, 2372.233
829.6387, 2369.394
830.1208, 2368.309
830.6030, 2368.267
831.0851, 2368.812
831.5672, 2369.520
832.0493, 2368.982
832.5314, 2366.106
833.0135, 2363.798
833.4957, 2365.292
833.9778, 2367.968
834.4599, 2368.767
834.9420, 2365.333
835.4241, 2362.510
835.9063, 2360.448
836.3884, 2358.920
836.8705, 2357.746
837.3526, 2356.941
837.8347, 2356.046
838.3168, 2354.767
838.7990, 2354.728
839.2811, 2359.340
839.7632, 2365.518
840.2453, 2368.791
840.7274, 2367.565
841.2095, 2365.899
841.6917, 2364.143
842.1738, 2363.196
842.6559, 2363.999
843.1380, 2367.639
843.6201, 2368.785
844.1022, 2366.858
844.5844, 2364.424
845.0665, 2363.960
845.5486, 2364.902
846.0307, 2365.992
846.5128, 2367.157
846.9949, 2367.481
847.4771, 2365.342
847.9592, 2362.870
848.4413, 2361.991
848.9234, 2363.451
849.4055, 2363.362
849.8876, 2360.630
850.3698, 2357.917
850.8519, 2356.992
851.3340, 2357.644
851.8161, 2357.035
852.2982, 2355.160
852.7803, 2354.098
853.2625, 2357.512
853.7446, 2361.086
854.2267, 2359.271
854.7088, 2352.380
855.1909, 2346.727
855.6730, 2345.296
856.1552, 2344.673
856.6373, 2343.719
857.1194, 2342.492
857.6015, 2341.097
858.0836, 2339.441
858.5657, 2338.467
859.0479, 2338.895
859.5300, 2340.119
860.0121, 2341.289
860.4942, 2342.294
860.9763, 2342.687
861.4584, 2341.869
861.9406, 2340.775
862.4227, 2339.538
862.9048, 2338.353
863.3869, 2337.773
863.8690, 2337.699
864.3511, 2338.593
864.8333, 2341.166
865.3154, 2343.969
865.7975, 2343.085
866.2796, 2339.513
866.7617, 2337.815
867.2438, 2340.768
867.7260, 2344.015
868.2081, 2343.885
868.6902, 2341.968
869.1723, 2340.775
869.6544, 2342.198
870.1365, 2342.221
870.6187, 2339.765
871.1008, 2336.841
871.5829, 2337.073
872.0650, 2340.200
872.5471, 2339.986
873.0292, 2334.901
873.5114, 2329.560
873.9935, 2329.430
874.4756, 2331.566
874.9577, 2332.109
875.4399, 2329.708
875.9220, 2327.664
876.4041, 2327.621
876.8862, 2327.509
877.3683, 2325.737
877.8505, 2321.846
878.3326, 2319.376
878.8147, 2318.420
879.2968, 2318.071
879.7789, 2318.355
880.2610, 2318.396
880.7432, 2316.284
881.2253, 2312.010
881.7074, 2308.201
882.1895, 2307.044
882.6716, 2305.844
883.1537, 2302.792
883.6359, 2298.049
884.1180, 2294.357
884.6001, 2291.706
885.0822, 2290.203
885.5643, 2290.754
886.0464, 2292.029
886.5286, 2290.209
887.0107, 2286.048
887.4928, 2282.599
887.9749, 2281.698
888.4570, 2281.765
888.9391, 2282.579
889.4213, 2283.742
889.9034, 2284.071
890.3855, 2283.283
890.8676, 2282.273
891.3497, 2281.223
891.8318, 2280.011
892.3140, 2277.772
892.7961, 2275.011
893.2782, 2273.889
893.7603, 2275.601
894.2424, 2277.832
894.7245, 2279.605
895.2067, 2280.570
895.6888, 2280.264
896.1709, 2276.918
896.6530, 2275.206
897.1351, 2275.933
897.6172, 2277.058
898.0994, 2275.768
898.5815, 2272.641
899.0636, 2272.423
899.5457, 2275.706
900.0278, 2279.259
900.5099, 2280.707
900.9921, 2281.042
901.4742, 2281.330
901.9563, 2281.835
902.4384, 2280.915
902.9205, 2277.263
903.4026, 2273.886
903.8848, 2272.104
904.3669, 2271.831
904.8490, 2272.447
905.3311, 2273.925
905.8132, 2275.774
906.2953, 2278.701
906.7775, 2281.079
907.2596, 2280.702
907.7417, 2278.317
908.2238, 2276.587
908.7059, 2276.601
909.1880, 2277.001
909.6702, 2277.826
910.1523, 2278.679
910.6344, 2278.409
911.1165, 2277.055
911.5986, 2276.050
912.0807, 2275.880
912.5629, 2276.013
913.0450, 2275.776
913.5271, 2275.468
914.0092, 2275.587
914.4913, 2276.904
914.9734, 2277.460
915.4556, 2276.359
915.9377, 2274.970
916.4198, 2274.465
916.9019, 2274.864
917.3840, 2276.096
917.8661, 2278.336
918.3483, 2279.731
918.8304, 2277.819
919.3125, 2274.554
919.7946, 2272.028
920.2767, 2270.483
920.7589, 2270.144
921.2410, 2272.271
921.7231, 2274.425
922.2052, 2275.600
922.6873, 2275.927
923.1694, 2276.717
923.6516, 2277.980
924.1337, 2278.674
924.6158, 2277.299
925.0979, 2275.890
925.5800, 2277.900
926.0621, 2282.010
926.5443, 2284.968
927.0264, 2285.024
927.5085, 2284.538
927.9906, 2283.744
928.4727, 2282.920
928.9548, 2282.610
929.4370, 2282.855
929.9191, 2283.063
930.4012, 2283.289
930.8833, 2282.848
931.3654, 2279.816
931.8475, 2276.135
932.3297, 2274.480
932.8118, 2275.732
933.2939, 2277.722
933.7761, 2281.382
934.2582, 2284.107
934.7403, 2283.844
935.2224, 2280.464
935.7045, 2279.067
936.1866, 2279.715
936.6688, 2279.988
937.1509, 2278.120
937.6330, 2275.032
938.1151, 2270.544
938.5972, 2265.410
939.0793, 2263.246
939.5615, 2269.497
940.0436, 2273.513
940.5257, 2271.722
941.0078, 2266.568
941.4899, 2264.863
941.9720, 2266.464
942.4542, 2267.140
942.9363, 2265.040
943.4184, 2263.129
943.9005, 2265.577
944.3826, 2269.830
944.8647, 2272.374
945.3469, 2271.578
945.8290, 2270.289
946.3111, 2268.485
946.7932, 2266.619
947.2753, 2265.195
947.7574, 2264.154
948.2396, 2262.220
948.7217, 2259.345
949.2038, 2257.647
949.6859, 2260.191
950.1680, 2263.650
950.6501, 2264.762
951.1323, 2263.530
951.6144, 2263.358
952.0965, 2265.683
952.5786, 2267.332
953.0607, 2267.125
953.5428, 2265.715
954.0250, 2265.196
954.5071, 2265.333
954.9892, 2264.581
955.4713, 2260.809
955.9534, 2258.539
956.4355, 2263.503
956.9177, 2271.226
957.3998, 2275.153
957.8819, 2271.853
958.3640, 2269.777
958.8461, 2269.257
959.3282, 2269.686
959.8104, 2271.045
960.2925, 2272.843
960.7746, 2272.821
961.2567, 2270.825
961.7388, 2269.565
962.2209, 2271.871
962.7031, 2274.591
963.1852, 2275.216
963.6673, 2273.807
964.1494, 2273.865
964.6315, 2275.830
965.1136, 2277.651
965.5958, 2278.567
966.0779, 2278.805
966.5600, 2278.317
967.0421, 2277.550
967.5242, 2277.805
968.0063, 2280.969
968.4885, 2283.353
968.9706, 2283.146
969.4527, 2281.667
969.9348, 2280.340
970.4169, 2279.003
970.8990, 2278.881
971.3812, 2280.163
971.8633, 2281.996
972.3454, 2283.918
972.8275, 2285.638
973.3096, 2286.550
973.7917, 2286.603
974.2739, 2286.885
974.7560, 2288.063
975.2381, 2289.181
975.7202, 2289.652
976.2023, 2289.773
976.6844, 2291.083
977.1666, 2293.594
977.6487, 2296.684
978.1308, 2300.099
978.6129, 2303.970
979.0950, 2309.812
979.5771, 2315.876
980.0593, 2319.323
980.5414, 2316.460
981.0235, 2315.113
981.5056, 2315.091
981.9877, 2317.341
982.4698, 2324.376
982.9520, 2335.023
983.4341, 2341.424
983.9162, 2343.101
984.3983, 2344.246
984.8804, 2346.802
985.3625, 2350.830
985.8447, 2357.315
986.3268, 2365.989
986.8089, 2371.861
987.2910, 2373.684
987.7731, 2376.426
988.2552, 2382.486
988.7374, 2389.382
989.2195, 2392.028
989.7016, 2391.315
990.1837, 2389.411
990.6658, 2386.927
991.1479, 2383.602
991.6301, 2380.027
992.1122, 2374.987
992.5944, 2366.908
993.0765, 2355.017
993.5586, 2344.852
994.0407, 2336.452
994.5228, 2329.774
995.0049, 2326.481
995.4871, 2323.866
995.9692, 2317.539
996.4513, 2307.963
996.9334, 2299.724
997.4155, 2294.512
997.8976, 2290.650
998.3798, 2288.036
998.8619, 2286.302
999.3440, 2284.483
999.8261, 2282.621
1000.308, 2281.411
1000.790, 2281.380
1001.272, 2280.855
1001.755, 2278.233
1002.237, 2274.464
1002.719, 2270.188
1003.201, 2264.282
1003.683, 2262.505
1004.165, 2266.668
1004.647, 2270.412
1005.129, 2268.989
1005.612, 2264.126
1006.094, 2259.942
1006.576, 2256.698
1007.058, 2255.349
1007.540, 2259.157
1008.022, 2261.966
1008.504, 2260.104
1008.986, 2256.063
1009.468, 2253.958
1009.951, 2253.977
1010.433, 2254.725
1010.915, 2256.212
1011.397, 2257.243
1011.879, 2255.176
1012.361, 2252.524
1012.843, 2253.084
1013.325, 2257.992
1013.807, 2260.590
1014.290, 2258.364
1014.772, 2255.755
1015.254, 2254.800
1015.736, 2254.948
1016.218, 2253.433
1016.700, 2250.668
1017.182, 2249.047
1017.664, 2250.517
1018.147, 2252.332
1018.629, 2253.595
1019.111, 2253.749
1019.593, 2251.705
1020.075, 2246.097
1020.557, 2242.747
1021.039, 2242.257
1021.521, 2242.605
1022.003, 2241.917
1022.486, 2240.722
1022.968, 2239.958
1023.450, 2239.656
1023.932, 2239.480
1024.414, 2239.875
1024.896, 2239.645
1025.378, 2238.030
1025.860, 2235.737
1026.343, 2234.880
1026.825, 2235.376
1027.307, 2235.996
1027.789, 2236.507
1028.271, 2236.717
1028.753, 2236.836
1029.235, 2236.343
1029.717, 2234.191
1030.199, 2228.880
1030.682, 2227.298
1031.164, 2230.605
1031.646, 2234.382
1032.128, 2236.322
1032.610, 2236.586
1033.092, 2234.241
1033.574, 2230.330
1034.056, 2228.758
1034.539, 2235.358
1035.021, 2239.575
1035.503, 2236.247
1035.985, 2229.980
1036.467, 2226.863
1036.949, 2227.004
1037.431, 2226.398
1037.913, 2224.506
1038.396, 2222.943
1038.878, 2224.013
1039.360, 2225.468
1039.842, 2224.685
1040.324, 2221.495
1040.806, 2220.172
1041.288, 2221.487
1041.770, 2223.445
1042.252, 2225.918
1042.734, 2228.014
1043.217, 2227.290
1043.699, 2224.746
1044.181, 2223.140
1044.663, 2224.005
1045.145, 2224.195
1045.627, 2221.812
1046.109, 2218.802
1046.591, 2216.632
1047.074, 2215.344
1047.556, 2213.806
1048.038, 2212.008
1048.520, 2210.184
1049.002, 2207.732
1049.484, 2206.013
1049.966, 2207.376
1050.448, 2210.404
1050.931, 2210.926
1051.413, 2207.181
1051.895, 2204.004
1052.377, 2201.821
1052.859, 2200.581
1053.341, 2200.652
1053.823, 2201.473
1054.305, 2201.640
1054.787, 2200.986
1055.270, 2200.777
1055.752, 2202.694
1056.234, 2203.882
1056.716, 2202.744
1057.198, 2200.062
1057.680, 2199.336
1058.162, 2200.362
1058.644, 2199.781
1059.126, 2195.564
1059.609, 2191.785
1060.091, 2192.563
1060.573, 2195.530
1061.055, 2198.432
1061.537, 2201.728
1062.019, 2201.806
1062.501, 2197.872
1062.983, 2193.735
1063.466, 2191.857
1063.948, 2191.559
1064.430, 2192.161
1064.912, 2193.288
1065.394, 2193.759
1065.876, 2192.906
1066.358, 2191.625
1066.840, 2189.855
1067.323, 2188.026
1067.805, 2186.495
1068.287, 2185.295
1068.769, 2184.888
1069.251, 2185.279
1069.733, 2186.103
1070.215, 2188.240
1070.697, 2189.618
1071.179, 2187.738
1071.661, 2183.703
1072.144, 2182.868
1072.626, 2185.974
1073.108, 2187.090
1073.590, 2184.367
1074.072, 2180.166
1074.554, 2176.518
1075.036, 2173.729
1075.518, 2172.324
1076.001, 2172.688
1076.483, 2173.610
1076.965, 2176.083
1077.447, 2176.887
1077.929, 2173.441
1078.411, 2167.687
1078.893, 2165.137
1079.375, 2165.139
1079.858, 2165.635
1080.340, 2166.390
1080.822, 2166.537
1081.304, 2164.670
1081.786, 2162.802
1082.268, 2163.368
1082.750, 2166.435
1083.232, 2165.888
1083.714, 2161.628
1084.197, 2158.418
1084.679, 2162.049
1085.161, 2165.875
1085.643, 2164.387
1086.125, 2158.934
1086.607, 2154.254
1087.089, 2150.081
1087.571, 2148.808
1088.054, 2151.546
1088.536, 2154.425
1089.018, 2151.719
1089.500, 2146.794
1089.982, 2145.078
1090.464, 2147.194
1090.946, 2147.540
1091.428, 2143.944
1091.911, 2140.072
1092.393, 2136.741
1092.875, 2134.130
1093.357, 2133.199
1093.839, 2133.379
1094.321, 2132.676
1094.803, 2130.020
1095.285, 2128.144
1095.767, 2129.688
1096.250, 2131.269
1096.732, 2130.367
1097.214, 2127.184
1097.696, 2125.797
1098.178, 2126.092
1098.660, 2125.695
1099.142, 2122.340
1099.624, 2119.063
1100.106, 2118.341
1100.589, 2119.168
1101.071, 2119.921
1101.553, 2120.378
1102.035, 2121.634
1102.517, 2124.124
1102.999, 2125.055
1103.481, 2120.214
1103.963, 2113.635
1104.446, 2110.671
1104.928, 2110.855
1105.410, 2111.534
1105.892, 2112.401
1106.374, 2113.265
1106.856, 2114.317
1107.338, 2114.866
1107.820, 2113.636
1108.302, 2111.247
1108.785, 2109.203
1109.267, 2107.687
1109.749, 2105.896
1110.231, 2102.261
1110.713, 2099.802
1111.195, 2099.826
1111.677, 2101.599
1112.159, 2104.095
1112.641, 2106.807
1113.124, 2105.760
1113.606, 2098.871
1114.088, 2092.890
1114.570, 2093.056
1115.052, 2095.489
1115.534, 2097.663
1116.016, 2099.444
1116.498, 2099.213
1116.981, 2096.921
1117.463, 2093.838
1117.945, 2090.005
1118.427, 2086.413
1118.909, 2083.702
1119.391, 2081.990
1119.873, 2081.641
1120.355, 2083.317
1120.838, 2084.375
1121.320, 2084.942
1121.802, 2084.230
1122.284, 2080.925
1122.766, 2076.494
1123.248, 2072.379
1123.730, 2068.970
1124.212, 2067.215
1124.694, 2069.324
1125.177, 2070.252
1125.659, 2069.223
1126.141, 2067.853
1126.623, 2068.552
1127.105, 2070.095
1127.587, 2068.926
1128.069, 2065.158
1128.551, 2061.146
1129.033, 2056.667
1129.516, 2053.768
1129.998, 2053.464
1130.480, 2054.341
1130.962, 2054.140
1131.444, 2052.977
1131.926, 2051.421
1132.408, 2049.535
1132.890, 2047.647
1133.373, 2045.641
1133.855, 2044.098
1134.337, 2044.061
1134.819, 2044.645
1135.301, 2042.143
1135.783, 2036.731
1136.265, 2032.092
1136.747, 2029.053
1137.229, 2027.557
1137.712, 2029.130
1138.194, 2031.058
1138.676, 2030.482
1139.158, 2027.373
1139.640, 2025.551
1140.122, 2025.166
1140.604, 2024.321
1141.086, 2021.866
1141.569, 2019.262
1142.051, 2018.182
1142.533, 2017.906
1143.015, 2017.541
1143.497, 2017.168
1143.979, 2015.762
1144.461, 2013.065
1144.943, 2010.326
1145.426, 2007.997
1145.908, 2006.385
1146.390, 2006.713
1146.872, 2008.063
1147.354, 2008.529
1147.836, 2006.979
1148.318, 2005.225
1148.800, 2003.059
1149.282, 2001.297
1149.765, 2001.273
1150.247, 2001.939
1150.729, 2000.655
1151.211, 1997.824
1151.693, 1995.257
1152.175, 1994.767
1152.657, 1992.924
1153.139, 1988.467
1153.621, 1983.704
1154.104, 1981.469
1154.586, 1981.192
1155.068, 1981.115
1155.550, 1981.097
1156.032, 1981.116
1156.514, 1982.133
1156.996, 1981.834
1157.478, 1979.047
1157.961, 1975.112
1158.443, 1971.983
1158.925, 1969.762
1159.407, 1969.381
1159.889, 1971.012
1160.371, 1972.848
1160.853, 1974.192
1161.335, 1974.992
1161.818, 1975.262
1162.300, 1974.984
1162.782, 1973.921
1163.264, 1972.126
1163.746, 1970.505
1164.228, 1969.375
1164.710, 1967.616
1165.192, 1963.945
1165.674, 1959.724
1166.156, 1955.521
1166.639, 1951.609
1167.121, 1950.406
1167.603, 1951.908
1168.085, 1952.148
1168.567, 1949.583
1169.049, 1946.282
1169.531, 1943.039
1170.013, 1940.622
1170.496, 1940.196
1170.978, 1941.749
1171.460, 1942.230
1171.942, 1941.590
1172.424, 1940.559
1172.906, 1939.398
1173.388, 1938.072
1173.870, 1936.787
1174.353, 1935.207
1174.835, 1932.555
1175.317, 1928.267
1175.799, 1926.456
1176.281, 1927.501
1176.763, 1927.968
1177.245, 1924.996
1177.727, 1921.473
1178.209, 1921.748
1178.692, 1923.418
1179.174, 1922.021
1179.656, 1914.952
1180.138, 1910.961
1180.620, 1910.456
1181.102, 1910.695
1181.584, 1910.028
1182.066, 1908.696
1182.548, 1906.301
1183.031, 1903.581
1183.513, 1902.365
1183.995, 1903.993
1184.477, 1904.650
1184.959, 1904.129
1185.441, 1902.885
1185.923, 1900.901
1186.405, 1898.755
1186.888, 1897.273
1187.370, 1896.349
1187.852, 1895.624
1188.334, 1895.772
1188.816, 1894.140
1189.298, 1889.792
1189.780, 1885.991
1190.262, 1887.049
1190.745, 1890.280
1191.227, 1892.214
1191.709, 1892.585
1192.191, 1891.119
1192.673, 1885.770
1193.155, 1882.745
1193.637, 1883.392
1194.119, 1885.111
1194.601, 1885.375
1195.084, 1884.352
1195.566, 1881.666
1196.048, 1877.568
1196.530, 1874.781
1197.012, 1874.253
1197.494, 1874.219
1197.976, 1874.596
1198.458, 1874.731
1198.941, 1873.599
1199.423, 1871.621
1199.905, 1869.274
1200.387, 1866.629
1200.869, 1864.729
1201.351, 1863.927
1201.833, 1863.576
1202.315, 1863.624
1202.797, 1863.866
1203.280, 1864.494
1203.762, 1864.887
1204.244, 1863.670
1204.726, 1860.579
1205.208, 1857.916
1205.690, 1855.940
1206.172, 1854.722
1206.654, 1854.386
1207.136, 1854.634
1207.619, 1855.121
1208.101, 1855.738
1208.583, 1856.582
1209.065, 1857.882
1209.547, 1857.214
1210.029, 1852.631
1210.511, 1849.762
1210.993, 1851.316
1211.476, 1854.473
1211.958, 1853.920
1212.440, 1851.258
1212.922, 1849.193
1213.404, 1848.166
1213.886, 1848.499
1214.368, 1851.231
1214.850, 1852.708
1215.333, 1851.078
1215.815, 1847.880
1216.297, 1845.337
1216.779, 1843.470
1217.261, 1842.420
1217.743, 1842.528
1218.225, 1842.150
1218.707, 1840.877
1219.189, 1839.898
1219.672, 1839.967
1220.154, 1840.372
1220.636, 1839.630
1221.118, 1838.326
1221.600, 1837.432
1222.082, 1837.056
1222.564, 1837.797
1223.046, 1840.224
1223.528, 1842.059
1224.011, 1841.957
1224.493, 1840.762
1224.975, 1839.428
1225.457, 1838.212
1225.939, 1837.628
1226.421, 1838.331
1226.903, 1837.980
1227.385, 1836.098
1227.868, 1834.871
1228.350, 1836.270
1228.832, 1838.162
1229.314, 1836.765
1229.796, 1833.706
1230.278, 1831.823
1230.760, 1832.230
1231.242, 1832.243
1231.724, 1831.947
1232.207, 1830.807
1232.689, 1827.716
1233.171, 1824.445
1233.653, 1823.705
1234.135, 1824.220
1234.617, 1823.729
1235.099, 1821.421
1235.581, 1820.065
1236.063, 1819.781
1236.546, 1819.862
1237.028, 1819.844
1237.510, 1820.038
1237.992, 1821.360
1238.474, 1822.900
1238.956, 1822.920
1239.438, 1820.770
1239.920, 1819.737
1240.403, 1819.873
1240.885, 1820.447
1241.367, 1820.868
1241.849, 1821.606
1242.331, 1823.392
1242.813, 1825.552
1243.295, 1827.006
1243.777, 1827.516
1244.260, 1828.739
1244.742, 1830.680
1245.224, 1831.723
1245.706, 1829.811
1246.188, 1827.837
1246.670, 1827.984
1247.152, 1829.177
1247.634, 1829.931
1248.116, 1830.256
1248.599, 1829.993
1249.081, 1829.285
1249.563, 1829.988
1250.045, 1835.766
1250.527, 1840.289
1251.009, 1839.197
1251.491, 1835.789
1251.973, 1833.183
1252.455, 1831.351
1252.938, 1829.652
1253.420, 1828.138
1253.902, 1827.293
1254.384, 1827.219
1254.866, 1828.123
1255.348, 1831.355
1255.830, 1834.328
1256.313, 1834.599
1256.795, 1832.514
1257.277, 1829.276
1257.759, 1825.415
1258.241, 1823.447
1258.723, 1827.279
1259.205, 1828.973
1259.687, 1825.296
1260.169, 1821.784
1260.651, 1824.432
1261.134, 1830.891
1261.616, 1833.740
1262.098, 1833.621
1262.580, 1833.202
1263.062, 1834.094
1263.544, 1833.409
1264.026, 1830.064
1264.508, 1827.110
1264.991, 1828.185
1265.473, 1830.851
1265.955, 1830.060
1266.437, 1826.945
1266.919, 1824.563
1267.401, 1823.957
1267.883, 1823.838
1268.365, 1824.326
1268.848, 1824.847
1269.330, 1824.799
1269.812, 1824.670
1270.294, 1825.366
1270.776, 1826.393
1271.258, 1826.558
1271.740, 1825.390
1272.222, 1824.446
1272.704, 1823.674
1273.187, 1823.627
1273.669, 1825.669
1274.151, 1827.596
1274.633, 1826.846
1275.115, 1824.961
1275.597, 1824.578
1276.079, 1826.121
1276.561, 1826.685
1277.043, 1826.273
1277.526, 1824.945
1278.008, 1820.716
1278.490, 1817.988
1278.972, 1821.121
1279.454, 1825.904
1279.936, 1828.172
1280.418, 1827.960
1280.900, 1826.417
1281.383, 1823.818
1281.865, 1821.965
1282.347, 1821.792
1282.829, 1822.387
1283.311, 1823.760
1283.793, 1825.345
1284.275, 1827.111
1284.757, 1828.671
1285.240, 1827.791
1285.722, 1825.293
1286.204, 1823.906
1286.686, 1825.615
1287.168, 1826.939
1287.650, 1827.681
1288.132, 1827.642
1288.614, 1826.379
1289.096, 1824.486
1289.578, 1822.524
1290.061, 1821.004
1290.543, 1821.101
1291.025, 1824.369
1291.507, 1826.161
1291.989, 1826.348
1292.471, 1825.425
1292.953, 1822.702
1293.435, 1820.238
1293.918, 1821.228
1294.400, 1823.716
1294.882, 1824.854
1295.364, 1824.425
1295.846, 1823.564
1296.328, 1822.300
1296.810, 1821.357
1297.292, 1820.966
1297.775, 1820.880
1298.257, 1821.816
1298.739, 1822.569
1299.221, 1821.555
1299.703, 1819.137
1300.185, 1820.172
1300.667, 1823.926
1301.149, 1825.616
1301.631, 1822.212
1302.114, 1819.011
1302.596, 1819.723
##END=



