##NAMES=Painite
##RRUFFID=R060957
##IDEAL CHEMISTRY=CaZr^4+^Al_9_O_15_(BO_3_)
##LOCALITY=Ohngaing Village, Mogok, Burma
##OWNER=RRUFF
##SOURCE=Marcus Origlieri
##DESCRIPTION=Single crystal, reddish-brown to orangish prism section, several prism forms, small transparent areas.
##STATUS=The identification of this mineral has been confirmed by X-ray diffraction.
##URL=rruff.info/R060957
102.7205, 91872.34
103.2026, 91948.47
103.6847, 91972.64
104.1668, 91993.71
104.6490, 92015.91
105.1311, 92037.05
105.6132, 92071.63
106.0953, 92121.41
106.5774, 92178.19
107.0595, 92228.52
107.5417, 92218.28
108.0238, 92253.92
108.5059, 92384.98
108.9880, 92737.80
109.4701, 92920.61
109.9522, 92812.10
110.4344, 92530.38
110.9165, 92343.70
111.3986, 92387.96
111.8807, 92443.64
112.3628, 92419.48
112.8449, 92247.98
113.3271, 92073.67
113.8092, 91891.09
114.2913, 91715.82
114.7734, 91616.52
115.2555, 91689.45
115.7376, 91813.05
116.2198, 91895.24
116.7019, 91831.40
117.1840, 91790.65
117.6661, 91858.70
118.1482, 92039.41
118.6303, 92213.97
119.1124, 92326.09
119.5946, 92391.27
120.0767, 92430.38
120.5588, 92412.77
121.0409, 92391.91
121.5230, 92410.16
122.0051, 92475.88
122.4873, 92556.34
122.9694, 92636.98
123.4515, 92713.49
123.9336, 92774.45
124.4157, 92804.73
124.8979, 92819.30
125.3800, 92837.83
125.8621, 92863.84
126.3442, 92900.41
126.8263, 92973.87
127.3084, 93077.16
127.7905, 93148.63
128.2727, 93113.60
128.7548, 93006.70
129.2369, 92921.14
129.7190, 92880.31
130.2011, 92876.57
130.6832, 92904.33
131.1654, 92966.33
131.6475, 93028.61
132.1296, 93044.40
132.6117, 93018.20
133.0938, 93007.24
133.5759, 93034.55
134.0581, 93094.19
134.5402, 93154.36
135.0223, 93217.29
135.5044, 93270.59
135.9865, 93296.27
136.4686, 93293.33
136.9508, 93269.41
137.4329, 93211.08
137.9150, 93110.91
138.3971, 93074.82
138.8792, 93132.43
139.3613, 93238.91
139.8434, 93277.09
140.3256, 93228.79
140.8077, 93164.36
141.2898, 93121.91
141.7719, 93106.41
142.2540, 93105.57
142.7361, 93116.37
143.2183, 93141.43
143.7004, 93201.17
144.1825, 93327.27
144.6646, 93445.76
145.1467, 93495.43
145.6288, 93426.77
146.1110, 93361.52
146.5931, 93311.06
147.0752, 93272.29
147.5573, 93240.80
148.0394, 93219.73
148.5215, 93199.02
149.0037, 93168.14
149.4858, 93098.57
149.9679, 93048.53
150.4500, 93051.06
150.9321, 93152.32
151.4142, 93159.66
151.8964, 93031.30
152.3785, 92826.13
152.8606, 92625.40
153.3427, 92400.73
153.8248, 92219.17
154.3069, 92114.47
154.7890, 92136.40
155.2712, 92144.15
155.7533, 92089.63
156.2354, 92011.09
156.7175, 91989.38
157.1996, 92073.18
157.6817, 92193.91
158.1639, 92315.96
158.6460, 92420.80
159.1281, 92534.74
159.6102, 92656.39
160.0923, 92783.92
160.5744, 92921.45
161.0566, 93082.43
161.5387, 93237.66
162.0208, 93364.70
162.5029, 93408.77
162.9850, 93459.65
163.4671, 93580.02
163.9493, 93755.91
164.4314, 93879.77
164.9135, 93898.67
165.3956, 93841.16
165.8777, 93737.30
166.3598, 93532.26
166.8420, 93338.27
167.3241, 93232.02
167.8062, 93218.67
168.2883, 93239.62
168.7704, 93301.78
169.2525, 93372.55
169.7346, 93401.29
170.2168, 93335.12
170.6989, 93238.88
171.1810, 93171.85
171.6631, 93142.41
172.1452, 93114.95
172.6273, 93004.56
173.1095, 92870.20
173.5916, 92840.87
174.0737, 93083.48
174.5558, 93431.34
175.0379, 93664.59
175.5201, 93742.08
176.0022, 93769.09
176.4843, 93842.47
176.9664, 93952.48
177.4485, 94069.15
177.9306, 94149.46
178.4128, 94227.34
178.8949, 94368.18
179.3770, 94592.02
179.8591, 94864.46
180.3412, 95179.13
180.8233, 95526.24
181.3055, 95814.09
181.7876, 96009.73
182.2697, 96100.17
182.7518, 96043.40
183.2339, 95792.85
183.7160, 95431.99
184.1981, 95094.45
184.6803, 94779.53
185.1624, 94485.60
185.6445, 94187.34
186.1266, 93900.10
186.6087, 93683.73
187.0908, 93572.01
187.5730, 93532.23
188.0551, 93487.61
188.5372, 93435.67
189.0193, 93395.89
189.5014, 93404.38
189.9835, 93453.92
190.4657, 93472.13
190.9478, 93431.88
191.4299, 93344.58
191.9120, 93249.25
192.3941, 93143.81
192.8762, 93044.91
193.3584, 92971.34
193.8405, 92923.90
194.3226, 92893.42
194.8047, 92885.55
195.2868, 92897.33
195.7689, 92896.59
196.2511, 92882.67
196.7332, 92862.63
197.2153, 92840.31
197.6974, 92814.97
198.1795, 92809.02
198.6616, 92829.45
199.1437, 92877.21
199.6259, 92958.72
200.1080, 93078.59
200.5901, 93226.34
201.0722, 93391.50
201.5543, 93580.28
202.0364, 93750.98
202.5186, 93871.45
203.0007, 93932.21
203.4828, 94020.86
203.9649, 94137.71
204.4470, 94276.91
204.9291, 94421.73
205.4113, 94563.63
205.8934, 94732.02
206.3755, 94971.21
206.8576, 95311.78
207.3397, 95529.80
207.8218, 95611.27
208.3040, 95568.94
208.7861, 95409.61
209.2682, 95095.08
209.7503, 94779.12
210.2324, 94549.30
210.7145, 94426.26
211.1967, 94325.75
211.6788, 94236.42
212.1609, 94174.22
212.6430, 94196.58
213.1251, 94334.83
213.6072, 94499.64
214.0894, 94624.63
214.5715, 94670.64
215.0536, 94809.13
215.5357, 95073.92
216.0178, 95438.47
216.4999, 95779.94
216.9820, 96065.51
217.4642, 96368.52
217.9463, 96752.80
218.4284, 97256.60
218.9105, 97711.55
219.3926, 98093.63
219.8747, 98405.68
220.3569, 98698.17
220.8390, 98986.78
221.3211, 99235.52
221.8032, 99441.34
222.2853, 99652.59
222.7674, 99704.34
223.2496, 99552.98
223.7317, 99213.31
224.2138, 98833.32
224.6959, 98398.98
225.1780, 97943.33
225.6601, 97472.46
226.1423, 96964.10
226.6244, 96500.59
227.1065, 96110.63
227.5886, 95786.48
228.0707, 95440.51
228.5528, 95041.52
229.0350, 94643.52
229.5171, 94295.26
229.9992, 93990.70
230.4813, 93731.18
230.9634, 93523.11
231.4455, 93364.33
231.9276, 93220.55
232.4098, 93097.87
232.8919, 92983.88
233.3740, 92867.27
233.8561, 92731.77
234.3382, 92627.49
234.8203, 92579.24
235.3025, 92591.47
235.7846, 92552.23
236.2667, 92430.88
236.7488, 92289.56
237.2309, 92191.58
237.7130, 92153.52
238.1952, 92133.46
238.6773, 92130.86
239.1594, 92148.31
239.6415, 92150.72
240.1236, 92136.52
240.6057, 92110.31
241.0879, 92072.98
241.5700, 92008.07
242.0521, 91963.27
242.5342, 91946.16
243.0163, 91956.05
243.4984, 91994.20
243.9806, 92064.05
244.4627, 92154.64
244.9448, 92257.11
245.4269, 92383.40
245.9090, 92492.22
246.3911, 92580.55
246.8732, 92648.93
247.3554, 92647.08
247.8375, 92521.56
248.3196, 92369.32
248.8017, 92306.66
249.2838, 92398.86
249.7659, 92460.47
250.2481, 92460.52
250.7302, 92402.27
251.2123, 92263.27
251.6944, 91986.19
252.1765, 91691.77
252.6586, 91522.11
253.1408, 91551.34
253.6229, 91569.28
254.1050, 91527.09
254.5871, 91423.26
255.0692, 91323.09
255.5513, 91203.30
256.0334, 91114.30
256.5156, 91120.45
256.9977, 91270.16
257.4798, 91409.82
257.9619, 91497.42
258.4440, 91528.04
258.9261, 91575.81
259.4083, 91648.81
259.8904, 91723.24
260.3725, 91763.42
260.8546, 91738.72
261.3367, 91747.91
261.8188, 91824.57
262.3010, 91970.84
262.7831, 92078.77
263.2652, 92142.78
263.7473, 92173.77
264.2294, 92179.51
264.7115, 92149.71
265.1937, 92121.98
265.6758, 92108.55
266.1579, 92109.55
266.6400, 92094.23
267.1221, 92058.69
267.6042, 92016.73
268.0864, 91987.45
268.5685, 91980.70
269.0506, 91956.56
269.5327, 91895.25
270.0148, 91802.45
270.4969, 91764.12
270.9791, 91798.20
271.4612, 91855.66
271.9433, 91895.73
272.4254, 91925.50
272.9075, 91901.84
273.3896, 91765.22
273.8718, 91549.22
274.3539, 91577.93
274.8360, 91931.98
275.3181, 92331.35
275.8002, 92477.61
276.2823, 92327.36
276.7645, 92223.47
277.2466, 92250.94
277.7287, 92386.56
278.2108, 92490.41
278.6929, 92558.82
279.1750, 92604.51
279.6572, 92613.91
280.1393, 92579.12
280.6214, 92622.01
281.1035, 92795.77
281.5856, 93056.99
282.0677, 93246.05
282.5499, 93362.66
283.0320, 93405.41
283.5141, 93345.13
283.9962, 93183.63
284.4783, 93048.59
284.9604, 92981.54
285.4425, 92948.98
285.9247, 92828.52
286.4068, 92612.25
286.8889, 92412.30
287.3710, 92329.17
287.8531, 92352.88
288.3352, 92392.65
288.8174, 92449.58
289.2995, 92495.71
289.7816, 92458.45
290.2637, 92337.60
290.7458, 92185.90
291.2279, 92017.21
291.7101, 91841.69
292.1922, 91708.77
292.6743, 91627.39
293.1564, 91591.63
293.6385, 91622.24
294.1206, 91713.08
294.6028, 91775.51
295.0849, 91726.62
295.5670, 91604.39
296.0491, 91519.38
296.5312, 91499.13
297.0133, 91503.92
297.4955, 91466.99
297.9776, 91401.09
298.4597, 91364.19
298.9418, 91399.82
299.4239, 91489.94
299.9060, 91608.77
300.3882, 91761.23
300.8703, 91907.63
301.3524, 91979.38
301.8345, 91995.30
302.3166, 92025.88
302.7987, 92086.93
303.2809, 92187.96
303.7630, 92358.94
304.2451, 92609.44
304.7272, 92867.61
305.2093, 93074.87
305.6914, 93235.80
306.1736, 93356.56
306.6557, 93457.15
307.1378, 93513.63
307.6199, 93505.07
308.1020, 93431.41
308.5841, 93296.39
309.0663, 93083.83
309.5484, 92816.21
310.0305, 92537.17
310.5126, 92203.13
310.9947, 91907.48
311.4768, 91748.20
311.9590, 91733.08
312.4411, 91721.33
312.9232, 91626.67
313.4053, 91489.24
313.8874, 91361.05
314.3695, 91254.31
314.8516, 91164.05
315.3337, 91095.39
315.8159, 91047.16
316.2980, 90992.77
316.7801, 90914.94
317.2622, 90828.41
317.7443, 90746.52
318.2264, 90686.62
318.7086, 90622.47
319.1907, 90518.87
319.6728, 90389.56
320.1549, 90328.59
320.6370, 90427.80
321.1191, 90567.73
321.6013, 90668.23
322.0834, 90672.78
322.5655, 90677.30
323.0476, 90690.50
323.5297, 90712.63
324.0118, 90749.32
324.4940, 90835.64
324.9761, 90909.36
325.4582, 90936.27
325.9403, 90846.36
326.4224, 90803.59
326.9045, 90857.48
327.3867, 90967.88
327.8688, 91026.45
328.3509, 91005.85
328.8330, 90954.10
329.3151, 90879.10
329.7972, 90740.90
330.2794, 90667.62
330.7615, 90705.10
331.2436, 90794.30
331.7257, 90828.58
332.2078, 90773.13
332.6899, 90714.29
333.1721, 90679.43
333.6542, 90676.81
334.1363, 90664.54
334.6184, 90637.84
335.1005, 90608.32
335.5826, 90588.76
336.0648, 90578.13
336.5469, 90580.85
337.0290, 90594.69
337.5111, 90618.93
337.9932, 90676.29
338.4753, 90781.61
338.9575, 90886.04
339.4396, 90932.38
339.9217, 90904.59
340.4038, 90896.03
340.8859, 90929.75
341.3680, 90996.48
341.8502, 91069.90
342.3323, 91160.39
342.8144, 91209.36
343.2965, 91134.90
343.7786, 90942.23
344.2607, 90824.80
344.7429, 90831.24
345.2250, 90913.96
345.7071, 90956.46
346.1892, 90960.22
346.6713, 90985.06
347.1534, 91087.72
347.6355, 91248.32
348.1176, 91387.49
348.5998, 91495.18
349.0819, 91577.62
349.5640, 91641.07
350.0461, 91684.20
350.5282, 91708.20
351.0103, 91677.72
351.4925, 91633.68
351.9746, 91673.90
352.4567, 91818.13
352.9388, 91943.43
353.4209, 91912.87
353.9030, 91772.27
354.3852, 91623.59
354.8673, 91532.09
355.3494, 91446.14
355.8315, 91291.67
356.3136, 91072.20
356.7957, 90894.28
357.2779, 90887.27
357.7600, 90954.37
358.2421, 90970.20
358.7242, 90834.55
359.2063, 90688.63
359.6884, 90611.91
360.1706, 90596.64
360.6527, 90596.45
361.1348, 90588.01
361.6169, 90585.45
362.0990, 90601.09
362.5811, 90655.81
363.0633, 90698.91
363.5454, 90697.69
364.0275, 90668.65
364.5096, 90661.06
364.9917, 90702.22
365.4738, 90755.45
365.9560, 90805.30
366.4381, 90850.69
366.9202, 90893.92
367.4023, 90916.33
367.8844, 90943.11
368.3665, 91014.37
368.8487, 91179.60
369.3308, 91345.92
369.8129, 91482.13
370.2950, 91574.08
370.7771, 91713.46
371.2592, 91925.20
371.7414, 92166.03
372.2235, 92396.05
372.7056, 92612.70
373.1877, 92818.05
373.6698, 92996.28
374.1519, 93150.95
374.6341, 93355.75
375.1162, 93614.90
375.5983, 93905.98
376.0804, 94228.10
376.5625, 94594.25
377.0446, 94902.80
377.5267, 95125.59
378.0089, 95293.40
378.4910, 95494.52
378.9731, 95738.29
379.4552, 95958.19
379.9373, 96127.26
380.4194, 96246.91
380.9016, 96292.95
381.3837, 96267.12
381.8658, 96170.56
382.3479, 96010.11
382.8300, 95786.13
383.3121, 95479.39
383.7943, 95017.01
384.2764, 94477.45
384.7585, 94025.19
385.2406, 93663.85
385.7227, 93379.17
386.2048, 93184.44
386.6870, 93058.63
387.1691, 92960.15
387.6512, 92871.84
388.1333, 92802.80
388.6154, 92773.69
389.0975, 92776.52
389.5797, 92769.99
390.0618, 92696.70
390.5439, 92613.88
391.0260, 92585.46
391.5081, 92646.84
391.9902, 92728.95
392.4724, 92799.84
392.9545, 92867.29
393.4366, 92947.02
393.9187, 93048.45
394.4008, 93166.45
394.8829, 93301.84
395.3651, 93456.26
395.8472, 93626.20
396.3293, 93806.52
396.8114, 94003.60
397.2935, 94224.68
397.7756, 94496.84
398.2578, 94763.51
398.7399, 95027.46
399.2220, 95289.79
399.7041, 95482.77
400.1862, 95601.23
400.6683, 95651.09
401.1505, 95633.52
401.6326, 95521.46
402.1147, 95385.43
402.5968, 95209.34
403.0789, 95015.45
403.5610, 94890.35
404.0432, 94871.54
404.5253, 94850.25
405.0074, 94753.45
405.4895, 94546.80
405.9716, 94447.03
406.4537, 94467.65
406.9359, 94575.33
407.4180, 94749.18
407.9001, 94999.27
408.3822, 95197.51
408.8643, 95266.71
409.3464, 95242.41
409.8285, 95340.49
410.3106, 95581.06
410.7928, 95763.54
411.2749, 95695.88
411.7570, 95408.90
412.2391, 95010.40
412.7212, 94476.30
413.2033, 93905.48
413.6855, 93427.09
414.1676, 93040.86
414.6497, 92735.82
415.1318, 92555.54
415.6139, 92434.80
416.0960, 92293.68
416.5782, 92113.48
417.0603, 91930.32
417.5424, 91747.40
418.0245, 91582.55
418.5066, 91468.33
418.9887, 91468.43
419.4709, 91479.84
419.9530, 91436.01
420.4351, 91333.14
420.9172, 91249.90
421.3993, 91207.68
421.8814, 91204.51
422.3636, 91238.97
422.8457, 91336.70
423.3278, 91447.16
423.8099, 91573.80
424.2920, 91712.55
424.7741, 91834.22
425.2563, 91891.75
425.7384, 91976.55
426.2205, 92125.20
426.7026, 92355.98
427.1847, 92604.38
427.6668, 92865.42
428.1490, 93143.80
428.6311, 93444.84
429.1132, 93768.73
429.5953, 94118.21
430.0774, 94484.20
430.5595, 94867.67
431.0417, 95301.62
431.5238, 95780.52
432.0059, 96318.59
432.4880, 96946.59
432.9701, 97662.37
433.4522, 98385.76
433.9344, 99133.43
434.4165, 99854.16
434.8986, 100498.8
435.3807, 101062.6
435.8628, 101481.7
436.3449, 101752.6
436.8271, 101847.4
437.3092, 101694.1
437.7913, 101281.6
438.2734, 100680.1
438.7555, 99836.58
439.2376, 98860.28
439.7197, 97954.16
440.2018, 97220.98
440.6840, 96570.98
441.1661, 95892.89
441.6482, 95213.39
442.1303, 94695.10
442.6124, 94507.12
443.0945, 94460.02
443.5767, 94408.05
444.0588, 94290.59
444.5409, 94220.13
445.0230, 94252.77
445.5051, 94352.53
445.9872, 94443.98
446.4694, 94584.02
446.9515, 94651.76
447.4336, 94595.45
447.9157, 94393.52
448.3978, 94195.86
448.8799, 94005.63
449.3621, 93819.77
449.8442, 93637.49
450.3263, 93458.70
450.8084, 93278.95
451.2905, 93069.14
451.7726, 92862.12
452.2548, 92791.05
452.7369, 92875.80
453.2190, 93021.56
453.7011, 93192.31
454.1832, 93385.70
454.6653, 93543.07
455.1475, 93646.38
455.6296, 93767.81
456.1117, 94012.83
456.5938, 94367.63
457.0759, 94766.89
457.5580, 95201.02
458.0402, 95653.98
458.5223, 96092.96
459.0044, 96524.20
459.4865, 96965.88
459.9686, 97410.88
460.4507, 97886.30
460.9329, 98437.48
461.4150, 99068.26
461.8971, 99765.91
462.3792, 100525.1
462.8613, 101345.6
463.3434, 102245.5
463.8256, 103247.3
464.3077, 104304.2
464.7898, 105453.2
465.2719, 106715.4
465.7540, 107838.6
466.2361, 108935.8
466.7183, 109794.5
467.2004, 110228.9
467.6825, 110226.0
468.1646, 109792.1
468.6467, 108793.3
469.1288, 107346.0
469.6109, 105853.2
470.0930, 104251.0
470.5752, 102698.7
471.0573, 101228.9
471.5394, 99837.35
472.0215, 98608.79
472.5036, 97547.09
472.9857, 96638.16
473.4679, 95883.05
473.9500, 95288.54
474.4321, 94768.56
474.9142, 94304.75
475.3963, 93903.16
475.8784, 93598.40
476.3606, 93387.20
476.8427, 93194.19
477.3248, 92979.55
477.8069, 92751.13
478.2890, 92513.81
478.7711, 92263.77
479.2533, 92041.53
479.7354, 91875.18
480.2175, 91762.22
480.6996, 91697.25
481.1817, 91694.16
481.6638, 91722.84
482.1460, 91769.38
482.6281, 91830.28
483.1102, 91900.29
483.5923, 91945.57
484.0744, 92013.44
484.5565, 92138.60
485.0387, 92385.30
485.5208, 92575.82
486.0029, 92659.16
486.4850, 92684.47
486.9671, 92728.46
487.4492, 92808.26
487.9314, 92881.64
488.4135, 92936.45
488.8956, 92975.57
489.3777, 93046.03
489.8598, 93178.58
490.3419, 93285.75
490.8241, 93286.44
491.3062, 93176.22
491.7883, 93097.80
492.2704, 93080.72
492.7525, 93076.57
493.2346, 93008.22
493.7168, 92877.98
494.1989, 92696.12
494.6810, 92393.70
495.1631, 92064.27
495.6452, 91886.58
496.1273, 91857.95
496.6095, 91870.05
497.0916, 91836.55
497.5737, 91795.87
498.0558, 91800.58
498.5379, 91890.67
499.0201, 91980.62
499.5022, 92008.80
499.9843, 92004.63
500.4664, 92026.93
500.9485, 92088.98
501.4306, 92188.99
501.9127, 92330.55
502.3948, 92515.72
502.8770, 92723.67
503.3591, 92964.62
503.8412, 93216.97
504.3233, 93465.89
504.8054, 93686.44
505.2875, 93945.09
505.7697, 94252.20
506.2518, 94594.50
506.7339, 94939.38
507.2160, 95289.63
507.6981, 95625.66
508.1802, 95943.16
508.6624, 96241.16
509.1445, 96527.22
509.6266, 96810.32
510.1087, 97022.23
510.5908, 97073.59
511.0729, 96999.42
511.5551, 96909.61
512.0372, 96833.09
512.5193, 96739.23
513.0014, 96598.91
513.4835, 96414.95
513.9656, 96194.09
514.4478, 95867.12
514.9299, 95556.73
515.4120, 95359.57
515.8941, 95279.55
516.3762, 95228.27
516.8583, 95141.95
517.3405, 95083.96
517.8226, 95103.63
518.3047, 95266.95
518.7868, 95429.85
519.2689, 95534.52
519.7510, 95634.84
520.2332, 95845.22
520.7153, 96201.98
521.1974, 96604.81
521.6795, 97042.78
522.1616, 97516.01
522.6437, 97935.20
523.1259, 98280.58
523.6080, 98617.92
524.0901, 99008.18
524.5722, 99453.73
525.0543, 99885.23
525.5364, 100311.5
526.0186, 100693.4
526.5007, 100971.4
526.9828, 101149.9
527.4649, 101261.8
527.9470, 101367.0
528.4291, 101386.9
528.9113, 101201.4
529.3934, 100824.2
529.8755, 100379.8
530.3576, 99928.63
530.8397, 99454.81
531.3218, 98934.63
531.8040, 98357.66
532.2861, 97758.85
532.7682, 97128.23
533.2503, 96496.67
533.7324, 95925.97
534.2145, 95450.25
534.6967, 95005.63
535.1788, 94570.96
535.6609, 94154.14
536.1430, 93787.78
536.6251, 93480.61
537.1072, 93223.18
537.5894, 93022.95
538.0715, 92888.57
538.5536, 92758.67
539.0357, 92637.25
539.5178, 92508.85
539.9999, 92347.16
540.4821, 92155.55
540.9642, 91955.59
541.4463, 91753.13
541.9284, 91539.95
542.4105, 91273.59
542.8926, 90971.21
543.3748, 90716.14
543.8569, 90580.11
544.3390, 90507.66
544.8211, 90457.03
545.3032, 90427.72
545.7853, 90373.61
546.2675, 90247.48
546.7495, 90096.60
547.2316, 89967.83
547.7137, 89889.52
548.1959, 89816.00
548.6780, 89724.64
549.1601, 89633.37
549.6422, 89592.84
550.1243, 89637.03
550.6064, 89683.81
551.0886, 89703.34
551.5707, 89694.37
552.0528, 89709.55
552.5349, 89748.43
553.0170, 89812.66
553.4991, 89904.86
553.9813, 90024.36
554.4634, 90170.84
554.9455, 90353.48
555.4276, 90538.62
555.9097, 90668.08
556.3918, 90755.45
556.8740, 90846.41
557.3561, 90940.27
557.8382, 91063.11
558.3203, 91239.29
558.8024, 91469.54
559.2845, 91745.24
559.7667, 92117.78
560.2488, 92499.03
560.7309, 92825.59
561.2130, 93066.29
561.6951, 93318.00
562.1772, 93584.46
562.6594, 93878.43
563.1415, 94216.96
563.6236, 94624.88
564.1057, 95022.96
564.5878, 95372.38
565.0699, 95707.30
565.5521, 96186.19
566.0342, 96849.17
566.5163, 97511.86
566.9984, 98077.93
567.4805, 98561.23
567.9626, 99092.09
568.4448, 99674.48
568.9269, 100311.1
569.4090, 101063.9
569.8911, 101871.9
570.3732, 102616.8
570.8553, 103260.1
571.3375, 103852.5
571.8196, 104432.3
572.3017, 104984.7
572.7838, 105463.3
573.2659, 105968.6
573.7480, 106290.6
574.2302, 106317.2
574.7123, 106055.5
575.1944, 105659.2
575.6765, 105121.8
576.1586, 104481.7
576.6407, 103745.2
577.1229, 102852.1
577.6050, 102029.6
578.0871, 101288.4
578.5692, 100608.6
579.0513, 99967.70
579.5334, 99360.38
580.0156, 98852.01
580.4977, 98460.74
580.9798, 98167.88
581.4619, 97952.96
581.9440, 97810.38
582.4261, 97695.68
582.9083, 97575.77
583.3904, 97473.75
583.8725, 97414.02
584.3546, 97396.34
584.8367, 97426.41
585.3188, 97553.41
585.8010, 97702.41
586.2831, 97799.57
586.7652, 97789.54
587.2473, 97818.57
587.7294, 97946.05
588.2115, 98127.35
588.6937, 98303.49
589.1758, 98513.00
589.6579, 98659.62
590.1400, 98728.45
590.6221, 98724.28
591.1042, 98650.39
591.5864, 98485.54
592.0685, 98330.96
592.5506, 98244.90
593.0327, 98219.34
593.5148, 98188.35
593.9969, 98154.73
594.4791, 98089.46
594.9612, 97942.52
595.4433, 97748.66
595.9254, 97577.40
596.4075, 97444.77
596.8896, 97332.38
597.3718, 97214.91
597.8539, 97110.65
598.3360, 97050.74
598.8181, 97042.43
599.3002, 97085.21
599.7823, 97200.47
600.2645, 97376.41
600.7466, 97534.30
601.2287, 97622.89
601.7108, 97738.79
602.1929, 97923.17
602.6750, 98183.95
603.1572, 98453.85
603.6393, 98745.02
604.1214, 99023.03
604.6035, 99233.08
605.0856, 99381.27
605.5677, 99603.81
606.0499, 99928.12
606.5320, 100317.0
607.0141, 100750.8
607.4962, 101208.8
607.9783, 101640.5
608.4604, 101957.4
608.9425, 102285.5
609.4246, 102719.4
609.9067, 103251.9
610.3889, 103838.1
610.8710, 104525.4
611.3531, 105206.5
611.8352, 105805.3
612.3173, 106288.6
612.7994, 106845.9
613.2816, 107489.1
613.7637, 108212.4
614.2458, 109026.2
614.7279, 109962.6
615.2100, 110893.2
615.6921, 111816.3
616.1743, 112722.3
616.6564, 113603.1
617.1385, 114455.1
617.6206, 115193.4
618.1027, 115827.4
618.5848, 116305.0
619.0670, 116563.5
619.5491, 116604.0
620.0312, 116435.3
620.5133, 115986.3
620.9954, 115376.9
621.4775, 114671.5
621.9597, 113867.6
622.4418, 113070.4
622.9239, 112259.2
623.4060, 111499.0
623.8881, 110833.0
624.3702, 110343.4
624.8524, 109815.4
625.3345, 109225.5
625.8166, 108612.8
626.2987, 108035.6
626.7808, 107492.1
627.2629, 106981.1
627.7451, 106499.4
628.2272, 106054.8
628.7093, 105682.4
629.1914, 105376.4
629.6735, 105067.6
630.1556, 104706.5
630.6378, 104335.5
631.1199, 104021.6
631.6020, 103762.6
632.0841, 103513.0
632.5662, 103230.0
633.0483, 102957.1
633.5305, 102727.6
634.0126, 102559.8
634.4947, 102410.7
634.9768, 102279.8
635.4589, 102159.8
635.9410, 102044.6
636.4232, 101932.6
636.9053, 101825.3
637.3874, 101722.6
637.8695, 101621.8
638.3516, 101506.0
638.8337, 101370.1
639.3159, 101278.1
639.7980, 101269.3
640.2801, 101307.3
640.7622, 101319.2
641.2443, 101306.8
641.7264, 101276.8
642.2086, 101211.7
642.6907, 101148.1
643.1728, 101125.3
643.6549, 101149.6
644.1370, 101188.1
644.6191, 101212.0
645.1013, 101257.5
645.5834, 101354.5
646.0655, 101560.3
646.5476, 101725.2
647.0297, 101818.6
647.5118, 101889.8
647.9940, 102004.4
648.4761, 102171.0
648.9582, 102327.8
649.4403, 102459.2
649.9224, 102572.1
650.4045, 102700.3
650.8867, 102836.8
651.3688, 102931.9
651.8509, 102965.3
652.3330, 102941.1
652.8151, 102843.6
653.2972, 102685.1
653.7794, 102531.4
654.2615, 102436.8
654.7436, 102351.8
655.2257, 102245.4
655.7078, 102111.4
656.1899, 101974.2
656.6721, 101795.8
657.1542, 101647.7
657.6363, 101597.2
658.1184, 101703.9
658.6005, 101714.3
659.0826, 101582.0
659.5648, 101399.9
660.0469, 101314.9
660.5290, 101319.8
661.0111, 101316.8
661.4932, 101286.1
661.9753, 101225.8
662.4575, 101098.8
662.9396, 100936.5
663.4217, 100830.7
663.9038, 100868.6
664.3859, 100949.3
664.8680, 101026.7
665.3502, 101097.5
665.8323, 101136.8
666.3144, 101060.5
666.7965, 101020.7
667.2786, 101104.0
667.7607, 101346.9
668.2429, 101485.6
668.7250, 101477.6
669.2071, 101427.0
669.6892, 101416.3
670.1713, 101440.9
670.6534, 101484.5
671.1355, 101553.3
671.6176, 101598.0
672.0997, 101529.0
672.5818, 101393.2
673.0640, 101298.2
673.5461, 101321.1
674.0282, 101340.2
674.5103, 101259.8
674.9924, 101123.3
675.4745, 101017.0
675.9567, 100980.2
676.4388, 100973.8
676.9209, 100994.3
677.4030, 101041.2
677.8851, 101109.4
678.3672, 101207.1
678.8494, 101307.0
679.3315, 101394.4
679.8136, 101467.0
680.2957, 101522.3
680.7778, 101550.5
681.2599, 101622.2
681.7421, 101849.2
682.2242, 102143.3
682.7063, 102320.7
683.1884, 102345.5
683.6705, 102357.4
684.1526, 102480.1
684.6348, 102627.4
685.1169, 102709.4
685.5990, 102635.7
686.0811, 102600.8
686.5632, 102648.3
687.0453, 102750.8
687.5275, 102882.6
688.0096, 103072.9
688.4917, 103223.4
688.9738, 103304.3
689.4559, 103351.3
689.9380, 103460.6
690.4202, 103628.1
690.9023, 103795.7
691.3844, 103933.0
691.8665, 104050.0
692.3486, 104156.3
692.8307, 104253.9
693.3129, 104356.3
693.7950, 104481.4
694.2771, 104602.6
694.7592, 104710.5
695.2413, 104806.8
695.7234, 104854.6
696.2056, 104797.5
696.6877, 104735.8
697.1698, 104732.6
697.6519, 104820.3
698.1340, 104839.7
698.6161, 104767.8
699.0983, 104695.3
699.5804, 104741.0
700.0625, 104883.2
700.5446, 104993.3
701.0267, 105040.8
701.5089, 105082.9
701.9910, 105192.4
702.4731, 105336.0
702.9552, 105456.0
703.4373, 105526.8
703.9194, 105573.5
704.4016, 105616.8
704.8837, 105641.4
705.3658, 105605.5
705.8479, 105443.8
706.3300, 105311.9
706.8121, 105261.3
707.2943, 105263.9
707.7764, 105175.5
708.2585, 104981.5
708.7406, 104806.7
709.2227, 104768.7
709.7048, 104792.5
710.1870, 104624.3
710.6691, 104282.0
711.1512, 104013.6
711.6333, 104029.5
712.1154, 104162.4
712.5975, 104266.3
713.0797, 104320.9
713.5618, 104389.8
714.0439, 104528.5
714.5260, 104658.8
715.0081, 104725.0
715.4902, 104699.0
715.9724, 104662.7
716.4545, 104585.4
716.9366, 104546.9
717.4187, 104691.4
717.9008, 105000.2
718.3829, 105178.2
718.8651, 105155.6
719.3472, 105055.0
719.8293, 105019.2
720.3114, 105016.9
720.7935, 104983.9
721.2756, 104876.5
721.7578, 104759.3
722.2399, 104644.4
722.7220, 104543.2
723.2041, 104488.2
723.6862, 104554.3
724.1683, 104571.1
724.6505, 104483.5
725.1326, 104323.7
725.6147, 104232.4
726.0968, 104223.0
726.5789, 104197.6
727.0610, 104085.8
727.5432, 103933.7
728.0253, 103880.1
728.5074, 103913.6
728.9895, 103941.4
729.4716, 103906.5
729.9537, 103837.3
730.4359, 103744.4
730.9180, 103628.2
731.4000, 103548.4
731.8821, 103551.8
732.3643, 103572.6
732.8464, 103572.0
733.3285, 103541.8
733.8106, 103514.2
734.2927, 103477.0
734.7748, 103464.6
735.2570, 103517.5
735.7391, 103626.8
736.2212, 103756.5
736.7033, 103916.3
737.1854, 104013.2
737.6675, 103881.7
738.1497, 103648.0
738.6318, 103500.4
739.1139, 103517.0
739.5960, 103576.5
740.0781, 103654.3
740.5602, 103744.0
741.0424, 103837.6
741.5245, 103959.0
742.0066, 104042.2
742.4887, 104053.7
742.9708, 104043.6
743.4529, 104123.0
743.9351, 104290.5
744.4172, 104457.2
744.8993, 104605.8
745.3814, 104714.0
745.8635, 104712.2
746.3456, 104633.9
746.8278, 104587.7
747.3099, 104668.8
747.7920, 104755.0
748.2741, 104768.2
748.7562, 104721.9
749.2383, 104707.8
749.7205, 104816.3
750.2026, 104868.5
750.6847, 104801.9
751.1668, 104630.9
751.6489, 104469.0
752.1310, 104314.2
752.6132, 104205.0
753.0953, 104154.0
753.5774, 104170.3
754.0595, 104315.3
754.5416, 104579.4
755.0237, 104804.0
755.5059, 104821.3
755.9880, 104793.3
756.4701, 104869.9
756.9522, 105093.9
757.4343, 105233.7
757.9164, 105199.3
758.3986, 105108.0
758.8807, 105011.9
759.3628, 104895.4
759.8449, 104869.6
760.3270, 104963.0
760.8091, 105069.1
761.2913, 105058.8
761.7734, 104975.6
762.2555, 104958.3
762.7376, 105038.0
763.2197, 105145.1
763.7018, 105238.9
764.1840, 105322.4
764.6661, 105394.9
765.1482, 105409.3
765.6303, 105486.4
766.1124, 105662.7
766.5945, 105897.0
767.0767, 106153.0
767.5588, 106445.3
768.0409, 106676.6
768.5230, 106808.9
769.0051, 106911.7
769.4872, 107121.8
769.9694, 107408.2
770.4515, 107642.5
770.9336, 107770.2
771.4157, 107852.7
771.8978, 107952.8
772.3799, 108047.4
772.8621, 108091.2
773.3442, 108012.1
773.8263, 107955.2
774.3084, 107981.0
774.7905, 108051.4
775.2726, 108062.5
775.7548, 107990.8
776.2369, 107956.9
776.7190, 108005.3
777.2011, 108111.2
777.6832, 108219.3
778.1653, 108329.3
778.6475, 108433.3
779.1296, 108522.0
779.6117, 108605.4
780.0938, 108669.2
780.5759, 108726.4
781.0580, 108837.9
781.5402, 109098.7
782.0223, 109329.3
782.5044, 109451.2
782.9865, 109480.4
783.4686, 109573.5
783.9507, 109749.2
784.4329, 109918.8
784.9150, 110028.3
785.3971, 110104.4
785.8792, 110241.5
786.3613, 110434.9
786.8434, 110625.1
787.3256, 110799.6
787.8077, 110936.0
788.2898, 111001.4
788.7719, 110996.2
789.2540, 111002.5
789.7361, 111026.2
790.2183, 111079.0
790.7004, 111171.5
791.1825, 111305.8
791.6646, 111421.0
792.1467, 111513.6
792.6288, 111589.5
793.1110, 111669.5
793.5930, 111731.4
794.0751, 111710.8
794.5573, 111604.9
795.0394, 111466.4
795.5215, 111337.2
796.0036, 111192.6
796.4857, 110995.2
796.9678, 110720.3
797.4500, 110522.1
797.9321, 110474.0
798.4142, 110447.5
798.8963, 110372.9
799.3784, 110249.7
799.8605, 110062.3
800.3427, 109794.6
800.8248, 109557.9
801.3069, 109488.1
801.7890, 109514.7
802.2711, 109501.8
802.7532, 109432.3
803.2354, 109311.7
803.7175, 109047.7
804.1996, 108791.2
804.6817, 108682.7
805.1638, 108850.3
805.6459, 108899.8
806.1281, 108770.5
806.6102, 108599.9
807.0923, 108511.9
807.5744, 108505.2
808.0565, 108503.4
808.5386, 108502.1
809.0208, 108498.7
809.5029, 108508.9
809.9850, 108509.6
810.4671, 108459.7
810.9492, 108342.0
811.4313, 108211.3
811.9135, 108056.9
812.3956, 107918.4
812.8777, 107834.6
813.3598, 107828.7
813.8419, 107826.8
814.3240, 107840.1
814.8062, 107834.5
815.2883, 107746.0
815.7704, 107595.1
816.2525, 107510.2
816.7346, 107524.5
817.2167, 107530.5
817.6989, 107428.4
818.1810, 107258.8
818.6631, 107063.1
819.1452, 106800.9
819.6273, 106619.4
820.1094, 106638.1
820.5916, 106698.5
821.0737, 106651.1
821.5558, 106463.6
822.0379, 106320.5
822.5200, 106242.5
823.0021, 106196.6
823.4843, 106151.6
823.9664, 106104.9
824.4485, 106039.6
824.9306, 105935.3
825.4127, 105865.1
825.8948, 105880.4
826.3770, 105951.6
826.8591, 106048.5
827.3412, 106209.8
827.8233, 106324.9
828.3054, 106397.0
828.7875, 106413.8
829.2697, 106326.1
829.7518, 106133.1
830.2339, 106051.1
830.7160, 106128.7
831.1981, 106230.0
831.6802, 106192.7
832.1624, 106081.3
832.6445, 105992.0
833.1266, 105946.5
833.6087, 105933.3
834.0908, 105970.6
834.5729, 106028.2
835.0551, 106073.2
835.5372, 106096.8
836.0193, 106138.3
836.5014, 106211.9
836.9835, 106273.5
837.4656, 106228.0
837.9478, 106118.0
838.4299, 106124.3
838.9120, 106307.1
839.3941, 106467.7
839.8762, 106416.3
840.3583, 106271.5
840.8405, 106159.0
841.3226, 106094.3
841.8047, 106090.6
842.2868, 106177.4
842.7689, 106290.3
843.2510, 106363.1
843.7332, 106392.1
844.2153, 106431.7
844.6974, 106488.0
845.1795, 106541.0
845.6616, 106572.3
846.1437, 106583.2
846.6259, 106573.5
847.1080, 106538.7
847.5901, 106498.3
848.0722, 106471.7
848.5543, 106435.0
849.0364, 106369.3
849.5186, 106274.5
850.0007, 106144.5
850.4828, 105958.1
850.9649, 105796.5
851.4470, 105772.8
851.9291, 105845.8
852.4113, 105859.4
852.8934, 105796.3
853.3755, 105719.0
853.8576, 105690.2
854.3397, 105661.4
854.8218, 105571.6
855.3039, 105367.4
855.7860, 105270.4
856.2681, 105344.0
856.7502, 105458.5
857.2324, 105523.8
857.7145, 105537.5
858.1966, 105581.2
858.6787, 105659.0
859.1608, 105714.1
859.6429, 105650.7
860.1251, 105557.6
860.6072, 105565.2
861.0893, 105691.7
861.5714, 105785.3
862.0535, 105728.5
862.5356, 105677.9
863.0178, 105743.0
863.4999, 105944.0
863.9820, 106011.4
864.4641, 105924.7
864.9462, 105793.5
865.4283, 105679.4
865.9105, 105582.3
866.3926, 105497.2
866.8747, 105426.3
867.3568, 105379.9
867.8389, 105407.8
868.3210, 105430.0
868.8032, 105378.7
869.2853, 105249.6
869.7674, 105201.5
870.2495, 105278.0
870.7316, 105352.5
871.2137, 105363.1
871.6959, 105327.8
872.1780, 105321.8
872.6601, 105343.6
873.1422, 105375.0
873.6243, 105398.6
874.1064, 105430.3
874.5886, 105505.2
875.0707, 105606.1
875.5528, 105648.0
876.0349, 105538.6
876.5170, 105450.5
876.9991, 105428.2
877.4813, 105455.9
877.9634, 105471.3
878.4455, 105474.0
878.9276, 105508.9
879.4097, 105627.6
879.8918, 105752.4
880.3740, 105764.4
880.8561, 105702.7
881.3382, 105661.1
881.8203, 105656.0
882.3024, 105702.7
882.7845, 105862.1
883.2667, 106057.9
883.7488, 106130.7
884.2309, 106052.8
884.7130, 106002.5
885.1951, 106026.0
885.6772, 106080.0
886.1594, 106094.7
886.6415, 106087.2
887.1236, 106098.7
887.6057, 106161.0
888.0878, 106215.5
888.5699, 106211.2
889.0521, 106196.1
889.5342, 106238.0
890.0163, 106372.6
890.4984, 106478.5
890.9805, 106544.9
891.4626, 106589.9
891.9448, 106622.8
892.4269, 106650.9
892.9090, 106697.1
893.3911, 106761.4
893.8732, 106852.9
894.3553, 107048.2
894.8375, 107227.3
895.3196, 107260.6
895.8017, 107043.9
896.2838, 106911.9
896.7659, 106896.8
897.2480, 106905.9
897.7302, 106870.9
898.2123, 106797.3
898.6944, 106703.4
899.1765, 106593.2
899.6586, 106487.5
900.1407, 106416.0
900.6229, 106354.1
901.1050, 106271.0
901.5871, 106161.7
902.0692, 106114.4
902.5513, 106193.2
903.0334, 106250.3
903.5156, 106198.0
903.9977, 106060.1
904.4798, 106042.0
904.9619, 106137.1
905.4440, 106227.8
905.9261, 106236.3
906.4083, 106207.0
906.8904, 106167.8
907.3725, 106124.9
907.8546, 106101.1
908.3367, 106141.9
908.8188, 106153.6
909.3010, 106100.9
909.7831, 106010.2
910.2652, 105945.9
910.7473, 105908.7
911.2294, 105952.2
911.7115, 106152.4
912.1937, 106345.2
912.6758, 106274.7
913.1579, 106056.7
913.6400, 105907.6
914.1221, 105929.8
914.6042, 105987.0
915.0864, 106076.9
915.5685, 106172.8
916.0506, 106241.8
916.5327, 106284.8
917.0148, 106304.8
917.4969, 106299.5
917.9790, 106295.1
918.4611, 106342.9
918.9432, 106404.9
919.4254, 106410.8
919.9075, 106319.9
920.3896, 106278.8
920.8717, 106368.1
921.3538, 106497.5
921.8359, 106610.4
922.3181, 106705.4
922.8002, 106773.9
923.2823, 105946.9
923.7644, 106386.0
924.2465, 106632.3
924.7286, 106696.1
925.2108, 106031.2
925.6929, 106307.4
926.1750, 106206.4
926.6571, 106090.0
927.1392, 106498.6
927.6213, 105939.6
928.1035, 106340.0
928.5856, 106357.4
929.0677, 106550.0
929.5498, 106363.2
930.0319, 106293.5
930.5140, 106603.5
930.9962, 106703.3
931.4783, 106472.8
931.9604, 106676.6
932.4425, 106104.4
932.9246, 106213.1
933.4067, 106615.6
933.8889, 106766.9
934.3710, 106774.9
934.8531, 106831.6
935.3352, 106810.0
935.8173, 106661.8
936.2994, 106510.3
936.7816, 106543.1
937.2637, 106677.3
937.7458, 106770.2
938.2279, 106775.3
938.7100, 106771.1
939.1921, 106785.2
939.6743, 106797.6
940.1564, 106794.9
940.6385, 106777.0
941.1206, 106741.7
941.6027, 106685.9
942.0848, 106635.6
942.5670, 106624.2
943.0491, 106626.7
943.5312, 106596.3
944.0133, 106533.3
944.4954, 106498.0
944.9775, 106547.7
945.4597, 106595.6
945.9418, 106608.2
946.4239, 106589.2
946.9060, 106555.7
947.3881, 106507.2
947.8702, 106462.5
948.3524, 106422.1
948.8345, 106400.0
949.3166, 106429.5
949.7987, 106491.5
950.2808, 106539.9
950.7629, 106531.2
951.2451, 106541.0
951.7272, 106603.7
952.2093, 106675.4
952.6914, 106680.8
953.1735, 106615.5
953.6556, 106565.7
954.1378, 106544.0
954.6199, 106541.0
955.1020, 106552.8
955.5841, 106574.3
956.0662, 106604.9
956.5483, 106656.2
957.0305, 106672.9
957.5126, 106617.1
957.9947, 106560.8
958.4768, 106550.1
958.9589, 106584.7
959.4410, 106623.2
959.9232, 106665.8
960.4053, 106705.8
960.8874, 106750.2
961.3695, 106780.0
961.8516, 106753.8
962.3337, 106685.1
962.8159, 106666.0
963.2980, 106737.8
963.7801, 106827.7
964.2622, 106950.1
964.7443, 107056.4
965.2264, 106956.1
965.7086, 106692.6
966.1907, 106553.7
966.6728, 106679.5
967.1549, 106863.4
967.6370, 106986.0
968.1191, 107046.1
968.6013, 107035.7
969.0834, 106881.4
969.5655, 106789.0
970.0476, 106771.2
970.5297, 106790.4
971.0118, 106818.6
971.4940, 106852.5
971.9761, 106870.0
972.4582, 106869.6
972.9403, 106903.3
973.4224, 107058.5
973.9045, 107217.1
974.3867, 107272.1
974.8688, 107222.9
975.3509, 107281.4
975.8330, 107479.3
976.3151, 107672.3
976.7972, 107788.1
977.2794, 107861.9
977.7615, 107994.3
978.2435, 108155.4
978.7256, 108257.6
979.2078, 108139.5
979.6899, 108092.5
980.1720, 108258.2
980.6541, 108542.2
981.1362, 108829.4
981.6183, 109137.2
982.1005, 109334.1
982.5826, 109391.3
983.0647, 109402.8
983.5468, 109426.9
984.0289, 109496.5
984.5110, 109671.2
984.9932, 109972.0
985.4753, 110295.1
985.9574, 110671.0
986.4395, 110999.2
986.9216, 111213.3
987.4037, 111325.2
987.8859, 111512.2
988.3680, 111770.4
988.8501, 111993.4
989.3322, 112168.8
989.8143, 112236.8
990.2964, 112104.1
990.7786, 111817.0
991.2607, 111499.9
991.7428, 111163.4
992.2249, 110825.1
992.7070, 110479.5
993.1891, 110142.7
993.6713, 109844.1
994.1534, 109580.0
994.6355, 109341.7
995.1176, 109129.3
995.5997, 108929.1
996.0818, 108694.3
996.5640, 108491.4
997.0461, 108390.2
997.5282, 108408.4
998.0103, 108439.4
998.4924, 108491.0
998.9745, 108526.3
999.4567, 108522.4
999.9388, 108484.0
1000.421, 108388.0
1000.903, 108258.2
1001.385, 108198.5
1001.867, 108320.5
1002.349, 108452.4
1002.831, 108540.0
1003.314, 108589.6
1003.796, 108620.9
1004.278, 108638.2
1004.760, 108565.4
1005.242, 108363.2
1005.724, 108162.4
1006.206, 108120.5
1006.688, 108166.3
1007.171, 108210.7
1007.653, 108247.1
1008.135, 108249.8
1008.617, 108200.0
1009.099, 108145.5
1009.581, 108111.7
1010.063, 108097.8
1010.545, 108101.8
1011.027, 108121.5
1011.510, 108142.4
1011.992, 108145.6
1012.474, 108154.0
1012.956, 108186.6
1013.438, 108235.4
1013.920, 108277.9
1014.402, 108317.5
1014.884, 108334.4
1015.367, 108323.3
1015.849, 108293.2
1016.331, 108228.4
1016.813, 108162.2
1017.295, 108186.3
1017.777, 108349.5
1018.259, 108452.5
1018.741, 108360.0
1019.223, 108232.8
1019.706, 108149.2
1020.188, 108110.7
1020.670, 108211.5
1021.152, 108457.2
1021.634, 108647.6
1022.116, 108547.1
1022.598, 108416.7
1023.080, 108579.7
1023.563, 108933.8
1024.045, 109180.2
1024.527, 109202.5
1025.009, 109193.9
1025.491, 109170.6
1025.973, 109127.0
1026.455, 109029.7
1026.937, 108902.8
1027.419, 108840.1
1027.901, 108860.8
1028.384, 108919.5
1028.866, 109067.3
1029.348, 109179.9
1029.830, 109125.8
1030.312, 108909.9
1030.794, 108876.0
1031.276, 109056.3
1031.758, 109223.4
1032.241, 109246.6
1032.723, 109205.9
1033.205, 109212.9
1033.687, 109249.6
1034.169, 109272.2
1034.651, 109221.0
1035.133, 109220.5
1035.615, 109323.3
1036.098, 109431.3
1036.580, 109376.1
1037.062, 109193.7
1037.544, 109185.3
1038.026, 109386.5
1038.508, 109565.7
1038.990, 109496.8
1039.472, 109382.6
1039.954, 109393.3
1040.437, 109528.6
1040.919, 109588.8
1041.401, 109566.1
1041.883, 109510.0
1042.365, 109424.8
1042.847, 109343.9
1043.329, 109335.1
1043.811, 109373.3
1044.293, 109405.4
1044.776, 109438.1
1045.258, 109424.5
1045.740, 109294.8
1046.222, 109184.3
1046.704, 109236.2
1047.186, 109440.0
1047.668, 109570.4
1048.150, 109620.0
1048.633, 109634.8
1049.115, 109619.3
1049.597, 109603.8
1050.079, 109613.3
1050.561, 109644.7
1051.043, 109669.2
1051.525, 109680.4
1052.007, 109700.7
1052.490, 109727.1
1052.972, 109782.4
1053.454, 109955.9
1053.936, 110166.4
1054.418, 110242.3
1054.900, 110077.3
1055.382, 109994.8
1055.864, 110137.4
1056.346, 110319.2
1056.828, 110446.9
1057.311, 110521.0
1057.793, 110550.0
1058.275, 110537.1
1058.757, 110523.6
1059.239, 110556.2
1059.721, 110577.9
1060.203, 110552.4
1060.685, 110491.9
1061.168, 110422.7
1061.650, 110348.9
1062.132, 110274.0
1062.614, 110201.5
1063.096, 110127.3
1063.578, 110015.2
1064.060, 109912.5
1064.542, 109910.3
1065.025, 110022.3
1065.507, 110107.1
1065.989, 110123.3
1066.471, 110096.9
1066.953, 110008.6
1067.435, 109895.6
1067.917, 109897.9
1068.399, 110000.4
1068.881, 110124.0
1069.364, 110258.2
1069.846, 110370.9
1070.328, 110414.4
1070.810, 110439.4
1071.292, 110504.7
1071.774, 110623.2
1072.256, 110724.2
1072.738, 110805.0
1073.220, 110863.5
1073.703, 110890.2
1074.185, 110895.1
1074.667, 110886.1
1075.149, 110865.6
1075.631, 110843.8
1076.113, 110846.7
1076.595, 110810.0
1077.077, 110704.4
1077.559, 110591.3
1078.042, 110593.8
1078.524, 110675.1
1079.006, 110715.1
1079.488, 110688.9
1079.970, 110658.8
1080.452, 110650.3
1080.934, 110657.3
1081.416, 110669.0
1081.899, 110687.8
1082.381, 110754.9
1082.863, 110868.1
1083.345, 110977.6
1083.827, 111049.5
1084.309, 111117.3
1084.791, 111215.6
1085.273, 111327.1
1085.755, 111427.5
1086.238, 111530.7
1086.720, 111568.6
1087.202, 111519.0
1087.684, 111473.0
1088.166, 111538.5
1088.648, 111653.8
1089.130, 111697.5
1089.612, 111676.3
1090.094, 111659.9
1090.577, 111685.4
1091.059, 111712.3
1091.541, 111735.3
1092.023, 111753.1
1092.505, 111751.5
1092.987, 111739.0
1093.469, 111756.7
1093.951, 111811.3
1094.434, 111896.8
1094.916, 112073.2
1095.398, 112220.7
1095.880, 112216.2
1096.362, 112069.1
1096.844, 112044.8
1097.326, 112149.3
1097.808, 112254.7
1098.291, 112282.3
1098.773, 112314.1
1099.255, 112525.7
1099.737, 112778.4
1100.219, 112840.8
1100.701, 112490.7
1101.183, 112290.1
1101.665, 112268.3
1102.147, 112316.9
1102.630, 112324.3
1103.112, 112340.0
1103.594, 112515.1
1104.076, 112813.7
1104.558, 113029.5
1105.040, 113050.0
1105.522, 112991.3
1106.004, 112829.0
1106.486, 112660.0
1106.969, 112693.2
1107.451, 112885.1
1107.933, 113018.3
1108.415, 113058.7
1108.897, 113028.8
1109.379, 112874.9
1109.861, 112720.6
1110.343, 112657.8
1110.826, 112676.0
1111.308, 112681.3
1111.790, 112674.4
1112.272, 112680.3
1112.754, 112718.5
1113.236, 112754.3
1113.718, 112722.5
1114.200, 112677.6
1114.682, 112702.2
1115.165, 112855.1
1115.647, 112910.4
1116.129, 112839.7
1116.611, 112760.5
1117.093, 112762.7
1117.575, 112805.3
1118.057, 112818.1
1118.539, 112809.6
1119.021, 112809.6
1119.504, 112893.5
1119.986, 112885.7
1120.468, 112727.3
1120.950, 112536.4
1121.432, 112468.4
1121.914, 112494.4
1122.396, 112510.6
1122.878, 112510.2
1123.361, 112529.9
1123.843, 112584.3
1124.325, 112674.4
1124.807, 112817.1
1125.289, 112984.3
1125.771, 113084.4
1126.253, 113125.4
1126.735, 113212.0
1127.218, 113381.6
1127.700, 113543.3
1128.182, 113594.9
1128.664, 113624.8
1129.146, 113720.9
1129.628, 113881.5
1130.110, 114001.4
1130.592, 114077.3
1131.074, 114107.0
1131.557, 114048.4
1132.039, 113994.7
1132.521, 114081.5
1133.003, 114238.2
1133.485, 114353.9
1133.967, 114445.6
1134.449, 114418.2
1134.931, 114245.9
1135.413, 114064.3
1135.896, 113974.7
1136.378, 113958.5
1136.860, 114010.1
1137.342, 114110.9
1137.824, 114188.3
1138.306, 114209.5
1138.788, 114213.5
1139.270, 114191.8
1139.752, 114169.9
1140.235, 114183.5
1140.717, 114220.3
1141.199, 114258.3
1141.681, 114291.6
1142.163, 114308.6
1142.645, 114291.3
1143.127, 114268.2
1143.609, 114259.7
1144.092, 114249.1
1144.574, 114177.8
1145.056, 114062.3
1145.538, 113983.5
1146.020, 113966.9
1146.502, 113987.0
1146.984, 114074.1
1147.466, 114159.3
1147.948, 114191.9
1148.431, 114177.7
1148.913, 114178.0
1149.395, 114192.3
1149.877, 114222.1
1150.359, 114258.8
1150.841, 114317.1
1151.323, 114382.1
1151.805, 114484.7
1152.287, 114684.4
1152.770, 115027.9
1153.252, 115224.6
1153.734, 115263.5
1154.216, 115241.8
1154.698, 115202.0
1155.180, 115159.7
1155.662, 115121.2
1156.144, 115096.3
1156.627, 115115.7
1157.109, 115208.9
1157.591, 115275.9
1158.073, 115311.4
1158.555, 115318.4
1159.037, 115278.5
1159.519, 115225.0
1160.001, 115202.5
1160.484, 115210.9
1160.966, 115226.9
1161.448, 115255.4
1161.930, 115266.7
1162.412, 115251.2
1162.894, 115220.8
1163.376, 115197.8
1163.858, 115173.1
1164.340, 115123.9
1164.823, 115044.8
1165.305, 114988.4
1165.787, 114994.8
1166.269, 114994.9
1166.751, 114966.1
1167.233, 114920.6
1167.715, 114863.3
1168.197, 114813.2
1168.679, 114819.5
1169.162, 114893.1
1169.644, 115033.0
1170.126, 115340.0
1170.608, 115591.8
1171.090, 115622.2
1171.572, 115491.3
1172.054, 115545.4
1172.536, 115745.2
1173.019, 115910.4
1173.501, 115917.7
1173.983, 115934.2
1174.465, 116046.9
1174.947, 116180.7
1175.429, 116280.6
1175.911, 116346.6
1176.393, 116364.6
1176.875, 116341.5
1177.358, 116342.7
1177.840, 116455.4
1178.322, 116553.8
1178.804, 116547.7
1179.286, 116499.5
1179.768, 116499.9
1180.250, 116549.7
1180.732, 116597.6
1181.214, 116638.7
1181.697, 116691.2
1182.179, 116797.2
1182.661, 116890.5
1183.143, 116900.2
1183.625, 116861.6
1184.107, 116878.2
1184.589, 116951.6
1185.071, 117037.7
1185.554, 117134.2
1186.036, 117197.8
1186.518, 117162.6
1187.000, 117097.7
1187.482, 117063.8
1187.964, 117059.7
1188.446, 117056.3
1188.928, 117060.9
1189.411, 116994.4
1189.893, 116798.0
1190.375, 116650.5
1190.857, 116832.4
1191.339, 117107.4
1191.821, 117205.8
1192.303, 117093.4
1192.785, 117050.0
1193.267, 117081.4
1193.750, 117135.9
1194.232, 117201.3
1194.714, 117260.0
1195.196, 117276.5
1195.678, 117280.0
1196.160, 117317.5
1196.642, 117414.4
1197.124, 117443.3
1197.606, 117387.1
1198.089, 117357.4
1198.571, 117448.7
1199.053, 117574.9
1199.535, 117656.6
1200.017, 117689.0
1200.499, 117655.4
1200.981, 117497.2
1201.463, 117419.7
1201.945, 117436.0
1202.428, 117485.5
1202.910, 117534.6
1203.392, 117580.2
1203.874, 117621.1
1204.356, 117656.1
1204.838, 117678.3
1205.320, 117667.3
1205.802, 117693.8
1206.285, 117769.2
1206.767, 117852.1
1207.249, 117896.7
1207.731, 117926.3
1208.213, 117979.7
1208.695, 118049.6
1209.177, 118081.9
1209.659, 118034.7
1210.141, 118047.1
1210.624, 118146.7
1211.106, 118283.3
1211.588, 118431.0
1212.070, 118560.7
1212.552, 118636.1
1213.034, 118652.8
1213.516, 118622.0
1213.998, 118522.6
1214.480, 118447.0
1214.963, 118418.5
1215.445, 118412.0
1215.927, 118393.6
1216.409, 118376.5
1216.891, 118388.2
1217.373, 118436.0
1217.855, 118449.1
1218.337, 118397.9
1218.820, 118398.6
1219.302, 118506.3
1219.784, 118646.6
1220.266, 118723.1
1220.748, 118750.3
1221.230, 118724.6
1221.712, 118620.8
1222.194, 118641.6
1222.677, 118835.3
1223.159, 119013.7
1223.641, 119096.4
1224.123, 119122.7
1224.605, 119130.6
1225.087, 119132.3
1225.569, 119146.7
1226.051, 119178.4
1226.533, 119219.4
1227.016, 119266.0
1227.498, 119336.1
1227.980, 119461.3
1228.462, 119588.8
1228.944, 119629.5
1229.426, 119620.3
1229.908, 119628.0
1230.390, 119700.6
1230.872, 119682.0
1231.355, 119541.1
1231.837, 119451.9
1232.319, 119570.4
1232.801, 119772.4
1233.283, 119911.1
1233.765, 120004.7
1234.247, 120088.8
1234.729, 120170.4
1235.212, 120216.4
1235.694, 120209.3
1236.176, 120248.4
1236.658, 120498.2
1237.140, 120759.5
1237.622, 120781.0
1238.104, 120632.5
1238.586, 120497.0
1239.068, 120387.3
1239.551, 120310.6
1240.033, 120270.5
1240.515, 120256.1
1240.997, 120270.6
1241.479, 120301.5
1241.961, 120331.0
1242.443, 120371.7
1242.925, 120454.9
1243.407, 120590.1
1243.890, 120733.6
1244.372, 120883.5
1244.854, 121005.5
1245.336, 121047.3
1245.818, 121057.9
1246.300, 121053.0
1246.782, 121047.0
1247.264, 121078.8
1247.747, 121141.0
1248.229, 121302.1
1248.711, 121587.0
1249.193, 121783.6
1249.675, 121639.0
1250.157, 121413.9
1250.639, 121304.7
1251.121, 121286.7
1251.604, 121272.4
1252.086, 121267.0
1252.568, 121220.3
1253.050, 121124.5
1253.532, 121024.9
1254.014, 120895.5
1254.496, 120837.1
1254.978, 120950.1
1255.460, 121173.9
1255.943, 121373.5
1256.425, 121543.4
1256.907, 121628.7
1257.389, 121606.0
1257.871, 121593.5
1258.353, 121690.6
1258.835, 121794.9
1259.317, 121856.7
1259.799, 121877.3
1260.281, 121880.2
1260.764, 121854.1
1261.246, 121698.4
1261.728, 121358.6
1262.210, 121128.4
1262.692, 121311.6
1263.174, 121471.5
1263.656, 121384.8
1264.138, 121168.7
1264.621, 121169.0
1265.103, 121319.4
1265.585, 121387.5
1266.067, 121291.2
1266.549, 121262.9
1267.031, 121421.0
1267.513, 121611.6
1267.995, 121779.4
1268.478, 121933.9
1268.960, 122090.7
1269.442, 122256.2
1269.924, 122445.7
1270.406, 122657.7
1270.888, 122909.5
1271.370, 123244.4
1271.852, 123497.7
1272.334, 123556.9
1272.817, 123538.9
1273.299, 123728.9
1273.781, 123980.7
1274.263, 124016.5
1274.745, 123680.3
1275.227, 123522.1
1275.709, 123613.6
1276.191, 123706.0
1276.673, 123681.1
1277.156, 123612.0
1277.638, 123587.7
1278.120, 123594.4
1278.602, 123612.7
1279.084, 123645.5
1279.566, 123673.4
1280.048, 123697.3
1280.530, 123721.3
1281.013, 123749.8
1281.495, 123773.8
1281.977, 123749.5
1282.459, 123734.4
1282.941, 123818.2
1283.423, 124010.1
1283.905, 124071.1
1284.387, 124003.1
1284.870, 123997.0
1285.352, 124199.3
1285.834, 124395.1
1286.316, 124439.1
1286.798, 124407.3
1287.280, 124367.3
1287.762, 124322.5
1288.244, 124334.1
1288.726, 124392.2
1289.208, 124438.0
1289.691, 124446.7
1290.173, 124438.7
1290.655, 124412.0
1291.137, 124387.7
1291.619, 124366.2
1292.101, 124349.5
1292.583, 124410.2
1293.065, 124542.9
1293.548, 124642.5
1294.030, 124651.1
1294.512, 124616.7
1294.994, 124525.5
1295.476, 124438.4
1295.958, 124399.4
1296.440, 124362.8
1296.922, 124221.8
1297.405, 124263.2
1297.887, 124563.2
1298.369, 124892.2
1298.851, 125038.1
1299.333, 124953.4
1299.815, 124856.3
1300.297, 124856.9
1300.779, 124955.2
##END=



