##NAMES=Palermoite
##RRUFFID=R130090
##IDEAL CHEMISTRY=Li_2_SrAl_4_(PO_4_)_4_(OH)_4_
##LOCALITY=Palermo mine, North Groton, New Hampshire, USA
##OWNER=RRUFF
##SOURCE=William W. Pinch and Don Doell
##DESCRIPTION=Colorless prismatic crystal, associated with quartz
##STATUS=The identification of this mineral has been confirmed only by single crystal X-ray diffraction.
##URL=rruff.info/R130090
8.936163e+001, 0.000000e+000
8.984375e+001, 3.919807e+002
9.032587e+001, 3.946316e+002
9.080798e+001, 3.951257e+002
9.129010e+001, 3.925439e+002
9.177222e+001, 3.888741e+002
9.225433e+001, 3.867773e+002
9.273645e+001, 3.860923e+002
9.321857e+001, 3.851689e+002
9.370068e+001, 3.827373e+002
9.418280e+001, 3.789775e+002
9.466492e+001, 3.743711e+002
9.514703e+001, 3.679530e+002
9.562915e+001, 3.610050e+002
9.611127e+001, 3.578405e+002
9.659338e+001, 3.591295e+002
9.707550e+001, 3.609388e+002
9.755762e+001, 3.577891e+002
9.803973e+001, 3.495584e+002
9.852185e+001, 3.418998e+002
9.900397e+001, 3.371918e+002
9.948608e+001, 3.354799e+002
9.996820e+001, 3.344944e+002
1.004503e+002, 3.348621e+002
1.009324e+002, 3.352009e+002
1.014146e+002, 3.321452e+002
1.018967e+002, 3.245171e+002
1.023788e+002, 3.167821e+002
1.028609e+002, 3.111130e+002
1.033430e+002, 3.078396e+002
1.038251e+002, 3.058972e+002
1.043073e+002, 3.060151e+002
1.047894e+002, 3.075465e+002
1.052715e+002, 3.070338e+002
1.057536e+002, 3.035179e+002
1.062357e+002, 2.990128e+002
1.067178e+002, 2.947718e+002
1.072000e+002, 2.904558e+002
1.076821e+002, 2.869692e+002
1.081642e+002, 2.848332e+002
1.086463e+002, 2.841990e+002
1.091284e+002, 2.828163e+002
1.096105e+002, 2.806227e+002
1.100927e+002, 2.776984e+002
1.105748e+002, 2.741440e+002
1.110569e+002, 2.685371e+002
1.115390e+002, 2.636397e+002
1.120211e+002, 2.603706e+002
1.125032e+002, 2.593161e+002
1.129854e+002, 2.578256e+002
1.134675e+002, 2.553933e+002
1.139496e+002, 2.523565e+002
1.144317e+002, 2.491639e+002
1.149138e+002, 2.451879e+002
1.153959e+002, 2.416459e+002
1.158781e+002, 2.392390e+002
1.163602e+002, 2.386267e+002
1.168423e+002, 2.379198e+002
1.173244e+002, 2.365022e+002
1.178065e+002, 2.344885e+002
1.182886e+002, 2.321704e+002
1.187708e+002, 2.290157e+002
1.192529e+002, 2.259307e+002
1.197350e+002, 2.236948e+002
1.202171e+002, 2.229272e+002
1.206992e+002, 2.225413e+002
1.211813e+002, 2.219634e+002
1.216635e+002, 2.212103e+002
1.221456e+002, 2.203861e+002
1.226277e+002, 2.202601e+002
1.231098e+002, 2.199411e+002
1.235919e+002, 2.182216e+002
1.240740e+002, 2.133092e+002
1.245562e+002, 2.076152e+002
1.250383e+002, 2.037155e+002
1.255204e+002, 2.015804e+002
1.260025e+002, 2.002386e+002
1.264846e+002, 1.991837e+002
1.269667e+002, 1.983118e+002
1.274489e+002, 1.973633e+002
1.279310e+002, 1.960868e+002
1.284131e+002, 1.946805e+002
1.288952e+002, 1.937300e+002
1.293773e+002, 1.933859e+002
1.298594e+002, 1.928176e+002
1.303416e+002, 1.904915e+002
1.308237e+002, 1.866971e+002
1.313058e+002, 1.833893e+002
1.317879e+002, 1.820338e+002
1.322700e+002, 1.821986e+002
1.327521e+002, 1.816579e+002
1.332343e+002, 1.800077e+002
1.337164e+002, 1.780069e+002
1.341985e+002, 1.771109e+002
1.346806e+002, 1.773905e+002
1.351627e+002, 1.778397e+002
1.356448e+002, 1.782633e+002
1.361270e+002, 1.786912e+002
1.366091e+002, 1.772983e+002
1.370912e+002, 1.731516e+002
1.375733e+002, 1.673820e+002
1.380554e+002, 1.635892e+002
1.385375e+002, 1.620840e+002
1.390197e+002, 1.616406e+002
1.395018e+002, 1.615082e+002
1.399839e+002, 1.618350e+002
1.404660e+002, 1.618397e+002
1.409481e+002, 1.614117e+002
1.414302e+002, 1.605518e+002
1.419124e+002, 1.591775e+002
1.423945e+002, 1.569942e+002
1.428766e+002, 1.547122e+002
1.433587e+002, 1.530784e+002
1.438408e+002, 1.524300e+002
1.443229e+002, 1.517724e+002
1.448051e+002, 1.509131e+002
1.452872e+002, 1.498174e+002
1.457693e+002, 1.486896e+002
1.462514e+002, 1.474925e+002
1.467335e+002, 1.462730e+002
1.472156e+002, 1.450725e+002
1.476978e+002, 1.439741e+002
1.481799e+002, 1.428050e+002
1.486620e+002, 1.414137e+002
1.491441e+002, 1.395031e+002
1.496262e+002, 1.382109e+002
1.501083e+002, 1.378799e+002
1.505905e+002, 1.381269e+002
1.510726e+002, 1.382857e+002
1.515547e+002, 1.386554e+002
1.520368e+002, 1.386812e+002
1.525189e+002, 1.381828e+002
1.530010e+002, 1.369882e+002
1.534832e+002, 1.355590e+002
1.539653e+002, 1.334757e+002
1.544474e+002, 1.311503e+002
1.549295e+002, 1.295725e+002
1.554116e+002, 1.297820e+002
1.558937e+002, 1.301006e+002
1.563759e+002, 1.297433e+002
1.568580e+002, 1.279294e+002
1.573401e+002, 1.263418e+002
1.578222e+002, 1.252775e+002
1.583043e+002, 1.246849e+002
1.587864e+002, 1.243737e+002
1.592686e+002, 1.243574e+002
1.597507e+002, 1.245686e+002
1.602328e+002, 1.249724e+002
1.607149e+002, 1.262400e+002
1.611970e+002, 1.270148e+002
1.616791e+002, 1.266247e+002
1.621613e+002, 1.252273e+002
1.626434e+002, 1.238230e+002
1.631255e+002, 1.225955e+002
1.636076e+002, 1.216429e+002
1.640897e+002, 1.210523e+002
1.645718e+002, 1.214456e+002
1.650540e+002, 1.217170e+002
1.655361e+002, 1.211588e+002
1.660182e+002, 1.197984e+002
1.665003e+002, 1.185043e+002
1.669824e+002, 1.178724e+002
1.674645e+002, 1.175287e+002
1.679467e+002, 1.170197e+002
1.684288e+002, 1.158171e+002
1.689109e+002, 1.146253e+002
1.693930e+002, 1.139060e+002
1.698751e+002, 1.136777e+002
1.703572e+002, 1.138345e+002
1.708394e+002, 1.144866e+002
1.713215e+002, 1.154594e+002
1.718036e+002, 1.164460e+002
1.722857e+002, 1.174858e+002
1.727678e+002, 1.183945e+002
1.732499e+002, 1.188278e+002
1.737321e+002, 1.186849e+002
1.742142e+002, 1.187054e+002
1.746963e+002, 1.193695e+002
1.751784e+002, 1.206634e+002
1.756605e+002, 1.225634e+002
1.761426e+002, 1.253138e+002
1.766248e+002, 1.285595e+002
1.771069e+002, 1.318996e+002
1.775890e+002, 1.353702e+002
1.780711e+002, 1.386851e+002
1.785532e+002, 1.411520e+002
1.790353e+002, 1.431005e+002
1.795175e+002, 1.456123e+002
1.799996e+002, 1.499318e+002
1.804817e+002, 1.551531e+002
1.809638e+002, 1.595503e+002
1.814459e+002, 1.628064e+002
1.819280e+002, 1.655373e+002
1.824102e+002, 1.686639e+002
1.828923e+002, 1.720567e+002
1.833744e+002, 1.752703e+002
1.838565e+002, 1.776706e+002
1.843386e+002, 1.796205e+002
1.848207e+002, 1.821627e+002
1.853029e+002, 1.856283e+002
1.857850e+002, 1.894319e+002
1.862671e+002, 1.925208e+002
1.867492e+002, 1.949257e+002
1.872313e+002, 1.975670e+002
1.877134e+002, 2.012742e+002
1.881956e+002, 2.058555e+002
1.886777e+002, 2.101625e+002
1.891598e+002, 2.139187e+002
1.896419e+002, 2.174873e+002
1.901240e+002, 2.217111e+002
1.906061e+002, 2.266685e+002
1.910883e+002, 2.318140e+002
1.915704e+002, 2.369295e+002
1.920525e+002, 2.420281e+002
1.925346e+002, 2.466795e+002
1.930167e+002, 2.505079e+002
1.934988e+002, 2.538783e+002
1.939810e+002, 2.575962e+002
1.944631e+002, 2.615436e+002
1.949452e+002, 2.656082e+002
1.954273e+002, 2.685929e+002
1.959094e+002, 2.705316e+002
1.963915e+002, 2.725211e+002
1.968737e+002, 2.747399e+002
1.973558e+002, 2.771595e+002
1.978379e+002, 2.798652e+002
1.983200e+002, 2.829454e+002
1.988021e+002, 2.858940e+002
1.992842e+002, 2.880810e+002
1.997664e+002, 2.894756e+002
2.002485e+002, 2.911193e+002
2.007306e+002, 2.931942e+002
2.012127e+002, 2.956950e+002
2.016948e+002, 2.988818e+002
2.021769e+002, 3.030463e+002
2.026591e+002, 3.070406e+002
2.031412e+002, 3.094010e+002
2.036233e+002, 3.098419e+002
2.041054e+002, 3.110081e+002
2.045875e+002, 3.136380e+002
2.050696e+002, 3.175589e+002
2.055518e+002, 3.213260e+002
2.060339e+002, 3.249692e+002
2.065160e+002, 3.284027e+002
2.069981e+002, 3.315653e+002
2.074802e+002, 3.344410e+002
2.079623e+002, 3.369736e+002
2.084445e+002, 3.389930e+002
2.089266e+002, 3.405443e+002
2.094087e+002, 3.426152e+002
2.098908e+002, 3.453654e+002
2.103729e+002, 3.483486e+002
2.108550e+002, 3.510873e+002
2.113372e+002, 3.534894e+002
2.118193e+002, 3.558977e+002
2.123014e+002, 3.584906e+002
2.127835e+002, 3.612495e+002
2.132656e+002, 3.634741e+002
2.137477e+002, 3.649208e+002
2.142299e+002, 3.661870e+002
2.147120e+002, 3.679293e+002
2.151941e+002, 3.702137e+002
2.156762e+002, 3.728203e+002
2.161583e+002, 3.758457e+002
2.166404e+002, 3.793033e+002
2.171226e+002, 3.823249e+002
2.176047e+002, 3.847220e+002
2.180868e+002, 3.869077e+002
2.185689e+002, 3.894036e+002
2.190510e+002, 3.922770e+002
2.195331e+002, 3.953312e+002
2.200153e+002, 3.985297e+002
2.204974e+002, 4.018713e+002
2.209795e+002, 4.056129e+002
2.214616e+002, 4.100529e+002
2.219437e+002, 4.146285e+002
2.224258e+002, 4.187028e+002
2.229080e+002, 4.220784e+002
2.233901e+002, 4.253400e+002
2.238722e+002, 4.285671e+002
2.243543e+002, 4.317969e+002
2.248364e+002, 4.348898e+002
2.253185e+002, 4.375249e+002
2.258007e+002, 4.402679e+002
2.262828e+002, 4.439886e+002
2.267649e+002, 4.492226e+002
2.272470e+002, 4.542899e+002
2.277291e+002, 4.585278e+002
2.282112e+002, 4.618198e+002
2.286934e+002, 4.655833e+002
2.291755e+002, 4.698913e+002
2.296576e+002, 4.745943e+002
2.301397e+002, 4.794445e+002
2.306218e+002, 4.845820e+002
2.311039e+002, 4.897411e+002
2.315861e+002, 4.948396e+002
2.320682e+002, 4.999878e+002
2.325503e+002, 5.048788e+002
2.330324e+002, 5.094820e+002
2.335145e+002, 5.138652e+002
2.339966e+002, 5.182644e+002
2.344788e+002, 5.231517e+002
2.349609e+002, 5.271895e+002
2.354430e+002, 5.299943e+002
2.359251e+002, 5.314789e+002
2.364072e+002, 5.324491e+002
2.368893e+002, 5.332278e+002
2.373715e+002, 5.332278e+002
2.378536e+002, 5.317071e+002
2.383357e+002, 5.283729e+002
2.388178e+002, 5.239487e+002
2.392999e+002, 5.183167e+002
2.397820e+002, 5.113038e+002
2.402642e+002, 5.047360e+002
2.407463e+002, 4.987716e+002
2.412284e+002, 4.930969e+002
2.417105e+002, 4.872738e+002
2.421926e+002, 4.809543e+002
2.426747e+002, 4.751159e+002
2.431569e+002, 4.700562e+002
2.436390e+002, 4.658050e+002
2.441211e+002, 4.619241e+002
2.446032e+002, 4.583558e+002
2.450853e+002, 4.551715e+002
2.455674e+002, 4.524986e+002
2.460496e+002, 4.505616e+002
2.465317e+002, 4.487293e+002
2.470138e+002, 4.468788e+002
2.474959e+002, 4.450112e+002
2.479780e+002, 4.430910e+002
2.484601e+002, 4.410062e+002
2.489423e+002, 4.389798e+002
2.494244e+002, 4.372269e+002
2.499065e+002, 4.356797e+002
2.503886e+002, 4.345822e+002
2.508707e+002, 4.341791e+002
2.513528e+002, 4.345312e+002
2.518350e+002, 4.342897e+002
2.523171e+002, 4.331483e+002
2.527992e+002, 4.317513e+002
2.532813e+002, 4.307859e+002
2.537634e+002, 4.305092e+002
2.542455e+002, 4.301090e+002
2.547277e+002, 4.293961e+002
2.552098e+002, 4.283558e+002
2.556919e+002, 4.272955e+002
2.561740e+002, 4.261630e+002
2.566561e+002, 4.250597e+002
2.571382e+002, 4.241184e+002
2.576204e+002, 4.234119e+002
2.581025e+002, 4.226506e+002
2.585846e+002, 4.217245e+002
2.590667e+002, 4.206479e+002
2.595488e+002, 4.198594e+002
2.600309e+002, 4.194755e+002
2.605131e+002, 4.192369e+002
2.609952e+002, 4.189240e+002
2.614773e+002, 4.184921e+002
2.619594e+002, 4.181330e+002
2.624415e+002, 4.179410e+002
2.629236e+002, 4.178847e+002
2.634058e+002, 4.176058e+002
2.638879e+002, 4.170311e+002
2.643700e+002, 4.163635e+002
2.648521e+002, 4.157355e+002
2.653342e+002, 4.151523e+002
2.658163e+002, 4.145897e+002
2.662985e+002, 4.139483e+002
2.667806e+002, 4.133144e+002
2.672627e+002, 4.133324e+002
2.677448e+002, 4.143626e+002
2.682269e+002, 4.152789e+002
2.687090e+002, 4.151100e+002
2.691912e+002, 4.135185e+002
2.696733e+002, 4.122915e+002
2.701554e+002, 4.117820e+002
2.706375e+002, 4.117527e+002
2.711196e+002, 4.111630e+002
2.716017e+002, 4.097499e+002
2.720839e+002, 4.084945e+002
2.725660e+002, 4.082247e+002
2.730481e+002, 4.091349e+002
2.735302e+002, 4.097217e+002
2.740123e+002, 4.097852e+002
2.744944e+002, 4.094818e+002
2.749766e+002, 4.091753e+002
2.754587e+002, 4.087950e+002
2.759408e+002, 4.086995e+002
2.764229e+002, 4.093041e+002
2.769050e+002, 4.107083e+002
2.773871e+002, 4.115814e+002
2.778693e+002, 4.117074e+002
2.783514e+002, 4.114013e+002
2.788335e+002, 4.113105e+002
2.793156e+002, 4.114401e+002
2.797977e+002, 4.117560e+002
2.802798e+002, 4.124693e+002
2.807620e+002, 4.135798e+002
2.812441e+002, 4.138983e+002
2.817262e+002, 4.132068e+002
2.822083e+002, 4.119856e+002
2.826904e+002, 4.110947e+002
2.831725e+002, 4.105591e+002
2.836547e+002, 4.099504e+002
2.841368e+002, 4.089767e+002
2.846189e+002, 4.076861e+002
2.851010e+002, 4.065749e+002
2.855831e+002, 4.056730e+002
2.860652e+002, 4.048948e+002
2.865474e+002, 4.040835e+002
2.870295e+002, 4.032428e+002
2.875116e+002, 4.025610e+002
2.879937e+002, 4.023414e+002
2.884758e+002, 4.024276e+002
2.889579e+002, 4.018242e+002
2.894401e+002, 4.004332e+002
2.899222e+002, 3.988542e+002
2.904043e+002, 3.976807e+002
2.908864e+002, 3.969158e+002
2.913685e+002, 3.966010e+002
2.918506e+002, 3.970844e+002
2.923328e+002, 3.979951e+002
2.928149e+002, 3.981314e+002
2.932970e+002, 3.974487e+002
2.937791e+002, 3.965612e+002
2.942612e+002, 3.960012e+002
2.947433e+002, 3.957469e+002
2.952255e+002, 3.957331e+002
2.957076e+002, 3.959618e+002
2.961897e+002, 3.964058e+002
2.966718e+002, 3.970916e+002
2.971539e+002, 3.980091e+002
2.976360e+002, 3.989117e+002
2.981182e+002, 3.996050e+002
2.986003e+002, 4.001158e+002
2.990824e+002, 4.004680e+002
2.995645e+002, 4.003975e+002
3.000466e+002, 4.004716e+002
3.005287e+002, 4.018330e+002
3.010109e+002, 4.042912e+002
3.014930e+002, 4.065459e+002
3.019751e+002, 4.072802e+002
3.024572e+002, 4.072348e+002
3.029393e+002, 4.076368e+002
3.034214e+002, 4.087939e+002
3.039036e+002, 4.104105e+002
3.043857e+002, 4.121516e+002
3.048678e+002, 4.140677e+002
3.053499e+002, 4.163903e+002
3.058320e+002, 4.196812e+002
3.063141e+002, 4.232852e+002
3.067963e+002, 4.261905e+002
3.072784e+002, 4.279539e+002
3.077605e+002, 4.299279e+002
3.082426e+002, 4.334364e+002
3.087247e+002, 4.380433e+002
3.092068e+002, 4.427065e+002
3.096890e+002, 4.466875e+002
3.101711e+002, 4.506056e+002
3.106532e+002, 4.549984e+002
3.111353e+002, 4.599746e+002
3.116174e+002, 4.650415e+002
3.120995e+002, 4.699078e+002
3.125817e+002, 4.745833e+002
3.130638e+002, 4.791561e+002
3.135459e+002, 4.834339e+002
3.140280e+002, 4.878361e+002
3.145101e+002, 4.926260e+002
3.149922e+002, 4.978087e+002
3.154744e+002, 5.032967e+002
3.159565e+002, 5.091984e+002
3.164386e+002, 5.153259e+002
3.169207e+002, 5.213854e+002
3.174028e+002, 5.268185e+002
3.178849e+002, 5.326784e+002
3.183671e+002, 5.394064e+002
3.188492e+002, 5.470512e+002
3.193313e+002, 5.551360e+002
3.198134e+002, 5.632440e+002
3.202955e+002, 5.719091e+002
3.207776e+002, 5.814523e+002
3.212598e+002, 5.925870e+002
3.217419e+002, 6.040026e+002
3.222240e+002, 6.156153e+002
3.227061e+002, 6.273334e+002
3.231882e+002, 6.387184e+002
3.236703e+002, 6.500768e+002
3.241525e+002, 6.608415e+002
3.246346e+002, 6.705869e+002
3.251167e+002, 6.792056e+002
3.255988e+002, 6.870137e+002
3.260809e+002, 6.947949e+002
3.265630e+002, 7.018643e+002
3.270452e+002, 7.063537e+002
3.275273e+002, 7.074528e+002
3.280094e+002, 7.065076e+002
3.284915e+002, 7.040931e+002
3.289736e+002, 7.009284e+002
3.294557e+002, 6.947372e+002
3.299379e+002, 6.838459e+002
3.304200e+002, 6.704065e+002
3.309021e+002, 6.579974e+002
3.313842e+002, 6.469164e+002
3.318663e+002, 6.363101e+002
3.323484e+002, 6.256439e+002
3.328306e+002, 6.148266e+002
3.333127e+002, 6.057805e+002
3.337948e+002, 5.990621e+002
3.342769e+002, 5.935859e+002
3.347590e+002, 5.883015e+002
3.352411e+002, 5.832205e+002
3.357233e+002, 5.782044e+002
3.362054e+002, 5.731800e+002
3.366875e+002, 5.681465e+002
3.371696e+002, 5.637797e+002
3.376517e+002, 5.603018e+002
3.381339e+002, 5.570980e+002
3.386160e+002, 5.539147e+002
3.390981e+002, 5.509232e+002
3.395802e+002, 5.469393e+002
3.400623e+002, 5.415297e+002
3.405444e+002, 5.351203e+002
3.410266e+002, 5.294843e+002
3.415087e+002, 5.246378e+002
3.419908e+002, 5.200656e+002
3.424729e+002, 5.154487e+002
3.429550e+002, 5.108188e+002
3.434371e+002, 5.059598e+002
3.439193e+002, 5.007821e+002
3.444014e+002, 4.955747e+002
3.448835e+002, 4.910477e+002
3.453656e+002, 4.871977e+002
3.458477e+002, 4.834125e+002
3.463298e+002, 4.791374e+002
3.468120e+002, 4.746010e+002
3.472941e+002, 4.710808e+002
3.477762e+002, 4.686781e+002
3.482583e+002, 4.667612e+002
3.487404e+002, 4.644673e+002
3.492225e+002, 4.619627e+002
3.497047e+002, 4.599519e+002
3.501868e+002, 4.589944e+002
3.506689e+002, 4.585734e+002
3.511510e+002, 4.577904e+002
3.516331e+002, 4.566490e+002
3.521152e+002, 4.553490e+002
3.525974e+002, 4.536930e+002
3.530795e+002, 4.520348e+002
3.535616e+002, 4.510757e+002
3.540437e+002, 4.512630e+002
3.545258e+002, 4.518920e+002
3.550079e+002, 4.523793e+002
3.554901e+002, 4.527287e+002
3.559722e+002, 4.529654e+002
3.564543e+002, 4.530135e+002
3.569364e+002, 4.530046e+002
3.574185e+002, 4.530338e+002
3.579006e+002, 4.530497e+002
3.583828e+002, 4.533037e+002
3.588649e+002, 4.540284e+002
3.593470e+002, 4.551071e+002
3.598291e+002, 4.563042e+002
3.603112e+002, 4.578172e+002
3.607933e+002, 4.591908e+002
3.612755e+002, 4.600420e+002
3.617576e+002, 4.602372e+002
3.622397e+002, 4.606258e+002
3.627218e+002, 4.615009e+002
3.632039e+002, 4.627443e+002
3.636860e+002, 4.642246e+002
3.641682e+002, 4.664626e+002
3.646503e+002, 4.684020e+002
3.651324e+002, 4.695215e+002
3.656145e+002, 4.698643e+002
3.660966e+002, 4.703329e+002
3.665787e+002, 4.712709e+002
3.670609e+002, 4.722611e+002
3.675430e+002, 4.730361e+002
3.680251e+002, 4.738967e+002
3.685072e+002, 4.741619e+002
3.689893e+002, 4.736935e+002
3.694714e+002, 4.725895e+002
3.699536e+002, 4.711265e+002
3.704357e+002, 4.689915e+002
3.709178e+002, 4.668239e+002
3.713999e+002, 4.649276e+002
3.718820e+002, 4.635009e+002
3.723641e+002, 4.617958e+002
3.728463e+002, 4.597592e+002
3.733284e+002, 4.574966e+002
3.738105e+002, 4.551101e+002
3.742926e+002, 4.524821e+002
3.747747e+002, 4.499676e+002
3.752568e+002, 4.476031e+002
3.757390e+002, 4.453759e+002
3.762211e+002, 4.435426e+002
3.767032e+002, 4.421655e+002
3.771853e+002, 4.410016e+002
3.776674e+002, 4.398161e+002
3.781495e+002, 4.386068e+002
3.786317e+002, 4.373193e+002
3.791138e+002, 4.358696e+002
3.795959e+002, 4.343725e+002
3.800780e+002, 4.331832e+002
3.805601e+002, 4.323342e+002
3.810422e+002, 4.315281e+002
3.815244e+002, 4.305784e+002
3.820065e+002, 4.294995e+002
3.824886e+002, 4.283447e+002
3.829707e+002, 4.270468e+002
3.834528e+002, 4.258759e+002
3.839349e+002, 4.253947e+002
3.844171e+002, 4.254633e+002
3.848992e+002, 4.253134e+002
3.853813e+002, 4.243376e+002
3.858634e+002, 4.229707e+002
3.863455e+002, 4.217967e+002
3.868276e+002, 4.208244e+002
3.873098e+002, 4.203512e+002
3.877919e+002, 4.210178e+002
3.882740e+002, 4.223060e+002
3.887561e+002, 4.232796e+002
3.892382e+002, 4.234117e+002
3.897203e+002, 4.233195e+002
3.902025e+002, 4.235043e+002
3.906846e+002, 4.239079e+002
3.911667e+002, 4.242764e+002
3.916488e+002, 4.244332e+002
3.921309e+002, 4.245053e+002
3.926130e+002, 4.245851e+002
3.930952e+002, 4.246532e+002
3.935773e+002, 4.248154e+002
3.940594e+002, 4.252610e+002
3.945415e+002, 4.258216e+002
3.950236e+002, 4.261835e+002
3.955057e+002, 4.259795e+002
3.959879e+002, 4.258064e+002
3.964700e+002, 4.259204e+002
3.969521e+002, 4.263792e+002
3.974342e+002, 4.268925e+002
3.979163e+002, 4.274219e+002
3.983984e+002, 4.279873e+002
3.988806e+002, 4.286060e+002
3.993627e+002, 4.292173e+002
3.998448e+002, 4.299560e+002
4.003269e+002, 4.308993e+002
4.008090e+002, 4.320150e+002
4.012911e+002, 4.330160e+002
4.017733e+002, 4.337379e+002
4.022554e+002, 4.345450e+002
4.027375e+002, 4.356041e+002
4.032196e+002, 4.368771e+002
4.037017e+002, 4.385796e+002
4.041838e+002, 4.410008e+002
4.046660e+002, 4.436215e+002
4.051481e+002, 4.452602e+002
4.056302e+002, 4.456120e+002
4.061123e+002, 4.461406e+002
4.065944e+002, 4.473582e+002
4.070765e+002, 4.492524e+002
4.075587e+002, 4.514880e+002
4.080408e+002, 4.541798e+002
4.085229e+002, 4.568113e+002
4.090050e+002, 4.586976e+002
4.094871e+002, 4.598922e+002
4.099692e+002, 4.613233e+002
4.104514e+002, 4.632015e+002
4.109335e+002, 4.654252e+002
4.114156e+002, 4.678639e+002
4.118977e+002, 4.704843e+002
4.123798e+002, 4.731829e+002
4.128619e+002, 4.758206e+002
4.133441e+002, 4.784658e+002
4.138262e+002, 4.813315e+002
4.143083e+002, 4.844957e+002
4.147904e+002, 4.876693e+002
4.152725e+002, 4.903840e+002
4.157546e+002, 4.929259e+002
4.162368e+002, 4.959567e+002
4.167189e+002, 5.000959e+002
4.172010e+002, 5.045690e+002
4.176831e+002, 5.089440e+002
4.181652e+002, 5.131606e+002
4.186473e+002, 5.171039e+002
4.191295e+002, 5.201603e+002
4.196116e+002, 5.231538e+002
4.200937e+002, 5.267943e+002
4.205758e+002, 5.317449e+002
4.210579e+002, 5.367032e+002
4.215400e+002, 5.414705e+002
4.220222e+002, 5.459786e+002
4.225043e+002, 5.501959e+002
4.229864e+002, 5.538163e+002
4.234685e+002, 5.573558e+002
4.239506e+002, 5.609959e+002
4.244327e+002, 5.646658e+002
4.249149e+002, 5.686754e+002
4.253970e+002, 5.730729e+002
4.258791e+002, 5.777751e+002
4.263612e+002, 5.827911e+002
4.268433e+002, 5.883839e+002
4.273254e+002, 5.937936e+002
4.278076e+002, 5.987439e+002
4.282897e+002, 6.033810e+002
4.287718e+002, 6.085320e+002
4.292539e+002, 6.143264e+002
4.297360e+002, 6.202112e+002
4.302181e+002, 6.257952e+002
4.307003e+002, 6.310416e+002
4.311824e+002, 6.362783e+002
4.316645e+002, 6.416722e+002
4.321466e+002, 6.467844e+002
4.326287e+002, 6.507130e+002
4.331108e+002, 6.534178e+002
4.335930e+002, 6.557176e+002
4.340751e+002, 6.584677e+002
4.345572e+002, 6.609918e+002
4.350393e+002, 6.609938e+002
4.355214e+002, 6.584779e+002
4.360035e+002, 6.541187e+002
4.364857e+002, 6.481522e+002
4.369678e+002, 6.408500e+002
4.374499e+002, 6.326913e+002
4.379320e+002, 6.237295e+002
4.384141e+002, 6.140555e+002
4.388962e+002, 6.030453e+002
4.393784e+002, 5.912686e+002
4.398605e+002, 5.804069e+002
4.403426e+002, 5.716699e+002
4.408247e+002, 5.640460e+002
4.413068e+002, 5.565573e+002
4.417889e+002, 5.491596e+002
4.422711e+002, 5.422722e+002
4.427532e+002, 5.359109e+002
4.432353e+002, 5.302601e+002
4.437174e+002, 5.255115e+002
4.441995e+002, 5.221689e+002
4.446816e+002, 5.192605e+002
4.451638e+002, 5.165599e+002
4.456459e+002, 5.140809e+002
4.461280e+002, 5.117814e+002
4.466101e+002, 5.098639e+002
4.470922e+002, 5.079568e+002
4.475743e+002, 5.058421e+002
4.480565e+002, 5.033075e+002
4.485386e+002, 5.011541e+002
4.490207e+002, 4.995993e+002
4.495028e+002, 4.983025e+002
4.499849e+002, 4.968939e+002
4.504670e+002, 4.954458e+002
4.509492e+002, 4.936855e+002
4.514313e+002, 4.914479e+002
4.519134e+002, 4.888310e+002
4.523955e+002, 4.866483e+002
4.528776e+002, 4.850766e+002
4.533597e+002, 4.834936e+002
4.538419e+002, 4.814101e+002
4.543240e+002, 4.788599e+002
4.548061e+002, 4.764335e+002
4.552882e+002, 4.742282e+002
4.557703e+002, 4.720886e+002
4.562524e+002, 4.697442e+002
4.567346e+002, 4.672201e+002
4.572167e+002, 4.649189e+002
4.576988e+002, 4.630237e+002
4.581809e+002, 4.614044e+002
4.586630e+002, 4.598720e+002
4.591451e+002, 4.584248e+002
4.596273e+002, 4.568805e+002
4.601094e+002, 4.548410e+002
4.605915e+002, 4.527272e+002
4.610736e+002, 4.511412e+002
4.615557e+002, 4.503853e+002
4.620378e+002, 4.497639e+002
4.625200e+002, 4.487539e+002
4.630021e+002, 4.475587e+002
4.634842e+002, 4.465928e+002
4.639663e+002, 4.465150e+002
4.644484e+002, 4.462760e+002
4.649305e+002, 4.450674e+002
4.654127e+002, 4.427623e+002
4.658948e+002, 4.413186e+002
4.663769e+002, 4.420577e+002
4.668590e+002, 4.432639e+002
4.673411e+002, 4.436960e+002
4.678232e+002, 4.424281e+002
4.683054e+002, 4.415062e+002
4.687875e+002, 4.409697e+002
4.692696e+002, 4.408251e+002
4.697517e+002, 4.411783e+002
4.702338e+002, 4.423737e+002
4.707159e+002, 4.434054e+002
4.711981e+002, 4.438082e+002
4.716802e+002, 4.435404e+002
4.721623e+002, 4.437984e+002
4.726444e+002, 4.447631e+002
4.731265e+002, 4.457482e+002
4.736086e+002, 4.458216e+002
4.740908e+002, 4.450067e+002
4.745729e+002, 4.449239e+002
4.750550e+002, 4.460998e+002
4.755371e+002, 4.477738e+002
4.760192e+002, 4.483825e+002
4.765013e+002, 4.480607e+002
4.769835e+002, 4.478706e+002
4.774656e+002, 4.485551e+002
4.779477e+002, 4.496889e+002
4.784298e+002, 4.505891e+002
4.789119e+002, 4.512198e+002
4.793940e+002, 4.517899e+002
4.798762e+002, 4.525041e+002
4.803583e+002, 4.532445e+002
4.808404e+002, 4.538545e+002
4.813225e+002, 4.542406e+002
4.818046e+002, 4.545714e+002
4.822867e+002, 4.543396e+002
4.827689e+002, 4.540831e+002
4.832510e+002, 4.551799e+002
4.837331e+002, 4.603171e+002
4.842152e+002, 4.650158e+002
4.846973e+002, 4.670848e+002
4.851794e+002, 4.658881e+002
4.856616e+002, 4.647205e+002
4.861437e+002, 4.635220e+002
4.866258e+002, 4.626703e+002
4.871079e+002, 4.624966e+002
4.875900e+002, 4.635106e+002
4.880721e+002, 4.642789e+002
4.885543e+002, 4.645181e+002
4.890364e+002, 4.644684e+002
4.895185e+002, 4.648283e+002
4.900006e+002, 4.656440e+002
4.904827e+002, 4.666776e+002
4.909648e+002, 4.677481e+002
4.914470e+002, 4.688755e+002
4.919291e+002, 4.706832e+002
4.924112e+002, 4.733168e+002
4.928933e+002, 4.758820e+002
4.933754e+002, 4.774889e+002
4.938575e+002, 4.782558e+002
4.943397e+002, 4.785209e+002
4.948218e+002, 4.780907e+002
4.953039e+002, 4.777150e+002
4.957860e+002, 4.784149e+002
4.962681e+002, 4.800494e+002
4.967502e+002, 4.821183e+002
4.972324e+002, 4.848488e+002
4.977145e+002, 4.876030e+002
4.981966e+002, 4.896644e+002
4.986787e+002, 4.910096e+002
4.991608e+002, 4.924124e+002
4.996429e+002, 4.942746e+002
5.001251e+002, 4.963823e+002
5.006072e+002, 4.986345e+002
5.010893e+002, 5.016237e+002
5.015714e+002, 5.038398e+002
5.020535e+002, 5.044514e+002
5.025356e+002, 5.040837e+002
5.030178e+002, 5.041752e+002
5.034999e+002, 5.049091e+002
5.039820e+002, 5.060612e+002
5.044641e+002, 5.077757e+002
5.049462e+002, 5.101044e+002
5.054283e+002, 5.117901e+002
5.059105e+002, 5.125906e+002
5.063926e+002, 5.131242e+002
5.068747e+002, 5.138694e+002
5.073568e+002, 5.148799e+002
5.078389e+002, 5.157269e+002
5.083210e+002, 5.162869e+002
5.088032e+002, 5.167941e+002
5.092853e+002, 5.176971e+002
5.097674e+002, 5.189706e+002
5.102495e+002, 5.202529e+002
5.107316e+002, 5.215798e+002
5.112137e+002, 5.227360e+002
5.116959e+002, 5.231719e+002
5.121780e+002, 5.229159e+002
5.126601e+002, 5.224667e+002
5.131422e+002, 5.220940e+002
5.136243e+002, 5.217746e+002
5.141064e+002, 5.214964e+002
5.145886e+002, 5.212780e+002
5.150707e+002, 5.210324e+002
5.155528e+002, 5.205284e+002
5.160349e+002, 5.200183e+002
5.165170e+002, 5.198561e+002
5.169991e+002, 5.208882e+002
5.174813e+002, 5.215599e+002
5.179634e+002, 5.210780e+002
5.184455e+002, 5.196172e+002
5.189276e+002, 5.186227e+002
5.194097e+002, 5.186931e+002
5.198918e+002, 5.189021e+002
5.203740e+002, 5.189407e+002
5.208561e+002, 5.188858e+002
5.213382e+002, 5.183650e+002
5.218203e+002, 5.171800e+002
5.223024e+002, 5.157393e+002
5.227845e+002, 5.145134e+002
5.232667e+002, 5.135493e+002
5.237488e+002, 5.124596e+002
5.242309e+002, 5.111038e+002
5.247130e+002, 5.096416e+002
5.251951e+002, 5.084734e+002
5.256772e+002, 5.075918e+002
5.261594e+002, 5.068195e+002
5.266415e+002, 5.062554e+002
5.271236e+002, 5.056876e+002
5.276057e+002, 5.045197e+002
5.280878e+002, 5.027370e+002
5.285699e+002, 5.009621e+002
5.290521e+002, 4.997826e+002
5.295342e+002, 4.989243e+002
5.300163e+002, 4.980202e+002
5.304984e+002, 4.969204e+002
5.309805e+002, 4.958816e+002
5.314626e+002, 4.950972e+002
5.319448e+002, 4.944760e+002
5.324269e+002, 4.938431e+002
5.329090e+002, 4.930267e+002
5.333911e+002, 4.922910e+002
5.338732e+002, 4.917140e+002
5.343553e+002, 4.913022e+002
5.348375e+002, 4.909799e+002
5.353196e+002, 4.910953e+002
5.358017e+002, 4.909349e+002
5.362838e+002, 4.900235e+002
5.367659e+002, 4.879371e+002
5.372480e+002, 4.862452e+002
5.377302e+002, 4.850342e+002
5.382123e+002, 4.841117e+002
5.386944e+002, 4.833232e+002
5.391765e+002, 4.826906e+002
5.396586e+002, 4.818138e+002
5.401407e+002, 4.805990e+002
5.406229e+002, 4.790858e+002
5.411050e+002, 4.772395e+002
5.415871e+002, 4.751154e+002
5.420692e+002, 4.732084e+002
5.425513e+002, 4.719086e+002
5.430334e+002, 4.709842e+002
5.435156e+002, 4.701909e+002
5.439977e+002, 4.695286e+002
5.444798e+002, 4.686767e+002
5.449619e+002, 4.671864e+002
5.454440e+002, 4.654873e+002
5.459261e+002, 4.640499e+002
5.464083e+002, 4.631133e+002
5.468904e+002, 4.622745e+002
5.473725e+002, 4.613512e+002
5.478546e+002, 4.604308e+002
5.483367e+002, 4.596885e+002
5.488188e+002, 4.594316e+002
5.493010e+002, 4.590367e+002
5.497831e+002, 4.582929e+002
5.502652e+002, 4.572034e+002
5.507473e+002, 4.562347e+002
5.512294e+002, 4.554199e+002
5.517115e+002, 4.546694e+002
5.521937e+002, 4.539557e+002
5.526758e+002, 4.533016e+002
5.531579e+002, 4.524714e+002
5.536400e+002, 4.513793e+002
5.541221e+002, 4.503503e+002
5.546042e+002, 4.499383e+002
5.550864e+002, 4.500429e+002
5.555685e+002, 4.500163e+002
5.560506e+002, 4.496394e+002
5.565327e+002, 4.490685e+002
5.570148e+002, 4.483672e+002
5.574969e+002, 4.476147e+002
5.579791e+002, 4.471202e+002
5.584612e+002, 4.473913e+002
5.589433e+002, 4.477602e+002
5.594254e+002, 4.476947e+002
5.599075e+002, 4.471529e+002
5.603896e+002, 4.463824e+002
5.608718e+002, 4.450886e+002
5.613539e+002, 4.438550e+002
5.618360e+002, 4.431447e+002
5.623181e+002, 4.436603e+002
5.628002e+002, 4.437346e+002
5.632823e+002, 4.429610e+002
5.637645e+002, 4.418537e+002
5.642466e+002, 4.411813e+002
5.647287e+002, 4.410324e+002
5.652108e+002, 4.411770e+002
5.656929e+002, 4.417000e+002
5.661750e+002, 4.424619e+002
5.666572e+002, 4.427838e+002
5.671393e+002, 4.426028e+002
5.676214e+002, 4.424031e+002
5.681035e+002, 4.425107e+002
5.685856e+002, 4.428345e+002
5.690677e+002, 4.430554e+002
5.695499e+002, 4.431570e+002
5.700320e+002, 4.431445e+002
5.705141e+002, 4.429430e+002
5.709962e+002, 4.426451e+002
5.714783e+002, 4.424048e+002
5.719604e+002, 4.422689e+002
5.724426e+002, 4.421729e+002
5.729247e+002, 4.420907e+002
5.734068e+002, 4.420194e+002
5.738889e+002, 4.419511e+002
5.743710e+002, 4.419275e+002
5.748531e+002, 4.418734e+002
5.753353e+002, 4.417075e+002
5.758174e+002, 4.414532e+002
5.762995e+002, 4.413925e+002
5.767816e+002, 4.417374e+002
5.772637e+002, 4.420355e+002
5.777458e+002, 4.420196e+002
5.782280e+002, 4.415550e+002
5.787101e+002, 4.415203e+002
5.791922e+002, 4.419948e+002
5.796743e+002, 4.427227e+002
5.801564e+002, 4.436138e+002
5.806385e+002, 4.446313e+002
5.811207e+002, 4.450345e+002
5.816028e+002, 4.444715e+002
5.820849e+002, 4.437346e+002
5.825670e+002, 4.442468e+002
5.830491e+002, 4.456341e+002
5.835313e+002, 4.467137e+002
5.840134e+002, 4.463564e+002
5.844955e+002, 4.458370e+002
5.849776e+002, 4.464412e+002
5.854597e+002, 4.480014e+002
5.859418e+002, 4.495386e+002
5.864240e+002, 4.508214e+002
5.869061e+002, 4.517613e+002
5.873882e+002, 4.521898e+002
5.878703e+002, 4.518463e+002
5.883524e+002, 4.519308e+002
5.888345e+002, 4.529682e+002
5.893167e+002, 4.542365e+002
5.897988e+002, 4.551353e+002
5.902809e+002, 4.552974e+002
5.907630e+002, 4.559798e+002
5.912451e+002, 4.574633e+002
5.917272e+002, 4.593226e+002
5.922094e+002, 4.607368e+002
5.926915e+002, 4.616677e+002
5.931736e+002, 4.625784e+002
5.936557e+002, 4.635417e+002
5.941378e+002, 4.646432e+002
5.946199e+002, 4.663031e+002
5.951021e+002, 4.684179e+002
5.955842e+002, 4.702495e+002
5.960663e+002, 4.712283e+002
5.965484e+002, 4.717011e+002
5.970305e+002, 4.719252e+002
5.975126e+002, 4.719046e+002
5.979948e+002, 4.721669e+002
5.984769e+002, 4.732973e+002
5.989590e+002, 4.746727e+002
5.994411e+002, 4.757708e+002
5.999232e+002, 4.764122e+002
6.004053e+002, 4.769100e+002
6.008875e+002, 4.772245e+002
6.013696e+002, 4.774471e+002
6.018517e+002, 4.777017e+002
6.023338e+002, 4.780214e+002
6.028159e+002, 4.783144e+002
6.032980e+002, 4.785898e+002
6.037802e+002, 4.788203e+002
6.042623e+002, 4.789808e+002
6.047444e+002, 4.791016e+002
6.052265e+002, 4.788697e+002
6.057086e+002, 4.778042e+002
6.061907e+002, 4.762462e+002
6.066729e+002, 4.753985e+002
6.071550e+002, 4.752501e+002
6.076371e+002, 4.754048e+002
6.081192e+002, 4.758818e+002
6.086013e+002, 4.763349e+002
6.090834e+002, 4.761706e+002
6.095656e+002, 4.750946e+002
6.100477e+002, 4.742542e+002
6.105298e+002, 4.744563e+002
6.110119e+002, 4.751675e+002
6.114940e+002, 4.757935e+002
6.119761e+002, 4.758976e+002
6.124583e+002, 4.762852e+002
6.129404e+002, 4.773951e+002
6.134225e+002, 4.788359e+002
6.139046e+002, 4.796991e+002
6.143867e+002, 4.795801e+002
6.148688e+002, 4.797303e+002
6.153510e+002, 4.806185e+002
6.158331e+002, 4.820904e+002
6.163152e+002, 4.831965e+002
6.167973e+002, 4.839044e+002
6.172794e+002, 4.844526e+002
6.177615e+002, 4.850923e+002
6.182437e+002, 4.856644e+002
6.187258e+002, 4.857155e+002
6.192079e+002, 4.852040e+002
6.196900e+002, 4.844054e+002
6.201721e+002, 4.833725e+002
6.206542e+002, 4.822549e+002
6.211364e+002, 4.812755e+002
6.216185e+002, 4.805862e+002
6.221006e+002, 4.797855e+002
6.225827e+002, 4.786736e+002
6.230648e+002, 4.773559e+002
6.235469e+002, 4.759780e+002
6.240291e+002, 4.742074e+002
6.245112e+002, 4.728557e+002
6.249933e+002, 4.722703e+002
6.254754e+002, 4.721832e+002
6.259575e+002, 4.716498e+002
6.264396e+002, 4.705263e+002
6.269218e+002, 4.693936e+002
6.274039e+002, 4.684389e+002
6.278860e+002, 4.676604e+002
6.283681e+002, 4.670040e+002
6.288502e+002, 4.664625e+002
6.293323e+002, 4.661872e+002
6.298145e+002, 4.662830e+002
6.302966e+002, 4.667221e+002
6.307787e+002, 4.676271e+002
6.312608e+002, 4.690578e+002
6.317429e+002, 4.702333e+002
6.322250e+002, 4.703003e+002
6.327072e+002, 4.699196e+002
6.331893e+002, 4.698051e+002
6.336714e+002, 4.702162e+002
6.341535e+002, 4.707500e+002
6.346356e+002, 4.714793e+002
6.351177e+002, 4.722134e+002
6.355999e+002, 4.726770e+002
6.360820e+002, 4.729449e+002
6.365641e+002, 4.727747e+002
6.370462e+002, 4.718362e+002
6.375283e+002, 4.705129e+002
6.380104e+002, 4.702816e+002
6.384926e+002, 4.713672e+002
6.389747e+002, 4.721053e+002
6.394568e+002, 4.714991e+002
6.399389e+002, 4.700201e+002
6.404210e+002, 4.693239e+002
6.409031e+002, 4.693690e+002
6.413853e+002, 4.694666e+002
6.418674e+002, 4.690092e+002
6.423495e+002, 4.683777e+002
6.428316e+002, 4.680681e+002
6.433137e+002, 4.681617e+002
6.437958e+002, 4.682564e+002
6.442780e+002, 4.680047e+002
6.447601e+002, 4.677383e+002
6.452422e+002, 4.677694e+002
6.457243e+002, 4.686488e+002
6.462064e+002, 4.690045e+002
6.466885e+002, 4.681413e+002
6.471707e+002, 4.670979e+002
6.476528e+002, 4.674228e+002
6.481349e+002, 4.696955e+002
6.486170e+002, 4.714576e+002
6.490991e+002, 4.722496e+002
6.495812e+002, 4.722960e+002
6.500634e+002, 4.719136e+002
6.505455e+002, 4.711493e+002
6.510276e+002, 4.707269e+002
6.515097e+002, 4.711161e+002
6.519918e+002, 4.719664e+002
6.524739e+002, 4.728300e+002
6.529561e+002, 4.736854e+002
6.534382e+002, 4.744768e+002
6.539203e+002, 4.754737e+002
6.544024e+002, 4.761516e+002
6.548845e+002, 4.759761e+002
6.553666e+002, 4.748073e+002
6.558488e+002, 4.738926e+002
6.563309e+002, 4.735752e+002
6.568130e+002, 4.735571e+002
6.572951e+002, 4.736845e+002
6.577772e+002, 4.740699e+002
6.582593e+002, 4.743025e+002
6.587415e+002, 4.743680e+002
6.592236e+002, 4.743064e+002
6.597057e+002, 4.742043e+002
6.601878e+002, 4.740587e+002
6.606699e+002, 4.736229e+002
6.611520e+002, 4.728166e+002
6.616342e+002, 4.718141e+002
6.621163e+002, 4.707287e+002
6.625984e+002, 4.696400e+002
6.630805e+002, 4.687622e+002
6.635626e+002, 4.682850e+002
6.640447e+002, 4.679375e+002
6.645269e+002, 4.677807e+002
6.650090e+002, 4.676269e+002
6.654911e+002, 4.669276e+002
6.659732e+002, 4.646425e+002
6.664553e+002, 4.626447e+002
6.669374e+002, 4.618467e+002
6.674196e+002, 4.621441e+002
6.679017e+002, 4.619543e+002
6.683838e+002, 4.609178e+002
6.688659e+002, 4.600848e+002
6.693480e+002, 4.601610e+002
6.698301e+002, 4.611290e+002
6.703123e+002, 4.613888e+002
6.707944e+002, 4.608722e+002
6.712765e+002, 4.601708e+002
6.717586e+002, 4.593828e+002
6.722407e+002, 4.588544e+002
6.727228e+002, 4.597878e+002
6.732050e+002, 4.626661e+002
6.736871e+002, 4.648979e+002
6.741692e+002, 4.637429e+002
6.746513e+002, 4.611940e+002
6.751334e+002, 4.596029e+002
6.756155e+002, 4.601954e+002
6.760977e+002, 4.607921e+002
6.765798e+002, 4.608777e+002
6.770619e+002, 4.606899e+002
6.775440e+002, 4.605879e+002
6.780261e+002, 4.606685e+002
6.785082e+002, 4.606416e+002
6.789904e+002, 4.604506e+002
6.794725e+002, 4.601394e+002
6.799546e+002, 4.596521e+002
6.804367e+002, 4.589944e+002
6.809188e+002, 4.588737e+002
6.814009e+002, 4.602334e+002
6.818831e+002, 4.619048e+002
6.823652e+002, 4.610218e+002
6.828473e+002, 4.581698e+002
6.833294e+002, 4.562903e+002
6.838115e+002, 4.580561e+002
6.842936e+002, 4.606934e+002
6.847758e+002, 4.622651e+002
6.852579e+002, 4.626284e+002
6.857400e+002, 4.628065e+002
6.862221e+002, 4.626678e+002
6.867042e+002, 4.627401e+002
6.871863e+002, 4.634370e+002
6.876685e+002, 4.651034e+002
6.881506e+002, 4.657912e+002
6.886327e+002, 4.652397e+002
6.891148e+002, 4.642501e+002
6.895969e+002, 4.634625e+002
6.900790e+002, 4.628600e+002
6.905612e+002, 4.622989e+002
6.910433e+002, 4.617126e+002
6.915254e+002, 4.613941e+002
6.920075e+002, 4.619721e+002
6.924896e+002, 4.630101e+002
6.929717e+002, 4.636797e+002
6.934539e+002, 4.635934e+002
6.939360e+002, 4.634048e+002
6.944181e+002, 4.635697e+002
6.949002e+002, 4.638557e+002
6.953823e+002, 4.639020e+002
6.958644e+002, 4.633594e+002
6.963466e+002, 4.629142e+002
6.968287e+002, 4.626138e+002
6.973108e+002, 4.625002e+002
6.977929e+002, 4.627421e+002
6.982750e+002, 4.634693e+002
6.987571e+002, 4.641224e+002
6.992393e+002, 4.645497e+002
6.997214e+002, 4.647736e+002
7.002035e+002, 4.648138e+002
7.006856e+002, 4.646826e+002
7.011677e+002, 4.644722e+002
7.016498e+002, 4.640783e+002
7.021320e+002, 4.637253e+002
7.026141e+002, 4.637594e+002
7.030962e+002, 4.641310e+002
7.035783e+002, 4.643908e+002
7.040604e+002, 4.639847e+002
7.045425e+002, 4.636728e+002
7.050247e+002, 4.640119e+002
7.055068e+002, 4.652357e+002
7.059889e+002, 4.659307e+002
7.064710e+002, 4.658344e+002
7.069531e+002, 4.655273e+002
7.074352e+002, 4.652964e+002
7.079174e+002, 4.651157e+002
7.083995e+002, 4.653226e+002
7.088816e+002, 4.659438e+002
7.093637e+002, 4.668672e+002
7.098458e+002, 4.686219e+002
7.103279e+002, 4.705428e+002
7.108101e+002, 4.706706e+002
7.112922e+002, 4.682485e+002
7.117743e+002, 4.658842e+002
7.122564e+002, 4.659391e+002
7.127385e+002, 4.670291e+002
7.132206e+002, 4.674805e+002
7.137028e+002, 4.660524e+002
7.141849e+002, 4.650758e+002
7.146670e+002, 4.652718e+002
7.151491e+002, 4.660431e+002
7.156312e+002, 4.666513e+002
7.161133e+002, 4.671199e+002
7.165955e+002, 4.672874e+002
7.170776e+002, 4.669681e+002
7.175597e+002, 4.665092e+002
7.180418e+002, 4.667257e+002
7.185239e+002, 4.675562e+002
7.190060e+002, 4.684528e+002
7.194882e+002, 4.694369e+002
7.199703e+002, 4.701058e+002
7.204524e+002, 4.695626e+002
7.209345e+002, 4.682379e+002
7.214166e+002, 4.674022e+002
7.218987e+002, 4.679799e+002
7.223809e+002, 4.688707e+002
7.228630e+002, 4.697704e+002
7.233451e+002, 4.706024e+002
7.238272e+002, 4.708780e+002
7.243093e+002, 4.701696e+002
7.247914e+002, 4.695399e+002
7.252736e+002, 4.694289e+002
7.257557e+002, 4.697884e+002
7.262378e+002, 4.698974e+002
7.267199e+002, 4.697188e+002
7.272020e+002, 4.696812e+002
7.276841e+002, 4.702797e+002
7.281663e+002, 4.711840e+002
7.286484e+002, 4.715807e+002
7.291305e+002, 4.714633e+002
7.296126e+002, 4.713275e+002
7.300947e+002, 4.717733e+002
7.305768e+002, 4.721592e+002
7.310590e+002, 4.717948e+002
7.315411e+002, 4.703507e+002
7.320232e+002, 4.694415e+002
7.325053e+002, 4.694410e+002
7.329874e+002, 4.699888e+002
7.334695e+002, 4.710815e+002
7.339517e+002, 4.732012e+002
7.344338e+002, 4.739214e+002
7.349159e+002, 4.728803e+002
7.353980e+002, 4.714695e+002
7.358801e+002, 4.713023e+002
7.363622e+002, 4.720773e+002
7.368444e+002, 4.725215e+002
7.373265e+002, 4.724079e+002
7.378086e+002, 4.721229e+002
7.382907e+002, 4.718352e+002
7.387728e+002, 4.716798e+002
7.392549e+002, 4.718901e+002
7.397371e+002, 4.730169e+002
7.402192e+002, 4.736841e+002
7.407013e+002, 4.729160e+002
7.411834e+002, 4.717317e+002
7.416655e+002, 4.715479e+002
7.421476e+002, 4.730020e+002
7.426298e+002, 4.738940e+002
7.431119e+002, 4.738115e+002
7.435940e+002, 4.732384e+002
7.440761e+002, 4.729380e+002
7.445582e+002, 4.729091e+002
7.450403e+002, 4.732524e+002
7.455225e+002, 4.742287e+002
7.460046e+002, 4.751713e+002
7.464867e+002, 4.750490e+002
7.469688e+002, 4.742777e+002
7.474509e+002, 4.737583e+002
7.479330e+002, 4.741292e+002
7.484152e+002, 4.745413e+002
7.488973e+002, 4.746384e+002
7.493794e+002, 4.745196e+002
7.498615e+002, 4.745401e+002
7.503436e+002, 4.749387e+002
7.508257e+002, 4.750634e+002
7.513079e+002, 4.746312e+002
7.517900e+002, 4.738683e+002
7.522721e+002, 4.736841e+002
7.527542e+002, 4.740820e+002
7.532363e+002, 4.743430e+002
7.537184e+002, 4.738344e+002
7.542006e+002, 4.731681e+002
7.546827e+002, 4.735096e+002
7.551648e+002, 4.746207e+002
7.556469e+002, 4.754884e+002
7.561290e+002, 4.753545e+002
7.566111e+002, 4.750604e+002
7.570933e+002, 4.751884e+002
7.575754e+002, 4.757027e+002
7.580575e+002, 4.756082e+002
7.585396e+002, 4.740931e+002
7.590217e+002, 4.731280e+002
7.595038e+002, 4.737681e+002
7.599860e+002, 4.757885e+002
7.604681e+002, 4.764831e+002
7.609502e+002, 4.757372e+002
7.614323e+002, 4.749425e+002
7.619144e+002, 4.750731e+002
7.623965e+002, 4.757599e+002
7.628787e+002, 4.765057e+002
7.633608e+002, 4.772508e+002
7.638429e+002, 4.776151e+002
7.643250e+002, 4.768584e+002
7.648071e+002, 4.760272e+002
7.652892e+002, 4.759440e+002
7.657714e+002, 4.768043e+002
7.662535e+002, 4.773373e+002
7.667356e+002, 4.773173e+002
7.672177e+002, 4.771670e+002
7.676998e+002, 4.770899e+002
7.681819e+002, 4.770863e+002
7.686641e+002, 4.772395e+002
7.691462e+002, 4.775816e+002
7.696283e+002, 4.778434e+002
7.701104e+002, 4.776408e+002
7.705925e+002, 4.772410e+002
7.710746e+002, 4.772313e+002
7.715568e+002, 4.776815e+002
7.720389e+002, 4.780533e+002
7.725210e+002, 4.779581e+002
7.730031e+002, 4.776781e+002
7.734852e+002, 4.773211e+002
7.739673e+002, 4.766364e+002
7.744495e+002, 4.767778e+002
7.749316e+002, 4.780690e+002
7.754137e+002, 4.798108e+002
7.758958e+002, 4.816473e+002
7.763779e+002, 4.836366e+002
7.768600e+002, 4.848805e+002
7.773422e+002, 4.852601e+002
7.778243e+002, 4.855071e+002
7.783064e+002, 4.871315e+002
7.787885e+002, 4.889606e+002
7.792706e+002, 4.883055e+002
7.797527e+002, 4.843141e+002
7.802349e+002, 4.806603e+002
7.807170e+002, 4.800074e+002
7.811991e+002, 4.804287e+002
7.816812e+002, 4.802010e+002
7.821633e+002, 4.783955e+002
7.826454e+002, 4.773117e+002
7.831276e+002, 4.771501e+002
7.836097e+002, 4.774764e+002
7.840918e+002, 4.778990e+002
7.845739e+002, 4.784140e+002
7.850560e+002, 4.791574e+002
7.855381e+002, 4.802055e+002
7.860203e+002, 4.810972e+002
7.865024e+002, 4.812100e+002
7.869845e+002, 4.808361e+002
7.874666e+002, 4.804434e+002
7.879487e+002, 4.800760e+002
7.884308e+002, 4.798779e+002
7.889130e+002, 4.799101e+002
7.893951e+002, 4.801390e+002
7.898772e+002, 4.805548e+002
7.903593e+002, 4.814512e+002
7.908414e+002, 4.819187e+002
7.913235e+002, 4.816923e+002
7.918057e+002, 4.813792e+002
7.922878e+002, 4.818112e+002
7.927699e+002, 4.829313e+002
7.932520e+002, 4.838334e+002
7.937341e+002, 4.844055e+002
7.942162e+002, 4.846676e+002
7.946984e+002, 4.843047e+002
7.951805e+002, 4.837557e+002
7.956626e+002, 4.838586e+002
7.961447e+002, 4.854560e+002
7.966268e+002, 4.862357e+002
7.971089e+002, 4.841523e+002
7.975911e+002, 4.814778e+002
7.980732e+002, 4.808516e+002
7.985553e+002, 4.836223e+002
7.990374e+002, 4.852550e+002
7.995195e+002, 4.852448e+002
8.000016e+002, 4.845781e+002
8.004838e+002, 4.845819e+002
8.009659e+002, 4.851048e+002
8.014480e+002, 4.851959e+002
8.019301e+002, 4.845998e+002
8.024122e+002, 4.839026e+002
8.028943e+002, 4.835670e+002
8.033765e+002, 4.835236e+002
8.038586e+002, 4.836748e+002
8.043407e+002, 4.839946e+002
8.048228e+002, 4.845043e+002
8.053049e+002, 4.856527e+002
8.057870e+002, 4.867215e+002
8.062692e+002, 4.868317e+002
8.067513e+002, 4.855321e+002
8.072334e+002, 4.851592e+002
8.077155e+002, 4.861313e+002
8.081976e+002, 4.874391e+002
8.086797e+002, 4.877329e+002
8.091619e+002, 4.872906e+002
8.096440e+002, 4.869014e+002
8.101261e+002, 4.867126e+002
8.106082e+002, 4.866695e+002
8.110903e+002, 4.868113e+002
8.115724e+002, 4.870437e+002
8.120546e+002, 4.872631e+002
8.125367e+002, 4.873922e+002
8.130188e+002, 4.876356e+002
8.135009e+002, 4.881346e+002
8.139830e+002, 4.886358e+002
8.144651e+002, 4.888319e+002
8.149473e+002, 4.887098e+002
8.154294e+002, 4.886298e+002
8.159115e+002, 4.886362e+002
8.163936e+002, 4.886779e+002
8.168757e+002, 4.885685e+002
8.173578e+002, 4.884882e+002
8.178400e+002, 4.887545e+002
8.183221e+002, 4.894651e+002
8.188042e+002, 4.904159e+002
8.192863e+002, 4.920074e+002
8.197684e+002, 4.934924e+002
8.202505e+002, 4.940911e+002
8.207327e+002, 4.933583e+002
8.212148e+002, 4.926117e+002
8.216969e+002, 4.916629e+002
8.221790e+002, 4.910166e+002
8.226611e+002, 4.915008e+002
8.231432e+002, 4.928835e+002
8.236254e+002, 4.936281e+002
8.241075e+002, 4.935255e+002
8.245896e+002, 4.931882e+002
8.250717e+002, 4.929557e+002
8.255538e+002, 4.929162e+002
8.260359e+002, 4.933168e+002
8.265181e+002, 4.945013e+002
8.270002e+002, 4.950704e+002
8.274823e+002, 4.940168e+002
8.279644e+002, 4.928192e+002
8.284465e+002, 4.924993e+002
8.289286e+002, 4.933241e+002
8.294108e+002, 4.937856e+002
8.298929e+002, 4.938441e+002
8.303750e+002, 4.937439e+002
8.308571e+002, 4.938108e+002
8.313392e+002, 4.938717e+002
8.318214e+002, 4.933997e+002
8.323035e+002, 4.923234e+002
8.327856e+002, 4.914407e+002
8.332677e+002, 4.911949e+002
8.337498e+002, 4.913777e+002
8.342319e+002, 4.919349e+002
8.347141e+002, 4.930233e+002
8.351962e+002, 4.936880e+002
8.356783e+002, 4.936434e+002
8.361604e+002, 4.936288e+002
8.366425e+002, 4.943035e+002
8.371246e+002, 4.955782e+002
8.376068e+002, 4.959311e+002
8.380889e+002, 4.953460e+002
8.385710e+002, 4.949563e+002
8.390531e+002, 4.960965e+002
8.395352e+002, 4.976088e+002
8.400173e+002, 4.981631e+002
8.404995e+002, 4.976884e+002
8.409816e+002, 4.971960e+002
8.414637e+002, 4.967144e+002
8.419458e+002, 4.966194e+002
8.424279e+002, 4.972616e+002
8.429100e+002, 4.986136e+002
8.433922e+002, 4.990741e+002
8.438743e+002, 4.984804e+002
8.443564e+002, 4.978617e+002
8.448385e+002, 4.978133e+002
8.453206e+002, 4.981809e+002
8.458027e+002, 4.987825e+002
8.462849e+002, 4.995399e+002
8.467670e+002, 5.000068e+002
8.472491e+002, 4.996860e+002
8.477312e+002, 4.992359e+002
8.482133e+002, 4.989962e+002
8.486954e+002, 4.989793e+002
8.491776e+002, 4.990697e+002
8.496597e+002, 4.993937e+002
8.501418e+002, 4.995785e+002
8.506239e+002, 4.994296e+002
8.511060e+002, 4.990999e+002
8.515881e+002, 4.992240e+002
8.520703e+002, 4.997268e+002
8.525524e+002, 4.999398e+002
8.530345e+002, 4.989984e+002
8.535166e+002, 4.981104e+002
8.539987e+002, 4.986649e+002
8.544808e+002, 5.001384e+002
8.549630e+002, 5.012115e+002
8.554451e+002, 5.011609e+002
8.559272e+002, 5.010195e+002
8.564093e+002, 5.008249e+002
8.568914e+002, 5.007388e+002
8.573735e+002, 5.013232e+002
8.578557e+002, 5.026745e+002
8.583378e+002, 5.034450e+002
8.588199e+002, 5.031460e+002
8.593020e+002, 5.023908e+002
8.597841e+002, 5.018857e+002
8.602662e+002, 5.016443e+002
8.607484e+002, 5.017446e+002
8.612305e+002, 5.027635e+002
8.617126e+002, 5.033114e+002
8.621947e+002, 5.021536e+002
8.626768e+002, 5.005388e+002
8.631589e+002, 5.003135e+002
8.636411e+002, 5.022007e+002
8.641232e+002, 5.033712e+002
8.646053e+002, 5.034270e+002
8.650874e+002, 5.030538e+002
8.655695e+002, 5.031073e+002
8.660516e+002, 5.034775e+002
8.665338e+002, 5.038659e+002
8.670159e+002, 5.042580e+002
8.674980e+002, 5.044581e+002
8.679801e+002, 5.041537e+002
8.684622e+002, 5.036917e+002
8.689443e+002, 5.034084e+002
8.694265e+002, 5.034157e+002
8.699086e+002, 5.034747e+002
8.703907e+002, 5.036349e+002
8.708728e+002, 5.037719e+002
8.713549e+002, 5.037231e+002
8.718370e+002, 5.035203e+002
8.723192e+002, 5.035609e+002
8.728013e+002, 5.038634e+002
8.732834e+002, 5.041968e+002
8.737655e+002, 5.044686e+002
8.742476e+002, 5.046077e+002
8.747297e+002, 5.044377e+002
8.752119e+002, 5.039289e+002
8.756940e+002, 5.036512e+002
8.761761e+002, 5.038073e+002
8.766582e+002, 5.041688e+002
8.771403e+002, 5.047505e+002
8.776224e+002, 5.055122e+002
8.781046e+002, 5.058436e+002
8.785867e+002, 5.057256e+002
8.790688e+002, 5.056155e+002
8.795509e+002, 5.059180e+002
8.800330e+002, 5.063232e+002
8.805151e+002, 5.063311e+002
8.809973e+002, 5.060419e+002
8.814794e+002, 5.058285e+002
8.819615e+002, 5.060876e+002
8.824436e+002, 5.061993e+002
8.829257e+002, 5.057622e+002
8.834078e+002, 5.050287e+002
8.838900e+002, 5.045874e+002
8.843721e+002, 5.043559e+002
8.848542e+002, 5.049433e+002
8.853363e+002, 5.068082e+002
8.858184e+002, 5.091086e+002
8.863005e+002, 5.104821e+002
8.867827e+002, 5.110944e+002
8.872648e+002, 5.113247e+002
8.877469e+002, 5.109083e+002
8.882290e+002, 5.107418e+002
8.887111e+002, 5.116530e+002
8.891932e+002, 5.128714e+002
8.896754e+002, 5.132404e+002
8.901575e+002, 5.123321e+002
8.906396e+002, 5.116291e+002
8.911217e+002, 5.112187e+002
8.916038e+002, 5.111178e+002
8.920859e+002, 5.116078e+002
8.925681e+002, 5.124257e+002
8.930502e+002, 5.126605e+002
8.935323e+002, 5.120839e+002
8.940144e+002, 5.115432e+002
8.944965e+002, 5.115576e+002
8.949786e+002, 5.119113e+002
8.954608e+002, 5.124651e+002
8.959429e+002, 5.132691e+002
8.964250e+002, 5.139897e+002
8.969071e+002, 5.145564e+002
8.973892e+002, 5.151616e+002
8.978713e+002, 5.161612e+002
8.983535e+002, 5.173726e+002
8.988356e+002, 5.174677e+002
8.993177e+002, 5.165116e+002
8.997998e+002, 5.155863e+002
9.002819e+002, 5.153295e+002
9.007640e+002, 5.154556e+002
9.012462e+002, 5.158237e+002
9.017283e+002, 5.164044e+002
9.022104e+002, 5.170595e+002
9.026925e+002, 5.179130e+002
9.031746e+002, 5.185975e+002
9.036567e+002, 5.190164e+002
9.041389e+002, 5.191920e+002
9.046210e+002, 5.190909e+002
9.051031e+002, 5.187577e+002
9.055852e+002, 5.185688e+002
9.060673e+002, 5.185739e+002
9.065494e+002, 5.189277e+002
9.070316e+002, 5.200865e+002
9.075137e+002, 5.216163e+002
9.079958e+002, 5.227695e+002
9.084779e+002, 5.231254e+002
9.089600e+002, 5.233483e+002
9.094421e+002, 5.233644e+002
9.099243e+002, 5.234159e+002
9.104064e+002, 5.239498e+002
9.108885e+002, 5.249249e+002
9.113706e+002, 5.256080e+002
9.118527e+002, 5.258719e+002
9.123348e+002, 5.259745e+002
9.128170e+002, 5.257308e+002
9.132991e+002, 5.257000e+002
9.137812e+002, 5.266970e+002
9.142633e+002, 5.292200e+002
9.147454e+002, 5.312085e+002
9.152275e+002, 5.322115e+002
9.157097e+002, 5.327901e+002
9.161918e+002, 5.331172e+002
9.166739e+002, 5.332040e+002
9.171560e+002, 5.338312e+002
9.176381e+002, 5.349976e+002
9.181202e+002, 5.361730e+002
9.186024e+002, 5.368972e+002
9.190845e+002, 5.374971e+002
9.195666e+002, 5.382437e+002
9.200487e+002, 5.391596e+002
9.205308e+002, 5.403353e+002
9.210129e+002, 5.422960e+002
9.214951e+002, 5.438932e+002
9.219772e+002, 5.447098e+002
9.224593e+002, 5.450228e+002
9.229414e+002, 5.456400e+002
9.234235e+002, 5.465491e+002
9.239056e+002, 5.476132e+002
9.243878e+002, 5.487972e+002
9.248699e+002, 5.500907e+002
9.253520e+002, 5.516527e+002
9.258341e+002, 5.532781e+002
9.263162e+002, 5.546475e+002
9.267983e+002, 5.549517e+002
9.272805e+002, 5.561529e+002
9.277626e+002, 5.589521e+002
9.282447e+002, 5.622228e+002
9.287268e+002, 5.648080e+002
9.292089e+002, 5.667042e+002
9.296910e+002, 5.685283e+002
9.301732e+002, 5.702874e+002
9.306553e+002, 5.722962e+002
9.311374e+002, 5.750592e+002
9.316195e+002, 5.780955e+002
9.321016e+002, 5.807285e+002
9.325837e+002, 5.827984e+002
9.330659e+002, 5.856725e+002
9.335480e+002, 5.905253e+002
9.340301e+002, 5.951517e+002
9.345122e+002, 5.983957e+002
9.349943e+002, 6.006029e+002
9.354764e+002, 6.042338e+002
9.359586e+002, 6.092748e+002
9.364407e+002, 6.139763e+002
9.369228e+002, 6.170391e+002
9.374049e+002, 6.198412e+002
9.378870e+002, 6.239392e+002
9.383691e+002, 6.289099e+002
9.388513e+002, 6.336727e+002
9.393334e+002, 6.380668e+002
9.398155e+002, 6.421021e+002
9.402976e+002, 6.454584e+002
9.407797e+002, 6.487787e+002
9.412618e+002, 6.534309e+002
9.417440e+002, 6.592384e+002
9.422261e+002, 6.633756e+002
9.427082e+002, 6.651531e+002
9.431903e+002, 6.666897e+002
9.436724e+002, 6.700851e+002
9.441545e+002, 6.742361e+002
9.446367e+002, 6.782169e+002
9.451188e+002, 6.820904e+002
9.456009e+002, 6.845662e+002
9.460830e+002, 6.848937e+002
9.465651e+002, 6.849044e+002
9.470472e+002, 6.859828e+002
9.475294e+002, 6.878118e+002
9.480115e+002, 6.874274e+002
9.484936e+002, 6.849871e+002
9.489757e+002, 6.823471e+002
9.494578e+002, 6.810066e+002
9.499399e+002, 6.796464e+002
9.504221e+002, 6.772357e+002
9.509042e+002, 6.739367e+002
9.513863e+002, 6.705012e+002
9.518684e+002, 6.672971e+002
9.523505e+002, 6.634622e+002
9.528326e+002, 6.587012e+002
9.533148e+002, 6.534789e+002
9.537969e+002, 6.486039e+002
9.542790e+002, 6.440287e+002
9.547611e+002, 6.394796e+002
9.552432e+002, 6.348924e+002
9.557253e+002, 6.304703e+002
9.562075e+002, 6.262490e+002
9.566896e+002, 6.223349e+002
9.571717e+002, 6.188346e+002
9.576538e+002, 6.158807e+002
9.581359e+002, 6.127521e+002
9.586180e+002, 6.091854e+002
9.591002e+002, 6.060297e+002
9.595823e+002, 6.042634e+002
9.600644e+002, 6.033367e+002
9.605465e+002, 6.015053e+002
9.610286e+002, 5.988421e+002
9.615107e+002, 5.962662e+002
9.619929e+002, 5.938237e+002
9.624750e+002, 5.920452e+002
9.629571e+002, 5.915906e+002
9.634392e+002, 5.920617e+002
9.639213e+002, 5.919464e+002
9.644034e+002, 5.910670e+002
9.648856e+002, 5.903297e+002
9.653677e+002, 5.899670e+002
9.658498e+002, 5.898254e+002
9.663319e+002, 5.894414e+002
9.668140e+002, 5.891285e+002
9.672961e+002, 5.896638e+002
9.677783e+002, 5.916729e+002
9.682604e+002, 5.934108e+002
9.687425e+002, 5.942126e+002
9.692246e+002, 5.944769e+002
9.697067e+002, 5.944081e+002
9.701888e+002, 5.938787e+002
9.706710e+002, 5.940133e+002
9.711531e+002, 5.948597e+002
9.716352e+002, 5.958680e+002
9.721173e+002, 5.967919e+002
9.725994e+002, 5.975014e+002
9.730815e+002, 5.975876e+002
9.735637e+002, 5.972034e+002
9.740458e+002, 5.972682e+002
9.745279e+002, 5.985855e+002
9.750100e+002, 5.997675e+002
9.754921e+002, 6.003654e+002
9.759742e+002, 6.006829e+002
9.764564e+002, 6.016113e+002
9.769385e+002, 6.031133e+002
9.774206e+002, 6.042008e+002
9.779027e+002, 6.045417e+002
9.783848e+002, 6.046487e+002
9.788669e+002, 6.048107e+002
9.793491e+002, 6.051375e+002
9.798312e+002, 6.057852e+002
9.803133e+002, 6.069453e+002
9.807954e+002, 6.080225e+002
9.812775e+002, 6.089211e+002
9.817596e+002, 6.098828e+002
9.822418e+002, 6.111680e+002
9.827239e+002, 6.126800e+002
9.832060e+002, 6.139940e+002
9.836881e+002, 6.150851e+002
9.841702e+002, 6.158455e+002
9.846523e+002, 6.156614e+002
9.851345e+002, 6.156360e+002
9.856166e+002, 6.165510e+002
9.860987e+002, 6.181906e+002
9.865808e+002, 6.196426e+002
9.870629e+002, 6.208105e+002
9.875450e+002, 6.220665e+002
9.880272e+002, 6.234655e+002
9.885093e+002, 6.250413e+002
9.889914e+002, 6.269879e+002
9.894735e+002, 6.291072e+002
9.899556e+002, 6.308810e+002
9.904377e+002, 6.320472e+002
9.909199e+002, 6.335557e+002
9.914020e+002, 6.361490e+002
9.918841e+002, 6.389445e+002
9.923662e+002, 6.414012e+002
9.928483e+002, 6.434801e+002
9.933304e+002, 6.451347e+002
9.938126e+002, 6.462994e+002
9.942947e+002, 6.481778e+002
9.947768e+002, 6.520183e+002
9.952589e+002, 6.566199e+002
9.957410e+002, 6.608177e+002
9.962231e+002, 6.646000e+002
9.967053e+002, 6.681022e+002
9.971874e+002, 6.708627e+002
9.976695e+002, 6.739362e+002
9.981516e+002, 6.774719e+002
9.986337e+002, 6.813505e+002
9.991158e+002, 6.857804e+002
9.995980e+002, 6.906023e+002
1.000080e+003, 6.942986e+002
1.000562e+003, 6.966121e+002
1.001044e+003, 6.986449e+002
1.001526e+003, 7.012453e+002
1.002009e+003, 7.039828e+002
1.002491e+003, 7.065605e+002
1.002973e+003, 7.089969e+002
1.003455e+003, 7.108674e+002
1.003937e+003, 7.119962e+002
1.004419e+003, 7.131572e+002
1.004901e+003, 7.148691e+002
1.005383e+003, 7.167172e+002
1.005865e+003, 7.176036e+002
1.006348e+003, 7.178715e+002
1.006830e+003, 7.185294e+002
1.007312e+003, 7.205880e+002
1.007794e+003, 7.223655e+002
1.008276e+003, 7.231022e+002
1.008758e+003, 7.234537e+002
1.009240e+003, 7.241367e+002
1.009722e+003, 7.251937e+002
1.010205e+003, 7.258863e+002
1.010687e+003, 7.260999e+002
1.011169e+003, 7.266672e+002
1.011651e+003, 7.286493e+002
1.012133e+003, 7.311631e+002
1.012615e+003, 7.332885e+002
1.013097e+003, 7.349745e+002
1.013579e+003, 7.367990e+002
1.014061e+003, 7.387871e+002
1.014544e+003, 7.410485e+002
1.015026e+003, 7.436758e+002
1.015508e+003, 7.465236e+002
1.015990e+003, 7.491438e+002
1.016472e+003, 7.516877e+002
1.016954e+003, 7.547932e+002
1.017436e+003, 7.588123e+002
1.017918e+003, 7.631188e+002
1.018401e+003, 7.676638e+002
1.018883e+003, 7.720847e+002
1.019365e+003, 7.760544e+002
1.019847e+003, 7.794882e+002
1.020329e+003, 7.828887e+002
1.020811e+003, 7.862477e+002
1.021293e+003, 7.896501e+002
1.021775e+003, 7.933143e+002
1.022257e+003, 7.969694e+002
1.022740e+003, 8.003038e+002
1.023222e+003, 8.033080e+002
1.023704e+003, 8.059752e+002
1.024186e+003, 8.083854e+002
1.024668e+003, 8.103105e+002
1.025150e+003, 8.117416e+002
1.025632e+003, 8.126602e+002
1.026114e+003, 8.133574e+002
1.026596e+003, 8.136652e+002
1.027079e+003, 8.119589e+002
1.027561e+003, 8.078282e+002
1.028043e+003, 8.029180e+002
1.028525e+003, 7.987557e+002
1.029007e+003, 7.942430e+002
1.029489e+003, 7.884799e+002
1.029971e+003, 7.813640e+002
1.030453e+003, 7.733663e+002
1.030936e+003, 7.643019e+002
1.031418e+003, 7.549036e+002
1.031900e+003, 7.453652e+002
1.032382e+003, 7.356577e+002
1.032864e+003, 7.256443e+002
1.033346e+003, 7.154899e+002
1.033828e+003, 7.058318e+002
1.034310e+003, 6.974400e+002
1.034792e+003, 6.887562e+002
1.035275e+003, 6.788625e+002
1.035757e+003, 6.690149e+002
1.036239e+003, 6.601074e+002
1.036721e+003, 6.522109e+002
1.037203e+003, 6.450683e+002
1.037685e+003, 6.387879e+002
1.038167e+003, 6.330541e+002
1.038649e+003, 6.277902e+002
1.039132e+003, 6.229122e+002
1.039614e+003, 6.181857e+002
1.040096e+003, 6.137285e+002
1.040578e+003, 6.100104e+002
1.041060e+003, 6.072441e+002
1.041542e+003, 6.045453e+002
1.042024e+003, 6.017026e+002
1.042506e+003, 5.988109e+002
1.042989e+003, 5.956763e+002
1.043471e+003, 5.926227e+002
1.043953e+003, 5.903775e+002
1.044435e+003, 5.891312e+002
1.044917e+003, 5.881612e+002
1.045399e+003, 5.876593e+002
1.045881e+003, 5.868321e+002
1.046363e+003, 5.851140e+002
1.046845e+003, 5.826869e+002
1.047328e+003, 5.811337e+002
1.047810e+003, 5.803848e+002
1.048292e+003, 5.794567e+002
1.048774e+003, 5.775675e+002
1.049256e+003, 5.757767e+002
1.049738e+003, 5.752585e+002
1.050220e+003, 5.752872e+002
1.050702e+003, 5.746030e+002
1.051184e+003, 5.723679e+002
1.051667e+003, 5.712833e+002
1.052149e+003, 5.716195e+002
1.052631e+003, 5.723816e+002
1.053113e+003, 5.729662e+002
1.053595e+003, 5.732458e+002
1.054077e+003, 5.727430e+002
1.054559e+003, 5.715893e+002
1.055041e+003, 5.707433e+002
1.055523e+003, 5.705521e+002
1.056006e+003, 5.708447e+002
1.056488e+003, 5.718023e+002
1.056970e+003, 5.729904e+002
1.057452e+003, 5.734932e+002
1.057934e+003, 5.733747e+002
1.058416e+003, 5.730433e+002
1.058898e+003, 5.724787e+002
1.059380e+003, 5.723954e+002
1.059863e+003, 5.738948e+002
1.060345e+003, 5.757335e+002
1.060827e+003, 5.767672e+002
1.061309e+003, 5.769088e+002
1.061791e+003, 5.774883e+002
1.062273e+003, 5.786339e+002
1.062755e+003, 5.795673e+002
1.063237e+003, 5.798406e+002
1.063719e+003, 5.798307e+002
1.064202e+003, 5.799616e+002
1.064684e+003, 5.802828e+002
1.065166e+003, 5.808834e+002
1.065648e+003, 5.816170e+002
1.066130e+003, 5.830283e+002
1.066612e+003, 5.856512e+002
1.067094e+003, 5.882054e+002
1.067576e+003, 5.893760e+002
1.068059e+003, 5.895065e+002
1.068541e+003, 5.905743e+002
1.069023e+003, 5.925211e+002
1.069505e+003, 5.945993e+002
1.069987e+003, 5.969035e+002
1.070469e+003, 5.986423e+002
1.070951e+003, 5.988255e+002
1.071433e+003, 5.983095e+002
1.071916e+003, 5.987667e+002
1.072398e+003, 6.003522e+002
1.072880e+003, 6.013433e+002
1.073362e+003, 6.013821e+002
1.073844e+003, 6.016055e+002
1.074326e+003, 6.037411e+002
1.074808e+003, 6.062822e+002
1.075290e+003, 6.073268e+002
1.075772e+003, 6.067117e+002
1.076255e+003, 6.072297e+002
1.076737e+003, 6.095635e+002
1.077219e+003, 6.118388e+002
1.077701e+003, 6.135098e+002
1.078183e+003, 6.146715e+002
1.078665e+003, 6.148491e+002
1.079147e+003, 6.147560e+002
1.079629e+003, 6.162441e+002
1.080111e+003, 6.204795e+002
1.080594e+003, 6.243058e+002
1.081076e+003, 6.260865e+002
1.081558e+003, 6.276381e+002
1.082040e+003, 6.298282e+002
1.082522e+003, 6.326464e+002
1.083004e+003, 6.360418e+002
1.083486e+003, 6.400063e+002
1.083968e+003, 6.442313e+002
1.084450e+003, 6.487126e+002
1.084933e+003, 6.532269e+002
1.085415e+003, 6.575536e+002
1.085897e+003, 6.618303e+002
1.086379e+003, 6.663348e+002
1.086861e+003, 6.708931e+002
1.087343e+003, 6.764164e+002
1.087825e+003, 6.830512e+002
1.088307e+003, 6.899794e+002
1.088790e+003, 6.967395e+002
1.089272e+003, 7.032165e+002
1.089754e+003, 7.092798e+002
1.090236e+003, 7.149910e+002
1.090718e+003, 7.207125e+002
1.091200e+003, 7.271768e+002
1.091682e+003, 7.325153e+002
1.092164e+003, 7.364601e+002
1.092646e+003, 7.390446e+002
1.093129e+003, 7.408292e+002
1.093611e+003, 7.411925e+002
1.094093e+003, 7.383038e+002
1.094575e+003, 7.317482e+002
1.095057e+003, 7.240703e+002
1.095539e+003, 7.165284e+002
1.096021e+003, 7.079507e+002
1.096503e+003, 6.975594e+002
1.096986e+003, 6.859338e+002
1.097468e+003, 6.745256e+002
1.097950e+003, 6.634184e+002
1.098432e+003, 6.537816e+002
1.098914e+003, 6.461229e+002
1.099396e+003, 6.394355e+002
1.099878e+003, 6.332435e+002
1.100360e+003, 6.275068e+002
1.100843e+003, 6.222032e+002
1.101325e+003, 6.172938e+002
1.101807e+003, 6.124503e+002
1.102289e+003, 6.075837e+002
1.102771e+003, 6.034861e+002
1.103253e+003, 6.008926e+002
1.103735e+003, 5.990675e+002
1.104217e+003, 5.974193e+002
1.104699e+003, 5.958829e+002
1.105182e+003, 5.943005e+002
1.105664e+003, 5.923568e+002
1.106146e+003, 5.910003e+002
1.106628e+003, 5.904286e+002
1.107110e+003, 5.899789e+002
1.107592e+003, 5.890551e+002
1.108074e+003, 5.878215e+002
1.108556e+003, 5.863498e+002
1.109038e+003, 5.847829e+002
1.109521e+003, 5.837726e+002
1.110003e+003, 5.839725e+002
1.110485e+003, 5.842565e+002
1.110967e+003, 5.845551e+002
1.111449e+003, 5.846071e+002
1.111931e+003, 5.837750e+002
1.112413e+003, 5.823132e+002
1.112895e+003, 5.814541e+002
1.113377e+003, 5.813455e+002
1.113860e+003, 5.812792e+002
1.114342e+003, 5.806248e+002
1.114824e+003, 5.801119e+002
1.115306e+003, 5.802918e+002
1.115788e+003, 5.809005e+002
1.116270e+003, 5.811348e+002
1.116752e+003, 5.809977e+002
1.117234e+003, 5.803322e+002
1.117717e+003, 5.788954e+002
1.118199e+003, 5.777662e+002
1.118681e+003, 5.781075e+002
1.119163e+003, 5.790655e+002
1.119645e+003, 5.799127e+002
1.120127e+003, 5.805903e+002
1.120609e+003, 5.811451e+002
1.121091e+003, 5.815944e+002
1.121573e+003, 5.817150e+002
1.122056e+003, 5.811311e+002
1.122538e+003, 5.806185e+002
1.123020e+003, 5.812275e+002
1.123502e+003, 5.825653e+002
1.123984e+003, 5.840552e+002
1.124466e+003, 5.857313e+002
1.124948e+003, 5.871332e+002
1.125430e+003, 5.880801e+002
1.125913e+003, 5.892335e+002
1.126395e+003, 5.911649e+002
1.126877e+003, 5.935687e+002
1.127359e+003, 5.958254e+002
1.127841e+003, 5.979779e+002
1.128323e+003, 6.001067e+002
1.128805e+003, 6.021447e+002
1.129287e+003, 6.042786e+002
1.129770e+003, 6.063185e+002
1.130252e+003, 6.087515e+002
1.130734e+003, 6.123196e+002
1.131216e+003, 6.166962e+002
1.131698e+003, 6.205396e+002
1.132180e+003, 6.239122e+002
1.132662e+003, 6.277280e+002
1.133144e+003, 6.328562e+002
1.133626e+003, 6.380466e+002
1.134109e+003, 6.428705e+002
1.134591e+003, 6.475574e+002
1.135073e+003, 6.524962e+002
1.135555e+003, 6.576274e+002
1.136037e+003, 6.627599e+002
1.136519e+003, 6.678912e+002
1.137001e+003, 6.730393e+002
1.137483e+003, 6.781683e+002
1.137965e+003, 6.833796e+002
1.138448e+003, 6.888044e+002
1.138930e+003, 6.944350e+002
1.139412e+003, 7.001441e+002
1.139894e+003, 7.059926e+002
1.140376e+003, 7.117674e+002
1.140858e+003, 7.173499e+002
1.141340e+003, 7.233160e+002
1.141822e+003, 7.307644e+002
1.142304e+003, 7.385022e+002
1.142787e+003, 7.454695e+002
1.143269e+003, 7.515446e+002
1.143751e+003, 7.580038e+002
1.144233e+003, 7.650798e+002
1.144715e+003, 7.709378e+002
1.145197e+003, 7.748066e+002
1.145679e+003, 7.772125e+002
1.146161e+003, 7.797712e+002
1.146644e+003, 7.807053e+002
1.147126e+003, 7.774420e+002
1.147608e+003, 7.685447e+002
1.148090e+003, 7.585609e+002
1.148572e+003, 7.475098e+002
1.149054e+003, 7.356423e+002
1.149536e+003, 7.230096e+002
1.150018e+003, 7.097828e+002
1.150500e+003, 6.951697e+002
1.150983e+003, 6.802808e+002
1.151465e+003, 6.672496e+002
1.151947e+003, 6.574388e+002
1.152429e+003, 6.480349e+002
1.152911e+003, 6.387665e+002
1.153393e+003, 6.299407e+002
1.153875e+003, 6.215416e+002
1.154357e+003, 6.138301e+002
1.154840e+003, 6.075145e+002
1.155322e+003, 6.024586e+002
1.155804e+003, 5.985173e+002
1.156286e+003, 5.964630e+002
1.156768e+003, 5.942416e+002
1.157250e+003, 5.912394e+002
1.157732e+003, 5.884098e+002
1.158214e+003, 5.868425e+002
1.158697e+003, 5.862037e+002
1.159179e+003, 5.850683e+002
1.159661e+003, 5.834801e+002
1.160143e+003, 5.819637e+002
1.160625e+003, 5.808432e+002
1.161107e+003, 5.797386e+002
1.161589e+003, 5.783488e+002
1.162071e+003, 5.770829e+002
1.162553e+003, 5.766982e+002
1.163036e+003, 5.770022e+002
1.163518e+003, 5.763942e+002
1.164000e+003, 5.748334e+002
1.164482e+003, 5.736818e+002
1.164964e+003, 5.745797e+002
1.165446e+003, 5.751708e+002
1.165928e+003, 5.738093e+002
1.166410e+003, 5.717264e+002
1.166892e+003, 5.715069e+002
1.167375e+003, 5.729710e+002
1.167857e+003, 5.732292e+002
1.168339e+003, 5.718476e+002
1.168821e+003, 5.706743e+002
1.169303e+003, 5.713573e+002
1.169785e+003, 5.723863e+002
1.170267e+003, 5.729561e+002
1.170749e+003, 5.730526e+002
1.171231e+003, 5.723719e+002
1.171714e+003, 5.709163e+002
1.172196e+003, 5.704651e+002
1.172678e+003, 5.715478e+002
1.173160e+003, 5.725959e+002
1.173642e+003, 5.719500e+002
1.174124e+003, 5.709877e+002
1.174606e+003, 5.709617e+002
1.175088e+003, 5.716974e+002
1.175571e+003, 5.720121e+002
1.176053e+003, 5.718929e+002
1.176535e+003, 5.717340e+002
1.177017e+003, 5.716581e+002
1.177499e+003, 5.715440e+002
1.177981e+003, 5.711697e+002
1.178463e+003, 5.707739e+002
1.178945e+003, 5.706329e+002
1.179427e+003, 5.707538e+002
1.179910e+003, 5.706390e+002
1.180392e+003, 5.702232e+002
1.180874e+003, 5.702852e+002
1.181356e+003, 5.714440e+002
1.181838e+003, 5.724230e+002
1.182320e+003, 5.712254e+002
1.182802e+003, 5.694437e+002
1.183284e+003, 5.691133e+002
1.183767e+003, 5.706434e+002
1.184249e+003, 5.716690e+002
1.184731e+003, 5.721548e+002
1.185213e+003, 5.724625e+002
1.185695e+003, 5.728146e+002
1.186177e+003, 5.729984e+002
1.186659e+003, 5.726455e+002
1.187141e+003, 5.720222e+002
1.187624e+003, 5.715011e+002
1.188106e+003, 5.711329e+002
1.188588e+003, 5.708575e+002
1.189070e+003, 5.706506e+002
1.189552e+003, 5.707412e+002
1.190034e+003, 5.715410e+002
1.190516e+003, 5.724160e+002
1.190998e+003, 5.724775e+002
1.191480e+003, 5.720789e+002
1.191963e+003, 5.718061e+002
1.192445e+003, 5.716983e+002
1.192927e+003, 5.718915e+002
1.193409e+003, 5.724343e+002
1.193891e+003, 5.730222e+002
1.194373e+003, 5.735229e+002
1.194855e+003, 5.738778e+002
1.195337e+003, 5.737755e+002
1.195819e+003, 5.735013e+002
1.196302e+003, 5.737284e+002
1.196784e+003, 5.748834e+002
1.197266e+003, 5.757697e+002
1.197748e+003, 5.763556e+002
1.198230e+003, 5.767073e+002
1.198712e+003, 5.767955e+002
1.199194e+003, 5.767389e+002
1.199676e+003, 5.765361e+002
1.200158e+003, 5.763370e+002
1.200641e+003, 5.766287e+002
1.201123e+003, 5.783430e+002
1.201605e+003, 5.782469e+002
1.202087e+003, 5.756910e+002
1.202569e+003, 5.732961e+002
1.203051e+003, 5.739255e+002
1.203533e+003, 5.758085e+002
1.204015e+003, 5.768714e+002
1.204498e+003, 5.771273e+002
1.204980e+003, 5.768381e+002
1.205462e+003, 5.753260e+002
1.205944e+003, 5.751921e+002
1.206426e+003, 5.769379e+002
1.206908e+003, 5.789617e+002
1.207390e+003, 5.795687e+002
1.207872e+003, 5.795878e+002
1.208354e+003, 5.802478e+002
1.208837e+003, 5.813526e+002
1.209319e+003, 5.817047e+002
1.209801e+003, 5.808517e+002
1.210283e+003, 5.800674e+002
1.210765e+003, 5.794019e+002
1.211247e+003, 5.791840e+002
1.211729e+003, 5.802760e+002
1.212211e+003, 5.816542e+002
1.212694e+003, 5.818123e+002
1.213176e+003, 5.809302e+002
1.213658e+003, 5.805751e+002
1.214140e+003, 5.811667e+002
1.214622e+003, 5.814420e+002
1.215104e+003, 5.811965e+002
1.215586e+003, 5.807409e+002
1.216068e+003, 5.801672e+002
1.216551e+003, 5.797486e+002
1.217033e+003, 5.799675e+002
1.217515e+003, 5.807422e+002
1.217997e+003, 5.811695e+002
1.218479e+003, 5.810203e+002
1.218961e+003, 5.811526e+002
1.219443e+003, 5.817362e+002
1.219925e+003, 5.825272e+002
1.220407e+003, 5.837153e+002
1.220890e+003, 5.846280e+002
1.221372e+003, 5.842188e+002
1.221854e+003, 5.825904e+002
1.222336e+003, 5.814740e+002
1.222818e+003, 5.809481e+002
1.223300e+003, 5.808605e+002
1.223782e+003, 5.812033e+002
1.224264e+003, 5.818683e+002
1.224746e+003, 5.831257e+002
1.225229e+003, 5.843633e+002
1.225711e+003, 5.847900e+002
1.226193e+003, 5.844539e+002
1.226675e+003, 5.846399e+002
1.227157e+003, 5.854920e+002
1.227639e+003, 5.861620e+002
1.228121e+003, 5.864691e+002
1.228603e+003, 5.865621e+002
1.229085e+003, 5.865546e+002
1.229568e+003, 5.864406e+002
1.230050e+003, 5.860179e+002
1.230532e+003, 5.853980e+002
1.231014e+003, 5.856993e+002
1.231496e+003, 5.871143e+002
1.231978e+003, 5.875632e+002
1.232460e+003, 5.863538e+002
1.232942e+003, 5.851683e+002
1.233425e+003, 5.861105e+002
1.233907e+003, 5.874122e+002
1.234389e+003, 5.873392e+002
1.234871e+003, 5.861042e+002
1.235353e+003, 5.852952e+002
1.235835e+003, 5.849139e+002
1.236317e+003, 5.852532e+002
1.236799e+003, 5.865420e+002
1.237281e+003, 5.877095e+002
1.237764e+003, 5.879709e+002
1.238246e+003, 5.876431e+002
1.238728e+003, 5.864958e+002
1.239210e+003, 5.849674e+002
1.239692e+003, 5.851620e+002
1.240174e+003, 5.869932e+002
1.240656e+003, 5.883355e+002
1.241138e+003, 5.886824e+002
1.241621e+003, 5.884047e+002
1.242103e+003, 5.869030e+002
1.242585e+003, 5.857188e+002
1.243067e+003, 5.860202e+002
1.243549e+003, 5.874080e+002
1.244031e+003, 5.885585e+002
1.244513e+003, 5.894899e+002
1.244995e+003, 5.903701e+002
1.245478e+003, 5.913046e+002
1.245960e+003, 5.917928e+002
1.246442e+003, 5.912747e+002
1.246924e+003, 5.904641e+002
1.247406e+003, 5.897228e+002
1.247888e+003, 5.890505e+002
1.248370e+003, 5.883466e+002
1.248852e+003, 5.877227e+002
1.249334e+003, 5.877873e+002
1.249817e+003, 5.888201e+002
1.250299e+003, 5.895793e+002
1.250781e+003, 5.891309e+002
1.251263e+003, 5.886930e+002
1.251745e+003, 5.887991e+002
1.252227e+003, 5.892069e+002
1.252709e+003, 5.893936e+002
1.253191e+003, 5.893721e+002
1.253673e+003, 5.891149e+002
1.254156e+003, 5.885684e+002
1.254638e+003, 5.881852e+002
1.255120e+003, 5.881652e+002
1.255602e+003, 5.882464e+002
1.256084e+003, 5.883754e+002
1.256566e+003, 5.885070e+002
1.257048e+003, 5.883689e+002
1.257530e+003, 5.882177e+002
1.258012e+003, 5.886359e+002
1.258495e+003, 5.897668e+002
1.258977e+003, 5.909944e+002
1.259459e+003, 5.925436e+002
1.259941e+003, 5.933530e+002
1.260423e+003, 5.928477e+002
1.260905e+003, 5.919325e+002
1.261387e+003, 5.922635e+002
1.261869e+003, 5.930261e+002
1.262352e+003, 5.928641e+002
1.262834e+003, 5.915112e+002
1.263316e+003, 5.907598e+002
1.263798e+003, 5.907673e+002
1.264280e+003, 5.911562e+002
1.264762e+003, 5.918846e+002
1.265244e+003, 5.927504e+002
1.265726e+003, 5.937257e+002
1.266208e+003, 5.945671e+002
1.266691e+003, 5.948732e+002
1.267173e+003, 5.946353e+002
1.267655e+003, 5.948486e+002
1.268137e+003, 5.956147e+002
1.268619e+003, 5.959734e+002
1.269101e+003, 5.956248e+002
1.269583e+003, 5.949971e+002
1.270065e+003, 5.942463e+002
1.270548e+003, 5.935920e+002
1.271030e+003, 5.931652e+002
1.271512e+003, 5.930072e+002
1.271994e+003, 5.936329e+002
1.272476e+003, 5.950106e+002
1.272958e+003, 5.955801e+002
1.273440e+003, 5.948990e+002
1.273922e+003, 5.941584e+002
1.274405e+003, 5.941874e+002
1.274887e+003, 5.944840e+002
1.275369e+003, 5.948259e+002
1.275851e+003, 5.951552e+002
1.276333e+003, 5.954071e+002
1.276815e+003, 5.955267e+002
1.277297e+003, 5.949301e+002
1.277779e+003, 5.934107e+002
1.278261e+003, 5.928033e+002
1.278744e+003, 5.951243e+002
1.279226e+003, 5.972285e+002
1.279708e+003, 5.979150e+002
1.280190e+003, 5.977972e+002
1.280672e+003, 5.980851e+002
1.281154e+003, 5.985529e+002
1.281636e+003, 5.985466e+002
1.282118e+003, 5.979719e+002
1.282600e+003, 5.975823e+002
1.283083e+003, 5.978193e+002
1.283565e+003, 5.978273e+002
1.284047e+003, 5.972869e+002
1.284529e+003, 5.967580e+002
1.285011e+003, 5.971345e+002
1.285493e+003, 5.980076e+002
1.285975e+003, 5.988744e+002
1.286457e+003, 5.996603e+002
1.286939e+003, 6.000947e+002
1.287422e+003, 6.002045e+002
1.287904e+003, 5.998861e+002
1.288386e+003, 5.990546e+002
1.288868e+003, 5.981282e+002
1.289350e+003, 5.973604e+002
1.289832e+003, 5.968809e+002
1.290314e+003, 5.969551e+002
1.290796e+003, 5.974676e+002
1.291279e+003, 5.977519e+002
1.291761e+003, 5.977529e+002
1.292243e+003, 5.979901e+002
1.292725e+003, 5.985386e+002
1.293207e+003, 5.991578e+002
1.293689e+003, 5.996847e+002
1.294171e+003, 6.001703e+002
1.294653e+003, 6.009658e+002
1.295135e+003, 6.015609e+002
1.295618e+003, 6.006615e+002
1.296100e+003, 5.985081e+002
1.296582e+003, 5.975486e+002
1.297064e+003, 5.980264e+002
1.297546e+003, 5.988869e+002
1.298028e+003, 5.996742e+002
1.298510e+003, 6.002766e+002
1.298992e+003, 6.006486e+002
1.299475e+003, 6.009855e+002
1.299957e+003, 6.016398e+002
1.300439e+003, 6.024595e+002
1.300921e+003, 6.027766e+002
1.301403e+003, 6.027059e+002
1.301885e+003, 6.029681e+002
##END=



