##NAMES=Papagoite
##RRUFFID=R040182
##IDEAL CHEMISTRY=CaCu^2+^AlSi_2_O_6_(OH)_3_
##LOCALITY=Ajo, Pima County, Arizona, USA
##OWNER=RRUFF
##SOURCE=University of Arizona Mineral Museum
##DESCRIPTION=Blue crusty coating
##STATUS=The identification of this mineral has been confirmed by X-ray diffraction and chemical analysis
##URL=rruff.info/R040182
##MEASURED CHEMISTRY=Ca_0.97_Cu_1.00_Al_0.98_Si_2.03_O_6_(OH)_3_
127.4844, 408.2189
127.9666, 426.9516
128.4487, 445.2685
128.9308, 466.2717
129.4129, 495.0337
129.8950, 530.0088
130.3772, 561.3705
130.8593, 582.6855
131.3414, 598.5240
131.8235, 624.9742
132.3056, 662.2908
132.7877, 707.9597
133.2699, 761.2275
133.7520, 822.6746
134.2341, 883.9473
134.7162, 940.9725
135.1983, 993.9922
135.6804, 1052.606
136.1626, 1122.972
136.6447, 1189.626
137.1268, 1221.877
137.6089, 1215.824
138.0910, 1187.955
138.5731, 1143.815
139.0553, 1079.871
139.5374, 1013.292
140.0195, 942.4514
140.5016, 870.1615
140.9837, 810.0770
141.4658, 762.9874
141.9480, 725.9324
142.4301, 697.7092
142.9122, 679.8693
143.3943, 667.7672
143.8764, 661.9037
144.3585, 662.2113
144.8407, 663.4020
145.3228, 666.4328
145.8049, 669.6104
146.2870, 671.2363
146.7691, 669.5040
147.2512, 668.5471
147.7334, 668.9142
148.2155, 670.5111
148.6976, 673.9457
149.1797, 682.0563
149.6618, 691.1990
150.1439, 696.5101
150.6261, 690.0299
151.1082, 686.8030
151.5903, 691.5965
152.0724, 709.2423
152.5545, 724.2260
153.0366, 733.9464
153.5188, 740.2586
154.0009, 746.7823
154.4830, 756.4146
154.9651, 764.6563
155.4472, 769.2348
155.9293, 765.5411
156.4115, 764.5623
156.8936, 769.7679
157.3757, 779.7190
157.8578, 789.4557
158.3399, 797.2394
158.8221, 804.5172
159.3042, 812.3076
159.7863, 820.8309
160.2684, 829.9141
160.7505, 840.0217
161.2326, 851.0231
161.7148, 861.1813
162.1969, 870.2485
162.6790, 877.9838
163.1611, 884.0573
163.6432, 885.1612
164.1253, 887.1931
164.6075, 893.8550
165.0896, 905.3000
165.5717, 917.4111
166.0538, 926.3862
166.5359, 934.8630
167.0180, 946.5953
167.5002, 964.3832
167.9823, 985.3114
168.4644, 1007.371
168.9465, 1030.419
169.4286, 1054.581
169.9107, 1082.415
170.3929, 1111.424
170.8750, 1137.081
171.3571, 1152.862
171.8392, 1165.624
172.3213, 1182.491
172.8034, 1204.349
173.2856, 1229.745
173.7677, 1260.055
174.2498, 1293.705
174.7319, 1324.743
175.2140, 1347.236
175.6961, 1365.438
176.1783, 1385.763
176.6604, 1409.461
177.1425, 1435.011
177.6246, 1462.077
178.1067, 1489.946
178.5888, 1515.816
179.0710, 1535.373
179.5531, 1551.054
180.0352, 1567.891
180.5173, 1587.064
180.9994, 1607.797
181.4815, 1626.138
181.9637, 1642.489
182.4458, 1664.254
182.9279, 1702.792
183.4100, 1753.554
183.8921, 1800.408
184.3742, 1840.644
184.8564, 1873.291
185.3385, 1897.138
185.8206, 1912.864
186.3027, 1914.020
186.7848, 1882.944
187.2669, 1824.921
187.7491, 1778.753
188.2312, 1755.022
188.7133, 1753.491
189.1954, 1775.687
189.6775, 1823.142
190.1596, 1887.208
190.6418, 1963.266
191.1239, 2050.700
191.6060, 2137.109
192.0881, 2213.437
192.5702, 2282.002
193.0524, 2364.851
193.5345, 2464.079
194.0166, 2571.487
194.4987, 2669.679
194.9808, 2757.388
195.4629, 2855.473
195.9451, 2976.377
196.4272, 3121.103
196.9093, 3261.646
197.3914, 3397.678
197.8735, 3528.695
198.3556, 3652.742
198.8378, 3768.623
199.3199, 3882.447
199.8020, 3996.379
200.2841, 4109.411
200.7662, 4223.087
201.2483, 4338.362
201.7305, 4453.500
202.2126, 4564.931
202.6947, 4673.121
203.1768, 4775.864
203.6589, 4881.250
204.1410, 4995.211
204.6232, 5065.284
205.1053, 5091.315
205.5874, 5068.531
206.0695, 4978.021
206.5516, 4813.469
207.0337, 4597.731
207.5159, 4331.129
207.9980, 4004.621
208.4801, 3692.809
208.9622, 3401.419
209.4443, 3131.941
209.9264, 2893.026
210.4086, 2688.194
210.8907, 2506.144
211.3728, 2339.181
211.8549, 2182.578
212.3370, 2053.631
212.8191, 1959.733
213.3013, 1897.534
213.7834, 1830.925
214.2655, 1755.190
214.7476, 1682.372
215.2297, 1624.337
215.7118, 1584.327
216.1940, 1548.540
216.6761, 1514.299
217.1582, 1481.647
217.6403, 1456.121
218.1224, 1441.419
218.6045, 1429.293
219.0867, 1410.652
219.5688, 1380.494
220.0509, 1356.065
220.5330, 1342.213
221.0151, 1338.952
221.4972, 1336.649
221.9794, 1335.374
222.4615, 1334.952
222.9436, 1334.951
223.4257, 1334.484
223.9078, 1336.407
224.3899, 1341.982
224.8721, 1351.668
225.3542, 1359.454
225.8363, 1362.869
226.3184, 1366.781
226.8005, 1377.476
227.2827, 1397.726
227.7648, 1419.329
228.2469, 1439.614
228.7290, 1457.662
229.2111, 1481.118
229.6932, 1512.057
230.1754, 1546.433
230.6575, 1579.695
231.1396, 1611.995
231.6217, 1642.239
232.1038, 1667.397
232.5859, 1683.762
233.0681, 1716.023
233.5502, 1771.163
234.0323, 1836.951
234.5144, 1895.874
234.9965, 1941.013
235.4786, 1990.262
235.9608, 2048.919
236.4429, 2116.695
236.9250, 2191.971
237.4071, 2277.702
237.8892, 2368.605
238.3713, 2455.938
238.8535, 2536.198
239.3356, 2618.822
239.8177, 2707.919
240.2998, 2806.863
240.7819, 2899.104
241.2640, 2979.798
241.7462, 3058.078
242.2283, 3152.630
242.7104, 3278.491
243.1925, 3395.931
243.6746, 3491.888
244.1567, 3563.434
244.6389, 3624.615
245.1210, 3677.481
245.6031, 3718.775
246.0852, 3741.246
246.5673, 3739.285
247.0494, 3727.879
247.5316, 3709.543
248.0137, 3678.811
248.4958, 3659.932
248.9779, 3655.942
249.4600, 3662.245
249.9421, 3671.743
250.4243, 3688.912
250.9064, 3701.542
251.3885, 3707.444
251.8706, 3711.102
252.3527, 3693.087
252.8348, 3655.012
253.3170, 3594.615
253.7991, 3504.338
254.2812, 3374.019
254.7633, 3235.088
255.2454, 3096.053
255.7275, 2954.773
256.2097, 2825.104
256.6918, 2705.831
257.1739, 2600.433
257.6560, 2513.627
258.1381, 2444.424
258.6202, 2395.773
259.1024, 2369.504
259.5845, 2368.243
260.0666, 2380.222
260.5487, 2408.783
261.0308, 2448.061
261.5129, 2489.841
261.9951, 2535.515
262.4772, 2579.598
262.9593, 2621.513
263.4414, 2664.265
263.9235, 2692.476
264.4056, 2706.771
264.8878, 2706.128
265.3699, 2688.773
265.8520, 2653.291
266.3341, 2604.685
266.8162, 2543.305
267.2983, 2468.893
267.7805, 2383.615
268.2626, 2279.759
268.7447, 2174.443
269.2268, 2099.052
269.7089, 2059.344
270.1910, 2029.049
270.6732, 1996.357
271.1553, 1959.735
271.6374, 1938.234
272.1195, 1933.458
272.6016, 1941.458
273.0837, 1959.753
273.5659, 1991.587
274.0480, 2017.552
274.5301, 2028.385
275.0122, 2023.408
275.4943, 2020.388
275.9764, 2018.980
276.4586, 2020.179
276.9407, 2026.094
277.4228, 2037.008
277.9049, 2049.460
278.3870, 2063.641
278.8691, 2079.254
279.3513, 2088.623
279.8334, 2090.544
280.3155, 2089.313
280.7976, 2095.265
281.2798, 2109.297
281.7619, 2108.577
282.2440, 2080.996
282.7261, 2029.590
283.2082, 1976.110
283.6903, 1920.049
284.1725, 1863.791
284.6546, 1810.029
285.1367, 1759.158
285.6188, 1709.199
286.1009, 1657.217
286.5830, 1605.422
287.0652, 1564.429
287.5473, 1535.537
288.0294, 1511.890
288.5115, 1484.479
288.9936, 1454.400
289.4757, 1431.778
289.9579, 1422.042
290.4400, 1421.534
290.9221, 1419.241
291.4042, 1414.798
291.8863, 1413.123
292.3684, 1421.941
292.8506, 1438.722
293.3327, 1452.316
293.8148, 1456.598
294.2969, 1457.122
294.7790, 1466.314
295.2611, 1484.239
295.7433, 1502.305
296.2254, 1512.899
296.7075, 1517.878
297.1896, 1521.976
297.6717, 1525.875
298.1538, 1530.337
298.6360, 1539.111
299.1181, 1551.541
299.6002, 1558.948
300.0823, 1554.286
300.5644, 1539.984
301.0465, 1519.616
301.5287, 1489.515
302.0108, 1459.542
302.4929, 1441.586
302.9750, 1434.353
303.4571, 1431.429
303.9392, 1430.212
304.4214, 1430.089
304.9035, 1429.948
305.3856, 1428.507
305.8677, 1428.656
306.3498, 1431.855
306.8319, 1438.436
307.3141, 1449.762
307.7962, 1469.026
308.2783, 1492.164
308.7604, 1516.082
309.2425, 1540.882
309.7246, 1563.697
310.2068, 1580.674
310.6889, 1594.041
311.1710, 1609.761
311.6531, 1632.427
312.1352, 1657.531
312.6173, 1682.695
313.0995, 1709.013
313.5816, 1730.209
314.0637, 1740.902
314.5458, 1744.643
315.0279, 1748.249
315.5100, 1754.636
315.9922, 1761.344
316.4743, 1768.456
316.9564, 1777.635
317.4385, 1780.311
317.9206, 1772.450
318.4027, 1756.667
318.8849, 1736.616
319.3670, 1709.935
319.8491, 1682.087
320.3312, 1653.338
320.8133, 1622.383
321.2954, 1598.349
321.7776, 1584.770
322.2597, 1578.064
322.7418, 1574.416
323.2239, 1584.581
323.7060, 1586.475
324.1881, 1569.351
324.6703, 1530.514
325.1524, 1504.142
325.6345, 1505.493
326.1166, 1513.652
326.5987, 1511.736
327.0808, 1487.450
327.5630, 1467.471
328.0451, 1456.462
328.5272, 1453.942
329.0093, 1449.449
329.4914, 1443.346
329.9735, 1435.081
330.4557, 1423.735
330.9378, 1404.370
331.4199, 1390.795
331.9020, 1386.730
332.3841, 1389.665
332.8662, 1386.528
333.3484, 1372.447
333.8305, 1359.728
334.3126, 1356.434
334.7947, 1367.650
335.2768, 1372.233
335.7589, 1366.776
336.2411, 1355.416
336.7232, 1348.407
337.2053, 1346.670
337.6874, 1346.764
338.1695, 1348.293
338.6516, 1351.924
339.1338, 1350.474
339.6159, 1342.548
340.0980, 1331.553
340.5801, 1323.360
341.0622, 1318.126
341.5443, 1313.388
342.0265, 1308.567
342.5086, 1303.545
342.9907, 1296.701
343.4728, 1287.987
343.9549, 1277.856
344.4370, 1266.392
344.9192, 1253.818
345.4013, 1241.532
345.8834, 1228.799
346.3655, 1217.200
346.8476, 1213.586
347.3297, 1218.267
347.8119, 1222.380
348.2940, 1213.615
348.7761, 1197.033
349.2582, 1188.957
349.7403, 1200.150
350.2225, 1215.448
350.7046, 1205.359
351.1867, 1159.778
351.6688, 1176.229
352.1509, 1184.575
352.6331, 1185.251
353.1152, 1155.287
353.5973, 1164.889
354.0794, 1158.634
354.5615, 1151.729
355.0436, 1166.900
355.5258, 1141.392
356.0079, 1156.213
356.4900, 1154.935
356.9721, 1161.025
357.4542, 1150.648
357.9363, 1160.412
358.4185, 1157.144
358.9006, 1146.720
359.3827, 1139.302
359.8648, 1139.231
360.3469, 1142.886
360.8290, 1149.517
361.3112, 1159.655
361.7933, 1168.368
362.2754, 1172.156
362.7575, 1174.504
363.2396, 1179.220
363.7217, 1190.476
364.2039, 1200.807
364.6860, 1207.433
365.1681, 1210.294
365.6502, 1214.764
366.1323, 1222.271
366.6144, 1231.108
367.0966, 1240.096
367.5787, 1243.233
368.0608, 1253.869
368.5429, 1277.774
369.0250, 1311.505
369.5071, 1336.395
369.9893, 1344.941
370.4714, 1353.283
370.9535, 1370.217
371.4356, 1402.808
371.9177, 1426.410
372.3998, 1434.188
372.8820, 1436.220
373.3641, 1456.609
373.8462, 1502.273
374.3283, 1548.130
374.8104, 1582.913
375.2925, 1605.682
375.7747, 1632.241
376.2568, 1663.830
376.7389, 1697.190
377.2210, 1728.169
377.7031, 1756.776
378.1852, 1782.641
378.6674, 1805.010
379.1495, 1824.630
379.6316, 1847.407
380.1137, 1873.909
380.5958, 1896.700
381.0779, 1904.880
381.5601, 1901.794
382.0422, 1904.548
382.5243, 1921.125
383.0064, 1940.130
383.4885, 1941.095
383.9706, 1925.797
384.4528, 1907.311
384.9349, 1901.339
385.4170, 1896.176
385.8991, 1870.412
386.3812, 1817.044
386.8633, 1754.490
387.3455, 1695.517
387.8276, 1640.424
388.3097, 1588.905
388.7918, 1540.832
389.2739, 1496.899
389.7560, 1457.360
390.2382, 1422.148
390.7203, 1392.384
391.2024, 1368.542
391.6845, 1350.596
392.1666, 1338.265
392.6487, 1335.823
393.1309, 1335.107
393.6130, 1332.366
394.0951, 1327.914
394.5772, 1326.217
395.0593, 1327.188
395.5414, 1332.038
396.0236, 1341.551
396.5057, 1360.994
396.9878, 1379.041
397.4699, 1392.171
397.9520, 1402.775
398.4341, 1418.132
398.9163, 1439.271
399.3984, 1464.088
399.8805, 1491.756
400.3626, 1521.838
400.8447, 1556.282
401.3268, 1596.690
401.8090, 1640.247
402.2911, 1683.119
402.7732, 1722.599
403.2553, 1767.167
403.7374, 1818.183
404.2195, 1875.800
404.7017, 1943.798
405.1838, 2024.183
405.6659, 2110.471
406.1480, 2197.678
406.6301, 2286.186
407.1122, 2374.189
407.5944, 2460.001
408.0765, 2546.919
408.5586, 2639.770
409.0407, 2738.937
409.5228, 2846.968
410.0049, 2967.755
410.4871, 3097.602
410.9692, 3227.635
411.4513, 3356.827
411.9334, 3488.271
412.4155, 3632.278
412.8976, 3784.953
413.3798, 3929.326
413.8619, 4065.873
414.3440, 4188.440
414.8261, 4291.660
415.3082, 4375.777
415.7903, 4445.083
416.2725, 4506.412
416.7546, 4553.778
417.2367, 4581.178
417.7188, 4576.326
418.2009, 4561.622
418.6830, 4558.479
419.1652, 4556.876
419.6473, 4520.099
420.1294, 4434.231
420.6115, 4311.174
421.0937, 4151.653
421.5758, 3942.425
422.0579, 3731.909
422.5400, 3518.258
423.0221, 3308.338
423.5042, 3108.631
423.9864, 2906.014
424.4685, 2730.578
424.9506, 2587.783
425.4327, 2480.294
425.9148, 2396.968
426.3969, 2345.085
426.8791, 2309.045
427.3612, 2275.675
427.8433, 2242.118
428.3254, 2220.079
428.8075, 2210.533
429.2896, 2214.123
429.7718, 2236.379
430.2539, 2280.354
430.7360, 2326.688
431.2181, 2359.296
431.7002, 2380.079
432.1823, 2419.043
432.6645, 2480.409
433.1466, 2551.094
433.6287, 2610.758
434.1108, 2662.229
434.5929, 2720.483
435.0750, 2797.792
435.5572, 2882.544
436.0393, 2951.372
436.5214, 3005.089
437.0035, 3061.262
437.4856, 3141.036
437.9677, 3229.057
438.4499, 3304.488
438.9320, 3364.565
439.4141, 3406.516
439.8962, 3431.746
440.3783, 3437.472
440.8604, 3417.234
441.3426, 3359.039
441.8247, 3281.159
442.3068, 3190.938
442.7889, 3086.863
443.2710, 2981.810
443.7531, 2867.866
444.2353, 2759.381
444.7174, 2670.247
445.1995, 2607.818
445.6816, 2560.452
446.1637, 2527.038
446.6458, 2507.513
447.1280, 2500.870
447.6101, 2514.239
448.0922, 2532.695
448.5743, 2546.074
449.0564, 2545.632
449.5385, 2564.328
450.0207, 2605.536
450.5028, 2663.683
450.9849, 2729.258
451.4670, 2801.810
451.9491, 2881.015
452.4312, 2967.525
452.9134, 3060.724
453.3955, 3156.441
453.8776, 3253.177
454.3597, 3360.281
454.8418, 3487.956
455.3239, 3633.999
455.8061, 3783.778
456.2882, 3935.330
456.7703, 4090.160
457.2524, 4246.562
457.7345, 4406.535
458.2166, 4582.611
458.6988, 4788.040
459.1809, 5009.092
459.6630, 5227.609
460.1451, 5443.164
460.6272, 5662.194
461.1093, 5891.703
461.5915, 6125.331
462.0736, 6350.609
462.5557, 6550.141
463.0378, 6754.021
463.5199, 6976.052
464.0020, 7212.474
464.4842, 7442.949
464.9663, 7649.017
465.4484, 7856.356
465.9305, 8079.744
466.4126, 8331.636
466.8947, 8583.480
467.3769, 8836.130
467.8590, 9087.325
468.3411, 9336.186
468.8232, 9578.057
469.3053, 9825.519
469.7874, 10088.04
470.2696, 10363.92
470.7517, 10628.62
471.2338, 10889.60
471.7159, 11114.79
472.1980, 11290.52
472.6801, 11415.62
473.1623, 11432.67
473.6444, 11332.91
474.1265, 11124.98
474.6086, 10812.79
475.0907, 10400.38
475.5728, 9914.110
476.0550, 9329.476
476.5371, 8690.652
477.0192, 8064.903
477.5013, 7451.246
477.9834, 6873.875
478.4655, 6351.811
478.9477, 5875.184
479.4298, 5437.400
479.9119, 5028.363
480.3940, 4660.013
480.8761, 4351.492
481.3582, 4091.944
481.8404, 3854.510
482.3225, 3629.502
482.8046, 3425.672
483.2867, 3245.841
483.7688, 3092.257
484.2509, 2955.979
484.7331, 2844.640
485.2152, 2746.610
485.6973, 2648.594
486.1794, 2545.248
486.6615, 2450.608
487.1436, 2365.127
487.6258, 2289.284
488.1079, 2227.333
488.5900, 2183.990
489.0721, 2142.521
489.5542, 2092.510
490.0363, 2033.631
490.5185, 1981.010
491.0006, 1936.263
491.4827, 1895.151
491.9648, 1850.262
492.4470, 1803.497
492.9291, 1766.619
493.4112, 1747.659
493.8933, 1738.086
494.3754, 1729.592
494.8575, 1720.987
495.3397, 1705.315
495.8218, 1669.041
496.3039, 1627.317
496.7860, 1598.094
497.2681, 1586.192
497.7502, 1576.305
498.2324, 1560.901
498.7145, 1542.326
499.1966, 1523.466
499.6787, 1499.635
500.1608, 1481.427
500.6429, 1475.765
501.1251, 1481.573
501.6072, 1481.217
502.0893, 1467.149
502.5714, 1452.261
503.0535, 1443.036
503.5356, 1443.868
504.0178, 1439.249
504.4999, 1425.397
504.9820, 1409.594
505.4641, 1404.714
505.9462, 1413.800
506.4283, 1417.732
506.9105, 1409.028
507.3926, 1391.425
507.8747, 1378.343
508.3568, 1369.681
508.8389, 1367.144
509.3210, 1377.844
509.8032, 1395.566
510.2853, 1402.285
510.7674, 1394.351
511.2495, 1381.398
511.7316, 1370.570
512.2137, 1362.126
512.6959, 1356.719
513.1780, 1357.946
513.6601, 1359.435
514.1422, 1354.820
514.6243, 1345.495
515.1064, 1341.117
515.5886, 1351.828
516.0707, 1364.213
516.5528, 1369.537
517.0349, 1362.238
517.5170, 1357.317
517.9991, 1356.731
518.4813, 1359.093
518.9634, 1362.905
519.4455, 1368.923
519.9276, 1375.002
520.4097, 1380.136
520.8918, 1384.776
521.3740, 1391.978
521.8561, 1401.080
522.3382, 1414.942
522.8203, 1439.940
523.3024, 1474.626
523.7845, 1495.647
524.2667, 1499.608
524.7488, 1498.260
525.2309, 1503.231
525.7130, 1514.695
526.1951, 1533.459
526.6772, 1564.919
527.1594, 1599.176
527.6415, 1622.863
528.1236, 1638.177
528.6057, 1655.385
529.0878, 1681.472
529.5699, 1710.759
530.0521, 1738.581
530.5342, 1764.139
531.0163, 1790.295
531.4984, 1820.867
531.9805, 1851.526
532.4626, 1877.817
532.9448, 1898.153
533.4269, 1915.060
533.9090, 1926.677
534.3911, 1934.832
534.8732, 1947.381
535.3553, 1970.341
535.8375, 1986.601
536.3196, 1987.109
536.8017, 1971.100
537.2838, 1956.675
537.7659, 1944.815
538.2480, 1930.823
538.7302, 1908.472
539.2123, 1878.648
539.6944, 1848.754
540.1765, 1820.177
540.6586, 1792.590
541.1407, 1763.712
541.6229, 1734.517
542.1050, 1708.039
542.5871, 1684.399
543.0692, 1665.147
543.5513, 1652.949
544.0334, 1647.992
544.5156, 1645.139
544.9977, 1645.018
545.4798, 1644.277
545.9619, 1639.628
546.4440, 1620.035
546.9261, 1612.039
547.4083, 1630.197
547.8904, 1660.128
548.3725, 1674.903
548.8546, 1662.397
549.3367, 1655.042
549.8188, 1662.833
550.3010, 1684.053
550.7831, 1697.291
551.2652, 1699.880
551.7473, 1703.422
552.2294, 1717.748
552.7115, 1741.638
553.1937, 1761.272
553.6758, 1774.366
554.1579, 1788.159
554.6400, 1812.775
555.1221, 1845.608
555.6042, 1878.650
556.0864, 1908.787
556.5685, 1938.674
557.0506, 1971.422
557.5327, 2006.127
558.0148, 2038.907
558.4969, 2063.240
558.9791, 2088.684
559.4612, 2121.418
559.9433, 2163.128
560.4254, 2205.927
560.9075, 2246.105
561.3896, 2288.032
561.8718, 2336.709
562.3539, 2403.103
562.8360, 2456.306
563.3181, 2484.588
563.8002, 2502.292
564.2823, 2547.036
564.7645, 2623.611
565.2466, 2704.189
565.7287, 2777.707
566.2108, 2845.823
566.6929, 2914.516
567.1750, 2983.138
567.6572, 3054.601
568.1393, 3129.025
568.6214, 3207.307
569.1035, 3291.139
569.5856, 3384.210
570.0677, 3471.928
570.5499, 3540.194
571.0320, 3596.512
571.5141, 3653.267
571.9962, 3724.440
572.4783, 3787.520
572.9604, 3835.673
573.4426, 3868.292
573.9247, 3884.103
574.4068, 3885.744
574.8889, 3866.882
575.3710, 3824.424
575.8531, 3757.594
576.3353, 3674.124
576.8174, 3571.476
577.2995, 3457.132
577.7816, 3336.758
578.2637, 3211.131
578.7458, 3073.307
579.2280, 2916.205
579.7101, 2757.626
580.1922, 2630.815
580.6743, 2532.227
581.1564, 2441.830
581.6385, 2349.535
582.1207, 2260.433
582.6028, 2182.270
583.0849, 2115.265
583.5670, 2055.703
584.0491, 2006.765
584.5313, 1961.164
585.0134, 1911.538
585.4955, 1852.776
585.9776, 1803.618
586.4597, 1774.760
586.9418, 1755.802
587.4240, 1735.315
587.9061, 1709.894
588.3882, 1687.574
588.8703, 1671.924
589.3524, 1659.188
589.8345, 1636.007
590.3167, 1598.257
590.7988, 1565.874
591.2809, 1550.309
591.7630, 1547.879
592.2451, 1539.573
592.7272, 1525.084
593.2094, 1512.197
593.6915, 1510.455
594.1736, 1514.303
594.6557, 1512.910
595.1378, 1503.966
595.6199, 1492.294
596.1021, 1478.658
596.5842, 1465.335
597.0663, 1455.532
597.5485, 1451.280
598.0306, 1449.845
598.5127, 1451.742
598.9948, 1456.137
599.4769, 1459.594
599.9590, 1463.556
600.4412, 1464.606
600.9233, 1460.685
601.4054, 1451.297
601.8875, 1444.251
602.3696, 1439.354
602.8517, 1437.428
603.3339, 1441.467
603.8160, 1450.727
604.2981, 1453.341
604.7802, 1446.219
605.2623, 1438.432
605.7444, 1444.233
606.2266, 1459.020
606.7087, 1470.078
607.1908, 1469.893
607.6729, 1467.372
608.1550, 1470.125
608.6371, 1476.524
609.1193, 1481.360
609.6014, 1476.371
610.0835, 1474.636
610.5656, 1484.429
611.0477, 1508.272
611.5298, 1527.316
612.0120, 1537.385
612.4941, 1545.881
612.9762, 1557.076
613.4583, 1570.610
613.9404, 1586.787
614.4225, 1603.130
614.9047, 1626.523
615.3868, 1671.424
615.8689, 1736.462
616.3510, 1797.946
616.8331, 1846.574
617.3152, 1891.120
617.7974, 1947.871
618.2795, 2013.182
618.7616, 2075.790
619.2437, 2125.566
619.7258, 2172.829
620.2079, 2223.853
620.6901, 2278.927
621.1722, 2341.873
621.6543, 2419.153
622.1364, 2501.455
622.6185, 2582.257
623.1006, 2662.196
623.5828, 2739.098
624.0649, 2808.845
624.5470, 2879.337
625.0291, 2961.743
625.5112, 3058.927
625.9933, 3153.948
626.4755, 3244.972
626.9576, 3329.066
627.4397, 3400.721
627.9218, 3459.718
628.4039, 3504.378
628.8860, 3531.135
629.3682, 3544.567
629.8503, 3556.170
630.3324, 3563.355
630.8145, 3545.498
631.2966, 3483.142
631.7787, 3396.885
632.2609, 3300.995
632.7430, 3198.490
633.2251, 3081.241
633.7072, 2932.034
634.1893, 2778.251
634.6714, 2642.448
635.1536, 2535.174
635.6357, 2420.261
636.1178, 2288.593
636.5999, 2156.472
637.0820, 2057.844
637.5641, 1994.392
638.0463, 1935.005
638.5284, 1867.755
639.0105, 1799.376
639.4926, 1739.678
639.9747, 1688.809
640.4568, 1649.079
640.9390, 1629.382
641.4211, 1615.937
641.9032, 1595.242
642.3853, 1566.439
642.8674, 1539.070
643.3495, 1518.538
643.8317, 1499.776
644.3138, 1478.365
644.7959, 1447.605
645.2780, 1427.289
645.7601, 1423.503
646.2422, 1424.861
646.7244, 1416.398
647.2065, 1395.092
647.6886, 1381.087
648.1707, 1380.979
648.6528, 1385.750
649.1349, 1375.069
649.6171, 1351.131
650.0992, 1329.255
650.5813, 1319.021
651.0634, 1313.237
651.5455, 1300.390
652.0276, 1282.681
652.5098, 1272.595
652.9919, 1284.797
653.4740, 1300.452
653.9561, 1308.015
654.4382, 1305.380
654.9203, 1300.408
655.4025, 1287.670
655.8846, 1278.092
656.3667, 1281.634
656.8488, 1308.344
657.3309, 1315.703
657.8130, 1296.365
658.2952, 1268.226
658.7773, 1255.558
659.2594, 1257.436
659.7415, 1265.375
660.2236, 1281.083
660.7057, 1295.271
661.1879, 1290.967
661.6700, 1273.763
662.1521, 1259.275
662.6342, 1256.589
663.1163, 1257.724
663.5984, 1258.885
664.0806, 1259.827
664.5627, 1259.898
665.0448, 1260.284
665.5269, 1258.400
666.0090, 1251.720
666.4911, 1238.741
666.9733, 1233.283
667.4554, 1238.043
667.9375, 1244.980
668.4196, 1246.656
668.9017, 1243.350
669.3839, 1244.246
669.8660, 1250.819
670.3481, 1258.483
670.8302, 1264.173
671.3123, 1266.730
671.7944, 1262.868
672.2766, 1246.975
672.7587, 1231.950
673.2408, 1226.371
673.7229, 1227.641
674.2050, 1230.532
674.6871, 1233.282
675.1693, 1237.947
675.6514, 1249.122
676.1335, 1263.902
676.6156, 1265.534
677.0977, 1248.589
677.5798, 1230.744
678.0620, 1218.608
678.5441, 1212.092
679.0262, 1213.286
679.5083, 1222.700
679.9904, 1231.664
680.4725, 1232.200
680.9547, 1227.887
681.4368, 1224.877
681.9189, 1223.979
682.4010, 1223.617
682.8831, 1221.751
683.3652, 1220.379
683.8474, 1221.763
684.3295, 1229.842
684.8116, 1235.217
685.2937, 1233.455
685.7758, 1229.645
686.2579, 1230.958
686.7401, 1240.357
687.2222, 1246.229
687.7043, 1244.668
688.1864, 1240.093
688.6685, 1246.792
689.1506, 1263.621
689.6328, 1271.843
690.1149, 1254.794
690.5970, 1229.691
691.0791, 1223.623
691.5612, 1233.580
692.0433, 1244.228
692.5255, 1251.074
693.0076, 1253.116
693.4897, 1244.940
693.9718, 1224.306
694.4539, 1219.169
694.9360, 1249.270
695.4182, 1280.891
695.9003, 1295.767
696.3824, 1289.213
696.8645, 1284.245
697.3466, 1280.523
697.8287, 1279.278
698.3109, 1282.849
698.7930, 1290.411
699.2751, 1298.365
699.7572, 1306.865
700.2393, 1312.499
700.7214, 1307.004
701.2036, 1297.134
701.6857, 1294.240
702.1678, 1308.121
702.6499, 1322.933
703.1320, 1333.693
703.6141, 1341.032
704.0963, 1346.489
704.5784, 1349.355
705.0605, 1351.859
705.5426, 1354.403
706.0247, 1356.961
706.5068, 1359.458
706.9890, 1361.972
707.4711, 1363.915
707.9532, 1365.142
708.4353, 1365.533
708.9174, 1363.779
709.3995, 1360.214
709.8817, 1358.213
710.3638, 1359.716
710.8459, 1364.082
711.3280, 1373.301
711.8101, 1389.012
712.2922, 1396.392
712.7744, 1381.504
713.2565, 1364.120
713.7386, 1358.048
714.2207, 1369.827
714.7028, 1376.020
715.1849, 1375.766
715.6671, 1371.508
716.1492, 1363.930
716.6313, 1353.677
717.1134, 1348.646
717.5955, 1351.537
718.0776, 1355.772
718.5598, 1353.005
719.0419, 1345.758
719.5240, 1339.017
720.0061, 1337.045
720.4882, 1332.878
720.9703, 1317.980
721.4525, 1298.862
721.9346, 1290.348
722.4167, 1304.646
722.8988, 1316.361
723.3809, 1321.343
723.8630, 1320.199
724.3452, 1313.301
724.8273, 1299.295
725.3094, 1289.448
725.7915, 1291.546
726.2736, 1300.783
726.7557, 1305.620
727.2379, 1306.241
727.7200, 1304.095
728.2021, 1297.545
728.6842, 1290.473
729.1663, 1286.487
729.6484, 1286.004
730.1306, 1284.759
730.6127, 1279.445
731.0948, 1274.826
731.5769, 1273.932
732.0590, 1278.306
732.5411, 1279.771
733.0233, 1277.722
733.5054, 1274.125
733.9875, 1267.951
734.4696, 1260.601
734.9517, 1265.738
735.4338, 1287.272
735.9160, 1306.858
736.3981, 1299.427
736.8802, 1280.037
737.3623, 1271.607
737.8444, 1286.046
738.3266, 1300.907
738.8087, 1305.758
739.2908, 1306.652
739.7729, 1312.671
740.2551, 1329.354
740.7372, 1341.148
741.2193, 1343.074
741.7014, 1341.871
742.1835, 1354.515
742.6656, 1381.151
743.1478, 1402.338
743.6299, 1410.092
744.1120, 1411.441
744.5941, 1415.661
745.0762, 1422.553
745.5583, 1431.643
746.0405, 1445.851
746.5226, 1459.173
747.0047, 1463.770
747.4868, 1462.671
747.9689, 1473.996
748.4510, 1513.441
748.9332, 1547.756
749.4153, 1565.494
749.8974, 1568.001
750.3795, 1572.361
750.8616, 1578.963
751.3438, 1584.306
751.8259, 1583.248
752.3080, 1579.885
752.7901, 1586.195
753.2722, 1601.825
753.7543, 1615.393
754.2365, 1619.286
754.7186, 1618.008
755.2007, 1614.504
755.6828, 1608.830
756.1649, 1602.651
756.6470, 1594.499
757.1292, 1587.384
757.6113, 1584.662
758.0934, 1589.583
758.5755, 1583.121
759.0576, 1563.181
759.5397, 1538.611
760.0219, 1515.722
760.5040, 1495.532
760.9861, 1483.780
761.4682, 1483.138
761.9503, 1481.612
762.4324, 1468.218
762.9146, 1449.149
763.3967, 1431.586
763.8788, 1417.610
764.3609, 1404.689
764.8430, 1392.513
765.3251, 1381.266
765.8073, 1371.208
766.2894, 1362.726
766.7715, 1353.599
767.2536, 1342.672
767.7357, 1332.718
768.2178, 1332.590
768.7000, 1338.555
769.1821, 1333.681
769.6642, 1303.889
770.1463, 1275.294
770.6284, 1275.089
771.1105, 1291.691
771.5927, 1302.704
772.0748, 1298.576
772.5569, 1291.045
773.0390, 1280.738
773.5211, 1269.443
774.0032, 1261.889
774.4854, 1258.752
774.9675, 1256.924
775.4496, 1255.837
775.9317, 1255.151
776.4138, 1253.378
776.8959, 1250.965
777.3781, 1250.245
777.8602, 1256.662
778.3423, 1261.887
778.8244, 1254.833
779.3065, 1239.359
779.7886, 1231.923
780.2708, 1249.300
780.7529, 1263.062
781.2350, 1263.141
781.7171, 1250.958
782.1992, 1238.146
782.6813, 1223.003
783.1635, 1214.551
783.6456, 1221.283
784.1277, 1237.702
784.6098, 1246.860
785.0919, 1248.938
785.5740, 1246.395
786.0562, 1234.975
786.5383, 1223.858
787.0204, 1223.292
787.5025, 1233.693
787.9846, 1238.741
788.4667, 1226.510
788.9489, 1215.895
789.4310, 1215.570
789.9131, 1226.220
790.3952, 1233.894
790.8773, 1237.881
791.3594, 1241.915
791.8416, 1251.526
792.3237, 1262.920
792.8058, 1264.027
793.2879, 1254.453
793.7700, 1245.389
794.2521, 1242.514
794.7343, 1244.834
795.2164, 1253.154
795.6985, 1269.841
796.1806, 1281.831
796.6627, 1284.045
797.1448, 1285.556
797.6270, 1293.229
798.1091, 1308.598
798.5912, 1317.700
799.0733, 1320.233
799.5554, 1317.975
800.0375, 1306.082
800.5197, 1292.366
801.0018, 1293.940
801.4839, 1314.653
801.9660, 1337.601
802.4481, 1354.589
802.9302, 1368.061
803.4124, 1379.874
803.8945, 1389.401
804.3766, 1399.387
804.8587, 1411.469
805.3408, 1421.838
805.8229, 1423.525
806.3051, 1416.665
806.7872, 1426.924
807.2693, 1459.805
807.7514, 1489.622
808.2335, 1479.174
808.7156, 1452.342
809.1978, 1448.316
809.6799, 1483.506
810.1620, 1513.696
810.6441, 1516.205
811.1262, 1507.390
811.6083, 1503.583
812.0905, 1510.113
812.5726, 1509.669
813.0547, 1498.997
813.5368, 1486.985
814.0189, 1487.251
814.5010, 1496.742
814.9832, 1496.088
815.4653, 1480.527
815.9474, 1462.725
816.4295, 1454.686
816.9116, 1451.061
817.3937, 1445.310
817.8759, 1435.951
818.3580, 1424.265
818.8401, 1407.036
819.3222, 1390.003
819.8043, 1379.239
820.2864, 1376.668
820.7686, 1371.116
821.2507, 1361.005
821.7328, 1349.701
822.2149, 1341.427
822.6970, 1335.557
823.1791, 1330.082
823.6613, 1324.007
824.1434, 1320.321
824.6255, 1324.635
825.1076, 1330.823
825.5897, 1332.013
826.0718, 1324.113
826.5540, 1314.728
827.0361, 1301.983
827.5182, 1289.823
828.0003, 1283.677
828.4824, 1283.509
828.9645, 1281.745
829.4467, 1276.873
829.9288, 1271.980
830.4109, 1270.470
830.8930, 1271.304
831.3751, 1273.280
831.8572, 1277.525
832.3394, 1279.527
832.8215, 1275.651
833.3036, 1269.830
833.7857, 1266.560
834.2678, 1267.068
834.7499, 1266.523
835.2321, 1264.289
835.7142, 1261.786
836.1963, 1260.751
836.6784, 1260.954
837.1605, 1262.243
837.6426, 1265.292
838.1248, 1266.148
838.6069, 1259.132
839.0890, 1249.475
839.5711, 1243.099
840.0532, 1243.104
840.5353, 1243.048
841.0175, 1242.505
841.4996, 1241.727
841.9817, 1241.358
842.4638, 1241.493
842.9459, 1238.724
843.4280, 1231.936
843.9102, 1226.376
844.3923, 1229.714
844.8744, 1237.537
845.3565, 1241.937
845.8386, 1239.626
846.3207, 1240.460
846.8029, 1254.133
847.2850, 1268.976
847.7671, 1274.419
848.2492, 1265.926
848.7313, 1260.296
849.2134, 1258.431
849.6956, 1257.226
850.1777, 1252.189
850.6598, 1245.111
851.1419, 1243.109
851.6240, 1247.484
852.1061, 1252.150
852.5883, 1252.741
853.0704, 1251.327
853.5525, 1249.453
854.0346, 1246.600
854.5167, 1245.844
854.9988, 1247.719
855.4810, 1251.132
855.9631, 1256.373
856.4452, 1263.536
856.9273, 1265.753
857.4094, 1262.501
857.8915, 1259.240
858.3737, 1262.413
858.8558, 1267.590
859.3379, 1269.236
859.8200, 1266.584
860.3021, 1261.973
860.7842, 1251.313
861.2664, 1243.497
861.7485, 1244.475
862.2306, 1255.503
862.7127, 1262.575
863.1948, 1265.262
863.6769, 1266.132
864.1591, 1266.775
864.6412, 1267.037
865.1233, 1266.333
865.6054, 1264.724
866.0875, 1263.254
866.5696, 1259.995
867.0518, 1259.202
867.5339, 1264.567
868.0160, 1276.748
868.4981, 1288.394
868.9802, 1303.256
869.4623, 1309.378
869.9445, 1296.231
870.4266, 1269.962
870.9087, 1259.663
871.3908, 1264.250
871.8729, 1273.219
872.3550, 1284.723
872.8372, 1294.199
873.3193, 1295.687
873.8014, 1290.839
874.2835, 1289.186
874.7656, 1297.747
875.2477, 1303.773
875.7299, 1302.852
876.2120, 1297.247
876.6941, 1297.020
877.1762, 1302.156
877.6583, 1303.722
878.1404, 1293.309
878.6226, 1282.010
879.1047, 1289.108
879.5869, 1307.238
880.0690, 1317.617
880.5511, 1305.915
881.0332, 1293.750
881.5153, 1287.804
881.9974, 1285.367
882.4796, 1279.896
882.9617, 1269.922
883.4438, 1266.209
883.9259, 1273.644
884.4080, 1283.725
884.8901, 1280.989
885.3723, 1270.443
885.8544, 1264.163
886.3365, 1270.646
886.8186, 1275.129
887.3007, 1267.061
887.7828, 1254.864
888.2650, 1251.076
888.7471, 1261.449
889.2292, 1264.326
889.7113, 1255.578
890.1934, 1244.280
890.6755, 1243.468
891.1577, 1249.839
891.6398, 1252.579
892.1219, 1248.974
892.6040, 1245.170
893.0861, 1246.509
893.5682, 1249.055
894.0504, 1248.956
894.5325, 1244.332
895.0146, 1240.363
895.4967, 1236.861
895.9788, 1234.369
896.4609, 1234.228
896.9431, 1235.811
897.4252, 1233.389
897.9073, 1226.588
898.3894, 1224.230
898.8715, 1240.400
899.3536, 1258.566
899.8358, 1261.638
900.3179, 1246.169
900.8000, 1241.623
901.2821, 1258.132
901.7642, 1275.183
902.2463, 1284.644
902.7285, 1286.734
903.2106, 1281.815
903.6927, 1270.241
904.1748, 1260.790
904.6569, 1259.345
905.1390, 1262.179
905.6212, 1268.121
906.1033, 1275.604
906.5854, 1278.714
907.0675, 1267.162
907.5496, 1261.952
908.0317, 1272.072
908.5139, 1290.272
908.9960, 1290.329
909.4781, 1272.138
909.9602, 1265.388
910.4423, 1286.432
910.9244, 1314.192
911.4066, 1324.068
911.8887, 1321.947
912.3708, 1318.752
912.8529, 1316.395
913.3350, 1315.544
913.8171, 1317.823
914.2993, 1320.534
914.7814, 1317.692
915.2635, 1308.063
915.7456, 1311.972
916.2277, 1335.241
916.7098, 1359.731
917.1920, 1359.945
917.6741, 1349.326
918.1562, 1348.967
918.6383, 1367.249
919.1204, 1380.924
919.6025, 1377.650
920.0847, 1371.717
920.5668, 1373.385
921.0489, 1384.518
921.5310, 1388.041
922.0131, 1382.644
922.4952, 1380.328
922.9774, 1398.429
923.4595, 1422.071
923.9416, 1424.623
924.4237, 1406.408
924.9058, 1395.780
925.3879, 1410.782
925.8701, 1429.095
926.3522, 1442.072
926.8343, 1450.133
927.3164, 1456.133
927.7985, 1459.967
928.2806, 1462.763
928.7628, 1462.843
929.2449, 1464.214
929.7270, 1476.105
930.2091, 1494.587
930.6912, 1509.361
931.1733, 1511.315
931.6555, 1514.484
932.1376, 1523.291
932.6197, 1535.744
933.1018, 1549.546
933.5839, 1565.395
934.0660, 1577.854
934.5482, 1585.518
935.0303, 1591.196
935.5124, 1595.065
935.9945, 1600.659
936.4766, 1616.003
936.9587, 1649.862
937.4409, 1674.751
937.9230, 1675.935
938.4051, 1669.213
938.8872, 1666.249
939.3693, 1667.712
939.8514, 1669.199
940.3336, 1670.801
940.8157, 1671.558
941.2978, 1667.843
941.7799, 1664.200
942.2620, 1670.047
942.7441, 1685.008
943.2263, 1694.383
943.7084, 1689.178
944.1905, 1680.172
944.6726, 1671.265
945.1547, 1662.387
945.6368, 1653.807
946.1190, 1645.640
946.6011, 1634.210
947.0832, 1614.408
947.5653, 1594.244
948.0474, 1588.086
948.5295, 1589.572
949.0117, 1583.908
949.4938, 1557.427
949.9759, 1534.170
950.4580, 1519.132
950.9401, 1509.089
951.4222, 1499.875
951.9044, 1491.458
952.3865, 1483.747
952.8686, 1477.019
953.3507, 1469.589
953.8328, 1455.523
954.3149, 1441.651
954.7971, 1438.601
955.2792, 1453.276
955.7613, 1459.861
956.2434, 1449.681
956.7255, 1436.325
957.2076, 1427.735
957.6898, 1423.731
958.1719, 1417.994
958.6540, 1410.543
959.1361, 1405.658
959.6182, 1409.095
960.1003, 1414.174
960.5825, 1414.863
961.0646, 1411.524
961.5467, 1407.512
962.0288, 1401.605
962.5109, 1398.229
962.9930, 1399.980
963.4752, 1403.657
963.9573, 1399.176
964.4394, 1388.361
964.9215, 1383.011
965.4036, 1390.511
965.8857, 1397.580
966.3679, 1388.385
966.8500, 1374.495
967.3321, 1371.565
967.8142, 1393.159
968.2963, 1404.360
968.7784, 1402.087
969.2606, 1395.168
969.7427, 1392.872
970.2248, 1393.404
970.7069, 1389.512
971.1890, 1380.724
971.6711, 1372.274
972.1533, 1362.175
972.6354, 1358.184
973.1175, 1369.756
973.5996, 1396.360
974.0817, 1412.502
974.5638, 1415.369
975.0460, 1417.816
975.5281, 1426.209
976.0102, 1436.670
976.4923, 1440.819
976.9744, 1440.068
977.4565, 1438.568
977.9387, 1436.243
978.4208, 1435.686
978.9029, 1437.802
979.3850, 1442.271
979.8671, 1450.193
980.3492, 1463.332
980.8314, 1468.284
981.3135, 1462.419
981.7956, 1453.505
982.2777, 1447.350
982.7598, 1444.777
983.2419, 1448.899
983.7241, 1461.468
984.2062, 1469.354
984.6883, 1467.614
985.1704, 1460.859
985.6525, 1448.843
986.1346, 1432.646
986.6168, 1424.684
987.0989, 1424.746
987.5810, 1426.197
988.0631, 1426.267
988.5452, 1425.105
989.0273, 1423.274
989.5095, 1420.321
989.9916, 1415.003
990.4737, 1405.302
990.9558, 1396.083
991.4379, 1388.523
991.9200, 1380.931
992.4022, 1370.109
992.8843, 1356.917
993.3664, 1343.871
993.8485, 1330.990
994.3306, 1321.941
994.8127, 1324.396
995.2949, 1328.331
995.7770, 1323.276
996.2591, 1306.588
996.7412, 1298.489
997.2233, 1300.986
997.7054, 1305.010
998.1876, 1306.007
998.6697, 1304.307
999.1518, 1298.697
999.6339, 1290.609
1000.116, 1285.660
1000.598, 1289.010
1001.080, 1292.862
1001.562, 1295.263
1002.044, 1296.141
1002.527, 1293.956
1003.009, 1288.144
1003.491, 1288.432
1003.973, 1297.567
1004.455, 1308.930
1004.937, 1316.111
1005.419, 1320.625
1005.901, 1324.377
1006.384, 1328.054
1006.866, 1329.198
1007.348, 1326.238
1007.830, 1322.862
1008.312, 1321.021
1008.794, 1320.539
1009.276, 1319.327
1009.758, 1317.881
1010.240, 1320.167
1010.723, 1333.333
1011.205, 1346.190
1011.687, 1352.259
1012.169, 1352.381
1012.651, 1349.093
1013.133, 1340.014
1013.615, 1334.821
1014.097, 1334.954
1014.580, 1339.410
1015.062, 1351.437
1015.544, 1365.427
1016.026, 1369.160
1016.508, 1358.471
1016.990, 1348.800
1017.472, 1345.838
1017.954, 1346.344
1018.436, 1348.704
1018.919, 1352.858
1019.401, 1358.928
1019.883, 1366.924
1020.365, 1372.422
1020.847, 1371.050
1021.329, 1367.474
1021.811, 1365.646
1022.293, 1365.318
1022.776, 1365.853
1023.258, 1367.506
1023.740, 1369.614
1024.222, 1372.808
1024.704, 1375.269
1025.186, 1373.822
1025.668, 1369.505
1026.150, 1365.861
1026.632, 1363.394
1027.115, 1361.255
1027.597, 1355.991
1028.079, 1353.469
1028.561, 1359.710
1029.043, 1374.048
1029.525, 1381.207
1030.007, 1380.167
1030.489, 1379.298
1030.972, 1381.573
1031.454, 1387.100
1031.936, 1396.909
1032.418, 1410.051
1032.900, 1424.301
1033.382, 1443.263
1033.864, 1457.117
1034.346, 1463.513
1034.828, 1466.664
1035.311, 1468.888
1035.793, 1471.307
1036.275, 1482.981
1036.757, 1504.776
1037.239, 1526.389
1037.721, 1535.322
1038.203, 1545.969
1038.685, 1570.067
1039.167, 1606.451
1039.650, 1639.871
1040.132, 1668.419
1040.614, 1701.451
1041.096, 1742.008
1041.578, 1787.500
1042.060, 1832.585
1042.542, 1878.794
1043.024, 1930.115
1043.507, 1990.853
1043.989, 2049.205
1044.471, 2098.143
1044.953, 2150.512
1045.435, 2220.589
1045.917, 2306.135
1046.399, 2376.029
1046.881, 2430.799
1047.364, 2498.164
1047.846, 2614.845
1048.328, 2733.927
1048.810, 2819.133
1049.292, 2877.834
1049.774, 2950.557
1050.256, 3044.629
1050.738, 3127.825
1051.220, 3193.256
1051.703, 3246.507
1052.185, 3294.848
1052.667, 3335.062
1053.149, 3362.227
1053.631, 3376.345
1054.113, 3372.339
1054.595, 3344.726
1055.077, 3302.942
1055.559, 3250.484
1056.042, 3187.725
1056.524, 3111.268
1057.006, 3022.409
1057.488, 2931.750
1057.970, 2842.832
1058.452, 2756.224
1058.934, 2672.979
1059.416, 2590.942
1059.899, 2506.218
1060.381, 2415.144
1060.863, 2333.131
1061.345, 2261.920
1061.827, 2196.835
1062.309, 2131.239
1062.791, 2068.226
1063.273, 2011.917
1063.755, 1962.359
1064.238, 1923.783
1064.720, 1908.401
1065.202, 1888.526
1065.684, 1852.156
1066.166, 1808.967
1066.648, 1788.560
1067.130, 1787.169
1067.612, 1786.336
1068.094, 1781.742
1068.577, 1772.679
1069.059, 1752.835
1069.541, 1732.251
1070.023, 1720.716
1070.505, 1719.818
1070.987, 1719.061
1071.469, 1718.406
1071.951, 1718.169
1072.434, 1718.745
1072.916, 1719.725
1073.398, 1718.575
1073.880, 1717.210
1074.362, 1722.307
1074.844, 1741.268
1075.326, 1756.828
1075.808, 1766.577
1076.291, 1772.993
1076.773, 1778.091
1077.255, 1782.910
1077.737, 1790.791
1078.219, 1802.251
1078.701, 1813.740
1079.183, 1828.407
1079.665, 1836.897
1080.147, 1832.207
1080.630, 1817.632
1081.112, 1813.437
1081.594, 1819.310
1082.076, 1825.479
1082.558, 1827.416
1083.040, 1829.910
1083.522, 1842.152
1084.004, 1855.367
1084.486, 1857.346
1084.969, 1845.374
1085.451, 1825.422
1085.933, 1794.808
1086.415, 1766.977
1086.897, 1756.305
1087.379, 1753.312
1087.861, 1743.441
1088.343, 1726.516
1088.826, 1703.467
1089.308, 1670.560
1089.790, 1636.285
1090.272, 1598.492
1090.754, 1564.624
1091.236, 1551.907
1091.718, 1554.461
1092.200, 1543.201
1092.682, 1512.996
1093.165, 1482.879
1093.647, 1464.063
1094.129, 1450.028
1094.611, 1438.243
1095.093, 1427.706
1095.575, 1410.510
1096.057, 1386.268
1096.539, 1365.114
1097.022, 1352.323
1097.504, 1341.966
1097.986, 1328.648
1098.468, 1313.758
1098.950, 1298.969
1099.432, 1282.376
1099.914, 1272.398
1100.396, 1271.156
1100.879, 1270.199
1101.361, 1262.556
1101.843, 1251.464
1102.325, 1241.470
1102.807, 1233.254
1103.289, 1229.222
1103.771, 1237.059
1104.253, 1239.252
1104.735, 1229.315
1105.218, 1217.194
1105.700, 1218.884
1106.182, 1231.091
1106.664, 1238.623
1107.146, 1239.868
1107.628, 1236.640
1108.110, 1225.145
1108.592, 1214.418
1109.074, 1210.118
1109.557, 1210.751
1110.039, 1211.811
1110.521, 1213.358
1111.003, 1209.472
1111.485, 1195.505
1111.967, 1184.645
1112.449, 1194.325
1112.931, 1211.245
1113.414, 1221.349
1113.896, 1222.581
1114.378, 1218.493
1114.860, 1207.669
1115.342, 1197.775
1115.824, 1194.702
1116.306, 1193.837
1116.788, 1185.599
1117.271, 1174.080
1117.753, 1168.317
1118.235, 1177.631
1118.717, 1183.315
1119.199, 1183.411
1119.681, 1181.203
1120.163, 1179.562
1120.645, 1178.287
1121.127, 1177.209
1121.609, 1176.139
1122.092, 1173.701
1122.574, 1167.308
1123.056, 1161.768
1123.538, 1158.623
1124.020, 1157.218
1124.502, 1156.537
1124.984, 1156.510
1125.466, 1156.117
1125.949, 1154.923
1126.431, 1155.631
1126.913, 1161.255
1127.395, 1168.605
1127.877, 1178.071
1128.359, 1188.240
1128.841, 1184.509
1129.323, 1165.915
1129.806, 1150.290
1130.288, 1144.721
1130.770, 1143.415
1131.252, 1140.754
1131.734, 1138.739
1132.216, 1140.691
1132.698, 1149.067
1133.180, 1153.167
1133.662, 1152.218
1134.145, 1150.128
1134.627, 1147.539
1135.109, 1146.568
1135.591, 1155.204
1136.073, 1167.978
1136.555, 1170.812
1137.037, 1146.465
1137.519, 1132.232
1138.001, 1132.587
1138.484, 1138.572
1138.966, 1143.292
1139.448, 1145.849
1139.930, 1141.215
1140.412, 1130.463
1140.894, 1125.213
1141.376, 1137.907
1141.858, 1146.635
1142.341, 1144.254
1142.823, 1136.508
1143.305, 1134.305
1143.787, 1136.172
1144.269, 1133.930
1144.751, 1125.422
1145.233, 1121.826
1145.715, 1134.990
1146.198, 1149.523
1146.680, 1158.125
1147.162, 1160.980
1147.644, 1156.663
1148.126, 1145.819
1148.608, 1137.593
1149.090, 1135.356
1149.572, 1134.912
1150.054, 1134.705
1150.536, 1133.612
1151.019, 1129.807
1151.501, 1122.852
1151.983, 1120.414
1152.465, 1122.661
1152.947, 1124.840
1153.429, 1122.383
1153.911, 1120.962
1154.393, 1129.693
1154.876, 1142.057
1155.358, 1145.616
1155.840, 1134.818
1156.322, 1131.685
1156.804, 1138.252
1157.286, 1143.493
1157.768, 1134.222
1158.250, 1121.529
1158.733, 1120.265
1159.215, 1128.041
1159.697, 1134.524
1160.179, 1139.232
1160.661, 1139.919
1161.143, 1135.596
1161.625, 1129.226
1162.107, 1121.417
1162.589, 1115.137
1163.072, 1117.559
1163.554, 1128.428
1164.036, 1135.489
1164.518, 1133.359
1165.000, 1130.916
1165.482, 1129.660
1165.964, 1130.009
1166.446, 1136.542
1166.928, 1144.410
1167.411, 1139.941
1167.893, 1117.907
1168.375, 1103.925
1168.857, 1114.172
1169.339, 1124.081
1169.821, 1123.535
1170.303, 1116.786
1170.785, 1117.036
1171.268, 1121.847
1171.750, 1122.816
1172.232, 1115.509
1172.714, 1108.771
1173.196, 1103.559
1173.678, 1103.014
1174.160, 1112.361
1174.642, 1128.654
1175.125, 1128.974
1175.607, 1116.188
1176.089, 1106.080
1176.571, 1108.107
1177.053, 1111.687
1177.535, 1113.708
1178.017, 1113.935
1178.499, 1111.809
1178.981, 1107.339
1179.464, 1101.882
1179.946, 1095.649
1180.428, 1091.787
1180.910, 1092.726
1181.392, 1096.048
1181.874, 1101.966
1182.356, 1108.775
1182.838, 1114.599
1183.320, 1119.576
1183.803, 1119.499
1184.285, 1113.883
1184.767, 1108.737
1185.249, 1111.002
1185.731, 1112.949
1186.213, 1104.473
1186.695, 1092.249
1187.177, 1098.646
1187.660, 1125.791
1188.142, 1136.421
1188.624, 1122.642
1189.106, 1106.323
1189.588, 1107.323
1190.070, 1113.302
1190.552, 1113.262
1191.034, 1108.260
1191.516, 1110.619
1191.999, 1121.620
1192.481, 1126.756
1192.963, 1120.604
1193.445, 1114.433
1193.927, 1123.224
1194.409, 1135.160
1194.891, 1137.459
1195.373, 1129.095
1195.855, 1121.894
1196.338, 1115.760
1196.820, 1111.299
1197.302, 1108.881
1197.784, 1108.043
1198.266, 1109.000
1198.748, 1110.875
1199.230, 1112.836
1199.712, 1115.037
1200.195, 1115.362
1200.677, 1113.605
1201.159, 1111.254
1201.641, 1107.567
1202.123, 1105.621
1202.605, 1112.834
1203.087, 1122.831
1203.569, 1124.306
1204.052, 1110.958
1204.534, 1106.139
1205.016, 1111.239
1205.498, 1116.330
1205.980, 1113.698
1206.462, 1108.067
1206.944, 1102.799
1207.426, 1099.111
1207.908, 1100.668
1208.391, 1111.195
1208.873, 1116.165
1209.355, 1114.422
1209.837, 1110.319
1210.319, 1102.790
1210.801, 1098.593
1211.283, 1111.099
1211.765, 1134.092
1212.247, 1144.113
1212.730, 1135.181
1213.212, 1127.658
1213.694, 1123.409
1214.176, 1121.874
1214.658, 1127.880
1215.140, 1132.342
1215.622, 1118.443
1216.104, 1091.128
1216.587, 1084.506
1217.069, 1108.770
1217.551, 1123.394
1218.033, 1120.772
1218.515, 1111.646
1218.997, 1104.533
1219.479, 1099.852
1219.961, 1098.798
1220.443, 1101.232
1220.926, 1103.163
1221.408, 1103.907
1221.890, 1107.062
1222.372, 1115.021
1222.854, 1120.162
1223.336, 1108.604
1223.818, 1092.135
1224.300, 1084.205
1224.782, 1086.908
1225.265, 1092.341
1225.747, 1102.373
1226.229, 1104.649
1226.711, 1092.636
1227.193, 1078.952
1227.675, 1077.756
1228.157, 1084.304
1228.639, 1095.071
1229.122, 1110.448
1229.604, 1117.262
1230.086, 1114.299
1230.568, 1110.883
1231.050, 1109.941
1231.532, 1111.477
1232.014, 1117.711
1232.496, 1125.183
1232.979, 1129.959
1233.461, 1131.823
1233.943, 1129.792
1234.425, 1123.435
1234.907, 1117.722
1235.389, 1115.450
1235.871, 1114.071
1236.353, 1107.893
1236.835, 1102.716
1237.318, 1108.953
1237.800, 1130.046
1238.282, 1133.253
1238.764, 1117.543
1239.246, 1104.771
1239.728, 1110.631
1240.210, 1120.013
1240.692, 1120.217
1241.175, 1116.246
1241.657, 1114.972
1242.139, 1117.015
1242.621, 1119.271
1243.103, 1121.775
1243.585, 1122.430
1244.067, 1116.336
1244.549, 1111.889
1245.031, 1117.604
1245.514, 1126.893
1245.996, 1129.933
1246.478, 1125.954
1246.960, 1127.860
1247.442, 1135.320
1247.924, 1136.553
1248.406, 1112.836
1248.888, 1093.105
1249.370, 1100.092
1249.853, 1116.700
1250.335, 1118.921
1250.817, 1107.460
1251.299, 1107.672
1251.781, 1119.616
1252.263, 1127.684
1252.745, 1115.065
1253.227, 1105.033
1253.710, 1112.436
1254.192, 1124.396
1254.674, 1123.620
1255.156, 1112.184
1255.638, 1104.580
1256.120, 1101.565
1256.602, 1100.657
1257.084, 1100.050
1257.567, 1102.206
1258.049, 1108.597
1258.531, 1116.807
1259.013, 1124.913
1259.495, 1131.945
1259.977, 1133.573
1260.459, 1129.870
1260.941, 1125.333
1261.423, 1118.899
1261.906, 1116.990
1262.388, 1123.855
1262.870, 1130.962
1263.352, 1122.282
1263.834, 1105.466
1264.316, 1099.633
1264.798, 1105.537
1265.280, 1108.904
1265.762, 1103.228
1266.245, 1097.942
1266.727, 1093.986
1267.209, 1092.639
1267.691, 1096.897
1268.173, 1104.379
1268.655, 1111.864
1269.137, 1118.966
1269.619, 1124.157
1270.102, 1127.719
1270.584, 1128.605
1271.066, 1126.161
1271.548, 1122.420
1272.030, 1119.920
1272.512, 1117.673
1272.994, 1113.735
1273.476, 1108.400
1273.958, 1107.251
1274.441, 1112.271
1274.923, 1110.978
1275.405, 1098.814
1275.887, 1088.119
1276.369, 1092.310
1276.851, 1103.723
1277.333, 1120.106
1277.815, 1137.989
1278.297, 1137.991
1278.780, 1119.149
1279.262, 1102.092
1279.744, 1090.971
1280.226, 1086.587
1280.708, 1093.641
1281.190, 1104.159
1281.672, 1115.430
1282.154, 1124.820
1282.637, 1118.542
1283.119, 1098.943
1283.601, 1089.396
1284.083, 1095.776
1284.565, 1104.773
1285.047, 1112.929
1285.529, 1115.807
1286.011, 1108.506
1286.494, 1097.127
1286.976, 1102.727
1287.458, 1119.182
1287.940, 1123.198
1288.422, 1107.633
1288.904, 1100.169
1289.386, 1122.787
1289.868, 1139.233
1290.350, 1136.587
1290.833, 1122.640
1291.315, 1106.428
1291.797, 1092.628
1292.279, 1093.578
1292.761, 1114.197
1293.243, 1124.513
1293.725, 1118.781
1294.207, 1109.091
1294.689, 1096.946
1295.172, 1088.379
1295.654, 1096.264
1296.136, 1110.890
1296.618, 1119.347
1297.100, 1119.179
1297.582, 1119.862
1298.064, 1121.698
1298.546, 1122.725
1299.029, 1122.353
1299.511, 1120.891
1299.993, 1119.235
1300.475, 1116.247
1300.957, 1108.209
1301.439, 1096.996
1301.921, 1097.896
1302.403, 1110.272
1302.885, 1114.030
1303.368, 1101.185
1303.850, 1089.540
1304.332, 1095.316
1304.814, 1102.542
1305.296, 1100.280
1305.778, 1092.073
1306.260, 1091.194
1306.742, 1095.692
1307.224, 1097.306
1307.707, 1093.342
1308.189, 1090.366
##END=



