##NAMES=Paravinogradovite
##RRUFFID=R060834
##IDEAL CHEMISTRY=(Na,[box])_2_(Ti^4+^,Fe^3+^)_4_(Si_2_O_6_)_2_(Si_3_AlO_10_)(OH)_4_&#183;H_2_O
##LOCALITY=Kukisvumchorr Mountain, Khibiny Massif, Kola Peninsula, Russia
##OWNER=RRUFF
##SOURCE=Michael Scott
##DESCRIPTION=Aggregates of parallel tan colored acicular crystals associated with zircon
##STATUS=The identification of this mineral is confirmed by single-crystal X-ray diffraction and chemical analysis.
##URL=rruff.info/R060834
##MEASURED CHEMISTRY=(Na_2.13_K_0.14_)_2.27_(Ti^4+^_3.47_Fe^2+^_0.46_Nb^5+^_0.04_Mg_0.03_)_Σ=4_(Si_2.00_O_6_)_2_((Si_2.67_Al_1.17_B_0.16_)_Σ=4_O_10_)(OH)_4_·H_2_O; B and OH by difference and charge balance; Fe^2+^ by charge balance;
154.3069, 11464.15
154.7890, 11534.12
155.2712, 11606.85
155.7533, 11679.88
156.2354, 11752.90
156.7175, 11826.80
157.1996, 11891.98
157.6817, 11963.68
158.1639, 12053.42
158.6460, 12197.19
159.1281, 12327.60
159.6102, 12410.21
160.0923, 12441.93
160.5744, 12492.33
161.0566, 12596.89
161.5387, 12727.78
162.0208, 12854.13
162.5029, 12969.61
162.9850, 13073.72
163.4671, 13160.92
163.9493, 13226.15
164.4314, 13297.61
164.9135, 13398.93
165.3956, 13514.19
165.8777, 13617.78
166.3598, 13676.48
166.8420, 13733.46
167.3241, 13824.29
167.8062, 13963.27
168.2883, 14107.86
168.7704, 14239.74
169.2525, 14358.59
169.7346, 14463.38
170.2168, 14546.04
170.6989, 14617.16
171.1810, 14686.47
171.6631, 14755.67
172.1452, 14824.58
172.6273, 14897.26
173.1095, 14971.12
173.5916, 15038.47
174.0737, 15099.18
174.5558, 15149.15
175.0379, 15181.64
175.5201, 15194.76
176.0022, 15190.19
176.4843, 15164.46
176.9664, 15119.20
177.4485, 15068.56
177.9306, 15024.63
178.4128, 14983.54
178.8949, 14935.89
179.3770, 14876.42
179.8591, 14809.93
180.3412, 14744.87
180.8233, 14680.72
181.3055, 14612.90
181.7876, 14529.87
182.2697, 14437.65
182.7518, 14353.81
183.2339, 14298.70
183.7160, 14254.77
184.1982, 14172.98
184.6803, 14048.05
185.1624, 13922.98
185.6445, 13852.46
186.1266, 13829.17
186.6087, 13803.87
187.0908, 13749.11
187.5730, 13673.43
188.0551, 13613.20
188.5372, 13570.08
189.0193, 13536.08
189.5014, 13504.10
189.9835, 13473.41
190.4657, 13434.08
190.9478, 13372.30
191.4299, 13292.77
191.9120, 13234.59
192.3941, 13202.53
192.8762, 13186.42
193.3584, 13175.45
193.8405, 13170.62
194.3226, 13153.82
194.8047, 13101.71
195.2868, 13016.91
195.7689, 12967.77
196.2511, 12968.19
196.7332, 12996.58
197.2153, 13002.58
197.6974, 12983.98
198.1795, 12959.92
198.6616, 12938.73
199.1438, 12919.78
199.6259, 12915.73
200.1080, 12931.75
200.5901, 12961.66
201.0722, 12984.98
201.5543, 13000.31
202.0364, 13014.48
202.5186, 13036.32
203.0007, 13068.47
203.4828, 13081.78
203.9649, 13061.26
204.4470, 13018.90
204.9291, 13018.40
205.4113, 13070.59
205.8934, 13133.68
206.3755, 13171.47
206.8576, 13177.50
207.3397, 13188.35
207.8218, 13211.61
208.3040, 13245.81
208.7861, 13278.62
209.2682, 13311.17
209.7503, 13340.48
210.2324, 13360.33
210.7145, 13364.80
211.1967, 13384.12
211.6788, 13433.46
212.1609, 13511.35
212.6430, 13553.00
213.1251, 13540.20
213.6072, 13518.63
214.0894, 13537.65
214.5715, 13609.73
215.0536, 13688.65
215.5357, 13765.69
216.0178, 13841.30
216.4999, 13904.43
216.9820, 13947.29
217.4642, 13984.63
217.9463, 14036.29
218.4284, 14109.21
218.9105, 14177.09
219.3926, 14232.80
219.8747, 14274.87
220.3569, 14311.01
220.8390, 14336.29
221.3211, 14360.40
221.8032, 14400.27
222.2853, 14469.08
222.7674, 14526.86
223.2496, 14560.62
223.7317, 14567.16
224.2138, 14569.56
224.6959, 14562.02
225.1780, 14555.55
225.6601, 14568.69
226.1423, 14614.46
226.6244, 14655.60
227.1065, 14677.45
227.5886, 14672.54
228.0707, 14679.62
228.5528, 14703.59
229.0350, 14736.23
229.5171, 14764.93
229.9992, 14795.29
230.4813, 14812.09
230.9634, 14805.67
231.4455, 14762.74
231.9276, 14741.40
232.4098, 14753.84
232.8919, 14781.87
233.3740, 14788.81
233.8561, 14759.12
234.3382, 14733.98
234.8203, 14730.33
235.3025, 14760.06
235.7846, 14776.72
236.2667, 14770.32
236.7488, 14755.26
237.2309, 14763.85
237.7130, 14813.82
238.1952, 14860.21
238.6773, 14883.04
239.1594, 14866.75
239.6415, 14869.12
240.1236, 14893.76
240.6057, 14936.17
241.0879, 14988.75
241.5700, 15062.48
242.0521, 15128.99
242.5342, 15170.99
243.0163, 15160.32
243.4984, 15196.66
243.9806, 15305.09
244.4627, 15452.23
244.9448, 15555.57
245.4269, 15583.86
245.9090, 15613.44
246.3911, 15677.75
246.8732, 15795.33
247.3554, 15900.43
247.8375, 15986.64
248.3196, 16061.51
248.8017, 16148.09
249.2838, 16264.99
249.7659, 16363.30
250.2481, 16414.87
250.7302, 16379.87
251.2123, 16400.40
251.6944, 16504.34
252.1765, 16655.27
252.6586, 16762.76
253.1408, 16802.25
253.6229, 16840.62
254.1050, 16912.55
254.5871, 17043.08
255.0692, 17138.26
255.5513, 17176.48
256.0334, 17187.87
256.5156, 17250.44
256.9977, 17388.08
257.4798, 17536.11
257.9619, 17668.19
258.4440, 17786.12
258.9261, 17881.84
259.4083, 17943.64
259.8904, 17988.60
260.3725, 18057.52
260.8546, 18157.12
261.3367, 18267.76
261.8188, 18381.48
262.3010, 18499.98
262.7831, 18618.97
263.2652, 18744.17
263.7473, 18866.53
264.2294, 18964.28
264.7115, 19022.70
265.1937, 19087.39
265.6758, 19184.37
266.1579, 19325.74
266.6400, 19439.87
267.1221, 19508.69
267.6042, 19563.58
268.0864, 19681.59
268.5685, 19897.83
269.0506, 20086.29
269.5327, 20175.25
270.0148, 20136.45
270.4969, 20153.51
270.9791, 20245.89
271.4612, 20375.18
271.9433, 20458.79
272.4254, 20482.33
272.9075, 20512.48
273.3896, 20577.51
273.8718, 20678.92
274.3539, 20802.71
274.8360, 20960.49
275.3181, 21127.14
275.8002, 21255.56
276.2823, 21339.00
276.7645, 21415.97
277.2466, 21501.53
277.7287, 21595.74
278.2108, 21694.52
278.6929, 21798.62
279.1750, 21906.09
279.6572, 22015.14
280.1393, 22125.98
280.6214, 22234.00
281.1035, 22337.45
281.5856, 22436.13
282.0677, 22528.25
282.5499, 22611.63
283.0320, 22693.33
283.5141, 22784.23
283.9962, 22884.73
284.4783, 22986.94
284.9604, 23095.92
285.4425, 23208.59
285.9247, 23287.74
286.4068, 23328.20
286.8889, 23355.34
287.3710, 23400.53
287.8531, 23463.07
288.3352, 23526.79
288.8174, 23589.51
289.2995, 23649.09
289.7816, 23695.54
290.2637, 23727.26
290.7458, 23749.91
291.2279, 23775.96
291.7101, 23801.60
292.1922, 23801.40
292.6743, 23753.31
293.1564, 23675.92
293.6385, 23622.58
294.1206, 23595.69
294.6028, 23567.01
295.0849, 23510.38
295.5670, 23429.43
296.0491, 23335.78
296.5312, 23231.22
297.0133, 23119.61
297.4955, 23007.43
297.9776, 22897.08
298.4597, 22785.39
298.9418, 22675.71
299.4239, 22564.42
299.9060, 22442.20
300.3882, 22301.75
300.8703, 22153.06
301.3524, 22008.94
301.8345, 21869.06
302.3166, 21736.85
302.7987, 21625.26
303.2809, 21519.69
303.7630, 21390.71
304.2451, 21217.64
304.7272, 21034.03
305.2093, 20881.32
305.6914, 20752.34
306.1736, 20622.79
306.6557, 20471.14
307.1378, 20308.80
307.6199, 20150.24
308.1020, 19998.90
308.5841, 19849.91
309.0663, 19689.09
309.5484, 19523.41
310.0305, 19383.95
310.5126, 19324.27
310.9947, 19278.51
311.4768, 19182.57
311.9590, 19006.92
312.4411, 18821.64
312.9232, 18663.21
313.4053, 18527.52
313.8874, 18407.95
314.3695, 18300.33
314.8517, 18205.61
315.3337, 18131.18
315.8159, 18090.72
316.2980, 18030.57
316.7801, 17899.93
317.2622, 17736.77
317.7443, 17605.78
318.2264, 17556.71
318.7086, 17525.75
319.1907, 17485.99
319.6728, 17434.72
320.1549, 17375.57
320.6370, 17289.75
321.1191, 17202.23
321.6013, 17144.36
322.0834, 17146.66
322.5655, 17158.33
323.0476, 17160.04
323.5297, 17147.22
324.0118, 17151.28
324.4940, 17187.38
324.9761, 17237.54
325.4582, 17284.68
325.9403, 17324.71
326.4224, 17363.58
326.9045, 17401.12
327.3867, 17437.00
327.8688, 17476.75
328.3509, 17511.84
328.8330, 17555.96
329.3151, 17620.01
329.7972, 17732.05
330.2794, 17827.11
330.7615, 17892.69
331.2436, 17933.38
331.7257, 17986.26
332.2078, 18071.36
332.6899, 18148.11
333.1721, 18186.61
333.6542, 18146.06
334.1363, 18154.06
334.6184, 18240.80
335.1005, 18377.80
335.5826, 18472.58
336.0648, 18513.40
336.5469, 18534.12
337.0290, 18547.07
337.5111, 18545.70
337.9932, 18563.64
338.4753, 18611.27
338.9575, 18668.53
339.4396, 18693.48
339.9217, 18678.99
340.4038, 18658.44
340.8859, 18650.29
341.3680, 18655.94
341.8502, 18634.74
342.3323, 18581.23
342.8144, 18515.06
343.2965, 18466.08
343.7786, 18434.79
344.2607, 18402.38
344.7429, 18361.43
345.2250, 18314.12
345.7071, 18268.40
346.1892, 18224.01
346.6713, 18182.21
347.1534, 18137.96
347.6355, 18094.07
348.1176, 18066.24
348.5998, 18064.28
349.0819, 18076.95
349.5640, 18084.51
350.0461, 18086.35
350.5282, 18079.37
351.0103, 18055.64
351.4925, 18021.02
351.9746, 17986.16
352.4567, 17947.22
352.9388, 17918.38
353.4209, 17926.27
353.9030, 17963.47
354.3852, 17996.03
354.8673, 17990.93
355.3494, 17974.38
355.8315, 17979.49
356.3136, 18017.12
356.7957, 18063.85
357.2779, 18102.36
357.7600, 18136.93
358.2421, 18175.86
358.7242, 18226.79
359.2063, 18281.67
359.6884, 18328.08
360.1706, 18359.15
360.6527, 18415.20
361.1348, 18537.26
361.6169, 18690.32
362.0990, 18825.62
362.5811, 18926.68
363.0633, 19008.79
363.5454, 19062.32
364.0275, 19085.41
364.5096, 19141.98
364.9917, 19280.16
365.4738, 19441.92
365.9560, 19580.51
366.4381, 19702.15
366.9202, 19783.61
367.4023, 19802.74
367.8844, 19767.78
368.3665, 19751.74
368.8487, 19767.91
369.3308, 19797.13
369.8129, 19832.07
370.2950, 19907.36
370.7771, 19934.35
371.2592, 19889.02
371.7414, 19797.51
372.2235, 19729.25
372.7056, 19703.04
373.1877, 19670.70
373.6698, 19612.17
374.1519, 19522.10
374.6341, 19428.92
375.1162, 19340.85
375.5983, 19241.08
376.0804, 19098.28
376.5625, 18902.63
377.0446, 18705.75
377.5267, 18523.68
378.0089, 18354.89
378.4910, 18204.40
378.9731, 18080.08
379.4552, 17949.27
379.9373, 17772.79
380.4194, 17551.12
380.9016, 17341.88
381.3837, 17159.50
381.8658, 16995.45
382.3479, 16820.60
382.8300, 16636.24
383.3121, 16466.62
383.7943, 16332.11
384.2764, 16228.54
384.7585, 16146.65
385.2406, 16092.43
385.7227, 16042.01
386.2048, 15964.20
386.6870, 15864.45
387.1691, 15761.55
387.6512, 15651.62
388.1333, 15551.37
388.6154, 15481.07
389.0975, 15444.06
389.5797, 15426.37
390.0618, 15432.65
390.5439, 15448.75
391.0260, 15452.90
391.5081, 15430.84
391.9902, 15399.41
392.4724, 15361.58
392.9545, 15319.27
393.4366, 15291.84
393.9187, 15310.29
394.4008, 15336.09
394.8829, 15338.44
395.3651, 15286.91
395.8472, 15237.25
396.3293, 15203.51
396.8114, 15182.53
397.2935, 15162.74
397.7756, 15145.10
398.2578, 15125.36
398.7399, 15100.21
399.2220, 15061.09
399.7041, 15032.25
400.1862, 15029.08
400.6683, 15031.03
401.1505, 15004.25
401.6326, 14926.69
402.1147, 14852.54
402.5968, 14798.57
403.0789, 14767.62
403.5610, 14720.62
404.0432, 14649.24
404.5253, 14573.75
405.0074, 14518.41
405.4895, 14492.45
405.9716, 14444.01
406.4537, 14349.49
406.9359, 14230.88
407.4180, 14183.18
407.9001, 14217.82
408.3822, 14257.02
408.8643, 14240.40
409.3464, 14174.61
409.8285, 14128.41
410.3106, 14113.13
410.7928, 14108.37
411.2749, 14079.09
411.7570, 14029.72
412.2391, 13989.09
412.7212, 13977.04
413.2033, 13981.48
413.6855, 13978.52
414.1676, 13967.09
414.6497, 13958.77
415.1318, 13963.92
415.6139, 13978.95
416.0960, 13998.17
416.5782, 14027.44
417.0603, 14052.50
417.5424, 14056.16
418.0245, 14042.74
418.5066, 14034.48
418.9887, 14044.61
419.4709, 14063.10
419.9530, 14082.25
420.4351, 14098.46
420.9172, 14119.79
421.3993, 14165.82
421.8814, 14217.38
422.3636, 14238.86
422.8457, 14183.64
423.3278, 14133.47
423.8099, 14122.27
424.2920, 14162.45
424.7741, 14184.28
425.2563, 14162.05
425.7384, 14133.89
426.2205, 14133.31
426.7026, 14175.03
427.1847, 14220.74
427.6668, 14271.34
428.1490, 14322.98
428.6311, 14352.07
429.1132, 14351.49
429.5953, 14341.79
430.0774, 14326.44
430.5595, 14298.51
431.0417, 14315.40
431.5238, 14393.83
432.0059, 14495.42
432.4880, 14551.98
432.9701, 14562.15
433.4522, 14568.66
433.9344, 14593.73
434.4165, 14629.22
434.8986, 14641.81
435.3807, 14630.50
435.8628, 14614.15
436.3449, 14608.61
436.8271, 14611.92
437.3092, 14619.21
437.7913, 14630.66
438.2734, 14643.40
438.7555, 14653.46
439.2376, 14661.66
439.7197, 14671.30
440.2018, 14683.56
440.6840, 14698.29
441.1661, 14718.09
441.6482, 14745.84
442.1303, 14764.81
442.6124, 14760.42
443.0945, 14743.26
443.5767, 14728.05
444.0588, 14720.13
444.5409, 14713.95
445.0230, 14711.44
445.5051, 14712.24
445.9872, 14702.37
446.4694, 14662.52
446.9515, 14623.55
447.4336, 14604.54
447.9157, 14631.44
448.3978, 14641.86
448.8799, 14630.29
449.3621, 14602.87
449.8442, 14573.80
450.3263, 14544.04
450.8084, 14510.71
451.2905, 14469.58
451.7726, 14419.50
452.2548, 14383.59
452.7369, 14364.62
453.2190, 14353.07
453.7011, 14342.73
454.1832, 14333.82
454.6653, 14309.36
455.1475, 14257.70
455.6296, 14195.68
456.1117, 14166.33
456.5938, 14168.20
457.0759, 14169.18
457.5580, 14147.19
458.0402, 14109.41
458.5223, 14067.12
459.0044, 14018.85
459.4865, 13978.95
459.9686, 13970.00
460.4507, 13978.30
460.9329, 13977.16
461.4150, 13949.47
461.8971, 13912.98
462.3792, 13871.15
462.8613, 13826.82
463.3434, 13799.93
463.8256, 13823.45
464.3077, 13853.51
464.7898, 13857.12
465.2719, 13805.29
465.7540, 13763.38
466.2361, 13747.45
466.7183, 13749.11
467.2004, 13751.86
467.6825, 13749.83
468.1646, 13753.43
468.6467, 13763.70
469.1288, 13779.88
469.6110, 13810.74
470.0930, 13862.71
470.5752, 13920.72
471.0573, 13974.43
471.5394, 14025.03
472.0215, 14061.67
472.5036, 14075.02
472.9857, 14079.55
473.4679, 14113.98
473.9500, 14179.17
474.4321, 14258.97
474.9142, 14352.34
475.3963, 14454.83
475.8784, 14543.02
476.3606, 14614.55
476.8427, 14689.95
477.3248, 14792.14
477.8069, 14914.65
478.2890, 15040.54
478.7711, 15159.71
479.2533, 15286.25
479.7354, 15435.39
480.2175, 15604.59
480.6996, 15783.66
481.1817, 15954.27
481.6638, 16138.44
482.1460, 16357.63
482.6281, 16621.44
483.1102, 16884.53
483.5923, 17122.23
484.0744, 17352.27
484.5565, 17597.29
485.0387, 17864.99
485.5208, 18139.36
486.0029, 18424.97
486.4850, 18719.31
486.9671, 18998.46
487.4492, 19256.33
487.9314, 19502.42
488.4135, 19742.04
488.8956, 19974.93
489.3777, 20200.97
489.8598, 20427.33
490.3419, 20642.05
490.8241, 20831.92
491.3062, 20998.35
491.7883, 21138.36
492.2704, 21256.90
492.7525, 21348.27
493.2346, 21395.68
493.7168, 21398.32
494.1989, 21362.79
494.6810, 21287.27
495.1631, 21177.39
495.6452, 21043.86
496.1273, 20889.95
496.6095, 20708.78
497.0916, 20485.87
497.5737, 20235.19
498.0558, 19982.00
498.5379, 19761.80
499.0201, 19525.77
499.5022, 19229.70
499.9843, 18875.90
500.4664, 18548.66
500.9485, 18300.76
501.4306, 18078.51
501.9127, 17849.93
502.3948, 17600.28
502.8770, 17360.86
503.3591, 17135.59
503.8412, 16923.36
504.3233, 16718.74
504.8054, 16516.88
505.2875, 16331.42
505.7697, 16165.64
506.2518, 16017.75
506.7339, 15880.90
507.2160, 15754.47
507.6981, 15640.13
508.1802, 15545.24
508.6624, 15469.38
509.1445, 15380.84
509.6266, 15272.32
510.1087, 15159.83
510.5908, 15070.75
511.0729, 15001.29
511.5551, 14931.93
512.0372, 14847.96
512.5193, 14761.59
513.0014, 14685.23
513.4835, 14619.65
513.9656, 14576.61
514.4478, 14586.74
514.9299, 14611.65
515.4120, 14612.13
515.8941, 14569.56
516.3762, 14524.05
516.8583, 14488.81
517.3405, 14461.45
517.8226, 14438.54
518.3047, 14402.73
518.7868, 14387.80
519.2689, 14415.38
519.7510, 14484.81
520.2332, 14529.38
520.7153, 14538.56
521.1974, 14534.56
521.6795, 14527.20
522.1616, 14511.46
522.6437, 14511.77
523.1259, 14531.77
523.6080, 14564.54
524.0901, 14598.75
524.5722, 14634.63
525.0543, 14676.83
525.5364, 14728.18
526.0186, 14786.93
526.5007, 14849.27
526.9828, 14914.61
527.4649, 14983.51
527.9470, 15067.57
528.4291, 15150.98
528.9113, 15206.57
529.3934, 15221.93
529.8755, 15244.15
530.3576, 15310.77
530.8397, 15403.94
531.3218, 15498.98
531.8040, 15591.46
532.2861, 15679.62
532.7682, 15764.00
533.2503, 15844.46
533.7324, 15911.29
534.2145, 15945.94
534.6967, 15982.74
535.1788, 16038.40
535.6609, 16121.59
536.1430, 16197.36
536.6251, 16263.87
537.1072, 16323.81
537.5894, 16375.24
538.0715, 16413.95
538.5536, 16467.96
539.0357, 16548.71
539.5178, 16642.87
539.9999, 16710.27
540.4821, 16750.45
540.9642, 16798.26
541.4463, 16893.20
541.9284, 17006.75
542.4105, 17073.93
542.8926, 17090.09
543.3748, 17089.79
543.8569, 17093.41
544.3390, 17100.39
544.8211, 17108.81
545.3032, 17108.17
545.7853, 17123.70
546.2675, 17189.00
546.7495, 17279.82
547.2316, 17340.52
547.7137, 17329.88
548.1959, 17312.04
548.6780, 17317.54
549.1601, 17353.38
549.6422, 17346.57
550.1243, 17269.50
550.6064, 17179.70
551.0886, 17116.28
551.5707, 17085.90
552.0528, 17058.73
552.5349, 17033.50
553.0170, 17010.57
553.4991, 16995.06
553.9813, 16986.88
554.4634, 16965.66
554.9455, 16912.61
555.4276, 16847.81
555.9097, 16831.59
556.3918, 16857.46
556.8740, 16863.81
557.3561, 16789.61
557.8382, 16680.21
558.3203, 16589.73
558.8024, 16527.74
559.2845, 16472.50
559.7667, 16409.04
560.2488, 16345.77
560.7309, 16291.77
561.2130, 16260.82
561.6951, 16226.67
562.1772, 16175.26
562.6594, 16113.61
563.1415, 16071.43
563.6236, 16067.08
564.1057, 16058.27
564.5878, 16027.86
565.0699, 15973.80
565.5521, 15926.22
566.0342, 15887.83
566.5163, 15848.85
566.9984, 15793.96
567.4805, 15724.83
567.9626, 15674.13
568.4448, 15649.78
568.9269, 15636.62
569.4090, 15611.74
569.8911, 15578.78
570.3732, 15549.17
570.8553, 15533.48
571.3375, 15520.41
571.8196, 15502.90
572.3017, 15479.83
572.7838, 15445.55
573.2659, 15378.15
573.7480, 15311.50
574.2302, 15269.74
574.7123, 15266.19
575.1944, 15260.10
575.6765, 15241.01
576.1586, 15218.41
576.6407, 15203.47
577.1229, 15208.46
577.6050, 15197.10
578.0871, 15155.13
578.5692, 15097.98
579.0513, 15075.81
579.5334, 15093.95
580.0156, 15118.94
580.4977, 15138.22
580.9798, 15152.04
581.4619, 15164.00
581.9440, 15174.32
582.4261, 15172.93
582.9083, 15134.83
583.3904, 15082.79
583.8725, 15058.23
584.3546, 15075.06
584.8367, 15098.62
585.3188, 15099.68
585.8010, 15092.57
586.2831, 15099.59
586.7652, 15138.47
587.2473, 15181.75
587.7294, 15232.27
588.2115, 15284.67
588.6937, 15304.08
589.1758, 15246.15
589.6579, 15206.99
590.1400, 15230.85
590.6221, 15329.90
591.1042, 15399.17
591.5864, 15432.42
592.0685, 15449.10
592.5506, 15460.70
593.0327, 15468.25
593.5148, 15491.35
593.9969, 15534.01
594.4791, 15591.57
594.9612, 15667.22
595.4433, 15753.80
595.9254, 15828.86
596.4075, 15869.34
596.8896, 15903.91
597.3718, 15965.10
597.8539, 16046.05
598.3360, 16109.36
598.8181, 16112.33
599.3002, 16112.96
599.7823, 16148.06
600.2645, 16232.91
600.7466, 16308.32
601.2287, 16363.36
601.7108, 16411.35
602.1929, 16461.13
602.6750, 16507.26
603.1572, 16571.49
603.6393, 16665.05
604.1214, 16767.91
604.6035, 16835.35
605.0856, 16866.49
605.5677, 16911.44
606.0499, 17005.81
606.5320, 17117.66
607.0141, 17164.21
607.4962, 17154.58
607.9783, 17159.22
608.4604, 17242.63
608.9425, 17354.41
609.4246, 17445.51
609.9067, 17510.90
610.3889, 17556.55
610.8710, 17568.76
611.3531, 17571.12
611.8352, 17584.85
612.3173, 17635.38
612.7994, 17669.36
613.2816, 17679.90
613.7637, 17674.66
614.2458, 17665.43
614.7279, 17646.51
615.2100, 17640.94
615.6921, 17659.16
616.1743, 17695.19
616.6564, 17722.57
617.1385, 17741.32
617.6206, 17753.86
618.1027, 17761.59
618.5848, 17764.23
619.0670, 17758.64
619.5491, 17744.14
620.0312, 17732.15
620.5133, 17741.32
620.9954, 17753.17
621.4775, 17742.86
621.9597, 17681.74
622.4418, 17639.47
622.9239, 17661.45
623.4060, 17711.36
623.8881, 17731.08
624.3702, 17687.80
624.8524, 17647.95
625.3345, 17625.07
625.8166, 17614.24
626.2987, 17591.77
626.7808, 17555.54
627.2629, 17515.23
627.7451, 17473.46
628.2272, 17431.18
628.7093, 17397.29
629.1914, 17372.54
629.6735, 17344.96
630.1556, 17297.97
630.6378, 17243.57
631.1199, 17202.59
631.6020, 17179.99
632.0841, 17165.96
632.5662, 17161.41
633.0483, 17159.20
633.5305, 17149.89
634.0126, 17129.22
634.4947, 17103.38
634.9768, 17060.75
635.4589, 17013.29
635.9410, 16999.87
636.4232, 17050.26
636.9053, 17081.10
637.3874, 17057.39
637.8695, 16986.25
638.3516, 16945.51
638.8337, 16937.09
639.3159, 16942.35
639.7980, 16955.86
640.2801, 16972.68
640.7622, 16973.89
641.2443, 16957.01
641.7264, 16939.88
642.2086, 16936.69
642.6907, 16943.79
643.1728, 16957.89
643.6549, 16986.62
644.1370, 17008.01
644.6191, 17009.14
645.1013, 16998.46
645.5834, 16990.01
646.0655, 16965.70
646.5476, 16969.64
647.0297, 17021.92
647.5118, 17108.53
647.9940, 17159.95
648.4761, 17161.37
648.9582, 17176.25
649.4403, 17247.44
649.9224, 17359.95
650.4045, 17430.17
650.8867, 17457.71
651.3688, 17467.87
651.8509, 17470.71
652.3330, 17473.42
652.8151, 17488.16
653.2972, 17517.71
653.7794, 17553.64
654.2615, 17593.02
654.7436, 17635.34
655.2257, 17679.84
655.7078, 17723.99
656.1899, 17774.67
656.6721, 17848.15
657.1542, 17925.11
657.6363, 17966.82
658.1184, 17957.03
658.6005, 17951.93
659.0826, 17963.76
659.5648, 17991.09
660.0469, 18033.61
660.5290, 18091.53
661.0111, 18147.22
661.4932, 18189.14
661.9753, 18222.06
662.4575, 18256.77
662.9396, 18293.33
663.4217, 18320.68
663.9038, 18301.99
664.3859, 18289.09
664.8680, 18338.24
665.3502, 18485.54
665.8323, 18604.72
666.3144, 18649.62
666.7965, 18659.85
667.2786, 18674.09
667.7607, 18685.95
668.2429, 18714.99
668.7250, 18771.66
669.2071, 18835.61
669.6892, 18861.60
670.1713, 18847.73
670.6534, 18852.20
671.1355, 18906.05
671.6176, 18975.78
672.0997, 18991.29
672.5818, 18963.86
673.0640, 18940.73
673.5461, 18962.21
674.0282, 18989.57
674.5103, 18990.79
674.9924, 18966.68
675.4745, 18945.65
675.9567, 18944.68
676.4388, 18945.10
676.9209, 18933.13
677.4030, 18899.03
677.8851, 18894.60
678.3672, 18934.80
678.8494, 18981.95
679.3315, 18998.26
679.8136, 18981.98
680.2957, 18970.43
680.7778, 18967.69
681.2599, 18968.23
681.7421, 18955.29
682.2242, 18939.02
682.7063, 18950.25
683.1884, 19023.20
683.6705, 19092.55
684.1526, 19104.72
684.6348, 19076.90
685.1169, 19047.11
685.5990, 19021.88
686.0811, 19002.88
686.5632, 18997.57
687.0453, 19002.31
687.5275, 18990.27
688.0096, 18951.55
688.4917, 18917.57
688.9738, 18901.79
689.4559, 18903.57
689.9380, 18914.28
690.4202, 18934.63
690.9023, 18951.64
691.3844, 18942.18
691.8665, 18924.66
692.3486, 18940.29
692.8307, 18997.86
693.3129, 19047.43
693.7950, 19052.11
694.2771, 19032.85
694.7592, 19009.70
695.2413, 18976.59
695.7234, 18955.74
696.2056, 18951.75
696.6877, 18961.23
697.1698, 18987.40
697.6519, 19049.85
698.1340, 19068.59
698.6161, 19017.28
699.0983, 18930.90
699.5804, 18884.20
700.0625, 18875.29
700.5446, 18878.07
701.0267, 18882.96
701.5089, 18892.65
701.9910, 18912.03
702.4731, 18939.69
702.9552, 18970.00
703.4373, 19000.85
703.9194, 19032.58
704.4016, 19071.82
704.8837, 19119.59
705.3658, 19141.00
705.8479, 19108.92
706.3300, 19077.67
706.8121, 19073.19
707.2943, 19098.07
707.7764, 19130.88
708.2585, 19173.29
708.7406, 19218.29
709.2227, 19257.35
709.7048, 19293.29
710.1870, 19337.37
710.6691, 19394.10
711.1512, 19445.95
711.6333, 19480.30
712.1154, 19500.89
712.5975, 19510.45
713.0797, 19488.08
713.5618, 19487.85
714.0439, 19543.54
714.5260, 19625.89
715.0081, 19685.64
715.4902, 19711.27
715.9724, 19732.91
716.4545, 19752.78
716.9366, 19772.90
717.4187, 19800.82
717.9008, 19836.68
718.3829, 19866.50
718.8651, 19879.11
719.3472, 19886.54
719.8293, 19917.35
720.3114, 19964.14
720.7935, 19995.13
721.2756, 19975.79
721.7578, 19948.66
722.2399, 19939.12
722.7220, 19948.66
723.2041, 19966.17
723.6862, 20011.32
724.1683, 20041.80
724.6505, 20034.62
725.1326, 19984.79
725.6147, 19942.21
726.0968, 19907.49
726.5789, 19878.27
727.0610, 19852.80
727.5432, 19831.18
728.0253, 19815.57
728.5074, 19807.19
728.9895, 19797.27
729.4716, 19785.18
729.9537, 19764.37
730.4359, 19724.02
730.9180, 19645.10
731.4001, 19581.36
731.8822, 19571.08
732.3643, 19573.29
732.8464, 19531.65
733.3285, 19410.89
733.8106, 19326.07
734.2927, 19300.37
734.7748, 19303.68
735.2570, 19285.27
735.7391, 19244.95
736.2212, 19179.41
736.7033, 19074.83
737.1854, 18962.18
737.6675, 18879.41
738.1497, 18822.94
738.6318, 18780.84
739.1139, 18768.65
739.5960, 18750.19
740.0781, 18703.89
740.5602, 18634.54
741.0424, 18572.77
741.5245, 18518.37
742.0066, 18476.33
742.4887, 18459.30
742.9708, 18460.38
743.4529, 18406.00
743.9351, 18289.90
744.4172, 18173.35
744.8993, 18100.58
745.3814, 18053.61
745.8635, 17991.29
746.3456, 17912.90
746.8278, 17841.28
747.3099, 17796.34
747.7920, 17761.02
748.2741, 17729.74
748.7562, 17709.66
749.2383, 17652.96
749.7205, 17520.19
750.2026, 17382.13
750.6847, 17291.01
751.1668, 17261.91
751.6489, 17203.32
752.1310, 17105.81
752.6132, 17006.66
753.0953, 16948.53
753.5774, 16922.97
754.0595, 16911.20
754.5416, 16915.83
755.0237, 16905.30
755.5059, 16839.41
755.9880, 16747.82
756.4701, 16666.60
756.9522, 16618.15
757.4343, 16562.62
757.9164, 16479.34
758.3986, 16391.91
758.8807, 16334.40
759.3628, 16319.76
759.8449, 16292.05
760.3270, 16241.29
760.8091, 16175.72
761.2913, 16097.46
761.7734, 16014.32
762.2555, 15959.33
762.7376, 15964.92
763.2197, 15979.13
763.7018, 15953.98
764.1840, 15899.75
764.6661, 15839.19
765.1482, 15768.02
765.6303, 15705.87
766.1124, 15662.77
766.5945, 15632.80
767.0767, 15597.25
767.5588, 15552.59
768.0409, 15509.75
768.5230, 15470.32
769.0051, 15435.75
769.4872, 15419.10
769.9694, 15416.60
770.4515, 15397.80
770.9336, 15320.03
771.4157, 15233.69
771.8978, 15198.09
772.3799, 15207.61
772.8621, 15205.59
773.3442, 15168.38
773.8263, 15118.16
774.3084, 15058.44
774.7905, 14989.12
775.2726, 14946.95
775.7548, 14942.20
776.2369, 14939.52
776.7190, 14917.11
777.2011, 14877.99
777.6832, 14838.67
778.1653, 14799.25
778.6475, 14761.63
779.1296, 14731.02
779.6117, 14700.59
780.0938, 14655.22
780.5759, 14589.78
781.0580, 14550.61
781.5402, 14584.73
782.0223, 14624.71
782.5044, 14626.53
782.9865, 14580.09
783.4686, 14530.68
783.9507, 14473.61
784.4329, 14424.23
784.9150, 14399.60
785.3971, 14394.98
785.8792, 14388.69
786.3613, 14378.87
786.8434, 14366.36
787.3256, 14343.68
787.8077, 14323.25
788.2898, 14321.71
788.7719, 14353.48
789.2540, 14375.99
789.7361, 14374.01
790.2183, 14360.96
790.7004, 14346.58
791.1825, 14326.93
791.6646, 14319.65
792.1467, 14328.60
792.6288, 14341.92
793.1110, 14345.61
793.5930, 14340.79
794.0751, 14330.86
794.5573, 14314.24
795.0394, 14300.11
795.5215, 14306.77
796.0036, 14316.96
796.4857, 14308.70
796.9678, 14248.59
797.4500, 14208.90
797.9321, 14207.55
798.4142, 14223.74
798.8963, 14233.92
799.3784, 14240.53
799.8605, 14225.97
800.3427, 14181.43
800.8248, 14129.90
801.3069, 14104.04
801.7890, 14099.25
802.2711, 14102.71
802.7532, 14113.76
803.2354, 14125.53
803.7175, 14134.46
804.1996, 14141.00
804.6817, 14146.04
805.1638, 14160.23
805.6459, 14157.68
806.1281, 14129.01
806.6102, 14086.94
807.0923, 14054.64
807.5744, 14032.02
808.0565, 14018.79
808.5386, 14016.30
809.0208, 14020.65
809.5029, 14028.39
809.9850, 14038.39
810.4671, 14047.82
810.9492, 14052.95
811.4313, 14059.92
811.9135, 14066.96
812.3956, 14078.04
812.8777, 14104.57
813.3598, 14166.76
813.8419, 14203.87
814.3240, 14198.03
814.8062, 14166.45
815.2883, 14143.85
815.7704, 14130.79
816.2525, 14132.07
816.7346, 14153.09
817.2167, 14184.54
817.6989, 14226.91
818.1810, 14271.13
818.6631, 14296.47
819.1452, 14282.80
819.6273, 14264.07
820.1094, 14244.39
820.5916, 14227.99
821.0737, 14224.02
821.5558, 14231.00
822.0379, 14259.07
822.5200, 14320.78
823.0021, 14393.26
823.4843, 14420.17
823.9664, 14412.19
824.4485, 14413.96
824.9306, 14460.16
825.4127, 14509.14
825.8948, 14520.24
826.3770, 14510.83
826.8591, 14525.31
827.3412, 14593.55
827.8233, 14662.19
828.3054, 14725.72
828.7875, 14781.71
829.2697, 14817.40
829.7518, 14831.80
830.2339, 14850.39
830.7160, 14880.49
831.1981, 14922.63
831.6802, 14986.20
832.1624, 15063.29
832.6445, 15131.25
833.1266, 15174.64
833.6087, 15213.26
834.0908, 15248.46
834.5729, 15285.34
835.0551, 15339.84
835.5372, 15424.27
836.0193, 15495.79
836.5014, 15539.14
836.9835, 15569.56
837.4656, 15622.16
837.9478, 15694.30
838.4299, 15773.99
838.9120, 15863.32
839.3941, 15950.88
839.8762, 16023.08
840.3583, 16086.38
840.8405, 16154.92
841.3226, 16236.67
841.8047, 16318.29
842.2868, 16396.53
842.7689, 16473.46
843.2510, 16553.06
843.7332, 16635.92
844.2153, 16713.17
844.6974, 16778.91
845.1795, 16843.53
845.6616, 16926.29
846.1437, 17020.48
846.6259, 17109.53
847.1080, 17173.58
847.5901, 17245.88
848.0722, 17350.40
848.5543, 17470.73
849.0364, 17575.41
849.5186, 17665.55
850.0007, 17734.96
850.4828, 17772.96
850.9649, 17804.17
851.4470, 17886.28
851.9291, 18007.58
852.4113, 18102.89
852.8934, 18141.37
853.3755, 18174.44
853.8576, 18252.32
854.3397, 18353.17
854.8218, 18444.37
855.3040, 18502.98
855.7860, 18572.23
856.2681, 18666.82
856.7502, 18764.46
857.2324, 18827.21
857.7145, 18851.09
858.1966, 18901.29
858.6787, 18994.49
859.1608, 19098.49
859.6429, 19181.32
860.1251, 19244.39
860.6072, 19291.02
861.0893, 19310.09
861.5714, 19336.83
862.0535, 19390.32
862.5356, 19455.23
863.0178, 19516.25
863.4999, 19576.50
863.9820, 19621.57
864.4641, 19648.45
864.9462, 19663.97
865.4283, 19663.14
865.9105, 19657.27
866.3926, 19687.98
866.8747, 19769.59
867.3568, 19844.49
867.8389, 19868.86
868.3210, 19867.26
868.8032, 19859.55
869.2853, 19836.06
869.7674, 19840.04
870.2495, 19885.37
870.7316, 19938.75
871.2137, 19968.80
871.6959, 19978.30
872.1780, 20007.77
872.6601, 20061.64
873.1422, 20098.99
873.6243, 20057.92
874.1064, 19996.76
874.5886, 19981.09
875.0707, 20024.31
875.5528, 20072.98
876.0349, 20134.97
876.5170, 20177.94
876.9991, 20173.43
877.4813, 20116.75
877.9634, 20118.33
878.4455, 20184.66
878.9276, 20249.76
879.4097, 20250.55
879.8918, 20225.16
880.3740, 20238.09
880.8561, 20288.15
881.3382, 20327.51
881.8203, 20324.52
882.3024, 20314.65
882.7845, 20312.00
883.2667, 20317.10
883.7488, 20340.18
884.2309, 20388.48
884.7130, 20425.47
885.1951, 20429.05
885.6772, 20410.96
886.1594, 20392.48
886.6415, 20376.54
887.1236, 20375.44
887.6057, 20417.56
888.0878, 20455.63
888.5699, 20457.82
889.0521, 20432.55
889.5342, 20417.98
890.0163, 20418.67
890.4984, 20423.18
890.9805, 20429.64
891.4626, 20437.22
891.9448, 20447.31
892.4269, 20457.41
892.9090, 20455.40
893.3911, 20422.89
893.8732, 20394.13
894.3553, 20399.04
894.8375, 20424.05
895.3196, 20445.68
895.8017, 20473.19
896.2838, 20474.44
896.7659, 20438.91
897.2480, 20385.05
897.7302, 20341.97
898.2123, 20308.60
898.6944, 20262.03
899.1765, 20195.42
899.6586, 20128.78
900.1407, 20092.17
900.6229, 20064.19
901.1050, 20014.71
901.5871, 19908.26
902.0692, 19846.74
902.5513, 19865.41
903.0334, 19902.65
903.5156, 19904.76
903.9977, 19870.04
904.4798, 19847.13
904.9619, 19838.52
905.4440, 19834.50
905.9261, 19836.53
906.4083, 19832.23
906.8904, 19803.36
907.3725, 19746.42
907.8546, 19687.19
908.3367, 19616.17
908.8188, 19562.35
909.3010, 19546.32
909.7831, 19567.01
910.2652, 19569.86
910.7473, 19554.07
911.2294, 19532.27
911.7115, 19510.12
912.1937, 19487.89
912.6758, 19462.69
913.1579, 19436.57
913.6400, 19418.84
914.1221, 19420.47
914.6042, 19423.49
915.0864, 19429.72
915.5685, 19431.92
916.0506, 19394.35
916.5327, 19308.28
917.0148, 19249.77
917.4969, 19253.62
917.9790, 19282.90
918.4611, 19286.13
918.9432, 19268.67
919.4254, 19242.15
919.9075, 19196.04
920.3896, 19159.95
920.8717, 19151.93
921.3538, 19155.44
921.8359, 19147.01
922.3181, 19122.09
922.8002, 19104.69
923.2823, 19097.58
923.7644, 19096.21
924.2465, 19103.92
924.7286, 19110.30
925.2108, 19090.57
925.6929, 19030.89
926.1750, 18984.49
926.6571, 19001.78
927.1392, 19020.45
927.6213, 18987.25
928.1035, 18888.55
928.5856, 18821.59
929.0677, 18791.97
929.5498, 18769.82
930.0319, 18734.22
930.5140, 18689.25
930.9962, 18637.54
931.4783, 18580.47
931.9604, 18532.56
932.4425, 18519.15
932.9246, 18497.88
933.4067, 18434.95
933.8889, 18341.42
934.3710, 18286.11
934.8531, 18277.84
935.3352, 18264.95
935.8173, 18225.69
936.2994, 18171.38
936.7816, 18119.30
937.2637, 18069.94
937.7458, 18026.17
938.2279, 18001.22
938.7100, 17968.10
939.1921, 17907.19
939.6743, 17836.38
940.1564, 17784.73
940.6385, 17758.96
941.1206, 17721.04
941.6027, 17662.24
942.0848, 17600.17
942.5670, 17558.49
943.0491, 17529.79
943.5312, 17499.60
944.0133, 17465.11
944.4954, 17429.04
944.9775, 17388.50
945.4597, 17350.23
945.9418, 17320.87
946.4239, 17302.83
946.9060, 17278.53
947.3881, 17248.40
947.8702, 17209.45
948.3524, 17147.08
948.8345, 17080.51
949.3166, 17050.15
949.7987, 17050.90
950.2808, 17034.07
950.7629, 16941.84
951.2451, 16868.39
951.7272, 16856.70
952.2093, 16891.53
952.6914, 16920.29
953.1735, 16945.70
953.6556, 16924.00
954.1378, 16810.01
954.6199, 16686.50
955.1020, 16681.64
955.5841, 16748.70
956.0662, 16796.87
956.5483, 16768.45
957.0305, 16753.45
957.5126, 16777.49
957.9947, 16814.64
958.4768, 16835.76
958.9589, 16840.49
959.4410, 16847.39
959.9232, 16859.35
960.4053, 16865.81
960.8874, 16849.91
961.3695, 16826.03
961.8516, 16810.33
962.3337, 16804.96
962.8159, 16807.16
963.2980, 16818.79
963.7801, 16834.61
964.2622, 16854.43
964.7443, 16877.23
965.2264, 16893.06
965.7086, 16902.07
966.1907, 16905.52
966.6728, 16900.74
967.1549, 16893.84
967.6370, 16889.38
968.1191, 16887.47
968.6013, 16888.08
969.0834, 16892.59
969.5655, 16899.24
970.0476, 16913.46
970.5297, 16922.93
971.0118, 16890.18
971.4940, 16827.92
971.9761, 16807.15
972.4582, 16854.58
972.9403, 16908.05
973.4224, 16924.85
973.9045, 16922.37
974.3867, 16915.66
974.8688, 16898.32
975.3509, 16907.45
975.8330, 16958.01
976.3151, 16997.18
976.7972, 16960.55
977.2794, 16882.69
977.7615, 16883.21
978.2436, 16955.68
978.7257, 17012.08
979.2078, 16982.94
979.6899, 16941.99
980.1720, 16927.40
980.6541, 16934.50
981.1362, 16938.30
981.6183, 16937.55
982.1005, 16939.62
982.5826, 16946.88
983.0647, 16958.16
983.5468, 16976.53
984.0289, 16996.81
984.5110, 17007.90
984.9932, 17008.11
985.4753, 16996.48
985.9574, 16956.61
986.4395, 16916.66
986.9216, 16904.43
987.4037, 16924.26
987.8859, 16927.42
988.3680, 16910.94
988.8501, 16891.94
989.3322, 16879.62
989.8143, 16876.11
990.2964, 16889.67
990.7786, 16919.30
991.2607, 16938.24
991.7428, 16932.49
992.2249, 16925.79
992.7070, 16924.96
993.1891, 16928.55
993.6713, 16927.14
994.1534, 16923.29
994.6355, 16936.67
995.1176, 16984.89
995.5997, 17037.29
996.0818, 17074.64
996.5640, 17099.29
997.0461, 17113.13
997.5282, 17108.20
998.0103, 17110.15
998.4924, 17120.93
998.9745, 17135.45
999.4567, 17146.80
999.9388, 17157.83
1000.421, 17179.49
1000.903, 17212.36
1001.385, 17238.76
1001.867, 17233.25
1002.349, 17232.22
1002.831, 17264.27
1003.314, 17322.14
1003.796, 17353.63
1004.278, 17354.98
1004.760, 17360.86
1005.242, 17389.26
1005.724, 17423.73
1006.206, 17439.14
1006.688, 17443.10
1007.171, 17451.13
1007.653, 17480.78
1008.135, 17496.68
1008.617, 17480.14
1009.099, 17464.74
1009.581, 17493.22
1010.063, 17562.94
1010.545, 17612.59
1011.027, 17637.76
1011.510, 17651.80
1011.992, 17647.25
1012.474, 17649.44
1012.956, 17696.26
1013.438, 17788.00
1013.920, 17811.27
1014.402, 17719.71
1014.884, 17668.33
1015.367, 17726.97
1015.849, 17843.42
1016.331, 17897.93
1016.813, 17907.41
1017.295, 17922.48
1017.777, 17966.54
1018.259, 18013.35
1018.741, 18057.00
1019.223, 18095.25
1019.706, 18124.38
1020.188, 18141.41
1020.670, 18166.06
1021.152, 18198.76
1021.634, 18242.30
1022.116, 18299.15
1022.598, 18367.49
1023.080, 18452.15
1023.563, 18551.26
1024.045, 18633.50
1024.527, 18670.93
1025.009, 18721.27
1025.491, 18806.71
1025.973, 18909.57
1026.455, 18977.59
1026.937, 19017.14
1027.419, 19064.06
1027.901, 19135.50
1028.384, 19205.02
1028.866, 19238.58
1029.348, 19268.92
1029.830, 19337.41
1030.312, 19459.46
1030.794, 19571.32
1031.276, 19673.15
1031.758, 19767.32
1032.241, 19843.20
1032.723, 19918.00
1033.205, 20038.07
1033.687, 20193.06
1034.169, 20314.15
1034.651, 20327.71
1035.133, 20357.84
1035.615, 20443.99
1036.098, 20564.78
1036.580, 20675.29
1037.062, 20774.50
1037.544, 20858.23
1038.026, 20919.58
1038.508, 20983.99
1038.990, 21084.48
1039.472, 21193.71
1039.954, 21281.82
1040.437, 21339.82
1040.919, 21398.86
1041.401, 21457.20
1041.883, 21525.25
1042.365, 21628.11
1042.847, 21740.78
1043.329, 21800.97
1043.811, 21818.20
1044.293, 21827.34
1044.776, 21845.24
1045.258, 21855.25
1045.740, 21839.95
1046.222, 21823.15
1046.704, 21856.80
1047.186, 21939.77
1047.668, 21962.26
1048.150, 21902.37
1048.633, 21830.98
1049.115, 21803.66
1049.597, 21801.81
1050.079, 21816.20
1050.561, 21849.13
1051.043, 21857.20
1051.525, 21839.85
1052.007, 21796.06
1052.490, 21713.56
1052.972, 21614.93
1053.454, 21547.84
1053.936, 21505.93
1054.418, 21472.53
1054.900, 21454.68
1055.382, 21425.02
1055.864, 21375.49
1056.346, 21310.19
1056.828, 21229.36
1057.311, 21132.69
1057.793, 21037.36
1058.275, 20944.15
1058.757, 20843.80
1059.239, 20708.94
1059.721, 20579.90
1060.203, 20505.96
1060.685, 20478.30
1061.168, 20402.36
1061.650, 20255.15
1062.132, 20122.56
1062.614, 20028.82
1063.096, 19959.35
1063.578, 19902.59
1064.060, 19850.05
1064.542, 19781.61
1065.025, 19686.36
1065.507, 19593.78
1065.989, 19519.62
1066.471, 19446.05
1066.953, 19363.96
1067.435, 19273.25
1067.917, 19173.96
1068.399, 19066.70
1068.881, 18969.01
1069.364, 18880.38
1069.846, 18813.80
1070.328, 18791.06
1070.810, 18793.82
1071.292, 18783.65
1071.774, 18760.98
1072.256, 18714.61
1072.738, 18638.05
1073.220, 18557.84
1073.703, 18519.45
1074.185, 18490.65
1074.667, 18416.24
1075.149, 18289.74
1075.631, 18183.79
1076.113, 18140.43
1076.595, 18086.17
1077.077, 17984.81
1077.559, 17867.55
1078.042, 17838.06
1078.524, 17875.38
1079.006, 17891.44
1079.488, 17854.04
1079.970, 17796.42
1080.452, 17723.10
1080.934, 17647.11
1081.416, 17576.21
1081.899, 17507.43
1082.381, 17476.79
1082.863, 17487.86
1083.345, 17486.32
1083.827, 17414.88
1084.309, 17326.64
1084.791, 17270.14
1085.273, 17241.05
1085.755, 17223.88
1086.238, 17238.75
1086.720, 17212.85
1087.202, 17123.63
1087.684, 17022.06
1088.166, 16977.36
1088.648, 16971.13
1089.130, 16965.79
1089.612, 16957.14
1090.094, 16934.23
1090.577, 16877.66
1091.059, 16822.67
1091.541, 16785.13
1092.023, 16760.76
1092.505, 16729.57
1092.987, 16693.14
1093.469, 16661.86
1093.951, 16639.75
1094.434, 16622.48
1094.916, 16610.18
1095.398, 16598.64
1095.880, 16582.97
1096.362, 16561.74
1096.844, 16541.66
1097.326, 16522.80
1097.808, 16502.77
1098.291, 16479.73
1098.773, 16454.57
1099.255, 16421.50
1099.737, 16387.49
1100.219, 16375.59
1100.701, 16424.52
1101.183, 16436.51
1101.665, 16392.15
1102.147, 16327.56
1102.630, 16281.29
1103.112, 16253.55
1103.594, 16255.34
1104.076, 16287.53
1104.558, 16296.52
1105.040, 16214.72
1105.522, 16154.36
1106.004, 16169.93
1106.486, 16235.08
1106.969, 16264.08
1107.451, 16259.96
1107.933, 16244.22
1108.415, 16219.73
1108.897, 16196.29
1109.379, 16185.67
1109.861, 16177.08
1110.343, 16158.18
1110.826, 16127.16
1111.308, 16112.55
1111.790, 16117.31
1112.272, 16111.36
1112.754, 16060.65
1113.236, 16003.47
1113.718, 15986.71
1114.200, 15996.18
1114.682, 16000.76
1115.165, 15990.09
1115.647, 15982.62
1116.129, 15977.79
1116.611, 15979.48
1117.093, 16004.14
1117.575, 16033.14
1118.057, 16026.12
1118.539, 15983.86
1119.021, 15938.04
1119.504, 15891.99
1119.986, 15855.41
1120.468, 15830.92
1120.950, 15816.91
1121.432, 15818.60
1121.914, 15829.08
1122.396, 15815.81
1122.878, 15769.26
1123.361, 15720.26
1123.843, 15671.76
1124.325, 15641.98
1124.807, 15646.89
1125.289, 15680.84
1125.771, 15696.44
1126.253, 15694.30
1126.735, 15694.61
1127.218, 15709.52
1127.700, 15722.03
1128.182, 15713.92
1128.664, 15696.36
1129.146, 15684.13
1129.628, 15680.02
1130.110, 15667.65
1130.592, 15643.82
1131.074, 15630.04
1131.557, 15647.53
1132.039, 15679.55
1132.521, 15712.20
1133.003, 15741.71
1133.485, 15757.41
1133.967, 15763.51
1134.449, 15740.92
1134.931, 15677.32
1135.413, 15614.05
1135.896, 15607.36
1136.378, 15632.92
1136.860, 15649.01
1137.342, 15651.89
1137.824, 15643.33
1138.306, 15615.66
1138.788, 15583.29
1139.270, 15535.85
1139.752, 15499.86
1140.235, 15555.35
1140.717, 15669.39
1141.199, 15731.03
1141.681, 15706.79
1142.163, 15678.30
1142.645, 15675.72
1143.127, 15633.91
1143.609, 15694.61
1144.092, 15736.42
1144.574, 15760.27
1145.056, 15712.58
1145.538, 15757.28
1146.020, 15764.95
1146.502, 15771.10
1146.984, 15828.81
1147.466, 15791.52
1147.948, 15848.41
1148.431, 15867.74
1148.913, 15904.24
1149.395, 15903.48
1149.877, 15914.23
1150.359, 15962.25
1150.841, 15989.63
1151.323, 15984.59
1151.805, 16022.18
1152.287, 15983.59
1152.770, 16011.89
1153.252, 16068.99
1153.734, 16065.82
1154.216, 16104.20
1154.698, 16107.51
1155.180, 16092.25
1155.662, 16061.47
1156.144, 16018.44
1156.627, 15980.74
1157.109, 15950.07
1157.591, 15928.36
1158.073, 15922.47
1158.555, 15909.35
1159.037, 15838.69
1159.519, 15747.46
1160.001, 15700.49
1160.484, 15709.55
1160.966, 15708.46
1161.448, 15683.29
1161.930, 15648.22
1162.412, 15604.72
1162.894, 15557.49
1163.376, 15513.02
1163.858, 15473.51
1164.340, 15446.60
1164.823, 15439.13
1165.305, 15428.39
1165.787, 15413.88
1166.269, 15387.45
1166.751, 15336.45
1167.233, 15272.85
1167.715, 15253.17
1168.197, 15266.39
1168.679, 15267.83
1169.162, 15234.40
1169.644, 15192.22
1170.126, 15123.43
1170.608, 15073.66
1171.090, 15095.97
1171.572, 15181.97
1172.054, 15206.95
1172.536, 15177.32
1173.019, 15168.63
1173.501, 15267.74
1173.983, 15348.38
1174.465, 15331.13
1174.947, 15271.82
1175.429, 15237.58
1175.911, 15228.63
1176.393, 15236.87
1176.875, 15261.81
1177.358, 15273.30
1177.840, 15229.54
1178.322, 15184.67
1178.804, 15175.47
1179.286, 15192.61
1179.768, 15214.78
1180.250, 15242.25
1180.732, 15261.00
1181.214, 15267.49
1181.697, 15272.44
1182.179, 15290.96
1182.661, 15306.94
1183.143, 15299.04
1183.625, 15272.49
1184.107, 15271.42
1184.589, 15263.16
1185.071, 15304.42
1185.554, 15326.73
1186.036, 15331.15
1186.518, 15264.00
1187.000, 15289.26
1187.482, 15277.48
1187.964, 15264.19
1188.446, 15302.45
1188.928, 15245.72
1189.411, 15283.16
1189.893, 15283.00
1190.375, 15300.06
1190.857, 15279.86
1191.339, 15271.16
1191.821, 15299.73
1192.303, 15307.67
1192.785, 15242.13
1193.267, 15238.86
1193.750, 15244.72
1194.232, 15253.06
1194.714, 15266.16
1195.196, 15288.57
1195.678, 15317.48
1196.160, 15348.67
1196.642, 15393.89
1197.124, 15410.17
1197.606, 15392.18
1198.089, 15366.11
1198.571, 15352.39
1199.053, 15343.78
1199.535, 15325.93
1200.017, 15304.98
1200.499, 15301.72
1200.981, 15333.43
1201.463, 15350.16
1201.945, 15345.03
1202.428, 15334.81
1202.910, 15342.82
1203.392, 15352.04
1203.874, 15326.13
1204.356, 15273.18
1204.838, 15256.70
1205.320, 15308.96
1205.802, 15341.68
1206.285, 15335.86
1206.767, 15323.07
1207.249, 15351.04
1207.731, 15393.11
1208.213, 15403.96
1208.695, 15380.91
1209.177, 15377.36
1209.659, 15408.33
1210.141, 15439.34
1210.624, 15465.01
1211.106, 15479.76
1211.588, 15468.97
1212.070, 15444.76
1212.552, 15423.37
1213.034, 15407.04
1213.516, 15403.12
1213.998, 15415.41
1214.480, 15431.25
1214.963, 15450.54
1215.445, 15464.03
1215.927, 15446.72
1216.409, 15416.48
1216.891, 15406.06
1217.373, 15429.03
1217.855, 15435.64
1218.337, 15412.77
1218.820, 15400.94
1219.302, 15427.93
1219.784, 15464.05
1220.266, 15446.13
1220.748, 15400.44
1221.230, 15374.59
1221.712, 15389.17
1222.194, 15397.58
1222.677, 15393.36
1223.159, 15394.46
1223.641, 15420.34
1224.123, 15449.10
1224.605, 15425.27
1225.087, 15378.11
1225.569, 15367.32
1226.051, 15439.62
1226.533, 15493.59
1227.016, 15530.97
1227.498, 15540.84
1227.980, 15490.48
1228.462, 15423.81
1228.944, 15417.53
1229.426, 15453.04
1229.908, 15486.85
1230.390, 15520.45
1230.872, 15525.26
1231.355, 15491.66
1231.837, 15461.52
1232.319, 15483.93
1232.801, 15522.50
1233.283, 15516.34
1233.765, 15481.41
1234.247, 15473.12
1234.729, 15512.44
1235.212, 15547.26
1235.694, 15573.41
1236.176, 15596.17
1236.658, 15633.97
1237.140, 15661.02
1237.622, 15626.06
1238.104, 15547.97
1238.586, 15513.80
1239.068, 15548.04
1239.551, 15562.82
1240.033, 15543.63
1240.515, 15528.16
1240.997, 15565.19
1241.479, 15618.88
1241.961, 15656.25
1242.443, 15674.11
1242.925, 15668.98
1243.407, 15632.31
1243.890, 15614.75
1244.372, 15625.90
1244.854, 15648.04
1245.336, 15673.87
1245.818, 15692.28
1246.300, 15688.50
1246.782, 15663.65
1247.264, 15635.72
1247.747, 15600.28
1248.229, 15595.39
1248.711, 15633.92
1249.193, 15676.16
1249.675, 15693.52
1250.157, 15691.53
1250.639, 15661.29
1251.121, 15614.28
1251.604, 15609.92
1252.086, 15650.89
1252.568, 15693.62
1253.050, 15731.29
1253.532, 15750.62
1254.014, 15724.03
1254.496, 15687.36
1254.978, 15667.28
1255.460, 15662.14
1255.943, 15667.35
1256.425, 15681.70
1256.907, 15688.13
1257.389, 15679.72
1257.871, 15671.07
1258.353, 15667.04
1258.835, 15672.05
1259.317, 15696.96
1259.799, 15731.85
1260.281, 15715.90
1260.764, 15659.40
1261.246, 15628.57
1261.728, 15650.25
1262.210, 15677.33
1262.692, 15696.00
1263.174, 15700.74
1263.656, 15681.79
1264.138, 15650.49
1264.621, 15663.02
1265.103, 15704.93
1265.585, 15717.69
1266.067, 15671.63
1266.549, 15628.98
1267.031, 15592.18
1267.513, 15591.32
1267.995, 15660.67
1268.478, 15765.00
1268.960, 15793.48
1269.442, 15769.20
1269.924, 15754.14
1270.406, 15764.14
1270.888, 15791.73
1271.370, 15844.95
1271.852, 15890.53
1272.334, 15906.52
1272.817, 15904.87
1273.299, 15903.25
1273.781, 15906.88
1274.263, 15930.64
1274.745, 16005.59
1275.227, 16026.91
1275.709, 15976.75
1276.191, 15923.88
1276.673, 15913.44
1277.156, 15918.83
1277.638, 15891.41
1278.120, 15853.14
1278.602, 15844.43
1279.084, 15886.67
1279.566, 15908.32
1280.048, 15907.32
1280.530, 15901.68
1281.013, 15896.80
1281.495, 15898.46
1281.977, 15916.80
1282.459, 15943.26
1282.941, 15967.09
1283.423, 15990.64
1283.905, 15983.72
1284.387, 15945.41
1284.870, 15923.09
1285.352, 15958.88
1285.834, 16002.88
1286.316, 16026.73
1286.798, 16036.60
1287.280, 16041.59
1287.762, 16041.83
1288.244, 16032.09
1288.726, 16013.63
1289.208, 15995.53
1289.691, 15973.45
1290.173, 15965.36
1290.655, 15997.29
1291.137, 16030.42
1291.619, 16027.39
1292.101, 15994.24
1292.583, 15977.27
1293.065, 15977.00
1293.548, 15981.02
1294.030, 15979.63
1294.512, 15986.63
1294.994, 16012.66
1295.476, 16030.87
1295.958, 16002.61
1296.440, 15952.07
1296.922, 15956.77
1297.405, 16025.15
##END=



