##NAMES=Parabutlerite
##RRUFFID=R070547
##IDEAL CHEMISTRY=Fe^3+^S^6+^O_4_(OH)&#183;2H_2_O
##LOCALITY=Chuquicamata mine, Calama, El Loa Province, Antofogasta, Chile
##OWNER=RRUFF
##SOURCE=James Shigley
##DESCRIPTION=Granular aggregate of orange microcrystals
##STATUS=The identification of this mineral has been confirmed by single-crystal X-ray diffraction.
##URL=rruff.info/R070547
150.1554, 2634.500
150.6375, 2701.852
151.1196, 2763.981
151.6017, 2812.802
152.0838, 2866.257
152.5659, 2929.719
153.0481, 3005.015
153.5302, 3071.595
154.0123, 3123.540
154.4944, 3168.293
154.9765, 3212.884
155.4586, 3254.378
155.9408, 3299.187
156.4229, 3351.147
156.9050, 3400.176
157.3871, 3426.316
157.8692, 3428.519
158.3513, 3424.569
158.8335, 3436.394
159.3156, 3496.005
159.7977, 3551.017
160.2798, 3575.238
160.7619, 3550.413
161.2440, 3533.681
161.7262, 3550.195
162.2083, 3587.363
162.6904, 3618.398
163.1725, 3627.435
163.6546, 3630.874
164.1367, 3639.062
164.6189, 3656.788
165.1010, 3675.445
165.5831, 3691.885
166.0652, 3706.063
166.5473, 3718.092
167.0294, 3722.363
167.5116, 3726.518
167.9937, 3737.919
168.4758, 3770.141
168.9579, 3799.154
169.4400, 3807.644
169.9221, 3797.176
170.4043, 3781.847
170.8864, 3758.908
171.3685, 3739.048
171.8506, 3736.273
172.3327, 3771.716
172.8148, 3816.697
173.2970, 3844.890
173.7791, 3855.816
174.2612, 3863.657
174.7433, 3878.394
175.2254, 3898.162
175.7076, 3919.531
176.1897, 3940.226
176.6718, 3962.008
177.1539, 3989.256
177.6360, 4023.410
178.1181, 4055.984
178.6003, 4078.792
179.0824, 4093.636
179.5645, 4105.403
180.0466, 4113.382
180.5287, 4120.930
181.0108, 4134.306
181.4930, 4154.660
181.9751, 4179.248
182.4572, 4207.591
182.9393, 4238.659
183.4214, 4264.885
183.9035, 4280.252
184.3857, 4287.082
184.8678, 4290.970
185.3499, 4291.296
185.8320, 4291.113
186.3141, 4295.861
186.7962, 4305.351
187.2784, 4316.065
187.7605, 4328.057
188.2426, 4339.896
188.7247, 4345.139
189.2068, 4341.375
189.6889, 4331.305
190.1711, 4317.693
190.6532, 4300.130
191.1353, 4287.270
191.6174, 4286.348
192.0995, 4296.922
192.5816, 4317.110
193.0638, 4352.163
193.5459, 4394.703
194.0280, 4416.625
194.5101, 4415.434
194.9922, 4409.555
195.4743, 4415.859
195.9565, 4434.153
196.4386, 4460.780
196.9207, 4499.501
197.4028, 4546.925
197.8849, 4579.758
198.3671, 4596.093
198.8492, 4605.220
199.3313, 4615.677
199.8134, 4626.943
200.2955, 4645.411
200.7776, 4673.708
201.2598, 4711.585
201.7419, 4755.069
202.2240, 4805.644
202.7061, 4859.557
203.1882, 4912.032
203.6703, 4963.083
204.1525, 5012.927
204.6346, 5061.785
205.1167, 5109.527
205.5988, 5157.659
206.0809, 5207.553
206.5630, 5255.890
207.0452, 5293.699
207.5273, 5316.068
208.0094, 5345.552
208.4915, 5396.328
208.9736, 5473.459
209.4557, 5539.318
209.9379, 5593.487
210.4200, 5636.679
210.9021, 5669.790
211.3842, 5692.074
211.8663, 5706.763
212.3484, 5713.489
212.8306, 5709.714
213.3127, 5710.441
213.7948, 5720.212
214.2769, 5732.877
214.7590, 5729.896
215.2411, 5705.953
215.7233, 5677.832
216.2054, 5653.527
216.6875, 5632.123
217.1696, 5617.922
217.6517, 5612.866
218.1338, 5614.741
218.6160, 5615.526
219.0981, 5613.775
219.5802, 5613.294
220.0623, 5614.322
220.5444, 5611.621
221.0265, 5625.785
221.5087, 5664.245
221.9908, 5721.579
222.4729, 5765.746
222.9550, 5780.722
223.4371, 5807.287
223.9192, 5880.147
224.4014, 6025.913
224.8835, 6147.911
225.3656, 6227.464
225.8477, 6271.757
226.3298, 6327.719
226.8119, 6398.617
227.2941, 6477.250
227.7762, 6560.040
228.2583, 6645.139
228.7404, 6734.304
229.2225, 6826.422
229.7046, 6921.186
230.1868, 7025.383
230.6689, 7152.206
231.1510, 7270.958
231.6331, 7357.524
232.1152, 7400.051
232.5974, 7433.561
233.0795, 7467.286
233.5616, 7500.322
234.0437, 7507.157
234.5258, 7482.445
235.0079, 7438.347
235.4901, 7388.920
235.9722, 7354.055
236.4543, 7274.634
236.9364, 7126.443
237.4185, 6909.338
237.9006, 6723.733
238.3828, 6591.076
238.8649, 6467.984
239.3470, 6310.122
239.8291, 6093.643
240.3112, 5887.105
240.7933, 5708.666
241.2755, 5558.469
241.7576, 5396.000
242.2397, 5214.962
242.7218, 5027.509
243.2039, 4844.503
243.6860, 4663.359
244.1682, 4490.475
244.6503, 4326.674
245.1324, 4170.759
245.6145, 4035.114
246.0966, 3925.624
246.5787, 3830.779
247.0609, 3738.541
247.5430, 3646.074
248.0251, 3562.034
248.5072, 3490.376
248.9893, 3432.631
249.4714, 3369.811
249.9536, 3297.375
250.4357, 3224.240
250.9178, 3161.358
251.3999, 3117.598
251.8820, 3067.015
252.3641, 2998.315
252.8463, 2909.657
253.3284, 2844.329
253.8105, 2811.286
254.2926, 2793.003
254.7747, 2771.224
255.2568, 2745.737
255.7390, 2716.995
256.2211, 2683.697
256.7032, 2645.727
257.1853, 2609.727
257.6674, 2574.131
258.1495, 2542.705
258.6317, 2521.434
259.1138, 2516.323
259.5959, 2507.549
260.0780, 2489.107
260.5601, 2460.143
261.0422, 2435.730
261.5244, 2416.789
262.0065, 2401.196
262.4886, 2386.458
262.9707, 2371.037
263.4528, 2360.452
263.9349, 2357.793
264.4171, 2363.467
264.8992, 2364.209
265.3813, 2360.979
265.8634, 2351.493
266.3455, 2331.610
266.8276, 2297.364
267.3098, 2264.743
267.7919, 2238.214
268.2740, 2217.897
268.7561, 2192.423
269.2382, 2159.018
269.7203, 2126.024
270.2025, 2104.227
270.6846, 2097.707
271.1667, 2086.540
271.6488, 2063.331
272.1309, 2029.187
272.6130, 2004.279
273.0952, 1990.393
273.5773, 1981.948
274.0594, 1976.474
274.5415, 1976.523
275.0236, 1964.483
275.5057, 1930.856
275.9879, 1879.428
276.4700, 1844.718
276.9521, 1829.793
277.4342, 1823.223
277.9163, 1814.671
278.3984, 1804.043
278.8806, 1792.557
279.3627, 1781.049
279.8448, 1769.037
280.3269, 1751.658
280.8090, 1727.052
281.2911, 1703.689
281.7733, 1689.921
282.2554, 1685.953
282.7375, 1684.140
283.2196, 1683.374
283.7017, 1683.258
284.1838, 1683.484
284.6660, 1684.695
285.1481, 1682.406
285.6302, 1669.108
286.1123, 1645.632
286.5944, 1628.927
287.0765, 1624.099
287.5587, 1627.761
288.0408, 1632.589
288.5229, 1639.171
289.0050, 1640.761
289.4871, 1627.179
289.9692, 1601.316
290.4514, 1583.191
290.9335, 1579.676
291.4156, 1583.624
291.8977, 1576.820
292.3798, 1559.332
292.8619, 1544.908
293.3441, 1546.592
293.8262, 1560.938
294.3083, 1575.572
294.7904, 1590.086
295.2726, 1601.322
295.7547, 1600.720
296.2368, 1589.336
296.7189, 1579.091
297.2010, 1581.668
297.6831, 1591.852
298.1653, 1596.833
298.6474, 1593.874
299.1295, 1586.103
299.6116, 1574.494
300.0937, 1560.378
300.5758, 1550.285
301.0580, 1552.949
301.5401, 1561.641
302.0222, 1564.582
302.5043, 1559.178
302.9864, 1549.877
303.4685, 1538.416
303.9507, 1526.255
304.4328, 1518.726
304.9149, 1521.299
305.3970, 1529.277
305.8791, 1538.885
306.3612, 1551.445
306.8434, 1558.432
307.3255, 1544.252
307.8076, 1518.113
308.2897, 1500.995
308.7718, 1519.163
309.2539, 1543.125
309.7361, 1541.179
310.2182, 1505.894
310.7003, 1470.849
311.1824, 1460.187
311.6645, 1465.663
312.1466, 1473.092
312.6288, 1480.080
313.1109, 1484.250
313.5930, 1483.297
314.0751, 1476.724
314.5572, 1469.104
315.0393, 1460.074
315.5215, 1452.164
316.0036, 1448.600
316.4857, 1456.225
316.9678, 1463.693
317.4499, 1465.008
317.9320, 1459.766
318.4142, 1453.957
318.8963, 1451.069
319.3784, 1448.186
319.8605, 1442.446
320.3426, 1424.251
320.8247, 1411.546
321.3069, 1413.501
321.7890, 1429.227
322.2711, 1441.861
322.7532, 1446.776
323.2353, 1447.397
323.7174, 1446.191
324.1996, 1441.544
324.6817, 1437.229
325.1638, 1435.100
325.6459, 1434.518
326.1280, 1430.970
326.6101, 1419.589
327.0923, 1408.139
327.5744, 1400.933
328.0565, 1396.901
328.5386, 1398.639
329.0207, 1413.343
329.5028, 1435.252
329.9850, 1443.532
330.4671, 1423.524
330.9492, 1404.180
331.4313, 1398.018
331.9134, 1413.888
332.3955, 1426.701
332.8777, 1436.649
333.3598, 1443.432
333.8419, 1445.996
334.3240, 1439.838
334.8061, 1436.453
335.2882, 1440.927
335.7704, 1456.189
336.2525, 1468.254
336.7346, 1476.760
337.2167, 1482.448
337.6988, 1485.901
338.1809, 1485.915
338.6631, 1487.036
339.1452, 1489.133
339.6273, 1491.966
340.1094, 1505.908
340.5915, 1534.323
341.0736, 1567.361
341.5558, 1592.964
342.0379, 1611.129
342.5200, 1625.072
343.0021, 1633.929
343.4842, 1639.266
343.9663, 1649.647
344.4485, 1665.208
344.9306, 1684.814
345.4127, 1706.626
345.8948, 1730.827
346.3769, 1760.415
346.8590, 1798.048
347.3412, 1839.509
347.8233, 1874.925
348.3054, 1904.230
348.7875, 1929.078
349.2696, 1946.459
349.7517, 1959.534
350.2339, 1978.747
350.7160, 2006.386
351.1981, 2039.230
351.6802, 2073.467
352.1623, 2109.257
352.6444, 2148.423
353.1266, 2195.573
353.6087, 2245.391
354.0908, 2287.850
354.5729, 2320.322
355.0550, 2351.117
355.5371, 2387.073
356.0193, 2427.247
356.5014, 2468.884
356.9835, 2512.197
357.4656, 2555.108
357.9477, 2595.797
358.4298, 2634.176
358.9120, 2670.909
359.3941, 2704.691
359.8762, 2737.517
360.3583, 2772.368
360.8404, 2813.891
361.3225, 2854.356
361.8047, 2892.326
362.2868, 2927.445
362.7689, 2954.422
363.2510, 2964.560
363.7331, 2969.063
364.2152, 2976.982
364.6974, 3001.067
365.1795, 3017.142
365.6616, 3013.890
366.1437, 2995.882
366.6258, 2985.491
367.1079, 2992.865
367.5901, 3004.037
368.0722, 3012.340
368.5543, 3018.138
369.0364, 3019.974
369.5185, 3018.915
370.0006, 3014.010
370.4828, 3002.390
370.9649, 2973.557
371.4470, 2950.092
371.9291, 2941.409
372.4112, 2954.866
372.8933, 2956.741
373.3755, 2938.914
373.8576, 2915.682
374.3397, 2907.459
374.8218, 2920.189
375.3039, 2933.573
375.7861, 2941.707
376.2682, 2944.645
376.7503, 2951.184
377.2324, 2960.723
377.7145, 2974.942
378.1967, 2998.874
378.6788, 3034.093
379.1609, 3060.382
379.6430, 3069.316
380.1251, 3069.218
380.6072, 3089.394
381.0894, 3131.578
381.5715, 3177.209
382.0536, 3212.143
382.5357, 3238.717
383.0178, 3267.716
383.4999, 3300.483
383.9821, 3337.082
384.4642, 3378.728
384.9463, 3425.353
385.4284, 3472.648
385.9105, 3520.707
386.3926, 3568.017
386.8748, 3609.802
387.3569, 3644.928
387.8390, 3683.621
388.3211, 3741.195
388.8032, 3809.662
389.2853, 3870.918
389.7675, 3902.718
390.2496, 3934.938
390.7317, 4000.382
391.2138, 4097.000
391.6959, 4185.190
392.1780, 4237.803
392.6602, 4273.273
393.1423, 4309.742
393.6244, 4349.334
394.1065, 4394.798
394.5886, 4453.000
395.0707, 4519.614
395.5529, 4579.875
396.0350, 4617.723
396.5171, 4656.163
396.9992, 4710.035
397.4813, 4795.470
397.9634, 4865.553
398.4456, 4905.882
398.9277, 4928.359
399.4098, 4954.192
399.8919, 4996.842
400.3740, 5030.920
400.8561, 5050.152
401.3383, 5053.351
401.8204, 5048.326
402.3025, 5033.056
402.7846, 5011.413
403.2667, 4988.059
403.7488, 4968.424
404.2310, 4934.852
404.7131, 4878.926
405.1952, 4806.283
405.6773, 4747.244
406.1594, 4705.208
406.6415, 4667.838
407.1237, 4631.894
407.6058, 4599.292
408.0879, 4543.780
408.5700, 4458.316
409.0521, 4355.889
409.5342, 4259.104
410.0164, 4168.286
410.4985, 4085.692
410.9806, 4019.750
411.4627, 3963.767
411.9448, 3891.501
412.4269, 3800.331
412.9091, 3706.298
413.3912, 3630.759
413.8733, 3567.761
414.3554, 3502.961
414.8375, 3430.096
415.3196, 3354.594
415.8018, 3282.739
416.2839, 3214.860
416.7660, 3147.839
417.2481, 3074.690
417.7302, 3005.015
418.2123, 2951.413
418.6945, 2924.860
419.1766, 2899.861
419.6587, 2864.247
420.1408, 2819.573
420.6229, 2770.050
421.1050, 2707.756
421.5872, 2648.909
422.0693, 2601.340
422.5514, 2567.561
423.0335, 2538.636
423.5156, 2516.646
423.9977, 2496.730
424.4799, 2473.208
424.9620, 2441.523
425.4441, 2411.016
425.9262, 2382.461
426.4083, 2355.962
426.8904, 2331.640
427.3726, 2310.653
427.8547, 2290.244
428.3368, 2268.279
428.8189, 2241.729
429.3010, 2220.269
429.7831, 2203.660
430.2653, 2192.692
430.7474, 2190.775
431.2295, 2200.644
431.7116, 2209.602
432.1937, 2212.515
432.6758, 2209.591
433.1580, 2202.939
433.6401, 2190.806
434.1222, 2181.728
434.6043, 2185.900
435.0864, 2202.325
435.5685, 2224.535
436.0507, 2253.976
436.5328, 2285.164
437.0149, 2305.305
437.4970, 2315.658
437.9791, 2326.720
438.4612, 2347.675
438.9434, 2373.403
439.4255, 2395.650
439.9076, 2412.121
440.3897, 2428.388
440.8718, 2445.419
441.3539, 2465.607
441.8361, 2493.301
442.3182, 2533.514
442.8003, 2579.481
443.2824, 2630.156
443.7645, 2685.640
444.2466, 2736.027
444.7288, 2769.698
445.2109, 2800.574
445.6930, 2839.626
446.1751, 2899.853
446.6572, 2956.182
447.1393, 2998.800
447.6215, 3032.894
448.1036, 3079.605
448.5857, 3151.813
449.0678, 3223.981
449.5499, 3286.860
450.0320, 3336.713
450.5142, 3386.737
450.9963, 3433.056
451.4784, 3483.504
451.9605, 3550.405
452.4426, 3640.330
452.9247, 3726.259
453.4069, 3801.658
453.8890, 3868.858
454.3711, 3939.152
454.8532, 4013.553
455.3353, 4086.864
455.8174, 4150.023
456.2996, 4206.180
456.7817, 4274.139
457.2638, 4359.085
457.7459, 4448.814
458.2281, 4530.185
458.7102, 4602.623
459.1923, 4667.498
459.6744, 4717.397
460.1565, 4763.571
460.6386, 4822.544
461.1208, 4895.702
461.6029, 4962.850
462.0850, 5007.468
462.5671, 5039.908
463.0492, 5071.554
463.5313, 5113.463
464.0135, 5147.231
464.4956, 5164.176
464.9777, 5166.600
465.4598, 5160.134
465.9419, 5147.488
466.4240, 5125.449
466.9062, 5091.350
467.3883, 5041.493
467.8704, 4989.545
468.3525, 4944.070
468.8346, 4892.235
469.3167, 4818.338
469.7989, 4709.195
470.2810, 4599.619
470.7631, 4490.427
471.2452, 4383.936
471.7273, 4298.011
472.2094, 4242.755
472.6916, 4183.364
473.1737, 4091.971
473.6558, 3966.704
474.1379, 3856.338
474.6200, 3764.500
475.1021, 3684.115
475.5843, 3608.935
476.0664, 3537.700
476.5485, 3456.801
477.0306, 3351.062
477.5127, 3236.944
477.9948, 3149.107
478.4770, 3086.504
478.9591, 3031.989
479.4412, 2978.355
479.9233, 2922.414
480.4054, 2858.439
480.8875, 2780.019
481.3697, 2705.342
481.8518, 2648.347
482.3339, 2603.744
482.8160, 2560.855
483.2981, 2513.219
483.7802, 2467.964
484.2624, 2431.154
484.7445, 2403.471
485.2266, 2372.956
485.7087, 2331.533
486.1908, 2289.862
486.6729, 2256.804
487.1551, 2244.542
487.6372, 2222.951
488.1193, 2184.632
488.6014, 2137.260
489.0835, 2100.458
489.5656, 2078.868
490.0478, 2057.585
490.5299, 2028.458
491.0120, 1990.753
491.4941, 1967.067
491.9762, 1961.017
492.4583, 1956.982
492.9405, 1934.845
493.4226, 1896.726
493.9047, 1866.352
494.3868, 1850.229
494.8689, 1842.251
495.3510, 1832.551
495.8332, 1821.543
496.3153, 1811.461
496.7974, 1806.365
497.2795, 1801.594
497.7616, 1789.748
498.2437, 1769.386
498.7259, 1751.200
499.2080, 1744.135
499.6901, 1742.349
500.1722, 1738.862
500.6543, 1729.304
501.1364, 1720.030
501.6186, 1709.554
502.1007, 1700.139
502.5828, 1700.461
503.0649, 1734.441
503.5470, 1759.014
504.0291, 1752.150
504.5113, 1698.574
504.9934, 1665.348
505.4755, 1660.445
505.9576, 1668.752
506.4397, 1674.658
506.9218, 1677.105
507.4040, 1680.510
507.8861, 1686.316
508.3682, 1693.292
508.8503, 1697.020
509.3324, 1697.214
509.8145, 1696.550
510.2967, 1695.577
510.7788, 1694.853
511.2609, 1696.362
511.7430, 1700.030
512.2252, 1707.024
512.7073, 1722.448
513.1894, 1741.913
513.6715, 1755.856
514.1536, 1758.859
514.6357, 1757.596
515.1179, 1755.160
515.6000, 1752.584
516.0821, 1753.581
516.5642, 1762.003
517.0463, 1772.939
517.5284, 1783.288
518.0106, 1792.161
518.4927, 1802.935
518.9748, 1818.684
519.4569, 1835.561
519.9390, 1849.226
520.4211, 1853.427
520.9033, 1863.418
521.3854, 1882.660
521.8675, 1908.924
522.3496, 1933.901
522.8317, 1959.061
523.3138, 1979.804
523.7960, 1989.638
524.2781, 1988.158
524.7602, 2004.145
525.2423, 2039.899
525.7244, 2083.970
526.2065, 2126.788
526.6887, 2167.602
527.1708, 2204.051
527.6529, 2233.685
528.1350, 2261.040
528.6171, 2288.267
529.0992, 2317.713
529.5814, 2357.127
530.0635, 2417.921
530.5456, 2486.162
531.0277, 2553.630
531.5098, 2619.570
531.9919, 2676.570
532.4741, 2711.255
532.9562, 2740.981
533.4383, 2781.341
533.9204, 2838.843
534.4025, 2902.759
534.8846, 2975.994
535.3668, 3054.933
535.8489, 3126.711
536.3310, 3184.771
536.8131, 3247.448
537.2952, 3323.918
537.7773, 3414.341
538.2595, 3492.768
538.7416, 3557.781
539.2237, 3617.114
539.7058, 3676.172
540.1879, 3735.661
540.6700, 3793.710
541.1522, 3850.611
541.6343, 3904.422
542.1164, 3951.568
542.5985, 3992.235
543.0806, 4027.310
543.5627, 4051.718
544.0449, 4073.864
544.5270, 4109.063
545.0091, 4154.560
545.4912, 4186.604
545.9733, 4186.461
546.4554, 4170.220
546.9376, 4151.035
547.4197, 4134.354
547.9018, 4107.287
548.3839, 4065.516
548.8660, 4012.009
549.3481, 3950.580
549.8303, 3878.341
550.3124, 3802.421
550.7945, 3722.361
551.2766, 3639.610
551.7587, 3557.865
552.2408, 3477.092
552.7230, 3397.484
553.2051, 3321.952
553.6872, 3250.917
554.1693, 3165.479
554.6514, 3062.938
555.1335, 2956.509
555.6157, 2861.172
556.0978, 2775.222
556.5799, 2694.215
557.0620, 2617.853
557.5441, 2544.472
558.0262, 2470.860
558.5084, 2398.413
558.9905, 2330.700
559.4726, 2269.266
559.9547, 2212.707
560.4368, 2161.379
560.9189, 2115.810
561.4011, 2069.639
561.8832, 2015.594
562.3653, 1963.571
562.8474, 1920.267
563.3295, 1896.129
563.8116, 1868.630
564.2938, 1834.110
564.7759, 1798.049
565.2580, 1770.038
565.7401, 1754.080
566.2222, 1734.660
566.7043, 1704.247
567.1865, 1667.118
567.6686, 1647.509
568.1507, 1646.852
568.6328, 1645.917
569.1149, 1626.737
569.5970, 1596.502
570.0792, 1579.687
570.5613, 1579.580
571.0434, 1581.680
571.5255, 1571.517
572.0076, 1554.645
572.4897, 1539.805
572.9719, 1531.937
573.4540, 1524.473
573.9361, 1512.368
574.4182, 1497.822
574.9003, 1486.762
575.3824, 1483.959
575.8646, 1482.028
576.3467, 1478.065
576.8288, 1471.689
577.3109, 1466.246
577.7930, 1459.475
578.2751, 1456.337
578.7573, 1462.259
579.2394, 1480.944
579.7215, 1491.277
580.2036, 1490.599
580.6857, 1484.014
581.1678, 1477.553
581.6500, 1471.548
582.1321, 1470.073
582.6142, 1475.426
583.0963, 1485.453
583.5784, 1499.574
584.0605, 1516.351
584.5427, 1528.730
585.0248, 1525.515
585.5069, 1519.892
585.9890, 1525.636
586.4711, 1545.505
586.9532, 1563.499
587.4354, 1568.263
587.9175, 1570.795
588.3996, 1580.565
588.8817, 1606.562
589.3638, 1630.299
589.8459, 1651.930
590.3281, 1670.432
590.8102, 1683.263
591.2923, 1686.310
591.7744, 1693.609
592.2565, 1709.843
592.7386, 1733.694
593.2208, 1759.116
593.7029, 1786.498
594.1850, 1811.399
594.6671, 1828.885
595.1492, 1841.336
595.6313, 1855.976
596.1135, 1874.010
596.5956, 1889.603
597.0777, 1895.510
597.5598, 1896.429
598.0419, 1899.347
598.5240, 1909.096
599.0062, 1917.633
599.4883, 1925.285
599.9704, 1929.041
600.4525, 1922.008
600.9346, 1889.879
601.4167, 1859.907
601.8989, 1840.630
602.3810, 1832.070
602.8631, 1821.554
603.3452, 1809.592
603.8273, 1794.606
604.3094, 1773.916
604.7916, 1746.624
605.2737, 1724.062
605.7558, 1706.702
606.2379, 1692.886
606.7200, 1681.652
607.2021, 1672.122
607.6843, 1660.873
608.1664, 1645.731
608.6485, 1630.548
609.1306, 1619.022
609.6127, 1610.730
610.0948, 1603.934
610.5770, 1599.076
611.0591, 1594.555
611.5412, 1589.700
612.0233, 1584.495
612.5054, 1578.894
612.9875, 1577.031
613.4697, 1571.188
613.9518, 1555.267
614.4339, 1520.582
614.9160, 1504.863
615.3981, 1516.730
615.8802, 1535.648
616.3624, 1537.225
616.8445, 1520.331
617.3266, 1504.397
617.8087, 1492.742
618.2908, 1484.089
618.7729, 1476.571
619.2551, 1470.185
619.7372, 1464.953
620.2193, 1461.852
620.7014, 1459.202
621.1835, 1455.349
621.6656, 1450.378
622.1478, 1444.778
622.6299, 1438.949
623.1120, 1432.473
623.5941, 1425.308
624.0762, 1417.754
624.5583, 1408.394
625.0405, 1393.331
625.5226, 1379.184
626.0047, 1372.198
626.4868, 1376.688
626.9689, 1375.839
627.4510, 1366.911
627.9332, 1353.386
628.4153, 1340.065
628.8974, 1326.952
629.3795, 1319.281
629.8616, 1322.052
630.3438, 1328.715
630.8259, 1326.343
631.3080, 1316.386
631.7901, 1306.742
632.2722, 1304.544
632.7543, 1303.268
633.2365, 1296.335
633.7186, 1282.841
634.2007, 1270.918
634.6828, 1264.912
635.1649, 1260.676
635.6470, 1255.171
636.1292, 1246.496
636.6113, 1239.203
637.0934, 1232.343
637.5755, 1227.742
638.0576, 1229.018
638.5397, 1237.735
639.0219, 1243.995
639.5040, 1245.362
639.9861, 1243.445
640.4682, 1240.520
640.9503, 1236.957
641.4324, 1235.820
641.9146, 1245.304
642.3967, 1254.433
642.8788, 1244.452
643.3609, 1217.479
643.8430, 1196.436
644.3251, 1200.396
644.8073, 1210.855
645.2894, 1214.580
645.7715, 1207.419
646.2536, 1202.138
646.7357, 1205.000
647.2178, 1207.445
647.7000, 1201.599
648.1821, 1182.382
648.6642, 1168.200
649.1463, 1160.646
649.6284, 1158.702
650.1105, 1163.624
650.5927, 1175.033
651.0748, 1180.523
651.5569, 1171.688
652.0390, 1158.581
652.5211, 1161.311
653.0032, 1176.105
653.4854, 1186.889
653.9675, 1182.550
654.4496, 1172.279
654.9317, 1161.214
655.4138, 1149.825
655.8959, 1141.783
656.3781, 1140.874
656.8602, 1141.909
657.3423, 1141.844
657.8244, 1140.310
658.3065, 1138.459
658.7886, 1136.000
659.2708, 1133.607
659.7529, 1132.814
660.2350, 1133.924
660.7171, 1130.893
661.1992, 1121.081
661.6813, 1110.593
662.1635, 1111.148
662.6456, 1119.914
663.1277, 1126.994
663.6099, 1128.880
664.0920, 1126.682
664.5741, 1119.818
665.0562, 1109.365
665.5383, 1099.168
666.0204, 1089.980
666.5026, 1082.078
666.9847, 1074.354
667.4668, 1066.347
667.9489, 1066.300
668.4310, 1081.225
668.9131, 1094.489
669.3953, 1094.665
669.8774, 1079.442
670.3595, 1069.776
670.8416, 1066.785
671.3237, 1066.132
671.8058, 1061.766
672.2880, 1055.630
672.7701, 1054.985
673.2522, 1063.295
673.7343, 1071.828
674.2164, 1072.741
674.6985, 1068.279
675.1807, 1062.187
675.6628, 1050.863
676.1449, 1043.622
676.6270, 1046.996
677.1091, 1057.556
677.5912, 1062.629
678.0734, 1059.406
678.5555, 1054.056
679.0376, 1046.791
679.5197, 1038.355
680.0018, 1037.071
680.4839, 1044.302
680.9661, 1050.308
681.4482, 1046.995
681.9303, 1037.512
682.4124, 1031.219
682.8945, 1028.566
683.3766, 1027.886
683.8588, 1028.256
684.3409, 1029.681
684.8230, 1032.984
685.3051, 1040.313
685.7872, 1043.677
686.2693, 1034.521
686.7515, 1022.451
687.2336, 1019.271
687.7157, 1031.678
688.1978, 1042.030
688.6799, 1049.251
689.1620, 1053.461
689.6442, 1054.141
690.1263, 1051.041
690.6084, 1047.427
691.0905, 1044.104
691.5726, 1041.122
692.0547, 1036.959
692.5369, 1032.568
693.0190, 1032.556
693.5011, 1049.257
693.9832, 1064.093
694.4653, 1056.488
694.9474, 1028.267
695.4296, 1008.912
695.9117, 1016.609
696.3938, 1028.572
696.8759, 1032.819
697.3580, 1027.600
697.8401, 1023.296
698.3223, 1019.023
698.8044, 1017.120
699.2865, 1021.212
699.7686, 1031.156
700.2507, 1036.512
700.7328, 1036.039
701.2150, 1032.555
701.6971, 1028.460
702.1792, 1023.836
702.6613, 1018.162
703.1434, 1008.179
703.6255, 1003.310
704.1077, 1013.684
704.5898, 1032.184
705.0719, 1047.421
705.5540, 1060.581
706.0361, 1065.352
706.5182, 1059.276
707.0004, 1044.613
707.4825, 1025.020
707.9646, 996.2015
708.4467, 978.1307
708.9288, 981.9337
709.4109, 1000.586
709.8931, 1008.190
710.3752, 1005.351
710.8573, 1001.718
711.3394, 1004.982
711.8215, 1009.947
712.3036, 1009.199
712.7858, 1002.735
713.2679, 997.7667
713.7500, 999.2528
714.2321, 1002.349
714.7142, 1003.870
715.1964, 1002.575
715.6785, 1002.293
716.1606, 1002.235
716.6427, 1004.057
717.1248, 1010.913
717.6069, 1023.912
718.0891, 1029.583
718.5712, 1026.037
719.0533, 1017.843
719.5354, 1007.951
720.0175, 997.9545
720.4996, 992.5735
720.9818, 993.9954
721.4639, 998.2626
721.9460, 1005.707
722.4281, 1013.251
722.9102, 1015.807
723.3923, 1006.782
723.8745, 998.7113
724.3566, 993.5242
724.8387, 991.1935
725.3208, 991.9930
725.8029, 996.7297
726.2850, 1002.641
726.7672, 1010.293
727.2493, 1017.815
727.7314, 1016.757
728.2135, 1007.819
728.6956, 1000.505
729.1777, 1002.965
729.6599, 1008.502
730.1420, 1009.096
730.6241, 1004.945
731.1062, 999.7303
731.5883, 994.0840
732.0704, 988.8585
732.5526, 984.0323
733.0347, 979.1196
733.5168, 978.4390
733.9989, 985.1481
734.4810, 991.5308
734.9631, 992.4533
735.4453, 987.7030
735.9274, 980.1262
736.4095, 968.7620
736.8916, 960.4613
737.3737, 964.6606
737.8558, 976.7107
738.3380, 988.5826
738.8201, 1000.088
739.3022, 1005.809
739.7843, 997.0128
740.2664, 982.6700
740.7485, 972.8888
741.2307, 975.5005
741.7128, 975.5387
742.1949, 969.2125
742.6770, 961.7336
743.1591, 961.4606
743.6412, 969.8101
744.1234, 978.9620
744.6055, 989.0833
745.0876, 996.2639
745.5697, 987.0007
746.0518, 966.7364
746.5339, 956.9692
747.0161, 978.4720
747.4982, 1002.752
747.9803, 1003.561
748.4624, 988.0123
748.9445, 977.3522
749.4266, 984.4686
749.9088, 990.4411
750.3909, 988.0465
750.8730, 979.0831
751.3551, 974.1730
751.8372, 974.9561
752.3193, 975.0286
752.8015, 969.9701
753.2836, 962.0542
753.7657, 962.0812
754.2478, 969.5587
754.7299, 977.5751
755.2120, 982.6555
755.6942, 984.9518
756.1763, 982.8661
756.6584, 976.4444
757.1405, 972.8090
757.6226, 980.1121
758.1047, 986.4670
758.5869, 982.8853
759.0690, 965.5889
759.5511, 958.1467
760.0332, 963.9209
760.5153, 972.7895
760.9974, 977.7241
761.4796, 978.8734
761.9617, 976.2209
762.4438, 969.4861
762.9259, 962.4636
763.4080, 958.7664
763.8901, 957.1833
764.3723, 955.7789
764.8544, 953.5596
765.3365, 953.5679
765.8186, 961.7605
766.3007, 970.3175
766.7828, 970.2249
767.2650, 952.0998
767.7471, 944.0705
768.2292, 949.8152
768.7113, 962.0773
769.1934, 973.9817
769.6755, 984.9804
770.1577, 985.9958
770.6398, 972.1013
771.1219, 956.0073
771.6040, 954.1783
772.0861, 961.2075
772.5682, 967.4402
773.0504, 970.5777
773.5325, 970.9445
774.0146, 965.3551
774.4967, 957.6584
774.9788, 956.2170
775.4609, 967.3333
775.9431, 972.5735
776.4252, 966.8825
776.9073, 955.0825
777.3894, 948.9788
777.8715, 948.3458
778.3536, 948.6962
778.8358, 948.9142
779.3179, 948.5622
779.8000, 947.0199
780.2821, 944.4372
780.7642, 941.2269
781.2463, 929.9648
781.7285, 925.7420
782.2106, 943.1566
782.6927, 976.2072
783.1748, 988.5084
783.6569, 967.8624
784.1390, 950.7057
784.6212, 951.6467
785.1033, 964.8021
785.5854, 960.7366
786.0675, 940.3668
786.5496, 923.8043
787.0317, 926.3754
787.5139, 937.4131
787.9960, 946.5894
788.4781, 953.2562
788.9602, 955.7619
789.4423, 946.8503
789.9244, 939.5276
790.4066, 942.6274
790.8887, 956.0125
791.3708, 962.4123
791.8529, 960.9402
792.3350, 954.3451
792.8171, 939.7404
793.2993, 920.0162
793.7814, 918.9175
794.2635, 936.0543
794.7456, 951.9252
795.2277, 949.6265
795.7098, 940.6213
796.1920, 937.7252
796.6741, 941.8904
797.1562, 943.9808
797.6383, 939.9553
798.1204, 933.4955
798.6025, 925.8017
799.0847, 916.1869
799.5668, 911.2651
800.0489, 911.7106
800.5310, 914.9904
801.0131, 921.3107
801.4952, 929.1646
801.9774, 931.1051
802.4595, 926.6838
802.9416, 921.2533
803.4237, 916.6113
803.9058, 914.3122
804.3879, 917.8411
804.8701, 929.9296
805.3522, 935.0742
805.8343, 920.1979
806.3164, 905.5533
806.7985, 903.5269
807.2806, 917.5199
807.7628, 927.7611
808.2449, 934.2635
808.7270, 937.0417
809.2091, 933.9493
809.6912, 927.4368
810.1733, 923.7712
810.6555, 923.8900
811.1376, 924.0904
811.6197, 920.5527
812.1018, 916.7114
812.5839, 915.5253
813.0660, 917.7294
813.5482, 922.5648
814.0303, 934.2014
814.5124, 943.0682
814.9945, 938.8895
815.4766, 920.9258
815.9587, 909.0913
816.4409, 904.8080
816.9230, 905.0653
817.4051, 909.0654
817.8872, 914.7595
818.3693, 918.0479
818.8514, 917.0778
819.3336, 919.2477
819.8157, 935.3330
820.2978, 951.6606
820.7799, 954.8605
821.2620, 937.1966
821.7441, 924.4427
822.2263, 916.5044
822.7084, 913.3522
823.1905, 917.4540
823.6726, 927.2576
824.1547, 931.8695
824.6368, 929.6271
825.1190, 925.2057
825.6011, 922.0676
826.0832, 919.4592
826.5653, 916.3062
827.0474, 911.5481
827.5295, 908.5596
828.0117, 910.0199
828.4938, 912.2013
828.9760, 911.9492
829.4581, 908.3920
829.9402, 907.0392
830.4223, 908.5387
830.9044, 910.8459
831.3865, 912.6746
831.8687, 913.4880
832.3508, 910.8504
832.8329, 903.3726
833.3150, 898.6293
833.7971, 904.7773
834.2792, 913.9236
834.7614, 918.5764
835.2435, 914.8655
835.7256, 912.3610
836.2077, 911.1429
836.6898, 911.0217
837.1719, 912.2996
837.6541, 914.8736
838.1362, 916.0889
838.6183, 915.5337
839.1004, 915.3917
839.5825, 918.3083
840.0646, 922.7331
840.5468, 926.8915
841.0289, 930.8092
841.5110, 933.0690
841.9931, 932.9261
842.4752, 930.9985
842.9573, 927.1074
843.4395, 919.2701
843.9216, 917.2250
844.4037, 922.0380
844.8858, 929.0109
845.3679, 935.3195
845.8500, 940.0679
846.3322, 940.1080
846.8143, 934.8669
847.2964, 928.7481
847.7785, 920.6823
848.2606, 915.7650
848.7427, 920.0023
849.2249, 939.4489
849.7070, 948.8710
850.1891, 943.0762
850.6712, 934.0837
851.1533, 930.9933
851.6354, 933.4709
852.1176, 930.2820
852.5997, 920.9306
853.0818, 911.9435
853.5639, 907.2819
854.0460, 907.0148
854.5281, 914.5138
855.0103, 931.0604
855.4924, 939.1777
855.9745, 920.8864
856.4566, 903.6485
856.9387, 903.6339
857.4208, 922.7713
857.9030, 933.9568
858.3851, 936.0961
858.8672, 935.5171
859.3493, 935.4271
859.8314, 936.2693
860.3135, 940.6988
860.7957, 948.2811
861.2778, 952.3475
861.7599, 945.8763
862.2420, 937.3605
862.7241, 931.6456
863.2062, 929.2899
863.6884, 927.1256
864.1705, 922.7207
864.6526, 923.7292
865.1347, 937.5033
865.6168, 959.7484
866.0989, 968.2736
866.5811, 964.0061
867.0632, 957.1779
867.5453, 952.9183
868.0274, 949.8230
868.5095, 945.7505
868.9916, 941.2913
869.4738, 940.4321
869.9559, 949.9333
870.4380, 956.4199
870.9201, 955.2687
871.4022, 948.3748
871.8843, 942.6343
872.3665, 937.9795
872.8486, 939.0410
873.3307, 953.4511
873.8128, 969.7256
874.2949, 968.7401
874.7770, 955.6234
875.2592, 944.6946
875.7413, 942.6569
876.2234, 942.6401
876.7055, 941.0375
877.1876, 940.0263
877.6697, 946.9826
878.1519, 965.2195
878.6340, 976.3240
879.1161, 973.6660
879.5982, 964.8544
880.0803, 963.8676
880.5624, 967.8964
881.0446, 969.0860
881.5267, 960.1646
882.0088, 953.9623
882.4909, 959.9766
882.9730, 971.7296
883.4551, 978.2001
883.9373, 975.4937
884.4194, 975.8224
884.9015, 981.6960
885.3836, 988.7642
885.8657, 990.5008
886.3478, 987.7233
886.8300, 983.3605
887.3121, 977.3360
887.7942, 972.5118
888.2763, 971.6664
888.7584, 972.9282
889.2405, 974.2684
889.7227, 975.4138
890.2048, 976.2333
890.6869, 976.0284
891.1690, 976.3802
891.6511, 980.3055
892.1332, 987.1967
892.6154, 986.3202
893.0975, 975.9634
893.5796, 968.5082
894.0617, 981.5859
894.5438, 999.2095
895.0259, 1001.578
895.5081, 983.2974
895.9902, 971.7819
896.4723, 980.2273
896.9544, 989.3386
897.4365, 987.9149
897.9186, 976.0645
898.4008, 974.9304
898.8829, 985.1445
899.3650, 994.6049
899.8471, 995.4183
900.3292, 990.3146
900.8113, 978.7790
901.2935, 962.7717
901.7756, 955.1693
902.2577, 969.5529
902.7398, 984.3511
903.2219, 990.5485
903.7040, 989.8923
904.1862, 993.1204
904.6683, 1000.991
905.1504, 1006.459
905.6325, 1004.689
906.1146, 1000.882
906.5967, 1004.408
907.0789, 1013.267
907.5610, 1021.813
908.0431, 1029.469
908.5252, 1034.300
909.0073, 1035.354
909.4894, 1033.259
909.9716, 1027.710
910.4537, 1016.336
910.9358, 1013.346
911.4179, 1024.227
911.9000, 1037.753
912.3821, 1033.505
912.8643, 1018.960
913.3464, 1010.827
913.8285, 1015.156
914.3106, 1022.903
914.7927, 1034.210
915.2748, 1044.298
915.7570, 1048.160
916.2391, 1043.863
916.7212, 1037.759
917.2033, 1028.422
917.6854, 1022.073
918.1675, 1027.659
918.6497, 1040.773
919.1318, 1051.004
919.6139, 1057.298
920.0960, 1059.029
920.5781, 1047.841
921.0602, 1038.214
921.5424, 1043.524
922.0245, 1066.116
922.5066, 1075.147
922.9887, 1065.896
923.4708, 1056.743
923.9529, 1060.117
924.4351, 1070.825
924.9172, 1073.097
925.3993, 1068.167
925.8814, 1063.242
926.3635, 1062.511
926.8456, 1062.725
927.3278, 1062.342
927.8099, 1061.392
928.2920, 1059.862
928.7741, 1055.903
929.2562, 1057.060
929.7383, 1067.840
930.2205, 1081.109
930.7026, 1079.750
931.1847, 1067.964
931.6668, 1059.299
932.1489, 1058.298
932.6310, 1061.561
933.1132, 1070.187
933.5953, 1080.715
934.0774, 1088.646
934.5595, 1096.695
935.0416, 1093.753
935.5237, 1074.763
936.0059, 1055.743
936.4880, 1058.559
936.9701, 1075.998
937.4522, 1086.212
937.9343, 1086.187
938.4164, 1083.537
938.8986, 1080.615
939.3807, 1078.780
939.8628, 1079.953
940.3449, 1084.938
940.8270, 1085.406
941.3091, 1078.995
941.7913, 1074.997
942.2734, 1081.269
942.7555, 1093.604
943.2376, 1100.280
943.7197, 1101.843
944.2018, 1101.715
944.6840, 1099.521
945.1661, 1098.340
945.6482, 1100.512
946.1303, 1105.135
946.6124, 1108.557
947.0945, 1110.384
947.5767, 1112.533
948.0588, 1115.961
948.5409, 1119.121
949.0230, 1118.365
949.5051, 1115.089
949.9872, 1112.710
950.4694, 1111.751
950.9515, 1113.080
951.4336, 1119.396
951.9157, 1126.984
952.3978, 1131.478
952.8799, 1131.486
953.3621, 1133.443
953.8442, 1138.156
954.3263, 1142.186
954.8084, 1141.969
955.2905, 1138.693
955.7726, 1132.770
956.2548, 1124.215
956.7369, 1121.022
957.2190, 1131.896
957.7011, 1144.595
958.1832, 1152.030
958.6653, 1154.664
959.1475, 1161.565
959.6296, 1173.573
960.1117, 1183.210
960.5938, 1187.579
961.0759, 1186.861
961.5580, 1175.457
962.0402, 1159.161
962.5223, 1153.320
963.0044, 1172.888
963.4865, 1193.148
963.9686, 1210.223
964.4507, 1223.083
964.9329, 1228.984
965.4150, 1227.725
965.8971, 1223.322
966.3792, 1215.302
966.8613, 1209.277
967.3434, 1212.102
967.8256, 1220.653
968.3077, 1232.291
968.7898, 1249.328
969.2719, 1257.694
969.7540, 1245.079
970.2361, 1234.167
970.7183, 1239.918
971.2004, 1261.613
971.6825, 1276.810
972.1646, 1285.639
972.6467, 1294.418
973.1288, 1309.163
973.6110, 1324.387
974.0931, 1334.670
974.5752, 1340.686
975.0573, 1346.365
975.5394, 1350.339
976.0215, 1357.422
976.5037, 1369.681
976.9858, 1384.576
977.4679, 1396.293
977.9500, 1405.693
978.4321, 1416.457
978.9142, 1429.289
979.3964, 1444.734
979.8785, 1465.691
980.3606, 1488.235
980.8427, 1507.583
981.3248, 1521.307
981.8069, 1537.755
982.2891, 1558.364
982.7712, 1578.545
983.2533, 1591.027
983.7354, 1600.602
984.2175, 1626.145
984.6996, 1666.247
985.1818, 1695.851
985.6639, 1684.378
986.1460, 1674.370
986.6281, 1693.356
987.1102, 1734.373
987.5923, 1767.057
988.0745, 1791.277
988.5566, 1807.693
989.0387, 1813.824
989.5208, 1816.717
990.0029, 1827.701
990.4850, 1843.669
990.9672, 1857.924
991.4493, 1863.197
991.9314, 1875.542
992.4135, 1901.338
992.8957, 1933.422
993.3778, 1966.482
993.8599, 2000.542
994.3420, 2036.923
994.8242, 2075.808
995.3063, 2112.921
995.7884, 2139.013
996.2705, 2165.946
996.7526, 2210.080
997.2347, 2271.158
997.7169, 2319.754
998.1990, 2338.108
998.6811, 2367.580
999.1632, 2423.984
999.6453, 2498.986
1000.127, 2565.862
1000.610, 2627.686
1001.092, 2698.272
1001.574, 2786.012
1002.056, 2878.263
1002.538, 2967.568
1003.020, 3056.222
1003.502, 3146.770
1003.984, 3235.451
1004.466, 3335.319
1004.949, 3447.857
1005.431, 3565.283
1005.913, 3679.343
1006.395, 3791.553
1006.877, 3904.870
1007.359, 4019.075
1007.841, 4133.955
1008.323, 4254.363
1008.806, 4368.215
1009.288, 4466.989
1009.770, 4553.747
1010.252, 4654.023
1010.734, 4767.975
1011.216, 4865.589
1011.698, 4932.920
1012.180, 4985.531
1012.662, 5043.139
1013.145, 5097.891
1013.627, 5137.488
1014.109, 5153.447
1014.591, 5160.292
1015.073, 5153.306
1015.555, 5146.431
1016.037, 5153.421
1016.519, 5172.537
1017.002, 5193.743
1017.484, 5216.789
1017.966, 5245.295
1018.448, 5284.784
1018.930, 5328.168
1019.412, 5370.824
1019.894, 5413.283
1020.376, 5459.953
1020.858, 5510.826
1021.341, 5565.963
1021.823, 5629.717
1022.305, 5689.998
1022.787, 5726.603
1023.269, 5745.586
1023.751, 5761.300
1024.233, 5796.845
1024.715, 5789.378
1025.198, 5705.029
1025.680, 5591.224
1026.162, 5480.226
1026.644, 5372.685
1027.126, 5256.088
1027.608, 5129.523
1028.090, 4998.331
1028.572, 4869.628
1029.054, 4732.460
1029.536, 4571.800
1030.019, 4392.734
1030.501, 4229.163
1030.983, 4085.726
1031.465, 3950.133
1031.947, 3820.445
1032.429, 3697.125
1032.911, 3578.805
1033.393, 3469.122
1033.876, 3373.032
1034.358, 3290.232
1034.840, 3226.755
1035.322, 3200.486
1035.804, 3181.253
1036.286, 3144.752
1036.768, 3089.370
1037.250, 3053.856
1037.733, 3038.268
1038.215, 3030.244
1038.697, 3021.527
1039.179, 3016.327
1039.661, 3023.665
1040.143, 3038.007
1040.625, 3042.511
1041.107, 3030.614
1041.589, 3014.723
1042.072, 2996.472
1042.554, 2974.790
1043.036, 2943.601
1043.518, 2908.401
1044.000, 2888.194
1044.482, 2888.511
1044.964, 2880.545
1045.446, 2840.840
1045.928, 2794.128
1046.411, 2757.136
1046.893, 2729.032
1047.375, 2692.611
1047.857, 2647.507
1048.339, 2602.290
1048.821, 2560.999
1049.303, 2522.181
1049.785, 2483.489
1050.268, 2446.399
1050.750, 2412.402
1051.232, 2382.313
1051.714, 2355.554
1052.196, 2331.866
1052.678, 2312.017
1053.160, 2299.329
1053.642, 2291.108
1054.125, 2276.580
1054.607, 2255.429
1055.089, 2237.079
1055.571, 2226.965
1056.053, 2221.236
1056.535, 2222.626
1057.017, 2226.554
1057.499, 2214.157
1057.981, 2184.077
1058.464, 2159.379
1058.946, 2146.350
1059.428, 2141.738
1059.910, 2144.667
1060.392, 2152.440
1060.874, 2161.814
1061.356, 2172.709
1061.838, 2184.163
1062.320, 2197.388
1062.803, 2208.627
1063.285, 2213.763
1063.767, 2215.102
1064.249, 2220.140
1064.731, 2228.370
1065.213, 2237.256
1065.695, 2245.718
1066.177, 2254.295
1066.660, 2262.697
1067.142, 2271.586
1067.624, 2282.159
1068.106, 2294.508
1068.588, 2304.437
1069.070, 2310.103
1069.552, 2322.971
1070.034, 2363.912
1070.516, 2409.496
1070.999, 2435.102
1071.481, 2437.264
1071.963, 2448.275
1072.445, 2471.443
1072.927, 2496.790
1073.409, 2520.577
1073.891, 2544.635
1074.373, 2572.932
1074.855, 2603.919
1075.338, 2632.717
1075.820, 2653.397
1076.302, 2681.574
1076.784, 2728.422
1077.266, 2777.344
1077.748, 2816.626
1078.230, 2846.453
1078.713, 2873.995
1079.195, 2899.783
1079.677, 2927.889
1080.159, 2959.558
1080.641, 2995.462
1081.123, 3037.903
1081.605, 3084.583
1082.087, 3127.473
1082.569, 3164.355
1083.052, 3206.839
1083.534, 3255.648
1084.016, 3314.793
1084.498, 3403.904
1084.980, 3500.106
1085.462, 3566.727
1085.944, 3595.306
1086.426, 3641.880
1086.908, 3721.277
1087.391, 3808.961
1087.873, 3899.227
1088.355, 3988.677
1088.837, 4064.521
1089.319, 4130.876
1089.801, 4201.451
1090.283, 4280.886
1090.765, 4366.479
1091.248, 4460.565
1091.730, 4556.924
1092.212, 4651.112
1092.694, 4743.564
1093.176, 4825.159
1093.658, 4895.814
1094.140, 4971.218
1094.622, 5071.092
1095.104, 5171.597
1095.587, 5246.096
1096.069, 5304.433
1096.551, 5379.414
1097.033, 5483.521
1097.515, 5568.601
1097.997, 5625.397
1098.479, 5670.848
1098.961, 5722.217
1099.443, 5777.556
1099.926, 5837.253
1100.408, 5901.226
1100.890, 5952.025
1101.372, 5979.249
1101.854, 6000.842
1102.336, 6018.538
1102.818, 6037.321
1103.300, 6081.256
1103.783, 6138.948
1104.265, 6168.226
1104.747, 6142.938
1105.229, 6119.109
1105.711, 6131.057
1106.193, 6149.856
1106.675, 6153.966
1107.157, 6143.351
1107.640, 6126.790
1108.122, 6104.473
1108.604, 6074.943
1109.086, 6041.332
1109.568, 5996.434
1110.050, 5925.238
1110.532, 5840.072
1111.014, 5769.968
1111.496, 5720.638
1111.979, 5670.167
1112.461, 5618.899
1112.943, 5555.689
1113.425, 5468.911
1113.907, 5365.377
1114.389, 5244.903
1114.871, 5110.922
1115.353, 4996.415
1115.835, 4922.481
1116.318, 4839.724
1116.800, 4732.504
1117.282, 4617.010
1117.764, 4521.235
1118.246, 4438.393
1118.728, 4348.691
1119.210, 4246.343
1119.692, 4147.093
1120.175, 4060.747
1120.657, 3977.459
1121.139, 3893.094
1121.621, 3806.985
1122.103, 3710.627
1122.585, 3606.548
1123.067, 3512.609
1123.549, 3435.374
1124.031, 3372.125
1124.514, 3336.336
1124.996, 3305.428
1125.478, 3252.445
1125.960, 3173.274
1126.442, 3095.216
1126.924, 3017.806
1127.406, 2952.721
1127.888, 2922.646
1128.370, 2897.594
1128.853, 2846.861
1129.335, 2778.269
1129.817, 2718.791
1130.299, 2671.475
1130.781, 2629.635
1131.263, 2593.717
1131.745, 2559.569
1132.227, 2520.925
1132.710, 2481.563
1133.192, 2446.140
1133.674, 2415.507
1134.156, 2390.770
1134.638, 2376.362
1135.120, 2360.500
1135.602, 2340.857
1136.084, 2317.528
1136.567, 2285.181
1137.049, 2250.342
1137.531, 2230.252
1138.013, 2232.563
1138.495, 2233.185
1138.977, 2223.636
1139.459, 2208.855
1139.941, 2186.792
1140.423, 2161.724
1140.906, 2161.885
1141.388, 2181.990
1141.870, 2193.795
1142.352, 2179.829
1142.834, 2163.886
1143.316, 2156.742
1143.798, 2154.002
1144.280, 2151.898
1144.762, 2150.725
1145.245, 2144.943
1145.727, 2134.687
1146.209, 2129.776
1146.691, 2144.974
1147.173, 2159.448
1147.655, 2152.959
1148.137, 2135.998
1148.619, 2133.952
1149.102, 2150.647
1149.584, 2164.224
1150.066, 2172.884
1150.548, 2175.315
1151.030, 2162.107
1151.512, 2148.022
1151.994, 2151.829
1152.476, 2171.502
1152.958, 2181.010
1153.441, 2175.895
1153.923, 2170.181
1154.405, 2165.841
1154.887, 2164.884
1155.369, 2170.684
1155.851, 2181.312
1156.333, 2196.376
1156.815, 2217.341
1157.297, 2227.051
1157.780, 2218.982
1158.262, 2211.566
1158.744, 2211.665
1159.226, 2216.799
1159.708, 2223.535
1160.190, 2230.957
1160.672, 2236.977
1161.154, 2240.396
1161.637, 2243.810
1162.119, 2246.317
1162.601, 2251.282
1163.083, 2264.573
1163.565, 2280.900
1164.047, 2275.530
1164.529, 2254.728
1165.011, 2241.034
1165.494, 2254.661
1165.976, 2262.345
1166.458, 2250.702
1166.940, 2234.714
1167.422, 2227.103
1167.904, 2227.126
1168.386, 2229.490
1168.868, 2233.621
1169.350, 2236.067
1169.833, 2233.328
1170.315, 2230.064
1170.797, 2228.805
1171.279, 2227.872
1171.761, 2224.135
1172.243, 2217.824
1172.725, 2213.336
1173.207, 2211.017
1173.689, 2214.292
1174.172, 2237.847
1174.654, 2256.134
1175.136, 2244.577
1175.618, 2216.301
1176.100, 2206.654
1176.582, 2216.006
1177.064, 2219.777
1177.546, 2212.714
1178.029, 2203.790
1178.511, 2199.371
1178.993, 2197.433
1179.475, 2198.040
1179.957, 2200.212
1180.439, 2194.968
1180.921, 2181.232
1181.403, 2173.179
1181.885, 2175.878
1182.368, 2183.696
1182.850, 2191.652
1183.332, 2200.966
1183.814, 2215.470
1184.296, 2236.799
1184.778, 2241.812
1185.260, 2227.364
1185.742, 2222.005
1186.224, 2247.274
1186.707, 2275.527
1187.189, 2272.094
1187.671, 2252.305
1188.153, 2237.168
1188.635, 2227.162
1189.117, 2231.993
1189.599, 2254.486
1190.081, 2277.463
1190.564, 2290.121
1191.046, 2296.386
1191.528, 2299.052
1192.010, 2299.441
1192.492, 2300.005
1192.974, 2296.929
1193.456, 2305.189
1193.938, 2327.782
1194.421, 2350.866
1194.903, 2363.026
1195.385, 2368.386
1195.867, 2371.611
1196.349, 2373.047
1196.831, 2372.684
1197.313, 2365.892
1197.795, 2368.117
1198.277, 2382.675
1198.760, 2400.670
1199.242, 2414.863
1199.724, 2425.238
1200.206, 2431.196
1200.688, 2433.005
1201.170, 2432.750
1201.652, 2430.614
1202.134, 2426.857
1202.616, 2421.002
1203.099, 2414.796
1203.581, 2409.448
1204.063, 2405.755
1204.545, 2405.466
1205.027, 2408.718
1205.509, 2413.772
1205.991, 2426.416
1206.473, 2426.760
1206.956, 2405.885
1207.438, 2377.809
1207.920, 2361.904
1208.402, 2355.655
1208.884, 2356.625
1209.366, 2366.042
1209.848, 2367.953
1210.330, 2360.752
1210.813, 2345.611
1211.295, 2320.729
1211.777, 2291.613
1212.259, 2267.556
1212.741, 2248.093
1213.223, 2234.172
1213.705, 2228.206
1214.187, 2217.914
1214.669, 2200.577
1215.151, 2182.633
1215.634, 2167.776
1216.116, 2153.908
1216.598, 2135.586
1217.080, 2114.641
1217.562, 2094.799
1218.044, 2077.746
1218.526, 2059.728
1219.008, 2039.020
1219.491, 2020.620
1219.973, 2010.056
1220.455, 2001.800
1220.937, 1983.845
1221.419, 1958.778
1221.901, 1932.579
1222.383, 1901.587
1222.865, 1880.948
1223.348, 1875.770
1223.830, 1868.754
1224.312, 1844.721
1224.794, 1810.799
1225.276, 1778.345
1225.758, 1748.286
1226.240, 1722.767
1226.722, 1704.255
1227.204, 1688.983
1227.687, 1677.614
1228.169, 1667.412
1228.651, 1656.166
1229.133, 1644.328
1229.615, 1634.030
1230.097, 1624.014
1230.579, 1609.207
1231.061, 1582.854
1231.543, 1562.154
1232.026, 1549.090
1232.508, 1539.860
1232.990, 1533.824
1233.472, 1527.145
1233.954, 1510.973
1234.436, 1487.834
1234.918, 1472.658
1235.400, 1472.277
1235.883, 1468.540
1236.365, 1458.489
1236.847, 1447.054
1237.329, 1441.758
1237.811, 1437.233
1238.293, 1423.085
1238.775, 1401.053
1239.257, 1391.039
1239.740, 1400.243
1240.222, 1402.372
1240.704, 1391.580
1241.186, 1377.732
1241.668, 1372.673
1242.150, 1370.657
1242.632, 1365.389
1243.114, 1356.449
##END=



