##NAMES=Parahopeite
##RRUFFID=R050463
##IDEAL CHEMISTRY=Zn^2+^_3_(P^5+^O_4_)_2_&#183;4H_2_O
##LOCALITY=Broken Hill mine, Kabwe, Zambia
##OWNER=RRUFF
##SOURCE=University of Arizona Mineral Museum
##DESCRIPTION=Colorless elongated subparallel aggregate of crystals
##STATUS=The identification of this mineral has been confirmed by X-ray diffraction and chemical analysis
##URL=rruff.info/R050463
##MEASURED CHEMISTRY=Zn_3.00_(P_1.00_O_4_)_2_Â·4H_2_O
91.00781, 7.468767
91.48993, 6.782304
91.97205, 6.508045
92.45416, 6.859781
92.93628, 7.612566
93.41840, 8.249422
93.90051, 8.621997
94.38263, 8.959216
94.86475, 9.591167
95.34686, 10.51783
95.82898, 11.73897
96.31110, 13.30042
96.79321, 15.18786
97.27533, 17.19876
97.75745, 19.21584
98.23956, 21.30552
98.72168, 23.72477
99.20380, 26.49717
99.68591, 29.44832
100.1680, 32.31688
100.6501, 34.98475
101.1323, 38.03545
101.6144, 41.70552
102.0965, 46.05272
102.5786, 50.19425
103.0607, 53.79296
103.5428, 57.51138
104.0250, 62.62962
104.5071, 69.66467
104.9892, 77.16293
105.4713, 84.61498
105.9534, 92.19601
106.4355, 99.32189
106.9177, 106.0562
107.3998, 112.3391
107.8819, 118.2160
108.3640, 123.7442
108.8461, 128.7537
109.3282, 133.2224
109.8104, 136.0715
110.2925, 139.5129
110.7746, 143.4397
111.2567, 147.8974
111.7388, 153.4336
112.2209, 160.3224
112.7031, 168.1303
113.1852, 176.6447
113.6673, 185.9501
114.1494, 195.7715
114.6315, 206.7339
115.1136, 219.0169
115.5958, 229.7616
116.0779, 239.2204
116.5600, 246.3384
117.0421, 249.9208
117.5242, 248.4426
118.0063, 244.1839
118.4885, 237.7041
118.9706, 228.6448
119.4527, 219.6927
119.9348, 211.6121
120.4169, 204.7038
120.8990, 199.4105
121.3812, 195.4610
121.8633, 193.5344
122.3454, 194.2566
122.8275, 197.6914
123.3096, 203.8112
123.7917, 212.2475
124.2739, 223.2277
124.7560, 237.5856
125.2381, 260.0898
125.7202, 285.7862
126.2023, 307.3930
126.6844, 327.7044
127.1666, 337.9976
127.6487, 320.9121
128.1308, 277.6010
128.6129, 229.0466
129.0950, 187.9819
129.5771, 154.4830
130.0593, 129.0135
130.5414, 113.6611
131.0235, 105.8737
131.5056, 99.98044
131.9877, 95.76591
132.4698, 92.61608
132.9520, 90.71912
133.4341, 90.01048
133.9162, 89.55447
134.3983, 88.96902
134.8804, 88.32754
135.3625, 88.28020
135.8447, 88.91949
136.3268, 89.89307
136.8089, 90.70162
137.2910, 91.29660
137.7731, 92.03905
138.2552, 93.14632
138.7374, 94.67424
139.2195, 96.02422
139.7016, 97.14892
140.1837, 98.15977
140.6658, 99.24076
141.1479, 100.3606
141.6301, 101.6286
142.1122, 103.0129
142.5943, 104.2678
143.0764, 106.3254
143.5585, 109.3342
144.0406, 113.1337
144.5228, 117.3296
145.0049, 121.9494
145.4870, 126.8761
145.9691, 132.0176
146.4512, 137.7522
146.9333, 143.2074
147.4155, 148.4252
147.8976, 153.4262
148.3797, 157.8586
148.8618, 160.8481
149.3439, 163.9454
149.8260, 168.1358
150.3082, 174.8093
150.7903, 181.0672
151.2724, 186.4744
151.7545, 190.9723
152.2366, 196.0477
152.7188, 201.8568
153.2009, 208.2091
153.6830, 214.8886
154.1651, 222.0563
154.6472, 229.3902
155.1293, 236.4523
155.6115, 243.1122
156.0936, 250.7869
156.5757, 259.7372
157.0578, 269.8177
157.5399, 280.7563
158.0220, 292.3653
158.5042, 304.9836
158.9863, 318.5028
159.4684, 332.8121
159.9505, 348.6010
160.4326, 366.5467
160.9147, 385.9293
161.3969, 405.6765
161.8790, 425.8389
162.3611, 445.9854
162.8432, 466.8254
163.3253, 489.6888
163.8074, 508.7111
164.2896, 522.5565
164.7717, 530.6849
165.2538, 531.9852
165.7359, 524.6484
166.2180, 511.0807
166.7001, 492.2649
167.1823, 466.9131
167.6644, 440.1735
168.1465, 413.6560
168.6286, 388.0320
169.1107, 365.2109
169.5928, 346.2665
170.0750, 330.6834
170.5571, 317.7083
171.0392, 307.5802
171.5213, 299.6210
172.0034, 293.3053
172.4855, 288.6773
172.9677, 286.0647
173.4498, 286.2435
173.9319, 288.3723
174.4140, 291.3005
174.8961, 294.8976
175.3782, 298.9827
175.8604, 304.0443
176.3425, 309.9084
176.8246, 314.9113
177.3067, 318.0012
177.7888, 319.3880
178.2709, 319.5822
178.7531, 319.5523
179.2352, 317.7842
179.7173, 311.6609
180.1994, 301.2650
180.6815, 288.6667
181.1636, 274.5183
181.6458, 259.4282
182.1279, 245.6858
182.6100, 233.9650
183.0921, 223.9797
183.5742, 214.9185
184.0563, 206.9370
184.5385, 199.8145
185.0206, 193.9234
185.5027, 188.9728
185.9848, 183.8600
186.4669, 178.0337
186.9490, 171.7598
187.4312, 165.6144
187.9133, 159.7221
188.3954, 153.8480
188.8775, 147.5926
189.3596, 141.0739
189.8417, 135.1476
190.3239, 130.3190
190.8060, 126.4053
191.2881, 122.7200
191.7702, 119.2878
192.2523, 116.1371
192.7344, 113.2357
193.2166, 110.5982
193.6987, 108.3877
194.1808, 106.7151
194.6629, 105.5599
195.1450, 104.6185
195.6271, 103.9302
196.1093, 103.3547
196.5914, 102.7270
197.0735, 102.0516
197.5556, 101.2618
198.0377, 100.2054
198.5198, 98.86845
199.0020, 97.97847
199.4841, 97.64030
199.9662, 97.55905
200.4483, 97.15498
200.9304, 96.32798
201.4125, 95.78103
201.8947, 95.98143
202.3768, 97.01594
202.8589, 97.65405
203.3410, 97.78501
203.8231, 97.65804
204.3052, 97.77914
204.7874, 98.23662
205.2695, 98.57764
205.7516, 98.48505
206.2337, 97.83643
206.7158, 97.63255
207.1979, 98.01720
207.6801, 98.72049
208.1622, 99.09732
208.6443, 98.96410
209.1264, 99.07522
209.6085, 99.88137
210.0906, 101.5906
210.5728, 103.0745
211.0549, 104.3576
211.5370, 105.3694
212.0191, 105.7951
212.5012, 105.3495
212.9833, 105.0313
213.4655, 105.3499
213.9476, 106.4749
214.4297, 107.6039
214.9118, 108.6899
215.3939, 109.7873
215.8760, 111.0614
216.3581, 112.5103
216.8403, 114.1178
217.3224, 115.8937
217.8045, 117.9380
218.2866, 119.8474
218.7687, 121.4603
219.2508, 122.9826
219.7330, 124.9535
220.2151, 127.5195
220.6972, 130.2462
221.1793, 132.9000
221.6614, 135.4718
222.1435, 138.0524
222.6257, 140.6987
223.1078, 143.3422
223.5899, 145.8772
224.0720, 148.3481
224.5541, 150.6508
225.0362, 152.7478
225.5184, 154.4783
226.0005, 156.4013
226.4826, 158.7527
226.9647, 161.2533
227.4468, 163.1057
227.9289, 163.8241
228.4111, 164.6293
228.8932, 166.1477
229.3753, 168.8184
229.8574, 171.1339
230.3395, 172.8712
230.8216, 174.2691
231.3038, 176.0147
231.7859, 178.1735
232.2680, 180.5658
232.7501, 183.0877
233.2322, 185.6060
233.7143, 188.5583
234.1965, 192.1363
234.6786, 196.1272
235.1607, 199.9962
235.6428, 203.7532
236.1249, 207.3680
236.6070, 210.7841
237.0892, 213.7886
237.5713, 217.0527
238.0534, 220.5853
238.5355, 224.3714
239.0176, 228.3968
239.4997, 232.9158
239.9819, 237.3887
240.4640, 241.4588
240.9461, 244.6687
241.4282, 248.6491
241.9103, 253.7114
242.3924, 259.4457
242.8746, 264.8968
243.3567, 270.0477
243.8388, 274.9437
244.3209, 279.5280
244.8030, 283.4273
245.2851, 287.9185
245.7673, 293.2064
246.2494, 299.0069
246.7315, 304.7091
247.2136, 310.2380
247.6957, 315.7918
248.1778, 321.4478
248.6600, 327.1341
249.1421, 333.0688
249.6242, 339.5196
250.1063, 346.1163
250.5884, 352.1552
251.0705, 357.5826
251.5527, 362.5569
252.0348, 367.0558
252.5169, 371.0573
252.9990, 374.8079
253.4811, 378.4118
253.9632, 381.7333
254.4454, 384.5174
254.9275, 386.8532
255.4096, 388.5124
255.8917, 389.3137
256.3738, 389.0628
256.8560, 388.8617
257.3381, 388.9312
257.8202, 388.8672
258.3023, 387.9777
258.7844, 385.9595
259.2665, 383.7981
259.7487, 381.7303
260.2308, 379.7472
260.7129, 378.0141
261.1950, 376.5945
261.6771, 375.3587
262.1592, 374.0890
262.6414, 372.6503
263.1235, 371.5763
263.6056, 371.2764
264.0877, 371.8671
264.5698, 371.3173
265.0519, 369.2334
265.5341, 366.5580
266.0162, 364.4446
266.4983, 363.2104
266.9804, 361.5949
267.4625, 359.1611
267.9446, 355.9454
268.4268, 352.8623
268.9089, 349.9111
269.3910, 347.2000
269.8731, 344.7660
270.3552, 342.5565
270.8373, 340.9297
271.3195, 340.1086
271.8016, 340.0025
272.2837, 339.5638
272.7658, 338.6163
273.2479, 337.7164
273.7300, 337.2899
274.2122, 337.3175
274.6943, 337.9649
275.1764, 339.4107
275.6585, 341.5046
276.1406, 343.4471
276.6227, 345.1985
277.1049, 346.9414
277.5870, 349.0072
278.0691, 351.4843
278.5512, 353.2993
279.0333, 354.3044
279.5154, 354.5221
279.9976, 353.9844
280.4797, 352.6574
280.9618, 350.7269
281.4439, 348.3963
281.9260, 345.6752
282.4081, 341.9501
282.8903, 337.1010
283.3724, 331.2464
283.8545, 324.5462
284.3366, 316.9645
284.8187, 308.8787
285.3008, 300.1745
285.7830, 290.9152
286.2651, 282.9436
286.7472, 276.6657
287.2293, 271.1559
287.7114, 264.5488
288.1935, 256.8553
288.6757, 249.4609
289.1578, 243.1522
289.6399, 237.8100
290.1220, 233.2655
290.6041, 229.5891
291.0862, 226.3368
291.5684, 222.6211
292.0505, 218.5507
292.5326, 215.2932
293.0147, 213.8471
293.4968, 213.6535
293.9789, 212.8498
294.4611, 211.2849
294.9432, 209.7916
295.4253, 209.4943
295.9074, 210.1714
296.3895, 210.8601
296.8716, 210.9232
297.3538, 210.7830
297.8359, 211.3530
298.3180, 212.6572
298.8001, 214.2420
299.2822, 215.6544
299.7643, 217.0265
300.2465, 218.6872
300.7286, 220.8882
301.2107, 223.3433
301.6928, 225.6065
302.1749, 227.6864
302.6570, 230.0229
303.1392, 232.8441
303.6213, 236.1636
304.1034, 239.9736
304.5855, 244.5475
305.0676, 249.3374
305.5497, 253.8526
306.0319, 258.1348
306.5140, 262.6344
306.9961, 267.6861
307.4782, 273.0357
307.9603, 278.4388
308.4424, 283.7480
308.9246, 289.1805
309.4067, 295.0026
309.8888, 301.0741
310.3709, 307.1204
310.8530, 312.7293
311.3351, 318.3248
311.8173, 324.2425
312.2994, 330.6200
312.7815, 337.2764
313.2636, 344.0776
313.7457, 351.0233
314.2278, 358.1762
314.7100, 365.7552
315.1921, 373.3393
315.6742, 380.6469
316.1563, 387.5822
316.6384, 394.5636
317.1205, 401.5025
317.6027, 408.5512
318.0848, 415.8659
318.5669, 424.4731
319.0490, 432.4840
319.5311, 438.9982
320.0132, 443.9312
320.4954, 448.5349
320.9775, 453.0502
321.4596, 457.4007
321.9417, 461.4510
322.4238, 465.0673
322.9059, 468.4908
323.3881, 471.9812
323.8702, 475.4453
324.3523, 478.1569
324.8344, 479.7953
325.3165, 480.7936
325.7986, 481.4281
326.2808, 482.3374
326.7629, 482.1664
327.2450, 480.9933
327.7271, 478.7209
328.2092, 474.9571
328.6913, 468.4911
329.1735, 461.6097
329.6556, 455.2099
330.1377, 450.3488
330.6198, 443.9229
331.1019, 435.2329
331.5840, 425.2014
332.0662, 415.3858
332.5483, 405.9953
333.0304, 396.4243
333.5125, 386.6297
333.9946, 376.4438
334.4767, 366.3111
334.9589, 356.1780
335.4410, 346.2747
335.9231, 336.9217
336.4052, 328.2850
336.8873, 319.9836
337.3694, 312.0170
337.8516, 304.4123
338.3336, 296.9813
338.8158, 289.6313
339.2979, 282.6319
339.7800, 276.0489
340.2621, 269.9029
340.7442, 264.4278
341.2263, 259.8329
341.7085, 255.9385
342.1906, 252.4866
342.6727, 249.4996
343.1548, 246.6297
343.6369, 243.6523
344.1190, 240.5871
344.6012, 237.2533
345.0833, 233.4978
345.5654, 229.7648
346.0475, 226.8921
346.5296, 224.8532
347.0117, 223.0867
347.4939, 221.4417
347.9760, 219.8638
348.4581, 218.0016
348.9402, 215.7487
349.4223, 213.7558
349.9044, 213.0753
350.3866, 213.3198
350.8687, 213.1451
351.3508, 211.4277
351.8329, 209.2141
352.3150, 208.2018
352.7971, 208.3643
353.2793, 208.8541
353.7614, 209.0258
354.2435, 209.0787
354.7256, 209.3133
355.2077, 209.6958
355.6898, 210.4378
356.1720, 211.7841
356.6541, 213.6847
357.1362, 215.8918
357.6183, 218.6978
358.1004, 221.5352
358.5826, 223.7817
359.0647, 225.0125
359.5468, 226.4423
360.0289, 228.8479
360.5110, 231.9039
360.9931, 235.0037
361.4753, 238.5152
361.9574, 241.4915
362.4395, 243.3957
362.9216, 244.1006
363.4037, 244.2514
363.8858, 243.9851
364.3680, 243.2870
364.8501, 242.1368
365.3322, 240.8118
365.8143, 238.7693
366.2964, 235.7395
366.7785, 231.7251
367.2607, 227.4698
367.7428, 223.1628
368.2249, 218.5345
368.7070, 213.3898
369.1891, 207.2593
369.6712, 201.2892
370.1534, 195.2706
370.6355, 189.3963
371.1176, 184.3179
371.5997, 180.5085
372.0818, 176.8699
372.5639, 172.8523
373.0461, 168.0882
373.5282, 164.0996
374.0103, 161.0485
374.4924, 158.5333
374.9745, 156.0213
375.4566, 153.5020
375.9388, 150.9685
376.4209, 148.4506
376.9030, 145.9162
377.3851, 143.2865
377.8672, 140.4307
378.3493, 137.7953
378.8315, 135.9485
379.3136, 134.8912
379.7957, 133.8005
380.2778, 132.4628
380.7599, 131.0515
381.2420, 130.0763
381.7242, 129.5528
382.2063, 128.8485
382.6884, 127.3613
383.1705, 125.3288
383.6526, 123.5802
384.1347, 122.1782
384.6169, 121.1253
385.0990, 120.6557
385.5811, 120.6056
386.0632, 120.4714
386.5453, 120.0279
387.0274, 119.3583
387.5096, 118.5207
387.9917, 117.5238
388.4738, 116.5216
388.9559, 115.5774
389.4380, 114.7410
389.9201, 114.0879
390.4023, 113.8223
390.8844, 113.5513
391.3665, 112.9347
391.8486, 112.0675
392.3307, 111.3175
392.8128, 110.8565
393.2950, 110.5751
393.7771, 110.4362
394.2592, 110.5325
394.7413, 110.5012
395.2234, 110.0826
395.7055, 109.4901
396.1877, 109.0544
396.6698, 109.0293
397.1519, 108.9981
397.6340, 108.8099
398.1161, 108.4360
398.5982, 108.1272
399.0804, 107.9066
399.5625, 107.7562
400.0446, 107.6615
400.5267, 107.5656
401.0088, 107.6253
401.4909, 107.9793
401.9731, 108.5129
402.4552, 108.7166
402.9373, 108.3736
403.4194, 108.0558
403.9015, 108.0155
404.3836, 108.2653
404.8658, 108.8200
405.3479, 109.8812
405.8300, 110.9636
406.3121, 111.2046
406.7942, 110.4536
407.2763, 109.9126
407.7585, 110.0608
408.2406, 110.7490
408.7227, 111.1073
409.2048, 111.0989
409.6869, 111.0479
410.1690, 111.2472
410.6512, 111.6555
411.1333, 112.1032
411.6154, 112.5982
412.0975, 113.0474
412.5796, 113.2793
413.0617, 113.3283
413.5439, 113.3690
414.0260, 113.5114
414.5081, 113.7045
414.9902, 113.8072
415.4723, 113.7845
415.9544, 113.9540
416.4366, 114.7984
416.9187, 115.9535
417.4008, 116.8696
417.8829, 117.3238
418.3650, 117.5021
418.8471, 117.3022
419.3293, 116.8261
419.8114, 116.6639
420.2935, 117.4727
420.7756, 118.4260
421.2577, 118.9185
421.7398, 118.5640
422.2220, 118.3290
422.7041, 118.6129
423.1862, 119.1219
423.6683, 119.3279
424.1504, 119.0463
424.6325, 118.5746
425.1147, 117.9382
425.5968, 117.0989
426.0789, 116.3915
426.5610, 116.0129
427.0431, 115.5878
427.5252, 114.7816
428.0074, 113.3786
428.4895, 112.0950
428.9716, 111.0280
429.4537, 110.1394
429.9358, 109.3991
430.4179, 108.9078
430.9001, 108.2176
431.3822, 106.9079
431.8643, 104.9604
432.3464, 103.7487
432.8285, 103.4201
433.3106, 103.3587
433.7928, 102.7175
434.2749, 101.5783
434.7570, 100.6222
435.2391, 100.0280
435.7212, 99.76949
436.2033, 99.99388
436.6855, 100.6406
437.1676, 101.1131
437.6497, 100.7177
438.1318, 99.95414
438.6139, 99.64604
439.0960, 100.0279
439.5782, 100.4908
440.0603, 100.5269
440.5424, 100.2878
441.0245, 100.0575
441.5066, 99.97933
441.9887, 99.92580
442.4709, 99.80468
442.9530, 99.61735
443.4351, 99.47803
443.9172, 99.38251
444.3993, 99.37923
444.8814, 99.51061
445.3636, 99.95655
445.8457, 100.3023
446.3278, 100.5226
446.8099, 100.6020
447.2920, 100.4982
447.7741, 99.77979
448.2563, 99.36591
448.7384, 99.61765
449.2205, 100.6470
449.7026, 101.4457
450.1847, 101.8757
450.6668, 102.2399
451.1490, 102.8856
451.6311, 103.9766
452.1132, 104.6788
452.5953, 104.7215
453.0774, 104.4175
453.5595, 104.7211
454.0417, 105.7083
454.5238, 106.6016
455.0059, 106.9195
455.4880, 106.7607
455.9701, 106.6135
456.4522, 106.4775
456.9344, 106.4503
457.4165, 106.6411
457.8986, 107.0260
458.3807, 107.5418
458.8628, 108.2368
459.3449, 108.9810
459.8271, 109.7334
460.3092, 110.4459
460.7913, 110.9306
461.2734, 110.8216
461.7555, 110.5915
462.2376, 110.6752
462.7198, 111.1964
463.2019, 111.7245
463.6840, 112.0018
464.1661, 112.1887
464.6482, 112.4792
465.1303, 113.1445
465.6125, 113.6856
466.0946, 113.9128
466.5767, 113.8603
467.0588, 113.8456
467.5409, 113.8659
468.0230, 113.9530
468.5052, 114.1485
468.9873, 114.5814
469.4694, 114.7856
469.9515, 114.6305
470.4336, 114.3621
470.9157, 114.3321
471.3979, 114.5916
471.8800, 114.9261
472.3621, 115.3006
472.8442, 115.7055
473.3263, 116.1247
473.8084, 116.5652
474.2906, 116.9648
474.7727, 117.1729
475.2548, 117.2689
475.7369, 117.7191
476.2190, 118.6528
476.7011, 119.6150
477.1833, 119.8440
477.6654, 119.6404
478.1475, 119.8341
478.6296, 121.1407
479.1117, 122.7535
479.5938, 123.8522
480.0760, 124.4990
480.5581, 125.0764
481.0402, 125.6019
481.5223, 126.2791
482.0044, 127.3399
482.4865, 128.9940
482.9687, 130.5443
483.4508, 131.5954
483.9329, 132.4476
484.4150, 133.5131
484.8971, 134.9080
485.3792, 136.4884
485.8614, 138.2503
486.3435, 140.1879
486.8256, 142.2531
487.3077, 144.3481
487.7898, 146.6553
488.2719, 149.3933
488.7541, 152.8232
489.2362, 155.6055
489.7183, 157.4852
490.2004, 159.0473
490.6825, 161.2081
491.1646, 164.0218
491.6468, 166.9883
492.1289, 170.0404
492.6110, 173.1135
493.0931, 176.1301
493.5752, 179.1063
494.0573, 182.2483
494.5395, 185.9188
495.0216, 189.8450
495.5037, 193.5347
495.9858, 196.8286
496.4679, 200.0765
496.9500, 203.4372
497.4322, 206.9565
497.9143, 210.6506
498.3964, 215.1030
498.8785, 219.2256
499.3606, 222.1799
499.8427, 224.1980
500.3249, 226.1592
500.8070, 228.6628
501.2891, 230.9943
501.7712, 232.7422
502.2533, 233.7296
502.7354, 234.5165
503.2176, 235.3002
503.6997, 235.8123
504.1818, 235.7797
504.6639, 235.1699
505.1460, 234.0797
505.6281, 232.5893
506.1103, 230.6105
506.5924, 227.7951
507.0745, 224.0189
507.5566, 219.8365
508.0387, 215.4863
508.5208, 210.9680
509.0030, 206.1903
509.4851, 201.1006
509.9672, 196.0577
510.4493, 191.6149
510.9314, 187.5681
511.4135, 183.1568
511.8957, 178.0845
512.3778, 172.8583
512.8599, 167.9084
513.3420, 163.2834
513.8242, 159.1395
514.3063, 155.7722
514.7884, 152.7014
515.2705, 149.5278
515.7526, 146.2334
516.2347, 143.1990
516.7169, 140.7701
517.1990, 138.5485
517.6811, 136.2266
518.1632, 133.5267
518.6453, 131.0288
519.1274, 128.6878
519.6096, 126.5946
520.0917, 124.9925
520.5738, 124.2135
521.0559, 123.3829
521.5380, 122.2743
522.0201, 120.9032
522.5023, 119.5122
522.9844, 118.0608
523.4665, 116.6930
523.9486, 115.4309
524.4307, 114.2831
524.9128, 113.6447
525.3950, 113.6436
525.8771, 113.8315
526.3592, 113.6499
526.8413, 113.1603
527.3234, 112.5728
527.8055, 111.9086
528.2877, 111.2433
528.7698, 110.6427
529.2519, 110.1105
529.7340, 109.6392
530.2161, 109.2142
530.6982, 108.8584
531.1804, 108.5539
531.6625, 108.2827
532.1446, 108.2077
532.6267, 108.6171
533.1088, 109.1368
533.5909, 109.4158
534.0731, 109.1272
534.5552, 108.9495
535.0373, 108.9209
535.5194, 109.0359
536.0015, 109.3020
536.4836, 109.7962
536.9658, 110.2748
537.4479, 110.6084
537.9300, 110.8089
538.4121, 111.2441
538.8942, 111.9489
539.3763, 112.7278
539.8585, 113.3513
540.3406, 113.8776
540.8227, 114.6607
541.3048, 115.7789
541.7869, 117.0664
542.2690, 118.3461
542.7512, 119.6373
543.2333, 120.9863
543.7154, 122.2670
544.1975, 123.7348
544.6796, 125.5796
545.1617, 127.7969
545.6439, 130.2961
546.1260, 133.2630
546.6081, 136.3285
547.0902, 139.3310
547.5723, 142.2612
548.0544, 144.9572
548.5366, 147.0449
549.0187, 149.1153
549.5008, 151.6820
549.9829, 154.8528
550.4650, 158.3357
550.9471, 162.1824
551.4293, 166.2805
551.9114, 170.5089
552.3935, 174.9155
552.8756, 179.2053
553.3577, 183.0798
553.8398, 186.7480
554.3220, 191.2430
554.8041, 196.6025
555.2862, 202.2873
555.7683, 207.7041
556.2504, 213.2118
556.7325, 219.8556
557.2147, 227.9556
557.6968, 236.1585
558.1789, 243.2069
558.6610, 249.6841
559.1431, 256.3797
559.6252, 264.1758
560.1074, 271.6115
560.5895, 278.0542
561.0716, 283.6808
561.5537, 288.9570
562.0358, 295.5618
562.5179, 300.3456
563.0001, 302.1277
563.4822, 300.7865
563.9643, 297.8410
564.4464, 292.5151
564.9285, 286.6723
565.4106, 281.5065
565.8928, 276.9913
566.3749, 273.2891
566.8570, 270.4570
567.3391, 268.2586
567.8212, 266.5784
568.3033, 265.3053
568.7855, 263.7147
569.2676, 261.3833
569.7497, 258.7600
570.2318, 256.6961
570.7139, 255.0072
571.1960, 252.7134
571.6782, 249.0595
572.1603, 244.7084
572.6424, 240.2708
573.1245, 235.7822
573.6066, 230.8611
574.0887, 224.9938
574.5709, 218.8054
575.0530, 212.7332
575.5351, 206.9489
576.0172, 201.0133
576.4993, 194.8166
576.9814, 188.5020
577.4636, 182.3193
577.9457, 176.0691
578.4278, 170.5250
578.9099, 166.1035
579.3920, 162.5497
579.8741, 158.9352
580.3563, 155.2706
580.8384, 151.6063
581.3205, 147.8980
581.8026, 144.1870
582.2847, 140.7004
582.7668, 137.4239
583.2490, 134.5462
583.7311, 132.4992
584.2132, 130.8506
584.6953, 128.9612
585.1774, 126.4953
585.6595, 124.2585
586.1416, 122.7921
586.6237, 121.7962
587.1058, 120.7899
587.5880, 119.8250
588.0701, 118.6621
588.5522, 117.0149
589.0343, 115.0593
589.5164, 113.6322
589.9985, 112.9358
590.4807, 112.4283
590.9628, 111.9165
591.4449, 111.4003
591.9270, 110.8500
592.4091, 110.2621
592.8912, 109.6515
593.3734, 109.0134
593.8555, 108.3564
594.3376, 107.7221
594.8197, 107.1034
595.3018, 106.5687
595.7839, 106.2846
596.2661, 106.1328
596.7482, 105.8825
597.2303, 105.2942
597.7124, 104.7391
598.1945, 104.5154
598.6766, 104.5092
599.1588, 104.3898
599.6409, 103.8580
600.1230, 103.3899
600.6051, 103.2480
601.0872, 103.4680
601.5693, 103.4263
602.0515, 103.0131
602.5336, 102.4863
603.0157, 101.9162
603.4978, 101.2235
603.9799, 101.0662
604.4620, 101.6156
604.9442, 102.2611
605.4263, 102.0378
605.9084, 101.1306
606.3905, 100.6942
606.8726, 101.1820
607.3547, 101.8833
607.8369, 101.8136
608.3190, 101.2480
608.8011, 100.8857
609.2832, 101.3345
609.7653, 101.8606
610.2474, 101.9573
610.7296, 101.6754
611.2117, 101.4951
611.6938, 101.5553
612.1759, 101.7405
612.6580, 102.0750
613.1401, 102.6925
613.6223, 102.8076
614.1044, 102.0353
614.5865, 101.2782
615.0686, 101.5105
615.5507, 102.9134
616.0328, 103.6225
616.5150, 103.2860
616.9971, 102.6150
617.4792, 102.7643
617.9613, 103.5559
618.4434, 104.1519
618.9255, 104.1860
619.4077, 103.9978
619.8898, 103.8311
620.3719, 103.7446
620.8540, 103.9181
621.3361, 104.7075
621.8182, 105.5513
622.3004, 106.0257
622.7825, 106.1208
623.2646, 106.5522
623.7467, 107.8011
624.2288, 109.1311
624.7109, 110.1502
625.1931, 110.7131
625.6752, 111.4954
626.1573, 112.6122
626.6394, 113.7615
627.1215, 114.5795
627.6036, 115.0589
628.0858, 115.6120
628.5679, 116.2541
629.0500, 117.1145
629.5321, 118.5303
630.0142, 120.3500
630.4963, 122.0375
630.9785, 123.2156
631.4606, 124.3577
631.9427, 125.9412
632.4248, 127.8429
632.9069, 129.6741
633.3890, 131.1511
633.8712, 132.6112
634.3533, 134.1250
634.8354, 135.6817
635.3175, 137.6830
635.7996, 140.6715
636.2817, 143.4919
636.7639, 145.4229
637.2460, 146.1601
637.7281, 147.5611
638.2102, 149.8008
638.6923, 152.2184
639.1744, 154.0237
639.6566, 155.3145
640.1387, 156.8481
640.6208, 158.8294
641.1029, 160.7801
641.5850, 162.0084
642.0671, 162.7915
642.5493, 163.7154
643.0314, 165.4392
643.5135, 166.9460
643.9956, 167.6448
644.4777, 167.6971
644.9598, 167.6197
645.4420, 167.6999
645.9241, 167.4870
646.4062, 166.8406
646.8883, 165.7771
647.3704, 164.4926
647.8525, 162.9297
648.3347, 161.2890
648.8168, 159.8237
649.2989, 158.4967
649.7810, 156.6417
650.2631, 154.2356
650.7452, 151.5310
651.2274, 148.6395
651.7095, 145.6868
652.1916, 142.8772
652.6737, 140.2989
653.1558, 137.8580
653.6379, 135.5321
654.1201, 133.2699
654.6022, 130.9917
655.0843, 128.3378
655.5664, 126.0545
656.0485, 124.5372
656.5306, 123.5101
657.0128, 122.3105
657.4949, 120.9113
657.9770, 119.3926
658.4591, 117.7615
658.9412, 116.0371
659.4233, 114.1814
659.9055, 112.1423
660.3876, 110.4980
660.8697, 109.8696
661.3518, 109.7982
661.8339, 109.0383
662.3160, 107.6322
662.7982, 106.3222
663.2803, 105.8559
663.7624, 105.6100
664.2445, 104.9023
664.7266, 103.5313
665.2087, 102.4001
665.6909, 102.0349
666.1730, 101.9027
666.6551, 101.5567
667.1372, 100.8272
667.6193, 100.1418
668.1014, 99.49511
668.5836, 98.90663
669.0657, 98.37856
669.5478, 97.90347
670.0299, 97.66089
670.5120, 97.77382
670.9941, 97.98464
671.4763, 97.80894
671.9584, 97.32468
672.4405, 96.83324
672.9226, 96.32217
673.4047, 95.97977
673.8868, 96.05595
674.3690, 96.45910
674.8511, 96.86404
675.3332, 97.44577
675.8153, 97.72367
676.2974, 97.27663
676.7795, 96.05884
677.2617, 95.48291
677.7438, 95.92801
678.2259, 96.42802
678.7080, 96.39114
679.1901, 95.75685
679.6722, 95.70850
680.1544, 96.33748
680.6365, 97.00682
681.1186, 97.02794
681.6007, 96.64021
682.0828, 96.50130
682.5649, 96.75297
683.0471, 96.97144
683.5292, 96.71880
684.0113, 96.26337
684.4934, 95.93578
684.9755, 95.93784
685.4576, 95.89184
685.9398, 95.55050
686.4219, 95.15181
686.9040, 95.09927
687.3861, 95.65260
687.8682, 96.02819
688.3503, 96.06768
688.8325, 95.88197
689.3146, 95.74797
689.7967, 95.66834
690.2788, 95.54209
690.7609, 95.20939
691.2430, 94.89843
691.7252, 95.20926
692.2073, 95.98171
692.6894, 96.47807
693.1715, 95.95940
693.6536, 95.25975
694.1357, 95.01949
694.6179, 95.24645
695.1000, 95.34321
695.5821, 95.05271
696.0642, 94.69379
696.5463, 94.41407
697.0284, 94.22859
697.5106, 93.98135
697.9927, 93.57693
698.4748, 93.33598
698.9569, 93.69075
699.4390, 94.53684
699.9211, 94.97884
700.4033, 94.93981
700.8854, 94.61677
701.3675, 93.96707
701.8496, 93.23673
702.3317, 92.84804
702.8138, 93.02417
703.2960, 93.22915
703.7781, 93.23951
704.2602, 93.10890
704.7423, 92.90299
705.2244, 92.50504
705.7065, 92.19836
706.1887, 92.05457
706.6708, 91.97963
707.1529, 91.75639
707.6350, 91.33409
708.1171, 91.09608
708.5992, 91.25609
709.0814, 91.51595
709.5635, 91.12222
710.0456, 90.21474
710.5277, 89.46799
711.0098, 89.31026
711.4919, 89.38493
711.9741, 89.49834
712.4562, 89.60754
712.9383, 89.55169
713.4204, 89.03113
713.9025, 88.56265
714.3846, 88.45750
714.8668, 88.68763
715.3489, 88.63358
715.8310, 88.13895
716.3131, 87.67273
716.7952, 87.51330
717.2773, 87.63209
717.7595, 87.57927
718.2416, 87.34554
718.7237, 87.09956
719.2058, 87.02168
719.6879, 87.00285
720.1700, 86.81252
720.6522, 86.41006
721.1343, 86.15153
721.6164, 86.37891
722.0985, 86.74997
722.5806, 86.99527
723.0627, 87.04613
723.5449, 87.02539
724.0270, 86.91824
724.5091, 86.76579
724.9912, 86.60337
725.4733, 86.42897
725.9554, 86.22438
726.4376, 85.96038
726.9197, 85.74569
727.4018, 85.77913
727.8839, 85.99146
728.3660, 86.16689
728.8481, 86.24979
729.3303, 86.28374
729.8124, 86.27922
730.2945, 86.25688
730.7766, 86.24840
731.2587, 86.37304
731.7408, 86.38344
732.2230, 86.06555
732.7051, 85.63509
733.1872, 85.53040
733.6693, 85.90455
734.1514, 86.14449
734.6335, 86.02833
735.1157, 85.76289
735.5978, 85.92733
736.0799, 86.47530
736.5620, 87.01650
737.0441, 87.45340
737.5262, 87.72346
738.0084, 87.63787
738.4905, 87.30595
738.9726, 87.09895
739.4547, 87.36686
739.9368, 87.61153
740.4189, 87.52551
740.9011, 87.13718
741.3832, 87.05613
741.8653, 87.47070
742.3474, 87.84363
742.8295, 87.90600
743.3116, 87.71345
743.7938, 87.70112
744.2759, 87.86929
744.7580, 88.19209
745.2401, 88.89692
745.7222, 89.63371
746.2043, 89.72013
746.6865, 89.17040
747.1686, 88.77885
747.6507, 89.23789
748.1328, 89.81328
748.6149, 89.96165
749.0970, 89.48866
749.5792, 89.28861
750.0613, 89.46785
750.5434, 89.82298
751.0255, 90.26860
751.5076, 90.81539
751.9897, 91.28382
752.4719, 91.67177
752.9540, 91.99412
753.4361, 92.26124
753.9182, 92.48093
754.4003, 92.65775
754.8824, 92.78043
755.3646, 92.94116
755.8467, 93.48817
756.3288, 93.93999
756.8109, 93.75099
757.2930, 92.14148
757.7751, 91.37695
758.2573, 92.10320
758.7394, 93.19986
759.2215, 93.51118
759.7036, 92.86728
760.1857, 92.72264
760.6678, 93.29911
761.1500, 94.07706
761.6321, 94.36604
762.1142, 94.33264
762.5963, 94.42919
763.0784, 94.86156
763.5605, 95.15977
764.0427, 94.83040
764.5248, 94.23412
765.0069, 93.82302
765.4890, 93.61735
765.9711, 93.74551
766.4532, 94.53721
766.9354, 95.43658
767.4175, 95.55173
767.8996, 94.73108
768.3817, 94.07083
768.8638, 93.74413
769.3459, 93.68506
769.8281, 94.02485
770.3102, 94.56800
770.7923, 94.69392
771.2744, 93.86369
771.7565, 93.06712
772.2386, 93.09262
772.7208, 93.58960
773.2029, 93.94773
773.6850, 94.03186
774.1671, 93.94536
774.6492, 93.62772
775.1313, 93.18871
775.6135, 92.82614
776.0956, 92.52608
776.5777, 92.46202
777.0598, 92.80827
777.5419, 93.21908
778.0240, 92.91914
778.5062, 92.13937
778.9883, 91.60128
779.4704, 91.91482
779.9525, 92.28646
780.4346, 92.26362
780.9167, 91.92945
781.3989, 91.49167
781.8810, 90.71087
782.3631, 90.18423
782.8452, 90.11724
783.3273, 90.34539
783.8094, 90.38597
784.2916, 90.22527
784.7737, 90.00240
785.2558, 89.69608
785.7379, 89.43121
786.2200, 89.55836
786.7021, 89.95119
787.1843, 90.17678
787.6664, 89.87666
788.1485, 89.50251
788.6306, 89.32026
789.1127, 89.27475
789.5948, 89.14656
790.0770, 88.80599
790.5591, 88.53549
791.0412, 88.40208
791.5233, 88.38457
792.0054, 88.45145
792.4875, 88.60503
792.9697, 88.65977
793.4518, 88.46346
793.9339, 88.17988
794.4160, 88.08309
794.8981, 88.12633
795.3802, 88.15469
795.8624, 88.19741
796.3445, 88.10596
796.8266, 87.67815
797.3087, 87.01871
797.7908, 86.64957
798.2729, 86.71852
798.7551, 86.83015
799.2372, 86.91587
799.7193, 86.94196
800.2014, 86.62585
800.6835, 86.01517
801.1656, 85.77390
801.6478, 86.64121
802.1299, 87.75217
802.6120, 88.02360
803.0941, 87.67263
803.5762, 87.39693
804.0583, 87.68298
804.5405, 87.88281
805.0226, 87.58221
805.5047, 86.96489
805.9868, 86.80781
806.4689, 87.28445
806.9510, 87.67701
807.4332, 87.69346
807.9153, 87.49113
808.3974, 87.52769
808.8795, 87.76637
809.3616, 87.99667
809.8438, 88.14758
810.3259, 88.21078
810.8080, 88.13128
811.2901, 87.95237
811.7722, 87.81101
812.2543, 87.80627
812.7365, 87.75941
813.2186, 87.49681
813.7007, 87.17623
814.1828, 87.52367
814.6649, 88.67183
815.1470, 89.41548
815.6292, 89.09612
816.1113, 88.32636
816.5934, 88.29764
817.0755, 88.81337
817.5576, 89.22152
818.0397, 89.08274
818.5219, 88.87791
819.0040, 88.83438
819.4861, 88.91989
819.9682, 89.01404
820.4503, 89.03110
820.9324, 89.20922
821.4146, 89.68704
821.8967, 90.28689
822.3788, 90.56231
822.8609, 90.51855
823.3430, 90.22206
823.8251, 89.49171
824.3073, 88.80411
824.7894, 88.84502
825.2715, 89.35133
825.7536, 89.75218
826.2357, 89.80872
826.7178, 89.75829
827.2000, 89.48370
827.6821, 89.19321
828.1642, 89.32348
828.6463, 90.01421
829.1284, 90.66713
829.6105, 91.23573
830.0927, 91.59346
830.5748, 91.29451
831.0569, 90.56298
831.5390, 90.17748
832.0211, 90.52116
832.5032, 91.09081
832.9854, 91.74998
833.4675, 92.33879
833.9496, 92.59712
834.4317, 92.05006
834.9138, 91.74730
835.3959, 91.80974
835.8781, 92.09257
836.3602, 92.41606
836.8423, 92.77574
837.3244, 93.10717
837.8065, 93.40780
838.2886, 93.63924
838.7708, 93.73331
839.2529, 93.73499
839.7350, 93.69614
840.2171, 93.51357
840.6992, 93.53272
841.1813, 94.07737
841.6635, 94.75783
842.1456, 95.15723
842.6277, 95.16255
843.1098, 95.23471
843.5919, 95.42091
844.0740, 95.61739
844.5562, 95.68525
845.0383, 95.66290
845.5204, 95.64478
846.0025, 95.63789
846.4846, 95.69978
846.9667, 95.93175
847.4489, 96.21832
847.9310, 96.44189
848.4131, 96.54359
848.8952, 96.70101
849.3773, 96.91003
849.8594, 97.18789
850.3416, 97.57256
850.8237, 98.06027
851.3058, 98.51987
851.7879, 98.95327
852.2700, 99.30131
852.7521, 99.44974
853.2343, 99.53239
853.7164, 99.66749
854.1985, 99.86377
854.6806, 100.2417
855.1627, 101.1838
855.6448, 101.9924
856.1270, 102.2437
856.6091, 101.9211
857.0912, 101.9457
857.5733, 102.3661
858.0554, 102.8528
858.5375, 103.1044
859.0197, 103.3017
859.5018, 104.0209
859.9839, 105.1436
860.4660, 105.9568
860.9481, 105.9773
861.4302, 105.6634
861.9124, 104.9388
862.3945, 103.9539
862.8766, 103.9771
863.3587, 105.5108
863.8408, 106.8816
864.3229, 107.4594
864.8051, 107.5020
865.2872, 107.7449
865.7693, 108.1504
866.2514, 108.4820
866.7335, 108.3893
867.2156, 108.4033
867.6978, 109.0548
868.1799, 110.1134
868.6620, 111.0644
869.1441, 112.0736
869.6262, 112.5163
870.1083, 111.9721
870.5905, 111.0794
871.0726, 111.2650
871.5547, 112.4955
872.0368, 113.3653
872.5189, 113.3954
873.0010, 113.3103
873.4832, 113.9644
873.9653, 115.0770
874.4474, 116.2060
874.9295, 117.4252
875.4116, 118.3168
875.8937, 118.4518
876.3759, 118.4338
876.8580, 118.8520
877.3401, 119.8069
877.8222, 120.6443
878.3043, 121.3316
878.7864, 121.8509
879.2686, 121.9837
879.7507, 122.0052
880.2328, 122.4205
880.7149, 123.3162
881.1970, 124.4612
881.6791, 126.2853
882.1613, 127.8921
882.6434, 128.5245
883.1255, 128.0024
883.6076, 127.9506
884.0897, 128.4328
884.5718, 129.1846
885.0540, 130.2511
885.5361, 131.4347
886.0182, 131.9161
886.5003, 131.7913
886.9824, 131.8148
887.4645, 132.5983
887.9467, 133.5332
888.4288, 134.2743
888.9109, 134.8068
889.3930, 135.3005
889.8751, 135.7445
890.3572, 136.1772
890.8394, 136.6273
891.3215, 137.0554
891.8036, 137.2287
892.2857, 137.2269
892.7678, 137.5076
893.2499, 138.5634
893.7321, 139.6182
894.2142, 139.9436
894.6963, 139.8929
895.1784, 140.1402
895.6605, 141.2410
896.1426, 142.0113
896.6248, 142.2835
897.1069, 142.2738
897.5890, 142.2306
898.0711, 142.1724
898.5532, 142.2909
899.0353, 142.6313
899.5175, 143.1013
899.9996, 143.6886
900.4817, 144.3253
900.9638, 144.9598
901.4459, 145.6951
901.9280, 146.1012
902.4102, 145.9829
902.8923, 145.7298
903.3744, 145.5915
903.8565, 145.5678
904.3386, 145.6109
904.8207, 145.7233
905.3029, 145.7910
905.7850, 145.6015
906.2671, 145.3988
906.7492, 145.4501
907.2313, 145.7626
907.7134, 146.1845
908.1956, 146.8749
908.6777, 147.4353
909.1598, 147.6944
909.6419, 147.7208
910.1240, 147.9408
910.6061, 148.3642
911.0883, 148.4014
911.5704, 147.4032
912.0525, 146.3637
912.5346, 146.8325
913.0167, 148.2158
913.4988, 149.2254
913.9810, 149.1171
914.4631, 148.9521
914.9452, 148.8649
915.4273, 148.8910
915.9094, 149.1607
916.3915, 149.7092
916.8737, 149.9626
917.3558, 149.7914
917.8379, 149.5329
918.3200, 149.5385
918.8021, 149.7165
919.2842, 149.9766
919.7664, 150.3501
920.2485, 150.5612
920.7306, 150.0724
921.2127, 149.8023
921.6948, 150.4176
922.1769, 152.0075
922.6591, 153.1129
923.1412, 153.7128
923.6233, 154.0500
924.1054, 154.0127
924.5875, 153.9852
925.0696, 154.6671
925.5518, 155.9317
926.0339, 157.0161
926.5160, 157.4048
926.9981, 157.7899
927.4802, 158.4034
927.9623, 159.1775
928.4445, 159.8385
928.9266, 160.3514
929.4087, 161.2667
929.8908, 162.8516
930.3729, 164.7252
930.8550, 166.5327
931.3372, 168.2297
931.8193, 169.6589
932.3014, 170.2972
932.7835, 171.4955
933.2656, 174.0225
933.7477, 176.9099
934.2299, 179.2966
934.7120, 181.0928
935.1941, 183.0826
935.6762, 185.2644
936.1583, 187.9228
936.6404, 191.1308
937.1226, 195.0493
937.6047, 200.0845
938.0868, 206.2619
938.5689, 212.3515
939.0510, 217.4388
939.5331, 222.8782
940.0153, 229.0210
940.4974, 235.9449
940.9795, 244.3014
941.4616, 254.1581
941.9437, 265.3931
942.4258, 278.1880
942.9080, 291.8941
943.3901, 305.4295
943.8722, 319.1084
944.3543, 333.6049
944.8364, 349.3789
945.3185, 365.6830
945.8007, 382.3730
946.2828, 399.3641
946.7649, 416.7325
947.2470, 434.4881
947.7291, 452.5803
948.2112, 470.8220
948.6934, 490.6550
949.1755, 514.8206
949.6576, 540.7597
950.1397, 565.8735
950.6218, 589.4423
951.1039, 614.4445
951.5861, 641.6408
952.0682, 669.7510
952.5503, 698.4452
953.0324, 727.5684
953.5145, 756.9509
953.9966, 786.2440
954.4788, 812.6315
954.9609, 837.2005
955.4430, 856.0999
955.9251, 867.6838
956.4072, 871.1484
956.8893, 863.9452
957.3715, 843.8800
957.8536, 816.5609
958.3357, 782.0086
958.8178, 741.9183
959.2999, 697.4215
959.7820, 649.3654
960.2642, 602.4095
960.7463, 556.7542
961.2284, 513.7015
961.7105, 472.9207
962.1926, 435.4878
962.6747, 402.0145
963.1569, 372.5376
963.6390, 346.7747
964.1211, 324.8583
964.6032, 305.7528
965.0853, 289.7545
965.5674, 276.1552
966.0496, 263.2502
966.5317, 251.2768
967.0138, 240.7841
967.4959, 232.6566
967.9780, 225.5882
968.4601, 219.3215
968.9423, 213.7366
969.4244, 208.8432
969.9065, 204.7075
970.3886, 200.7650
970.8707, 196.7903
971.3528, 193.2490
971.8350, 190.7326
972.3171, 189.0575
972.7992, 187.9158
973.2813, 187.3415
973.7634, 186.7834
974.2455, 185.8223
974.7277, 185.0123
975.2098, 184.7086
975.6919, 184.9162
976.1740, 185.2021
976.6561, 185.5620
977.1382, 186.0847
977.6204, 186.7031
978.1025, 187.6098
978.5846, 189.1662
979.0667, 191.2071
979.5488, 193.2840
980.0309, 194.8505
980.5131, 196.9590
980.9952, 199.8115
981.4773, 203.2197
981.9594, 206.8413
982.4415, 210.6925
982.9236, 215.0461
983.4058, 219.8491
983.8879, 225.4039
984.3700, 231.7272
984.8521, 239.0617
985.3342, 247.7666
985.8163, 258.1407
986.2985, 268.6701
986.7806, 278.9855
987.2627, 290.2893
987.7448, 303.1381
988.2269, 317.5875
988.7090, 333.8112
989.1912, 351.7947
989.6733, 371.4695
990.1554, 393.3365
990.6375, 416.4949
991.1196, 440.1134
991.6017, 464.5860
992.0839, 490.2630
992.5660, 517.3941
993.0481, 544.3733
993.5302, 570.7894
994.0123, 598.4345
994.4944, 629.7877
994.9766, 663.5699
995.4587, 697.2840
995.9408, 730.1458
996.4229, 766.1318
996.9050, 808.4715
997.3871, 852.4056
997.8693, 895.4883
998.3514, 938.3470
998.8335, 983.6571
999.3156, 1030.960
999.7977, 1075.808
1000.280, 1117.586
1000.762, 1153.355
1001.244, 1183.152
1001.726, 1204.114
1002.208, 1211.497
1002.690, 1204.931
1003.173, 1183.183
1003.655, 1144.800
1004.137, 1094.365
1004.619, 1034.092
1005.101, 965.5895
1005.583, 896.5844
1006.065, 826.9099
1006.547, 760.4388
1007.029, 697.3956
1007.512, 639.0225
1007.994, 586.3173
1008.476, 538.5515
1008.958, 496.2806
1009.440, 459.8326
1009.922, 426.9572
1010.404, 397.1221
1010.886, 370.3711
1011.369, 346.5696
1011.851, 325.6548
1012.333, 307.5302
1012.815, 292.5499
1013.297, 279.0026
1013.779, 266.5371
1014.261, 255.1515
1014.743, 244.9627
1015.225, 235.8734
1015.708, 227.5424
1016.190, 219.9731
1016.672, 213.2071
1017.154, 207.1667
1017.636, 202.1284
1018.118, 198.6871
1018.600, 196.4691
1019.082, 194.1155
1019.565, 191.2587
1020.047, 189.0937
1020.529, 187.9103
1021.011, 187.2131
1021.493, 186.0295
1021.975, 184.8649
1022.457, 184.9709
1022.939, 186.6951
1023.421, 188.4140
1023.904, 189.1046
1024.386, 189.9333
1024.868, 191.5459
1025.350, 193.8627
1025.832, 196.0593
1026.314, 198.1432
1026.796, 200.6768
1027.278, 203.9752
1027.760, 207.7926
1028.243, 212.0046
1028.725, 216.5349
1029.207, 221.2429
1029.689, 226.5649
1030.171, 231.2774
1030.653, 235.2849
1031.135, 238.9093
1031.617, 242.8355
1032.100, 246.5575
1032.582, 249.0060
1033.064, 250.0758
1033.546, 249.3669
1034.028, 246.5093
1034.510, 241.9431
1034.992, 235.3852
1035.474, 227.3601
1035.957, 219.3820
1036.439, 211.3443
1036.921, 203.4367
1037.403, 195.5085
1037.885, 188.1835
1038.367, 182.2465
1038.849, 177.3328
1039.331, 173.2087
1039.813, 169.8543
1040.296, 166.9673
1040.778, 164.3973
1041.260, 162.5047
1041.742, 161.7006
1042.224, 161.6709
1042.706, 161.2680
1043.188, 160.6787
1043.670, 160.6176
1044.152, 161.6259
1044.635, 163.0063
1045.117, 164.7197
1045.599, 166.5142
1046.081, 167.9196
1046.563, 168.7968
1047.045, 170.6991
1047.527, 173.7909
1048.009, 177.1508
1048.492, 179.7229
1048.974, 182.2674
1049.456, 185.6765
1049.938, 189.9453
1050.420, 194.1975
1050.902, 198.8043
1051.384, 202.5695
1051.866, 205.0341
1052.349, 206.7714
1052.831, 209.2171
1053.313, 211.8171
1053.795, 213.1575
1054.277, 213.0037
1054.759, 211.0666
1055.241, 206.3881
1055.723, 200.5000
1056.205, 194.3451
1056.688, 187.9267
1057.170, 181.3295
1057.652, 174.5285
1058.134, 167.9829
1058.616, 161.8758
1059.098, 156.1000
1059.580, 150.5636
1060.062, 145.2863
1060.544, 140.3152
1061.027, 135.5741
1061.509, 131.2222
1061.991, 127.2481
1062.473, 123.7478
1062.955, 120.8555
1063.437, 118.5097
1063.919, 116.7714
1064.401, 115.5660
1064.884, 114.1751
1065.366, 111.8488
1065.848, 109.8520
1066.330, 108.6879
1066.812, 108.0152
1067.294, 107.1295
1067.776, 106.0551
1068.258, 104.9227
1068.740, 103.7314
1069.223, 102.6940
1069.705, 102.0245
1070.187, 101.5408
1070.669, 101.0730
1071.151, 100.6016
1071.633, 100.3444
1072.115, 100.3674
1072.597, 100.2630
1073.079, 99.80041
1073.562, 99.17949
1074.044, 98.60720
1074.526, 98.12027
1075.008, 97.78675
1075.490, 97.83297
1075.972, 97.64057
1076.454, 96.99043
1076.936, 96.38425
1077.419, 96.36787
1077.901, 96.74803
1078.383, 96.48589
1078.865, 95.67715
1079.347, 95.07590
1079.829, 95.32549
1080.311, 95.62429
1080.793, 95.49624
1081.275, 95.24160
1081.758, 95.43521
1082.240, 96.12428
1082.722, 96.37121
1083.204, 96.03954
1083.686, 95.48013
1084.168, 94.62856
1084.650, 93.96781
1085.132, 94.16066
1085.615, 95.18680
1086.097, 95.58141
1086.579, 95.08850
1087.061, 94.64101
1087.543, 94.47681
1088.025, 94.55545
1088.507, 94.95904
1088.989, 95.52115
1089.471, 95.96571
1089.953, 96.26276
1090.436, 96.31011
1090.918, 95.97520
1091.400, 95.53394
1091.882, 95.04744
1092.364, 94.57679
1092.846, 94.50211
1093.328, 94.73390
1093.810, 94.84172
1094.293, 94.43491
1094.775, 94.12400
1095.257, 94.25086
1095.739, 94.58524
1096.221, 94.91567
1096.703, 95.26472
1097.185, 95.38386
1097.667, 95.26503
1098.150, 95.07529
1098.632, 94.74854
1099.114, 94.57283
1099.596, 95.03667
1100.078, 95.85735
1100.560, 96.06203
1101.042, 95.26373
1101.524, 94.94604
1102.006, 95.42762
1102.489, 95.97396
1102.971, 95.61866
1103.453, 94.84665
1103.935, 94.38643
1104.417, 94.30059
1104.899, 94.31716
1105.381, 94.42332
1105.863, 94.55411
1106.345, 94.72653
1106.828, 94.87529
1107.310, 94.76148
1107.792, 94.50457
1108.274, 94.53172
1108.756, 95.03899
1109.238, 95.37373
1109.720, 95.04558
1110.202, 94.61379
1110.685, 94.34718
1111.167, 94.25070
1111.649, 94.51157
1112.131, 95.07286
1112.613, 95.35450
1113.095, 94.94192
1113.577, 94.45525
1114.059, 94.31377
1114.542, 94.35963
1115.024, 94.40782
1115.506, 94.44788
1115.988, 94.46693
1116.470, 94.44823
1116.952, 94.57510
1117.434, 95.25188
1117.916, 95.91042
1118.398, 95.73106
1118.880, 95.06509
1119.363, 94.79530
1119.845, 95.28710
1120.327, 95.62618
1120.809, 95.70874
1121.291, 95.76976
1121.773, 96.23573
1122.255, 96.75080
1122.737, 96.52316
1123.220, 95.65074
1123.702, 95.02727
1124.184, 94.99383
1124.666, 95.25443
1125.148, 95.93089
1125.630, 96.62636
1126.112, 96.55083
1126.594, 95.97618
1127.077, 95.73970
1127.559, 95.96619
1128.041, 96.32697
1128.523, 96.91140
1129.005, 97.30321
1129.487, 97.24944
1129.969, 96.92185
1130.451, 96.94714
1130.933, 97.24638
1131.416, 97.14516
1131.898, 96.33239
1132.380, 95.63857
1132.862, 95.83566
1133.344, 96.19997
1133.826, 96.10520
1134.308, 95.57908
1134.790, 95.35350
1135.272, 95.43525
1135.755, 95.41016
1136.237, 94.95253
1136.719, 94.59636
1137.201, 95.02415
1137.683, 95.76238
1138.165, 96.19530
1138.647, 96.23190
1139.129, 96.19627
1139.612, 96.08873
1140.094, 95.91495
1140.576, 95.55457
1141.058, 95.23687
1141.540, 95.43700
1142.022, 95.87193
1142.504, 95.92339
1142.986, 95.09431
1143.469, 94.60826
1143.951, 94.51481
1144.433, 94.68992
1144.915, 95.27055
1145.397, 95.92550
1145.879, 95.98692
1146.361, 95.55703
1146.843, 95.12556
1147.325, 94.71313
1147.807, 94.52262
1148.290, 94.63319
1148.772, 94.86766
1149.254, 95.13719
1149.736, 95.33115
1150.218, 94.98441
1150.700, 94.13850
1151.182, 93.69015
1151.664, 94.60043
1152.147, 95.21352
1152.629, 94.92656
1153.111, 94.25487
1153.593, 94.20938
1154.075, 94.62525
1154.557, 94.82398
1155.039, 94.69380
1155.521, 94.50106
1156.004, 94.30497
1156.486, 94.18114
1156.968, 94.18034
1157.450, 94.26142
1157.932, 94.29415
1158.414, 94.28655
1158.896, 94.28825
1159.378, 94.30730
1159.860, 94.36143
1160.343, 94.50283
1160.825, 94.65051
1161.307, 94.77914
1161.789, 94.87273
1162.271, 94.79172
1162.753, 94.53941
1163.235, 94.16972
1163.717, 93.61687
1164.199, 93.16148
1164.682, 93.02866
1165.164, 93.12070
1165.646, 93.39087
1166.128, 93.84315
1166.610, 94.18597
1167.092, 94.41972
1167.574, 94.43174
1168.056, 94.04915
1168.539, 93.59329
1169.021, 93.30882
1169.503, 93.15264
1169.985, 93.07561
1170.467, 93.07754
1170.949, 93.16763
1171.431, 93.37405
1171.913, 93.42137
1172.396, 92.79025
1172.878, 92.22318
1173.360, 92.91716
1173.842, 94.13403
1174.324, 94.34238
1174.806, 92.81325
1175.288, 92.07314
1175.770, 92.29592
1176.252, 92.68423
1176.734, 92.63057
1177.217, 92.36813
1177.699, 92.12251
1178.181, 91.90743
1178.663, 91.75667
1179.145, 91.68336
1179.627, 91.63857
1180.109, 91.61572
1180.591, 91.63342
1181.074, 91.74862
1181.556, 91.89208
1182.038, 92.07766
1182.520, 92.22967
1183.002, 91.97175
1183.484, 90.85101
1183.966, 90.20043
1184.448, 90.23039
1184.931, 90.61792
1185.413, 91.23460
1185.895, 91.84496
1186.377, 92.05534
1186.859, 91.86784
1187.341, 91.49874
1187.823, 90.74059
1188.305, 90.32402
1188.787, 90.43797
1189.270, 90.81509
1189.752, 91.30643
1190.234, 91.70659
1190.716, 91.54225
1191.198, 90.79148
1191.680, 90.27286
1192.162, 90.14812
1192.644, 90.33149
1193.126, 90.95574
1193.609, 91.58321
1194.091, 91.31071
1194.573, 90.59891
1195.055, 90.35632
1195.537, 90.74548
1196.019, 90.94936
1196.501, 90.70248
1196.983, 90.38313
1197.466, 89.99710
1197.948, 89.76492
1198.430, 90.38357
1198.912, 91.36724
1199.394, 91.62110
1199.876, 90.79905
1200.358, 90.36917
1200.840, 90.82793
1201.323, 91.35999
1201.805, 91.74161
1202.287, 91.92711
1202.769, 91.63283
1203.251, 91.10983
1203.733, 90.94719
1204.215, 91.39488
1204.697, 91.62318
1205.179, 91.34644
1205.661, 91.14046
1206.144, 91.36356
1206.626, 91.70039
1207.108, 91.24459
1207.590, 90.38056
1208.072, 89.99331
1208.554, 90.53530
1209.036, 90.80271
1209.518, 90.35574
1210.001, 90.15305
1210.483, 90.87516
1210.965, 91.98061
1211.447, 92.04600
1211.929, 91.47388
1212.411, 91.16696
1212.893, 91.52238
1213.375, 91.76437
1213.858, 91.74223
1214.340, 91.72584
1214.822, 91.90939
1215.304, 92.17362
1215.786, 92.23253
1216.268, 92.14403
1216.750, 92.03443
1217.232, 91.96432
1217.714, 91.80214
1218.197, 91.45998
1218.679, 91.20573
1219.161, 91.29401
1219.643, 91.52658
1220.125, 91.44749
1220.607, 91.17352
1221.089, 90.96992
1221.571, 90.85171
1222.053, 90.97569
1222.536, 91.44417
1223.018, 91.89490
1223.500, 92.12565
1223.982, 92.15333
1224.464, 91.86842
1224.946, 91.42250
1225.428, 91.16039
1225.910, 91.39065
1226.393, 91.42709
1226.875, 91.16580
1227.357, 90.99901
1227.839, 91.40118
1228.321, 91.96291
1228.803, 91.98263
1229.285, 91.62550
1229.767, 91.25846
1230.250, 90.73356
1230.732, 90.73677
1231.214, 91.39722
1231.696, 92.11538
1232.178, 92.44872
1232.660, 92.54759
1233.142, 92.54740
1233.624, 92.48507
1234.106, 92.44132
1234.589, 92.44279
1235.071, 92.39977
1235.553, 92.28098
1236.035, 92.27947
1236.517, 92.82100
1236.999, 93.33337
1237.481, 92.91537
1237.963, 92.00315
1238.445, 91.62914
1238.928, 92.02328
1239.410, 92.35397
1239.892, 92.59129
1240.374, 92.80193
1240.856, 93.15023
1241.338, 93.39025
1241.820, 93.06670
1242.302, 92.54285
1242.785, 92.63905
1243.267, 93.59547
1243.749, 93.96169
1244.231, 93.66433
1244.713, 93.25577
1245.195, 93.00652
1245.677, 92.92989
1246.159, 93.22145
1246.641, 93.61811
1247.124, 93.59569
1247.606, 93.08785
1248.088, 92.96867
1248.570, 93.27145
1249.052, 93.66331
1249.534, 94.02740
1250.016, 94.30093
1250.498, 94.34131
1250.980, 94.33001
1251.463, 94.55262
1251.945, 95.00248
1252.427, 95.19150
1252.909, 95.12500
1253.391, 95.08520
1253.873, 95.36108
1254.355, 95.55877
1254.837, 95.40177
1255.320, 95.17233
1255.802, 95.23845
1256.284, 95.52965
1256.766, 95.53602
1257.248, 95.28780
1257.730, 95.14747
1258.212, 95.33613
1258.694, 95.64069
1259.177, 96.15719
1259.659, 96.53739
1260.141, 96.22149
1260.623, 95.49076
1261.105, 95.41738
1261.587, 95.87634
1262.069, 96.10890
1262.551, 95.36040
1263.033, 95.06177
1263.516, 95.54113
1263.998, 96.16401
1264.480, 96.19765
1264.962, 95.97525
1265.444, 96.27361
1265.926, 96.95140
1266.408, 97.43012
1266.890, 97.63702
1267.372, 97.40694
1267.855, 96.58292
1268.337, 95.83129
1268.819, 95.74439
1269.301, 96.06312
1269.783, 96.59757
1270.265, 97.22271
1270.747, 97.61864
1271.229, 97.71854
1271.712, 97.71144
1272.194, 97.58626
1272.676, 97.49532
1273.158, 97.56703
1273.640, 97.71574
1274.122, 97.95249
1274.604, 98.17022
1275.086, 98.13633
1275.568, 97.77187
1276.051, 97.69679
1276.533, 97.92957
1277.015, 98.18121
1277.497, 98.23870
1277.979, 98.28439
1278.461, 98.43108
1278.943, 98.63483
1279.425, 98.94559
1279.907, 99.35467
1280.390, 98.89068
1280.872, 97.69508
1281.354, 97.01301
1281.836, 97.99749
1282.318, 99.01491
1282.800, 99.67022
1283.282, 99.93159
1283.764, 99.54379
1284.247, 98.70503
1284.729, 98.47141
1285.211, 98.71424
1285.693, 98.93994
1286.175, 98.80031
1286.657, 98.89926
1287.139, 99.50151
1287.621, 99.92558
1288.104, 99.39016
1288.586, 98.45515
1289.068, 98.28612
1289.550, 98.67471
1290.032, 99.14583
1290.514, 99.78419
1290.996, 100.0316
1291.478, 99.79460
1291.960, 99.56076
1292.443, 99.70206
1292.925, 99.94920
1293.407, 99.98901
1293.889, 99.89843
1294.371, 99.76072
1294.853, 99.51965
1295.335, 99.70259
1295.817, 100.3257
1296.299, 100.7451
1296.782, 100.4416
1297.264, 100.1182
1297.746, 100.3845
1298.228, 100.8382
1298.710, 101.0331
1299.192, 101.0006
1299.674, 101.3335
1300.156, 101.9601
1300.639, 102.4322
1301.121, 102.5815
1301.603, 102.5324
1302.085, 102.1792
1302.567, 101.8381
1303.049, 101.6531
1303.531, 101.6082
##END=



