##NAMES=Paracoquimbite
##RRUFFID=R050351
##IDEAL CHEMISTRY=Fe^3+^_4_(S^6+^O_4_)_6_(H_2_O)_12_&#183;6H_2_O
##LOCALITY=Cyprus
##OWNER=RRUFF
##SOURCE=California Institute of Technology
##DESCRIPTION=Purple fragment
##STATUS=The identification of this mineral is confirmed by single-crystal X-ray diffraction and chemical analysis.
##URL=rruff.info/R050351
##MEASURED CHEMISTRY=(Fe^3+^_1.97_Al_0.03_)_Σ=2_(S_1.00_O_4_)_3_·9H_2_O
117.1114, 336.6617
117.5935, 334.8462
118.0756, 333.9793
118.5577, 334.1632
119.0398, 335.2197
119.5220, 336.6428
120.0041, 337.9579
120.4862, 339.8474
120.9683, 343.3466
121.4504, 348.6363
121.9325, 355.1145
122.4147, 362.4598
122.8968, 370.7019
123.3789, 379.4269
123.8610, 388.9132
124.3431, 398.6291
124.8252, 408.2045
125.3074, 417.7938
125.7895, 426.8517
126.2716, 434.3077
126.7537, 440.1100
127.2358, 443.9940
127.7179, 445.7203
128.2001, 445.9468
128.6822, 445.4241
129.1643, 444.4608
129.6464, 443.1390
130.1285, 442.5617
130.6106, 441.6750
131.0928, 442.6732
131.5749, 446.7253
132.0570, 453.2141
132.5391, 460.7328
133.0212, 467.9460
133.5033, 474.6212
133.9855, 483.1745
134.4676, 493.8179
134.9497, 505.7011
135.4318, 518.4184
135.9139, 531.8787
136.3960, 546.2306
136.8782, 561.5530
137.3603, 577.9569
137.8424, 595.5035
138.3245, 614.2570
138.8066, 634.0969
139.2887, 654.5907
139.7709, 675.4171
140.2530, 697.4388
140.7351, 722.1299
141.2172, 749.0135
141.6993, 776.8837
142.1814, 805.5541
142.6636, 834.6990
143.1457, 863.9849
143.6278, 895.9052
144.1099, 924.2233
144.5920, 947.0456
145.0741, 963.9609
145.5563, 971.3687
146.0384, 965.2324
146.5205, 944.8533
147.0026, 917.2408
147.4847, 876.3859
147.9668, 832.9173
148.4490, 791.0634
148.9311, 752.2262
149.4132, 716.7465
149.8953, 685.0760
150.3774, 656.2013
150.8595, 633.8966
151.3417, 619.2858
151.8238, 609.4214
152.3059, 602.7567
152.7880, 598.6107
153.2701, 596.1882
153.7522, 593.5621
154.2344, 589.7206
154.7165, 586.9087
155.1986, 585.1974
155.6807, 584.5425
156.1628, 584.8625
156.6449, 586.1107
157.1271, 588.3329
157.6092, 591.8854
158.0913, 597.0319
158.5734, 602.9052
159.0555, 609.0674
159.5376, 615.7352
160.0198, 623.7360
160.5019, 634.0822
160.9840, 645.7980
161.4661, 655.2353
161.9482, 661.0631
162.4303, 666.1573
162.9125, 672.5132
163.3946, 680.0663
163.8767, 687.2643
164.3588, 692.6807
164.8409, 697.2532
165.3230, 702.5797
165.8052, 708.8172
166.2873, 715.9915
166.7694, 724.5681
167.2515, 735.3026
167.7336, 744.9200
168.2157, 751.5539
168.6979, 756.3389
169.1800, 760.6353
169.6621, 765.5036
170.1442, 769.8926
170.6263, 770.7319
171.1084, 766.6310
171.5906, 760.7774
172.0727, 753.9580
172.5548, 746.4006
173.0369, 738.1478
173.5190, 728.9149
174.0011, 719.0438
174.4833, 711.4469
174.9654, 707.2209
175.4475, 704.4901
175.9296, 702.8363
176.4117, 702.4076
176.8938, 703.6076
177.3760, 706.8447
177.8581, 712.1666
178.3402, 717.7393
178.8223, 723.8784
179.3044, 729.9207
179.7865, 736.0535
180.2687, 741.9698
180.7508, 746.7667
181.2329, 749.4017
181.7150, 749.5863
182.1971, 751.7000
182.6792, 756.7394
183.1614, 762.5486
183.6435, 767.6368
184.1256, 772.0470
184.6077, 777.0147
185.0898, 783.0709
185.5719, 790.5519
186.0540, 802.2328
186.5362, 819.9598
187.0183, 840.8984
187.5004, 861.8892
187.9825, 882.5148
188.4646, 905.5327
188.9467, 934.9799
189.4289, 969.4369
189.9110, 1004.306
190.3931, 1038.342
190.8752, 1072.216
191.3573, 1107.547
191.8394, 1144.986
192.3216, 1182.410
192.8037, 1217.185
193.2858, 1250.436
193.7679, 1285.117
194.2500, 1324.059
194.7321, 1365.517
195.2143, 1404.530
195.6964, 1440.570
196.1785, 1474.294
196.6606, 1507.599
197.1427, 1539.542
197.6248, 1567.666
198.1070, 1590.145
198.5891, 1607.247
199.0712, 1621.426
199.5533, 1629.345
200.0354, 1637.892
200.5175, 1647.527
200.9997, 1659.567
201.4818, 1676.267
201.9639, 1699.141
202.4460, 1728.155
202.9281, 1763.161
203.4102, 1800.821
203.8924, 1848.121
204.3745, 1908.827
204.8566, 1981.696
205.3387, 2062.188
205.8208, 2146.683
206.3029, 2235.592
206.7851, 2328.438
207.2672, 2433.072
207.7493, 2534.146
208.2314, 2631.034
208.7135, 2719.614
209.1956, 2792.118
209.6778, 2842.392
210.1599, 2870.462
210.6420, 2866.739
211.1241, 2831.097
211.6062, 2771.390
212.0883, 2685.078
212.5705, 2576.054
213.0526, 2455.458
213.5347, 2330.582
214.0168, 2200.635
214.4989, 2079.632
214.9810, 1965.929
215.4632, 1861.054
215.9453, 1766.035
216.4274, 1680.759
216.9095, 1604.868
217.3916, 1538.467
217.8737, 1482.530
218.3559, 1434.157
218.8380, 1395.234
219.3201, 1362.184
219.8022, 1332.360
220.2843, 1305.560
220.7664, 1281.511
221.2486, 1260.776
221.7307, 1242.811
222.2128, 1225.924
222.6949, 1210.139
223.1770, 1195.158
223.6591, 1181.063
224.1413, 1168.001
224.6234, 1154.687
225.1055, 1140.342
225.5876, 1125.112
226.0697, 1109.081
226.5518, 1092.101
227.0340, 1074.478
227.5161, 1056.598
227.9982, 1038.367
228.4803, 1020.170
228.9624, 1002.183
229.4445, 984.4845
229.9267, 966.9424
230.4088, 949.4933
230.8909, 932.3807
231.3730, 916.2035
231.8551, 900.9758
232.3372, 886.8018
232.8194, 873.1133
233.3015, 860.4455
233.7836, 849.5745
234.2657, 841.0233
234.7478, 834.1286
235.2299, 827.2584
235.7121, 819.6006
236.1942, 813.7140
236.6763, 810.7535
237.1584, 809.4520
237.6405, 808.4508
238.1227, 807.1210
238.6048, 805.9341
239.0869, 806.1368
239.5690, 808.3233
240.0511, 810.9948
240.5332, 813.9939
241.0154, 817.1786
241.4975, 820.0288
241.9796, 822.2883
242.4617, 824.8792
242.9438, 830.3165
243.4259, 841.4503
243.9081, 851.0436
244.3902, 856.8395
244.8723, 861.5562
245.3544, 867.5203
245.8365, 875.6963
246.3186, 885.7538
246.8007, 897.1994
247.2829, 911.9138
247.7650, 925.2108
248.2471, 935.5938
248.7292, 945.2155
249.2113, 955.9720
249.6934, 968.5247
250.1756, 982.3400
250.6577, 996.3915
251.1398, 1009.954
251.6219, 1024.855
252.1040, 1041.824
252.5861, 1059.552
253.0683, 1076.757
253.5504, 1093.027
254.0325, 1109.187
254.5146, 1126.640
254.9967, 1146.668
255.4788, 1165.464
255.9610, 1181.688
256.4431, 1197.371
256.9252, 1214.650
257.4073, 1233.977
257.8894, 1253.709
258.3716, 1271.554
258.8537, 1286.224
259.3358, 1302.422
259.8179, 1320.686
260.3000, 1340.212
260.7821, 1360.296
261.2643, 1380.870
261.7464, 1402.229
262.2285, 1424.679
262.7106, 1448.434
263.1927, 1473.932
263.6748, 1501.256
264.1570, 1530.210
264.6391, 1560.939
265.1212, 1593.340
265.6033, 1626.211
266.0854, 1658.030
266.5675, 1688.709
267.0497, 1720.235
267.5318, 1753.346
268.0139, 1786.673
268.4960, 1818.711
268.9781, 1849.422
269.4602, 1880.965
269.9424, 1916.032
270.4245, 1953.541
270.9066, 1986.796
271.3887, 2013.505
271.8708, 2037.635
272.3529, 2062.092
272.8351, 2086.848
273.3172, 2110.152
273.7993, 2130.719
274.2814, 2149.034
274.7635, 2167.475
275.2456, 2186.752
275.7278, 2205.313
276.2099, 2222.980
276.6920, 2239.482
277.1741, 2252.315
277.6562, 2259.095
278.1383, 2261.866
278.6204, 2265.539
279.1025, 2270.605
279.5847, 2275.576
280.0668, 2279.999
280.5489, 2283.714
281.0310, 2285.405
281.5131, 2283.466
281.9952, 2280.392
282.4774, 2279.846
282.9595, 2282.168
283.4416, 2284.871
283.9237, 2288.234
284.4058, 2291.255
284.8879, 2289.572
285.3701, 2281.557
285.8522, 2268.864
286.3343, 2253.949
286.8164, 2236.884
287.2985, 2216.708
287.7806, 2194.274
288.2628, 2168.448
288.7449, 2135.297
289.2270, 2092.468
289.7091, 2045.006
290.1912, 1996.088
290.6733, 1946.069
291.1555, 1894.664
291.6376, 1841.589
292.1197, 1787.434
292.6018, 1732.342
293.0839, 1675.928
293.5660, 1620.325
294.0482, 1566.650
294.5303, 1514.877
295.0124, 1464.410
295.4945, 1415.230
295.9766, 1367.608
296.4587, 1322.153
296.9409, 1279.002
297.4230, 1237.481
297.9051, 1196.765
298.3872, 1157.242
298.8693, 1119.516
299.3514, 1083.803
299.8336, 1049.823
300.3157, 1016.777
300.7978, 984.2557
301.2799, 954.0418
301.7620, 928.0922
302.2441, 904.1032
302.7263, 879.9803
303.2084, 855.2127
303.6905, 830.9620
304.1726, 808.3651
304.6547, 787.5229
305.1368, 767.0741
305.6190, 746.4740
306.1011, 726.2839
306.5832, 707.0427
307.0653, 688.7726
307.5474, 671.0431
308.0295, 653.4819
308.5117, 636.1525
308.9938, 619.3949
309.4759, 603.5824
309.9580, 588.0663
310.4401, 572.3456
310.9222, 556.5523
311.4044, 541.1528
311.8865, 526.4410
312.3686, 512.4448
312.8507, 499.0646
313.3328, 486.4599
313.8149, 474.2416
314.2971, 462.0802
314.7792, 450.0228
315.2613, 438.0660
315.7434, 426.0130
316.2255, 414.1195
316.7076, 402.9316
317.1898, 392.4265
317.6719, 382.4385
318.1540, 373.0695
318.6361, 364.0659
319.1182, 355.1741
319.6003, 346.2386
320.0825, 337.4890
320.5646, 329.1778
321.0467, 321.3036
321.5288, 313.8803
322.0109, 307.0424
322.4930, 300.6143
322.9752, 294.3021
323.4573, 288.0663
323.9394, 282.7107
324.4215, 280.0425
324.9036, 279.9808
325.3857, 277.1833
325.8679, 268.5888
326.3500, 259.0732
326.8321, 251.9414
327.3142, 247.0683
327.7963, 243.1121
328.2784, 239.2680
328.7606, 235.6178
329.2427, 232.6247
329.7248, 230.7387
330.2069, 228.7914
330.6890, 226.0700
331.1711, 222.7829
331.6533, 219.3151
332.1354, 215.6913
332.6175, 212.0700
333.0996, 208.7233
333.5817, 205.5822
334.0638, 202.8951
334.5460, 201.3755
335.0281, 200.1864
335.5102, 198.2823
335.9923, 195.1317
336.4744, 191.7758
336.9565, 189.4693
337.4387, 188.2782
337.9208, 187.1690
338.4029, 185.9433
338.8850, 184.5471
339.3671, 182.8835
339.8492, 180.9179
340.3314, 178.9666
340.8135, 177.2817
341.2956, 175.8172
341.7777, 174.3364
342.2598, 172.6506
342.7419, 171.1712
343.2241, 170.5439
343.7062, 170.5442
344.1883, 170.0013
344.6704, 167.8131
345.1525, 164.7809
345.6346, 162.7148
346.1168, 161.9061
346.5989, 161.4234
347.0810, 160.7714
347.5631, 159.9749
348.0452, 159.0410
348.5273, 158.0213
349.0095, 156.8211
349.4916, 155.0925
349.9737, 152.8199
350.4558, 151.0839
350.9379, 150.8261
351.4200, 151.1644
351.9022, 150.5376
352.3843, 148.4676
352.8664, 146.5833
353.3485, 146.3545
353.8306, 147.3166
354.3127, 147.5813
354.7949, 146.4684
355.2770, 144.7384
355.7591, 143.2225
356.2412, 141.9025
356.7233, 140.8789
357.2054, 140.4538
357.6876, 140.2632
358.1697, 139.6368
358.6518, 138.4252
359.1339, 137.2425
359.6160, 136.7243
360.0981, 136.7374
360.5803, 136.5649
361.0624, 136.1938
361.5445, 135.5536
362.0266, 134.3531
362.5087, 132.6932
362.9908, 131.3930
363.4730, 131.0684
363.9551, 131.3291
364.4372, 130.9227
364.9193, 129.4333
365.4014, 128.0339
365.8835, 127.4133
366.3657, 127.2067
366.8478, 126.5534
367.3299, 125.0803
367.8120, 123.4585
368.2941, 122.8926
368.7762, 123.7228
369.2584, 124.0258
369.7405, 122.9954
370.2226, 121.6395
370.7047, 121.0245
371.1868, 121.2508
371.6689, 121.6036
372.1511, 121.4418
372.6332, 120.7333
373.1153, 120.1200
373.5974, 119.4188
374.0795, 118.9719
374.5616, 119.1112
375.0438, 119.6464
375.5259, 120.1228
376.0080, 120.3034
376.4901, 120.2187
376.9722, 119.9598
377.4543, 119.3197
377.9365, 118.7750
378.4186, 118.4099
378.9007, 118.1462
379.3828, 117.8987
379.8649, 117.6440
380.3470, 117.4222
380.8292, 117.2947
381.3113, 117.3005
381.7934, 117.2874
382.2755, 117.3329
382.7576, 117.2969
383.2397, 116.9200
383.7219, 116.3497
384.2040, 116.0848
384.6861, 116.5781
385.1682, 117.7575
385.6503, 118.4423
386.1324, 118.0870
386.6146, 117.8177
387.0967, 118.0666
387.5788, 118.4281
388.0609, 118.1986
388.5430, 117.0881
389.0251, 115.7629
389.5073, 115.6485
389.9894, 117.4692
390.4715, 119.0172
390.9536, 120.1846
391.4357, 121.0747
391.9178, 121.7177
392.4000, 122.1361
392.8821, 122.3797
393.3642, 122.4576
393.8463, 122.3626
394.3284, 122.3278
394.8105, 122.2738
395.2927, 122.3885
395.7748, 122.6875
396.2569, 123.1966
396.7390, 124.0265
397.2211, 125.3297
397.7032, 126.7759
398.1854, 127.5108
398.6675, 127.2192
399.1496, 127.1842
399.6317, 127.8869
400.1138, 128.9143
400.5959, 130.0882
401.0780, 131.3640
401.5602, 132.4920
402.0423, 133.0802
402.5244, 133.1995
403.0065, 133.6964
403.4886, 134.8955
403.9707, 136.1562
404.4529, 136.9184
404.9350, 137.3641
405.4171, 138.0233
405.8992, 139.2648
406.3813, 140.7726
406.8634, 142.0654
407.3456, 143.1289
407.8277, 144.1041
408.3098, 144.8698
408.7919, 145.7065
409.2740, 147.1336
409.7561, 149.4496
410.2383, 151.6559
410.7204, 153.0148
411.2025, 153.7869
411.6846, 154.7462
412.1667, 156.1039
412.6488, 157.6643
413.1310, 159.2727
413.6131, 160.9397
414.0952, 162.4128
414.5773, 163.2971
415.0594, 164.2074
415.5415, 165.9621
416.0237, 168.4627
416.5058, 170.5775
416.9879, 171.4383
417.4700, 171.3371
417.9521, 171.8922
418.4342, 174.1627
418.9164, 175.7154
419.3985, 175.2246
419.8806, 173.8103
420.3627, 173.2193
420.8448, 174.0029
421.3269, 175.2829
421.8091, 175.7513
422.2912, 175.0602
422.7733, 174.4834
423.2554, 173.9090
423.7375, 173.5329
424.2196, 173.7258
424.7018, 174.2695
425.1839, 174.4005
425.6660, 173.4483
426.1481, 171.7250
426.6302, 171.3949
427.1123, 173.8670
427.5945, 176.0934
428.0766, 177.5051
428.5587, 178.5979
429.0408, 179.8835
429.5229, 181.5165
430.0050, 183.3519
430.4872, 185.2406
430.9693, 187.2341
431.4514, 189.0321
431.9335, 190.7235
432.4156, 192.1208
432.8977, 192.9399
433.3799, 193.3869
433.8620, 193.9714
434.3441, 195.0323
434.8262, 196.4224
435.3083, 197.8093
435.7904, 199.3615
436.2726, 200.4215
436.7547, 200.2526
437.2368, 199.7516
437.7189, 199.6502
438.2010, 200.0836
438.6831, 200.8930
439.1653, 202.1655
439.6474, 203.7732
440.1295, 204.9134
440.6116, 205.1097
441.0937, 205.5070
441.5758, 207.2698
442.0580, 210.0420
442.5401, 212.8509
443.0222, 215.5463
443.5043, 218.0661
443.9864, 220.2658
444.4685, 222.1790
444.9507, 224.2165
445.4328, 226.6688
445.9149, 229.2598
446.3970, 231.3450
446.8791, 232.8689
447.3612, 234.1753
447.8434, 235.6844
448.3255, 236.8746
448.8076, 236.8750
449.2897, 235.6033
449.7718, 234.1046
450.2539, 233.4440
450.7361, 233.6906
451.2182, 233.0726
451.7003, 230.9738
452.1824, 228.8289
452.6645, 226.7762
453.1466, 225.1022
453.6288, 224.4290
454.1109, 225.0303
454.5930, 226.1912
455.0751, 226.4259
455.5572, 224.9011
456.0393, 224.0788
456.5215, 224.1638
457.0036, 224.6491
457.4857, 225.2986
457.9678, 226.0755
458.4499, 227.0466
458.9320, 228.3228
459.4142, 229.8143
459.8963, 230.9163
460.3784, 231.0376
460.8605, 231.8506
461.3426, 234.2581
461.8247, 237.2360
462.3069, 239.7050
462.7890, 241.3980
463.2711, 243.1263
463.7532, 246.1021
464.2353, 250.1847
464.7174, 252.9886
465.1996, 253.6331
465.6817, 253.9245
466.1638, 254.8404
466.6459, 256.3882
467.1280, 258.7149
467.6101, 262.3894
468.0923, 266.3843
468.5744, 269.6308
469.0565, 272.1823
469.5386, 274.2320
470.0207, 275.5882
470.5028, 276.8225
470.9850, 278.9560
471.4671, 282.0323
471.9492, 285.4158
472.4313, 289.3117
472.9134, 293.2396
473.3955, 296.4265
473.8777, 298.9243
474.3598, 301.7980
474.8419, 305.8617
475.3240, 311.0302
475.8061, 316.3753
476.2882, 321.8537
476.7704, 327.5642
477.2525, 333.2518
477.7346, 339.3022
478.2167, 346.0818
478.6988, 353.7384
479.1809, 362.2051
479.6631, 371.6777
480.1452, 382.4202
480.6273, 392.5126
481.1094, 400.7950
481.5915, 409.5694
482.0736, 419.5972
482.5558, 430.6422
483.0379, 442.3062
483.5200, 454.5052
484.0021, 466.9727
484.4842, 479.2159
484.9663, 491.2251
485.4485, 503.2733
485.9306, 515.2334
486.4127, 527.4226
486.8948, 539.9930
487.3769, 552.9915
487.8590, 566.3514
488.3412, 580.0396
488.8233, 594.0226
489.3054, 608.0289
489.7875, 621.8906
490.2696, 636.6561
490.7517, 652.9974
491.2339, 670.4708
491.7160, 688.3566
492.1981, 706.8878
492.6802, 724.8672
493.1623, 740.7780
493.6444, 756.0498
494.1266, 772.9731
494.6087, 791.9766
495.0908, 811.5413
495.5729, 830.5980
496.0550, 849.0898
496.5371, 866.9455
497.0193, 885.4310
497.5014, 901.9081
497.9835, 915.8510
498.4656, 927.2596
498.9477, 936.3751
499.4298, 943.2401
499.9120, 947.4244
500.3941, 948.3407
500.8762, 946.0243
501.3583, 940.2023
501.8404, 930.4660
502.3225, 917.6312
502.8047, 901.6196
503.2868, 882.6937
503.7689, 861.1503
504.2510, 836.7136
504.7331, 810.9330
505.2152, 786.9415
505.6974, 765.2111
506.1795, 741.9052
506.6616, 714.8744
507.1437, 687.4176
507.6258, 661.4958
508.1079, 637.0602
508.5901, 614.5804
509.0722, 594.8856
509.5543, 576.9486
510.0364, 559.0479
510.5185, 541.2167
511.0006, 524.3923
511.4828, 509.2542
511.9649, 495.2768
512.4470, 481.3732
512.9291, 467.3095
513.4112, 453.9615
513.8933, 442.2430
514.3754, 431.0248
514.8575, 419.0349
515.3397, 406.2463
515.8218, 393.8739
516.3039, 382.8553
516.7860, 372.9249
517.2681, 362.3320
517.7502, 349.7635
518.2324, 338.2101
518.7145, 328.1780
519.1966, 319.0438
519.6787, 310.2560
520.1608, 301.6763
520.6429, 293.3981
521.1251, 285.5912
521.6072, 278.1974
522.0893, 270.6800
522.5714, 262.6087
523.0535, 255.0949
523.5356, 248.4552
524.0178, 242.5169
524.4999, 237.2108
524.9820, 232.5540
525.4641, 228.0649
525.9462, 222.9581
526.4283, 217.5581
526.9105, 213.3708
527.3926, 210.9599
527.8747, 208.7803
528.3568, 205.4631
528.8389, 201.3787
529.3210, 197.7775
529.8032, 195.1523
530.2853, 192.6280
530.7674, 189.6145
531.2495, 186.3970
531.7316, 183.5164
532.2137, 181.1181
532.6959, 179.1213
533.1780, 177.5203
533.6601, 176.4646
534.1422, 174.8286
534.6243, 172.0291
535.1064, 169.3678
535.5886, 167.3444
536.0707, 165.7805
536.5528, 164.4161
537.0349, 163.1487
537.5170, 161.9013
537.9991, 160.4840
538.4813, 158.7700
538.9634, 157.5700
539.4455, 157.4597
539.9276, 157.2854
540.4097, 156.2052
540.8918, 154.7227
541.3740, 154.0291
541.8561, 155.0563
542.3382, 156.0583
542.8203, 153.9597
543.3024, 149.2699
543.7845, 147.3932
544.2667, 150.8513
544.7488, 155.1371
545.2309, 154.7171
545.7130, 150.1698
546.1951, 146.4833
546.6772, 144.8576
547.1594, 143.8996
547.6415, 142.7400
548.1236, 141.5214
548.6057, 140.7165
549.0878, 140.5317
549.5699, 140.6391
550.0521, 140.5121
550.5342, 140.1050
551.0163, 139.5911
551.4984, 138.7026
551.9805, 137.9994
552.4626, 137.8612
552.9448, 138.0623
553.4269, 138.1629
553.9090, 137.9524
554.3911, 137.5728
554.8732, 137.2077
555.3553, 136.8171
555.8375, 136.7201
556.3196, 137.1358
556.8017, 137.6586
557.2838, 138.0304
557.7659, 138.2956
558.2480, 138.5951
558.7302, 139.1257
559.2123, 139.5346
559.6944, 139.3125
560.1765, 138.6096
560.6586, 138.0780
561.1407, 137.8985
561.6229, 138.0097
562.1050, 138.3245
562.5871, 138.8468
563.0692, 139.7233
563.5513, 141.4725
564.0334, 143.0543
564.5156, 144.0034
564.9977, 144.3878
565.4798, 144.0738
565.9619, 143.0458
566.4440, 142.2665
566.9261, 143.5577
567.4083, 147.7897
567.8904, 150.5468
568.3725, 150.2741
568.8546, 150.0748
569.3367, 151.0483
569.8188, 152.7895
570.3010, 154.5523
570.7831, 156.0702
571.2652, 157.5786
571.7473, 159.3607
572.2294, 161.3932
572.7115, 163.6233
573.1937, 166.1770
573.6758, 168.5508
574.1579, 169.9074
574.6400, 170.6649
575.1221, 172.4942
575.6042, 176.3813
576.0864, 180.4262
576.5685, 183.7158
577.0506, 186.5155
577.5327, 189.1661
578.0148, 191.7767
578.4969, 194.5217
578.9791, 197.6163
579.4612, 201.0796
579.9433, 204.4257
580.4254, 206.9678
580.9075, 210.2214
581.3896, 214.9073
581.8718, 220.2511
582.3539, 225.4615
582.8360, 230.3561
583.3181, 235.0862
583.8002, 239.7549
584.2823, 244.3975
584.7645, 249.1694
585.2466, 254.0511
585.7287, 259.1783
586.2108, 264.6086
586.6929, 270.3587
587.1750, 276.4992
587.6572, 283.2177
588.1393, 289.5234
588.6214, 294.6246
589.1035, 299.2297
589.5856, 304.1138
590.0677, 309.3963
590.5499, 315.1410
591.0320, 321.4984
591.5141, 328.2385
591.9962, 334.4185
592.4783, 339.3648
592.9604, 344.6419
593.4426, 350.5413
593.9247, 356.5447
594.4068, 362.3313
594.8889, 367.8815
595.3710, 373.4915
595.8531, 379.5145
596.3353, 385.2998
596.8174, 389.0747
597.2995, 390.4068
597.7816, 392.1930
598.2637, 395.8936
598.7458, 399.3272
599.2280, 400.5168
599.7101, 399.7826
600.1922, 398.8904
600.6743, 398.5143
601.1564, 398.0920
601.6385, 397.3958
602.1207, 396.2746
602.6028, 394.3137
603.0849, 391.3875
603.5670, 387.5190
604.0491, 382.6450
604.5313, 376.5898
605.0134, 370.5932
605.4955, 364.8119
605.9776, 358.8825
606.4597, 352.6652
606.9418, 346.2295
607.4240, 339.6860
607.9061, 333.0959
608.3882, 326.5850
608.8703, 320.4831
609.3524, 314.7422
609.8345, 308.4301
610.3167, 301.2879
610.7988, 294.2341
611.2809, 287.6406
611.7630, 281.4615
612.2451, 275.6566
612.7272, 270.2908
613.2094, 265.0565
613.6915, 259.6545
614.1736, 254.3855
614.6557, 249.7148
615.1378, 245.6017
615.6199, 241.7435
616.1021, 238.0020
616.5842, 234.3089
617.0663, 230.4954
617.5484, 225.9158
618.0305, 222.2955
618.5126, 220.1442
618.9948, 218.3828
619.4769, 216.7607
619.9590, 215.0082
620.4411, 212.5829
620.9232, 209.0420
621.4053, 205.3223
621.8875, 203.1152
622.3696, 202.3931
622.8517, 201.2851
623.3338, 199.5648
623.8159, 197.2330
624.2980, 193.6608
624.7802, 189.4191
625.2623, 186.4709
625.7444, 185.9346
626.2265, 185.5851
626.7086, 184.4989
627.1907, 182.9297
627.6729, 181.1803
628.1550, 179.3273
628.6371, 177.3405
629.1192, 175.1003
629.6013, 172.7293
630.0834, 171.4252
630.5656, 172.6153
631.0477, 172.4528
631.5298, 169.3870
632.0119, 165.7248
632.4940, 163.0071
632.9761, 161.3376
633.4583, 160.1474
633.9404, 159.2573
634.4225, 158.5190
634.9046, 157.8757
635.3867, 157.2774
635.8688, 155.9684
636.3510, 153.4668
636.8331, 150.7677
637.3152, 149.1215
637.7973, 148.6512
638.2794, 147.9096
638.7615, 146.8749
639.2437, 145.5696
639.7258, 143.6646
640.2079, 141.6265
640.6900, 140.1828
641.1721, 139.4676
641.6542, 138.9391
642.1364, 137.9874
642.6185, 136.6601
643.1006, 135.6381
643.5827, 135.0705
644.0648, 134.4819
644.5469, 133.5039
645.0291, 132.5619
645.5112, 132.2025
645.9933, 132.4507
646.4754, 132.3752
646.9575, 131.4609
647.4396, 130.0934
647.9218, 128.4592
648.4039, 126.6956
648.8860, 125.2423
649.3681, 124.2607
649.8502, 123.7512
650.3323, 123.7913
650.8145, 124.6092
651.2966, 124.9226
651.7787, 124.3386
652.2608, 123.7255
652.7429, 123.1508
653.2250, 122.7838
653.7072, 122.9325
654.1893, 123.6418
654.6714, 124.3723
655.1535, 124.5858
655.6356, 124.4153
656.1177, 124.2011
656.5999, 123.9015
657.0820, 124.0564
657.5641, 125.1340
658.0462, 126.6067
658.5283, 127.4193
659.0104, 127.4053
659.4926, 127.7127
659.9747, 128.6690
660.4568, 129.8284
660.9389, 130.7988
661.4210, 131.7771
661.9031, 133.3320
662.3853, 135.6666
662.8674, 138.0769
663.3495, 139.5364
663.8316, 139.9840
664.3137, 140.4095
664.7958, 140.6487
665.2780, 141.1634
665.7601, 142.2306
666.2422, 143.6548
666.7243, 145.2848
667.2064, 147.1264
667.6885, 148.9574
668.1707, 150.8002
668.6528, 152.4959
669.1349, 153.9357
669.6170, 155.0746
670.0991, 155.6985
670.5812, 155.6716
671.0634, 155.3843
671.5455, 155.5703
672.0276, 156.4982
672.5097, 156.8734
672.9918, 156.4789
673.4739, 155.7458
673.9561, 154.6199
674.4382, 153.3044
674.9203, 151.9816
675.4024, 150.7046
675.8845, 149.5975
676.3666, 149.1660
676.8488, 148.8723
677.3309, 147.4062
677.8130, 144.7263
678.2951, 141.7433
678.7772, 138.7075
679.2593, 135.9063
679.7415, 133.8719
680.2236, 132.8880
680.7057, 131.8525
681.1878, 131.0822
681.6699, 129.9189
682.1520, 127.5146
682.6342, 124.7215
683.1163, 123.0450
683.5984, 122.8488
684.0805, 122.7365
684.5626, 120.9870
685.0447, 117.9498
685.5269, 115.5161
686.0090, 113.7626
686.4911, 112.2538
686.9732, 110.7703
687.4553, 109.4714
687.9374, 108.7830
688.4196, 108.8234
688.9017, 108.3542
689.3838, 106.6938
689.8659, 104.9696
690.3480, 103.9529
690.8301, 103.3196
691.3123, 102.3874
691.7944, 100.9656
692.2765, 99.52443
692.7586, 98.62375
693.2407, 98.22285
693.7228, 97.76855
694.2050, 97.23164
694.6871, 96.71195
695.1692, 96.30573
695.6513, 95.88173
696.1334, 95.29537
696.6155, 94.54431
697.0977, 93.74201
697.5798, 93.05467
698.0619, 92.19781
698.5440, 90.53163
699.0261, 88.62566
699.5082, 87.81581
699.9904, 88.41913
700.4725, 89.35957
700.9546, 89.48309
701.4367, 88.84074
701.9188, 88.16200
702.4009, 87.31972
702.8831, 86.69999
703.3652, 86.50417
703.8473, 86.48855
704.3294, 86.63046
704.8115, 86.84809
705.2936, 86.73372
705.7758, 85.73591
706.2579, 84.72639
706.7400, 84.71998
707.2221, 85.19523
707.7042, 84.77520
708.1863, 83.19871
708.6685, 81.73787
709.1505, 81.63487
709.6326, 82.65125
710.1147, 82.97077
710.5969, 82.13981
711.0790, 81.43577
711.5611, 81.24693
712.0432, 81.02979
712.5253, 80.18057
713.0074, 78.99423
713.4896, 78.46968
713.9717, 79.33989
714.4538, 80.33704
714.9359, 80.21239
715.4180, 79.38721
715.9001, 78.80579
716.3823, 78.61639
716.8644, 78.54247
717.3465, 78.41018
717.8286, 78.19865
718.3107, 77.80133
718.7928, 76.94356
719.2750, 76.43034
719.7571, 76.56316
720.2392, 76.74536
720.7213, 76.63297
721.2034, 76.36593
721.6855, 76.27833
722.1677, 76.52350
722.6498, 76.72032
723.1319, 76.44923
723.6140, 75.93297
724.0961, 75.57872
724.5782, 75.42790
725.0604, 75.57423
725.5425, 76.15737
726.0246, 76.79158
726.5067, 76.60857
726.9888, 75.08652
727.4709, 74.34508
727.9531, 75.06749
728.4352, 75.77621
728.9173, 76.11525
729.3994, 76.09969
729.8815, 75.61314
730.3636, 74.66229
730.8458, 73.92094
731.3279, 73.93451
731.8100, 74.41594
732.2921, 75.02559
732.7742, 75.70815
733.2563, 76.23706
733.7385, 76.54215
734.2206, 76.55360
734.7027, 76.08222
735.1848, 75.05339
735.6669, 74.67474
736.1490, 75.59959
736.6312, 76.35100
737.1133, 76.68434
737.5954, 76.76152
738.0775, 76.61369
738.5596, 76.32097
739.0417, 76.16267
739.5239, 76.36251
740.0060, 76.66428
740.4881, 76.73626
740.9702, 76.66518
741.4523, 76.80693
741.9344, 77.23239
742.4166, 77.43581
742.8987, 76.92973
743.3808, 75.90488
743.8629, 75.30607
744.3450, 75.18381
744.8271, 75.41219
745.3093, 76.52119
745.7914, 77.42962
746.2735, 77.38406
746.7556, 76.73922
747.2377, 76.22707
747.7198, 76.04716
748.2020, 76.16836
748.6841, 76.79107
749.1662, 77.60343
749.6483, 78.04073
750.1304, 78.10100
750.6125, 78.14055
751.0947, 78.35847
751.5768, 78.53516
752.0589, 78.19904
752.5410, 77.12293
753.0231, 76.63802
753.5052, 77.46467
753.9874, 77.91445
754.4695, 76.98383
754.9516, 75.74074
755.4337, 75.48101
755.9158, 76.30218
756.3979, 76.90460
756.8801, 76.39422
757.3622, 75.63133
757.8443, 75.22652
758.3264, 75.25813
758.8085, 76.23622
759.2906, 78.16743
759.7728, 79.60913
760.2549, 79.02509
760.7370, 76.80272
761.2191, 75.32178
761.7012, 74.63362
762.1833, 74.56902
762.6655, 75.76955
763.1476, 76.89726
763.6297, 76.94816
764.1118, 76.23202
764.5939, 75.63354
765.0760, 75.41425
765.5582, 75.16528
766.0403, 74.51006
766.5224, 73.84096
767.0045, 73.62189
767.4866, 73.81971
767.9688, 74.17155
768.4509, 74.54945
768.9330, 74.88333
769.4151, 75.07906
769.8972, 75.14039
770.3793, 74.93987
770.8615, 74.35307
771.3436, 73.82399
771.8257, 73.43260
772.3078, 73.29479
772.7899, 73.70267
773.2720, 74.72167
773.7542, 75.39809
774.2363, 75.59498
774.7184, 75.40521
775.2005, 74.50310
775.6826, 73.42917
776.1647, 72.88942
776.6469, 72.98317
777.1290, 73.38081
777.6111, 73.95808
778.0932, 74.47868
778.5753, 74.20530
779.0574, 73.18117
779.5396, 72.69655
780.0217, 73.09695
780.5038, 73.70962
780.9859, 74.02672
781.4680, 74.12815
781.9501, 74.37936
782.4323, 75.14676
782.9144, 75.45196
783.3965, 74.77979
783.8786, 74.10431
784.3607, 74.03133
784.8428, 74.33353
785.3250, 74.53757
785.8071, 74.49375
786.2892, 74.45653
786.7713, 74.94663
787.2534, 75.45893
787.7355, 74.69416
788.2177, 72.87154
788.6998, 71.73106
789.1819, 71.92635
789.6640, 72.86213
790.1461, 73.94444
790.6282, 75.16961
791.1104, 75.60501
791.5925, 74.63892
792.0746, 73.91127
792.5567, 73.80899
793.0388, 73.93684
793.5209, 74.12640
794.0031, 74.32056
794.4852, 74.37274
794.9673, 74.11462
795.4494, 73.95375
795.9315, 74.38084
796.4136, 74.91423
796.8958, 74.79842
797.3779, 74.13269
797.8600, 73.58879
798.3421, 73.51174
798.8242, 73.76205
799.3063, 74.15535
799.7885, 74.69778
800.2706, 75.27065
800.7527, 75.95847
801.2348, 76.40269
801.7169, 76.40044
802.1990, 76.13773
802.6812, 75.79372
803.1633, 75.36538
803.6454, 75.10080
804.1275, 74.93485
804.6096, 75.04532
805.0917, 75.74675
805.5739, 76.59105
806.0560, 77.17945
806.5381, 77.45029
807.0202, 77.44768
807.5023, 77.12334
807.9844, 76.76097
808.4666, 76.89140
808.9487, 77.33470
809.4308, 77.30263
809.9129, 76.69531
810.3950, 76.11473
810.8771, 75.89585
811.3593, 75.93504
811.8414, 76.03178
812.3235, 76.20383
812.8056, 76.36968
813.2877, 76.67171
813.7698, 76.78332
814.2520, 76.22218
814.7341, 75.69102
815.2162, 76.06105
815.6983, 77.30260
816.1804, 78.37492
816.6625, 78.95695
817.1447, 79.12013
817.6268, 78.65382
818.1089, 77.91634
818.5910, 77.50036
819.0731, 77.44878
819.5552, 77.35995
820.0374, 76.93349
820.5195, 76.51360
821.0016, 76.99278
821.4837, 78.41126
821.9658, 79.21539
822.4479, 79.17471
822.9301, 78.89942
823.4122, 78.54260
823.8943, 78.26360
824.3764, 78.39971
824.8585, 79.06384
825.3406, 79.54696
825.8228, 79.88319
826.3049, 79.96412
826.7870, 79.48428
827.2691, 78.90928
827.7512, 78.82436
828.2333, 79.17344
828.7155, 79.32193
829.1976, 78.76399
829.6797, 78.17178
830.1618, 78.35600
830.6439, 79.07690
831.1260, 79.91142
831.6082, 80.74570
832.0903, 81.20943
832.5724, 81.07655
833.0545, 80.52446
833.5366, 79.81120
834.0187, 78.83949
834.5009, 78.38886
834.9830, 78.59648
835.4651, 79.06601
835.9472, 80.02400
836.4293, 80.88589
836.9114, 80.83138
837.3936, 79.92398
837.8757, 79.46754
838.3578, 80.02014
838.8399, 80.61230
839.3220, 81.06214
839.8041, 81.25066
840.2863, 80.77671
840.7684, 79.93163
841.2505, 79.61476
841.7326, 80.30103
842.2147, 81.37617
842.6968, 82.31651
843.1790, 83.02998
843.6611, 83.05868
844.1432, 82.45092
844.6253, 82.23254
845.1074, 82.87765
845.5895, 83.82506
846.0717, 84.34931
846.5538, 84.44711
847.0359, 84.43100
847.5180, 84.36921
848.0001, 84.04446
848.4822, 82.69827
848.9644, 81.75516
849.4465, 82.57767
849.9286, 84.58311
850.4107, 86.00114
850.8928, 86.39636
851.3749, 86.53354
851.8571, 86.56789
852.3392, 86.55409
852.8213, 86.67433
853.3034, 86.74672
853.7855, 86.29442
854.2676, 85.21666
854.7498, 84.16210
855.2319, 83.73188
855.7140, 83.77207
856.1961, 83.97120
856.6782, 84.32182
857.1603, 84.84769
857.6425, 85.57153
858.1246, 86.16599
858.6067, 86.32953
859.0888, 86.18002
859.5709, 86.18627
860.0530, 86.51968
860.5352, 86.52898
861.0173, 85.70316
861.4994, 85.19960
861.9815, 86.08134
862.4636, 87.29196
862.9457, 87.22252
863.4279, 85.66130
863.9100, 84.67649
864.3921, 85.16965
864.8742, 85.92591
865.3563, 86.46542
865.8384, 86.80849
866.3206, 86.89780
866.8027, 86.82404
867.2848, 86.90205
867.7669, 87.34031
868.2490, 87.88652
868.7311, 88.30505
869.2133, 88.55393
869.6954, 88.43212
870.1775, 87.95711
870.6596, 87.51338
871.1417, 87.27474
871.6238, 87.14104
872.1060, 86.99190
872.5881, 86.82682
873.0702, 86.47248
873.5523, 85.70554
874.0344, 85.34492
874.5165, 85.89627
874.9987, 86.53516
875.4808, 86.35930
875.9629, 85.73973
876.4450, 85.90852
876.9271, 87.82723
877.4092, 88.61340
877.8914, 86.41341
878.3735, 84.23753
878.8556, 84.21492
879.3377, 85.32074
879.8198, 85.87675
880.3019, 85.50273
880.7841, 84.76787
881.2662, 83.82871
881.7483, 82.94988
882.2304, 82.40019
882.7125, 82.17798
883.1946, 82.44845
883.6768, 83.13922
884.1589, 83.60139
884.6410, 83.39521
885.1231, 82.85413
885.6052, 82.72093
886.0873, 83.01833
886.5695, 82.82661
887.0516, 82.06706
887.5337, 81.01658
888.0158, 79.59026
888.4979, 78.23021
888.9800, 77.47433
889.4622, 77.32146
889.9443, 77.34058
890.4264, 77.84391
890.9085, 78.06797
891.3906, 77.49022
891.8727, 77.05431
892.3549, 77.78111
892.8370, 78.95211
893.3191, 79.04123
893.8012, 77.59846
894.2833, 76.10114
894.7654, 75.10394
895.2476, 74.50563
895.7297, 74.42898
896.2118, 74.60721
896.6939, 74.56147
897.1760, 74.25031
897.6581, 74.07462
898.1403, 74.37093
898.6224, 74.77486
899.1045, 74.68803
899.5866, 74.18321
900.0687, 73.44807
900.5508, 72.51829
901.0330, 71.98275
901.5151, 72.14219
901.9972, 72.70754
902.4793, 73.32571
902.9614, 73.99731
903.4435, 74.18312
903.9257, 73.70265
904.4078, 73.19683
904.8899, 72.69466
905.3720, 72.33476
905.8541, 72.31410
906.3362, 72.51608
906.8184, 72.55959
907.3005, 72.28213
907.7826, 72.23406
908.2647, 72.84602
908.7468, 73.29491
909.2289, 72.99744
909.7111, 72.41640
910.1932, 72.11086
910.6753, 72.15350
911.1574, 72.32347
911.6395, 72.53817
912.1216, 72.80520
912.6038, 73.27466
913.0859, 73.71631
913.5680, 73.67702
914.0501, 73.28049
914.5322, 73.10358
915.0143, 73.39497
915.4965, 73.80383
915.9786, 73.86070
916.4607, 73.70103
916.9428, 73.82301
917.4249, 74.21018
917.9070, 74.71375
918.3892, 75.33091
918.8713, 75.63303
919.3534, 75.18247
919.8355, 74.33048
920.3176, 74.18773
920.7997, 74.95793
921.2819, 75.69570
921.7640, 76.45375
922.2461, 77.04756
922.7282, 77.31071
923.2103, 77.44830
923.6924, 77.71367
924.1746, 78.09764
924.6567, 78.43346
925.1388, 78.63659
925.6209, 78.89865
926.1030, 79.48198
926.5851, 79.91312
927.0673, 79.66931
927.5494, 79.10848
928.0315, 78.91393
928.5136, 79.25647
928.9957, 79.68134
929.4778, 79.93864
929.9600, 80.19487
930.4421, 80.63023
930.9242, 81.13757
931.4063, 81.46511
931.8884, 81.66697
932.3705, 82.04231
932.8527, 82.73320
933.3348, 83.87022
933.8169, 86.20750
934.2990, 88.99472
934.7811, 89.85802
935.2632, 88.97020
935.7454, 88.31226
936.2275, 88.53593
936.7096, 88.71122
937.1917, 87.71976
937.6738, 86.24570
938.1559, 87.53469
938.6381, 92.21498
939.1202, 94.10016
939.6023, 91.69930
940.0844, 89.36763
940.5665, 89.34427
941.0486, 90.59071
941.5308, 91.61440
942.0129, 92.45563
942.4950, 92.64165
942.9771, 91.45683
943.4592, 90.69847
943.9413, 90.58015
944.4235, 90.97800
944.9056, 92.11456
945.3877, 93.64417
945.8698, 94.85989
946.3519, 95.66357
946.8340, 96.18507
947.3162, 96.24374
947.7983, 96.27381
948.2804, 96.43730
948.7625, 96.73714
949.2446, 97.14636
949.7267, 97.67951
950.2089, 98.44128
950.6910, 99.58251
951.1731, 100.6180
951.6552, 101.0770
952.1373, 101.2822
952.6194, 101.5683
953.1016, 101.9548
953.5837, 102.4596
954.0658, 103.0594
954.5479, 103.5585
955.0300, 103.7150
955.5121, 103.8411
955.9943, 104.7182
956.4763, 106.0791
956.9584, 106.6179
957.4406, 106.3003
957.9227, 106.7286
958.4048, 108.7119
958.8869, 110.8834
959.3690, 111.2904
959.8511, 110.2264
960.3333, 110.1416
960.8154, 111.1847
961.2975, 112.0934
961.7796, 112.5916
962.2617, 113.1157
962.7438, 114.0101
963.2260, 115.0220
963.7081, 115.5307
964.1902, 115.3041
964.6723, 115.8492
965.1544, 117.7979
965.6365, 119.4634
966.1187, 120.3009
966.6008, 120.8723
967.0829, 121.5800
967.5650, 122.3762
968.0471, 123.0875
968.5292, 123.5827
969.0114, 124.3208
969.4935, 125.6524
969.9756, 126.9043
970.4577, 127.4830
970.9398, 128.0386
971.4219, 129.3936
971.9041, 131.4578
972.3862, 133.4615
972.8683, 135.2251
973.3504, 136.6861
973.8325, 137.2817
974.3146, 138.0490
974.7968, 140.2460
975.2789, 143.1698
975.7610, 145.5064
976.2431, 146.9915
976.7252, 148.2167
977.2073, 149.4085
977.6895, 150.7688
978.1716, 152.4975
978.6537, 154.5526
979.1358, 156.9602
979.6179, 159.6561
980.1000, 162.4792
980.5822, 165.3637
981.0643, 168.1918
981.5464, 170.7660
982.0285, 173.2656
982.5106, 176.0898
982.9927, 179.1707
983.4749, 182.1879
983.9570, 185.0956
984.4391, 188.1137
984.9212, 191.3429
985.4033, 194.7570
985.8854, 198.2454
986.3676, 201.8819
986.8497, 206.3223
987.3318, 211.6479
987.8139, 216.8056
988.2960, 221.5585
988.7781, 226.2728
989.2603, 231.2092
989.7424, 236.2664
990.2245, 241.1728
990.7066, 245.7566
991.1887, 251.7254
991.6708, 259.5102
992.1530, 267.7031
992.6351, 275.6374
993.1172, 284.4641
993.5993, 295.2991
994.0814, 307.7114
994.5635, 320.2546
995.0457, 332.5384
995.5278, 346.0288
996.0099, 360.2944
996.4920, 376.4174
996.9741, 395.4195
997.4562, 415.7659
997.9384, 435.9656
998.4205, 456.4327
998.9026, 478.5381
999.3847, 502.5710
999.8668, 527.6776
1000.349, 554.1722
1000.831, 581.1350
1001.313, 606.5818
1001.795, 633.3327
1002.277, 664.8426
1002.760, 700.7224
1003.242, 738.4982
1003.724, 776.5639
1004.206, 817.8990
1004.688, 864.4372
1005.170, 914.3959
1005.652, 966.0919
1006.134, 1020.769
1006.616, 1080.451
1007.099, 1145.369
1007.581, 1214.563
1008.063, 1288.537
1008.545, 1365.057
1009.027, 1443.839
1009.509, 1523.127
1009.991, 1602.222
1010.473, 1680.478
1010.956, 1755.847
1011.438, 1828.112
1011.920, 1897.114
1012.402, 1962.730
1012.884, 2025.989
1013.366, 2086.842
1013.848, 2146.910
1014.330, 2209.047
1014.812, 2273.620
1015.295, 2339.404
1015.777, 2406.537
1016.259, 2476.645
1016.741, 2550.145
1017.223, 2629.954
1017.705, 2719.881
1018.187, 2820.968
1018.669, 2934.889
1019.151, 3062.396
1019.634, 3204.086
1020.116, 3360.377
1020.598, 3535.913
1021.080, 3733.786
1021.562, 3953.404
1022.044, 4194.612
1022.526, 4455.903
1023.008, 4722.859
1023.491, 4994.581
1023.973, 5253.089
1024.455, 5494.827
1024.937, 5685.854
1025.419, 5793.437
1025.901, 5809.765
1026.383, 5695.081
1026.865, 5445.968
1027.348, 5103.391
1027.830, 4655.614
1028.312, 4196.530
1028.794, 3759.107
1029.276, 3357.074
1029.758, 3010.054
1030.240, 2714.893
1030.722, 2462.578
1031.204, 2255.903
1031.687, 2085.101
1032.169, 1953.287
1032.651, 1846.563
1033.133, 1762.204
1033.615, 1694.650
1034.097, 1639.215
1034.579, 1595.039
1035.061, 1550.998
1035.543, 1509.758
1036.026, 1462.077
1036.508, 1407.875
1036.990, 1345.944
1037.472, 1274.801
1037.954, 1196.754
1038.436, 1112.863
1038.918, 1023.652
1039.400, 940.1144
1039.883, 862.8088
1040.365, 791.2106
1040.847, 724.5604
1041.329, 664.6949
1041.811, 613.2202
1042.293, 567.7839
1042.775, 525.2465
1043.257, 485.7698
1043.740, 451.9733
1044.222, 426.2798
1044.704, 402.5137
1045.186, 380.4186
1045.668, 359.9760
1046.150, 341.3250
1046.632, 324.1910
1047.114, 308.3073
1047.596, 293.6945
1048.078, 280.7476
1048.561, 270.0652
1049.043, 260.1933
1049.525, 250.8342
1050.007, 242.4490
1050.489, 235.7130
1050.971, 229.7282
1051.453, 223.5205
1051.935, 217.0310
1052.418, 210.4962
1052.900, 203.1769
1053.382, 197.1223
1053.864, 193.4006
1054.346, 190.1911
1054.828, 186.7478
1055.310, 183.1446
1055.792, 179.4426
1056.275, 175.7078
1056.757, 172.2794
1057.239, 169.1942
1057.721, 166.4966
1058.203, 164.5529
1058.685, 162.5969
1059.167, 159.9293
1059.649, 157.2206
1060.131, 155.3029
1060.614, 154.1157
1061.096, 152.9830
1061.578, 151.7133
1062.060, 150.5585
1062.542, 150.0900
1063.024, 149.2134
1063.506, 146.5310
1063.988, 143.6493
1064.470, 142.6184
1064.953, 143.1552
1065.435, 143.4904
1065.917, 143.1491
1066.399, 142.5651
1066.881, 141.6286
1067.363, 140.8239
1067.845, 140.4537
1068.327, 140.3488
1068.810, 140.2903
1069.292, 140.3189
1069.774, 140.6503
1070.256, 141.3793
1070.738, 142.2011
1071.220, 142.7425
1071.702, 143.6197
1072.184, 145.6811
1072.667, 147.8719
1073.149, 148.8851
1073.631, 149.0819
1074.113, 149.5513
1074.595, 150.5451
1075.077, 152.1876
1075.559, 155.2586
1076.041, 158.1035
1076.523, 159.3364
1077.005, 160.2821
1077.488, 162.2856
1077.970, 165.0682
1078.452, 167.7336
1078.934, 170.0698
1079.416, 172.5782
1079.898, 175.6672
1080.380, 178.7673
1080.862, 181.5714
1081.344, 184.2895
1081.827, 186.9399
1082.309, 189.7132
1082.791, 192.9130
1083.273, 196.5863
1083.755, 200.3338
1084.237, 204.3715
1084.719, 207.9361
1085.201, 210.6117
1085.684, 212.7063
1086.166, 213.9602
1086.648, 215.0644
1087.130, 217.2566
1087.612, 220.5058
1088.094, 223.2310
1088.576, 224.7414
1089.058, 225.8246
1089.541, 226.1492
1090.023, 226.8821
1090.505, 229.5324
1090.987, 232.6584
1091.469, 234.4125
1091.951, 234.7303
1092.433, 234.5622
1092.915, 234.1961
1093.397, 233.3650
1093.880, 231.6579
1094.362, 229.8093
1094.844, 228.0127
1095.326, 226.4948
1095.808, 225.5042
1096.290, 224.9873
1096.772, 224.8966
1097.254, 225.5024
1097.736, 225.1003
1098.219, 221.8387
1098.701, 219.0669
1099.183, 218.7079
1099.665, 219.1424
1100.147, 218.8005
1100.629, 218.0921
1101.111, 218.1817
1101.593, 219.2988
1102.076, 220.7292
1102.558, 222.8642
1103.040, 224.4969
1103.522, 224.4467
1104.004, 224.5677
1104.486, 226.4340
1104.968, 229.2166
1105.450, 231.5818
1105.932, 233.3831
1106.415, 234.8703
1106.897, 235.3931
1107.379, 236.6336
1107.861, 239.8975
1108.343, 242.8224
1108.825, 243.9872
1109.307, 244.2825
1109.789, 244.7954
1110.271, 245.5163
1110.754, 245.9758
1111.236, 246.5529
1111.718, 246.0195
1112.200, 243.6491
1112.682, 240.9490
1113.164, 239.1346
1113.646, 236.6001
1114.128, 231.1473
1114.611, 223.7889
1115.093, 218.1474
1115.575, 215.1337
1116.057, 211.0677
1116.539, 205.5666
1117.021, 199.5731
1117.503, 192.8137
1117.985, 186.1390
1118.468, 179.8932
1118.950, 174.2589
1119.432, 169.7585
1119.914, 166.5293
1120.396, 162.7094
1120.878, 157.7442
1121.360, 153.4030
1121.842, 150.2035
1122.324, 147.0625
1122.807, 143.1458
1123.289, 139.4664
1123.771, 137.5226
1124.253, 137.0262
1124.735, 135.4367
1125.217, 132.2895
1125.699, 129.6549
1126.181, 127.7395
1126.663, 125.9839
1127.146, 124.1973
1127.628, 122.5063
1128.110, 121.0212
1128.592, 119.7439
1129.074, 118.5808
1129.556, 117.4528
1130.038, 117.6035
1130.520, 119.3464
1131.003, 119.9792
1131.485, 118.7308
1131.967, 117.3953
1132.449, 117.1651
1132.931, 117.3060
1133.413, 116.4703
1133.895, 114.9141
1134.377, 114.5347
1134.859, 115.2927
1135.342, 116.0854
1135.824, 116.7633
1136.306, 117.3340
1136.788, 117.7959
1137.270, 118.2808
1137.752, 118.9472
1138.234, 119.6888
1138.716, 120.0956
1139.198, 120.3450
1139.681, 121.4741
1140.163, 123.2960
1140.645, 124.2757
1141.127, 124.0785
1141.609, 123.8190
1142.091, 124.2372
1142.573, 125.1440
1143.055, 125.5647
1143.538, 126.6738
1144.020, 132.6831
1144.502, 140.9027
1144.984, 143.8940
1145.466, 141.6192
1145.948, 138.9848
1146.430, 138.1236
1146.912, 138.3575
1147.395, 139.3439
1147.877, 140.8189
1148.359, 142.5417
1148.841, 144.5324
1149.323, 147.0516
1149.805, 149.8078
1150.287, 152.1114
1150.769, 153.8723
1151.251, 155.7010
1151.734, 157.9850
1152.216, 160.2155
1152.698, 161.7346
1153.180, 163.3814
1153.662, 166.3025
1154.144, 169.4468
1154.626, 171.0719
1155.108, 171.6192
1155.590, 173.0811
1156.073, 176.1031
1156.555, 179.2488
1157.037, 182.2568
1157.519, 184.9637
1158.001, 186.7277
1158.483, 188.7491
1158.965, 192.6190
1159.447, 197.0768
1159.930, 199.7419
1160.412, 200.4556
1160.894, 201.5683
1161.376, 203.9844
1161.858, 205.7727
1162.340, 206.0881
1162.822, 206.6175
1163.304, 207.9956
1163.786, 209.8280
1164.269, 212.0125
1164.751, 214.2987
1165.233, 215.8319
1165.715, 216.4854
1166.197, 216.8611
1166.679, 216.6706
1167.161, 217.1320
1167.643, 218.9148
1168.125, 220.2041
1168.608, 219.8120
1169.090, 218.5804
1169.572, 217.7020
1170.054, 217.1544
1170.536, 216.9028
1171.018, 216.9761
1171.500, 216.6469
1171.982, 215.8508
1172.465, 214.5798
1172.947, 212.7907
1173.429, 211.4462
1173.911, 211.4429
1174.393, 211.9707
1174.875, 211.6792
1175.357, 210.5740
1175.839, 208.2054
1176.322, 205.0332
1176.804, 202.9967
1177.286, 202.3055
1177.768, 202.1831
1178.250, 202.2417
1178.732, 201.9569
1179.214, 200.5656
1179.696, 198.9098
1180.178, 198.1533
1180.661, 197.8456
1181.143, 197.2458
1181.625, 196.5180
1182.107, 196.0411
1182.589, 195.9786
1183.071, 196.6362
1183.553, 198.3164
1184.035, 200.0867
1184.517, 200.9289
1185.000, 202.1419
1185.482, 205.0390
1185.964, 208.4594
1186.446, 210.9265
1186.928, 212.9285
1187.410, 215.9778
1187.892, 220.3535
1188.374, 224.3011
1188.857, 226.8771
1189.339, 229.7737
1189.821, 232.9634
1190.303, 237.0088
1190.785, 242.3486
1191.267, 248.6018
1191.749, 255.5763
1192.231, 263.0933
1192.714, 270.5716
1193.196, 278.0532
1193.678, 285.3347
1194.160, 292.1664
1194.642, 299.5681
1195.124, 308.0133
1195.606, 316.2573
1196.088, 323.5843
1196.570, 330.3098
1197.052, 337.0742
1197.535, 343.4587
1198.017, 347.0663
1198.499, 347.9633
1198.981, 349.5768
1199.463, 352.0270
1199.945, 352.6928
1200.427, 350.8044
1200.909, 346.6137
1201.392, 340.2172
1201.874, 332.1545
1202.356, 322.9628
1202.838, 312.7288
1203.320, 301.3031
1203.802, 289.1797
1204.284, 277.3987
1204.766, 265.9860
1205.249, 254.7198
1205.731, 243.5471
1206.213, 232.9367
1206.695, 223.2247
1207.177, 213.9530
1207.659, 204.5910
1208.141, 195.7617
1208.623, 188.3701
1209.105, 181.6475
1209.588, 174.2516
1210.070, 166.6678
1210.552, 160.6069
1211.034, 156.5792
1211.516, 152.6885
1211.998, 148.1476
1212.480, 144.1358
1212.962, 141.6214
1213.444, 138.9048
1213.927, 134.6502
1214.409, 130.0764
1214.891, 126.4861
1215.373, 123.7274
1215.855, 121.1222
1216.337, 118.6628
1216.819, 116.4514
1217.301, 114.5209
1217.784, 112.7521
1218.266, 111.1514
1218.748, 109.6125
1219.230, 108.1247
1219.712, 106.3140
1220.194, 103.5452
1220.676, 100.2615
1221.158, 97.86760
1221.641, 96.24062
1222.123, 94.72101
1222.605, 93.33263
1223.087, 92.53536
1223.569, 92.34627
1224.051, 92.13622
1224.533, 91.55702
1225.015, 90.78152
1225.497, 89.94226
1225.979, 89.03672
1226.462, 87.98595
1226.944, 86.92278
1227.426, 86.10881
1227.908, 85.37720
1228.390, 84.29978
1228.872, 82.88535
1229.354, 81.71513
1229.836, 81.08518
1230.319, 80.41591
1230.801, 79.29097
1231.283, 78.37167
1231.765, 78.08267
1232.247, 77.96707
1232.729, 77.96914
1233.211, 77.73833
1233.693, 76.47404
1234.176, 74.23878
1234.658, 72.96295
1235.140, 73.21872
1235.622, 72.57473
1236.104, 70.54752
1236.586, 68.99347
1237.068, 68.47035
1237.550, 68.49434
1238.032, 68.78387
1238.515, 69.15997
1238.997, 69.40962
1239.479, 69.44023
1239.961, 68.69431
1240.443, 67.38235
1240.925, 66.45102
1241.407, 65.93880
1241.889, 65.52509
1242.371, 65.11823
1242.854, 64.86420
1243.336, 64.90538
1243.818, 64.79912
1244.300, 63.74736
1244.782, 62.75183
1245.264, 63.16593
1245.746, 63.90390
1246.228, 63.43508
1246.711, 62.31356
1247.193, 61.93182
1247.675, 62.44694
1248.157, 62.85612
1248.639, 63.21902
1249.121, 62.84095
1249.603, 60.71500
1250.085, 59.05828
1250.568, 58.92460
1251.050, 59.01383
1251.532, 58.35982
1252.014, 57.51431
1252.496, 57.44542
1252.978, 58.06829
1253.460, 58.48753
1253.942, 58.72065
1254.424, 58.47068
1254.906, 57.69965
1255.389, 57.11722
1255.871, 56.91731
1256.353, 56.68214
1256.835, 56.13730
1257.317, 55.54951
1257.799, 55.19117
1258.281, 55.08270
1258.763, 55.48379
1259.246, 56.02835
1259.728, 55.90435
1260.210, 55.40937
1260.692, 55.44518
1261.174, 56.03814
1261.656, 56.38609
1262.138, 56.15635
1262.620, 55.75283
1263.103, 55.11080
1263.585, 54.67512
1264.067, 54.78234
1264.549, 55.01743
1265.031, 55.26807
1265.513, 55.34418
1265.995, 54.80781
1266.477, 53.86427
1266.959, 53.63076
1267.442, 54.36488
1267.924, 54.73845
1268.406, 54.69758
1268.888, 54.53896
1269.370, 54.31348
1269.852, 53.94513
1270.334, 53.36050
1270.816, 53.06480
1271.298, 53.71693
1271.781, 54.68269
1272.263, 54.55688
1272.745, 53.78867
1273.227, 53.39729
1273.709, 53.32965
1274.191, 53.33637
1274.673, 53.40111
1275.155, 53.78538
1275.638, 54.52082
1276.120, 54.69829
1276.602, 53.21034
1277.084, 52.12429
1277.566, 53.08762
1278.048, 54.01852
##END=



