##NAMES=Parabutlerite
##RRUFFID=R070547
##IDEAL CHEMISTRY=Fe^3+^S^6+^O_4_(OH)&#183;2H_2_O
##LOCALITY=Chuquicamata mine, Calama, El Loa Province, Antofogasta, Chile
##OWNER=RRUFF
##SOURCE=James Shigley
##DESCRIPTION=Granular aggregate of orange microcrystals
##STATUS=The identification of this mineral has been confirmed by single-crystal X-ray diffraction.
##URL=rruff.info/R070547
151.2912, 4101.818
151.7733, 4190.578
152.2555, 4277.237
152.7376, 4356.388
153.2197, 4426.351
153.7018, 4486.214
154.1839, 4533.550
154.6660, 4563.351
155.1481, 4558.842
155.6303, 4570.762
156.1124, 4613.326
156.5945, 4662.292
157.0766, 4696.658
157.5587, 4711.872
158.0408, 4720.156
158.5230, 4739.908
159.0051, 4774.604
159.4872, 4817.677
159.9693, 4870.893
160.4514, 4909.390
160.9335, 4932.816
161.4157, 4952.756
161.8978, 4970.237
162.3799, 4987.156
162.8620, 5007.020
163.3441, 5019.799
163.8262, 5011.616
164.3084, 5003.175
164.7905, 5021.870
165.2726, 5075.844
165.7547, 5140.325
166.2368, 5172.518
166.7189, 5150.118
167.2011, 5148.412
167.6832, 5195.660
168.1653, 5258.705
168.6474, 5296.520
169.1295, 5296.534
169.6116, 5277.885
170.0938, 5271.941
170.5759, 5282.708
171.0580, 5294.073
171.5401, 5305.305
172.0222, 5315.312
172.5043, 5321.128
172.9865, 5321.108
173.4686, 5320.543
173.9507, 5329.346
174.4328, 5349.010
174.9149, 5369.952
175.3970, 5394.012
175.8792, 5417.056
176.3613, 5429.566
176.8434, 5426.448
177.3255, 5420.685
177.8076, 5437.607
178.2897, 5482.470
178.7719, 5521.847
179.2540, 5543.749
179.7361, 5555.787
180.2182, 5567.998
180.7003, 5581.649
181.1824, 5601.150
181.6646, 5639.270
182.1467, 5700.281
182.6288, 5751.088
183.1109, 5780.506
183.5930, 5794.369
184.0751, 5800.698
184.5573, 5799.902
185.0394, 5797.103
185.5215, 5800.448
186.0036, 5810.030
186.4857, 5820.231
186.9678, 5826.174
187.4500, 5832.125
187.9321, 5849.281
188.4142, 5884.454
188.8963, 5919.943
189.3784, 5925.661
189.8605, 5900.922
190.3427, 5881.958
190.8248, 5880.802
191.3069, 5892.507
191.7890, 5910.130
192.2711, 5933.917
192.7532, 5958.088
193.2354, 5972.233
193.7175, 5976.267
194.1996, 5987.457
194.6817, 6014.191
195.1638, 6051.041
195.6459, 6088.648
196.1281, 6124.948
196.6102, 6162.166
197.0923, 6205.475
197.5744, 6254.410
198.0565, 6298.960
198.5386, 6330.639
199.0208, 6357.707
199.5029, 6395.206
199.9850, 6448.102
200.4671, 6504.330
200.9492, 6548.604
201.4313, 6582.906
201.9135, 6623.023
202.3956, 6682.430
202.8777, 6747.494
203.3598, 6795.119
203.8419, 6819.005
204.3240, 6838.309
204.8061, 6868.079
205.2883, 6907.454
205.7704, 6960.154
206.2525, 7039.298
206.7346, 7127.495
207.2167, 7198.880
207.6988, 7248.302
208.1810, 7293.546
208.6631, 7351.571
209.1452, 7419.149
209.6273, 7481.554
210.1094, 7535.712
210.5915, 7583.032
211.0737, 7624.039
211.5558, 7658.151
212.0379, 7689.836
212.5200, 7723.650
213.0021, 7758.001
213.4842, 7786.676
213.9664, 7806.887
214.4485, 7822.047
214.9306, 7833.726
215.4127, 7841.768
215.8948, 7852.736
216.3769, 7875.386
216.8591, 7904.935
217.3412, 7924.341
217.8233, 7918.943
218.3054, 7911.840
218.7875, 7927.583
219.2696, 7965.571
219.7518, 7997.823
220.2339, 7997.862
220.7160, 7980.791
221.1981, 7995.752
221.6802, 8065.797
222.1623, 8149.172
222.6445, 8212.522
223.1266, 8259.599
223.6087, 8319.147
224.0908, 8413.751
224.5729, 8528.699
225.0550, 8618.059
225.5372, 8661.083
226.0193, 8706.271
226.5014, 8787.893
226.9835, 8897.711
227.4656, 9000.284
227.9477, 9074.732
228.4298, 9137.208
228.9120, 9226.840
229.3941, 9356.210
229.8762, 9486.389
230.3583, 9607.779
230.8404, 9717.439
231.3225, 9807.761
231.8047, 9875.653
232.2868, 9922.605
232.7689, 9950.226
233.2510, 9961.107
233.7331, 9953.586
234.2152, 9931.595
234.6974, 9890.040
235.1795, 9816.269
235.6616, 9703.151
236.1437, 9568.255
236.6258, 9446.795
237.1079, 9354.977
237.5901, 9214.853
238.0722, 8981.132
238.5543, 8701.768
239.0364, 8436.561
239.5185, 8198.272
240.0006, 7971.184
240.4828, 7733.115
240.9649, 7480.600
241.4470, 7236.659
241.9291, 7007.527
242.4112, 6784.975
242.8933, 6560.426
243.3755, 6331.869
243.8576, 6111.416
244.3397, 5908.891
244.8218, 5727.013
245.3039, 5557.899
245.7860, 5409.554
246.2682, 5266.181
246.7503, 5112.849
247.2324, 4951.619
247.7145, 4800.767
248.1966, 4677.238
248.6787, 4581.156
249.1609, 4483.438
249.6430, 4382.172
250.1251, 4280.888
250.6072, 4176.497
251.0893, 4072.647
251.5714, 3979.664
252.0535, 3905.809
252.5357, 3848.376
253.0178, 3786.787
253.4999, 3703.958
253.9820, 3636.399
254.4641, 3608.497
254.9462, 3600.119
255.4284, 3576.175
255.9105, 3518.283
256.3926, 3437.825
256.8747, 3371.611
257.3568, 3328.476
257.8390, 3290.402
258.3211, 3254.309
258.8032, 3223.332
259.2853, 3203.903
259.7674, 3197.906
260.2495, 3196.875
260.7317, 3184.103
261.2138, 3147.987
261.6959, 3118.057
262.1780, 3096.516
262.6601, 3079.260
263.1422, 3067.227
263.6244, 3058.755
264.1065, 3045.522
264.5886, 3013.803
265.0707, 2951.318
265.5528, 2908.264
266.0349, 2898.448
266.5170, 2893.472
266.9991, 2881.780
267.4813, 2861.556
267.9634, 2834.489
268.4455, 2800.190
268.9276, 2757.630
269.4097, 2723.310
269.8918, 2708.396
270.3740, 2691.368
270.8561, 2664.427
271.3382, 2630.327
271.8203, 2595.665
272.3024, 2564.123
272.7845, 2535.658
273.2667, 2510.620
273.7488, 2493.329
274.2309, 2473.120
274.7130, 2446.083
275.1951, 2415.148
275.6772, 2383.114
276.1594, 2350.514
276.6415, 2319.893
277.1236, 2298.020
277.6057, 2289.069
278.0878, 2277.208
278.5699, 2252.689
279.0521, 2226.548
279.5342, 2210.016
280.0163, 2206.562
280.4984, 2204.253
280.9805, 2185.277
281.4626, 2147.593
281.9448, 2121.939
282.4269, 2125.304
282.9090, 2134.495
283.3911, 2132.451
283.8732, 2118.290
284.3553, 2099.978
284.8375, 2079.411
285.3196, 2058.333
285.8017, 2046.006
286.2838, 2047.885
286.7659, 2051.582
287.2480, 2048.350
287.7302, 2038.896
288.2123, 2024.914
288.6944, 1999.315
289.1765, 1971.976
289.6586, 1963.301
290.1407, 1977.593
290.6229, 1991.070
291.1050, 1983.857
291.5871, 1962.640
292.0692, 1946.958
292.5513, 1940.818
293.0334, 1940.140
293.5156, 1943.910
293.9977, 1951.364
294.4798, 1957.102
294.9619, 1958.589
295.4440, 1956.086
295.9261, 1950.645
296.4083, 1939.231
296.8904, 1929.885
297.3725, 1927.384
297.8546, 1929.084
298.3367, 1930.512
298.8188, 1930.490
299.3010, 1927.895
299.7831, 1919.743
300.2652, 1901.971
300.7473, 1889.151
301.2294, 1887.131
301.7115, 1888.267
302.1937, 1883.103
302.6758, 1870.741
303.1579, 1860.894
303.6400, 1865.836
304.1221, 1890.960
304.6042, 1901.903
305.0864, 1887.473
305.5685, 1871.156
306.0506, 1865.037
306.5327, 1867.725
307.0148, 1872.553
307.4969, 1875.603
307.9791, 1876.323
308.4612, 1868.331
308.9433, 1838.649
309.4254, 1814.450
309.9075, 1800.833
310.3896, 1795.104
310.8718, 1793.782
311.3539, 1795.376
311.8360, 1799.492
312.3181, 1806.449
312.8002, 1822.189
313.2823, 1828.238
313.7644, 1814.228
314.2466, 1797.021
314.7287, 1789.923
315.2108, 1794.809
315.6929, 1802.712
316.1750, 1803.733
316.6571, 1797.241
317.1393, 1789.693
317.6214, 1778.148
318.1035, 1768.973
318.5856, 1765.198
319.0677, 1766.443
319.5498, 1771.039
320.0320, 1780.513
320.5141, 1792.366
320.9962, 1798.278
321.4783, 1796.789
321.9604, 1792.858
322.4425, 1785.044
322.9247, 1777.409
323.4068, 1776.650
323.8889, 1787.132
324.3710, 1801.391
324.8531, 1812.943
325.3352, 1821.740
325.8174, 1826.656
326.2995, 1826.529
326.7816, 1822.654
327.2637, 1816.885
327.7458, 1808.077
328.2279, 1801.613
328.7101, 1798.764
329.1922, 1800.076
329.6743, 1809.607
330.1564, 1829.944
330.6385, 1848.091
331.1206, 1845.490
331.6028, 1818.093
332.0849, 1803.891
332.5670, 1810.955
333.0491, 1827.885
333.5312, 1849.577
334.0133, 1874.073
334.4955, 1896.886
334.9776, 1914.573
335.4597, 1927.516
335.9418, 1941.005
336.4239, 1956.554
336.9060, 1970.948
337.3882, 1983.060
337.8703, 1993.533
338.3524, 2002.802
338.8345, 2011.021
339.3166, 2019.388
339.7987, 2029.455
340.2809, 2034.494
340.7630, 2054.491
341.2451, 2104.739
341.7272, 2157.143
342.2093, 2190.080
342.6914, 2202.668
343.1736, 2209.771
343.6557, 2225.334
344.1378, 2249.612
344.6199, 2277.689
345.1020, 2312.434
345.5841, 2348.050
346.0663, 2381.096
346.5484, 2413.505
347.0305, 2448.947
347.5126, 2489.394
347.9947, 2533.694
348.4768, 2579.471
348.9590, 2626.857
349.4411, 2676.059
349.9232, 2730.955
350.4053, 2786.073
350.8874, 2835.550
351.3695, 2878.039
351.8517, 2918.049
352.3338, 2956.586
352.8159, 2995.137
353.2980, 3041.343
353.7801, 3099.129
354.2622, 3159.600
354.7444, 3210.500
355.2265, 3252.969
355.7086, 3300.682
356.1907, 3366.474
356.6728, 3432.684
357.1549, 3477.825
357.6371, 3502.650
358.1192, 3526.160
358.6013, 3560.105
359.0834, 3603.893
359.5655, 3653.532
360.0476, 3716.837
360.5298, 3775.727
361.0119, 3825.140
361.4940, 3866.537
361.9761, 3902.462
362.4582, 3933.853
362.9403, 3959.449
363.4224, 3976.420
363.9045, 3977.789
364.3867, 3984.417
364.8688, 4004.819
365.3509, 4022.809
365.8330, 4028.606
366.3151, 4022.183
366.7972, 4008.604
367.2794, 3990.146
367.7615, 3967.608
368.2436, 3954.726
368.7257, 3961.528
369.2078, 3964.026
369.6899, 3949.882
370.1721, 3929.528
370.6542, 3919.397
371.1363, 3928.496
371.6184, 3938.172
372.1005, 3916.036
372.5826, 3858.609
373.0648, 3812.546
373.5469, 3790.545
374.0290, 3783.580
374.5111, 3785.480
374.9932, 3795.901
375.4753, 3804.027
375.9575, 3797.021
376.4396, 3786.103
376.9217, 3796.102
377.4038, 3831.515
377.8859, 3867.348
378.3680, 3882.207
378.8502, 3880.113
379.3323, 3890.577
379.8144, 3923.612
380.2965, 3959.734
380.7786, 3988.365
381.2607, 4012.540
381.7429, 4038.415
382.2250, 4068.148
382.7071, 4102.697
383.1892, 4144.209
383.6713, 4199.186
384.1534, 4250.230
384.6356, 4292.462
385.1177, 4334.196
385.5998, 4379.365
386.0819, 4429.518
386.5640, 4487.562
387.0461, 4558.545
387.5283, 4641.527
388.0104, 4708.131
388.4925, 4738.627
388.9746, 4776.738
389.4567, 4838.426
389.9388, 4911.650
390.4210, 4981.128
390.9031, 5041.495
391.3852, 5095.946
391.8673, 5149.213
392.3494, 5201.392
392.8315, 5250.942
393.3137, 5293.167
393.7958, 5337.000
394.2779, 5392.182
394.7600, 5457.425
395.2421, 5517.529
395.7242, 5559.604
396.2064, 5594.096
396.6885, 5641.629
397.1706, 5704.173
397.6527, 5761.034
398.1348, 5799.159
398.6169, 5820.656
399.0991, 5837.629
399.5812, 5851.310
400.0633, 5859.355
400.5454, 5861.516
401.0275, 5857.234
401.5096, 5844.513
401.9918, 5822.676
402.4739, 5795.604
402.9560, 5768.078
403.4381, 5740.436
403.9202, 5711.310
404.4023, 5691.627
404.8845, 5660.396
405.3666, 5600.628
405.8487, 5520.058
406.3308, 5439.212
406.8129, 5371.444
407.2950, 5311.771
407.7772, 5241.706
408.2593, 5156.975
408.7414, 5070.534
409.2235, 4988.119
409.7056, 4903.338
410.1877, 4810.151
410.6699, 4707.680
411.1520, 4600.546
411.6341, 4485.698
412.1162, 4367.115
412.5983, 4268.995
413.0804, 4201.208
413.5625, 4135.533
414.0446, 4047.657
414.5268, 3946.240
415.0089, 3852.434
415.4910, 3771.239
415.9731, 3696.731
416.4552, 3624.740
416.9373, 3555.457
417.4195, 3491.820
417.9016, 3436.114
418.3837, 3382.643
418.8658, 3321.439
419.3479, 3247.217
419.8300, 3178.317
420.3122, 3115.272
420.7943, 3057.766
421.2764, 3007.416
421.7585, 2963.075
422.2406, 2921.500
422.7227, 2880.759
423.2049, 2840.382
423.6870, 2796.703
424.1691, 2743.002
424.6512, 2696.219
425.1333, 2664.668
425.6154, 2637.325
426.0976, 2600.785
426.5797, 2552.620
427.0618, 2508.306
427.5439, 2487.234
428.0260, 2487.510
428.5081, 2483.380
428.9903, 2472.010
429.4724, 2457.471
429.9545, 2439.417
430.4366, 2420.247
430.9187, 2406.371
431.4008, 2404.159
431.8830, 2402.827
432.3651, 2391.016
432.8472, 2371.400
433.3293, 2355.126
433.8114, 2346.251
434.2935, 2342.172
434.7757, 2338.246
435.2578, 2332.207
435.7399, 2333.721
436.2220, 2349.854
436.7041, 2368.552
437.1862, 2380.684
437.6684, 2387.165
438.1505, 2394.567
438.6326, 2407.570
439.1147, 2424.723
439.5968, 2439.127
440.0789, 2445.332
440.5611, 2457.761
441.0432, 2479.067
441.5253, 2506.074
442.0074, 2536.764
442.4895, 2570.523
442.9716, 2606.968
443.4538, 2647.640
443.9359, 2691.321
444.4180, 2730.469
444.9001, 2763.075
445.3822, 2794.973
445.8643, 2828.756
446.3465, 2864.512
446.8286, 2902.880
447.3107, 2942.885
447.7928, 2986.758
448.2749, 3036.173
448.7570, 3090.463
449.2392, 3149.173
449.7213, 3213.395
450.2034, 3276.008
450.6855, 3328.378
451.1676, 3367.781
451.6497, 3408.587
452.1319, 3444.106
452.6140, 3487.713
453.0961, 3551.384
453.5782, 3627.176
454.0603, 3699.882
454.5424, 3761.859
455.0246, 3816.380
455.5067, 3867.945
455.9888, 3911.802
456.4709, 3966.599
456.9530, 4051.948
457.4352, 4134.790
457.9173, 4192.800
458.3994, 4229.896
458.8815, 4268.888
459.3636, 4322.310
459.8457, 4386.081
460.3279, 4457.984
460.8100, 4538.573
461.2921, 4610.168
461.7742, 4663.628
462.2563, 4703.604
462.7384, 4740.404
463.2205, 4774.768
463.7026, 4803.769
464.1848, 4826.405
464.6669, 4843.422
465.1490, 4860.557
465.6311, 4875.670
466.1132, 4873.299
466.5953, 4839.195
467.0775, 4777.319
467.5596, 4721.413
468.0417, 4683.114
468.5238, 4635.725
469.0059, 4576.155
469.4880, 4506.393
469.9702, 4424.632
470.4523, 4331.638
470.9344, 4238.193
471.4165, 4156.917
471.8986, 4086.356
472.3807, 4006.164
472.8629, 3912.320
473.3450, 3817.542
473.8271, 3731.360
474.3092, 3649.087
474.7913, 3563.005
475.2734, 3468.258
475.7556, 3376.101
476.2377, 3295.861
476.7198, 3223.361
477.2019, 3149.346
477.6840, 3071.597
478.1661, 2994.706
478.6483, 2922.702
479.1304, 2855.885
479.6125, 2793.401
480.0946, 2738.791
480.5767, 2684.280
481.0588, 2626.711
481.5410, 2568.162
482.0231, 2510.641
482.5052, 2454.928
482.9873, 2402.454
483.4694, 2356.255
483.9515, 2318.109
484.4337, 2273.671
484.9158, 2214.331
485.3979, 2158.664
485.8800, 2117.659
486.3621, 2086.605
486.8442, 2055.412
487.3264, 2019.373
487.8085, 1984.229
488.2906, 1957.213
488.7727, 1936.171
489.2548, 1910.603
489.7369, 1876.084
490.2191, 1841.938
490.7012, 1819.932
491.1833, 1812.624
491.6654, 1804.851
492.1475, 1801.236
492.6296, 1792.531
493.1118, 1769.600
493.5939, 1739.098
494.0760, 1713.931
494.5581, 1699.905
495.0402, 1691.364
495.5223, 1677.465
496.0045, 1655.648
496.4866, 1639.423
496.9687, 1636.495
497.4508, 1632.430
497.9329, 1617.213
498.4150, 1595.362
498.8972, 1578.560
499.3793, 1573.433
499.8614, 1572.910
500.3435, 1569.234
500.8256, 1562.921
501.3077, 1557.680
501.7899, 1555.411
502.2720, 1552.151
502.7541, 1541.226
503.2362, 1520.117
503.7183, 1507.414
504.2004, 1508.177
504.6826, 1512.925
505.1647, 1522.268
505.6468, 1530.906
506.1289, 1526.963
506.6110, 1505.130
507.0931, 1477.577
507.5753, 1467.385
508.0574, 1479.835
508.5395, 1488.752
509.0216, 1490.226
509.5037, 1490.732
509.9858, 1493.866
510.4680, 1498.450
510.9501, 1501.398
511.4322, 1500.858
511.9143, 1499.304
512.3964, 1499.654
512.8785, 1501.422
513.3607, 1502.075
513.8428, 1500.692
514.3249, 1498.823
514.8070, 1497.759
515.2891, 1497.334
515.7712, 1500.353
516.2534, 1509.881
516.7355, 1519.531
517.2176, 1526.102
517.6997, 1530.953
518.1818, 1536.370
518.6639, 1543.231
519.1461, 1551.332
519.6282, 1561.770
520.1103, 1575.654
520.5924, 1582.762
521.0745, 1574.704
521.5566, 1570.840
522.0388, 1581.183
522.5209, 1601.664
523.0030, 1625.362
523.4851, 1651.889
523.9672, 1677.936
524.4493, 1700.550
524.9315, 1720.850
525.4136, 1742.060
525.8957, 1764.981
526.3778, 1787.798
526.8599, 1809.045
527.3420, 1828.830
527.8242, 1846.792
528.3063, 1856.688
528.7884, 1872.624
529.2705, 1901.640
529.7526, 1936.886
530.2347, 1970.781
530.7169, 2001.495
531.1990, 2031.059
531.6811, 2061.170
532.1632, 2091.857
532.6453, 2123.348
533.1274, 2153.226
533.6096, 2189.708
534.0917, 2244.293
534.5738, 2304.738
535.0559, 2352.119
535.5380, 2380.535
536.0201, 2410.995
536.5022, 2454.546
536.9843, 2504.916
537.4664, 2558.054
537.9485, 2611.713
538.4307, 2653.078
538.9128, 2670.016
539.3949, 2670.987
539.8770, 2695.956
540.3591, 2771.075
540.8412, 2829.999
541.3234, 2861.875
541.8055, 2882.373
542.2876, 2898.003
542.7697, 2912.139
543.2518, 2931.727
543.7339, 2967.447
544.2161, 3006.855
544.6982, 3021.731
545.1803, 3011.712
545.6624, 3004.447
546.1445, 3012.168
546.6266, 3023.026
547.1088, 3021.130
547.5909, 3006.916
548.0730, 2981.312
548.5551, 2935.810
549.0372, 2886.923
549.5193, 2844.542
550.0015, 2806.341
550.4836, 2768.003
550.9657, 2727.399
551.4478, 2682.502
551.9299, 2628.501
552.4120, 2563.903
552.8942, 2499.600
553.3763, 2436.268
553.8584, 2372.601
554.3405, 2304.871
554.8226, 2237.159
555.3047, 2176.920
555.7869, 2128.169
556.2690, 2082.763
556.7511, 2035.416
557.2332, 1987.024
557.7153, 1938.462
558.1974, 1889.793
558.6796, 1844.937
559.1617, 1808.121
559.6438, 1778.357
560.1259, 1743.401
560.6080, 1696.150
561.0901, 1652.339
561.5723, 1612.263
562.0544, 1576.981
562.5365, 1546.914
563.0186, 1522.222
563.5007, 1503.412
563.9828, 1495.046
564.4650, 1491.014
564.9471, 1472.682
565.4292, 1438.590
565.9113, 1411.302
566.3934, 1402.391
566.8755, 1400.447
567.3577, 1386.440
567.8398, 1358.370
568.3219, 1338.314
568.8040, 1334.164
569.2861, 1334.256
569.7682, 1336.396
570.2504, 1336.332
570.7325, 1324.584
571.2146, 1297.262
571.6967, 1265.547
572.1788, 1246.515
572.6609, 1241.398
573.1431, 1239.856
573.6252, 1244.786
574.1073, 1248.681
574.5894, 1248.510
575.0715, 1244.736
575.5536, 1236.668
576.0358, 1221.167
576.5179, 1209.917
577.0000, 1212.647
577.4821, 1222.766
577.9642, 1231.482
578.4464, 1237.306
578.9285, 1239.827
579.4106, 1238.246
579.8927, 1233.719
580.3748, 1231.567
580.8569, 1234.497
581.3391, 1235.096
581.8212, 1227.961
582.3033, 1222.677
582.7854, 1227.401
583.2675, 1239.931
583.7496, 1251.193
584.2318, 1255.549
584.7139, 1257.270
585.1960, 1261.815
585.6781, 1268.774
586.1602, 1276.069
586.6423, 1283.109
587.1245, 1290.324
587.6066, 1298.360
588.0887, 1307.354
588.5708, 1315.106
589.0529, 1317.349
589.5350, 1323.572
590.0172, 1339.424
590.4993, 1359.020
590.9814, 1375.817
591.4635, 1388.557
591.9456, 1400.578
592.4277, 1415.849
592.9099, 1432.901
593.3920, 1444.630
593.8741, 1449.657
594.3562, 1458.816
594.8383, 1478.181
595.3204, 1502.210
595.8026, 1521.344
596.2847, 1534.840
596.7668, 1550.518
597.2489, 1573.604
597.7310, 1595.455
598.2131, 1614.171
598.6953, 1626.835
599.1774, 1626.443
599.6595, 1610.464
600.1416, 1588.655
600.6237, 1574.795
601.1058, 1569.231
601.5880, 1565.052
602.0701, 1565.505
602.5522, 1560.793
603.0343, 1543.112
603.5164, 1517.985
603.9985, 1492.450
604.4807, 1465.941
604.9628, 1443.456
605.4449, 1428.771
605.9270, 1417.882
606.4091, 1408.377
606.8912, 1398.893
607.3734, 1385.314
607.8555, 1364.899
608.3376, 1341.863
608.8197, 1326.099
609.3018, 1319.846
609.7839, 1312.636
610.2661, 1301.764
610.7482, 1292.344
611.2303, 1287.281
611.7124, 1285.400
612.1945, 1285.045
612.6766, 1288.479
613.1588, 1287.282
613.6409, 1272.115
614.1230, 1250.382
614.6051, 1233.923
615.0872, 1224.151
615.5693, 1216.503
616.0515, 1207.493
616.5336, 1198.264
617.0157, 1193.165
617.4978, 1193.570
617.9799, 1195.349
618.4620, 1204.163
618.9442, 1208.739
619.4263, 1200.077
619.9084, 1181.728
620.3905, 1164.459
620.8726, 1151.855
621.3547, 1142.628
621.8369, 1138.643
622.3190, 1136.824
622.8011, 1127.800
623.2832, 1110.036
623.7653, 1094.295
624.2474, 1090.199
624.7296, 1096.085
625.2117, 1099.255
625.6938, 1100.452
626.1759, 1097.513
626.6580, 1088.573
627.1401, 1077.216
627.6223, 1062.174
628.1044, 1046.326
628.5865, 1039.872
629.0686, 1055.425
629.5507, 1072.503
630.0328, 1062.709
630.5150, 1034.892
630.9971, 1019.875
631.4792, 1025.303
631.9613, 1034.631
632.4434, 1031.487
632.9255, 1016.946
633.4077, 1009.831
633.8898, 1021.067
634.3719, 1024.430
634.8539, 1010.168
635.3361, 992.1758
635.8182, 980.3857
636.3003, 975.4614
636.7824, 974.2278
637.2645, 976.7677
637.7466, 980.2691
638.2288, 980.9079
638.7109, 979.4150
639.1930, 979.3405
639.6751, 981.8379
640.1572, 982.6029
640.6393, 976.2773
641.1215, 963.2241
641.6036, 957.1289
642.0857, 964.0370
642.5678, 969.9960
643.0499, 974.6628
643.5320, 976.6750
644.0142, 974.2433
644.4963, 967.8638
644.9784, 960.3518
645.4605, 952.4716
645.9426, 945.0345
646.4247, 939.2498
646.9069, 934.8116
647.3890, 930.3287
647.8711, 925.3806
648.3532, 921.3187
648.8353, 919.4903
649.3174, 919.8489
649.7996, 921.6471
650.2817, 929.0726
650.7638, 931.8320
651.2459, 923.8376
651.7280, 914.5353
652.2101, 912.3218
652.6923, 916.3354
653.1744, 918.4916
653.6565, 913.0599
654.1386, 905.7958
654.6207, 903.0863
655.1028, 903.7703
655.5850, 904.4222
656.0671, 904.2192
656.5492, 903.9604
657.0313, 904.8817
657.5134, 906.4881
657.9955, 903.0773
658.4777, 890.0139
658.9598, 879.6888
659.4419, 872.0645
659.9240, 868.8627
660.4061, 874.5405
660.8882, 886.3949
661.3704, 893.9605
661.8525, 892.0596
662.3346, 885.4573
662.8167, 876.7913
663.2988, 866.8998
663.7809, 856.9460
664.2631, 847.3684
664.7452, 839.5842
665.2273, 834.9529
665.7094, 833.0162
666.1915, 831.7263
666.6736, 832.2138
667.1558, 830.6861
667.6379, 823.0745
668.1200, 816.5593
668.6021, 817.9380
669.0842, 824.0798
669.5663, 824.7964
670.0485, 813.1188
670.5306, 802.0901
671.0127, 799.6960
671.4948, 803.0266
671.9769, 809.3170
672.4590, 817.3475
672.9412, 825.1840
673.4233, 832.0690
673.9054, 835.8297
674.3875, 828.4425
674.8696, 805.9381
675.3517, 790.0771
675.8339, 783.7712
676.3160, 783.6795
676.7981, 793.1738
677.2802, 806.5517
677.7623, 810.5215
678.2444, 799.3856
678.7266, 787.5634
679.2087, 778.2823
679.6908, 772.1622
680.1729, 770.1373
680.6550, 771.9100
681.1371, 777.2553
681.6193, 786.3464
682.1014, 795.8181
682.5835, 799.5818
683.0656, 797.6702
683.5477, 797.7858
684.0298, 802.2421
684.5120, 802.4687
684.9941, 789.1356
685.4762, 770.5453
685.9583, 768.1265
686.4404, 790.3209
686.9225, 802.1063
687.4047, 791.5104
687.8868, 777.0601
688.3689, 766.6959
688.8510, 761.3083
689.3331, 762.6017
689.8152, 770.8672
690.2974, 778.2576
690.7795, 774.9743
691.2616, 764.5348
691.7437, 756.9667
692.2258, 752.5494
692.7079, 752.4464
693.1901, 757.9288
693.6722, 766.1717
694.1543, 774.1165
694.6364, 783.6827
695.1185, 782.7973
695.6006, 759.8013
696.0828, 741.1216
696.5649, 734.3068
697.0470, 734.6580
697.5291, 739.3204
698.0112, 746.8262
698.4933, 751.4684
698.9755, 747.2844
699.4576, 740.3838
699.9397, 736.2903
700.4218, 735.5838
700.9039, 742.5396
701.3860, 758.0486
701.8682, 770.7597
702.3503, 768.8210
702.8324, 754.0930
703.3145, 743.5305
703.7966, 739.3735
704.2787, 733.9847
704.7609, 720.1969
705.2430, 710.2565
705.7251, 716.5535
706.2072, 734.4664
706.6893, 746.0079
707.1714, 743.8512
707.6536, 739.4668
708.1357, 737.4501
708.6178, 736.8297
709.0999, 737.0275
709.5820, 737.5725
710.0641, 737.4052
710.5463, 735.8432
711.0284, 733.4077
711.5105, 730.1272
711.9926, 726.0612
712.4747, 726.4993
712.9568, 733.3271
713.4390, 740.2696
713.9211, 744.6667
714.4032, 746.0753
714.8853, 742.6472
715.3674, 730.8857
715.8495, 723.0207
716.3317, 721.2385
716.8138, 721.8959
717.2959, 724.8312
717.7780, 728.2971
718.2601, 729.4537
718.7422, 727.5628
719.2244, 725.7870
719.7065, 729.0978
720.1886, 733.1254
720.6707, 727.1883
721.1528, 713.3930
721.6349, 706.4555
722.1171, 712.0616
722.5992, 720.7405
723.0813, 720.3749
723.5634, 710.8893
724.0455, 704.4399
724.5276, 702.7454
725.0098, 700.9741
725.4919, 696.2458
725.9740, 692.4269
726.4561, 693.8396
726.9382, 699.3876
727.4203, 702.3495
727.9025, 699.2193
728.3846, 695.0176
728.8667, 688.4443
729.3488, 684.4744
729.8309, 694.4602
730.3130, 714.9883
730.7952, 726.6345
731.2773, 715.8002
731.7594, 695.1100
732.2415, 688.9501
732.7236, 696.5079
733.2057, 699.7307
733.6878, 695.5138
734.1699, 692.2023
734.6520, 695.5154
735.1342, 702.6042
735.6163, 706.4204
736.0984, 706.9449
736.5805, 703.9515
737.0626, 690.9685
737.5447, 681.6731
738.0269, 685.5042
738.5090, 694.8316
738.9911, 699.8430
739.4732, 698.3445
739.9553, 692.2745
740.4374, 677.8947
740.9196, 663.2572
741.4017, 658.5887
741.8838, 661.7991
742.3659, 667.0510
742.8480, 672.4868
743.3301, 677.9494
743.8123, 683.8633
744.2944, 689.3856
744.7765, 688.7058
745.2586, 679.9640
745.7407, 672.1823
746.2228, 665.0392
746.7050, 662.3996
747.1871, 670.3123
747.6692, 686.0410
748.1513, 697.1418
748.6334, 702.4085
749.1155, 704.2117
749.5977, 700.8423
750.0798, 696.0454
750.5619, 692.9774
751.0440, 690.7358
751.5261, 685.9324
752.0082, 676.8509
752.4904, 669.1227
752.9725, 670.8757
753.4546, 677.0834
753.9367, 676.5380
754.4188, 669.4297
754.9009, 661.2462
755.3831, 654.0475
755.8652, 649.0463
756.3473, 648.4663
756.8294, 652.4757
757.3115, 654.5335
757.7936, 654.1863
758.2758, 652.6363
758.7579, 647.0138
759.2400, 643.1230
759.7221, 648.2326
760.2042, 660.8661
760.6863, 669.7916
761.1685, 672.0552
761.6506, 671.8884
762.1327, 668.9930
762.6148, 665.6727
763.0969, 664.0495
763.5790, 664.1179
764.0612, 665.0656
764.5433, 666.6430
765.0254, 668.1311
765.5075, 670.0305
765.9896, 670.9877
766.4717, 665.0692
766.9539, 652.3674
767.4360, 642.9470
767.9181, 641.9010
768.4002, 645.5409
768.8823, 647.9582
769.3644, 649.0931
769.8466, 649.3669
770.3287, 646.7731
770.8108, 647.0025
771.2929, 655.5837
771.7750, 664.9784
772.2571, 667.5820
772.7393, 663.7058
773.2214, 659.3101
773.7035, 654.2759
774.1856, 650.4194
774.6677, 650.0809
775.1498, 650.1721
775.6320, 646.5464
776.1141, 640.1414
776.5962, 635.7393
777.0783, 636.3810
777.5604, 637.8599
778.0425, 632.5149
778.5247, 624.3065
779.0068, 625.6131
779.4889, 636.8184
779.9710, 648.8397
780.4531, 657.7601
780.9352, 661.8665
781.4174, 657.0016
781.8995, 641.8846
782.3816, 632.4142
782.8637, 631.5310
783.3458, 629.9756
783.8279, 622.7127
784.3101, 615.4119
784.7922, 613.7827
785.2743, 617.5934
785.7564, 624.5667
786.2385, 641.2754
786.7206, 652.2574
787.2028, 649.8603
787.6849, 642.1126
788.1670, 634.1965
788.6491, 627.5673
789.1312, 623.3062
789.6133, 622.1392
790.0955, 622.5477
790.5776, 625.4242
791.0597, 627.8873
791.5418, 623.1787
792.0239, 612.2778
792.5060, 600.8997
792.9882, 591.3893
793.4703, 587.5511
793.9524, 596.9712
794.4345, 618.3109
794.9166, 627.5533
795.3987, 621.9095
795.8809, 615.7963
796.3630, 612.2974
796.8451, 610.9968
797.3272, 612.2043
797.8093, 615.6018
798.2914, 617.5912
798.7736, 617.3625
799.2557, 617.0076
799.7378, 617.1617
800.2199, 616.8266
800.7020, 615.2948
801.1841, 612.8184
801.6663, 609.4130
802.1484, 604.6719
802.6305, 602.0876
803.1126, 605.4683
803.5947, 610.6651
804.0768, 614.8817
804.5590, 617.0458
805.0411, 614.5606
805.5232, 607.1354
806.0053, 598.7412
806.4874, 592.5917
806.9695, 588.6035
807.4517, 586.4897
807.9338, 586.2599
808.4159, 589.0223
808.8980, 595.6192
809.3801, 600.1252
809.8622, 596.9895
810.3444, 589.8855
810.8265, 591.5729
811.3086, 610.7656
811.7907, 615.9848
812.2728, 595.6885
812.7549, 576.6471
813.2371, 569.2781
813.7192, 569.5648
814.2013, 575.5038
814.6834, 587.6952
815.1655, 591.9272
815.6476, 574.4551
816.1298, 561.2139
816.6119, 569.5112
817.0940, 584.3151
817.5761, 588.6693
818.0582, 582.5230
818.5403, 575.6077
819.0225, 572.0299
819.5046, 572.1722
819.9867, 580.4599
820.4688, 591.1109
820.9509, 592.5256
821.4330, 585.1005
821.9152, 575.6760
822.3973, 567.3705
822.8794, 560.6281
823.3615, 555.0623
823.8436, 551.2975
824.3257, 557.8647
824.8079, 576.7511
825.2900, 589.4893
825.7721, 589.4210
826.2542, 585.8030
826.7363, 588.2261
827.2184, 595.1395
827.7006, 594.4241
828.1827, 576.1714
828.6648, 567.4778
829.1469, 579.0971
829.6290, 590.5873
830.1111, 591.1876
830.5933, 585.7367
831.0754, 582.6973
831.5575, 583.5746
832.0396, 583.8333
832.5217, 580.4186
833.0038, 577.8057
833.4859, 579.8752
833.9680, 583.6935
834.4501, 585.6564
834.9323, 585.1442
835.4144, 582.9550
835.8965, 578.5927
836.3786, 574.7350
836.8607, 574.8856
837.3428, 577.6603
837.8250, 581.0623
838.3071, 584.3944
838.7892, 585.7230
839.2713, 584.0629
839.7534, 580.4614
840.2355, 575.2541
840.7177, 568.9555
841.1998, 568.7487
841.6819, 575.4808
842.1640, 579.1072
842.6461, 575.8848
843.1282, 570.8678
843.6104, 568.5336
844.0925, 568.8454
844.5746, 571.6974
845.0567, 578.9326
845.5388, 584.9450
846.0209, 590.4528
846.5031, 593.2844
846.9852, 590.7813
847.4673, 585.6439
847.9494, 582.5338
848.4315, 582.3887
848.9136, 580.3743
849.3958, 571.8438
849.8779, 565.6268
850.3600, 567.7874
850.8421, 572.9493
851.3242, 574.5234
851.8063, 572.8247
852.2885, 573.7232
852.7706, 582.2477
853.2527, 588.9598
853.7348, 582.6592
854.2169, 572.1174
854.6990, 570.2272
855.1812, 575.2826
855.6633, 577.6291
856.1454, 573.6672
856.6275, 569.8914
857.1096, 575.8802
857.5917, 586.7141
858.0739, 586.5551
858.5560, 576.9929
859.0381, 571.3567
859.5202, 572.8116
860.0023, 575.9133
860.4844, 576.5688
860.9666, 575.4946
861.4487, 574.2826
861.9308, 572.3704
862.4129, 574.3382
862.8950, 582.1965
863.3771, 589.1782
863.8593, 593.4022
864.3414, 593.9289
864.8235, 587.6534
865.3056, 573.4805
865.7877, 567.4395
866.2698, 575.9001
866.7520, 583.7324
867.2341, 589.4713
867.7162, 593.7169
868.1983, 597.7559
868.6804, 600.5155
869.1625, 598.8846
869.6447, 590.8495
870.1268, 583.6287
870.6089, 578.4630
871.0910, 575.8225
871.5731, 577.9098
872.0552, 581.7096
872.5374, 582.9194
873.0195, 581.1783
873.5016, 579.6564
873.9837, 579.9081
874.4658, 581.3999
874.9479, 583.0163
875.4301, 585.8843
875.9122, 593.8516
876.3943, 604.9400
876.8764, 612.0959
877.3585, 612.1670
877.8406, 607.3894
878.3228, 598.5560
878.8049, 587.3853
879.2870, 576.6650
879.7691, 567.4046
880.2512, 568.4148
880.7333, 581.7493
881.2155, 594.7599
881.6976, 597.2098
882.1797, 593.3892
882.6618, 595.9294
883.1439, 605.7225
883.6260, 608.6664
884.1082, 602.4700
884.5903, 596.2812
885.0724, 593.9189
885.5545, 593.4465
886.0366, 592.2352
886.5187, 590.2827
887.0009, 589.9807
887.4830, 591.6036
887.9651, 594.4247
888.4472, 600.2306
888.9293, 605.0535
889.4114, 605.5624
889.8936, 603.5328
890.3757, 602.6937
890.8578, 603.7006
891.3399, 603.9106
891.8220, 601.3710
892.3041, 600.0557
892.7863, 603.3643
893.2684, 607.2322
893.7505, 605.9565
894.2326, 600.9427
894.7147, 600.3425
895.1968, 608.0965
895.6790, 617.7682
896.1611, 632.2971
896.6432, 642.1807
897.1253, 634.4903
897.6074, 617.4467
898.0895, 605.8982
898.5717, 603.7459
899.0538, 607.0767
899.5359, 616.1171
900.0180, 626.2682
900.5001, 634.2319
900.9822, 639.1544
901.4644, 638.5754
901.9465, 633.1523
902.4286, 625.1709
902.9107, 615.5313
903.3928, 609.3904
903.8749, 616.7797
904.3571, 631.3643
904.8392, 635.9178
905.3213, 631.7614
905.8034, 625.8875
906.2855, 620.3565
906.7676, 620.7748
907.2498, 632.8074
907.7319, 649.8631
908.2140, 654.9421
908.6961, 648.4590
909.1782, 647.4495
909.6603, 653.9618
910.1425, 653.4161
910.6246, 637.9964
911.1067, 621.2239
911.5888, 620.3746
912.0709, 633.4925
912.5530, 640.8464
913.0352, 640.4843
913.5173, 641.7231
913.9994, 647.0287
914.4815, 651.2191
914.9636, 650.9733
915.4457, 647.9819
915.9279, 645.0322
916.4100, 641.6452
916.8921, 641.1198
917.3742, 645.1108
917.8563, 649.4493
918.3384, 656.0466
918.8206, 660.2006
919.3027, 656.0111
919.7848, 646.8049
920.2669, 642.7709
920.7490, 646.7253
921.2311, 649.9650
921.7133, 650.9166
922.1954, 651.6500
922.6775, 652.3779
923.1596, 653.7670
923.6417, 657.5354
924.1238, 662.9678
924.6060, 665.7391
925.0881, 664.0383
925.5702, 660.5855
926.0523, 652.1353
926.5344, 646.4238
927.0165, 653.3076
927.4987, 665.2932
927.9808, 667.8635
928.4629, 659.0385
928.9450, 653.4819
929.4271, 663.0928
929.9092, 673.9830
930.3914, 674.9427
930.8734, 672.5123
931.3555, 674.8610
931.8376, 680.9816
932.3198, 685.9444
932.8019, 687.9259
933.2840, 687.7853
933.7661, 683.5144
934.2482, 679.7569
934.7303, 683.8380
935.2125, 692.2415
935.6946, 699.1537
936.1767, 702.9458
936.6588, 701.2022
937.1409, 692.0498
937.6230, 682.8784
938.1052, 684.0410
938.5873, 691.4727
939.0694, 696.9930
939.5515, 700.5523
940.0336, 702.8146
940.5157, 704.1368
940.9979, 706.5854
941.4800, 712.4500
941.9621, 717.5347
942.4442, 710.8472
942.9263, 695.9146
943.4084, 691.0192
943.8906, 696.4691
944.3727, 702.5729
944.8548, 706.0287
945.3369, 706.4016
945.8190, 702.4151
946.3011, 696.4381
946.7833, 696.4595
947.2654, 702.4013
947.7475, 712.3235
948.2296, 726.9466
948.7117, 732.0715
949.1938, 719.7205
949.6760, 702.3075
950.1581, 695.8124
950.6402, 699.4103
951.1223, 707.4331
951.6044, 721.4198
952.0865, 729.2458
952.5687, 728.5274
953.0508, 723.2274
953.5329, 713.9715
954.0150, 704.4337
954.4971, 700.8499
954.9792, 703.3361
955.4614, 710.1364
955.9435, 723.5591
956.4256, 734.5618
956.9077, 742.3640
957.3898, 745.0555
957.8719, 737.9789
958.3541, 727.7069
958.8362, 730.9294
959.3183, 752.8417
959.8004, 762.2801
960.2825, 750.4310
960.7646, 743.5039
961.2468, 752.1704
961.7289, 761.9923
962.2110, 759.3503
962.6931, 749.1538
963.1752, 748.4979
963.6573, 764.3022
964.1395, 771.4877
964.6216, 761.3651
965.1037, 754.6069
965.5858, 757.3301
966.0679, 765.5435
966.5500, 778.3698
967.0322, 794.0878
967.5143, 804.8319
967.9964, 808.8854
968.4785, 810.9299
968.9606, 806.1307
969.4427, 805.4630
969.9249, 818.8982
970.4070, 834.0728
970.8891, 836.3790
971.3712, 827.6047
971.8533, 823.5684
972.3354, 828.1987
972.8176, 833.7706
973.2997, 839.5982
973.7818, 845.7911
974.2639, 850.1308
974.7460, 856.2913
975.2281, 870.5425
975.7103, 892.1567
976.1924, 910.3776
976.6745, 919.3409
977.1566, 930.2475
977.6387, 948.3653
978.1208, 965.9974
978.6030, 977.4164
979.0851, 986.0095
979.5672, 997.8037
980.0493, 1012.953
980.5314, 1023.972
981.0135, 1019.486
981.4957, 1023.677
981.9778, 1052.949
982.4599, 1084.202
982.9420, 1098.171
983.4241, 1104.814
983.9063, 1121.351
984.3884, 1150.101
984.8705, 1181.145
985.3526, 1219.505
985.8347, 1248.622
986.3168, 1252.815
986.7990, 1254.011
987.2811, 1267.390
987.7632, 1291.006
988.2453, 1321.733
988.7274, 1358.684
989.2095, 1389.313
989.6917, 1400.889
990.1738, 1415.513
990.6559, 1445.433
991.1380, 1480.411
991.6201, 1509.530
992.1022, 1537.613
992.5844, 1576.749
993.0665, 1629.414
993.5486, 1681.394
994.0307, 1727.425
994.5128, 1770.190
994.9949, 1805.111
995.4771, 1842.164
995.9592, 1891.959
996.4413, 1950.757
996.9234, 2007.519
997.4055, 2059.663
997.8876, 2124.137
998.3698, 2216.972
998.8519, 2313.393
999.3340, 2405.195
999.8161, 2490.928
1000.298, 2558.458
1000.780, 2622.314
1001.262, 2716.242
1001.745, 2849.214
1002.227, 2978.927
1002.709, 3084.756
1003.191, 3184.404
1003.673, 3276.277
1004.155, 3375.553
1004.637, 3497.377
1005.119, 3637.101
1005.602, 3785.565
1006.084, 3941.280
1006.566, 4082.833
1007.048, 4180.938
1007.530, 4286.969
1008.012, 4432.690
1008.494, 4595.142
1008.976, 4762.432
1009.458, 4927.123
1009.941, 5083.870
1010.423, 5231.790
1010.905, 5354.927
1011.387, 5435.533
1011.869, 5504.524
1012.351, 5587.153
1012.833, 5657.544
1013.315, 5689.982
1013.797, 5692.034
1014.280, 5677.996
1014.762, 5650.530
1015.244, 5631.499
1015.726, 5644.595
1016.208, 5648.156
1016.690, 5600.153
1017.172, 5555.205
1017.654, 5564.766
1018.137, 5611.631
1018.619, 5658.577
1019.101, 5698.562
1019.583, 5737.099
1020.065, 5767.131
1020.547, 5807.923
1021.029, 5875.873
1021.511, 5949.473
1021.993, 6008.271
1022.476, 6061.710
1022.958, 6137.435
1023.440, 6239.818
1023.922, 6305.485
1024.404, 6320.896
1024.886, 6292.125
1025.368, 6205.897
1025.850, 6091.757
1026.333, 5968.646
1026.815, 5831.835
1027.297, 5671.305
1027.779, 5484.908
1028.261, 5282.182
1028.743, 5049.067
1029.225, 4822.804
1029.707, 4622.968
1030.189, 4420.606
1030.672, 4191.828
1031.154, 3954.479
1031.636, 3729.295
1032.118, 3518.959
1032.600, 3336.165
1033.082, 3196.713
1033.564, 3065.967
1034.046, 2940.301
1034.528, 2821.334
1035.011, 2703.524
1035.493, 2595.753
1035.975, 2508.757
1036.457, 2442.399
1036.939, 2386.326
1037.421, 2348.326
1037.903, 2306.793
1038.385, 2251.711
1038.868, 2204.463
1039.350, 2181.500
1039.832, 2163.001
1040.314, 2124.583
1040.796, 2070.457
1041.278, 2029.998
1041.760, 2008.370
1042.242, 1990.509
1042.724, 1983.060
1043.207, 1967.742
1043.689, 1933.328
1044.171, 1895.637
1044.653, 1872.055
1045.135, 1856.862
1045.617, 1825.966
1046.099, 1771.309
1046.581, 1728.213
1047.063, 1702.814
1047.546, 1672.373
1048.028, 1627.753
1048.510, 1581.946
1048.992, 1544.366
1049.474, 1514.428
1049.956, 1491.797
1050.438, 1477.524
1050.920, 1462.110
1051.403, 1445.425
1051.885, 1428.162
1052.367, 1410.178
1052.849, 1392.783
1053.331, 1376.391
1053.813, 1362.232
1054.295, 1353.786
1054.777, 1350.599
1055.260, 1341.982
1055.742, 1327.866
1056.224, 1306.569
1056.706, 1276.862
1057.188, 1254.868
1057.670, 1250.188
1058.152, 1253.820
1058.634, 1254.547
1059.116, 1251.850
1059.599, 1241.110
1060.081, 1223.867
1060.563, 1212.717
1061.045, 1209.054
1061.527, 1210.003
1062.009, 1214.305
1062.491, 1218.377
1062.973, 1217.200
1063.455, 1215.045
1063.938, 1224.998
1064.420, 1241.199
1064.902, 1243.455
1065.384, 1233.513
1065.866, 1226.829
1066.348, 1228.208
1066.830, 1232.097
1067.312, 1234.739
1067.795, 1236.083
1068.277, 1232.904
1068.759, 1230.269
1069.241, 1239.374
1069.723, 1255.686
1070.205, 1266.446
1070.687, 1270.325
1071.169, 1277.494
1071.651, 1294.658
1072.134, 1311.480
1072.616, 1315.014
1073.098, 1317.899
1073.580, 1336.739
1074.062, 1361.704
1074.544, 1378.067
1075.026, 1385.349
1075.508, 1387.526
1075.990, 1384.199
1076.473, 1391.253
1076.955, 1428.557
1077.437, 1464.886
1077.919, 1478.048
1078.401, 1483.746
1078.883, 1497.117
1079.365, 1515.903
1079.847, 1531.422
1080.329, 1541.801
1080.812, 1555.635
1081.294, 1576.180
1081.776, 1599.095
1082.258, 1624.743
1082.740, 1650.996
1083.222, 1676.020
1083.704, 1701.045
1084.186, 1727.744
1084.669, 1756.226
1085.151, 1785.934
1085.633, 1816.552
1086.115, 1848.885
1086.597, 1880.461
1087.079, 1917.912
1087.561, 1966.801
1088.043, 2018.745
1088.526, 2067.873
1089.008, 2112.483
1089.490, 2143.905
1089.972, 2153.802
1090.454, 2186.259
1090.936, 2247.867
1091.418, 2307.576
1091.900, 2356.456
1092.382, 2404.982
1092.865, 2461.812
1093.347, 2519.371
1093.829, 2562.623
1094.311, 2592.865
1094.793, 2626.475
1095.275, 2663.512
1095.757, 2715.308
1096.239, 2783.240
1096.721, 2835.333
1097.204, 2855.698
1097.686, 2867.624
1098.168, 2895.866
1098.650, 2937.533
1099.132, 2995.083
1099.614, 3058.113
1100.096, 3085.505
1100.578, 3085.699
1101.061, 3109.798
1101.543, 3169.277
1102.025, 3223.965
1102.507, 3245.320
1102.989, 3251.008
1103.471, 3253.103
1103.953, 3257.438
1104.435, 3274.854
1104.917, 3298.677
1105.400, 3316.145
1105.882, 3327.277
1106.364, 3344.227
1106.846, 3374.885
1107.328, 3387.506
1107.810, 3348.303
1108.292, 3304.970
1108.774, 3294.779
1109.256, 3287.745
1109.739, 3248.561
1110.221, 3191.591
1110.703, 3151.583
1111.185, 3134.099
1111.667, 3114.104
1112.149, 3096.354
1112.631, 3061.176
1113.113, 2995.842
1113.596, 2922.955
1114.078, 2846.578
1114.560, 2773.280
1115.042, 2708.396
1115.524, 2652.150
1116.006, 2608.077
1116.488, 2586.470
1116.970, 2545.218
1117.453, 2475.174
1117.935, 2411.005
1118.417, 2363.689
1118.899, 2318.382
1119.381, 2263.198
1119.863, 2206.079
1120.345, 2164.299
1120.827, 2135.877
1121.309, 2097.477
1121.792, 2049.558
1122.274, 1993.796
1122.756, 1931.475
1123.238, 1885.104
1123.720, 1864.288
1124.202, 1846.512
1124.684, 1808.910
1125.166, 1759.977
1125.648, 1710.330
1126.131, 1663.978
1126.613, 1633.576
1127.095, 1614.263
1127.577, 1591.630
1128.059, 1562.891
1128.541, 1533.314
1129.023, 1505.424
1129.505, 1479.231
1129.988, 1455.301
1130.470, 1432.287
1130.952, 1408.047
1131.434, 1384.619
1131.916, 1364.487
1132.398, 1347.281
1132.880, 1332.760
1133.362, 1320.896
1133.844, 1305.667
1134.327, 1279.148
1134.809, 1257.997
1135.291, 1249.118
1135.773, 1243.629
1136.255, 1236.982
1136.737, 1231.022
1137.219, 1229.306
1137.701, 1230.496
1138.183, 1227.246
1138.666, 1218.875
1139.148, 1206.912
1139.630, 1186.824
1140.112, 1179.172
1140.594, 1192.979
1141.076, 1206.229
1141.558, 1204.160
1142.040, 1193.171
1142.523, 1182.068
1143.005, 1172.229
1143.487, 1174.035
1143.969, 1185.955
1144.451, 1196.865
1144.933, 1204.755
1145.415, 1203.111
1145.897, 1190.563
1146.380, 1182.447
1146.862, 1192.636
1147.344, 1208.261
1147.826, 1211.444
1148.308, 1209.853
1148.790, 1215.965
1149.272, 1225.448
1149.754, 1228.333
1150.236, 1225.478
1150.719, 1224.866
1151.201, 1229.195
1151.683, 1236.830
1152.165, 1251.803
1152.647, 1263.527
1153.129, 1262.887
1153.611, 1261.318
1154.093, 1270.038
1154.575, 1282.002
1155.058, 1283.420
1155.540, 1275.002
1156.022, 1277.242
1156.504, 1300.969
1156.986, 1312.850
1157.468, 1304.407
1157.950, 1302.908
1158.432, 1319.777
1158.915, 1335.599
1159.397, 1335.441
1159.879, 1327.290
1160.361, 1325.382
1160.843, 1329.299
1161.325, 1336.606
1161.807, 1346.902
1162.289, 1352.048
1162.771, 1351.798
1163.254, 1354.836
1163.736, 1364.022
1164.218, 1372.469
1164.700, 1373.952
1165.182, 1374.082
1165.664, 1381.609
1166.146, 1391.668
1166.628, 1398.149
1167.110, 1401.092
1167.593, 1399.398
1168.075, 1395.027
1168.557, 1393.730
1169.039, 1397.389
1169.521, 1401.333
1170.003, 1402.955
1170.485, 1405.120
1170.967, 1409.574
1171.450, 1414.258
1171.932, 1418.416
1172.414, 1421.621
1172.896, 1423.225
1173.378, 1423.400
1173.860, 1422.803
1174.342, 1420.177
1174.824, 1421.833
1175.307, 1430.575
1175.789, 1433.286
1176.271, 1424.226
1176.753, 1422.581
1177.235, 1440.774
1177.717, 1464.515
1178.199, 1475.260
1178.681, 1475.323
1179.163, 1467.751
1179.646, 1456.379
1180.128, 1459.818
1180.610, 1475.380
1181.092, 1487.435
1181.574, 1492.112
1182.056, 1492.344
1182.538, 1488.958
1183.020, 1488.364
1183.502, 1496.004
1183.984, 1508.844
1184.467, 1527.764
1184.949, 1547.529
1185.431, 1566.096
1185.913, 1579.765
1186.395, 1578.865
1186.877, 1564.203
1187.359, 1559.757
1187.841, 1575.296
1188.324, 1591.397
1188.806, 1611.893
1189.288, 1623.969
1189.770, 1617.284
1190.252, 1613.230
1190.734, 1628.255
1191.216, 1653.197
1191.698, 1672.093
1192.181, 1685.140
1192.663, 1692.508
1193.145, 1694.637
1193.627, 1704.690
1194.109, 1722.616
1194.591, 1733.207
1195.073, 1732.421
1195.555, 1731.109
1196.037, 1736.711
1196.520, 1744.848
1197.002, 1748.947
1197.484, 1754.158
1197.966, 1770.933
1198.448, 1789.920
1198.930, 1797.404
1199.412, 1796.292
1199.894, 1794.209
1200.376, 1793.353
1200.859, 1799.474
1201.341, 1824.691
1201.823, 1838.134
1202.305, 1823.301
1202.787, 1810.235
1203.269, 1809.979
1203.751, 1813.812
1204.233, 1816.489
1204.716, 1818.035
1205.198, 1818.630
1205.680, 1818.182
1206.162, 1814.478
1206.644, 1807.457
1207.126, 1805.571
1207.608, 1809.111
1208.090, 1808.875
1208.573, 1802.115
1209.055, 1791.919
1209.537, 1780.290
1210.019, 1767.506
1210.501, 1753.264
1210.983, 1738.876
1211.465, 1726.290
1211.947, 1714.282
1212.429, 1701.375
1212.911, 1687.614
1213.394, 1675.095
1213.876, 1663.225
1214.358, 1642.920
1214.840, 1601.000
1215.322, 1573.344
1215.804, 1579.720
1216.286, 1581.466
1216.768, 1568.091
1217.251, 1547.046
1217.733, 1520.270
1218.215, 1493.313
1218.697, 1476.310
1219.179, 1466.229
1219.661, 1442.846
1220.143, 1407.273
1220.625, 1381.022
1221.108, 1363.966
1221.590, 1343.331
1222.072, 1316.768
1222.554, 1292.966
1223.036, 1276.732
1223.518, 1260.264
1224.000, 1234.483
1224.482, 1206.858
1224.964, 1183.731
1225.447, 1163.025
1225.929, 1141.832
1226.411, 1122.154
1226.893, 1110.001
1227.375, 1103.085
1227.857, 1087.087
1228.339, 1055.309
1228.821, 1029.476
1229.303, 1009.269
1229.786, 997.8147
1230.268, 1000.692
1230.750, 997.3036
1231.232, 975.7543
1231.714, 952.5165
1232.196, 945.8955
1232.678, 947.7827
1233.160, 937.2464
1233.643, 918.7714
1234.125, 911.1564
1234.607, 909.4929
1235.089, 894.1086
1235.571, 867.7576
1236.053, 852.4302
1236.535, 854.4201
1237.017, 856.5674
1237.500, 849.3347
1237.982, 839.7591
1238.464, 832.5930
1238.946, 822.7234
1239.428, 802.7470
1239.910, 782.7376
1240.392, 772.4427
1240.874, 768.9873
1241.356, 768.0569
1241.839, 769.4492
1242.321, 766.9279
1242.803, 760.5286
1243.285, 748.1558
1243.767, 729.3380
1244.249, 718.2578
1244.731, 718.4615
1245.213, 715.4578
1245.695, 700.1136
1246.178, 685.3626
##END=



