##NAMES=Parapierrotite
##RRUFFID=R060397
##IDEAL CHEMISTRY=TlSb_5_S_8_
##LOCALITY=Lookout Pass Area, southeast Tooele County, Utah, USA
##OWNER=RRUFF
##SOURCE=Michael Scott
##DESCRIPTION=Black semimetallic fragment
##STATUS=The identification of this mineral has been confirmed by single-crystal X-ray diffraction.
##URL=rruff.info/R060397
128.6927, 10893.67
129.1748, 10721.84
129.6569, 10560.42
130.1390, 10415.39
130.6211, 10288.69
131.1032, 10167.40
131.5854, 10047.29
132.0675, 9928.327
132.5496, 9810.604
133.0317, 9692.964
133.5138, 9577.938
133.9959, 9470.542
134.4781, 9372.264
134.9602, 9279.600
135.4423, 9188.136
135.9244, 9101.059
136.4065, 9022.280
136.8886, 8953.229
137.3708, 8893.988
137.8529, 8851.731
138.3350, 8837.454
138.8171, 8830.165
139.2992, 8826.075
139.7813, 8825.188
140.2635, 8829.234
140.7456, 8840.012
141.2277, 8858.418
141.7098, 8876.870
142.1919, 8895.291
142.6740, 8913.777
143.1561, 8932.096
143.6383, 8950.329
144.1204, 8969.363
144.6025, 8990.693
145.0846, 9014.951
145.5667, 9036.031
146.0488, 9052.308
146.5310, 9065.913
147.0131, 9079.806
147.4952, 9095.013
147.9773, 9107.956
148.4594, 9114.841
148.9415, 9116.564
149.4237, 9112.439
149.9058, 9101.377
150.3879, 9084.174
150.8700, 9063.187
151.3521, 9038.364
151.8342, 9009.427
152.3164, 8977.095
152.7985, 8941.479
153.2806, 8902.188
153.7627, 8859.076
154.2448, 8812.033
154.7269, 8761.540
155.2091, 8705.642
155.6912, 8647.563
156.1733, 8589.970
156.6554, 8532.419
157.1375, 8471.963
157.6196, 8404.325
158.1018, 8327.219
158.5839, 8249.186
159.0660, 8171.301
159.5481, 8092.251
160.0302, 8009.783
160.5123, 7923.953
160.9945, 7838.478
161.4766, 7760.846
161.9587, 7696.244
162.4408, 7631.463
162.9229, 7565.830
163.4050, 7500.399
163.8871, 7436.141
164.3693, 7373.239
164.8514, 7312.400
165.3335, 7255.539
165.8156, 7206.937
166.2977, 7156.676
166.7798, 7102.063
167.2620, 7045.252
167.7441, 6989.956
168.2262, 6938.064
168.7083, 6888.042
169.1904, 6836.017
169.6725, 6781.050
170.1547, 6726.388
170.6368, 6673.200
171.1189, 6621.440
171.6010, 6570.545
172.0831, 6518.794
172.5652, 6469.570
173.0474, 6426.445
173.5295, 6388.720
174.0116, 6358.417
174.4937, 6336.834
174.9758, 6323.900
175.4579, 6320.128
175.9401, 6328.326
176.4222, 6345.600
176.9043, 6368.955
177.3864, 6398.123
177.8685, 6433.042
178.3506, 6473.437
178.8328, 6518.859
179.3149, 6572.261
179.7970, 6638.358
180.2791, 6710.874
180.7612, 6783.746
181.2433, 6854.619
181.7255, 6927.086
182.2076, 7009.218
182.6897, 7103.221
183.1718, 7204.110
183.6539, 7310.677
184.1360, 7422.077
184.6181, 7536.636
185.1003, 7653.561
185.5824, 7773.817
186.0645, 7899.534
186.5466, 8032.477
187.0287, 8170.461
187.5108, 8312.737
187.9930, 8458.900
188.4751, 8608.298
188.9572, 8759.754
189.4393, 8913.981
189.9214, 9073.804
190.4035, 9238.505
190.8857, 9409.143
191.3678, 9585.290
191.8499, 9766.906
192.3320, 9955.252
192.8141, 10151.60
193.2962, 10354.95
193.7784, 10560.84
194.2605, 10763.92
194.7426, 10973.97
195.2247, 11195.63
195.7068, 11427.54
196.1889, 11667.62
196.6711, 11916.06
197.1532, 12171.27
197.6353, 12423.97
198.1174, 12668.60
198.5995, 12916.88
199.0816, 13175.64
199.5638, 13445.11
200.0459, 13722.71
200.5280, 14009.64
201.0101, 14306.04
201.4922, 14602.32
201.9743, 14897.38
202.4565, 15194.90
202.9386, 15498.16
203.4207, 15807.85
203.9028, 16121.65
204.3849, 16437.22
204.8670, 16756.32
205.3492, 17079.34
205.8313, 17408.72
206.3134, 17739.13
206.7955, 18059.85
207.2776, 18368.25
207.7597, 18679.27
208.2419, 19006.91
208.7240, 19338.63
209.2061, 19659.15
209.6882, 19961.31
210.1703, 20255.20
210.6524, 20560.60
211.1346, 20882.68
211.6167, 21197.58
212.0988, 21495.13
212.5809, 21782.39
213.0630, 22067.82
213.5451, 22353.22
214.0273, 22637.58
214.5094, 22918.00
214.9915, 23197.16
215.4736, 23466.60
215.9557, 23727.90
216.4378, 23979.90
216.9200, 24222.88
217.4021, 24455.48
217.8842, 24680.20
218.3663, 24900.82
218.8484, 25117.72
219.3305, 25328.76
219.8127, 25540.18
220.2948, 25744.53
220.7769, 25934.46
221.2590, 26106.66
221.7411, 26263.23
222.2232, 26410.30
222.7054, 26547.76
223.1875, 26673.75
223.6696, 26793.67
224.1517, 26900.57
224.6338, 26986.23
225.1159, 27047.38
225.5980, 27085.65
226.0802, 27104.88
226.5623, 27105.27
227.0444, 27084.85
227.5265, 27040.57
228.0086, 26975.99
228.4907, 26896.23
228.9729, 26803.71
229.4550, 26696.38
229.9371, 26568.26
230.4192, 26412.17
230.9013, 26248.39
231.3834, 26079.66
231.8656, 25905.44
232.3477, 25723.17
232.8298, 25530.88
233.3119, 25334.42
233.7940, 25145.63
234.2761, 24967.50
234.7583, 24788.33
235.2404, 24602.11
235.7225, 24413.62
236.2046, 24229.12
236.6867, 24048.85
237.1688, 23875.20
237.6510, 23713.46
238.1331, 23567.15
238.6152, 23414.06
239.0973, 23242.42
239.5794, 23058.71
240.0615, 22878.21
240.5437, 22704.49
241.0258, 22533.97
241.5079, 22365.07
241.9900, 22198.44
242.4721, 22020.73
242.9542, 21823.91
243.4364, 21612.30
243.9185, 21396.21
244.4006, 21177.05
244.8827, 20955.27
245.3648, 20734.46
245.8469, 20514.19
246.3290, 20287.57
246.8112, 20050.72
247.2933, 19805.87
247.7754, 19552.93
248.2575, 19289.28
248.7396, 19022.72
249.2217, 18759.53
249.7039, 18498.97
250.1860, 18240.32
250.6681, 17982.05
251.1502, 17725.72
251.6323, 17473.17
252.1144, 17228.41
252.5966, 16983.26
253.0787, 16731.71
253.5608, 16476.76
254.0429, 16221.62
254.5250, 15968.89
255.0071, 15718.83
255.4893, 15469.43
255.9714, 15220.81
256.4535, 14974.44
256.9356, 14727.32
257.4177, 14483.20
257.8998, 14246.38
258.3820, 14020.30
258.8641, 13803.99
259.3462, 13593.33
259.8283, 13383.70
260.3104, 13189.33
260.7925, 13009.41
261.2747, 12844.27
261.7568, 12694.73
262.2389, 12560.17
262.7210, 12441.39
263.2031, 12339.18
263.6852, 12255.02
264.1674, 12187.49
264.6495, 12133.22
265.1316, 12093.35
265.6137, 12069.94
266.0958, 12063.97
266.5779, 12073.59
267.0601, 12094.41
267.5422, 12124.59
268.0243, 12171.64
268.5064, 12239.88
268.9885, 12320.37
269.4706, 12404.28
269.9528, 12488.63
270.4349, 12578.03
270.9170, 12681.97
271.3991, 12804.54
271.8812, 12933.75
272.3633, 13072.40
272.8455, 13213.49
273.3276, 13353.31
273.8097, 13490.46
274.2918, 13621.93
274.7739, 13743.08
275.2560, 13852.43
275.7382, 13953.36
276.2202, 14045.93
276.7024, 14132.24
277.1845, 14210.59
277.6666, 14282.75
278.1487, 14355.48
278.6308, 14437.44
279.1129, 14531.22
279.5951, 14624.93
280.0772, 14705.19
280.5593, 14796.54
281.0414, 14915.03
281.5235, 15058.61
282.0056, 15212.74
282.4878, 15362.23
282.9699, 15504.76
283.4520, 15667.58
283.9341, 15853.18
284.4162, 16053.80
284.8983, 16268.29
285.3805, 16495.64
285.8626, 16735.08
286.3447, 16987.21
286.8268, 17250.98
287.3089, 17518.33
287.7910, 17788.58
288.2732, 18062.15
288.7553, 18341.36
289.2374, 18622.88
289.7195, 18901.65
290.2016, 19176.64
290.6837, 19442.27
291.1659, 19672.47
291.6480, 19875.37
292.1301, 20031.97
292.6122, 20147.44
293.0943, 20212.01
293.5764, 20210.87
294.0586, 20136.76
294.5407, 19997.58
295.0228, 19813.72
295.5049, 19543.66
295.9870, 19276.66
296.4691, 18995.51
296.9513, 18727.72
297.4334, 18496.65
297.9155, 18311.71
298.3976, 18176.03
298.8797, 18095.76
299.3618, 18081.37
299.8440, 18117.50
300.3261, 18202.31
300.8082, 18336.60
301.2903, 18527.22
301.7724, 18772.91
302.2545, 19061.32
302.7367, 19381.79
303.2188, 19739.60
303.7009, 20113.39
304.1830, 20511.71
304.6651, 20918.69
305.1472, 21331.51
305.6294, 21746.24
306.1115, 22152.67
306.5936, 22541.80
307.0757, 22914.38
307.5578, 23271.89
308.0399, 23627.95
308.5221, 23959.64
309.0042, 24279.07
309.4863, 24568.48
309.9684, 24791.18
310.4505, 24931.00
310.9326, 24978.54
311.4148, 24849.50
311.8969, 24546.43
312.3790, 24097.21
312.8611, 23451.36
313.3432, 22673.62
313.8253, 21834.99
314.3075, 20963.35
314.7896, 20098.81
315.2717, 19340.91
315.7538, 18680.63
316.2359, 18140.61
316.7180, 17731.34
317.2001, 17440.00
317.6823, 17266.59
318.1644, 17208.29
318.6465, 17234.80
319.1286, 17305.89
319.6107, 17446.16
320.0928, 17574.86
320.5750, 17704.67
321.0571, 17815.13
321.5392, 17900.24
322.0213, 17954.48
322.5034, 17962.95
322.9855, 17912.17
323.4677, 17798.95
323.9498, 17617.51
324.4319, 17355.38
324.9140, 17048.33
325.3961, 16693.30
325.8782, 16305.36
326.3604, 15912.33
326.8425, 15530.15
327.3246, 15161.47
327.8067, 14829.35
328.2888, 14541.27
328.7709, 14275.09
329.2531, 14034.87
329.7352, 13812.39
330.2173, 13597.59
330.6994, 13386.26
331.1815, 13176.03
331.6636, 12958.46
332.1458, 12731.50
332.6279, 12499.33
333.1100, 12268.80
333.5921, 12031.16
334.0742, 11779.36
334.5563, 11512.34
335.0385, 11224.90
335.5206, 10913.70
336.0027, 10583.36
336.4848, 10205.77
336.9669, 9763.673
337.4490, 9290.381
337.9312, 8793.529
338.4133, 8280.133
338.8954, 7769.952
339.3775, 7278.005
339.8596, 6800.949
340.3417, 6373.328
340.8239, 5997.703
341.3060, 5661.381
341.7881, 5365.778
342.2702, 5105.500
342.7523, 4875.291
343.2344, 4673.422
343.7166, 4497.393
344.1987, 4337.332
344.6808, 4203.826
345.1629, 4075.598
345.6450, 3952.494
346.1271, 3834.049
346.6093, 3720.726
347.0914, 3613.274
347.5735, 3509.072
348.0556, 3405.397
348.5377, 3301.396
349.0198, 3198.789
349.5020, 3098.373
349.9841, 2998.520
350.4662, 2898.648
350.9483, 2799.094
351.4304, 2700.656
351.9125, 2604.599
352.3947, 2510.930
352.8768, 2420.722
353.3589, 2332.625
353.8410, 2249.449
354.3231, 2171.536
354.8052, 2099.551
355.2874, 2034.245
355.7695, 1976.656
356.2516, 1926.260
356.7337, 1878.728
357.2158, 1833.256
357.6979, 1792.355
358.1800, 1757.692
358.6621, 1726.870
359.1443, 1697.756
359.6264, 1669.360
360.1085, 1641.904
360.5906, 1615.273
361.0727, 1588.702
361.5548, 1565.111
362.0370, 1547.151
362.5191, 1530.309
363.0012, 1511.432
363.4833, 1490.374
363.9654, 1469.936
364.4475, 1453.263
364.9297, 1440.619
365.4118, 1427.243
365.8939, 1412.300
366.3760, 1397.511
366.8581, 1383.407
367.3402, 1370.013
367.8224, 1357.393
368.3045, 1345.975
368.7866, 1335.144
369.2687, 1322.936
369.7508, 1308.844
370.2329, 1294.513
370.7151, 1279.901
371.1972, 1265.608
371.6793, 1252.135
372.1614, 1239.785
372.6435, 1227.957
373.1256, 1215.818
373.6078, 1203.304
374.0899, 1191.809
374.5720, 1182.227
375.0541, 1173.280
375.5362, 1164.150
376.0183, 1154.760
376.5005, 1145.233
376.9826, 1135.114
377.4647, 1124.811
377.9468, 1116.192
378.4289, 1110.471
378.9110, 1103.945
379.3932, 1093.092
379.8753, 1079.764
380.3574, 1067.411
380.8395, 1057.398
381.3216, 1048.533
381.8037, 1039.434
382.2859, 1030.072
382.7680, 1021.055
383.2501, 1012.312
383.7322, 1004.400
384.2143, 998.2420
384.6964, 994.5374
385.1786, 990.3046
385.6607, 983.1822
386.1428, 974.2686
386.6249, 966.3185
387.1070, 959.9358
387.5891, 954.8464
388.0713, 951.6627
388.5534, 950.1720
389.0355, 946.9366
389.5176, 940.0519
389.9997, 931.8599
390.4818, 924.4088
390.9640, 917.8268
391.4461, 912.0308
391.9282, 907.1728
392.4103, 903.0463
392.8924, 898.4526
393.3745, 892.9681
393.8567, 887.5075
394.3388, 882.3584
394.8209, 877.4903
395.3030, 872.9818
395.7851, 868.8448
396.2672, 864.8722
396.7494, 860.6318
397.2315, 855.9720
397.7136, 851.4158
398.1957, 846.6298
398.6778, 842.1458
399.1599, 838.8105
399.6420, 836.4579
400.1241, 833.7082
400.6063, 829.2324
401.0884, 822.9416
401.5705, 817.4441
402.0526, 812.4085
402.5347, 808.3959
403.0168, 806.5205
403.4990, 805.5995
403.9811, 803.7242
404.4632, 799.9814
404.9453, 795.0768
405.4274, 790.6676
405.9095, 786.7361
406.3917, 783.4736
406.8738, 781.7094
407.3559, 779.9613
407.8380, 776.9371
408.3201, 772.6436
408.8022, 768.2109
409.2844, 764.8059
409.7665, 762.5342
410.2486, 759.7501
410.7307, 755.7615
411.2128, 751.9913
411.6949, 749.0536
412.1771, 746.5651
412.6592, 743.8021
413.1413, 740.3330
413.6234, 736.6502
414.1055, 733.9578
414.5876, 732.6849
415.0698, 731.0551
415.5519, 728.5006
416.0340, 725.5500
416.5161, 722.2503
416.9982, 718.6812
417.4803, 715.6354
417.9625, 714.3159
418.4446, 714.3524
418.9267, 712.8839
419.4088, 708.7447
419.8909, 704.8810
420.3730, 704.0056
420.8552, 704.7275
421.3373, 704.1466
421.8194, 700.5108
422.3015, 695.9700
422.7836, 693.2301
423.2657, 692.2728
423.7479, 691.1705
424.2300, 688.9494
424.7121, 686.3835
425.1942, 684.7615
425.6763, 684.2948
426.1584, 683.6787
426.6406, 682.2759
427.1227, 680.3842
427.6048, 678.3588
428.0869, 676.2099
428.5690, 674.4531
429.0511, 673.8422
429.5333, 674.3384
430.0154, 673.7280
430.4975, 670.6011
430.9796, 667.6844
431.4617, 666.8891
431.9438, 667.5533
432.4260, 667.8610
432.9081, 666.9384
433.3902, 665.2471
433.8723, 663.8711
434.3544, 663.0660
434.8365, 662.1589
435.3187, 661.1085
435.8008, 659.9559
436.2829, 658.5639
436.7650, 657.0250
437.2471, 655.8574
437.7292, 655.7107
438.2114, 656.6456
438.6935, 656.1238
439.1756, 652.0016
439.6577, 648.7985
440.1398, 648.2147
440.6219, 648.9537
441.1040, 649.3135
441.5862, 648.5775
442.0683, 647.1125
442.5504, 645.4589
443.0325, 643.3817
443.5146, 641.8436
443.9967, 641.1961
444.4789, 640.8951
444.9610, 640.8375
445.4431, 640.9219
445.9252, 640.9394
446.4073, 640.8190
446.8894, 640.5009
447.3716, 639.5646
447.8537, 637.5026
448.3358, 636.0909
448.8179, 637.3429
449.3000, 639.1145
449.7821, 638.8119
450.2643, 635.5601
450.7464, 631.8406
451.2285, 629.8450
451.7106, 629.2590
452.1927, 628.5389
452.6748, 627.2501
453.1570, 626.0390
453.6391, 625.8480
454.1212, 626.4207
454.6033, 626.5363
455.0854, 625.7557
455.5675, 624.5193
456.0497, 622.9256
456.5318, 621.1168
457.0139, 619.9149
457.4960, 619.9918
457.9781, 620.6359
458.4602, 619.7604
458.9424, 616.5349
459.4245, 613.8130
459.9066, 612.2081
460.3887, 611.2875
460.8708, 611.0848
461.3529, 611.3783
461.8351, 610.9249
462.3172, 608.3101
462.7993, 603.4293
463.2814, 600.1611
463.7635, 600.0308
464.2456, 599.6410
464.7278, 597.5959
465.2099, 594.9489
465.6920, 593.4716
466.1741, 593.7981
466.6562, 594.5886
467.1383, 593.2747
467.6205, 588.6212
468.1026, 585.6871
468.5847, 586.4614
469.0668, 587.3568
469.5489, 586.6463
470.0310, 584.6875
470.5132, 582.8418
470.9953, 582.1472
471.4774, 581.9307
471.9595, 580.1197
472.4416, 576.0419
472.9237, 572.9013
473.4059, 572.8651
473.8880, 573.6890
474.3701, 573.3777
474.8522, 571.6983
475.3343, 569.5964
475.8164, 567.4915
476.2986, 565.4412
476.7807, 563.5532
477.2628, 561.8436
477.7449, 560.3387
478.2270, 559.3375
478.7091, 558.5674
479.1913, 556.9575
479.6734, 553.0401
480.1555, 549.8441
480.6376, 549.7625
481.1197, 551.4473
481.6018, 551.9716
482.0839, 550.3469
482.5660, 547.7838
483.0482, 545.8789
483.5303, 544.7371
484.0124, 544.0627
484.4945, 544.3442
484.9766, 544.6049
485.4587, 544.3568
485.9409, 543.6550
486.4230, 542.7458
486.9051, 541.7643
487.3872, 540.6695
487.8693, 539.2847
488.3514, 537.0463
488.8336, 535.5951
489.3157, 535.7604
489.7978, 536.0665
490.2799, 535.4119
490.7620, 533.8707
491.2441, 532.3528
491.7263, 531.7487
492.2084, 531.7682
492.6905, 530.7926
493.1726, 528.1274
493.6547, 526.1552
494.1368, 527.0172
494.6190, 528.5147
495.1011, 528.1592
495.5832, 525.3087
496.0653, 522.3138
496.5474, 521.2977
497.0295, 521.5678
497.5117, 520.9113
497.9938, 518.8198
498.4759, 516.5483
498.9580, 514.9880
499.4401, 514.1097
499.9222, 513.6204
500.4044, 514.5259
500.8865, 514.7607
501.3686, 512.2510
501.8507, 508.4254
502.3328, 506.4454
502.8149, 507.4416
503.2971, 509.5880
503.7792, 510.3404
504.2613, 509.3417
504.7434, 508.1097
505.2255, 506.4987
505.7076, 504.8324
506.1898, 502.8919
506.6719, 501.0556
507.1540, 500.1928
507.6361, 500.8055
508.1182, 502.1360
508.6003, 502.3896
509.0825, 501.1757
509.5646, 499.9300
510.0467, 498.7985
510.5288, 497.6628
511.0109, 496.2852
511.4930, 494.8042
511.9752, 493.7282
512.4573, 493.6953
512.9394, 494.0744
513.4215, 493.2640
513.9036, 491.0620
514.3857, 488.8957
514.8679, 487.0675
515.3500, 485.7418
515.8321, 485.3082
516.3142, 485.9217
516.7963, 486.0574
517.2784, 484.3085
517.7606, 482.0440
518.2427, 481.5190
518.7248, 482.8286
519.2069, 483.9207
519.6890, 483.4424
520.1711, 481.6364
520.6533, 479.6944
521.1354, 476.6188
521.6175, 474.7195
522.0996, 475.3946
522.5817, 476.8414
523.0638, 477.2439
523.5460, 476.3351
524.0281, 474.9210
524.5102, 473.6647
524.9923, 472.5836
525.4744, 472.3299
525.9565, 474.2401
526.4387, 475.2072
526.9208, 473.9604
527.4029, 471.8520
527.8850, 470.1380
528.3671, 469.1710
528.8492, 468.8668
529.3314, 469.6069
529.8135, 471.1950
530.2956, 471.5118
530.7777, 469.8497
531.2598, 468.1422
531.7419, 468.0615
532.2241, 468.6345
532.7062, 468.1507
533.1883, 465.7549
533.6704, 463.3780
534.1525, 462.4511
534.6346, 462.5106
535.1168, 462.4674
535.5989, 462.0704
536.0810, 461.6196
536.5631, 461.4507
537.0452, 461.5795
537.5273, 461.4543
538.0095, 460.9363
538.4916, 460.3427
538.9737, 459.7074
539.4558, 459.0957
539.9379, 458.5790
540.4200, 458.1849
540.9022, 457.9175
541.3843, 457.8020
541.8664, 457.8670
542.3485, 457.9313
542.8306, 458.0356
543.3127, 458.0962
543.7948, 458.2666
544.2769, 458.3249
544.7590, 457.8798
545.2411, 456.7463
545.7233, 455.3804
546.2054, 454.2828
546.6875, 453.4469
547.1696, 452.8279
547.6517, 452.3544
548.1339, 452.2135
548.6160, 452.8870
549.0981, 454.0552
549.5802, 454.8018
550.0623, 454.5714
550.5444, 454.2790
551.0266, 454.7576
551.5087, 455.5984
551.9908, 455.7584
552.4729, 454.9020
552.9550, 453.7136
553.4371, 452.9803
553.9193, 452.6957
554.4014, 452.9846
554.8835, 454.9411
555.3656, 456.1875
555.8477, 455.0369
556.3298, 452.9056
556.8120, 452.1391
557.2941, 453.5379
557.7762, 455.5240
558.2583, 455.7484
558.7404, 453.9673
559.2225, 452.4261
559.7047, 450.9716
560.1868, 450.0891
560.6689, 450.4521
561.1510, 451.3551
561.6331, 451.5488
562.1152, 450.4922
562.5974, 449.1069
563.0795, 448.1356
563.5616, 447.5281
564.0437, 447.2837
564.5258, 447.5562
565.0079, 447.4167
565.4901, 445.6420
565.9722, 442.3877
566.4543, 440.6182
566.9364, 441.3122
567.4185, 442.3579
567.9006, 443.4330
568.3828, 444.1923
568.8649, 444.2162
569.3470, 443.3913
569.8291, 441.7525
570.3112, 439.1330
570.7933, 435.3961
571.2755, 433.0219
571.7576, 433.1666
572.2397, 433.2658
572.7218, 432.6629
573.2039, 431.7094
573.6860, 430.8188
574.1682, 430.0891
574.6503, 429.3395
575.1324, 428.3195
575.6145, 427.1158
576.0966, 426.1468
576.5787, 425.4858
577.0609, 424.8806
577.5430, 424.3248
578.0251, 423.6681
578.5072, 422.5924
578.9893, 420.9800
579.4714, 419.2005
579.9536, 417.1004
580.4357, 415.0662
580.9178, 413.5676
581.3999, 412.6528
581.8820, 412.1573
582.3641, 412.0616
582.8463, 412.1924
583.3284, 411.5066
583.8105, 409.0249
584.2926, 407.1394
584.7747, 406.7541
585.2568, 406.4493
585.7390, 404.8654
586.2211, 402.1828
586.7032, 399.7839
587.1853, 398.7288
587.6674, 398.6061
588.1495, 398.3333
588.6317, 397.8715
589.1138, 397.5420
589.5959, 397.7831
590.0780, 397.8628
590.5601, 396.2964
591.0422, 393.1198
591.5244, 391.9183
592.0065, 396.5501
592.4886, 401.4562
592.9707, 400.9464
593.4528, 396.1721
593.9349, 391.4829
594.4171, 388.7528
594.8992, 387.3809
595.3813, 386.3131
595.8634, 385.3877
596.3455, 385.2952
596.8276, 387.3574
597.3098, 388.7489
597.7919, 387.5670
598.2740, 385.0854
598.7561, 383.6676
599.2382, 384.3161
599.7203, 385.4969
600.2025, 384.8624
600.6846, 382.4839
601.1667, 381.2444
601.6488, 382.0181
602.1309, 382.7813
602.6130, 381.9200
603.0952, 380.0892
603.5773, 378.5698
604.0594, 377.5766
604.5415, 376.8071
605.0236, 376.3189
605.5057, 375.8696
605.9879, 374.9491
606.4700, 373.5358
606.9521, 372.2484
607.4342, 371.6187
607.9163, 371.5656
608.3984, 371.4877
608.8806, 371.7209
609.3627, 371.4281
609.8448, 369.8283
610.3269, 368.2202
610.8090, 367.9311
611.2911, 368.7469
611.7733, 369.1778
612.2554, 368.0054
612.7375, 365.9202
613.2196, 364.4831
613.7017, 363.7228
614.1838, 363.3214
614.6660, 363.5514
615.1481, 363.6569
615.6302, 362.6507
616.1123, 360.6144
616.5944, 358.4745
617.0765, 355.9999
617.5587, 353.8799
618.0408, 352.9140
618.5229, 352.6202
619.0050, 351.8368
619.4871, 350.1682
619.9692, 348.3382
620.4514, 347.4398
620.9335, 347.7209
621.4156, 346.9888
621.8977, 343.8571
622.3798, 341.3428
622.8619, 340.7086
623.3441, 340.8490
623.8262, 340.4678
624.3083, 339.2666
624.7904, 337.9429
625.2725, 337.1321
625.7546, 336.6523
626.2367, 336.0653
626.7188, 335.3629
627.2009, 334.3576
627.6830, 332.8155
628.1652, 331.0138
628.6473, 329.5847
629.1294, 328.6123
629.6115, 327.6700
630.0936, 326.7583
630.5757, 325.7988
631.0579, 324.5686
631.5400, 323.2405
632.0221, 322.3391
632.5042, 322.1519
632.9863, 322.1550
633.4684, 321.3169
633.9506, 319.4546
634.4327, 317.6255
634.9148, 315.8606
635.3969, 314.1739
635.8790, 312.3000
636.3611, 310.5669
636.8433, 309.6594
637.3254, 310.0006
637.8075, 310.3766
638.2896, 310.1354
638.7717, 309.2590
639.2538, 307.3883
639.7360, 304.5337
640.2181, 301.9639
640.7002, 300.6887
641.1823, 300.3047
641.6644, 299.1493
642.1465, 296.4972
642.6287, 294.0485
643.1108, 292.0034
643.5929, 290.0198
644.0750, 287.6209
644.5571, 285.0717
645.0392, 283.1080
645.5214, 282.1817
646.0035, 281.9278
646.4856, 282.0062
646.9677, 282.4130
647.4498, 282.0384
647.9319, 280.5201
648.4141, 278.5274
648.8962, 276.3375
649.3783, 274.0874
649.8604, 272.4024
650.3425, 272.0256
650.8246, 271.2703
651.3068, 268.2359
651.7889, 265.1079
652.2710, 265.7442
652.7531, 269.8391
653.2352, 272.4990
653.7173, 269.6287
654.1995, 262.7281
654.6816, 258.0418
655.1637, 256.2440
655.6458, 255.0866
656.1279, 255.0276
656.6100, 254.8517
657.0922, 253.5713
657.5743, 251.5281
658.0564, 250.0172
658.5385, 249.9949
659.0206, 250.0450
659.5027, 248.4159
659.9849, 245.7796
660.4670, 244.1128
660.9491, 243.8900
661.4312, 244.1474
661.9133, 244.0284
662.3954, 243.5723
662.8776, 243.3363
663.3597, 244.0357
663.8418, 244.0065
664.3239, 242.7389
664.8060, 240.9459
665.2881, 238.9354
665.7703, 236.9197
666.2524, 235.3856
666.7345, 234.9223
667.2166, 234.6717
667.6987, 232.5806
668.1808, 228.7273
668.6630, 225.9868
669.1451, 224.9453
669.6272, 225.4864
670.1093, 228.6988
670.5914, 234.0613
671.0735, 235.6460
671.5557, 230.2921
672.0378, 224.9122
672.5199, 221.8487
673.0020, 219.8410
673.4841, 217.4868
673.9662, 214.6238
674.4484, 211.8591
674.9305, 209.6269
675.4126, 207.8733
675.8947, 206.4250
676.3768, 205.3067
676.8589, 204.3953
677.3411, 203.7107
677.8232, 203.1815
678.3053, 202.9358
678.7874, 202.8232
679.2695, 202.2630
679.7516, 200.7652
680.2338, 199.2432
680.7159, 198.2005
681.1980, 197.4951
681.6801, 197.0982
682.1622, 196.9043
682.6443, 196.2632
683.1265, 194.5298
683.6086, 192.0469
684.0907, 190.5035
684.5728, 190.2824
685.0549, 190.1662
685.5370, 190.3095
686.0192, 190.2350
686.5013, 189.4561
686.9834, 188.2193
687.4655, 187.3059
687.9476, 187.3382
688.4297, 187.1816
688.9119, 185.3514
689.3940, 182.6481
689.8761, 181.0923
690.3582, 181.0099
690.8403, 181.1446
691.3224, 180.5616
691.8046, 179.3632
692.2867, 177.9984
692.7688, 176.1815
693.2509, 174.6680
693.7330, 173.8237
694.2151, 172.9719
694.6973, 171.3094
695.1794, 169.3352
695.6615, 168.4153
696.1436, 169.3948
696.6257, 170.7066
697.1078, 170.7406
697.5900, 169.6755
698.0721, 167.7875
698.5542, 165.0267
699.0363, 163.0129
699.5184, 163.2110
700.0005, 164.7272
700.4827, 164.3980
700.9648, 160.5013
701.4469, 157.5457
701.9290, 156.2688
702.4111, 155.3045
702.8932, 154.0793
703.3754, 152.4912
703.8575, 150.2213
704.3396, 147.0677
704.8217, 144.3668
705.3038, 144.5247
705.7859, 146.7323
706.2681, 146.8413
706.7502, 144.2710
707.2323, 141.3420
707.7144, 139.1018
708.1965, 137.5103
708.6786, 136.6152
709.1607, 136.8833
709.6428, 136.4423
710.1249, 134.4307
710.6071, 132.4094
711.0892, 131.2894
711.5713, 130.7715
712.0534, 130.3161
712.5355, 129.7248
713.0176, 129.0319
713.4998, 128.1707
713.9819, 127.2153
714.4640, 126.6073
714.9461, 126.4161
715.4282, 126.1859
715.9103, 125.7601
716.3925, 125.1636
716.8746, 124.3103
717.3567, 123.1191
717.8388, 122.3977
718.3209, 122.5493
718.8030, 122.8212
719.2852, 123.0252
719.7673, 123.0569
720.2494, 122.8079
720.7315, 122.2534
721.2136, 121.4094
721.6957, 120.1100
722.1779, 118.6141
722.6600, 117.9746
723.1421, 118.2954
723.6242, 118.5060
724.1063, 118.2111
724.5884, 117.8522
725.0706, 118.1099
725.5527, 118.8880
726.0348, 118.8572
726.5169, 116.7880
726.9990, 115.3285
727.4811, 116.1479
727.9633, 117.5276
728.4454, 117.3778
728.9275, 115.7715
729.4096, 114.4118
729.8917, 114.5058
730.3738, 115.4389
730.8560, 115.9223
731.3381, 115.9405
731.8202, 116.0346
732.3023, 116.3374
732.7844, 116.6370
733.2665, 117.0390
733.7487, 117.2799
734.2308, 116.3724
734.7129, 113.0919
735.1950, 110.9943
735.6771, 111.8508
736.1592, 113.2585
736.6414, 113.3169
737.1235, 112.3176
737.6056, 111.4123
738.0877, 111.1145
738.5698, 111.1157
739.0519, 110.9470
739.5341, 110.6568
740.0162, 110.8079
740.4983, 111.5812
740.9804, 112.0503
741.4625, 111.6620
741.9446, 110.7891
742.4268, 110.0730
742.9089, 109.5089
743.3910, 109.0875
743.8731, 108.9144
744.3552, 108.7687
744.8373, 108.4679
745.3195, 108.1624
745.8016, 108.0187
746.2837, 108.0991
746.7658, 108.4849
747.2479, 109.5028
747.7300, 110.7472
748.2122, 111.0427
748.6943, 110.3784
749.1764, 109.3625
749.6585, 107.9839
750.1406, 106.7848
750.6227, 106.3216
751.1049, 106.5898
751.5870, 107.0834
752.0691, 108.4265
752.5512, 109.1367
753.0333, 108.4553
753.5154, 107.4295
753.9976, 106.9762
754.4797, 106.9935
754.9618, 106.5566
755.4439, 104.8121
755.9260, 103.7935
756.4081, 107.4221
756.8903, 114.2528
757.3724, 118.2869
757.8545, 118.7652
758.3366, 116.9234
758.8187, 112.9118
759.3008, 107.8882
759.7830, 104.7267
760.2651, 103.9842
760.7472, 103.8476
761.2293, 104.8520
761.7114, 105.8221
762.1935, 106.4860
762.6757, 106.7365
763.1578, 106.1814
763.6399, 104.7990
764.1220, 103.8960
764.6041, 105.0682
765.0862, 106.9062
765.5684, 107.0775
766.0505, 105.8799
766.5326, 104.8655
767.0147, 104.5179
767.4968, 104.7013
767.9789, 105.3803
768.4611, 106.5111
768.9432, 106.9498
769.4253, 106.3504
769.9074, 105.6397
770.3895, 104.6019
770.8716, 103.8110
771.3538, 103.9077
771.8359, 104.6010
772.3180, 104.8732
772.8001, 104.0341
773.2822, 103.4574
773.7643, 104.9509
774.2465, 106.8490
774.7286, 106.1452
775.2107, 103.1230
775.6928, 100.7133
776.1749, 100.5581
776.6570, 101.7657
777.1392, 102.7094
777.6213, 103.3759
778.1034, 103.8706
778.5855, 104.0687
779.0676, 104.3550
779.5497, 105.3410
780.0319, 106.2314
780.5140, 105.7868
780.9961, 103.8723
781.4782, 102.3750
781.9603, 101.9044
782.4424, 101.8074
782.9246, 101.8288
783.4067, 101.9249
783.8888, 102.0849
784.3709, 102.2897
784.8530, 102.4917
785.3351, 102.6948
785.8173, 102.8024
786.2994, 102.3852
786.7815, 101.4425
787.2636, 101.2555
787.7457, 102.3528
788.2278, 103.2123
788.7100, 102.3668
789.1921, 100.4331
789.6742, 99.93129
790.1563, 102.1397
790.6384, 103.3601
791.1205, 102.7106
791.6026, 101.7196
792.0847, 101.1783
792.5668, 100.9114
793.0490, 100.4528
793.5311, 99.67488
794.0132, 99.03022
794.4953, 98.90599
794.9774, 99.15158
795.4595, 99.64446
795.9417, 100.3064
796.4238, 100.7255
796.9059, 100.7659
797.3880, 100.5295
797.8701, 100.0481
798.3522, 99.36514
798.8344, 99.27212
799.3165, 100.2014
799.7986, 100.8839
800.2807, 100.8979
800.7628, 100.8035
801.2449, 101.0391
801.7271, 101.4215
802.2092, 101.3748
802.6913, 100.5174
803.1734, 99.84544
803.6555, 100.0265
804.1376, 100.5434
804.6198, 100.9836
805.1019, 101.2469
805.5840, 101.1592
806.0661, 100.6535
806.5482, 100.0862
807.0303, 99.95414
807.5125, 100.2119
807.9946, 100.4308
808.4767, 100.6055
808.9588, 100.7928
809.4409, 101.0570
809.9230, 101.2685
810.4052, 101.2893
810.8873, 101.1140
811.3694, 100.8027
811.8515, 99.97609
812.3336, 99.52934
812.8157, 99.98319
813.2979, 100.5970
813.7800, 100.9291
814.2621, 100.8916
814.7442, 100.3535
815.2263, 99.14973
815.7084, 98.01979
816.1906, 97.76871
816.6727, 98.09219
817.1548, 98.25102
817.6369, 98.28664
818.1190, 99.11397
818.6011, 101.2349
819.0833, 103.3328
819.5654, 103.3562
820.0475, 101.2043
820.5296, 99.89534
821.0117, 100.0349
821.4938, 99.72655
821.9760, 97.34180
822.4581, 95.34338
822.9402, 96.49077
823.4223, 99.98318
823.9044, 101.9858
824.3865, 100.8070
824.8687, 99.50535
825.3508, 99.42219
825.8329, 99.63625
826.3150, 99.33115
826.7971, 98.50989
827.2792, 97.27328
827.7614, 95.64760
828.2435, 94.46337
828.7256, 95.19534
829.2077, 97.22236
829.6898, 98.11121
830.1719, 97.79626
830.6541, 97.21738
831.1362, 96.66963
831.6183, 96.15203
832.1004, 95.60378
832.5825, 95.03307
833.0646, 94.97787
833.5468, 95.97636
834.0289, 96.65207
834.5110, 96.43654
834.9931, 96.24480
835.4752, 96.91631
835.9573, 98.04426
836.4395, 98.51998
836.9216, 97.89673
837.4037, 97.16663
837.8858, 96.78960
838.3679, 96.61239
838.8500, 96.54492
839.3322, 96.52954
839.8143, 96.48972
840.2964, 96.39178
840.7785, 96.18243
841.2606, 95.75002
841.7427, 95.18049
842.2249, 94.69186
842.7070, 94.25998
843.1891, 94.66515
843.6712, 96.37434
844.1533, 98.05566
844.6354, 98.56721
845.1176, 98.09507
845.5997, 97.53262
846.0818, 96.47344
846.5639, 95.98770
847.0460, 96.53674
847.5281, 97.13940
848.0103, 97.37041
848.4924, 97.34692
848.9745, 97.20118
849.4566, 96.96048
849.9387, 96.92073
850.4208, 97.56754
850.9030, 98.18076
851.3851, 98.29429
851.8672, 97.82919
852.3493, 96.09040
852.8314, 93.33926
853.3135, 91.78380
853.7957, 93.36317
854.2778, 96.42786
854.7599, 97.05206
855.2420, 95.29642
855.7241, 94.05952
856.2062, 93.66298
856.6884, 93.73991
857.1705, 94.28753
857.6526, 94.92964
858.1347, 94.86463
858.6168, 93.74607
859.0989, 93.49717
859.5811, 95.18230
860.0632, 96.33702
860.5453, 96.13552
861.0274, 95.37518
861.5095, 94.55173
861.9916, 93.81321
862.4738, 93.47860
862.9559, 93.92445
863.4380, 94.27719
863.9201, 93.42908
864.4022, 92.53726
864.8843, 93.49968
865.3665, 95.75298
865.8486, 97.11179
866.3307, 96.66694
866.8128, 95.51688
867.2949, 95.01011
867.7770, 94.94582
868.2592, 94.16960
868.7413, 92.66100
869.2234, 92.27341
869.7055, 93.76920
870.1876, 95.45991
870.6697, 95.75158
871.1519, 94.88577
871.6340, 94.19968
872.1161, 93.69668
872.5981, 93.36610
873.0803, 93.30257
873.5624, 93.31432
874.0445, 93.32858
874.5266, 93.36722
875.0087, 93.41264
875.4908, 93.44884
875.9730, 93.76445
876.4551, 95.08474
876.9372, 96.02951
877.4193, 95.30215
877.9014, 93.92642
878.3835, 93.39273
878.8657, 93.71899
879.3478, 93.79707
879.8299, 92.87917
880.3120, 91.78208
880.7941, 91.70664
881.2762, 92.37702
881.7584, 92.93437
882.2405, 93.31618
882.7226, 93.74454
883.2047, 94.34611
883.6868, 94.78401
884.1689, 94.51533
884.6511, 93.57531
885.1332, 93.20163
885.6153, 93.73169
886.0974, 93.84769
886.5795, 92.80740
887.0616, 91.91356
887.5438, 92.60428
888.0259, 94.19414
888.5080, 94.52207
888.9901, 92.76350
889.4722, 91.60622
889.9543, 92.09423
890.4365, 92.54698
890.9186, 91.77049
891.4007, 90.58362
891.8828, 90.19887
892.3649, 90.73742
892.8470, 91.34939
893.3292, 91.54469
893.8113, 91.62443
894.2934, 91.87389
894.7755, 92.20982
895.2576, 92.61369
895.7397, 92.98311
896.2219, 92.86422
896.7040, 92.00381
897.1861, 90.99264
897.6682, 90.84766
898.1503, 91.41553
898.6324, 91.34444
899.1146, 90.57307
899.5967, 90.08919
900.0788, 90.26786
900.5609, 90.54411
901.0430, 90.33104
901.5251, 89.73735
902.0073, 89.46970
902.4894, 89.87029
902.9715, 89.88268
903.4536, 88.94918
903.9357, 88.21207
904.4178, 88.58214
904.9000, 89.24075
905.3821, 88.84933
905.8642, 87.22886
906.3463, 86.25109
906.8284, 86.78829
907.3105, 87.55525
907.7927, 87.94994
908.2748, 88.28896
908.7569, 89.06442
909.2390, 90.11707
909.7211, 90.82401
910.2032, 90.87599
910.6854, 90.70274
911.1675, 90.64747
911.6496, 90.65189
912.1317, 90.62378
912.6138, 90.56814
913.0959, 90.58669
913.5781, 90.68740
914.0602, 90.55392
914.5423, 89.79264
915.0244, 88.73448
915.5065, 88.55959
915.9886, 89.27938
916.4708, 89.16660
916.9529, 87.78981
917.4350, 86.84044
917.9171, 87.42830
918.3992, 88.63344
918.8813, 88.77267
919.3635, 87.63354
919.8456, 87.07156
920.3277, 87.25771
920.8098, 87.74404
921.2919, 89.21519
921.7740, 90.25346
922.2562, 89.22617
922.7383, 86.97690
923.2204, 86.13026
923.7025, 87.62386
924.1846, 88.87533
924.6667, 89.27307
925.1489, 89.22219
925.6310, 88.61205
926.1131, 87.89265
926.5952, 87.76266
927.0773, 88.22041
927.5594, 88.44838
928.0416, 87.72224
928.5237, 87.04324
929.0058, 87.65540
929.4879, 88.73772
929.9700, 88.89670
930.4521, 88.23599
930.9343, 87.61401
931.4164, 87.40500
931.8985, 87.57418
932.3806, 88.29475
932.8627, 89.27974
933.3448, 89.37651
933.8270, 88.70421
934.3091, 88.73799
934.7912, 89.83698
935.2733, 90.88268
935.7554, 91.08454
936.2375, 90.69339
936.7197, 90.29048
937.2018, 89.88292
937.6839, 89.38659
938.1660, 88.66148
938.6481, 88.21545
939.1302, 88.37514
939.6124, 88.67416
940.0945, 88.56373
940.5766, 88.11588
941.0587, 88.02015
941.5408, 89.14672
942.0229, 89.28027
942.5051, 87.22075
942.9872, 85.35112
943.4693, 84.87397
943.9514, 85.26643
944.4335, 85.99760
944.9156, 86.95102
945.3978, 87.39340
945.8799, 86.73475
946.3620, 85.92435
946.8441, 85.27553
947.3262, 84.84879
947.8083, 84.65685
948.2905, 84.74513
948.7726, 85.29707
949.2547, 86.38737
949.7368, 87.46118
950.2189, 88.17954
950.7010, 88.52805
951.1832, 88.36728
951.6653, 87.85071
952.1474, 87.22803
952.6295, 86.61577
953.1116, 86.34057
953.5938, 86.65458
954.0759, 87.11054
954.5580, 86.86858
955.0400, 86.08589
955.5222, 85.55724
956.0043, 85.31155
956.4864, 85.48034
956.9685, 86.17827
957.4506, 86.52847
957.9327, 85.47588
958.4149, 83.61246
958.8970, 83.75285
959.3791, 86.53954
959.8612, 88.01739
960.3433, 87.54136
960.8254, 86.72973
961.3076, 86.18996
961.7897, 85.85689
962.2718, 85.69188
962.7539, 85.70139
963.2360, 85.54637
963.7181, 84.70786
964.2003, 84.51530
964.6824, 85.94444
965.1645, 87.12525
965.6466, 86.72952
966.1287, 85.56316
966.6108, 84.99672
967.0930, 85.18523
967.5751, 85.59301
968.0572, 86.70852
968.5393, 87.26607
969.0214, 86.23119
969.5035, 84.85278
969.9857, 84.02717
970.4678, 83.89173
970.9499, 84.68517
971.4320, 86.67043
971.9141, 88.08054
972.3962, 87.36617
972.8784, 86.13376
973.3605, 85.83803
973.8426, 85.96763
974.3247, 85.51640
974.8068, 84.50445
975.2889, 83.80089
975.7711, 83.92766
976.2532, 84.28963
976.7353, 83.92708
977.2174, 83.49427
977.6995, 84.62100
978.1816, 86.79594
978.6638, 88.01006
979.1459, 87.75773
979.6280, 86.90630
980.1101, 86.08562
980.5922, 85.34939
981.0743, 84.96142
981.5565, 84.81070
982.0386, 83.98267
982.5207, 82.45297
983.0028, 81.60528
983.4849, 82.01469
983.9670, 82.93443
984.4492, 83.58514
984.9313, 84.01123
985.4134, 84.49074
985.8955, 85.09270
986.3776, 85.06554
986.8597, 84.04517
987.3419, 83.57791
987.8240, 84.71824
988.3061, 86.21381
988.7882, 86.20002
989.2703, 84.68698
989.7524, 83.61464
990.2346, 82.91517
990.7167, 82.85216
991.1988, 84.01488
991.6809, 85.02895
992.1630, 84.93346
992.6451, 84.29709
993.1273, 84.14626
993.6094, 84.56162
994.0915, 84.87099
994.5736, 85.23812
995.0557, 85.26000
995.5378, 84.26052
996.0200, 83.47632
996.5021, 84.04897
996.9842, 85.34155
997.4663, 86.05371
997.9484, 85.96864
998.4305, 85.63784
998.9127, 84.94489
999.3948, 84.34715
999.8769, 83.99168
1000.359, 83.86400
1000.841, 84.14783
1001.323, 84.61361
1001.805, 84.63029
1002.287, 83.93273
1002.770, 83.44511
1003.252, 84.02419
1003.734, 84.57483
1004.216, 83.98974
1004.698, 83.07980
1005.180, 83.19853
1005.662, 84.10282
1006.144, 84.24289
1006.627, 82.81663
1007.109, 81.52918
1007.591, 82.16995
1008.073, 83.39413
1008.555, 83.61217
1009.037, 83.19837
1009.519, 82.90794
1010.001, 82.91562
1010.483, 83.15736
1010.966, 83.60703
1011.448, 84.19804
1011.930, 84.60304
1012.412, 85.21893
1012.894, 87.13805
1013.376, 89.96216
1013.858, 92.84755
1014.340, 95.31517
1014.823, 95.46909
1015.305, 91.69411
1015.787, 86.52840
1016.269, 84.32691
1016.751, 84.29747
1017.233, 83.32851
1017.715, 81.50552
1018.197, 80.56943
1018.679, 80.99770
1019.162, 81.69518
1019.644, 81.73803
1020.126, 81.56953
1020.608, 82.48695
1021.090, 84.33322
1021.572, 84.71608
1022.054, 83.49031
1022.536, 82.88387
1023.018, 83.70149
1023.501, 84.45714
1023.983, 83.73353
1024.465, 82.09179
1024.947, 81.29946
1025.429, 81.42121
1025.911, 81.70346
1026.393, 82.17433
1026.875, 82.52510
1027.358, 82.65823
1027.840, 82.57459
1028.322, 82.16805
1028.804, 81.63314
1029.286, 81.86205
1029.768, 83.12953
1030.250, 84.08194
1030.732, 84.84934
1031.214, 84.78325
1031.697, 83.27106
1032.179, 81.49134
1032.661, 80.55982
1033.143, 80.39287
1033.625, 80.58066
1034.107, 81.21292
1034.589, 82.01590
1035.071, 83.30265
1035.553, 84.19424
1036.036, 84.39279
1036.518, 84.02560
1037.000, 82.79271
1037.482, 81.03098
1037.964, 80.77238
1038.446, 83.34858
1038.928, 84.80863
1039.410, 84.65283
1039.893, 84.04636
1040.375, 82.74615
1040.857, 81.66142
1041.339, 82.06181
1041.821, 83.56831
1042.303, 84.06643
1042.785, 82.59264
1043.267, 81.92375
1043.750, 82.81787
1044.232, 83.72751
1044.714, 84.28915
1045.196, 84.48088
1045.678, 84.02493
1046.160, 83.14150
1046.642, 82.84238
1047.124, 83.62888
1047.606, 84.07490
1048.089, 83.53014
1048.571, 83.18279
1049.053, 83.87260
1049.535, 84.69924
1050.017, 84.83479
1050.499, 84.30729
1050.981, 83.35217
1051.463, 81.45877
1051.945, 80.63615
1052.428, 82.18543
1052.910, 83.83139
1053.392, 84.82803
1053.874, 85.21210
1054.356, 84.79252
1054.838, 83.83854
1055.320, 83.19627
1055.802, 83.12923
1056.285, 83.05067
1056.767, 82.69952
1057.249, 82.41262
1057.731, 82.39062
1058.213, 82.48397
1058.695, 82.61443
1059.177, 82.71492
1059.659, 82.62000
1060.141, 82.23634
1060.624, 81.92146
1061.106, 82.01311
1061.588, 81.94405
1062.070, 81.08686
1062.552, 80.19862
1063.034, 79.99957
1063.516, 80.43457
1063.998, 81.36247
1064.480, 82.91894
1064.963, 83.60727
1065.445, 81.86671
1065.927, 80.29326
1066.409, 80.35312
1066.891, 81.13615
1067.373, 82.12411
1067.855, 82.97018
1068.337, 83.05457
1068.820, 82.18839
1069.302, 81.40426
1069.784, 80.97742
1070.266, 80.94638
1070.748, 81.52872
1071.230, 82.34084
1071.712, 83.50182
1072.194, 84.46413
1072.677, 83.83939
1073.159, 81.38786
1073.641, 79.84136
1074.123, 81.45358
1074.605, 82.90002
1075.087, 82.37954
1075.569, 81.06364
1076.051, 79.27531
1076.533, 77.75625
1077.016, 78.07920
1077.498, 80.30019
1077.980, 81.56812
1078.462, 79.67924
1078.944, 78.04263
1079.426, 78.47257
1079.908, 79.65092
1080.390, 80.84240
1080.872, 81.87270
1081.354, 82.62501
1081.837, 83.08772
1082.319, 83.36978
1082.801, 83.73030
1083.283, 83.49287
1083.765, 81.36613
1084.247, 79.54021
1084.729, 80.17760
1085.211, 81.77322
1085.694, 82.12666
1086.176, 81.22665
1086.658, 80.60731
1087.140, 80.85690
1087.622, 81.19253
1088.104, 81.33348
1088.586, 81.40107
1089.068, 81.57085
1089.551, 81.63855
1090.033, 81.10225
1090.515, 80.24090
1090.997, 80.14585
1091.479, 81.33788
1091.961, 82.24268
1092.443, 82.42043
1092.925, 81.97776
1093.407, 80.17623
1093.890, 78.43348
1094.372, 78.09396
1094.854, 78.95769
1095.336, 80.53350
1095.818, 82.89553
1096.300, 84.17441
1096.782, 83.16502
1097.264, 81.77666
1097.746, 80.19055
1098.229, 79.05486
1098.711, 79.06007
1099.193, 79.79758
1099.675, 80.61658
1100.157, 81.41999
1100.639, 81.83395
1101.121, 81.41066
1101.603, 81.09006
1102.086, 81.21153
1102.568, 81.41705
1103.050, 81.73089
1103.532, 81.84583
1104.014, 81.13608
1104.496, 79.68924
1104.978, 78.78579
1105.460, 78.81802
1105.943, 79.10577
1106.425, 79.91919
1106.907, 80.51363
1107.389, 80.11967
1107.871, 79.67255
1108.353, 80.52199
1108.835, 82.27415
1109.317, 82.88512
1109.799, 81.49068
1110.281, 80.72905
1110.764, 81.40900
1111.246, 81.91761
1111.728, 81.92425
1112.210, 81.47232
1112.692, 80.10087
1113.174, 78.39430
1113.656, 77.98252
1114.138, 79.30311
1114.621, 79.92674
1115.103, 79.21825
1115.585, 78.86391
1116.067, 79.56078
1116.549, 80.08210
1117.031, 79.40452
1117.513, 78.36845
1117.995, 78.44621
1118.478, 79.65565
1118.960, 80.26953
1119.442, 80.00120
1119.924, 79.84257
1120.406, 80.10452
1120.888, 79.92981
1121.370, 78.45466
1121.852, 77.19975
1122.334, 78.19967
1122.817, 80.88163
1123.299, 82.04929
1123.781, 81.33473
1124.263, 80.56191
1124.745, 79.63018
1125.227, 79.17599
1125.709, 79.43762
1126.191, 80.11243
1126.673, 81.01431
1127.156, 82.04137
1127.638, 83.07909
1128.120, 84.15862
1128.602, 84.00481
1129.084, 82.48069
1129.566, 81.05569
1130.048, 79.99178
1130.530, 79.39574
1131.013, 79.36109
1131.495, 79.68999
1131.977, 80.19923
1132.459, 80.75583
1132.941, 80.48891
1133.423, 79.49920
1133.905, 79.35004
1134.387, 80.16863
1134.870, 80.78516
1135.352, 80.73840
1135.834, 80.46486
1136.316, 80.37949
1136.798, 80.35423
1137.280, 80.10816
1137.762, 79.69099
1138.244, 79.23183
1138.726, 78.76688
1139.208, 78.32433
1139.691, 77.96400
1140.173, 78.10641
1140.655, 79.06337
1141.137, 80.19368
1141.619, 80.96030
1142.101, 81.17036
1142.583, 79.81168
1143.065, 77.85763
1143.548, 77.24290
1144.030, 78.24645
1144.512, 81.31528
1144.994, 86.43222
1145.476, 89.73267
1145.958, 86.88680
1146.440, 82.40458
1146.922, 80.47903
1147.405, 79.87556
1147.887, 79.03442
1148.369, 78.23994
1148.851, 78.76717
1149.333, 80.52119
1149.815, 81.37650
1150.297, 79.98775
1150.779, 78.46545
1151.261, 77.84972
1151.744, 77.77113
1152.226, 78.25137
1152.708, 78.90485
1153.190, 79.24775
1153.672, 79.37515
1154.154, 79.72160
1154.636, 80.40819
1155.118, 81.14828
1155.600, 82.39594
1156.083, 82.94761
1156.565, 81.72256
1157.047, 80.34157
1157.529, 80.02783
1158.011, 80.26476
1158.493, 79.99088
1158.975, 79.17842
1159.457, 79.24706
1159.940, 81.31736
1160.422, 82.57194
1160.904, 82.45766
1161.386, 82.21326
1161.868, 82.43074
1162.350, 82.45374
1162.832, 81.42850
1163.314, 79.86072
1163.796, 79.40755
1164.279, 80.34241
1164.761, 80.86167
1165.243, 80.85647
1165.725, 80.85385
1166.207, 81.06079
1166.689, 80.86301
1167.171, 79.80096
1167.653, 78.44772
1168.135, 77.57194
1168.618, 77.15606
1169.100, 77.06755
1169.582, 77.30974
1170.064, 78.51036
1170.546, 80.67791
1171.028, 81.43998
1171.510, 80.00685
1171.992, 78.19431
1172.474, 77.39180
1172.957, 77.43067
1173.439, 78.32948
1173.921, 79.73463
1174.403, 80.65962
1174.885, 81.15249
1175.367, 81.39263
1175.849, 81.45195
1176.331, 81.47538
1176.814, 81.52229
1177.296, 81.43521
1177.778, 81.04784
1178.260, 80.49117
1178.742, 79.72664
1179.224, 79.02798
1179.706, 78.83802
1180.188, 78.98460
1180.671, 78.96275
1181.153, 78.79523
1181.635, 79.26096
1182.117, 81.09220
1182.599, 82.16577
1183.081, 80.44790
1183.563, 78.67296
1184.045, 78.53432
1184.527, 79.18249
1185.010, 80.28526
1185.492, 81.27432
1185.974, 80.83138
1186.456, 78.66443
1186.938, 77.35107
1187.420, 77.92491
1187.902, 78.43984
1188.384, 77.32482
1188.866, 77.63628
1189.349, 79.06794
1189.831, 84.17809
1190.313, 98.43635
1190.795, 118.0356
1191.277, 127.4702
1191.759, 124.2088
1192.241, 121.7291
1192.723, 120.2854
1193.206, 118.4992
1193.688, 115.6033
1194.170, 114.4535
1194.652, 117.0643
1195.134, 121.0941
1195.616, 123.4850
1196.098, 124.2227
1196.580, 122.3648
1197.063, 118.3796
1197.545, 117.3978
1198.027, 119.4489
1198.509, 121.0809
1198.991, 121.2685
1199.473, 120.5128
1199.955, 119.0601
1200.437, 117.6491
1200.919, 116.4581
1201.401, 116.5101
1201.884, 122.8655
1202.366, 130.2011
1202.848, 126.3417
1203.330, 113.7722
1203.812, 103.4694
1204.294, 98.71098
1204.776, 95.58957
1205.258, 92.08377
1205.741, 89.16427
1206.223, 87.74043
1206.705, 86.85905
1207.187, 86.10215
1207.669, 85.21255
1208.151, 83.70730
1208.633, 81.86816
1209.115, 80.59136
1209.598, 80.05740
1210.080, 79.91526
1210.562, 80.39991
1211.044, 80.84215
1211.526, 81.18201
1212.008, 81.36604
1212.490, 81.40183
1212.972, 81.21928
1213.454, 80.60204
1213.937, 79.72322
1214.419, 79.43179
1214.901, 79.79756
1215.383, 80.55715
1215.865, 81.91377
1216.347, 82.23720
1216.829, 81.01995
1217.311, 80.06506
1217.793, 80.48958
1218.276, 81.15444
1218.758, 80.43846
1219.240, 78.92716
1219.722, 78.27046
1220.204, 78.25552
1220.686, 77.93459
1221.168, 77.50710
1221.650, 78.39292
1222.133, 80.59828
1222.615, 81.97054
1223.097, 81.24275
1223.579, 79.92715
1224.061, 79.04001
1224.543, 78.59475
1225.025, 78.74606
1225.507, 79.24243
1225.990, 80.17744
1226.472, 81.05885
1226.954, 80.77441
1227.436, 79.32811
1227.918, 78.50233
1228.400, 79.17784
1228.882, 79.73167
1229.364, 79.49840
1229.846, 79.45956
1230.328, 80.35969
1230.811, 81.22780
1231.293, 81.33084
1231.775, 80.90659
1232.257, 80.33251
1232.739, 79.61097
1233.221, 79.08042
1233.703, 78.77039
1234.185, 78.47298
1234.668, 78.11701
1235.150, 78.14677
1235.632, 78.74696
1236.114, 79.41625
1236.596, 79.74684
1237.078, 80.01118
1237.560, 80.83904
1238.042, 81.93301
1238.525, 82.62197
1239.007, 82.67753
1239.489, 80.56287
1239.971, 77.09060
1240.453, 75.92262
1240.935, 77.83695
1241.417, 79.55676
1241.899, 78.86124
1242.381, 78.07032
1242.864, 79.51191
1243.346, 81.10538
1243.828, 80.78915
1244.310, 79.93049
1244.792, 80.51375
1245.274, 81.74049
1245.756, 81.63937
1246.238, 79.91784
1246.720, 77.38706
1247.203, 71.80569
1247.685, 69.36097
1248.167, 72.69751
1248.649, 75.79620
1249.131, 76.80203
1249.613, 77.04787
1250.095, 77.39287
1250.577, 77.87296
1251.059, 78.63914
1251.542, 79.62447
1252.024, 79.86345
1252.506, 79.36560
1252.988, 79.62511
1253.470, 80.70071
1253.952, 80.86640
1254.434, 79.66109
1254.916, 78.54993
1255.399, 78.51833
1255.881, 79.38872
1256.363, 81.43516
1256.845, 83.81751
1257.327, 86.02779
1257.809, 87.23128
1258.291, 85.42355
1258.773, 81.83275
1259.255, 78.91539
1259.738, 77.34079
1260.220, 77.43433
1260.702, 80.21457
1261.184, 82.14436
1261.666, 81.49953
1262.148, 80.59615
1262.630, 79.99509
1263.112, 79.83958
1263.594, 80.70830
1264.077, 81.66593
1264.559, 81.07698
1265.041, 79.24992
1265.523, 79.11434
1266.005, 81.30519
1266.487, 80.89259
1266.969, 77.24716
1267.451, 76.26888
1267.934, 79.43914
1268.416, 82.18722
1268.898, 81.93917
1269.380, 80.46669
1269.862, 79.61496
1270.344, 79.33151
1270.826, 79.77525
1271.308, 80.56170
1271.791, 80.88317
1272.273, 80.98194
1272.755, 81.68895
1273.237, 82.83350
1273.719, 83.27916
1274.201, 82.61781
1274.683, 81.67885
1275.165, 80.34529
1275.647, 79.50102
1276.130, 79.85866
1276.612, 80.34747
1277.094, 80.40030
1277.576, 80.21510
1278.058, 79.91540
1278.540, 79.61257
1279.022, 79.65043
1279.504, 80.06789
1279.986, 80.31827
1280.469, 80.41234
1280.951, 80.20516
1281.433, 79.66385
1281.915, 79.01955
1282.397, 78.34872
1282.879, 78.01817
1283.361, 78.36793
1283.843, 78.88152
1284.326, 78.94836
1284.808, 78.56056
##END=



