##NAMES=Pararobertsite
##RRUFFID=R120119
##IDEAL CHEMISTRY=Ca_2_Mn^3+^_3_O_2_(PO_4_)_3_&#183;3H_2_O
##LOCALITY=Tip Top mine, Custer, South Dakota, USA
##OWNER=RRUFF
##SOURCE=Thomas A. Loomis. Anthony R. Kampf provided a few crystals (Kampf 2000).
##DESCRIPTION=Spherical aggregate of brown platy crystals on colorless bobdownsite
##STATUS=The identification of this mineral has been confirmed only by single crystal X-ray diffraction.
##URL=rruff.info/R120119
9.112140e+001, 0.000000e+000
9.160352e+001, 7.893157e+002
9.208563e+001, 7.729948e+002
9.256775e+001, 7.711998e+002
9.304987e+001, 7.921266e+002
9.353198e+001, 8.167003e+002
9.401410e+001, 8.291788e+002
9.449622e+001, 8.311365e+002
9.497833e+001, 8.283602e+002
9.546045e+001, 8.252932e+002
9.594257e+001, 8.218484e+002
9.642468e+001, 8.181194e+002
9.690680e+001, 8.153672e+002
9.738892e+001, 8.122636e+002
9.787103e+001, 8.083639e+002
9.835315e+001, 8.027977e+002
9.883527e+001, 7.955065e+002
9.931738e+001, 7.885929e+002
9.979950e+001, 7.821393e+002
1.002816e+002, 7.769287e+002
1.007637e+002, 7.724054e+002
1.012458e+002, 7.688994e+002
1.017280e+002, 7.671035e+002
1.022101e+002, 7.672426e+002
1.026922e+002, 7.680741e+002
1.031743e+002, 7.675079e+002
1.036564e+002, 7.655361e+002
1.041385e+002, 7.633421e+002
1.046207e+002, 7.610565e+002
1.051028e+002, 7.587610e+002
1.055849e+002, 7.568067e+002
1.060670e+002, 7.554112e+002
1.065491e+002, 7.539918e+002
1.070313e+002, 7.520115e+002
1.075134e+002, 7.493938e+002
1.079955e+002, 7.463405e+002
1.084776e+002, 7.430001e+002
1.089597e+002, 7.393084e+002
1.094418e+002, 7.354673e+002
1.099240e+002, 7.312672e+002
1.104061e+002, 7.270560e+002
1.108882e+002, 7.231524e+002
1.113703e+002, 7.196825e+002
1.118524e+002, 7.164999e+002
1.123345e+002, 7.131993e+002
1.128167e+002, 7.094160e+002
1.132988e+002, 7.060313e+002
1.137809e+002, 7.028690e+002
1.142630e+002, 7.002076e+002
1.147451e+002, 6.985391e+002
1.152272e+002, 6.982819e+002
1.157094e+002, 6.993023e+002
1.161915e+002, 6.990798e+002
1.166736e+002, 6.960049e+002
1.171557e+002, 6.934495e+002
1.176378e+002, 6.928974e+002
1.181199e+002, 6.939962e+002
1.186021e+002, 6.953224e+002
1.190842e+002, 6.957098e+002
1.195663e+002, 6.950402e+002
1.200484e+002, 6.944061e+002
1.205305e+002, 6.935671e+002
1.210126e+002, 6.928845e+002
1.214948e+002, 6.926691e+002
1.219769e+002, 6.929631e+002
1.224590e+002, 6.936395e+002
1.229411e+002, 6.949158e+002
1.234232e+002, 6.965872e+002
1.239053e+002, 6.978698e+002
1.243875e+002, 6.984310e+002
1.248696e+002, 6.983971e+002
1.253517e+002, 6.980723e+002
1.258338e+002, 6.973283e+002
1.263159e+002, 6.965056e+002
1.267980e+002, 6.959059e+002
1.272802e+002, 6.954786e+002
1.277623e+002, 6.949855e+002
1.282444e+002, 6.944700e+002
1.287265e+002, 6.940297e+002
1.292086e+002, 6.925668e+002
1.296907e+002, 6.886563e+002
1.301729e+002, 6.846298e+002
1.306550e+002, 6.813564e+002
1.311371e+002, 6.790309e+002
1.316192e+002, 6.775090e+002
1.321013e+002, 6.767217e+002
1.325834e+002, 6.772883e+002
1.330656e+002, 6.773645e+002
1.335477e+002, 6.760251e+002
1.340298e+002, 6.747826e+002
1.345119e+002, 6.749633e+002
1.349940e+002, 6.769686e+002
1.354761e+002, 6.800493e+002
1.359583e+002, 6.825004e+002
1.364404e+002, 6.839287e+002
1.369225e+002, 6.851560e+002
1.374046e+002, 6.862000e+002
1.378867e+002, 6.870757e+002
1.383688e+002, 6.878320e+002
1.388510e+002, 6.885286e+002
1.393331e+002, 6.890456e+002
1.398152e+002, 6.889579e+002
1.402973e+002, 6.879889e+002
1.407794e+002, 6.869675e+002
1.412615e+002, 6.861575e+002
1.417437e+002, 6.855574e+002
1.422258e+002, 6.851525e+002
1.427079e+002, 6.849625e+002
1.431900e+002, 6.849789e+002
1.436721e+002, 6.851111e+002
1.441542e+002, 6.853276e+002
1.446364e+002, 6.856921e+002
1.451185e+002, 6.863575e+002
1.456006e+002, 6.873895e+002
1.460827e+002, 6.883195e+002
1.465648e+002, 6.889709e+002
1.470469e+002, 6.893750e+002
1.475291e+002, 6.895306e+002
1.480112e+002, 6.894600e+002
1.484933e+002, 6.891213e+002
1.489754e+002, 6.884620e+002
1.494575e+002, 6.876418e+002
1.499396e+002, 6.861142e+002
1.504218e+002, 6.834745e+002
1.509039e+002, 6.802150e+002
1.513860e+002, 6.769837e+002
1.518681e+002, 6.741526e+002
1.523502e+002, 6.716617e+002
1.528323e+002, 6.691464e+002
1.533145e+002, 6.659932e+002
1.537966e+002, 6.634501e+002
1.542787e+002, 6.619405e+002
1.547608e+002, 6.612371e+002
1.552429e+002, 6.608782e+002
1.557250e+002, 6.605254e+002
1.562072e+002, 6.601799e+002
1.566893e+002, 6.597892e+002
1.571714e+002, 6.591993e+002
1.576535e+002, 6.587012e+002
1.581356e+002, 6.583389e+002
1.586177e+002, 6.581548e+002
1.590999e+002, 6.582552e+002
1.595820e+002, 6.587832e+002
1.600641e+002, 6.598329e+002
1.605462e+002, 6.607142e+002
1.610283e+002, 6.607546e+002
1.615104e+002, 6.610734e+002
1.619926e+002, 6.626312e+002
1.624747e+002, 6.655416e+002
1.629568e+002, 6.690898e+002
1.634389e+002, 6.727928e+002
1.639210e+002, 6.766302e+002
1.644031e+002, 6.797880e+002
1.648853e+002, 6.816838e+002
1.653674e+002, 6.829468e+002
1.658495e+002, 6.843688e+002
1.663316e+002, 6.860024e+002
1.668137e+002, 6.880108e+002
1.672958e+002, 6.907665e+002
1.677780e+002, 6.940883e+002
1.682601e+002, 6.973002e+002
1.687422e+002, 7.000798e+002
1.692243e+002, 7.024912e+002
1.697064e+002, 7.048533e+002
1.701885e+002, 7.078007e+002
1.706707e+002, 7.097960e+002
1.711528e+002, 7.095662e+002
1.716349e+002, 7.075112e+002
1.721170e+002, 7.053192e+002
1.725991e+002, 7.042028e+002
1.730812e+002, 7.041887e+002
1.735634e+002, 7.046769e+002
1.740455e+002, 7.057844e+002
1.745276e+002, 7.073535e+002
1.750097e+002, 7.096036e+002
1.754918e+002, 7.123854e+002
1.759739e+002, 7.151660e+002
1.764561e+002, 7.174124e+002
1.769382e+002, 7.191559e+002
1.774203e+002, 7.202388e+002
1.779024e+002, 7.203925e+002
1.783845e+002, 7.201773e+002
1.788666e+002, 7.195502e+002
1.793488e+002, 7.186810e+002
1.798309e+002, 7.181094e+002
1.803130e+002, 7.187051e+002
1.807951e+002, 7.215286e+002
1.812772e+002, 7.230674e+002
1.817593e+002, 7.220323e+002
1.822415e+002, 7.207111e+002
1.827236e+002, 7.211478e+002
1.832057e+002, 7.237059e+002
1.836878e+002, 7.268049e+002
1.841699e+002, 7.280340e+002
1.846520e+002, 7.263119e+002
1.851342e+002, 7.246080e+002
1.856163e+002, 7.234864e+002
1.860984e+002, 7.221918e+002
1.865805e+002, 7.198835e+002
1.870626e+002, 7.162992e+002
1.875447e+002, 7.118356e+002
1.880269e+002, 7.069240e+002
1.885090e+002, 7.013668e+002
1.889911e+002, 6.961848e+002
1.894732e+002, 6.916770e+002
1.899553e+002, 6.876830e+002
1.904374e+002, 6.839882e+002
1.909196e+002, 6.804964e+002
1.914017e+002, 6.772839e+002
1.918838e+002, 6.743886e+002
1.923659e+002, 6.717806e+002
1.928480e+002, 6.694845e+002
1.933301e+002, 6.677065e+002
1.938123e+002, 6.662961e+002
1.942944e+002, 6.648167e+002
1.947765e+002, 6.636144e+002
1.952586e+002, 6.616368e+002
1.957407e+002, 6.580239e+002
1.962228e+002, 6.527712e+002
1.967050e+002, 6.465897e+002
1.971871e+002, 6.393389e+002
1.976692e+002, 6.311156e+002
1.981513e+002, 6.241068e+002
1.986334e+002, 6.191523e+002
1.991155e+002, 6.153537e+002
1.995977e+002, 6.122479e+002
2.000798e+002, 6.097613e+002
2.005619e+002, 6.076594e+002
2.010440e+002, 6.056392e+002
2.015261e+002, 6.036190e+002
2.020082e+002, 6.021874e+002
2.024904e+002, 6.022786e+002
2.029725e+002, 6.023768e+002
2.034546e+002, 6.016914e+002
2.039367e+002, 6.001452e+002
2.044188e+002, 5.981953e+002
2.049009e+002, 5.963025e+002
2.053831e+002, 5.943334e+002
2.058652e+002, 5.928717e+002
2.063473e+002, 5.926481e+002
2.068294e+002, 5.923635e+002
2.073115e+002, 5.911309e+002
2.077936e+002, 5.888831e+002
2.082758e+002, 5.862786e+002
2.087579e+002, 5.842659e+002
2.092400e+002, 5.832018e+002
2.097221e+002, 5.819802e+002
2.102042e+002, 5.802878e+002
2.106863e+002, 5.786814e+002
2.111685e+002, 5.774984e+002
2.116506e+002, 5.768185e+002
2.121327e+002, 5.765438e+002
2.126148e+002, 5.765610e+002
2.130969e+002, 5.770967e+002
2.135790e+002, 5.774586e+002
2.140612e+002, 5.779506e+002
2.145433e+002, 5.781061e+002
2.150254e+002, 5.771121e+002
2.155075e+002, 5.749063e+002
2.159896e+002, 5.727568e+002
2.164717e+002, 5.725576e+002
2.169539e+002, 5.754387e+002
2.174360e+002, 5.777502e+002
2.179181e+002, 5.793187e+002
2.184002e+002, 5.803541e+002
2.188823e+002, 5.808395e+002
2.193644e+002, 5.807615e+002
2.198466e+002, 5.807274e+002
2.203287e+002, 5.816468e+002
2.208108e+002, 5.836942e+002
2.212929e+002, 5.857075e+002
2.217750e+002, 5.876786e+002
2.222571e+002, 5.894836e+002
2.227393e+002, 5.908075e+002
2.232214e+002, 5.914991e+002
2.237035e+002, 5.922177e+002
2.241856e+002, 5.941205e+002
2.246677e+002, 5.971111e+002
2.251498e+002, 5.994265e+002
2.256320e+002, 5.997957e+002
2.261141e+002, 5.994083e+002
2.265962e+002, 6.002794e+002
2.270783e+002, 6.029124e+002
2.275604e+002, 6.063079e+002
2.280425e+002, 6.097811e+002
2.285247e+002, 6.132629e+002
2.290068e+002, 6.164670e+002
2.294889e+002, 6.189335e+002
2.299710e+002, 6.210458e+002
2.304531e+002, 6.237892e+002
2.309352e+002, 6.275385e+002
2.314174e+002, 6.313043e+002
2.318995e+002, 6.339720e+002
2.323816e+002, 6.359747e+002
2.328637e+002, 6.385423e+002
2.333458e+002, 6.426064e+002
2.338279e+002, 6.477266e+002
2.343101e+002, 6.526165e+002
2.347922e+002, 6.573504e+002
2.352743e+002, 6.615478e+002
2.357564e+002, 6.646215e+002
2.362385e+002, 6.670704e+002
2.367206e+002, 6.699464e+002
2.372028e+002, 6.739633e+002
2.376849e+002, 6.788719e+002
2.381670e+002, 6.837075e+002
2.386491e+002, 6.885286e+002
2.391312e+002, 6.931596e+002
2.396133e+002, 6.977224e+002
2.400955e+002, 7.020793e+002
2.405776e+002, 7.059992e+002
2.410597e+002, 7.091348e+002
2.415418e+002, 7.117638e+002
2.420239e+002, 7.151602e+002
2.425060e+002, 7.196185e+002
2.429882e+002, 7.245670e+002
2.434703e+002, 7.302482e+002
2.439524e+002, 7.361845e+002
2.444345e+002, 7.417021e+002
2.449166e+002, 7.463646e+002
2.453987e+002, 7.503659e+002
2.458809e+002, 7.545381e+002
2.463630e+002, 7.591726e+002
2.468451e+002, 7.635889e+002
2.473272e+002, 7.674568e+002
2.478093e+002, 7.710934e+002
2.482914e+002, 7.749057e+002
2.487736e+002, 7.791332e+002
2.492557e+002, 7.836500e+002
2.497378e+002, 7.878781e+002
2.502199e+002, 7.912934e+002
2.507020e+002, 7.951047e+002
2.511841e+002, 7.994077e+002
2.516663e+002, 8.041789e+002
2.521484e+002, 8.095237e+002
2.526305e+002, 8.155414e+002
2.531126e+002, 8.218228e+002
2.535947e+002, 8.272054e+002
2.540768e+002, 8.305934e+002
2.545590e+002, 8.342784e+002
2.550411e+002, 8.386289e+002
2.555232e+002, 8.432642e+002
2.560053e+002, 8.481280e+002
2.564874e+002, 8.531651e+002
2.569695e+002, 8.577294e+002
2.574517e+002, 8.602507e+002
2.579338e+002, 8.587184e+002
2.584159e+002, 8.573414e+002
2.588980e+002, 8.569170e+002
2.593801e+002, 8.563271e+002
2.598622e+002, 8.544305e+002
2.603444e+002, 8.508281e+002
2.608265e+002, 8.458273e+002
2.613086e+002, 8.399595e+002
2.617907e+002, 8.321428e+002
2.622728e+002, 8.250768e+002
2.627549e+002, 8.192095e+002
2.632371e+002, 8.138694e+002
2.637192e+002, 8.082363e+002
2.642013e+002, 8.021017e+002
2.646834e+002, 7.962252e+002
2.651655e+002, 7.917328e+002
2.656476e+002, 7.890513e+002
2.661298e+002, 7.870767e+002
2.666119e+002, 7.862711e+002
2.670940e+002, 7.858943e+002
2.675761e+002, 7.850743e+002
2.680582e+002, 7.836738e+002
2.685403e+002, 7.825677e+002
2.690225e+002, 7.828654e+002
2.695046e+002, 7.849737e+002
2.699867e+002, 7.869045e+002
2.704688e+002, 7.883937e+002
2.709509e+002, 7.898299e+002
2.714330e+002, 7.914996e+002
2.719152e+002, 7.934427e+002
2.723973e+002, 7.956782e+002
2.728794e+002, 7.983920e+002
2.733615e+002, 8.016162e+002
2.738436e+002, 8.040285e+002
2.743257e+002, 8.051240e+002
2.748079e+002, 8.057507e+002
2.752900e+002, 8.067891e+002
2.757721e+002, 8.082107e+002
2.762542e+002, 8.089533e+002
2.767363e+002, 8.081636e+002
2.772184e+002, 8.058284e+002
2.777006e+002, 8.031622e+002
2.781827e+002, 8.000859e+002
2.786648e+002, 7.967547e+002
2.791469e+002, 7.934006e+002
2.796290e+002, 7.899808e+002
2.801111e+002, 7.859851e+002
2.805933e+002, 7.806769e+002
2.810754e+002, 7.747167e+002
2.815575e+002, 7.702320e+002
2.820396e+002, 7.681966e+002
2.825217e+002, 7.664482e+002
2.830038e+002, 7.634439e+002
2.834860e+002, 7.594625e+002
2.839681e+002, 7.559293e+002
2.844502e+002, 7.535060e+002
2.849323e+002, 7.519591e+002
2.854144e+002, 7.507415e+002
2.858965e+002, 7.501271e+002
2.863787e+002, 7.491873e+002
2.868608e+002, 7.470203e+002
2.873429e+002, 7.440176e+002
2.878250e+002, 7.416396e+002
2.883071e+002, 7.405804e+002
2.887892e+002, 7.400662e+002
2.892714e+002, 7.391072e+002
2.897535e+002, 7.377686e+002
2.902356e+002, 7.357754e+002
2.907177e+002, 7.323150e+002
2.911998e+002, 7.280733e+002
2.916819e+002, 7.249167e+002
2.921641e+002, 7.234775e+002
2.926462e+002, 7.227964e+002
2.931283e+002, 7.219228e+002
2.936104e+002, 7.208788e+002
2.940925e+002, 7.197383e+002
2.945746e+002, 7.185627e+002
2.950568e+002, 7.173085e+002
2.955389e+002, 7.157916e+002
2.960210e+002, 7.138553e+002
2.965031e+002, 7.120658e+002
2.969852e+002, 7.110107e+002
2.974673e+002, 7.104957e+002
2.979495e+002, 7.100681e+002
2.984316e+002, 7.096230e+002
2.989137e+002, 7.091690e+002
2.993958e+002, 7.085909e+002
2.998779e+002, 7.077808e+002
3.003600e+002, 7.073674e+002
3.008422e+002, 7.079045e+002
3.013243e+002, 7.091230e+002
3.018064e+002, 7.106930e+002
3.022885e+002, 7.130536e+002
3.027706e+002, 7.152626e+002
3.032527e+002, 7.161575e+002
3.037349e+002, 7.156769e+002
3.042170e+002, 7.147610e+002
3.046991e+002, 7.133499e+002
3.051812e+002, 7.120068e+002
3.056633e+002, 7.115396e+002
3.061454e+002, 7.122449e+002
3.066276e+002, 7.133580e+002
3.071097e+002, 7.142415e+002
3.075918e+002, 7.149131e+002
3.080739e+002, 7.158116e+002
3.085560e+002, 7.177781e+002
3.090381e+002, 7.193253e+002
3.095203e+002, 7.185637e+002
3.100024e+002, 7.152203e+002
3.104845e+002, 7.118741e+002
3.109666e+002, 7.106068e+002
3.114487e+002, 7.109529e+002
3.119308e+002, 7.105158e+002
3.124130e+002, 7.083384e+002
3.128951e+002, 7.059880e+002
3.133772e+002, 7.052835e+002
3.138593e+002, 7.059268e+002
3.143414e+002, 7.059371e+002
3.148235e+002, 7.042684e+002
3.153057e+002, 7.012425e+002
3.157878e+002, 6.973266e+002
3.162699e+002, 6.919581e+002
3.167520e+002, 6.871948e+002
3.172341e+002, 6.855029e+002
3.177162e+002, 6.855876e+002
3.181984e+002, 6.845732e+002
3.186805e+002, 6.805803e+002
3.191626e+002, 6.752987e+002
3.196447e+002, 6.714283e+002
3.201268e+002, 6.691861e+002
3.206089e+002, 6.672963e+002
3.210911e+002, 6.652281e+002
3.215732e+002, 6.630089e+002
3.220553e+002, 6.605949e+002
3.225374e+002, 6.577182e+002
3.230195e+002, 6.550515e+002
3.235016e+002, 6.535104e+002
3.239838e+002, 6.530961e+002
3.244659e+002, 6.525404e+002
3.249480e+002, 6.513463e+002
3.254301e+002, 6.497602e+002
3.259122e+002, 6.480287e+002
3.263943e+002, 6.460783e+002
3.268765e+002, 6.443577e+002
3.273586e+002, 6.433453e+002
3.278407e+002, 6.429036e+002
3.283228e+002, 6.422587e+002
3.288049e+002, 6.410862e+002
3.292870e+002, 6.398681e+002
3.297692e+002, 6.391029e+002
3.302513e+002, 6.387579e+002
3.307334e+002, 6.385235e+002
3.312155e+002, 6.385013e+002
3.316976e+002, 6.384628e+002
3.321797e+002, 6.377784e+002
3.326619e+002, 6.362082e+002
3.331440e+002, 6.344782e+002
3.336261e+002, 6.331793e+002
3.341082e+002, 6.321790e+002
3.345903e+002, 6.311829e+002
3.350724e+002, 6.300905e+002
3.355546e+002, 6.289709e+002
3.360367e+002, 6.280588e+002
3.365188e+002, 6.274153e+002
3.370009e+002, 6.263614e+002
3.374830e+002, 6.243307e+002
3.379651e+002, 6.216520e+002
3.384473e+002, 6.189969e+002
3.389294e+002, 6.165588e+002
3.394115e+002, 6.139665e+002
3.398936e+002, 6.106339e+002
3.403757e+002, 6.067094e+002
3.408578e+002, 6.035311e+002
3.413400e+002, 6.020428e+002
3.418221e+002, 6.010607e+002
3.423042e+002, 5.986394e+002
3.427863e+002, 5.945013e+002
3.432684e+002, 5.905152e+002
3.437505e+002, 5.877141e+002
3.442327e+002, 5.857332e+002
3.447148e+002, 5.836052e+002
3.451969e+002, 5.809818e+002
3.456790e+002, 5.785641e+002
3.461611e+002, 5.776714e+002
3.466432e+002, 5.780218e+002
3.471254e+002, 5.775245e+002
3.476075e+002, 5.748733e+002
3.480896e+002, 5.714540e+002
3.485717e+002, 5.689807e+002
3.490538e+002, 5.676031e+002
3.495359e+002, 5.666861e+002
3.500181e+002, 5.658715e+002
3.505002e+002, 5.651518e+002
3.509823e+002, 5.644627e+002
3.514644e+002, 5.635612e+002
3.519465e+002, 5.629000e+002
3.524286e+002, 5.629854e+002
3.529108e+002, 5.636588e+002
3.533929e+002, 5.641199e+002
3.538750e+002, 5.638795e+002
3.543571e+002, 5.632901e+002
3.548392e+002, 5.632525e+002
3.553214e+002, 5.639476e+002
3.558035e+002, 5.646842e+002
3.562856e+002, 5.653222e+002
3.567677e+002, 5.658161e+002
3.572498e+002, 5.659764e+002
3.577319e+002, 5.656896e+002
3.582141e+002, 5.653976e+002
3.586962e+002, 5.658206e+002
3.591783e+002, 5.671273e+002
3.596604e+002, 5.680765e+002
3.601425e+002, 5.681703e+002
3.606246e+002, 5.680729e+002
3.611068e+002, 5.684135e+002
3.615889e+002, 5.692469e+002
3.620710e+002, 5.702552e+002
3.625531e+002, 5.712462e+002
3.630352e+002, 5.722018e+002
3.635173e+002, 5.727843e+002
3.639995e+002, 5.730551e+002
3.644816e+002, 5.729417e+002
3.649637e+002, 5.721404e+002
3.654458e+002, 5.709066e+002
3.659279e+002, 5.698922e+002
3.664100e+002, 5.694630e+002
3.668922e+002, 5.694188e+002
3.673743e+002, 5.691246e+002
3.678564e+002, 5.688554e+002
3.683385e+002, 5.679730e+002
3.688206e+002, 5.658714e+002
3.693027e+002, 5.633294e+002
3.697849e+002, 5.613834e+002
3.702670e+002, 5.602991e+002
3.707491e+002, 5.593426e+002
3.712312e+002, 5.574551e+002
3.717133e+002, 5.542008e+002
3.721954e+002, 5.513300e+002
3.726776e+002, 5.491673e+002
3.731597e+002, 5.470977e+002
3.736418e+002, 5.446555e+002
3.741239e+002, 5.419102e+002
3.746060e+002, 5.392429e+002
3.750881e+002, 5.369023e+002
3.755703e+002, 5.349039e+002
3.760524e+002, 5.333673e+002
3.765345e+002, 5.327195e+002
3.770166e+002, 5.320292e+002
3.774987e+002, 5.310959e+002
3.779808e+002, 5.299866e+002
3.784630e+002, 5.286780e+002
3.789451e+002, 5.271545e+002
3.794272e+002, 5.257469e+002
3.799093e+002, 5.253214e+002
3.803914e+002, 5.269321e+002
3.808735e+002, 5.277653e+002
3.813557e+002, 5.271579e+002
3.818378e+002, 5.262175e+002
3.823199e+002, 5.255730e+002
3.828020e+002, 5.254109e+002
3.832841e+002, 5.258051e+002
3.837662e+002, 5.270444e+002
3.842484e+002, 5.294001e+002
3.847305e+002, 5.307081e+002
3.852126e+002, 5.297144e+002
3.856947e+002, 5.288369e+002
3.861768e+002, 5.286339e+002
3.866589e+002, 5.291451e+002
3.871411e+002, 5.304035e+002
3.876232e+002, 5.325839e+002
3.881053e+002, 5.352944e+002
3.885874e+002, 5.370153e+002
3.890695e+002, 5.370160e+002
3.895516e+002, 5.373932e+002
3.900338e+002, 5.388621e+002
3.905159e+002, 5.407473e+002
3.909980e+002, 5.423386e+002
3.914801e+002, 5.434520e+002
3.919622e+002, 5.446681e+002
3.924443e+002, 5.470311e+002
3.929265e+002, 5.507626e+002
3.934086e+002, 5.534684e+002
3.938907e+002, 5.541600e+002
3.943728e+002, 5.543439e+002
3.948549e+002, 5.545046e+002
3.953370e+002, 5.548331e+002
3.958192e+002, 5.558166e+002
3.963013e+002, 5.579566e+002
3.967834e+002, 5.609924e+002
3.972655e+002, 5.641285e+002
3.977476e+002, 5.674796e+002
3.982297e+002, 5.706141e+002
3.987119e+002, 5.733074e+002
3.991940e+002, 5.756530e+002
3.996761e+002, 5.777242e+002
4.001582e+002, 5.795604e+002
4.006403e+002, 5.810770e+002
4.011224e+002, 5.821366e+002
4.016046e+002, 5.827591e+002
4.020867e+002, 5.832102e+002
4.025688e+002, 5.837214e+002
4.030509e+002, 5.838821e+002
4.035330e+002, 5.830957e+002
4.040151e+002, 5.813428e+002
4.044973e+002, 5.797194e+002
4.049794e+002, 5.787902e+002
4.054615e+002, 5.782776e+002
4.059436e+002, 5.779659e+002
4.064257e+002, 5.779492e+002
4.069078e+002, 5.771786e+002
4.073900e+002, 5.743515e+002
4.078721e+002, 5.699014e+002
4.083542e+002, 5.662102e+002
4.088363e+002, 5.635809e+002
4.093184e+002, 5.616407e+002
4.098005e+002, 5.606071e+002
4.102827e+002, 5.601776e+002
4.107648e+002, 5.593377e+002
4.112469e+002, 5.576242e+002
4.117290e+002, 5.552853e+002
4.122111e+002, 5.527580e+002
4.126932e+002, 5.497385e+002
4.131754e+002, 5.472913e+002
4.136575e+002, 5.459203e+002
4.141396e+002, 5.450389e+002
4.146217e+002, 5.443074e+002
4.151038e+002, 5.435734e+002
4.155859e+002, 5.422150e+002
4.160681e+002, 5.394420e+002
4.165502e+002, 5.350347e+002
4.170323e+002, 5.316782e+002
4.175144e+002, 5.299715e+002
4.179965e+002, 5.285035e+002
4.184786e+002, 5.267753e+002
4.189608e+002, 5.248618e+002
4.194429e+002, 5.229233e+002
4.199250e+002, 5.210328e+002
4.204071e+002, 5.192786e+002
4.208892e+002, 5.179236e+002
4.213713e+002, 5.174085e+002
4.218535e+002, 5.166486e+002
4.223356e+002, 5.156539e+002
4.228177e+002, 5.143943e+002
4.232998e+002, 5.127643e+002
4.237819e+002, 5.107997e+002
4.242640e+002, 5.087090e+002
4.247462e+002, 5.065773e+002
4.252283e+002, 5.043309e+002
4.257104e+002, 5.030213e+002
4.261925e+002, 5.032695e+002
4.266746e+002, 5.038637e+002
4.271567e+002, 5.048422e+002
4.276389e+002, 5.058492e+002
4.281210e+002, 5.063672e+002
4.286031e+002, 5.061278e+002
4.290852e+002, 5.053672e+002
4.295673e+002, 5.043672e+002
4.300494e+002, 5.028362e+002
4.305316e+002, 5.021087e+002
4.310137e+002, 5.031723e+002
4.314958e+002, 5.047241e+002
4.319779e+002, 5.061504e+002
4.324600e+002, 5.073452e+002
4.329421e+002, 5.081794e+002
4.334243e+002, 5.083343e+002
4.339064e+002, 5.079992e+002
4.343885e+002, 5.080453e+002
4.348706e+002, 5.086635e+002
4.353527e+002, 5.093139e+002
4.358348e+002, 5.093061e+002
4.363170e+002, 5.091445e+002
4.367991e+002, 5.098332e+002
4.372812e+002, 5.122261e+002
4.377633e+002, 5.146799e+002
4.382454e+002, 5.152508e+002
4.387275e+002, 5.142679e+002
4.392097e+002, 5.141079e+002
4.396918e+002, 5.158396e+002
4.401739e+002, 5.183666e+002
4.406560e+002, 5.200593e+002
4.411381e+002, 5.209080e+002
4.416202e+002, 5.216430e+002
4.421024e+002, 5.221263e+002
4.425845e+002, 5.227828e+002
4.430666e+002, 5.244173e+002
4.435487e+002, 5.270036e+002
4.440308e+002, 5.291700e+002
4.445129e+002, 5.296537e+002
4.449951e+002, 5.287390e+002
4.454772e+002, 5.291954e+002
4.459593e+002, 5.317599e+002
4.464414e+002, 5.346105e+002
4.469235e+002, 5.378389e+002
4.474056e+002, 5.408257e+002
4.478878e+002, 5.424539e+002
4.483699e+002, 5.423695e+002
4.488520e+002, 5.415638e+002
4.493341e+002, 5.415217e+002
4.498162e+002, 5.424111e+002
4.502983e+002, 5.436774e+002
4.507805e+002, 5.455991e+002
4.512626e+002, 5.475784e+002
4.517447e+002, 5.493600e+002
4.522268e+002, 5.509383e+002
4.527089e+002, 5.523236e+002
4.531910e+002, 5.534423e+002
4.536732e+002, 5.545129e+002
4.541553e+002, 5.565328e+002
4.546374e+002, 5.602714e+002
4.551195e+002, 5.636688e+002
4.556016e+002, 5.659053e+002
4.560837e+002, 5.680089e+002
4.565659e+002, 5.708444e+002
4.570480e+002, 5.745798e+002
4.575301e+002, 5.786954e+002
4.580122e+002, 5.830379e+002
4.584943e+002, 5.875941e+002
4.589764e+002, 5.908285e+002
4.594586e+002, 5.924115e+002
4.599407e+002, 5.929932e+002
4.604228e+002, 5.927252e+002
4.609049e+002, 5.918521e+002
4.613870e+002, 5.908166e+002
4.618691e+002, 5.898427e+002
4.623513e+002, 5.886547e+002
4.628334e+002, 5.871418e+002
4.633155e+002, 5.852770e+002
4.637976e+002, 5.822604e+002
4.642797e+002, 5.774631e+002
4.647618e+002, 5.718254e+002
4.652440e+002, 5.665076e+002
4.657261e+002, 5.615031e+002
4.662082e+002, 5.565150e+002
4.666903e+002, 5.514016e+002
4.671724e+002, 5.462528e+002
4.676545e+002, 5.411213e+002
4.681367e+002, 5.360420e+002
4.686188e+002, 5.311147e+002
4.691009e+002, 5.264413e+002
4.695830e+002, 5.220124e+002
4.700651e+002, 5.176347e+002
4.705472e+002, 5.126163e+002
4.710294e+002, 5.085298e+002
4.715115e+002, 5.062482e+002
4.719936e+002, 5.049245e+002
4.724757e+002, 5.034210e+002
4.729578e+002, 5.014728e+002
4.734399e+002, 4.997127e+002
4.739221e+002, 4.990207e+002
4.744042e+002, 4.997524e+002
4.748863e+002, 4.994645e+002
4.753684e+002, 4.976164e+002
4.758505e+002, 4.954482e+002
4.763326e+002, 4.929944e+002
4.768148e+002, 4.906215e+002
4.772969e+002, 4.888886e+002
4.777790e+002, 4.880860e+002
4.782611e+002, 4.879057e+002
4.787432e+002, 4.876619e+002
4.792253e+002, 4.871209e+002
4.797075e+002, 4.871980e+002
4.801896e+002, 4.889497e+002
4.806717e+002, 4.905581e+002
4.811538e+002, 4.908986e+002
4.816359e+002, 4.901096e+002
4.821180e+002, 4.891289e+002
4.826002e+002, 4.885555e+002
4.830823e+002, 4.882632e+002
4.835644e+002, 4.879569e+002
4.840465e+002, 4.877188e+002
4.845286e+002, 4.871585e+002
4.850107e+002, 4.858842e+002
4.854929e+002, 4.842944e+002
4.859750e+002, 4.828163e+002
4.864571e+002, 4.814931e+002
4.869392e+002, 4.803211e+002
4.874213e+002, 4.790233e+002
4.879034e+002, 4.779135e+002
4.883856e+002, 4.779288e+002
4.888677e+002, 4.793448e+002
4.893498e+002, 4.808501e+002
4.898319e+002, 4.812305e+002
4.903140e+002, 4.805755e+002
4.907961e+002, 4.804169e+002
4.912783e+002, 4.812290e+002
4.917604e+002, 4.820310e+002
4.922425e+002, 4.820639e+002
4.927246e+002, 4.818323e+002
4.932067e+002, 4.824599e+002
4.936888e+002, 4.843404e+002
4.941710e+002, 4.865976e+002
4.946531e+002, 4.878646e+002
4.951352e+002, 4.878863e+002
4.956173e+002, 4.876401e+002
4.960994e+002, 4.861854e+002
4.965815e+002, 4.854039e+002
4.970637e+002, 4.870514e+002
4.975458e+002, 4.900352e+002
4.980279e+002, 4.919491e+002
4.985100e+002, 4.913872e+002
4.989921e+002, 4.891888e+002
4.994742e+002, 4.873979e+002
4.999564e+002, 4.860774e+002
5.004385e+002, 4.850231e+002
5.009206e+002, 4.844604e+002
5.014027e+002, 4.839405e+002
5.018848e+002, 4.831648e+002
5.023669e+002, 4.821536e+002
5.028491e+002, 4.811671e+002
5.033312e+002, 4.805023e+002
5.038133e+002, 4.799662e+002
5.042954e+002, 4.790198e+002
5.047775e+002, 4.776221e+002
5.052596e+002, 4.760017e+002
5.057418e+002, 4.738661e+002
5.062239e+002, 4.718138e+002
5.067060e+002, 4.708349e+002
5.071881e+002, 4.712961e+002
5.076702e+002, 4.715110e+002
5.081523e+002, 4.702097e+002
5.086345e+002, 4.682526e+002
5.091166e+002, 4.672306e+002
5.095987e+002, 4.673789e+002
5.100808e+002, 4.675274e+002
5.105629e+002, 4.665906e+002
5.110450e+002, 4.647258e+002
5.115272e+002, 4.637634e+002
5.120093e+002, 4.647903e+002
5.124914e+002, 4.652982e+002
5.129735e+002, 4.639210e+002
5.134556e+002, 4.618613e+002
5.139377e+002, 4.607597e+002
5.144199e+002, 4.610361e+002
5.149020e+002, 4.618737e+002
5.153841e+002, 4.622934e+002
5.158662e+002, 4.622632e+002
5.163483e+002, 4.620374e+002
5.168304e+002, 4.614032e+002
5.173126e+002, 4.607973e+002
5.177947e+002, 4.598612e+002
5.182768e+002, 4.591803e+002
5.187589e+002, 4.599168e+002
5.192410e+002, 4.626155e+002
5.197231e+002, 4.655696e+002
5.202053e+002, 4.661320e+002
5.206874e+002, 4.641245e+002
5.211695e+002, 4.622086e+002
5.216516e+002, 4.604754e+002
5.221337e+002, 4.592508e+002
5.226158e+002, 4.587411e+002
5.230980e+002, 4.588499e+002
5.235801e+002, 4.593258e+002
5.240622e+002, 4.602256e+002
5.245443e+002, 4.613129e+002
5.250264e+002, 4.625126e+002
5.255085e+002, 4.637548e+002
5.259907e+002, 4.644885e+002
5.264728e+002, 4.644013e+002
5.269549e+002, 4.640005e+002
5.274370e+002, 4.638989e+002
5.279191e+002, 4.640001e+002
5.284012e+002, 4.649795e+002
5.288834e+002, 4.685956e+002
5.293655e+002, 4.716693e+002
5.298476e+002, 4.711834e+002
5.303297e+002, 4.681924e+002
5.308118e+002, 4.660219e+002
5.312939e+002, 4.664905e+002
5.317761e+002, 4.686629e+002
5.322582e+002, 4.701930e+002
5.327403e+002, 4.708490e+002
5.332224e+002, 4.712282e+002
5.337045e+002, 4.708500e+002
5.341866e+002, 4.706499e+002
5.346688e+002, 4.711812e+002
5.351509e+002, 4.723903e+002
5.356330e+002, 4.739723e+002
5.361151e+002, 4.758175e+002
5.365972e+002, 4.777855e+002
5.370793e+002, 4.795824e+002
5.375615e+002, 4.812581e+002
5.380436e+002, 4.825170e+002
5.385257e+002, 4.829269e+002
5.390078e+002, 4.831339e+002
5.394899e+002, 4.834772e+002
5.399720e+002, 4.840181e+002
5.404542e+002, 4.852943e+002
5.409363e+002, 4.884411e+002
5.414184e+002, 4.920478e+002
5.419005e+002, 4.938744e+002
5.423826e+002, 4.939282e+002
5.428647e+002, 4.938796e+002
5.433469e+002, 4.945222e+002
5.438290e+002, 4.957003e+002
5.443111e+002, 4.971111e+002
5.447932e+002, 4.990468e+002
5.452753e+002, 5.004903e+002
5.457574e+002, 5.011083e+002
5.462396e+002, 5.013145e+002
5.467217e+002, 5.014447e+002
5.472038e+002, 5.015117e+002
5.476859e+002, 5.013499e+002
5.481680e+002, 5.008282e+002
5.486501e+002, 5.000135e+002
5.491323e+002, 4.992010e+002
5.496144e+002, 4.984176e+002
5.500965e+002, 4.975939e+002
5.505786e+002, 4.964730e+002
5.510607e+002, 4.954990e+002
5.515428e+002, 4.953047e+002
5.520250e+002, 4.957097e+002
5.525071e+002, 4.956899e+002
5.529892e+002, 4.945699e+002
5.534713e+002, 4.924510e+002
5.539534e+002, 4.892936e+002
5.544355e+002, 4.847807e+002
5.549177e+002, 4.808501e+002
5.553998e+002, 4.783940e+002
5.558819e+002, 4.768597e+002
5.563640e+002, 4.754608e+002
5.568461e+002, 4.741969e+002
5.573282e+002, 4.730090e+002
5.578104e+002, 4.717001e+002
5.582925e+002, 4.705480e+002
5.587746e+002, 4.702773e+002
5.592567e+002, 4.707135e+002
5.597388e+002, 4.702866e+002
5.602209e+002, 4.678198e+002
5.607031e+002, 4.641711e+002
5.611852e+002, 4.620819e+002
5.616673e+002, 4.631273e+002
5.621494e+002, 4.635440e+002
5.626315e+002, 4.627559e+002
5.631136e+002, 4.617375e+002
5.635958e+002, 4.612279e+002
5.640779e+002, 4.611758e+002
5.645600e+002, 4.610717e+002
5.650421e+002, 4.605143e+002
5.655242e+002, 4.597066e+002
5.660063e+002, 4.593554e+002
5.664885e+002, 4.595909e+002
5.669706e+002, 4.599022e+002
5.674527e+002, 4.601393e+002
5.679348e+002, 4.604420e+002
5.684169e+002, 4.609538e+002
5.688990e+002, 4.616487e+002
5.693812e+002, 4.623304e+002
5.698633e+002, 4.627778e+002
5.703454e+002, 4.632092e+002
5.708275e+002, 4.641158e+002
5.713096e+002, 4.654418e+002
5.717917e+002, 4.663050e+002
5.722739e+002, 4.661878e+002
5.727560e+002, 4.656596e+002
5.732381e+002, 4.657660e+002
5.737202e+002, 4.666695e+002
5.742023e+002, 4.675290e+002
5.746844e+002, 4.679812e+002
5.751666e+002, 4.686206e+002
5.756487e+002, 4.700977e+002
5.761308e+002, 4.721080e+002
5.766129e+002, 4.737969e+002
5.770950e+002, 4.747124e+002
5.775771e+002, 4.752000e+002
5.780593e+002, 4.759654e+002
5.785414e+002, 4.769003e+002
5.790235e+002, 4.784088e+002
5.795056e+002, 4.814037e+002
5.799877e+002, 4.841446e+002
5.804698e+002, 4.855254e+002
5.809520e+002, 4.860420e+002
5.814341e+002, 4.869438e+002
5.819162e+002, 4.888749e+002
5.823983e+002, 4.912494e+002
5.828804e+002, 4.933574e+002
5.833625e+002, 4.952148e+002
5.838447e+002, 4.968247e+002
5.843268e+002, 4.980114e+002
5.848089e+002, 4.993552e+002
5.852910e+002, 5.016927e+002
5.857731e+002, 5.048869e+002
5.862552e+002, 5.074419e+002
5.867374e+002, 5.084293e+002
5.872195e+002, 5.095866e+002
5.877016e+002, 5.116320e+002
5.881837e+002, 5.145034e+002
5.886658e+002, 5.185861e+002
5.891479e+002, 5.238626e+002
5.896301e+002, 5.285757e+002
5.901122e+002, 5.303152e+002
5.905943e+002, 5.286235e+002
5.910764e+002, 5.282980e+002
5.915585e+002, 5.303171e+002
5.920406e+002, 5.326323e+002
5.925228e+002, 5.350048e+002
5.930049e+002, 5.372961e+002
5.934870e+002, 5.391849e+002
5.939691e+002, 5.406251e+002
5.944512e+002, 5.423536e+002
5.949333e+002, 5.455449e+002
5.954155e+002, 5.497142e+002
5.958976e+002, 5.525473e+002
5.963797e+002, 5.536532e+002
5.968618e+002, 5.545872e+002
5.973439e+002, 5.561763e+002
5.978260e+002, 5.582419e+002
5.983082e+002, 5.602916e+002
5.987903e+002, 5.623557e+002
5.992724e+002, 5.643321e+002
5.997545e+002, 5.656595e+002
6.002366e+002, 5.672125e+002
6.007188e+002, 5.700833e+002
6.012009e+002, 5.742180e+002
6.016830e+002, 5.787800e+002
6.021651e+002, 5.833120e+002
6.026472e+002, 5.876336e+002
6.031293e+002, 5.910271e+002
6.036115e+002, 5.929337e+002
6.040936e+002, 5.949144e+002
6.045757e+002, 5.965942e+002
6.050578e+002, 5.987717e+002
6.055399e+002, 6.021414e+002
6.060220e+002, 6.064634e+002
6.065042e+002, 6.110419e+002
6.069863e+002, 6.157834e+002
6.074684e+002, 6.200873e+002
6.079505e+002, 6.224594e+002
6.084326e+002, 6.229771e+002
6.089147e+002, 6.247082e+002
6.093969e+002, 6.288496e+002
6.098790e+002, 6.337379e+002
6.103611e+002, 6.378819e+002
6.108432e+002, 6.413040e+002
6.113253e+002, 6.436339e+002
6.118074e+002, 6.437083e+002
6.122896e+002, 6.438546e+002
6.127717e+002, 6.457231e+002
6.132538e+002, 6.483735e+002
6.137359e+002, 6.499305e+002
6.142180e+002, 6.499207e+002
6.147001e+002, 6.497853e+002
6.151823e+002, 6.513411e+002
6.156644e+002, 6.547002e+002
6.161465e+002, 6.574093e+002
6.166286e+002, 6.592465e+002
6.171107e+002, 6.606725e+002
6.175928e+002, 6.616461e+002
6.180750e+002, 6.623817e+002
6.185571e+002, 6.629318e+002
6.190392e+002, 6.633409e+002
6.195213e+002, 6.641346e+002
6.200034e+002, 6.663105e+002
6.204855e+002, 6.690120e+002
6.209677e+002, 6.699191e+002
6.214498e+002, 6.688651e+002
6.219319e+002, 6.684861e+002
6.224140e+002, 6.704267e+002
6.228961e+002, 6.734659e+002
6.233782e+002, 6.749283e+002
6.238604e+002, 6.743522e+002
6.243425e+002, 6.738961e+002
6.248246e+002, 6.742838e+002
6.253067e+002, 6.744372e+002
6.257888e+002, 6.737142e+002
6.262709e+002, 6.721409e+002
6.267531e+002, 6.698578e+002
6.272352e+002, 6.669337e+002
6.277173e+002, 6.635978e+002
6.281994e+002, 6.602489e+002
6.286815e+002, 6.568527e+002
6.291636e+002, 6.536159e+002
6.296458e+002, 6.511384e+002
6.301279e+002, 6.480393e+002
6.306100e+002, 6.428089e+002
6.310921e+002, 6.367393e+002
6.315742e+002, 6.322738e+002
6.320563e+002, 6.303995e+002
6.325385e+002, 6.290443e+002
6.330206e+002, 6.269249e+002
6.335027e+002, 6.242209e+002
6.339848e+002, 6.213232e+002
6.344669e+002, 6.182816e+002
6.349490e+002, 6.146702e+002
6.354312e+002, 6.099691e+002
6.359133e+002, 6.045625e+002
6.363954e+002, 6.002187e+002
6.368775e+002, 5.977657e+002
6.373596e+002, 5.953575e+002
6.378417e+002, 5.933321e+002
6.383239e+002, 5.910290e+002
6.388060e+002, 5.874905e+002
6.392881e+002, 5.831935e+002
6.397702e+002, 5.798051e+002
6.402523e+002, 5.785758e+002
6.407344e+002, 5.781486e+002
6.412166e+002, 5.755627e+002
6.416987e+002, 5.706664e+002
6.421808e+002, 5.669630e+002
6.426629e+002, 5.657648e+002
6.431450e+002, 5.648692e+002
6.436271e+002, 5.618019e+002
6.441093e+002, 5.572645e+002
6.445914e+002, 5.539462e+002
6.450735e+002, 5.534907e+002
6.455556e+002, 5.528819e+002
6.460377e+002, 5.503848e+002
6.465198e+002, 5.470123e+002
6.470020e+002, 5.441761e+002
6.474841e+002, 5.421631e+002
6.479662e+002, 5.405583e+002
6.484483e+002, 5.390950e+002
6.489304e+002, 5.376743e+002
6.494125e+002, 5.353699e+002
6.498947e+002, 5.311781e+002
6.503768e+002, 5.280386e+002
6.508589e+002, 5.272641e+002
6.513410e+002, 5.270276e+002
6.518231e+002, 5.264706e+002
6.523052e+002, 5.253613e+002
6.527874e+002, 5.231984e+002
6.532695e+002, 5.186002e+002
6.537516e+002, 5.139017e+002
6.542337e+002, 5.127084e+002
6.547158e+002, 5.141884e+002
6.551979e+002, 5.143132e+002
6.556801e+002, 5.117842e+002
6.561622e+002, 5.084796e+002
6.566443e+002, 5.063215e+002
6.571264e+002, 5.053434e+002
6.576085e+002, 5.050801e+002
6.580906e+002, 5.068338e+002
6.585728e+002, 5.075835e+002
6.590549e+002, 5.058516e+002
6.595370e+002, 5.032269e+002
6.600191e+002, 5.013089e+002
6.605012e+002, 5.003437e+002
6.609833e+002, 4.996339e+002
6.614655e+002, 4.985690e+002
6.619476e+002, 4.973427e+002
6.624297e+002, 4.966837e+002
6.629118e+002, 4.966873e+002
6.633939e+002, 4.965586e+002
6.638760e+002, 4.962175e+002
6.643582e+002, 4.954468e+002
6.648403e+002, 4.935685e+002
6.653224e+002, 4.907056e+002
6.658045e+002, 4.888213e+002
6.662866e+002, 4.893633e+002
6.667687e+002, 4.897721e+002
6.672509e+002, 4.885723e+002
6.677330e+002, 4.863038e+002
6.682151e+002, 4.837103e+002
6.686972e+002, 4.810663e+002
6.691793e+002, 4.786617e+002
6.696614e+002, 4.767952e+002
6.701436e+002, 4.754386e+002
6.706257e+002, 4.742544e+002
6.711078e+002, 4.736405e+002
6.715899e+002, 4.723676e+002
6.720720e+002, 4.692154e+002
6.725541e+002, 4.658659e+002
6.730363e+002, 4.637480e+002
6.735184e+002, 4.628369e+002
6.740005e+002, 4.619073e+002
6.744826e+002, 4.603542e+002
6.749647e+002, 4.585942e+002
6.754468e+002, 4.568443e+002
6.759290e+002, 4.552226e+002
6.764111e+002, 4.542616e+002
6.768932e+002, 4.541465e+002
6.773753e+002, 4.539501e+002
6.778574e+002, 4.524659e+002
6.783395e+002, 4.496094e+002
6.788217e+002, 4.476500e+002
6.793038e+002, 4.474118e+002
6.797859e+002, 4.470537e+002
6.802680e+002, 4.465271e+002
6.807501e+002, 4.455889e+002
6.812322e+002, 4.435995e+002
6.817144e+002, 4.407823e+002
6.821965e+002, 4.386254e+002
6.826786e+002, 4.386986e+002
6.831607e+002, 4.396291e+002
6.836428e+002, 4.389631e+002
6.841249e+002, 4.369039e+002
6.846071e+002, 4.352256e+002
6.850892e+002, 4.344669e+002
6.855713e+002, 4.342555e+002
6.860534e+002, 4.343483e+002
6.865355e+002, 4.348043e+002
6.870176e+002, 4.343338e+002
6.874998e+002, 4.318174e+002
6.879819e+002, 4.298629e+002
6.884640e+002, 4.295131e+002
6.889461e+002, 4.297948e+002
6.894282e+002, 4.298755e+002
6.899103e+002, 4.295495e+002
6.903925e+002, 4.287994e+002
6.908746e+002, 4.273925e+002
6.913567e+002, 4.257722e+002
6.918388e+002, 4.251526e+002
6.923209e+002, 4.255819e+002
6.928030e+002, 4.259122e+002
6.932852e+002, 4.260297e+002
6.937673e+002, 4.255959e+002
6.942494e+002, 4.238629e+002
6.947315e+002, 4.209703e+002
6.952136e+002, 4.191524e+002
6.956957e+002, 4.192907e+002
6.961779e+002, 4.195402e+002
6.966600e+002, 4.191619e+002
6.971421e+002, 4.186260e+002
6.976242e+002, 4.186957e+002
6.981063e+002, 4.192843e+002
6.985884e+002, 4.193609e+002
6.990706e+002, 4.179530e+002
6.995527e+002, 4.157961e+002
7.000348e+002, 4.151055e+002
7.005169e+002, 4.161071e+002
7.009990e+002, 4.171852e+002
7.014811e+002, 4.181957e+002
7.019633e+002, 4.189655e+002
7.024454e+002, 4.194463e+002
7.029275e+002, 4.195858e+002
7.034096e+002, 4.190993e+002
7.038917e+002, 4.172274e+002
7.043738e+002, 4.157152e+002
7.048560e+002, 4.154253e+002
7.053381e+002, 4.158019e+002
7.058202e+002, 4.163023e+002
7.063023e+002, 4.167930e+002
7.067844e+002, 4.173607e+002
7.072665e+002, 4.181661e+002
7.077487e+002, 4.187249e+002
7.082308e+002, 4.172429e+002
7.087129e+002, 4.128842e+002
7.091950e+002, 4.105051e+002
7.096771e+002, 4.119275e+002
7.101592e+002, 4.137933e+002
7.106414e+002, 4.139641e+002
7.111235e+002, 4.130097e+002
7.116056e+002, 4.120808e+002
7.120877e+002, 4.113281e+002
7.125698e+002, 4.107120e+002
7.130519e+002, 4.102227e+002
7.135341e+002, 4.098637e+002
7.140162e+002, 4.096718e+002
7.144983e+002, 4.096248e+002
7.149804e+002, 4.096823e+002
7.154625e+002, 4.098438e+002
7.159446e+002, 4.099312e+002
7.164268e+002, 4.093846e+002
7.169089e+002, 4.078291e+002
7.173910e+002, 4.073860e+002
7.178731e+002, 4.090523e+002
7.183552e+002, 4.105482e+002
7.188373e+002, 4.106089e+002
7.193195e+002, 4.099355e+002
7.198016e+002, 4.095362e+002
7.202837e+002, 4.096078e+002
7.207658e+002, 4.096279e+002
7.212479e+002, 4.093693e+002
7.217300e+002, 4.089178e+002
7.222122e+002, 4.079475e+002
7.226943e+002, 4.068232e+002
7.231764e+002, 4.071092e+002
7.236585e+002, 4.095216e+002
7.241406e+002, 4.120112e+002
7.246227e+002, 4.110550e+002
7.251049e+002, 4.060564e+002
7.255870e+002, 4.032760e+002
7.260691e+002, 4.037799e+002
7.265512e+002, 4.048238e+002
7.270333e+002, 4.058512e+002
7.275154e+002, 4.067228e+002
7.279976e+002, 4.073296e+002
7.284797e+002, 4.076538e+002
7.289618e+002, 4.075713e+002
7.294439e+002, 4.060735e+002
7.299260e+002, 4.049638e+002
7.304081e+002, 4.068096e+002
7.308903e+002, 4.102350e+002
7.313724e+002, 4.117101e+002
7.318545e+002, 4.102791e+002
7.323366e+002, 4.079376e+002
7.328187e+002, 4.067121e+002
7.333008e+002, 4.065410e+002
7.337830e+002, 4.067503e+002
7.342651e+002, 4.079388e+002
7.347472e+002, 4.082084e+002
7.352293e+002, 4.057634e+002
7.357114e+002, 4.033924e+002
7.361935e+002, 4.035171e+002
7.366757e+002, 4.056006e+002
7.371578e+002, 4.069515e+002
7.376399e+002, 4.063592e+002
7.381220e+002, 4.053125e+002
7.386041e+002, 4.046076e+002
7.390862e+002, 4.041753e+002
7.395684e+002, 4.040318e+002
7.400505e+002, 4.041063e+002
7.405326e+002, 4.039959e+002
7.410147e+002, 4.033524e+002
7.414968e+002, 4.024718e+002
7.419789e+002, 4.023436e+002
7.424611e+002, 4.032607e+002
7.429432e+002, 4.038560e+002
7.434253e+002, 4.040442e+002
7.439074e+002, 4.038174e+002
7.443895e+002, 4.024962e+002
7.448716e+002, 4.009479e+002
7.453538e+002, 4.010549e+002
7.458359e+002, 4.038040e+002
7.463180e+002, 4.059193e+002
7.468001e+002, 4.054030e+002
7.472822e+002, 4.039078e+002
7.477643e+002, 4.029049e+002
7.482465e+002, 4.024815e+002
7.487286e+002, 4.023596e+002
7.492107e+002, 4.024158e+002
7.496928e+002, 4.026624e+002
7.501749e+002, 4.033387e+002
7.506570e+002, 4.045193e+002
7.511392e+002, 4.043623e+002
7.516213e+002, 4.021046e+002
7.521034e+002, 4.002696e+002
7.525855e+002, 4.002418e+002
7.530676e+002, 4.008804e+002
7.535497e+002, 4.007237e+002
7.540319e+002, 3.997237e+002
7.545140e+002, 3.989894e+002
7.549961e+002, 3.987661e+002
7.554782e+002, 3.988982e+002
7.559603e+002, 3.996384e+002
7.564424e+002, 4.005313e+002
7.569246e+002, 4.009620e+002
7.574067e+002, 4.007734e+002
7.578888e+002, 3.999894e+002
7.583709e+002, 3.983667e+002
7.588530e+002, 3.964521e+002
7.593351e+002, 3.964164e+002
7.598173e+002, 3.985634e+002
7.602994e+002, 3.999348e+002
7.607815e+002, 3.995956e+002
7.612636e+002, 3.988989e+002
7.617457e+002, 3.991083e+002
7.622278e+002, 3.999563e+002
7.627100e+002, 4.000982e+002
7.631921e+002, 3.985249e+002
7.636742e+002, 3.977751e+002
7.641563e+002, 3.993174e+002
7.646384e+002, 4.011915e+002
7.651205e+002, 4.018903e+002
7.656027e+002, 4.015007e+002
7.660848e+002, 4.005861e+002
7.665669e+002, 3.993685e+002
7.670490e+002, 3.983388e+002
7.675311e+002, 3.983702e+002
7.680132e+002, 3.992261e+002
7.684954e+002, 3.995110e+002
7.689775e+002, 3.990704e+002
7.694596e+002, 3.986862e+002
7.699417e+002, 3.987885e+002
7.704238e+002, 3.990742e+002
7.709059e+002, 3.990003e+002
7.713881e+002, 3.984469e+002
7.718702e+002, 3.979942e+002
7.723523e+002, 3.974459e+002
7.728344e+002, 3.972202e+002
7.733165e+002, 3.979016e+002
7.737986e+002, 3.987221e+002
7.742808e+002, 3.985864e+002
7.747629e+002, 3.975135e+002
7.752450e+002, 3.968136e+002
7.757271e+002, 3.977361e+002
7.762092e+002, 3.991668e+002
7.766913e+002, 3.994761e+002
7.771735e+002, 3.988395e+002
7.776556e+002, 3.978452e+002
7.781377e+002, 3.966055e+002
7.786198e+002, 3.954776e+002
7.791019e+002, 3.947247e+002
7.795840e+002, 3.943712e+002
7.800662e+002, 3.945840e+002
7.805483e+002, 3.956944e+002
7.810304e+002, 3.967475e+002
7.815125e+002, 3.980590e+002
7.819946e+002, 3.989197e+002
7.824767e+002, 3.988478e+002
7.829589e+002, 3.981088e+002
7.834410e+002, 3.970907e+002
7.839231e+002, 3.957505e+002
7.844052e+002, 3.948356e+002
7.848873e+002, 3.951407e+002
7.853694e+002, 3.958865e+002
7.858516e+002, 3.963038e+002
7.863337e+002, 3.962963e+002
7.868158e+002, 3.955848e+002
7.872979e+002, 3.940745e+002
7.877800e+002, 3.926979e+002
7.882621e+002, 3.927957e+002
7.887443e+002, 3.943125e+002
7.892264e+002, 3.953400e+002
7.897085e+002, 3.955826e+002
7.901906e+002, 3.961980e+002
7.906727e+002, 3.980146e+002
7.911548e+002, 3.998710e+002
7.916370e+002, 4.005132e+002
7.921191e+002, 4.000989e+002
7.926012e+002, 3.996857e+002
7.930833e+002, 3.993358e+002
7.935654e+002, 3.991227e+002
7.940475e+002, 3.991836e+002
7.945297e+002, 3.993183e+002
7.950118e+002, 3.993870e+002
7.954939e+002, 3.993326e+002
7.959760e+002, 3.991280e+002
7.964581e+002, 3.987827e+002
7.969402e+002, 3.981129e+002
7.974224e+002, 3.963169e+002
7.979045e+002, 3.937490e+002
7.983866e+002, 3.932373e+002
7.988687e+002, 3.952777e+002
7.993508e+002, 3.969331e+002
7.998329e+002, 3.966123e+002
8.003151e+002, 3.951690e+002
8.007972e+002, 3.941266e+002
8.012793e+002, 3.935205e+002
8.017614e+002, 3.931819e+002
8.022435e+002, 3.930276e+002
8.027256e+002, 3.932152e+002
8.032078e+002, 3.939660e+002
8.036899e+002, 3.949712e+002
8.041720e+002, 3.960969e+002
8.046541e+002, 3.972194e+002
8.051362e+002, 3.979117e+002
8.056183e+002, 3.978181e+002
8.061005e+002, 3.973417e+002
8.065826e+002, 3.964795e+002
8.070647e+002, 3.956446e+002
8.075468e+002, 3.959518e+002
8.080289e+002, 3.974971e+002
8.085110e+002, 3.994012e+002
8.089932e+002, 4.011931e+002
8.094753e+002, 4.024239e+002
8.099574e+002, 4.015121e+002
8.104395e+002, 3.975838e+002
8.109216e+002, 3.955558e+002
8.114037e+002, 3.968150e+002
8.118859e+002, 3.980882e+002
8.123680e+002, 3.974107e+002
8.128501e+002, 3.959178e+002
8.133322e+002, 3.951900e+002
8.138143e+002, 3.953443e+002
8.142964e+002, 3.958883e+002
8.147786e+002, 3.973541e+002
8.152607e+002, 3.984944e+002
8.157428e+002, 3.980671e+002
8.162249e+002, 3.970997e+002
8.167070e+002, 3.973233e+002
8.171891e+002, 3.988390e+002
8.176713e+002, 4.000446e+002
8.181534e+002, 3.995728e+002
8.186355e+002, 3.982550e+002
8.191176e+002, 3.977590e+002
8.195997e+002, 3.979574e+002
8.200818e+002, 3.976977e+002
8.205640e+002, 3.966835e+002
8.210461e+002, 3.960941e+002
8.215282e+002, 3.969178e+002
8.220103e+002, 3.985983e+002
8.224924e+002, 3.994054e+002
8.229745e+002, 3.987383e+002
8.234567e+002, 3.985444e+002
8.239388e+002, 3.995195e+002
8.244209e+002, 4.001708e+002
8.249030e+002, 3.998226e+002
8.253851e+002, 3.989294e+002
8.258672e+002, 3.978691e+002
8.263494e+002, 3.967280e+002
8.268315e+002, 3.962234e+002
8.273136e+002, 3.973249e+002
8.277957e+002, 3.986041e+002
8.282778e+002, 3.985938e+002
8.287599e+002, 3.979770e+002
8.292421e+002, 3.981620e+002
8.297242e+002, 3.993137e+002
8.302063e+002, 4.005027e+002
8.306884e+002, 4.011003e+002
8.311705e+002, 4.010373e+002
8.316526e+002, 3.995985e+002
8.321348e+002, 3.966794e+002
8.326169e+002, 3.961192e+002
8.330990e+002, 3.992514e+002
8.335811e+002, 4.018048e+002
8.340632e+002, 4.008452e+002
8.345453e+002, 3.979567e+002
8.350275e+002, 3.965991e+002
8.355096e+002, 3.972635e+002
8.359917e+002, 3.980814e+002
8.364738e+002, 3.997365e+002
8.369559e+002, 4.007237e+002
8.374380e+002, 3.995627e+002
8.379202e+002, 3.980156e+002
8.384023e+002, 3.984599e+002
8.388844e+002, 4.008532e+002
8.393665e+002, 4.026267e+002
8.398486e+002, 4.020568e+002
8.403307e+002, 4.007056e+002
8.408129e+002, 3.999176e+002
8.412950e+002, 3.995932e+002
8.417771e+002, 3.996194e+002
8.422592e+002, 3.999329e+002
8.427413e+002, 4.002935e+002
8.432234e+002, 4.005310e+002
8.437056e+002, 4.008332e+002
8.441877e+002, 4.018676e+002
8.446698e+002, 4.038044e+002
8.451519e+002, 4.041253e+002
8.456340e+002, 4.021517e+002
8.461161e+002, 4.002456e+002
8.465983e+002, 3.992342e+002
8.470804e+002, 3.989415e+002
8.475625e+002, 3.993706e+002
8.480446e+002, 4.006005e+002
8.485267e+002, 4.011664e+002
8.490089e+002, 4.001069e+002
8.494910e+002, 3.995356e+002
8.499731e+002, 4.004165e+002
8.504552e+002, 4.017472e+002
8.509373e+002, 4.028864e+002
8.514194e+002, 4.036348e+002
8.519016e+002, 4.036792e+002
8.523837e+002, 4.026744e+002
8.528658e+002, 4.017065e+002
8.533479e+002, 4.020687e+002
8.538300e+002, 4.030026e+002
8.543121e+002, 4.030369e+002
8.547943e+002, 4.022762e+002
8.552764e+002, 4.017106e+002
8.557585e+002, 4.017672e+002
8.562406e+002, 4.023501e+002
8.567227e+002, 4.035764e+002
8.572048e+002, 4.052998e+002
8.576870e+002, 4.054124e+002
8.581691e+002, 4.033589e+002
8.586512e+002, 4.019046e+002
8.591333e+002, 4.019515e+002
8.596154e+002, 4.024471e+002
8.600975e+002, 4.025617e+002
8.605797e+002, 4.023388e+002
8.610618e+002, 4.020549e+002
8.615439e+002, 4.017051e+002
8.620260e+002, 4.013082e+002
8.625081e+002, 4.000947e+002
8.629902e+002, 3.996146e+002
8.634724e+002, 4.015787e+002
8.639545e+002, 4.046017e+002
8.644366e+002, 4.063405e+002
8.649187e+002, 4.062509e+002
8.654008e+002, 4.058594e+002
8.658829e+002, 4.059780e+002
8.663651e+002, 4.064898e+002
8.668472e+002, 4.077343e+002
8.673293e+002, 4.091791e+002
8.678114e+002, 4.092184e+002
8.682935e+002, 4.077207e+002
8.687756e+002, 4.066389e+002
8.692578e+002, 4.075680e+002
8.697399e+002, 4.095783e+002
8.702220e+002, 4.102127e+002
8.707041e+002, 4.093764e+002
8.711862e+002, 4.091899e+002
8.716683e+002, 4.100270e+002
8.721505e+002, 4.107530e+002
8.726326e+002, 4.106302e+002
8.731147e+002, 4.102392e+002
8.735968e+002, 4.106116e+002
8.740789e+002, 4.119388e+002
8.745610e+002, 4.129907e+002
8.750432e+002, 4.137574e+002
8.755253e+002, 4.142655e+002
8.760074e+002, 4.145021e+002
8.764895e+002, 4.144961e+002
8.769716e+002, 4.141950e+002
8.774537e+002, 4.136683e+002
8.779359e+002, 4.131011e+002
8.784180e+002, 4.124372e+002
8.789001e+002, 4.120352e+002
8.793822e+002, 4.116480e+002
8.798643e+002, 4.119759e+002
8.803464e+002, 4.146539e+002
8.808286e+002, 4.186852e+002
8.813107e+002, 4.212491e+002
8.817928e+002, 4.213714e+002
8.822749e+002, 4.206362e+002
8.827570e+002, 4.205716e+002
8.832391e+002, 4.210618e+002
8.837213e+002, 4.216952e+002
8.842034e+002, 4.224896e+002
8.846855e+002, 4.239574e+002
8.851676e+002, 4.263496e+002
8.856497e+002, 4.283909e+002
8.861318e+002, 4.289115e+002
8.866140e+002, 4.285230e+002
8.870961e+002, 4.293853e+002
8.875782e+002, 4.321902e+002
8.880603e+002, 4.344847e+002
8.885424e+002, 4.362432e+002
8.890245e+002, 4.374948e+002
8.895067e+002, 4.379423e+002
8.899888e+002, 4.380770e+002
8.904709e+002, 4.383647e+002
8.909530e+002, 4.388320e+002
8.914351e+002, 4.396567e+002
8.919172e+002, 4.412604e+002
8.923994e+002, 4.427520e+002
8.928815e+002, 4.433061e+002
8.933636e+002, 4.439291e+002
8.938457e+002, 4.463563e+002
8.943278e+002, 4.497314e+002
8.948099e+002, 4.512348e+002
8.952921e+002, 4.495027e+002
8.957742e+002, 4.470709e+002
8.962563e+002, 4.462449e+002
8.967384e+002, 4.463665e+002
8.972205e+002, 4.464134e+002
8.977026e+002, 4.463745e+002
8.981848e+002, 4.464824e+002
8.986669e+002, 4.468016e+002
8.991490e+002, 4.471131e+002
8.996311e+002, 4.472212e+002
9.001132e+002, 4.471289e+002
9.005953e+002, 4.468291e+002
9.010775e+002, 4.463116e+002
9.015596e+002, 4.457157e+002
9.020417e+002, 4.450887e+002
9.025238e+002, 4.442579e+002
9.030059e+002, 4.429906e+002
9.034880e+002, 4.415746e+002
9.039702e+002, 4.405416e+002
9.044523e+002, 4.398017e+002
9.049344e+002, 4.398168e+002
9.054165e+002, 4.417484e+002
9.058986e+002, 4.429229e+002
9.063807e+002, 4.420096e+002
9.068629e+002, 4.406894e+002
9.073450e+002, 4.404190e+002
9.078271e+002, 4.410742e+002
9.083092e+002, 4.418138e+002
9.087913e+002, 4.427713e+002
9.092734e+002, 4.430720e+002
9.097556e+002, 4.415630e+002
9.102377e+002, 4.398946e+002
9.107198e+002, 4.395599e+002
9.112019e+002, 4.402194e+002
9.116840e+002, 4.411328e+002
9.121661e+002, 4.420169e+002
9.126483e+002, 4.426081e+002
9.131304e+002, 4.423319e+002
9.136125e+002, 4.419443e+002
9.140946e+002, 4.431149e+002
9.145767e+002, 4.452107e+002
9.150588e+002, 4.460230e+002
9.155410e+002, 4.452788e+002
9.160231e+002, 4.443231e+002
9.165052e+002, 4.439660e+002
9.169873e+002, 4.441133e+002
9.174694e+002, 4.447240e+002
9.179515e+002, 4.458311e+002
9.184337e+002, 4.463949e+002
9.189158e+002, 4.462401e+002
9.193979e+002, 4.463527e+002
9.198800e+002, 4.471598e+002
9.203621e+002, 4.481768e+002
9.208442e+002, 4.489222e+002
9.213264e+002, 4.494116e+002
9.218085e+002, 4.497840e+002
9.222906e+002, 4.498223e+002
9.227727e+002, 4.501059e+002
9.232548e+002, 4.506313e+002
9.237369e+002, 4.514298e+002
9.242191e+002, 4.528465e+002
9.247012e+002, 4.544002e+002
9.251833e+002, 4.552740e+002
9.256654e+002, 4.553468e+002
9.261475e+002, 4.555736e+002
9.266296e+002, 4.565464e+002
9.271118e+002, 4.573752e+002
9.275939e+002, 4.572096e+002
9.280760e+002, 4.569479e+002
9.285581e+002, 4.580096e+002
9.290402e+002, 4.599365e+002
9.295223e+002, 4.606610e+002
9.300045e+002, 4.590414e+002
9.304866e+002, 4.576289e+002
9.309687e+002, 4.590703e+002
9.314508e+002, 4.620034e+002
9.319329e+002, 4.647452e+002
9.324150e+002, 4.670493e+002
9.328972e+002, 4.684925e+002
9.333793e+002, 4.689919e+002
9.338614e+002, 4.688988e+002
9.343435e+002, 4.683921e+002
9.348256e+002, 4.677824e+002
9.353077e+002, 4.678677e+002
9.357899e+002, 4.686123e+002
9.362720e+002, 4.694062e+002
9.367541e+002, 4.701320e+002
9.372362e+002, 4.716220e+002
9.377183e+002, 4.744781e+002
9.382004e+002, 4.776946e+002
9.386826e+002, 4.796751e+002
9.391647e+002, 4.803829e+002
9.396468e+002, 4.817781e+002
9.401289e+002, 4.842207e+002
9.406110e+002, 4.864663e+002
9.410931e+002, 4.881789e+002
9.415753e+002, 4.897476e+002
9.420574e+002, 4.913163e+002
9.425395e+002, 4.929743e+002
9.430216e+002, 4.948608e+002
9.435037e+002, 4.966206e+002
9.439858e+002, 4.996929e+002
9.444680e+002, 5.066747e+002
9.449501e+002, 5.119691e+002
9.454322e+002, 5.117450e+002
9.459143e+002, 5.100799e+002
9.463964e+002, 5.115397e+002
9.468785e+002, 5.157611e+002
9.473607e+002, 5.189384e+002
9.478428e+002, 5.193320e+002
9.483249e+002, 5.195555e+002
9.488070e+002, 5.210911e+002
9.492891e+002, 5.230270e+002
9.497712e+002, 5.250597e+002
9.502534e+002, 5.266358e+002
9.507355e+002, 5.262435e+002
9.512176e+002, 5.238378e+002
9.516997e+002, 5.222988e+002
9.521818e+002, 5.246272e+002
9.526639e+002, 5.279261e+002
9.531461e+002, 5.278322e+002
9.536282e+002, 5.257294e+002
9.541103e+002, 5.247914e+002
9.545924e+002, 5.253079e+002
9.550745e+002, 5.262708e+002
9.555566e+002, 5.271974e+002
9.560388e+002, 5.279293e+002
9.565209e+002, 5.281979e+002
9.570030e+002, 5.280966e+002
9.574851e+002, 5.277946e+002
9.579672e+002, 5.273045e+002
9.584493e+002, 5.282897e+002
9.589315e+002, 5.312479e+002
9.594136e+002, 5.348336e+002
9.598957e+002, 5.381313e+002
9.603778e+002, 5.412416e+002
9.608599e+002, 5.444987e+002
9.613420e+002, 5.480516e+002
9.618242e+002, 5.508728e+002
9.623063e+002, 5.526816e+002
9.627884e+002, 5.543962e+002
9.632705e+002, 5.561770e+002
9.637526e+002, 5.581621e+002
9.642347e+002, 5.608176e+002
9.647169e+002, 5.639042e+002
9.651990e+002, 5.656859e+002
9.656811e+002, 5.657127e+002
9.661632e+002, 5.650827e+002
9.666453e+002, 5.637043e+002
9.671274e+002, 5.617796e+002
9.676096e+002, 5.590704e+002
9.680917e+002, 5.560389e+002
9.685738e+002, 5.532900e+002
9.690559e+002, 5.508383e+002
9.695380e+002, 5.482341e+002
9.700201e+002, 5.451371e+002
9.705023e+002, 5.421454e+002
9.709844e+002, 5.393854e+002
9.714665e+002, 5.368787e+002
9.719486e+002, 5.347535e+002
9.724307e+002, 5.328334e+002
9.729128e+002, 5.303998e+002
9.733950e+002, 5.273180e+002
9.738771e+002, 5.256329e+002
9.743592e+002, 5.278092e+002
9.748413e+002, 5.306300e+002
9.753234e+002, 5.310580e+002
9.758055e+002, 5.304246e+002
9.762877e+002, 5.306620e+002
9.767698e+002, 5.318765e+002
9.772519e+002, 5.332233e+002
9.777340e+002, 5.342978e+002
9.782161e+002, 5.356849e+002
9.786982e+002, 5.382408e+002
9.791804e+002, 5.414146e+002
9.796625e+002, 5.441844e+002
9.801446e+002, 5.466086e+002
9.806267e+002, 5.492291e+002
9.811088e+002, 5.520294e+002
9.815909e+002, 5.541506e+002
9.820731e+002, 5.550909e+002
9.825552e+002, 5.544482e+002
9.830373e+002, 5.507320e+002
9.835194e+002, 5.445089e+002
9.840015e+002, 5.403010e+002
9.844836e+002, 5.382139e+002
9.849658e+002, 5.347253e+002
9.854479e+002, 5.285982e+002
9.859300e+002, 5.218734e+002
9.864121e+002, 5.163010e+002
9.868942e+002, 5.118326e+002
9.873763e+002, 5.086379e+002
9.878585e+002, 5.070467e+002
9.883406e+002, 5.044313e+002
9.888227e+002, 5.003503e+002
9.893048e+002, 4.962975e+002
9.897869e+002, 4.929574e+002
9.902690e+002, 4.898033e+002
9.907512e+002, 4.861010e+002
9.912333e+002, 4.819570e+002
9.917154e+002, 4.788827e+002
9.921975e+002, 4.776982e+002
9.926796e+002, 4.757604e+002
9.931617e+002, 4.714313e+002
9.936439e+002, 4.683763e+002
9.941260e+002, 4.696575e+002
9.946081e+002, 4.724265e+002
9.950902e+002, 4.723327e+002
9.955723e+002, 4.692516e+002
9.960544e+002, 4.671436e+002
9.965366e+002, 4.667856e+002
9.970187e+002, 4.665008e+002
9.975008e+002, 4.664740e+002
9.979829e+002, 4.659872e+002
9.984650e+002, 4.640744e+002
9.989471e+002, 4.616162e+002
9.994293e+002, 4.601035e+002
9.999114e+002, 4.597476e+002
1.000393e+003, 4.598504e+002
1.000876e+003, 4.604337e+002
1.001358e+003, 4.611685e+002
1.001840e+003, 4.624505e+002
1.002322e+003, 4.633670e+002
1.002804e+003, 4.627139e+002
1.003286e+003, 4.611245e+002
1.003768e+003, 4.601616e+002
1.004250e+003, 4.602829e+002
1.004733e+003, 4.605266e+002
1.005215e+003, 4.596418e+002
1.005697e+003, 4.594850e+002
1.006179e+003, 4.624443e+002
1.006661e+003, 4.663317e+002
1.007143e+003, 4.681302e+002
1.007625e+003, 4.680699e+002
1.008107e+003, 4.681420e+002
1.008589e+003, 4.691464e+002
1.009072e+003, 4.707485e+002
1.009554e+003, 4.734449e+002
1.010036e+003, 4.759315e+002
1.010518e+003, 4.760148e+002
1.011000e+003, 4.749076e+002
1.011482e+003, 4.747083e+002
1.011964e+003, 4.759465e+002
1.012446e+003, 4.789419e+002
1.012929e+003, 4.840402e+002
1.013411e+003, 4.895448e+002
1.013893e+003, 4.933644e+002
1.014375e+003, 4.961655e+002
1.014857e+003, 4.992240e+002
1.015339e+003, 5.025053e+002
1.015821e+003, 5.056026e+002
1.016303e+003, 5.085162e+002
1.016785e+003, 5.120918e+002
1.017268e+003, 5.169814e+002
1.017750e+003, 5.224003e+002
1.018232e+003, 5.271337e+002
1.018714e+003, 5.313339e+002
1.019196e+003, 5.358576e+002
1.019678e+003, 5.405967e+002
1.020160e+003, 5.443114e+002
1.020642e+003, 5.466887e+002
1.021125e+003, 5.491278e+002
1.021607e+003, 5.528312e+002
1.022089e+003, 5.571528e+002
1.022571e+003, 5.607643e+002
1.023053e+003, 5.636832e+002
1.023535e+003, 5.658111e+002
1.024017e+003, 5.671477e+002
1.024499e+003, 5.675740e+002
1.024981e+003, 5.670273e+002
1.025464e+003, 5.657324e+002
1.025946e+003, 5.638367e+002
1.026428e+003, 5.614620e+002
1.026910e+003, 5.590488e+002
1.027392e+003, 5.566604e+002
1.027874e+003, 5.533557e+002
1.028356e+003, 5.486861e+002
1.028838e+003, 5.452986e+002
1.029321e+003, 5.445113e+002
1.029803e+003, 5.440961e+002
1.030285e+003, 5.417219e+002
1.030767e+003, 5.379537e+002
1.031249e+003, 5.355551e+002
1.031731e+003, 5.353239e+002
1.032213e+003, 5.331133e+002
1.032695e+003, 5.276559e+002
1.033177e+003, 5.232089e+002
1.033660e+003, 5.216546e+002
1.034142e+003, 5.211696e+002
1.034624e+003, 5.196510e+002
1.035106e+003, 5.175150e+002
1.035588e+003, 5.175579e+002
1.036070e+003, 5.212752e+002
1.036552e+003, 5.235574e+002
1.037034e+003, 5.237282e+002
1.037516e+003, 5.234542e+002
1.037999e+003, 5.231721e+002
1.038481e+003, 5.228978e+002
1.038963e+003, 5.224569e+002
1.039445e+003, 5.219737e+002
1.039927e+003, 5.224232e+002
1.040409e+003, 5.245605e+002
1.040891e+003, 5.263092e+002
1.041373e+003, 5.277783e+002
1.041855e+003, 5.287006e+002
1.042338e+003, 5.288072e+002
1.042820e+003, 5.284366e+002
1.043302e+003, 5.278297e+002
1.043784e+003, 5.270233e+002
1.044266e+003, 5.262684e+002
1.044748e+003, 5.260024e+002
1.045230e+003, 5.250706e+002
1.045712e+003, 5.228447e+002
1.046195e+003, 5.206359e+002
1.046677e+003, 5.194664e+002
1.047159e+003, 5.182084e+002
1.047641e+003, 5.154218e+002
1.048123e+003, 5.113058e+002
1.048605e+003, 5.074536e+002
1.049087e+003, 5.038185e+002
1.049569e+003, 5.008107e+002
1.050052e+003, 4.990938e+002
1.050534e+003, 4.973175e+002
1.051016e+003, 4.952084e+002
1.051498e+003, 4.924780e+002
1.051980e+003, 4.879943e+002
1.052462e+003, 4.823658e+002
1.052944e+003, 4.791058e+002
1.053426e+003, 4.802361e+002
1.053908e+003, 4.808771e+002
1.054391e+003, 4.803300e+002
1.054873e+003, 4.785884e+002
1.055355e+003, 4.743429e+002
1.055837e+003, 4.698051e+002
1.056319e+003, 4.676134e+002
1.056801e+003, 4.675626e+002
1.057283e+003, 4.674545e+002
1.057765e+003, 4.668207e+002
1.058248e+003, 4.660080e+002
1.058730e+003, 4.650739e+002
1.059212e+003, 4.640367e+002
1.059694e+003, 4.626849e+002
1.060176e+003, 4.613918e+002
1.060658e+003, 4.608270e+002
1.061140e+003, 4.607553e+002
1.061622e+003, 4.600168e+002
1.062104e+003, 4.581363e+002
1.062587e+003, 4.560507e+002
1.063069e+003, 4.533170e+002
1.063551e+003, 4.513677e+002
1.064033e+003, 4.516915e+002
1.064515e+003, 4.528009e+002
1.064997e+003, 4.532181e+002
1.065479e+003, 4.527759e+002
1.065961e+003, 4.514709e+002
1.066443e+003, 4.487302e+002
1.066926e+003, 4.472092e+002
1.067408e+003, 4.492084e+002
1.067890e+003, 4.513460e+002
1.068372e+003, 4.513109e+002
1.068854e+003, 4.505253e+002
1.069336e+003, 4.507494e+002
1.069818e+003, 4.518199e+002
1.070300e+003, 4.525181e+002
1.070782e+003, 4.524287e+002
1.071265e+003, 4.522889e+002
1.071747e+003, 4.522882e+002
1.072229e+003, 4.524924e+002
1.072711e+003, 4.534529e+002
1.073193e+003, 4.542535e+002
1.073675e+003, 4.536934e+002
1.074157e+003, 4.521083e+002
1.074639e+003, 4.505756e+002
1.075122e+003, 4.493230e+002
1.075604e+003, 4.487134e+002
1.076086e+003, 4.495152e+002
1.076568e+003, 4.502944e+002
1.077050e+003, 4.502986e+002
1.077532e+003, 4.497880e+002
1.078014e+003, 4.489142e+002
1.078496e+003, 4.478094e+002
1.078979e+003, 4.466434e+002
1.079461e+003, 4.454469e+002
1.079943e+003, 4.444223e+002
1.080425e+003, 4.440891e+002
1.080907e+003, 4.434395e+002
1.081389e+003, 4.416030e+002
1.081871e+003, 4.394632e+002
1.082353e+003, 4.377958e+002
1.082835e+003, 4.365315e+002
1.083318e+003, 4.355211e+002
1.083800e+003, 4.347168e+002
1.084282e+003, 4.333242e+002
1.084764e+003, 4.302896e+002
1.085246e+003, 4.274922e+002
1.085728e+003, 4.257370e+002
1.086210e+003, 4.247413e+002
1.086692e+003, 4.245402e+002
1.087175e+003, 4.247894e+002
1.087657e+003, 4.249374e+002
1.088139e+003, 4.248995e+002
1.088621e+003, 4.250619e+002
1.089103e+003, 4.262829e+002
1.089585e+003, 4.267405e+002
1.090067e+003, 4.249258e+002
1.090549e+003, 4.227596e+002
1.091031e+003, 4.214994e+002
1.091514e+003, 4.209936e+002
1.091996e+003, 4.208313e+002
1.092478e+003, 4.209804e+002
1.092960e+003, 4.218086e+002
1.093442e+003, 4.245312e+002
1.093924e+003, 4.259045e+002
1.094406e+003, 4.234648e+002
1.094888e+003, 4.206528e+002
1.095370e+003, 4.192292e+002
1.095853e+003, 4.190877e+002
1.096335e+003, 4.205870e+002
1.096817e+003, 4.231958e+002
1.097299e+003, 4.245511e+002
1.097781e+003, 4.236341e+002
1.098263e+003, 4.224659e+002
1.098745e+003, 4.215469e+002
1.099227e+003, 4.207085e+002
1.099709e+003, 4.196012e+002
1.100192e+003, 4.187321e+002
1.100674e+003, 4.185528e+002
1.101156e+003, 4.190941e+002
1.101638e+003, 4.204226e+002
1.102120e+003, 4.228777e+002
1.102602e+003, 4.248565e+002
1.103084e+003, 4.257797e+002
1.103566e+003, 4.263977e+002
1.104049e+003, 4.267472e+002
1.104531e+003, 4.271413e+002
1.105013e+003, 4.279199e+002
1.105495e+003, 4.289220e+002
1.105977e+003, 4.294014e+002
1.106459e+003, 4.288866e+002
1.106941e+003, 4.305142e+002
1.107423e+003, 4.372574e+002
1.107906e+003, 4.427917e+002
1.108388e+003, 4.451659e+002
1.108870e+003, 4.460870e+002
1.109352e+003, 4.457095e+002
1.109834e+003, 4.450633e+002
1.110316e+003, 4.461736e+002
1.110798e+003, 4.492903e+002
1.111280e+003, 4.510251e+002
1.111762e+003, 4.501021e+002
1.112245e+003, 4.493292e+002
1.112727e+003, 4.494623e+002
1.113209e+003, 4.493486e+002
1.113691e+003, 4.479480e+002
1.114173e+003, 4.462954e+002
1.114655e+003, 4.458994e+002
1.115137e+003, 4.466357e+002
1.115619e+003, 4.467289e+002
1.116102e+003, 4.455050e+002
1.116584e+003, 4.448516e+002
1.117066e+003, 4.457406e+002
1.117548e+003, 4.457613e+002
1.118030e+003, 4.434692e+002
1.118512e+003, 4.406226e+002
1.118994e+003, 4.389771e+002
1.119476e+003, 4.381481e+002
1.119958e+003, 4.364672e+002
1.120441e+003, 4.331616e+002
1.120923e+003, 4.316316e+002
1.121405e+003, 4.332279e+002
1.121887e+003, 4.335432e+002
1.122369e+003, 4.307516e+002
1.122851e+003, 4.277444e+002
1.123333e+003, 4.268880e+002
1.123815e+003, 4.270416e+002
1.124297e+003, 4.255364e+002
1.124780e+003, 4.221733e+002
1.125262e+003, 4.197643e+002
1.125744e+003, 4.183338e+002
1.126226e+003, 4.179293e+002
1.126708e+003, 4.187983e+002
1.127190e+003, 4.200090e+002
1.127672e+003, 4.212857e+002
1.128154e+003, 4.219883e+002
1.128636e+003, 4.209803e+002
1.129119e+003, 4.185511e+002
1.129601e+003, 4.171960e+002
1.130083e+003, 4.169876e+002
1.130565e+003, 4.171483e+002
1.131047e+003, 4.177290e+002
1.131529e+003, 4.173764e+002
1.132011e+003, 4.154539e+002
1.132493e+003, 4.130412e+002
1.132976e+003, 4.111439e+002
1.133458e+003, 4.097780e+002
1.133940e+003, 4.089605e+002
1.134422e+003, 4.086968e+002
1.134904e+003, 4.094401e+002
1.135386e+003, 4.111124e+002
1.135868e+003, 4.116114e+002
1.136350e+003, 4.103910e+002
1.136833e+003, 4.090588e+002
1.137315e+003, 4.087780e+002
1.137797e+003, 4.088418e+002
1.138279e+003, 4.074945e+002
1.138761e+003, 4.056171e+002
1.139243e+003, 4.070253e+002
1.139725e+003, 4.107686e+002
1.140207e+003, 4.129023e+002
1.140689e+003, 4.127905e+002
1.141172e+003, 4.109792e+002
1.141654e+003, 4.077608e+002
1.142136e+003, 4.048731e+002
1.142618e+003, 4.044037e+002
1.143100e+003, 4.051911e+002
1.143582e+003, 4.055167e+002
1.144064e+003, 4.055004e+002
1.144546e+003, 4.054147e+002
1.145029e+003, 4.052273e+002
1.145511e+003, 4.044477e+002
1.145993e+003, 4.031183e+002
1.146475e+003, 4.027274e+002
1.146957e+003, 4.047121e+002
1.147439e+003, 4.069279e+002
1.147921e+003, 4.071375e+002
1.148403e+003, 4.064870e+002
1.148885e+003, 4.064079e+002
1.149368e+003, 4.064780e+002
1.149850e+003, 4.049778e+002
1.150332e+003, 4.025818e+002
1.150814e+003, 4.032308e+002
1.151296e+003, 4.093011e+002
1.151778e+003, 4.138938e+002
1.152260e+003, 4.114247e+002
1.152742e+003, 4.077336e+002
1.153224e+003, 4.063877e+002
1.153707e+003, 4.062055e+002
1.154189e+003, 4.059997e+002
1.154671e+003, 4.057085e+002
1.155153e+003, 4.054682e+002
1.155635e+003, 4.053015e+002
1.156117e+003, 4.056812e+002
1.156599e+003, 4.076728e+002
1.157081e+003, 4.089269e+002
1.157563e+003, 4.083542e+002
1.158046e+003, 4.072191e+002
1.158528e+003, 4.057859e+002
1.159010e+003, 4.045871e+002
1.159492e+003, 4.043138e+002
1.159974e+003, 4.049206e+002
1.160456e+003, 4.057397e+002
1.160938e+003, 4.072603e+002
1.161420e+003, 4.079361e+002
1.161903e+003, 4.072768e+002
1.162385e+003, 4.063653e+002
1.162867e+003, 4.051728e+002
1.163349e+003, 4.041957e+002
1.163831e+003, 4.038382e+002
1.164313e+003, 4.039692e+002
1.164795e+003, 4.043407e+002
1.165277e+003, 4.050289e+002
1.165760e+003, 4.052919e+002
1.166242e+003, 4.049861e+002
1.166724e+003, 4.047141e+002
1.167206e+003, 4.045788e+002
1.167688e+003, 4.045345e+002
1.168170e+003, 4.047268e+002
1.168652e+003, 4.044305e+002
1.169134e+003, 4.023838e+002
1.169616e+003, 3.993372e+002
1.170099e+003, 3.993775e+002
1.170581e+003, 4.025633e+002
1.171063e+003, 4.035781e+002
1.171545e+003, 4.020811e+002
1.172027e+003, 4.010593e+002
1.172509e+003, 4.014170e+002
1.172991e+003, 4.026753e+002
1.173473e+003, 4.045984e+002
1.173956e+003, 4.064444e+002
1.174438e+003, 4.065651e+002
1.174920e+003, 4.056551e+002
1.175402e+003, 4.061394e+002
1.175884e+003, 4.076125e+002
1.176366e+003, 4.085903e+002
1.176848e+003, 4.088888e+002
1.177330e+003, 4.089502e+002
1.177813e+003, 4.089674e+002
1.178295e+003, 4.087860e+002
1.178777e+003, 4.078694e+002
1.179259e+003, 4.072763e+002
1.179741e+003, 4.089240e+002
1.180223e+003, 4.113081e+002
1.180705e+003, 4.122733e+002
1.181187e+003, 4.121864e+002
1.181669e+003, 4.121818e+002
1.182151e+003, 4.124178e+002
1.182634e+003, 4.122292e+002
1.183116e+003, 4.111573e+002
1.183598e+003, 4.102215e+002
1.184080e+003, 4.100039e+002
1.184562e+003, 4.101417e+002
1.185044e+003, 4.102378e+002
1.185526e+003, 4.106904e+002
1.186008e+003, 4.121309e+002
1.186490e+003, 4.142196e+002
1.186973e+003, 4.160783e+002
1.187455e+003, 4.175314e+002
1.187937e+003, 4.192485e+002
1.188419e+003, 4.220544e+002
1.188901e+003, 4.241100e+002
1.189383e+003, 4.241327e+002
1.189865e+003, 4.244220e+002
1.190347e+003, 4.264431e+002
1.190830e+003, 4.290738e+002
1.191312e+003, 4.312051e+002
1.191794e+003, 4.328988e+002
1.192276e+003, 4.345511e+002
1.192758e+003, 4.365560e+002
1.193240e+003, 4.369078e+002
1.193722e+003, 4.343631e+002
1.194204e+003, 4.342505e+002
1.194687e+003, 4.388105e+002
1.195169e+003, 4.427303e+002
1.195651e+003, 4.425844e+002
1.196133e+003, 4.400455e+002
1.196615e+003, 4.375359e+002
1.197097e+003, 4.351565e+002
1.197579e+003, 4.335917e+002
1.198061e+003, 4.327888e+002
1.198543e+003, 4.320093e+002
1.199026e+003, 4.311348e+002
1.199508e+003, 4.293858e+002
1.199990e+003, 4.265665e+002
1.200472e+003, 4.239906e+002
1.200954e+003, 4.227666e+002
1.201436e+003, 4.221310e+002
1.201918e+003, 4.214664e+002
1.202400e+003, 4.202313e+002
1.202883e+003, 4.161609e+002
1.203365e+003, 4.110583e+002
1.203847e+003, 4.098160e+002
1.204329e+003, 4.118295e+002
1.204811e+003, 4.122647e+002
1.205293e+003, 4.093967e+002
1.205775e+003, 4.064164e+002
1.206257e+003, 4.055906e+002
1.206740e+003, 4.053122e+002
1.207222e+003, 4.046749e+002
1.207704e+003, 4.038102e+002
1.208186e+003, 4.024376e+002
1.208668e+003, 4.011616e+002
1.209150e+003, 4.009649e+002
1.209632e+003, 4.017357e+002
1.210114e+003, 4.025707e+002
1.210596e+003, 4.037246e+002
1.211078e+003, 4.034192e+002
1.211561e+003, 3.992011e+002
1.212043e+003, 3.963723e+002
1.212525e+003, 3.980162e+002
1.213007e+003, 3.999297e+002
1.213489e+003, 3.990375e+002
1.213971e+003, 3.970229e+002
1.214453e+003, 3.965245e+002
1.214935e+003, 3.974463e+002
1.215417e+003, 3.981044e+002
1.215900e+003, 3.985158e+002
1.216382e+003, 3.985226e+002
1.216864e+003, 3.979876e+002
1.217346e+003, 3.976869e+002
1.217828e+003, 3.979659e+002
1.218310e+003, 3.979093e+002
1.218792e+003, 3.967056e+002
1.219274e+003, 3.951773e+002
1.219757e+003, 3.948445e+002
1.220239e+003, 3.955190e+002
1.220721e+003, 3.966141e+002
1.221203e+003, 3.979002e+002
1.221685e+003, 3.980323e+002
1.222167e+003, 3.970598e+002
1.222649e+003, 3.960135e+002
1.223131e+003, 3.953304e+002
1.223614e+003, 3.954184e+002
1.224096e+003, 3.967473e+002
1.224578e+003, 3.984731e+002
1.225060e+003, 4.002013e+002
1.225542e+003, 4.013264e+002
1.226024e+003, 4.002348e+002
1.226506e+003, 3.985640e+002
1.226988e+003, 3.995980e+002
1.227470e+003, 4.023577e+002
1.227953e+003, 4.028047e+002
1.228435e+003, 3.997428e+002
1.228917e+003, 3.967529e+002
1.229399e+003, 3.943607e+002
1.229881e+003, 3.934922e+002
1.230363e+003, 3.961548e+002
1.230845e+003, 3.984674e+002
1.231327e+003, 3.979071e+002
1.231810e+003, 3.959494e+002
1.232292e+003, 3.939438e+002
1.232774e+003, 3.921172e+002
1.233256e+003, 3.912716e+002
1.233738e+003, 3.914516e+002
1.234220e+003, 3.925820e+002
1.234702e+003, 3.952533e+002
1.235184e+003, 3.968329e+002
1.235667e+003, 3.965681e+002
1.236149e+003, 3.963462e+002
1.236631e+003, 3.972905e+002
1.237113e+003, 3.979091e+002
1.237595e+003, 3.960608e+002
1.238077e+003, 3.931295e+002
1.238559e+003, 3.935313e+002
1.239041e+003, 3.966226e+002
1.239523e+003, 4.000819e+002
1.240005e+003, 4.031230e+002
1.240488e+003, 4.018243e+002
1.240970e+003, 3.962477e+002
1.241452e+003, 3.915745e+002
1.241934e+003, 3.903355e+002
1.242416e+003, 3.905367e+002
1.242898e+003, 3.904748e+002
1.243380e+003, 3.907892e+002
1.243862e+003, 3.927165e+002
1.244344e+003, 3.948575e+002
1.244827e+003, 3.956384e+002
1.245309e+003, 3.954630e+002
1.245791e+003, 3.950504e+002
1.246273e+003, 3.945874e+002
1.246755e+003, 3.942194e+002
1.247237e+003, 3.939533e+002
1.247719e+003, 3.938852e+002
1.248201e+003, 3.942533e+002
1.248684e+003, 3.945156e+002
1.249166e+003, 3.941447e+002
1.249648e+003, 3.940820e+002
1.250130e+003, 3.953061e+002
1.250612e+003, 3.966635e+002
1.251094e+003, 3.963923e+002
1.251576e+003, 3.948742e+002
1.252058e+003, 3.948128e+002
1.252541e+003, 3.966263e+002
1.253023e+003, 3.966065e+002
1.253505e+003, 3.944559e+002
1.253987e+003, 3.927609e+002
1.254469e+003, 3.921081e+002
1.254951e+003, 3.926527e+002
1.255433e+003, 3.945400e+002
1.255915e+003, 3.967106e+002
1.256397e+003, 3.981693e+002
1.256880e+003, 3.986320e+002
1.257362e+003, 3.965009e+002
1.257844e+003, 3.935316e+002
1.258326e+003, 3.935946e+002
1.258808e+003, 3.957311e+002
1.259290e+003, 3.972803e+002
1.259772e+003, 3.977059e+002
1.260254e+003, 3.974294e+002
1.260737e+003, 3.964624e+002
1.261219e+003, 3.960968e+002
1.261701e+003, 3.979438e+002
1.262183e+003, 3.993138e+002
1.262665e+003, 3.980137e+002
1.263147e+003, 3.967087e+002
1.263629e+003, 3.977258e+002
1.264111e+003, 3.997027e+002
1.264594e+003, 4.008313e+002
1.265076e+003, 4.010667e+002
1.265558e+003, 4.004742e+002
1.266040e+003, 3.984809e+002
1.266522e+003, 3.979079e+002
1.267004e+003, 3.994585e+002
1.267486e+003, 3.996873e+002
1.267968e+003, 3.974907e+002
1.268450e+003, 3.962866e+002
1.268932e+003, 3.979843e+002
1.269415e+003, 4.003007e+002
1.269897e+003, 4.006737e+002
1.270379e+003, 3.998011e+002
1.270861e+003, 3.991452e+002
1.271343e+003, 3.987259e+002
1.271825e+003, 3.986858e+002
1.272307e+003, 3.989168e+002
1.272789e+003, 3.992599e+002
1.273271e+003, 3.995433e+002
1.273754e+003, 3.992395e+002
1.274236e+003, 3.981670e+002
1.274718e+003, 3.970548e+002
1.275200e+003, 3.957484e+002
1.275682e+003, 3.955056e+002
1.276164e+003, 3.982127e+002
1.276646e+003, 4.009841e+002
1.277128e+003, 4.021634e+002
1.277611e+003, 4.019259e+002
1.278093e+003, 3.996168e+002
1.278575e+003, 3.962790e+002
1.279057e+003, 3.954970e+002
1.279539e+003, 3.978948e+002
1.280021e+003, 3.983891e+002
1.280503e+003, 3.955163e+002
1.280985e+003, 3.948188e+002
1.281468e+003, 3.974563e+002
1.281950e+003, 4.007324e+002
1.282432e+003, 4.039742e+002
1.282914e+003, 4.054823e+002
1.283396e+003, 4.035247e+002
1.283878e+003, 4.003936e+002
1.284360e+003, 4.004590e+002
1.284842e+003, 4.025222e+002
1.285324e+003, 4.032656e+002
##END=



