##NAMES=Paradamite
##RRUFFID=R050582
##IDEAL CHEMISTRY=Zn^2+^_2_As^5+^O_4_(OH)
##LOCALITY=Ojuela mine, Mapimi, Durango, Mexico
##OWNER=RRUFF
##SOURCE=University of Arizona Mineral Museum
##DESCRIPTION=Groups of tabular pale yellow crystals
##STATUS=The identification of this mineral has been confirmed by X-ray diffraction and chemical analysis
##URL=rruff.info/R050582
##MEASURED CHEMISTRY=Zn_2.00_(As_1.00_O_4_)(OH)
91.11523, 45.31733
91.59735, 46.15197
92.07947, 45.34146
92.56158, 43.42509
93.04370, 42.10308
93.52582, 42.85403
94.00793, 44.84278
94.49006, 46.24057
94.97218, 46.78064
95.45429, 46.87575
95.93641, 47.25626
96.41853, 47.90907
96.90064, 48.29820
97.38276, 47.59182
97.86488, 45.96330
98.34699, 45.44088
98.82911, 46.62667
99.31123, 48.98486
99.79334, 50.89034
100.2755, 52.37244
100.7576, 53.24101
101.2397, 53.00174
101.7218, 51.29332
102.2039, 50.26176
102.6861, 50.72459
103.1682, 52.65736
103.6503, 52.98106
104.1324, 50.70497
104.6145, 47.91747
105.0966, 47.22982
105.5788, 49.80940
106.0609, 52.48666
106.5430, 54.36546
107.0251, 55.08884
107.5072, 56.36857
107.9893, 58.65535
108.4715, 61.39663
108.9536, 63.60065
109.4357, 64.52312
109.9178, 65.59016
110.3999, 67.20571
110.8820, 68.99634
111.3642, 71.91872
111.8463, 76.14840
112.3284, 81.56175
112.8105, 87.81518
113.2926, 95.33131
113.7747, 103.4621
114.2569, 111.7952
114.7390, 119.5906
115.2211, 128.4306
115.7032, 138.8751
116.1853, 150.7328
116.6674, 162.9794
117.1496, 174.3676
117.6317, 186.5932
118.1138, 200.9351
118.5959, 218.3568
119.0780, 237.6108
119.5602, 258.9653
120.0423, 282.4496
120.5244, 305.2140
121.0065, 327.5007
121.4886, 347.7636
121.9707, 364.0272
122.4529, 373.5169
122.9350, 379.6650
123.4171, 384.8442
123.8992, 389.1159
124.3813, 392.9410
124.8634, 396.5200
125.3456, 399.9219
125.8277, 403.3186
126.3098, 405.9786
126.7919, 408.8896
127.2740, 413.3607
127.7561, 419.4428
128.2383, 427.3066
128.7204, 437.5193
129.2025, 449.8766
129.6846, 463.3067
130.1667, 476.4839
130.6488, 490.0177
131.1310, 506.6624
131.6131, 526.9222
132.0952, 550.0625
132.5773, 575.2975
133.0594, 602.7659
133.5415, 630.9983
134.0237, 659.0912
134.5058, 687.2481
134.9879, 716.9993
135.4700, 750.4343
135.9521, 784.7289
136.4343, 813.0775
136.9164, 835.9796
137.3985, 851.0530
137.8806, 855.0086
138.3627, 846.5293
138.8448, 835.3012
139.3270, 821.4569
139.8091, 805.6951
140.2912, 795.3225
140.7733, 791.1174
141.2554, 790.7551
141.7375, 791.6385
142.2197, 792.8529
142.7018, 797.9138
143.1839, 808.3000
143.6660, 824.2981
144.1481, 840.1357
144.6302, 854.1882
145.1124, 869.3485
145.5945, 889.1122
146.0766, 915.9393
146.5587, 943.9348
147.0408, 970.8400
147.5230, 999.1093
148.0051, 1028.244
148.4872, 1057.995
148.9693, 1088.439
149.4514, 1120.647
149.9335, 1153.276
150.4157, 1187.387
150.8978, 1222.720
151.3799, 1260.464
151.8620, 1298.219
152.3441, 1335.463
152.8262, 1373.004
153.3084, 1411.570
153.7905, 1453.297
154.2726, 1494.225
154.7547, 1533.385
155.2368, 1568.509
155.7189, 1604.412
156.2011, 1640.534
156.6832, 1677.854
157.1653, 1717.944
157.6474, 1761.551
158.1295, 1807.600
158.6116, 1855.248
159.0938, 1900.928
159.5759, 1952.792
160.0580, 2014.070
160.5401, 2083.319
161.0222, 2155.810
161.5044, 2226.403
161.9865, 2301.622
162.4686, 2385.831
162.9507, 2480.651
163.4328, 2583.793
163.9149, 2694.728
164.3971, 2814.257
164.8792, 2941.577
165.3613, 3082.627
165.8434, 3228.709
166.3255, 3372.652
166.8076, 3518.958
167.2898, 3654.891
167.7719, 3780.105
168.2540, 3893.323
168.7361, 3981.120
169.2182, 4040.051
169.7003, 4068.398
170.1825, 4064.013
170.6646, 4026.799
171.1467, 3956.627
171.6288, 3846.540
172.1109, 3698.336
172.5931, 3531.892
173.0752, 3348.494
173.5573, 3158.106
174.0394, 2976.167
174.5215, 2804.336
175.0036, 2647.274
175.4858, 2512.099
175.9679, 2397.529
176.4500, 2305.203
176.9321, 2237.379
177.4142, 2191.474
177.8963, 2162.587
178.3785, 2148.413
178.8606, 2149.447
179.3427, 2166.925
179.8248, 2200.907
180.3069, 2249.355
180.7890, 2307.678
181.2712, 2377.727
181.7533, 2465.562
182.2354, 2573.793
182.7175, 2701.528
183.1996, 2846.009
183.6818, 3010.165
184.1639, 3183.871
184.6460, 3369.124
185.1281, 3560.789
185.6102, 3741.460
186.0923, 3916.979
186.5745, 4076.091
187.0566, 4180.576
187.5387, 4232.399
188.0208, 4222.397
188.5029, 4127.950
188.9850, 3952.932
189.4672, 3740.638
189.9493, 3493.375
190.4314, 3221.386
190.9135, 2962.620
191.3956, 2717.194
191.8777, 2493.041
192.3599, 2295.447
192.8420, 2125.282
193.3241, 1976.976
193.8062, 1850.227
194.2883, 1743.304
194.7704, 1651.054
195.2526, 1574.183
195.7347, 1509.737
196.2168, 1453.679
196.6989, 1406.192
197.1810, 1364.334
197.6632, 1326.967
198.1453, 1293.753
198.6274, 1264.834
199.1095, 1240.506
199.5916, 1219.947
200.0737, 1201.730
200.5559, 1185.625
201.0380, 1172.659
201.5201, 1164.103
202.0022, 1160.175
202.4843, 1156.530
202.9664, 1152.462
203.4486, 1149.057
203.9307, 1148.701
204.4128, 1151.465
204.8949, 1156.991
205.3770, 1165.373
205.8591, 1176.810
206.3413, 1189.411
206.8234, 1202.516
207.3055, 1217.107
207.7876, 1235.628
208.2697, 1257.922
208.7519, 1284.136
209.2340, 1314.931
209.7161, 1350.836
210.1982, 1388.451
210.6803, 1427.360
211.1624, 1467.974
211.6446, 1511.698
212.1267, 1558.580
212.6088, 1607.652
213.0909, 1658.629
213.5730, 1711.285
214.0551, 1766.368
214.5373, 1822.596
215.0194, 1881.740
215.5015, 1950.770
215.9836, 2031.789
216.4657, 2119.253
216.9478, 2210.863
217.4300, 2304.232
217.9121, 2410.073
218.3942, 2528.846
218.8763, 2659.460
219.3584, 2798.200
219.8405, 2944.397
220.3227, 3098.172
220.8048, 3258.607
221.2869, 3425.641
221.7690, 3602.519
222.2511, 3788.027
222.7333, 3983.317
223.2154, 4185.510
223.6975, 4396.356
224.1796, 4614.980
224.6617, 4843.249
225.1438, 5086.419
225.6260, 5324.425
226.1081, 5556.140
226.5902, 5782.245
227.0723, 5999.148
227.5544, 6217.768
228.0365, 6414.083
228.5187, 6575.109
229.0008, 6688.723
229.4829, 6794.771
229.9650, 6887.384
230.4471, 6975.102
230.9292, 7079.290
231.4114, 7195.299
231.8935, 7337.105
232.3756, 7508.777
232.8577, 7715.529
233.3398, 7947.751
233.8220, 8215.991
234.3041, 8506.705
234.7862, 8784.604
235.2683, 9066.637
235.7504, 9309.209
236.2325, 9505.433
236.7147, 9678.166
237.1968, 9738.729
237.6789, 9684.241
238.1610, 9519.871
238.6431, 9252.816
239.1252, 8855.715
239.6074, 8393.326
240.0895, 7876.823
240.5716, 7282.974
241.0537, 6714.641
241.5358, 6165.746
242.0179, 5644.766
242.5001, 5168.125
242.9822, 4736.527
243.4643, 4347.550
243.9464, 4001.894
244.4285, 3702.294
244.9106, 3434.511
245.3928, 3199.679
245.8749, 2993.846
246.3570, 2811.247
246.8391, 2655.743
247.3212, 2516.974
247.8034, 2392.995
248.2855, 2285.286
248.7676, 2184.878
249.2497, 2090.721
249.7318, 2003.908
250.2139, 1926.383
250.6961, 1859.588
251.1782, 1799.387
251.6603, 1744.584
252.1424, 1695.317
252.6245, 1649.835
253.1066, 1607.867
253.5888, 1569.572
254.0709, 1534.648
254.5530, 1503.514
255.0351, 1474.735
255.5172, 1448.089
255.9993, 1423.343
256.4815, 1401.733
256.9636, 1384.240
257.4457, 1369.078
257.9278, 1353.886
258.4099, 1337.659
258.8921, 1323.651
259.3742, 1312.769
259.8563, 1305.138
260.3384, 1297.748
260.8205, 1289.519
261.3026, 1283.072
261.7848, 1281.432
262.2669, 1286.212
262.7490, 1291.331
263.2311, 1295.188
263.7132, 1298.005
264.1953, 1303.016
264.6775, 1310.083
265.1596, 1319.531
265.6417, 1331.848
266.1238, 1347.396
266.6059, 1364.302
267.0880, 1381.751
267.5702, 1400.212
268.0523, 1422.084
268.5344, 1448.754
269.0165, 1476.587
269.4986, 1502.942
269.9807, 1527.551
270.4629, 1552.836
270.9450, 1578.559
271.4271, 1605.413
271.9092, 1635.521
272.3913, 1669.582
272.8734, 1704.901
273.3556, 1738.679
273.8377, 1769.916
274.3198, 1806.475
274.8019, 1850.186
275.2840, 1899.274
275.7661, 1949.617
276.2483, 2001.013
276.7304, 2053.985
277.2125, 2106.788
277.6946, 2159.271
278.1768, 2217.483
278.6589, 2282.651
279.1410, 2352.599
279.6231, 2423.551
280.1052, 2496.476
280.5873, 2568.651
281.0695, 2640.025
281.5516, 2710.843
282.0337, 2773.680
282.5158, 2829.143
282.9979, 2874.934
283.4800, 2910.166
283.9622, 2935.271
284.4443, 2940.300
284.9264, 2920.090
285.4085, 2875.523
285.8906, 2811.546
286.3727, 2727.121
286.8549, 2626.948
287.3370, 2512.635
287.8191, 2384.818
288.3012, 2255.776
288.7833, 2128.319
289.2654, 2004.422
289.7476, 1888.370
290.2297, 1780.083
290.7118, 1680.410
291.1939, 1590.022
291.6760, 1509.521
292.1581, 1437.792
292.6403, 1375.851
293.1224, 1321.999
293.6045, 1270.189
294.0866, 1220.829
294.5687, 1176.705
295.0508, 1142.089
295.5330, 1115.055
296.0151, 1089.735
296.4972, 1064.584
296.9793, 1040.105
297.4614, 1017.418
297.9435, 996.4014
298.4257, 977.8574
298.9078, 963.4208
299.3899, 951.8747
299.8720, 941.0059
300.3541, 930.2579
300.8362, 920.1215
301.3184, 910.8654
301.8005, 902.5412
302.2826, 895.7567
302.7647, 891.9447
303.2469, 889.4942
303.7290, 885.8138
304.2111, 880.3873
304.6932, 874.6496
305.1753, 870.3791
305.6574, 866.9616
306.1396, 863.1172
306.6217, 858.1166
307.1038, 852.3552
307.5859, 846.1338
308.0680, 839.3878
308.5501, 832.5038
309.0323, 825.8957
309.5144, 819.3088
309.9965, 812.3699
310.4786, 804.8321
310.9607, 796.8715
311.4428, 788.5018
311.9250, 779.7767
312.4071, 770.8762
312.8892, 762.3589
313.3713, 753.7701
313.8534, 744.5389
314.3355, 732.7960
314.8177, 722.0092
315.2998, 714.2787
315.7819, 709.2346
316.2640, 704.7042
316.7461, 700.0247
317.2282, 695.3741
317.7104, 690.8372
318.1925, 686.4593
318.6746, 682.1542
319.1567, 677.4349
319.6388, 672.6846
320.1209, 669.0647
320.6031, 668.3471
321.0852, 667.7967
321.5673, 665.8660
322.0494, 661.5995
322.5315, 657.7337
323.0136, 654.8992
323.4958, 652.8116
323.9779, 651.0060
324.4600, 649.0223
324.9421, 647.6655
325.4242, 647.5544
325.9064, 649.2040
326.3885, 649.8998
326.8706, 648.3264
327.3527, 646.1542
327.8348, 645.1224
328.3170, 646.6935
328.7991, 647.8902
329.2812, 647.8108
329.7633, 646.3820
330.2454, 646.3956
330.7275, 648.9260
331.2097, 652.0032
331.6918, 654.1599
332.1739, 654.1054
332.6560, 655.2493
333.1381, 658.2918
333.6202, 662.8156
334.1024, 666.8189
334.5845, 670.2341
335.0666, 673.1501
335.5487, 675.3150
336.0308, 675.8217
336.5129, 678.2370
336.9951, 683.1467
337.4772, 689.6738
337.9593, 696.3068
338.4414, 703.0960
338.9235, 709.9562
339.4056, 716.6819
339.8878, 723.1086
340.3699, 731.0795
340.8520, 740.8565
341.3341, 751.7865
341.8162, 763.4355
342.2983, 775.7059
342.7805, 788.6981
343.2626, 802.5057
343.7447, 817.0389
344.2268, 830.7133
344.7089, 843.3400
345.1910, 856.9299
345.6732, 873.8927
346.1553, 893.9553
346.6374, 912.9765
347.1195, 929.8145
347.6016, 945.8171
348.0837, 963.6826
348.5659, 983.5201
349.0480, 1004.588
349.5301, 1025.441
350.0122, 1047.151
350.4944, 1071.983
350.9765, 1100.488
351.4586, 1131.063
351.9407, 1161.134
352.4228, 1191.228
352.9049, 1223.051
353.3871, 1257.374
353.8692, 1293.989
354.3513, 1332.936
354.8334, 1374.263
355.3155, 1416.660
355.7976, 1462.148
356.2798, 1507.827
356.7619, 1549.547
357.2440, 1585.687
357.7261, 1616.728
358.2082, 1644.372
358.6903, 1667.918
359.1725, 1682.684
359.6546, 1686.608
360.1367, 1680.378
360.6188, 1664.172
361.1009, 1636.556
361.5830, 1601.656
362.0652, 1558.438
362.5473, 1509.110
363.0294, 1459.093
363.5115, 1407.402
363.9936, 1357.498
364.4757, 1311.396
364.9579, 1268.701
365.4400, 1230.436
365.9221, 1196.169
366.4042, 1166.330
366.8863, 1141.454
367.3684, 1122.119
367.8506, 1107.245
368.3327, 1096.703
368.8148, 1090.643
369.2969, 1088.435
369.7790, 1090.541
370.2611, 1096.063
370.7433, 1104.499
371.2254, 1116.465
371.7075, 1130.184
372.1896, 1145.431
372.6717, 1162.383
373.1538, 1181.544
373.6360, 1203.499
374.1181, 1226.618
374.6002, 1249.729
375.0823, 1272.480
375.5645, 1296.780
376.0466, 1321.898
376.5287, 1349.025
377.0108, 1380.283
377.4929, 1415.316
377.9750, 1453.530
378.4572, 1494.184
378.9393, 1537.524
379.4214, 1584.312
379.9035, 1634.010
380.3856, 1687.845
380.8677, 1746.481
381.3499, 1809.864
381.8320, 1877.094
382.3141, 1949.055
382.7962, 2024.247
383.2783, 2102.600
383.7604, 2183.576
384.2426, 2263.673
384.7247, 2344.297
385.2068, 2421.911
385.6889, 2494.788
386.1710, 2564.151
386.6531, 2619.776
387.1353, 2654.652
387.6174, 2667.761
388.0995, 2657.285
388.5816, 2620.853
389.0637, 2561.233
389.5458, 2476.257
390.0280, 2365.821
390.5101, 2246.989
390.9922, 2121.770
391.4743, 1998.184
391.9564, 1883.370
392.4385, 1779.098
392.9207, 1685.733
393.4028, 1605.069
393.8849, 1536.362
394.3670, 1477.198
394.8491, 1429.046
395.3312, 1389.187
395.8134, 1356.515
396.2955, 1331.656
396.7776, 1311.636
397.2597, 1296.156
397.7418, 1285.246
398.2239, 1278.915
398.7061, 1278.834
399.1882, 1281.772
399.6703, 1287.307
400.1524, 1295.449
400.6346, 1305.542
401.1167, 1316.927
401.5988, 1330.710
402.0809, 1347.777
402.5630, 1369.529
403.0451, 1391.865
403.5273, 1413.988
404.0094, 1436.493
404.4915, 1460.917
404.9736, 1487.669
405.4557, 1515.442
405.9378, 1543.983
406.4200, 1573.313
406.9021, 1603.016
407.3842, 1632.614
407.8663, 1662.994
408.3484, 1695.357
408.8305, 1729.887
409.3127, 1764.981
409.7948, 1800.498
410.2769, 1836.135
410.7590, 1871.033
411.2411, 1905.373
411.7232, 1937.744
412.2054, 1967.360
412.6875, 1994.737
413.1696, 2020.636
413.6517, 2046.053
414.1338, 2068.481
414.6159, 2085.388
415.0981, 2096.856
415.5802, 2102.867
416.0623, 2104.081
416.5444, 2099.249
417.0265, 2087.283
417.5086, 2068.106
417.9908, 2041.835
418.4729, 2007.154
418.9550, 1966.054
419.4371, 1921.161
419.9192, 1871.340
420.4013, 1819.438
420.8835, 1765.834
421.3656, 1711.171
421.8477, 1656.215
422.3298, 1599.897
422.8119, 1545.218
423.2940, 1493.122
423.7762, 1444.702
424.2583, 1397.319
424.7404, 1349.777
425.2225, 1304.209
425.7047, 1261.675
426.1868, 1223.478
426.6689, 1187.213
427.1510, 1151.948
427.6331, 1117.966
428.1152, 1086.934
428.5974, 1058.763
429.0795, 1033.112
429.5616, 1009.702
430.0437, 988.9911
430.5258, 968.7795
431.0079, 948.9352
431.4901, 929.7943
431.9722, 911.8063
432.4543, 894.9847
432.9364, 879.6595
433.4185, 866.4551
433.9006, 855.0529
434.3828, 844.4011
434.8649, 834.5127
435.3470, 825.2425
435.8291, 816.1108
436.3112, 807.4222
436.7933, 800.4258
437.2755, 795.6076
437.7576, 791.9582
438.2397, 788.4355
438.7218, 785.1147
439.2039, 782.2288
439.6860, 779.3719
440.1682, 777.3027
440.6503, 776.9514
441.1324, 778.3759
441.6145, 780.7321
442.0966, 783.6592
442.5787, 787.1699
443.0609, 791.2750
443.5430, 795.6696
444.0251, 800.9482
444.5072, 807.5072
444.9893, 815.1472
445.4714, 823.2188
445.9536, 830.7864
446.4357, 839.4710
446.9178, 850.0685
447.3999, 863.1375
447.8820, 876.8651
448.3641, 890.6165
448.8463, 905.4017
449.3284, 922.6289
449.8105, 942.8654
450.2926, 964.2069
450.7747, 986.2411
451.2569, 1009.200
451.7390, 1033.676
452.2211, 1059.923
452.7032, 1087.633
453.1853, 1116.713
453.6674, 1147.434
454.1496, 1178.567
454.6317, 1210.033
455.1138, 1242.496
455.5959, 1276.304
456.0780, 1311.735
456.5602, 1348.799
457.0423, 1387.761
457.5244, 1428.081
458.0065, 1469.043
458.4886, 1510.431
458.9707, 1553.851
459.4529, 1600.131
459.9350, 1649.210
460.4171, 1699.470
460.8992, 1751.584
461.3813, 1804.712
461.8634, 1858.050
462.3456, 1912.331
462.8277, 1967.576
463.3098, 2026.997
463.7919, 2085.425
464.2740, 2140.704
464.7561, 2192.756
465.2383, 2241.887
465.7204, 2289.848
466.2025, 2333.802
466.6846, 2371.625
467.1667, 2403.694
467.6488, 2428.404
468.1310, 2447.808
468.6131, 2459.328
469.0952, 2458.887
469.5773, 2443.402
470.0594, 2420.869
470.5415, 2392.226
471.0237, 2357.677
471.5058, 2319.357
471.9879, 2276.203
472.4700, 2231.544
472.9521, 2186.655
473.4342, 2140.974
473.9164, 2102.764
474.3985, 2073.125
474.8806, 2049.711
475.3627, 2027.887
475.8448, 2007.999
476.3270, 1993.640
476.8091, 1986.645
477.2912, 1986.181
477.7733, 1990.740
478.2554, 2000.351
478.7375, 2015.535
479.2197, 2037.871
479.7018, 2065.721
480.1839, 2096.752
480.6660, 2130.530
481.1481, 2166.940
481.6302, 2206.709
482.1124, 2248.874
482.5945, 2291.807
483.0766, 2334.025
483.5587, 2377.876
484.0408, 2425.824
484.5229, 2477.444
485.0051, 2525.223
485.4872, 2567.986
485.9693, 2606.477
486.4514, 2640.761
486.9335, 2672.072
487.4156, 2697.815
487.8978, 2718.463
488.3799, 2733.234
488.8620, 2741.069
489.3441, 2740.438
489.8262, 2736.673
490.3083, 2730.865
490.7905, 2723.021
491.2726, 2712.708
491.7547, 2699.247
492.2368, 2686.337
492.7189, 2676.019
493.2010, 2668.396
493.6832, 2665.353
494.1653, 2667.120
494.6474, 2673.023
495.1295, 2684.241
495.6116, 2699.207
496.0938, 2713.254
496.5759, 2724.316
497.0580, 2733.752
497.5401, 2745.801
498.0222, 2758.752
498.5044, 2763.305
498.9865, 2756.454
499.4686, 2737.685
499.9507, 2706.668
500.4328, 2663.370
500.9149, 2608.085
501.3971, 2537.557
501.8792, 2455.930
502.3613, 2368.098
502.8434, 2265.510
503.3255, 2166.120
503.8076, 2071.355
504.2898, 1981.612
504.7719, 1898.950
505.2540, 1823.985
505.7361, 1755.436
506.2182, 1692.412
506.7003, 1635.469
507.1825, 1582.803
507.6646, 1534.901
508.1467, 1490.262
508.6288, 1447.528
509.1109, 1406.710
509.5930, 1367.546
510.0752, 1330.294
510.5573, 1294.248
511.0394, 1257.733
511.5215, 1221.009
512.0037, 1185.673
512.4858, 1153.753
512.9679, 1123.252
513.4500, 1090.517
513.9321, 1055.488
514.4142, 1022.300
514.8964, 995.0594
515.3785, 970.5035
515.8606, 945.2721
516.3427, 916.7458
516.8248, 890.2493
517.3069, 868.2322
517.7891, 849.5967
518.2712, 832.2407
518.7533, 815.7065
519.2354, 800.6036
519.7175, 787.8473
520.1996, 777.3150
520.6818, 766.0169
521.1639, 753.0229
521.6460, 740.3677
522.1281, 729.3322
522.6102, 720.0320
523.0923, 711.7333
523.5745, 704.5605
524.0566, 698.1103
524.5387, 691.9182
525.0208, 685.9570
525.5029, 679.8734
525.9850, 673.3618
526.4672, 666.8448
526.9493, 661.2566
527.4314, 656.4597
527.9135, 651.7227
528.3956, 645.8961
528.8777, 640.0140
529.3599, 635.7780
529.8420, 633.3754
530.3241, 631.2703
530.8062, 629.2258
531.2883, 626.5485
531.7704, 622.4549
532.2526, 614.8298
532.7347, 608.1833
533.2168, 604.3443
533.6989, 602.4539
534.1810, 600.3888
534.6631, 598.3709
535.1453, 595.5916
535.6274, 591.5331
536.1095, 586.0852
536.5916, 581.8192
537.0737, 579.2090
537.5558, 576.9785
538.0380, 574.3273
538.5201, 571.2056
539.0022, 567.6536
539.4843, 563.4880
539.9664, 559.4128
540.4485, 556.8610
540.9307, 555.6393
541.4128, 554.0635
541.8949, 551.5623
542.3770, 548.4323
542.8591, 544.4164
543.3412, 539.8993
543.8234, 536.6255
544.3055, 536.2509
544.7876, 537.2775
545.2697, 538.8555
545.7518, 541.0394
546.2339, 541.7466
546.7161, 539.1581
547.1982, 535.0715
547.6803, 531.0064
548.1624, 526.8453
548.6445, 523.3315
549.1266, 520.8593
549.6088, 519.0812
550.0909, 517.3020
550.5730, 515.4871
551.0551, 513.7620
551.5372, 512.2275
552.0193, 510.8537
552.5015, 509.1391
552.9836, 506.7853
553.4657, 505.1426
553.9478, 505.8213
554.4299, 508.4638
554.9120, 509.0333
555.3942, 507.0031
555.8763, 504.4759
556.3584, 504.0804
556.8405, 505.0678
557.3226, 505.4947
557.8047, 504.4545
558.2869, 503.1100
558.7690, 502.5489
559.2511, 502.5386
559.7332, 502.5038
560.2154, 502.4775
560.6975, 502.1164
561.1796, 501.1321
561.6617, 499.5086
562.1439, 497.9156
562.6260, 495.6766
563.1081, 494.1520
563.5902, 494.2130
564.0723, 497.2753
564.5544, 498.8784
565.0366, 498.5707
565.5187, 497.2594
566.0008, 496.0719
566.4829, 494.9752
566.9650, 494.0737
567.4471, 493.3202
567.9293, 492.8259
568.4114, 492.9040
568.8935, 493.5364
569.3756, 494.5694
569.8577, 496.4620
570.3398, 498.5091
570.8220, 499.0830
571.3041, 498.2372
571.7862, 497.6255
572.2683, 499.1457
572.7504, 501.0978
573.2325, 501.6483
573.7147, 499.8526
574.1968, 498.2064
574.6789, 497.7774
575.1610, 497.9844
575.6431, 498.0714
576.1252, 497.9413
576.6074, 497.6714
577.0895, 497.1678
577.5716, 496.5321
578.0537, 496.1753
578.5358, 496.2572
579.0179, 496.2481
579.5001, 495.9166
579.9822, 495.2774
580.4643, 494.4405
580.9464, 493.2949
581.4285, 492.6911
581.9106, 494.0377
582.3928, 496.5790
582.8749, 497.5634
583.3570, 496.3662
583.8391, 494.9087
584.3212, 495.0230
584.8033, 496.1833
585.2855, 497.4952
585.7676, 498.8178
586.2497, 500.0107
586.7318, 501.3672
587.2139, 502.5854
587.6960, 502.8008
588.1782, 500.7230
588.6603, 498.6417
589.1424, 497.2729
589.6245, 496.6117
590.1066, 496.4150
590.5887, 496.7617
591.0709, 497.4450
591.5530, 498.5818
592.0351, 500.3727
592.5172, 500.9270
592.9993, 499.9202
593.4814, 498.4532
593.9636, 497.8617
594.4457, 498.0388
594.9278, 498.4247
595.4099, 499.0071
595.8920, 499.5231
596.3741, 499.4966
596.8563, 499.1266
597.3384, 498.9164
597.8205, 499.3302
598.3026, 499.8175
598.7847, 499.9398
599.2668, 499.7489
599.7490, 499.7732
600.2311, 500.2648
600.7132, 500.9245
601.1953, 501.6385
601.6774, 502.4679
602.1595, 503.0924
602.6417, 503.5397
603.1238, 503.7388
603.6059, 503.4471
604.0880, 502.4500
604.5701, 502.2494
605.0522, 503.2173
605.5344, 504.6527
606.0165, 505.4466
606.4986, 505.6462
606.9807, 505.4204
607.4628, 504.5419
607.9449, 503.5703
608.4271, 503.4348
608.9092, 503.9481
609.3913, 504.3585
609.8735, 504.2092
610.3556, 503.8547
610.8377, 503.4905
611.3198, 503.1339
611.8019, 502.8270
612.2841, 502.5135
612.7662, 502.2938
613.2483, 502.2684
613.7304, 502.6888
614.2125, 502.6580
614.6946, 501.8546
615.1768, 500.9275
615.6589, 500.7328
616.1410, 501.3902
616.6231, 501.9049
617.1052, 502.1590
617.5873, 502.0874
618.0695, 501.0057
618.5516, 499.2346
619.0337, 498.6189
619.5158, 501.3366
619.9979, 504.8085
620.4800, 505.3392
620.9622, 503.5099
621.4443, 502.2929
621.9264, 504.4568
622.4085, 506.8032
622.8906, 506.8914
623.3727, 503.9999
623.8549, 502.4297
624.3370, 503.6345
624.8191, 505.9584
625.3012, 508.2988
625.7833, 510.4503
626.2654, 513.2290
626.7476, 517.0961
627.2297, 520.9606
627.7118, 523.1824
628.1939, 523.7252
628.6760, 524.1059
629.1581, 524.6816
629.6403, 525.2603
630.1224, 525.3630
630.6045, 525.1553
631.0866, 525.2351
631.5687, 525.5084
632.0508, 526.5094
632.5330, 529.0834
633.0151, 532.9634
633.4972, 536.7795
633.9793, 539.4061
634.4614, 542.2789
634.9435, 546.2052
635.4257, 551.3697
635.9078, 556.7987
636.3899, 562.3077
636.8720, 568.2543
637.3541, 575.1367
637.8362, 583.7144
638.3184, 590.3134
638.8005, 595.0036
639.2826, 597.0308
639.7647, 594.4034
640.2468, 587.6907
640.7289, 580.8795
641.2111, 574.7464
641.6932, 569.3000
642.1753, 564.7228
642.6574, 560.7825
643.1395, 556.9932
643.6216, 552.1751
644.1038, 548.2665
644.5859, 546.6491
645.0680, 546.9817
645.5501, 547.5846
646.0322, 548.5695
646.5143, 549.2845
646.9965, 549.4044
647.4786, 548.8845
647.9607, 548.6786
648.4428, 549.0188
648.9249, 549.1993
649.4070, 548.3134
649.8892, 546.4241
650.3713, 546.4772
650.8534, 548.8563
651.3355, 551.5795
651.8176, 552.6179
652.2997, 552.4096
652.7819, 551.7815
653.2640, 550.7029
653.7461, 549.8636
654.2282, 550.0028
654.7103, 550.6690
655.1924, 551.1897
655.6746, 551.7051
656.1567, 551.6744
656.6388, 550.0574
657.1209, 547.7901
657.6030, 547.6359
658.0851, 551.2697
658.5673, 553.9329
659.0494, 553.7576
659.5316, 551.4153
660.0137, 551.1411
660.4958, 553.0803
660.9779, 555.4998
661.4600, 557.6156
661.9421, 559.3922
662.4243, 560.6653
662.9064, 561.4391
663.3885, 562.1110
663.8706, 563.0388
664.3527, 563.9692
664.8348, 564.5109
665.3170, 564.3964
665.7991, 564.7882
666.2812, 566.7291
666.7633, 569.0029
667.2454, 570.4056
667.7275, 569.8949
668.2097, 570.3157
668.6918, 572.1713
669.1739, 574.5954
669.6560, 576.4470
670.1381, 577.7728
670.6202, 577.8760
671.1024, 576.1703
671.5845, 573.8012
672.0666, 572.9766
672.5487, 573.3964
673.0308, 573.9210
673.5129, 573.9644
673.9951, 573.8875
674.4772, 574.1761
674.9593, 574.6720
675.4414, 574.6805
675.9235, 572.8737
676.4056, 571.4810
676.8878, 571.8466
677.3699, 574.1554
677.8520, 575.6374
678.3341, 575.9708
678.8162, 575.9368
679.2983, 575.8235
679.7805, 575.5876
680.2626, 576.0837
680.7447, 577.4675
681.2268, 578.7027
681.7089, 578.3951
682.1910, 577.1588
682.6732, 576.5778
683.1553, 576.9242
683.6374, 577.7800
684.1195, 579.2471
684.6016, 580.8635
685.0837, 582.0652
685.5659, 582.3040
686.0480, 582.6522
686.5301, 583.6086
687.0122, 584.7730
687.4943, 585.4541
687.9764, 585.3827
688.4586, 585.3622
688.9407, 585.4444
689.4228, 585.7219
689.9049, 586.6541
690.3870, 588.2655
690.8691, 589.4068
691.3513, 589.1387
691.8334, 588.4335
692.3155, 589.3971
692.7976, 591.6299
693.2797, 593.2740
693.7618, 592.5001
694.2440, 591.3691
694.7261, 591.4970
695.2082, 592.9105
695.6903, 593.8995
696.1724, 593.3886
696.6545, 592.9964
697.1367, 593.4711
697.6188, 594.9158
698.1009, 596.6641
698.5830, 598.9926
699.0651, 600.9911
699.5472, 601.5338
700.0294, 600.8781
700.5115, 601.4551
700.9936, 603.5638
701.4757, 605.8361
701.9578, 607.0319
702.4399, 607.4198
702.9221, 607.2328
703.4042, 606.0290
703.8863, 605.6003
704.3684, 608.0510
704.8505, 611.2887
705.3326, 612.8381
705.8148, 609.5959
706.2969, 608.3151
706.7790, 610.3830
707.2611, 613.9989
707.7432, 615.7324
708.2253, 615.2332
708.7075, 615.3759
709.1896, 617.1033
709.6718, 619.6041
710.1539, 621.2623
710.6360, 622.2087
711.1181, 622.9847
711.6002, 623.3107
712.0823, 624.0156
712.5645, 626.2825
713.0466, 629.6539
713.5287, 632.3789
714.0108, 633.5110
714.4929, 634.2224
714.9750, 634.7846
715.4572, 635.2438
715.9393, 636.1035
716.4214, 637.5711
716.9035, 638.9833
717.3856, 639.8103
717.8677, 640.1778
718.3499, 641.5363
718.8320, 643.9244
719.3141, 646.4202
719.7962, 648.2581
720.2783, 649.7940
720.7604, 651.5115
721.2426, 653.4441
721.7247, 655.8311
722.2068, 659.2225
722.6889, 662.8449
723.1710, 666.1537
723.6531, 668.9691
724.1353, 671.6989
724.6174, 674.5968
725.0995, 677.1589
725.5816, 678.7369
726.0637, 679.0184
726.5458, 680.2751
727.0280, 682.7288
727.5101, 686.0053
727.9922, 690.2933
728.4743, 695.0273
728.9564, 698.4980
729.4385, 699.8286
729.9207, 700.9421
730.4028, 703.0665
730.8849, 706.0335
731.3670, 709.5840
731.8491, 714.7379
732.3312, 719.1445
732.8134, 721.6354
733.2955, 723.3771
733.7776, 726.2014
734.2597, 730.3607
734.7418, 734.9738
735.2239, 740.2172
735.7061, 745.3687
736.1882, 748.6520
736.6703, 750.2423
737.1524, 751.3035
737.6345, 751.9443
738.1166, 752.6963
738.5988, 754.3944
739.0809, 756.7167
739.5630, 758.7393
740.0451, 759.1776
740.5272, 760.1412
741.0093, 762.6273
741.4915, 766.4798
741.9736, 770.4808
742.4557, 774.7977
742.9378, 778.8849
743.4199, 782.3396
743.9020, 785.3964
744.3842, 789.5333
744.8663, 794.7834
745.3484, 799.8786
745.8305, 804.0638
746.3126, 807.6742
746.7947, 810.7311
747.2769, 813.4210
747.7590, 817.0284
748.2411, 822.2340
748.7232, 828.5947
749.2053, 836.8283
749.6874, 847.5167
750.1696, 854.6754
750.6517, 855.9681
751.1338, 856.8798
751.6159, 860.6712
752.0980, 867.5363
752.5801, 872.6437
753.0623, 875.7236
753.5444, 879.1588
754.0265, 885.4950
754.5086, 893.5102
754.9907, 900.8391
755.4728, 907.2924
755.9550, 913.2952
756.4371, 918.3596
756.9192, 923.5700
757.4013, 929.9756
757.8835, 938.1980
758.3656, 946.1803
758.8477, 953.6476
759.3298, 961.0964
759.8120, 969.1688
760.2941, 977.8821
760.7762, 985.8698
761.2583, 992.7766
761.7404, 1000.577
762.2225, 1012.772
762.7047, 1027.456
763.1868, 1039.805
763.6689, 1048.570
764.1510, 1056.589
764.6331, 1064.721
765.1152, 1073.640
765.5974, 1084.013
766.0795, 1096.122
766.5616, 1109.746
767.0437, 1125.285
767.5258, 1141.903
768.0079, 1158.411
768.4901, 1174.703
768.9722, 1191.767
769.4543, 1209.817
769.9364, 1227.989
770.4185, 1244.387
770.9006, 1259.965
771.3828, 1277.310
771.8649, 1297.205
772.3470, 1318.455
772.8291, 1340.751
773.3112, 1363.727
773.7933, 1386.880
774.2755, 1410.277
774.7576, 1433.609
775.2397, 1456.190
775.7218, 1479.163
776.2039, 1505.058
776.6860, 1534.223
777.1682, 1563.257
777.6503, 1591.182
778.1324, 1619.371
778.6145, 1650.475
779.0966, 1683.597
779.5787, 1716.432
780.0609, 1747.191
780.5430, 1779.214
781.0251, 1816.187
781.5072, 1855.618
781.9893, 1892.420
782.4714, 1924.304
782.9536, 1955.731
783.4357, 1987.074
783.9178, 2017.941
784.3999, 2048.116
784.8820, 2077.794
785.3641, 2106.039
785.8463, 2133.625
786.3284, 2158.538
786.8105, 2176.077
787.2926, 2187.888
787.7747, 2197.625
788.2568, 2207.615
788.7390, 2214.924
789.2211, 2218.336
789.7032, 2217.916
790.1853, 2213.665
790.6674, 2202.842
791.1495, 2192.694
791.6317, 2184.506
792.1138, 2177.634
792.5959, 2171.028
793.0780, 2164.650
793.5601, 2157.348
794.0422, 2147.081
794.5244, 2137.968
795.0065, 2136.253
795.4886, 2140.136
795.9707, 2145.306
796.4528, 2147.822
796.9349, 2153.634
797.4171, 2166.227
797.8992, 2184.108
798.3813, 2202.063
798.8634, 2218.901
799.3455, 2238.011
799.8276, 2259.453
800.3098, 2283.987
800.7919, 2314.440
801.2740, 2350.523
801.7561, 2387.338
802.2382, 2422.132
802.7203, 2457.204
803.2025, 2494.599
803.6846, 2534.383
804.1667, 2577.008
804.6488, 2621.996
805.1309, 2670.583
805.6130, 2727.079
806.0952, 2786.396
806.5773, 2839.547
807.0594, 2885.253
807.5416, 2928.432
808.0237, 2971.243
808.5058, 3011.046
808.9879, 3044.107
809.4700, 3069.703
809.9521, 3084.200
810.4343, 3085.873
810.9164, 3076.601
811.3985, 3054.949
811.8806, 3023.695
812.3627, 2988.680
812.8448, 2946.909
813.3270, 2906.291
813.8091, 2865.543
814.2912, 2828.667
814.7733, 2804.936
815.2554, 2794.584
815.7375, 2794.446
816.2197, 2802.429
816.7018, 2822.674
817.1839, 2861.099
817.6660, 2916.627
818.1481, 2986.315
818.6302, 3066.054
819.1124, 3163.580
819.5945, 3281.831
820.0766, 3421.040
820.5587, 3583.363
821.0408, 3765.168
821.5229, 3970.961
822.0051, 4202.825
822.4872, 4459.280
822.9693, 4743.565
823.4514, 5056.333
823.9335, 5388.115
824.4156, 5740.705
824.8978, 6111.120
825.3799, 6500.925
825.8620, 6915.798
826.3441, 7358.894
826.8262, 7833.142
827.3083, 8338.713
827.7905, 8869.536
828.2726, 9438.154
828.7547, 10073.69
829.2368, 10766.23
829.7189, 11522.64
830.2010, 12343.01
830.6832, 13212.71
831.1653, 14125.68
831.6474, 15074.92
832.1295, 16079.67
832.6116, 17144.38
833.0938, 18209.54
833.5759, 19286.10
834.0580, 20327.03
834.5401, 21282.99
835.0222, 22249.04
835.5043, 22980.17
835.9865, 23485.93
836.4686, 23744.96
836.9507, 23716.69
837.4328, 23405.08
837.9149, 22884.96
838.3970, 22143.35
838.8792, 21302.75
839.3613, 20411.75
839.8434, 19526.03
840.3255, 18724.88
840.8076, 18013.18
841.2897, 17410.80
841.7719, 16935.34
842.2540, 16576.88
842.7361, 16322.29
843.2182, 16172.62
843.7003, 16124.96
844.1824, 16182.73
844.6646, 16330.62
845.1467, 16563.84
845.6288, 16875.47
846.1109, 17254.10
846.5930, 17698.92
847.0751, 18186.68
847.5573, 18727.36
848.0394, 19285.76
848.5215, 19853.22
849.0036, 20437.81
849.4857, 20967.27
849.9678, 21470.51
850.4500, 21871.80
850.9321, 22153.07
851.4142, 22308.09
851.8963, 22266.50
852.3784, 22029.36
852.8605, 21592.04
853.3427, 20918.69
853.8248, 20071.78
854.3069, 19076.54
854.7890, 17949.26
855.2711, 16798.21
855.7532, 15622.67
856.2354, 14499.36
856.7175, 13444.24
857.1996, 12467.85
857.6818, 11584.25
858.1639, 10790.88
858.6460, 10090.33
859.1281, 9480.922
859.6102, 8956.491
860.0923, 8508.563
860.5745, 8130.136
861.0566, 7812.760
861.5387, 7556.905
862.0208, 7351.588
862.5029, 7191.438
862.9850, 7079.233
863.4672, 7012.078
863.9493, 6993.611
864.4314, 7009.586
864.9135, 7056.125
865.3956, 7136.769
865.8777, 7260.693
866.3599, 7427.017
866.8420, 7622.378
867.3241, 7845.201
867.8062, 8097.305
868.2883, 8379.251
868.7704, 8692.690
869.2526, 9035.822
869.7347, 9409.640
870.2168, 9810.436
870.6989, 10244.17
871.1810, 10700.27
871.6631, 11187.34
872.1453, 11703.78
872.6274, 12257.13
873.1095, 12848.18
873.5916, 13466.53
874.0737, 14101.21
874.5558, 14747.43
875.0380, 15414.10
875.5201, 16114.29
876.0022, 16789.70
876.4843, 17445.01
876.9664, 18048.90
877.4485, 18591.13
877.9307, 19083.76
878.4128, 19448.11
878.8949, 19690.41
879.3770, 19776.51
879.8591, 19674.11
880.3412, 19398.45
880.8234, 18962.51
881.3055, 18366.66
881.7876, 17651.46
882.2697, 16760.02
882.7518, 15815.46
883.2339, 14866.09
883.7161, 13915.22
884.1982, 12988.28
884.6803, 12077.83
885.1624, 11221.24
885.6445, 10433.36
886.1266, 9715.571
886.6088, 9055.077
887.0909, 8449.253
887.5730, 7901.521
888.0551, 7418.082
888.5372, 6980.565
889.0193, 6583.236
889.5015, 6226.794
889.9836, 5903.019
890.4657, 5612.418
890.9478, 5347.058
891.4299, 5105.490
891.9120, 4887.710
892.3942, 4691.119
892.8763, 4513.192
893.3584, 4352.414
893.8405, 4206.879
894.3226, 4074.106
894.8047, 3957.007
895.2869, 3850.945
895.7690, 3750.594
896.2511, 3653.276
896.7332, 3565.906
897.2153, 3490.608
897.6974, 3424.440
898.1796, 3367.044
898.6617, 3317.427
899.1438, 3272.115
899.6259, 3230.392
900.1080, 3193.198
900.5901, 3161.967
901.0723, 3135.176
901.5544, 3110.939
902.0365, 3089.059
902.5186, 3071.859
903.0007, 3061.273
903.4828, 3052.738
903.9650, 3043.694
904.4471, 3034.542
904.9292, 3029.641
905.4113, 3028.752
905.8935, 3028.050
906.3756, 3025.074
906.8577, 3021.165
907.3398, 3017.677
907.8220, 3014.416
908.3041, 3010.660
908.7862, 3007.468
909.2683, 3002.093
909.7504, 2994.907
910.2325, 2984.632
910.7147, 2968.105
911.1968, 2945.199
911.6789, 2917.312
912.1610, 2884.390
912.6431, 2848.346
913.1252, 2812.135
913.6074, 2774.120
914.0895, 2731.735
914.5716, 2682.947
915.0537, 2632.056
915.5358, 2578.129
916.0179, 2523.278
916.5001, 2468.775
916.9822, 2414.722
917.4643, 2358.997
917.9464, 2301.351
918.4285, 2243.136
918.9106, 2184.481
919.3928, 2127.473
919.8749, 2074.740
920.3570, 2026.681
920.8391, 1979.059
921.3212, 1929.780
921.8033, 1881.644
922.2855, 1835.605
922.7676, 1791.534
923.2497, 1749.862
923.7318, 1710.724
924.2139, 1674.488
924.6960, 1642.243
925.1782, 1612.257
925.6603, 1583.021
926.1424, 1554.445
926.6245, 1526.525
927.1066, 1498.875
927.5887, 1472.797
928.0709, 1448.215
928.5530, 1425.057
929.0351, 1403.738
929.5172, 1384.207
929.9993, 1365.301
930.4814, 1347.044
930.9636, 1328.856
931.4457, 1309.276
931.9278, 1289.725
932.4099, 1272.358
932.8920, 1258.390
933.3741, 1244.734
933.8563, 1231.162
934.3384, 1217.315
934.8205, 1203.003
935.3026, 1187.970
935.7847, 1174.648
936.2668, 1162.976
936.7490, 1151.885
937.2311, 1140.835
937.7132, 1129.648
938.1953, 1118.060
938.6774, 1106.153
939.1595, 1095.330
939.6417, 1087.544
940.1238, 1079.023
940.6059, 1068.591
941.0880, 1056.966
941.5701, 1045.742
942.0522, 1034.950
942.5344, 1025.570
943.0165, 1018.182
943.4986, 1011.318
943.9807, 1003.260
944.4628, 994.6898
944.9449, 986.6481
945.4271, 979.6277
945.9092, 972.6430
946.3913, 965.6328
946.8734, 958.5499
947.3555, 951.2409
947.8376, 943.7701
948.3198, 936.6407
948.8019, 929.9107
949.2840, 923.5896
949.7661, 917.9025
950.2482, 912.5563
950.7303, 907.4703
951.2125, 902.6176
951.6946, 897.3372
952.1767, 891.3893
952.6588, 885.2828
953.1409, 879.1376
953.6230, 872.9858
954.1052, 866.5101
954.5873, 859.8514
955.0695, 853.9683
955.5516, 849.8953
956.0337, 845.8040
956.5158, 839.6077
956.9979, 832.7312
957.4800, 827.5467
957.9622, 825.8915
958.4443, 822.7770
958.9264, 817.4874
959.4085, 811.6351
959.8906, 806.9850
960.3727, 803.2262
960.8549, 799.3537
961.3370, 795.2308
961.8191, 791.0342
962.3012, 786.7889
962.7833, 782.5179
963.2654, 778.2545
963.7476, 773.9833
964.2297, 769.8404
964.7118, 765.9135
965.1939, 762.0605
965.6760, 758.0004
966.1581, 754.2146
966.6403, 752.2490
967.1224, 751.4356
967.6045, 749.7178
968.0866, 745.8118
968.5687, 741.3211
969.0508, 736.0470
969.5330, 730.8887
970.0151, 726.9521
970.4972, 724.3539
970.9793, 722.6312
971.4614, 721.8422
971.9435, 721.4922
972.4257, 721.6359
972.9078, 721.6019
973.3899, 720.3146
973.8720, 717.6133
974.3541, 714.3128
974.8362, 709.3871
975.3184, 705.2795
975.8005, 703.4742
976.2826, 703.4697
976.7647, 701.8195
977.2468, 698.5515
977.7289, 695.3568
978.2111, 693.3373
978.6932, 691.4218
979.1753, 687.7957
979.6574, 683.5576
980.1395, 680.7797
980.6216, 682.0230
981.1038, 681.8608
981.5859, 679.5775
982.0680, 676.3385
982.5501, 673.2146
983.0322, 670.2774
983.5143, 668.0534
983.9965, 666.5756
984.4786, 665.8673
984.9607, 666.8755
985.4428, 667.9177
985.9249, 667.4694
986.4070, 665.3758
986.8892, 663.9543
987.3713, 663.3474
987.8534, 663.0433
988.3355, 662.8481
988.8176, 662.8220
989.2997, 663.2842
989.7819, 664.0424
990.2640, 664.5269
990.7461, 664.2699
991.2282, 664.0567
991.7103, 664.6075
992.1924, 665.1289
992.6746, 664.6731
993.1567, 663.0466
993.6388, 661.4221
994.1209, 659.8139
994.6030, 658.4426
995.0851, 657.5536
995.5673, 656.9990
996.0494, 656.7838
996.5315, 656.8434
997.0136, 656.4635
997.4957, 655.2693
997.9778, 653.6713
998.4600, 651.3718
998.9421, 648.9936
999.4242, 648.7698
999.9063, 650.5035
1000.388, 652.5204
1000.871, 654.9171
1001.353, 655.9036
1001.835, 651.9960
1002.317, 646.7079
1002.799, 644.5051
1003.281, 648.1855
1003.763, 649.6337
1004.245, 648.1647
1004.728, 646.1389
1005.210, 645.4509
1005.692, 645.6574
1006.174, 645.3090
1006.656, 644.4806
1007.138, 643.8534
1007.620, 644.3672
1008.102, 644.5667
1008.584, 643.2341
1009.067, 641.1978
1009.549, 640.5651
1010.031, 641.5641
1010.513, 641.9729
1010.995, 641.2631
1011.477, 640.0834
1011.959, 638.9185
1012.441, 637.9167
1012.924, 637.4195
1013.406, 637.7023
1013.888, 637.4263
1014.370, 636.2277
1014.852, 634.6780
1015.334, 633.2137
1015.816, 631.6516
1016.298, 628.3066
1016.780, 623.5100
1017.263, 619.5020
1017.745, 618.0637
1018.227, 617.2444
1018.709, 616.4045
1019.191, 615.1757
1019.673, 612.7039
1020.155, 608.0983
1020.637, 604.9579
1021.120, 603.8297
1021.602, 603.2567
1022.084, 601.4539
1022.566, 599.1315
1023.048, 597.8368
1023.530, 597.7086
1024.012, 597.0378
1024.494, 594.3694
1024.976, 591.8779
1025.458, 590.5841
1025.941, 590.1138
1026.423, 588.7108
1026.905, 586.4521
1027.387, 585.0124
1027.869, 585.3851
1028.351, 585.9218
1028.833, 584.8348
1029.316, 583.1029
1029.798, 581.9473
1030.280, 581.5518
1030.762, 581.9491
1031.244, 583.6229
1031.726, 584.8436
1032.208, 583.5834
1032.690, 581.0331
1033.172, 580.6113
1033.655, 582.0541
1034.137, 583.6739
1034.619, 584.9114
1035.101, 585.8445
1035.583, 586.3311
1036.065, 586.6154
1036.547, 587.2426
1037.029, 588.2416
1037.511, 588.6073
1037.994, 588.1287
1038.476, 587.2586
1038.958, 586.1207
1039.440, 585.0505
1039.922, 584.7180
1040.404, 585.3901
1040.886, 584.5989
1041.368, 581.7744
1041.851, 578.5422
1042.333, 575.4973
1042.815, 572.5339
1043.297, 569.3088
1043.779, 565.9225
1044.261, 562.8128
1044.743, 560.3213
1045.225, 557.8534
1045.708, 555.0105
1046.190, 552.2324
1046.672, 549.8920
1047.154, 547.9793
1047.636, 546.6884
1048.118, 546.0361
1048.600, 545.3871
1049.082, 543.9869
1049.564, 542.5463
1050.047, 541.7473
1050.529, 541.5284
1051.011, 541.6212
1051.493, 542.4017
1051.975, 542.5435
1052.457, 541.6933
1052.939, 540.3510
1053.421, 539.0321
1053.903, 537.8855
1054.386, 537.3219
1054.868, 537.5054
1055.350, 537.5971
1055.832, 537.2297
1056.314, 536.6498
1056.796, 535.9382
1057.278, 535.1332
1057.760, 534.5599
1058.243, 534.2110
1058.725, 533.9619
1059.207, 534.0521
1059.689, 533.7562
1060.171, 531.7709
1060.653, 529.2408
1061.135, 527.8870
1061.617, 528.5633
1062.099, 528.8283
1062.582, 528.5301
1063.064, 528.2844
1063.546, 528.6773
1064.028, 529.4385
1064.510, 530.2780
1064.992, 531.0557
1065.474, 531.1691
1065.956, 529.9086
1066.438, 528.5377
1066.921, 527.4464
1067.403, 526.3777
1067.885, 524.6198
1068.367, 522.3129
1068.849, 520.8912
1069.331, 520.5766
1069.813, 520.7968
1070.295, 521.6656
1070.778, 522.4626
1071.260, 522.5853
1071.742, 522.0515
1072.224, 521.3813
1072.706, 520.6057
1073.188, 519.4895
1073.670, 517.8646
1074.152, 515.9906
1074.635, 513.5965
1075.117, 511.3924
1075.599, 510.6344
1076.081, 512.7797
1076.563, 513.6730
1077.045, 512.7544
1077.527, 511.0658
1078.009, 509.0328
1078.491, 506.8447
1078.974, 505.2210
1079.456, 504.1129
1079.938, 503.2729
1080.420, 502.3466
1080.902, 501.9018
1081.384, 502.8456
1081.866, 504.0021
1082.348, 503.7451
1082.831, 502.0016
1083.313, 500.6524
1083.795, 499.8597
1084.277, 499.5792
1084.759, 500.2388
1085.241, 501.0394
1085.723, 501.6133
1086.205, 501.7741
1086.688, 500.5566
1087.170, 497.4048
1087.652, 494.7162
1088.134, 493.0768
1088.616, 492.0860
1089.098, 491.4109
1089.580, 490.8887
1090.062, 490.2390
1090.544, 489.3775
1091.026, 488.5894
1091.509, 488.4130
1091.991, 487.5359
1092.473, 484.8898
1092.955, 481.2977
1093.437, 480.0113
1093.919, 480.5332
1094.401, 480.7588
1094.883, 479.2595
1095.366, 478.3011
1095.848, 479.7948
1096.330, 481.6602
1096.812, 481.6713
1097.294, 479.4701
1097.776, 479.3065
1098.258, 481.2043
1098.740, 483.3737
1099.223, 484.8338
1099.705, 485.8742
1100.187, 486.3543
1100.669, 486.6288
1101.151, 487.5624
1101.633, 489.1383
1102.115, 491.6451
1102.597, 495.3285
1103.079, 499.1221
1103.562, 501.0568
1104.044, 502.7885
1104.526, 507.7316
1105.008, 515.7133
1105.490, 520.7142
1105.972, 518.3157
1106.454, 517.5812
1106.936, 521.0043
1107.418, 526.6476
1107.901, 530.7716
1108.383, 534.0150
1108.865, 538.2389
1109.347, 544.0419
1109.829, 549.4429
1110.311, 553.6561
1110.793, 557.1445
1111.275, 560.3746
1111.758, 563.1396
1112.240, 564.4614
1112.722, 564.3293
1113.204, 562.5712
1113.686, 558.8299
1114.168, 554.0462
1114.650, 548.4041
1115.132, 542.3995
1115.615, 536.3654
1116.097, 530.1860
1116.579, 525.3064
1117.061, 521.9116
1117.543, 518.1177
1118.025, 512.0536
1118.507, 505.5919
1118.989, 500.7866
1119.471, 497.0635
1119.953, 493.2309
1120.436, 488.8973
1120.918, 485.0210
1121.400, 481.6965
1121.882, 478.6723
1122.364, 475.9439
1122.846, 473.2375
1123.328, 469.7516
1123.810, 465.6913
1124.293, 462.5230
1124.775, 461.5350
1125.257, 460.2476
1125.739, 458.1488
1126.221, 455.7723
1126.703, 454.0068
1127.185, 452.6318
1127.667, 450.8198
1128.150, 448.4347
1128.632, 446.7469
1129.114, 447.5036
1129.596, 447.7453
1130.078, 445.8078
1130.560, 442.7219
1131.042, 442.0758
1131.524, 443.4283
1132.006, 443.6794
1132.489, 441.6860
1132.971, 439.9931
1133.453, 441.0438
1133.935, 442.4907
1134.417, 442.3755
1134.899, 440.7807
1135.381, 439.9433
1135.863, 439.8484
1136.346, 440.2219
1136.828, 441.2483
1137.310, 442.1446
1137.792, 442.2233
1138.274, 441.7260
1138.756, 440.8354
1139.238, 439.3504
1139.720, 438.6403
1140.203, 438.7955
1140.685, 439.1357
1141.167, 439.2954
1141.649, 439.3563
1142.131, 439.5908
1142.613, 439.7817
1143.095, 439.4136
1143.577, 437.4952
1144.059, 436.9550
1144.542, 438.2612
1145.024, 439.8126
1145.506, 440.2090
1145.988, 439.8268
1146.470, 439.1345
1146.952, 438.2354
1147.434, 437.4720
1147.916, 437.0250
1148.398, 436.5772
1148.881, 436.0000
1149.363, 435.5652
1149.845, 436.0959
1150.327, 436.9534
1150.809, 436.0938
1151.291, 433.5023
1151.773, 431.7056
1152.255, 432.7743
1152.738, 433.5954
1153.220, 433.2224
1153.702, 432.1378
1154.184, 431.1009
1154.666, 430.1592
1155.148, 429.4615
1155.630, 429.0177
1156.112, 428.9870
1156.594, 429.8196
1157.077, 430.7069
1157.559, 431.3174
1158.041, 431.6367
1158.523, 431.3606
1159.005, 430.6324
1159.487, 430.7174
1159.969, 432.2153
1160.451, 433.5589
1160.933, 433.4877
1161.416, 433.0013
1161.898, 432.7715
1162.380, 432.8148
1162.862, 433.3126
1163.344, 434.2408
1163.826, 434.7658
1164.308, 434.3685
1164.790, 433.8663
1165.273, 433.8947
1165.755, 434.1639
1166.237, 434.4572
1166.719, 434.8316
1167.201, 434.2140
1167.683, 432.4997
1168.165, 431.5224
1168.647, 432.9648
1169.130, 434.6696
1169.612, 434.1882
1170.094, 432.8217
1170.576, 432.6970
1171.058, 434.5213
1171.540, 435.2155
1172.022, 434.5913
1172.504, 434.2608
1172.986, 435.6235
1173.469, 437.6608
1173.951, 439.4150
1174.433, 440.9439
1174.915, 442.3510
1175.397, 443.6146
1175.879, 444.8647
1176.361, 446.0880
1176.843, 447.4417
1177.326, 448.5759
1177.808, 450.2735
1178.290, 454.1802
1178.772, 459.6625
1179.254, 463.9688
1179.736, 465.8983
1180.218, 469.1011
1180.700, 474.3926
1181.182, 479.6346
1181.665, 481.9485
1182.147, 483.1061
1182.629, 486.0768
1183.111, 490.6081
1183.593, 493.6841
1184.075, 494.6091
1184.557, 494.3128
1185.039, 492.5180
1185.521, 490.7080
1186.004, 491.9395
1186.486, 494.0407
1186.968, 493.1229
1187.450, 488.9304
1187.932, 485.0335
1188.414, 482.3726
1188.896, 479.6653
1189.378, 476.6327
1189.861, 473.3532
1190.343, 469.8316
1190.825, 466.2436
1191.307, 463.0930
1191.789, 460.5141
1192.271, 457.2574
1192.753, 452.2271
1193.235, 448.0594
1193.718, 445.8073
1194.200, 444.5750
1194.682, 443.0229
1195.164, 441.1411
1195.646, 438.6037
1196.128, 435.0085
1196.610, 433.0028
1197.092, 434.3801
1197.574, 435.1752
1198.057, 433.4351
1198.539, 430.6221
1199.021, 430.2507
1199.503, 431.3285
1199.985, 431.4628
1200.467, 429.5464
1200.949, 428.5801
1201.431, 429.4213
1201.913, 430.7738
1202.396, 432.3173
1202.878, 433.7017
1203.360, 433.8285
1203.842, 433.1003
1204.324, 432.5629
1204.806, 432.6582
1205.288, 432.4984
1205.770, 431.2198
1206.253, 430.9160
1206.735, 433.4381
1207.217, 437.4299
1207.699, 438.8964
1208.181, 438.6063
1208.663, 438.6827
1209.145, 439.8297
1209.627, 441.4535
1210.109, 443.5594
1210.592, 445.8451
1211.074, 448.1143
1211.556, 450.4004
1212.038, 452.7520
1212.520, 455.1305
1213.002, 457.3436
1213.484, 459.9696
1213.966, 460.9982
1214.448, 458.2124
1214.931, 457.5285
1215.413, 467.0899
1215.895, 481.2757
1216.377, 482.8486
1216.859, 475.1512
1217.341, 468.9820
1217.823, 469.3211
1218.305, 470.2217
1218.788, 471.2113
1219.270, 472.2346
1219.752, 473.2008
1220.234, 474.3928
1220.716, 475.4352
1221.198, 476.8730
1221.680, 478.2975
1222.162, 479.7119
1222.645, 480.9355
1223.127, 481.8223
1223.609, 482.8479
1224.091, 485.0456
1224.573, 487.4778
1225.055, 487.4452
1225.537, 485.6821
1226.019, 485.2354
1226.501, 488.8705
1226.984, 491.1596
1227.466, 491.4231
1227.948, 490.9283
1228.430, 490.9964
1228.912, 491.1647
1229.394, 490.2685
1229.876, 488.6180
1230.358, 487.7206
1230.841, 488.5938
1231.323, 488.9666
1231.805, 488.5924
1232.287, 487.7902
1232.769, 486.6093
1233.251, 485.3725
1233.733, 485.0211
1234.215, 483.2627
1234.698, 484.0810
1235.180, 480.4366
1235.662, 477.8139
1236.144, 476.7447
1236.626, 476.1431
1237.108, 474.8412
1237.590, 473.3712
1238.072, 472.2607
1238.554, 471.5708
1239.036, 471.4608
1239.519, 472.0280
1240.001, 472.8334
1240.483, 473.9257
1240.965, 474.7309
1241.447, 474.3846
1241.929, 473.6609
1242.411, 473.5325
1242.893, 473.8134
1243.376, 473.2663
1243.858, 471.4227
1244.340, 470.9048
1244.822, 472.2189
1245.304, 473.7901
1245.786, 474.3522
1246.268, 474.3358
1246.750, 473.9757
1247.233, 473.3691
1247.715, 472.7565
1248.197, 472.0693
1248.679, 472.1674
1249.161, 473.2458
1249.643, 474.2271
1250.125, 474.0915
1250.607, 473.5685
1251.089, 472.8735
1251.572, 472.2961
1252.054, 472.7479
1252.536, 474.2262
1253.018, 475.4553
1253.500, 476.2902
1253.982, 476.3154
1254.464, 474.4688
1254.946, 472.4880
1255.428, 471.6597
1255.911, 471.3364
1256.393, 469.8467
1256.875, 467.4201
1257.357, 466.4982
1257.839, 467.4355
1258.321, 468.0017
1258.803, 466.5376
1259.285, 464.7103
1259.768, 463.0946
1260.250, 461.7306
1260.732, 460.4298
1261.214, 459.4270
1261.696, 460.2649
1262.178, 463.0921
1262.660, 464.5975
1263.142, 461.7050
1263.625, 459.2649
1264.107, 458.7875
1264.589, 459.2614
1265.071, 459.2727
1265.553, 458.8506
1266.035, 457.9469
1266.517, 456.5816
1266.999, 455.3367
1267.481, 453.5702
1267.964, 453.5823
1268.446, 456.5053
1268.928, 459.8852
1269.410, 459.6337
1269.892, 457.7739
1270.374, 457.6560
1270.856, 459.4557
1271.338, 460.8633
1271.820, 461.5397
1272.303, 462.1083
1272.785, 462.7706
1273.267, 463.0647
1273.749, 461.7718
1274.231, 460.2826
1274.713, 460.4913
1275.195, 462.2059
1275.677, 463.0625
1276.160, 462.8245
1276.642, 462.6480
1277.124, 462.6840
1277.606, 463.0857
1278.088, 464.5109
1278.570, 465.9065
1279.052, 466.3787
1279.534, 466.0848
1280.016, 465.4180
1280.499, 464.3527
1280.981, 464.1573
1281.463, 465.0016
1281.945, 466.6187
1282.427, 469.8410
1282.909, 472.6874
1283.391, 473.9536
1283.873, 474.1691
1284.356, 473.8403
1284.838, 473.1806
1285.320, 473.7508
1285.802, 475.6583
1286.284, 477.4684
1286.766, 477.7471
1287.248, 478.7692
1287.730, 481.7208
1288.213, 484.9503
1288.695, 485.7746
1289.177, 485.0911
1289.659, 485.1617
1290.141, 486.1574
1290.623, 487.6991
1291.105, 490.3370
1291.587, 492.5203
1292.069, 494.1572
1292.552, 494.9852
1293.034, 494.2093
1293.516, 492.7243
1293.998, 491.3877
1294.480, 490.4897
1294.962, 491.4342
1295.444, 495.3589
1295.926, 497.1219
1296.408, 495.9252
1296.891, 494.1554
1297.373, 494.0327
1297.855, 494.3110
1298.337, 493.5189
1298.819, 492.3218
1299.301, 492.6823
1299.783, 494.8662
1300.265, 495.4341
1300.748, 494.1252
1301.230, 492.5836
1301.712, 492.0318
1302.194, 491.5539
1302.676, 490.8463
##END=



