##NAMES=Parabutlerite
##RRUFFID=R110161
##IDEAL CHEMISTRY=Fe^3+^S^6+^O_4_(OH)&#183;2H_2_O
##LOCALITY=Saghand, near Yazd, Iran
##OWNER=RRUFF
##SOURCE=George Rossman, California Institute of Technology
##DESCRIPTION=Fragment of euhedral orange crystals
##STATUS=The identification of this mineral has been confirmed by single-crystal X-ray diffraction.
##URL=rruff.info/R110161
160.8812, 90.28387
161.3633, 94.81606
161.8455, 99.06413
162.3276, 102.7074
162.8097, 106.1469
163.2918, 109.7312
163.7739, 113.7157
164.2560, 117.5582
164.7382, 120.8837
165.2203, 123.8246
165.7024, 126.8870
166.1845, 130.2918
166.6666, 133.9509
167.1487, 137.7552
167.6309, 141.8750
168.1130, 145.9817
168.5951, 149.4838
169.0772, 152.5741
169.5593, 156.3433
170.0414, 161.9440
170.5236, 168.4665
171.0057, 174.7391
171.4878, 180.1604
171.9699, 185.4405
172.4520, 191.1219
172.9341, 197.2017
173.4163, 203.3485
173.8984, 209.1717
174.3805, 214.9703
174.8626, 221.0533
175.3447, 228.2383
175.8268, 235.5151
176.3090, 241.4772
176.7911, 246.0602
177.2732, 250.7323
177.7553, 256.2162
178.2374, 261.5717
178.7195, 265.8565
179.2017, 268.2280
179.6838, 269.5990
180.1659, 271.3076
180.6480, 273.4166
181.1301, 275.4688
181.6122, 276.9408
182.0944, 277.9971
182.5765, 279.1273
183.0586, 280.8193
183.5407, 282.6993
184.0228, 283.8529
184.5049, 284.1339
184.9871, 284.4154
185.4692, 285.9842
185.9513, 288.6033
186.4334, 290.9293
186.9155, 292.0126
187.3976, 292.2791
187.8798, 293.2722
188.3619, 295.1517
188.8440, 297.3016
189.3261, 298.7127
189.8082, 299.4607
190.2903, 300.4005
190.7725, 301.9423
191.2546, 304.0578
191.7367, 306.4924
192.2188, 309.2672
192.7009, 312.2789
193.1830, 315.4293
193.6652, 318.7094
194.1473, 321.7994
194.6294, 324.2538
195.1115, 326.1586
195.5936, 328.7224
196.0757, 332.1419
196.5579, 336.0128
197.0400, 339.5966
197.5221, 342.8775
198.0042, 346.0483
198.4863, 349.3020
198.9684, 352.6303
199.4506, 355.7026
199.9327, 358.4307
200.4148, 360.9400
200.8969, 363.3603
201.3790, 365.6514
201.8611, 368.2002
202.3433, 371.3804
202.8254, 375.2701
203.3075, 378.9385
203.7896, 382.3812
204.2717, 385.4746
204.7538, 387.6090
205.2360, 388.4657
205.7181, 389.5160
206.2002, 391.7597
206.6823, 395.3963
207.1644, 398.8808
207.6465, 402.1149
208.1287, 405.0924
208.6108, 407.9687
209.0929, 410.8702
209.5750, 413.3280
210.0571, 414.8796
210.5392, 415.2941
211.0214, 415.9277
211.5035, 416.8600
211.9856, 418.1026
212.4677, 419.9307
212.9498, 422.8191
213.4319, 425.2716
213.9140, 426.1216
214.3962, 424.6772
214.8783, 424.2194
215.3604, 425.3871
215.8425, 427.7007
216.3246, 429.1523
216.8067, 429.4828
217.2889, 429.4752
217.7710, 429.5189
218.2531, 429.4777
218.7352, 429.8546
219.2173, 430.6259
219.6994, 431.8460
220.1816, 433.7454
220.6637, 436.4882
221.1458, 439.6433
221.6279, 442.9907
222.1100, 446.7582
222.5921, 450.1299
223.0743, 452.8019
223.5564, 455.0172
224.0385, 458.1028
224.5206, 462.2560
225.0027, 466.8629
225.4848, 471.5313
225.9670, 476.0631
226.4491, 481.1224
226.9312, 487.1042
227.4133, 493.6913
227.8954, 499.5993
228.3775, 504.4081
228.8597, 508.9959
229.3418, 513.9285
229.8239, 519.7031
230.3060, 524.6752
230.7881, 528.8211
231.2702, 532.0727
231.7524, 533.9302
232.2345, 534.2106
232.7166, 533.3212
233.1987, 531.4852
233.6808, 528.7388
234.1629, 524.9674
234.6451, 520.1392
235.1272, 514.2576
235.6093, 507.3106
236.0914, 499.4790
236.5735, 490.3536
237.0556, 479.5556
237.5378, 466.2871
238.0199, 453.1313
238.5020, 440.4170
238.9841, 427.8807
239.4662, 414.8667
239.9483, 400.9148
240.4305, 387.1182
240.9126, 373.9081
241.3947, 361.3152
241.8768, 349.2553
242.3589, 337.7926
242.8410, 326.8981
243.3232, 316.1794
243.8053, 305.4354
244.2874, 295.2007
244.7695, 285.8550
245.2516, 277.4840
245.7337, 269.6661
246.2159, 262.5264
246.6980, 255.8740
247.1801, 249.2354
247.6622, 242.3982
248.1443, 235.7864
248.6264, 229.6499
249.1086, 223.9536
249.5907, 218.7331
250.0728, 214.0828
250.5549, 209.8841
251.0370, 205.8343
251.5191, 201.9471
252.0013, 198.1855
252.4834, 194.4531
252.9655, 190.6478
253.4476, 187.2561
253.9297, 184.3699
254.4118, 181.8651
254.8940, 179.4149
255.3761, 177.0450
255.8582, 174.6707
256.3403, 172.2269
256.8224, 169.6047
257.3046, 167.2951
257.7867, 165.3928
258.2688, 163.7574
258.7509, 162.1238
259.2330, 160.4505
259.7151, 158.8937
260.1973, 157.5504
260.6794, 156.5322
261.1615, 155.3297
261.6436, 153.9141
262.1257, 152.3566
262.6078, 150.7543
263.0900, 149.0761
263.5721, 147.4705
264.0542, 146.0249
264.5363, 144.7496
265.0184, 143.4745
265.5005, 142.1857
265.9827, 140.8947
266.4648, 139.5536
266.9469, 138.0941
267.4290, 136.8209
267.9111, 135.8986
268.3932, 135.3677
268.8754, 134.5294
269.3575, 133.2874
269.8396, 131.8824
270.3217, 130.6161
270.8038, 129.4982
271.2859, 128.4898
271.7681, 127.6368
272.2502, 126.9318
272.7323, 126.0537
273.2144, 124.9761
273.6965, 123.8067
274.1786, 122.6076
274.6608, 121.3197
275.1429, 120.2895
275.6250, 119.7189
276.1071, 119.5145
276.5892, 118.8488
277.0714, 117.5884
277.5535, 116.2789
278.0356, 115.5011
278.5177, 115.3160
278.9998, 115.0166
279.4819, 114.4271
279.9641, 113.6175
280.4462, 112.9106
280.9283, 112.3133
281.4104, 111.7784
281.8925, 111.3250
282.3746, 110.9576
282.8568, 110.3695
283.3389, 109.4071
283.8210, 108.2784
284.3031, 107.5889
284.7852, 107.3721
285.2673, 107.3162
285.7495, 107.2497
286.2316, 107.1706
286.7137, 107.0389
287.1958, 106.8687
287.6779, 106.6184
288.1600, 106.1343
288.6422, 105.4115
289.1243, 104.7262
289.6064, 104.2648
290.0885, 103.9961
290.5706, 103.8083
291.0527, 103.7047
291.5349, 103.6372
292.0170, 103.5601
292.4991, 103.4670
292.9812, 103.2944
293.4633, 102.7933
293.9454, 102.1654
294.4276, 102.1850
294.9097, 102.9988
295.3918, 103.9876
295.8739, 104.3609
296.3560, 104.2115
296.8381, 103.9922
297.3203, 103.9476
297.8024, 103.9762
298.2845, 103.8364
298.7666, 103.5088
299.2487, 103.1650
299.7308, 102.9773
300.2130, 102.9104
300.6951, 102.8669
301.1772, 102.8419
301.6593, 102.8008
302.1414, 102.6349
302.6235, 102.3500
303.1057, 102.1517
303.5878, 102.2766
304.0699, 102.6045
304.5520, 102.9201
305.0341, 103.2174
305.5162, 103.4132
305.9984, 103.3752
306.4805, 103.1294
306.9626, 102.8514
307.4447, 102.6572
307.9268, 102.5047
308.4089, 102.3248
308.8911, 102.0183
309.3732, 101.8063
309.8553, 101.9726
310.3374, 102.4102
310.8195, 102.7603
311.3016, 102.6919
311.7838, 102.5064
312.2659, 102.4657
312.7480, 102.6271
313.2301, 102.9220
313.7122, 103.5477
314.1943, 104.2829
314.6765, 104.6466
315.1586, 103.9357
315.6407, 103.1293
316.1228, 102.9013
316.6049, 103.4721
317.0870, 104.0501
317.5692, 104.2183
318.0513, 104.1945
318.5334, 104.2817
319.0155, 104.7820
319.4976, 105.2394
319.9797, 105.3985
320.4619, 105.2130
320.9440, 105.1071
321.4261, 105.2687
321.9082, 105.5406
322.3903, 105.7741
322.8724, 105.9399
323.3546, 106.0590
323.8367, 106.1677
324.3188, 106.2606
324.8009, 106.2101
325.2830, 105.6478
325.7651, 105.1516
326.2473, 105.0977
326.7294, 106.0967
327.2115, 106.8785
327.6936, 107.1952
328.1757, 107.1535
328.6578, 107.2980
329.1400, 107.8658
329.6221, 108.4328
330.1042, 108.8185
330.5863, 108.8712
331.0684, 108.9886
331.5505, 109.0793
332.0327, 109.2483
332.5148, 109.7538
332.9969, 110.8675
333.4790, 111.9484
333.9611, 112.7639
334.4432, 113.2096
334.9254, 113.7946
335.4075, 114.5419
335.8896, 115.3956
336.3717, 116.2851
336.8538, 117.2039
337.3359, 118.1537
337.8180, 119.1511
338.3001, 120.1901
338.7823, 121.1092
339.2644, 121.8201
339.7465, 122.5701
340.2286, 123.6588
340.7107, 125.1527
341.1928, 126.5391
341.6750, 127.6379
342.1571, 128.5704
342.6392, 129.7904
343.1213, 131.3647
343.6034, 132.9333
344.0855, 134.1369
344.5677, 134.9932
345.0498, 136.2362
345.5319, 138.0089
346.0140, 140.0994
346.4961, 142.1360
346.9782, 144.1127
347.4604, 146.1072
347.9425, 148.1531
348.4246, 150.2477
348.9067, 152.2868
349.3888, 154.2482
349.8709, 156.2408
350.3531, 158.3895
350.8352, 160.6795
351.3173, 163.0451
351.7994, 165.4322
352.2815, 167.9052
352.7636, 170.6714
353.2458, 173.7283
353.7279, 176.7439
354.2100, 179.2970
354.6921, 181.6348
355.1742, 184.2063
355.6563, 187.4726
356.1385, 190.7182
356.6206, 193.1208
357.1027, 194.8453
357.5848, 196.6498
358.0669, 199.1103
358.5490, 201.8268
359.0312, 204.4593
359.5133, 207.0665
359.9954, 209.3617
360.4775, 210.9697
360.9596, 212.1601
361.4417, 213.4756
361.9239, 215.5320
362.4060, 217.4904
362.8881, 218.8146
363.3702, 219.3349
363.8523, 219.8479
364.3344, 220.6488
364.8166, 221.5669
365.2987, 222.4138
365.7808, 223.0766
366.2629, 223.7112
366.7450, 224.4520
367.2271, 225.2951
367.7093, 225.7989
368.1914, 225.5109
368.6735, 225.1165
369.1556, 225.0631
369.6377, 225.8526
370.1198, 226.3658
370.6020, 226.3490
371.0841, 225.9924
371.5662, 226.0014
372.0483, 226.5885
372.5304, 227.2757
373.0125, 227.8470
373.4947, 228.1758
373.9768, 228.7626
374.4589, 229.7593
374.9410, 230.8990
375.4231, 231.6266
375.9052, 231.6215
376.3874, 232.1591
376.8695, 233.8714
377.3516, 236.7368
377.8337, 238.5713
378.3158, 239.1003
378.7979, 239.4485
379.2801, 240.7391
379.7622, 243.0213
380.2443, 245.4787
380.7264, 248.0402
381.2085, 250.6374
381.6906, 253.1021
382.1728, 255.4206
382.6549, 257.7092
383.1370, 259.8112
383.6191, 261.8893
384.1012, 264.6248
384.5833, 268.2450
385.0655, 272.0742
385.5476, 275.0256
386.0297, 277.3697
386.5118, 279.9402
386.9939, 283.4117
387.4760, 287.2711
387.9582, 290.7785
388.4403, 293.9474
388.9224, 297.0396
389.4045, 300.2993
389.8866, 303.5815
390.3687, 306.7039
390.8509, 309.5414
391.3330, 312.2293
391.8151, 314.8720
392.2972, 317.4618
392.7793, 320.0056
393.2614, 322.7477
393.7436, 325.2798
394.2257, 327.2783
394.7078, 328.3855
395.1899, 329.6513
395.6720, 331.6947
396.1541, 334.0840
396.6363, 336.1274
397.1184, 337.6821
397.6005, 338.8367
398.0826, 339.6659
398.5647, 340.2015
399.0468, 340.1544
399.5290, 338.9140
400.0111, 337.4041
400.4932, 336.3819
400.9753, 336.7108
401.4574, 336.3785
401.9395, 335.2228
402.4217, 333.2808
402.9038, 330.6851
403.3859, 327.1928
403.8680, 323.4061
404.3501, 319.5922
404.8322, 315.8301
405.3144, 311.8742
405.7965, 307.7423
406.2786, 303.4511
406.7607, 298.9960
407.2428, 294.3267
407.7249, 289.7663
408.2071, 285.6127
408.6892, 281.7150
409.1713, 277.1096
409.6534, 271.6794
410.1355, 266.0958
410.6176, 260.9205
411.0998, 256.0985
411.5819, 251.4616
412.0640, 246.9853
412.5461, 242.6521
413.0282, 238.4088
413.5103, 234.2439
413.9925, 230.0073
414.4746, 225.3918
414.9567, 220.6685
415.4388, 216.3257
415.9209, 212.3742
416.4030, 208.6957
416.8852, 205.1830
417.3673, 201.8356
417.8494, 198.6395
418.3315, 195.7668
418.8136, 192.8723
419.2957, 189.5170
419.7779, 185.8352
420.2600, 182.4886
420.7421, 180.1319
421.2242, 178.0322
421.7063, 175.6939
422.1884, 172.7471
422.6706, 170.0138
423.1527, 167.7261
423.6348, 165.7639
424.1169, 163.8882
424.5990, 162.0876
425.0811, 160.3174
425.5633, 158.5576
426.0454, 156.7984
426.5275, 155.0855
427.0096, 153.3446
427.4917, 151.6850
427.9738, 150.1756
428.4560, 148.7668
428.9381, 147.6298
429.4202, 146.8923
429.9023, 146.4295
430.3844, 145.7445
430.8665, 144.7483
431.3487, 143.7944
431.8308, 143.0970
432.3129, 142.6756
432.7950, 142.1376
433.2771, 141.4290
433.7592, 140.7490
434.2414, 140.2715
434.7235, 140.0084
435.2056, 140.1282
435.6877, 140.8634
436.1698, 141.8897
436.6519, 142.5275
437.1341, 142.7897
437.6162, 142.9219
438.0983, 142.8693
438.5804, 142.8675
439.0625, 143.3944
439.5446, 144.6390
440.0268, 146.0440
440.5089, 147.1204
440.9910, 147.9947
441.4731, 148.9088
441.9552, 149.7358
442.4373, 150.8313
442.9195, 152.5979
443.4016, 155.0206
443.8837, 157.3084
444.3658, 158.9684
444.8479, 160.4588
445.3300, 162.1132
445.8122, 163.9765
446.2943, 166.0511
446.7764, 168.3743
447.2585, 170.9171
447.7406, 173.6065
448.2227, 176.5487
448.7049, 179.5336
449.1870, 182.5933
449.6691, 185.7632
450.1512, 188.6042
450.6333, 190.7879
451.1154, 192.9668
451.5976, 195.7666
452.0797, 199.2658
452.5618, 203.1026
453.0439, 207.4707
453.5260, 211.9999
454.0081, 215.6055
454.4903, 218.1371
454.9724, 220.8199
455.4545, 224.5018
455.9366, 229.0105
456.4187, 233.4139
456.9008, 237.6549
457.3830, 241.7485
457.8651, 245.4824
458.3472, 248.9933
458.8293, 252.5551
459.3114, 256.3752
459.7935, 260.2049
460.2757, 263.8314
460.7578, 267.2439
461.2399, 270.4847
461.7220, 273.4864
462.2041, 276.3844
462.6862, 279.4165
463.1684, 282.7785
463.6505, 285.5185
464.1326, 287.0312
464.6147, 287.6430
465.0968, 287.7890
465.5789, 287.4788
466.0611, 286.8405
466.5432, 285.8730
467.0253, 284.5926
467.5074, 283.1086
467.9895, 281.8438
468.4716, 280.0428
468.9538, 277.3219
469.4359, 273.3784
469.9180, 269.2485
470.4001, 264.8659
470.8822, 260.2936
471.3643, 255.5777
471.8465, 250.6682
472.3286, 245.7530
472.8107, 240.8879
473.2928, 236.0975
473.7749, 231.0362
474.2570, 225.6554
474.7392, 220.3862
475.2213, 215.6872
475.7034, 211.4516
476.1855, 206.8660
476.6676, 201.7487
477.1497, 196.5910
477.6319, 192.0967
478.1140, 188.1531
478.5961, 184.4591
479.0782, 181.0122
479.5603, 177.6687
480.0424, 174.2115
480.5246, 170.6549
481.0067, 167.2440
481.4888, 164.3412
481.9709, 161.5336
482.4530, 158.3707
482.9352, 154.4567
483.4173, 150.9597
483.8994, 148.3427
484.3815, 146.4207
484.8636, 144.9386
485.3457, 144.8327
485.8279, 144.1419
486.3100, 142.0385
486.7921, 138.5032
487.2742, 135.5243
487.7563, 133.2645
488.2384, 131.3672
488.7206, 129.6797
489.2027, 128.2789
489.6848, 126.9044
490.1669, 125.5466
490.6490, 124.2233
491.1311, 122.9242
491.6133, 121.6542
492.0954, 120.4416
492.5775, 119.2283
493.0596, 118.0972
493.5417, 117.4850
494.0238, 117.4028
494.5060, 117.2106
494.9881, 116.1634
495.4702, 114.6571
495.9523, 113.7599
496.4344, 113.7295
496.9165, 113.7768
497.3987, 112.8919
497.8808, 111.5385
498.3629, 110.6093
498.8450, 110.9050
499.3271, 111.3808
499.8092, 111.3426
500.2914, 110.8710
500.7735, 110.4335
501.2556, 110.2168
501.7377, 110.0820
502.2198, 109.9537
502.7019, 109.8246
503.1841, 109.6983
503.6662, 109.5418
504.1483, 109.4044
504.6304, 109.3422
505.1125, 109.3539
505.5946, 109.4439
506.0768, 109.6211
506.5589, 109.8776
507.0410, 110.1751
507.5231, 110.5065
508.0052, 110.8941
508.4873, 111.4445
508.9695, 112.1536
509.4516, 112.4438
509.9337, 112.2233
510.4158, 111.9498
510.8979, 112.2155
511.3800, 112.9086
511.8622, 113.5035
512.3443, 113.7961
512.8264, 114.0235
513.3085, 114.4625
513.7906, 115.1031
514.2728, 115.9089
514.7549, 116.9733
515.2370, 118.1212
515.7191, 119.2051
516.2012, 120.2159
516.6833, 121.2189
517.1655, 122.2063
517.6476, 123.2322
518.1297, 124.3426
518.6118, 125.5537
519.0939, 126.8436
519.5760, 128.2011
520.0582, 129.6329
520.5403, 131.1881
521.0224, 132.8707
521.5045, 134.6430
521.9866, 136.4871
522.4688, 138.4107
522.9509, 140.4465
523.4330, 142.6079
523.9151, 144.8727
524.3972, 147.1565
524.8793, 149.4420
525.3615, 152.1896
525.8436, 155.5284
526.3257, 159.1449
526.8078, 162.5618
527.2899, 165.8211
527.7720, 169.0703
528.2542, 172.3408
528.7363, 175.6064
529.2184, 178.7778
529.7005, 181.8828
530.1826, 185.2322
530.6647, 188.9617
531.1469, 193.0392
531.6290, 197.6286
532.1111, 202.8718
532.5932, 207.9047
533.0753, 212.2935
533.5574, 216.3576
534.0396, 220.3545
534.5217, 224.0060
535.0038, 228.0269
535.4859, 232.7924
535.9680, 238.0364
536.4501, 242.9997
536.9323, 247.6491
537.4144, 252.0664
537.8965, 256.2414
538.3786, 260.1573
538.8607, 263.8373
539.3428, 267.1994
539.8250, 270.4767
540.3071, 274.0887
540.7892, 277.8840
541.2713, 280.8109
541.7534, 282.6080
542.2355, 283.6982
542.7177, 284.5497
543.1998, 285.1710
543.6819, 285.5641
544.1640, 286.2023
544.6461, 286.2855
545.1282, 284.8065
545.6104, 281.9527
546.0925, 278.8746
546.5746, 276.6414
547.0567, 274.0728
547.5388, 270.2464
548.0209, 264.7308
548.5031, 259.0124
548.9852, 253.2100
549.4673, 247.4026
549.9494, 241.6783
550.4315, 236.2900
550.9136, 230.5872
551.3958, 224.4084
551.8779, 217.8669
552.3600, 211.3854
552.8421, 204.8869
553.3242, 198.5916
553.8063, 192.5970
554.2885, 186.8901
554.7706, 181.4303
555.2527, 176.2406
555.7348, 171.0669
556.2169, 165.4215
556.6990, 159.6515
557.1812, 154.5559
557.6633, 150.3374
558.1454, 146.5261
558.6275, 142.8093
559.1096, 139.1769
559.5917, 135.5262
560.0739, 131.6443
560.5560, 127.9539
561.0381, 124.7413
561.5202, 121.9459
562.0023, 119.1653
562.4844, 116.0047
562.9666, 113.0793
563.4487, 110.7843
563.9308, 109.2941
564.4129, 107.5580
564.8950, 105.3913
565.3771, 103.1785
565.8593, 101.2139
566.3414, 99.52947
566.8235, 97.92855
567.3056, 96.36752
567.7877, 94.89011
568.2698, 93.58621
568.7520, 92.43974
569.2341, 91.36504
569.7162, 90.33741
570.1983, 89.34682
570.6804, 88.36827
571.1625, 87.40088
571.6447, 86.40454
572.1268, 85.34119
572.6089, 84.24272
573.0910, 83.08064
573.5731, 81.79802
574.0552, 80.80790
574.5374, 80.42929
575.0195, 80.35461
575.5016, 80.29324
575.9837, 80.06493
576.4658, 80.00729
576.9479, 80.52138
577.4301, 81.13786
577.9122, 80.85417
578.3943, 79.09892
578.8764, 77.56383
579.3585, 76.70691
579.8406, 76.46026
580.3228, 76.45783
580.8049, 76.75804
581.2870, 76.92418
581.7691, 76.43515
582.2512, 75.53185
582.7333, 75.30041
583.2155, 75.86413
583.6975, 76.49725
584.1796, 76.49672
584.6617, 76.11443
585.1439, 75.74899
585.6260, 75.44894
586.1081, 75.30332
586.5902, 75.41197
587.0723, 75.71015
587.5544, 76.06776
588.0366, 76.60023
588.5187, 77.03695
589.0008, 77.20095
589.4829, 77.11485
589.9650, 77.25163
590.4471, 77.73388
590.9293, 78.27860
591.4114, 78.76589
591.8935, 79.20149
592.3756, 79.52354
592.8577, 79.69111
593.3398, 79.85603
593.8220, 80.22485
594.3041, 80.76375
594.7862, 81.18153
595.2683, 81.38461
595.7504, 81.56425
596.2325, 82.04292
596.7147, 82.70890
597.1968, 83.26155
597.6789, 83.57742
598.1610, 83.73339
598.6431, 83.73838
599.1252, 83.61604
599.6074, 83.47308
600.0895, 83.40084
600.5716, 83.27119
601.0537, 83.01839
601.5358, 82.62435
602.0179, 82.16443
602.5001, 81.56773
602.9822, 80.97568
603.4643, 80.52692
603.9464, 80.30299
604.4285, 79.87210
604.9106, 79.16415
605.3928, 78.31677
605.8749, 77.49694
606.3570, 76.70318
606.8391, 75.95863
607.3212, 75.25465
607.8033, 74.62307
608.2855, 74.13313
608.7676, 73.76135
609.2497, 73.40410
609.7318, 72.98222
610.2139, 72.57164
610.6960, 72.26196
611.1782, 72.05148
611.6603, 71.79754
612.1424, 71.48533
612.6245, 71.08546
613.1066, 70.56297
613.5887, 69.81136
614.0709, 69.17255
614.5530, 68.67452
615.0351, 68.25969
615.5172, 67.84012
615.9993, 67.37473
616.4814, 67.09988
616.9636, 67.10455
617.4457, 67.23215
617.9278, 67.14980
618.4099, 66.88131
618.8920, 66.68271
619.3741, 66.75732
619.8563, 66.88859
620.3384, 66.73862
620.8205, 66.34608
621.3026, 65.90675
621.7847, 65.42463
622.2668, 65.01505
622.7490, 64.79956
623.2311, 64.80160
623.7132, 64.81641
624.1953, 64.84250
624.6774, 64.82844
625.1595, 64.73958
625.6417, 64.56949
626.1238, 64.32332
626.6059, 63.91460
627.0880, 63.52950
627.5701, 63.47338
628.0522, 63.79142
628.5344, 64.00364
629.0165, 63.99907
629.4986, 63.85079
629.9807, 63.64340
630.4628, 63.39662
630.9449, 63.22340
631.4271, 63.32442
631.9092, 63.43017
632.3913, 63.11866
632.8734, 62.47472
633.3555, 62.04850
633.8376, 62.31323
634.3198, 62.71857
634.8019, 62.94611
635.2840, 62.94216
635.7661, 62.87286
636.2482, 62.70615
636.7303, 62.52235
637.2125, 62.37097
637.6946, 62.24644
638.1767, 62.18328
638.6588, 62.21098
639.1409, 62.25304
639.6230, 62.16845
640.1052, 61.96989
640.5873, 61.85375
641.0694, 61.88285
641.5515, 61.99784
642.0336, 62.17214
642.5157, 62.36586
642.9979, 62.46424
643.4800, 62.37012
643.9621, 62.19196
644.4442, 61.97815
644.9263, 61.73730
645.4084, 61.51228
645.8906, 61.32788
646.3727, 61.15497
646.8548, 60.95152
647.3369, 60.69127
647.8190, 60.60632
648.3011, 60.77492
648.7833, 61.00299
649.2654, 61.12909
649.7475, 61.13945
650.2296, 61.29412
650.7117, 61.66457
651.1938, 61.96297
651.6760, 61.68668
652.1581, 61.02685
652.6402, 60.59507
653.1223, 60.60833
653.6044, 60.77394
654.0865, 60.88231
654.5687, 60.94521
655.0508, 60.98673
655.5329, 61.05748
656.0150, 61.06607
656.4971, 60.95386
656.9792, 60.74155
657.4614, 60.54122
657.9435, 60.38958
658.4256, 60.20124
658.9077, 59.89655
659.3898, 59.48949
659.8719, 59.39135
660.3541, 59.67268
660.8362, 59.93146
661.3183, 59.81525
661.8004, 59.43310
662.2825, 59.23826
662.7646, 59.26504
663.2468, 59.30984
663.7289, 59.23100
664.2110, 59.04774
664.6931, 58.75517
665.1752, 58.27299
665.6573, 57.89425
666.1395, 57.76398
666.6216, 57.79917
667.1037, 57.89750
667.5858, 58.31306
668.0679, 58.41734
668.5500, 57.92028
669.0322, 57.19181
669.5143, 57.15519
669.9964, 58.00013
670.4785, 58.59357
670.9606, 58.52682
671.4427, 58.01788
671.9249, 57.54584
672.4070, 57.13308
672.8891, 56.98787
673.3712, 57.51503
673.8533, 58.21103
674.3354, 58.48090
674.8176, 58.33752
675.2997, 58.07993
675.7818, 57.65784
676.2639, 57.32342
676.7460, 57.27752
677.2281, 57.64811
677.7103, 57.89336
678.1924, 57.99861
678.6745, 57.96906
679.1566, 57.76118
679.6387, 57.29854
680.1208, 57.03267
680.6030, 57.01106
681.0851, 57.11699
681.5672, 57.29004
682.0493, 57.48185
682.5314, 57.45835
683.0135, 57.08246
683.4957, 56.66490
683.9778, 56.52445
684.4599, 56.58048
684.9420, 56.68506
685.4241, 56.90495
685.9063, 57.03367
686.3884, 56.89256
686.8705, 56.58521
687.3526, 56.48124
687.8347, 56.81924
688.3168, 57.03466
688.7990, 56.92144
689.2811, 56.54730
689.7632, 56.38213
690.2453, 56.45009
690.7274, 56.56304
691.2095, 56.59728
691.6917, 56.59296
692.1738, 56.72862
692.6559, 56.99312
693.1380, 57.14672
693.6201, 56.86686
694.1022, 56.47697
694.5844, 56.30988
695.0665, 56.44331
695.5486, 56.56408
696.0307, 56.54999
696.5128, 56.48920
696.9949, 56.45005
697.4771, 56.43738
697.9592, 56.44735
698.4413, 56.50920
698.9234, 56.55730
699.4055, 56.51603
699.8876, 56.38588
700.3698, 56.17188
700.8519, 55.84783
701.3340, 55.52318
701.8161, 55.37609
702.2982, 55.35259
702.7803, 55.31290
703.2625, 55.14891
703.7446, 55.02151
704.2267, 55.06884
704.7088, 55.23064
705.1909, 55.37518
705.6730, 55.46638
706.1552, 55.53455
706.6373, 55.58998
707.1194, 55.62833
707.6015, 55.62986
708.0836, 55.58794
708.5657, 55.52020
709.0479, 55.39286
709.5300, 55.24844
710.0121, 55.30973
710.4942, 55.56872
710.9763, 55.82724
711.4584, 56.00286
711.9406, 56.07602
712.4227, 55.95971
712.9048, 55.66032
713.3869, 55.45062
713.8690, 55.54429
714.3511, 55.71479
714.8333, 55.82527
715.3154, 55.86169
715.7975, 55.82410
716.2796, 55.66454
716.7617, 55.49239
717.2438, 55.40509
717.7260, 55.41664
718.2081, 55.37836
718.6902, 55.28146
719.1723, 55.13889
719.6544, 54.92190
720.1365, 54.67413
720.6187, 54.49933
721.1008, 54.41058
721.5829, 54.42278
722.0650, 54.62897
722.5471, 54.91326
723.0292, 55.12487
723.5114, 55.15718
723.9935, 55.18502
724.4756, 55.30211
724.9577, 55.40614
725.4398, 55.28899
725.9219, 54.84186
726.4041, 54.50679
726.8862, 54.38611
727.3683, 54.42574
727.8504, 54.54787
728.3325, 54.73587
728.8146, 54.87346
729.2968, 54.83644
729.7789, 54.78255
730.2610, 54.95289
730.7431, 55.26929
731.2252, 55.47263
731.7073, 55.30485
732.1895, 55.14230
732.6716, 55.24287
733.1537, 55.56993
733.6358, 55.54002
734.1179, 54.88070
734.6000, 54.33313
735.0822, 54.27309
735.5643, 54.63395
736.0464, 54.71091
736.5285, 54.48841
737.0106, 54.29945
737.4927, 54.45321
737.9749, 54.77121
738.4570, 54.99172
738.9391, 55.09563
739.4212, 55.03582
739.9033, 54.57243
740.3854, 54.08526
740.8676, 53.86155
741.3497, 53.99892
741.8318, 54.15039
742.3139, 54.38124
742.7960, 54.52085
743.2781, 54.38835
743.7603, 53.90541
744.2424, 53.75136
744.7245, 53.99993
745.2066, 54.34493
745.6887, 54.45390
746.1708, 54.41093
746.6530, 54.45169
747.1351, 54.63910
747.6172, 54.79143
748.0993, 54.74389
748.5814, 54.60152
749.0635, 54.47657
749.5457, 54.32716
750.0278, 54.30741
750.5099, 54.56096
750.9920, 54.86898
751.4741, 54.97224
751.9562, 54.82902
752.4384, 54.63107
752.9205, 54.37572
753.4026, 54.13487
753.8847, 54.01958
754.3668, 54.01931
754.8489, 54.10401
755.3311, 54.31532
755.8132, 54.51123
756.2953, 54.59101
756.7774, 54.56248
757.2595, 54.43800
757.7416, 54.10116
758.2238, 53.80898
758.7059, 53.53619
759.1880, 53.36344
759.6701, 53.52365
760.1522, 54.18038
760.6343, 54.63856
761.1165, 54.68033
761.5986, 54.46571
762.0807, 54.38859
762.5628, 54.42061
763.0449, 54.39245
763.5270, 54.12300
764.0092, 53.84979
764.4913, 53.81581
764.9734, 53.96484
765.4555, 54.12076
765.9376, 54.33150
766.4197, 54.41838
766.9019, 54.21340
767.3840, 53.80791
767.8661, 53.64396
768.3482, 53.80336
768.8303, 53.96333
769.3124, 53.98530
769.7946, 53.91339
770.2767, 53.92708
770.7588, 54.01235
771.2409, 54.03887
771.7230, 53.77043
772.2051, 53.51569
772.6873, 53.67837
773.1694, 54.19723
773.6515, 54.56383
774.1336, 54.53037
774.6157, 54.37423
775.0978, 54.18919
775.5800, 53.97952
776.0621, 53.77021
776.5442, 53.51891
777.0263, 53.39211
777.5084, 53.59904
777.9905, 54.01990
778.4727, 54.01344
778.9548, 53.60251
779.4369, 53.19997
779.9190, 53.12670
780.4011, 53.18733
780.8832, 53.19894
781.3654, 53.14779
781.8475, 53.09454
782.3296, 53.02066
782.8117, 52.98528
783.2938, 53.02641
783.7759, 53.15374
784.2581, 53.25342
784.7402, 53.32831
785.2223, 53.36708
785.7044, 53.36479
786.1865, 53.32153
786.6686, 53.20435
787.1508, 53.01452
787.6329, 52.87488
788.1150, 52.91885
788.5971, 53.02917
789.0792, 53.09925
789.5613, 53.11589
790.0435, 53.10917
790.5256, 53.02089
791.0077, 52.96827
791.4898, 53.02448
791.9719, 53.20913
792.4540, 53.37385
792.9362, 53.53328
793.4183, 53.59715
793.9004, 53.37883
794.3825, 53.01163
794.8646, 52.92070
795.3467, 53.13870
795.8289, 53.35907
796.3110, 53.47398
796.7931, 53.41819
797.2752, 53.04818
797.7573, 52.20681
798.2394, 51.69415
798.7216, 51.69391
799.2037, 51.92869
799.6858, 52.29149
800.1679, 52.82696
800.6500, 53.13882
801.1321, 53.21390
801.6143, 53.18000
802.0964, 53.10491
802.5785, 53.01796
803.0606, 52.98053
803.5427, 53.00185
804.0248, 53.03155
804.5070, 52.96223
804.9891, 52.94184
805.4712, 53.11558
805.9533, 53.61393
806.4354, 53.93433
806.9175, 54.03768
807.3997, 54.01511
807.8818, 53.90180
808.3639, 53.70110
808.8460, 53.53092
809.3281, 53.39488
809.8102, 53.29308
810.2924, 53.21883
810.7745, 53.18235
811.2566, 53.23585
811.7387, 53.40467
812.2208, 53.46604
812.7029, 53.22083
813.1851, 52.91628
813.6672, 52.70750
814.1493, 52.58569
814.6314, 52.64732
815.1135, 52.98551
815.5956, 53.27309
816.0778, 53.14424
816.5599, 52.71730
817.0420, 52.58285
817.5241, 52.77684
818.0062, 52.99164
818.4883, 52.97990
818.9705, 52.87469
819.4526, 52.82674
819.9347, 52.87738
820.4168, 52.80273
820.8989, 52.32143
821.3810, 51.92190
821.8632, 51.89075
822.3453, 52.27923
822.8274, 52.55955
823.3095, 52.73609
823.7916, 52.75768
824.2737, 52.44860
824.7559, 51.99377
825.2380, 51.77211
825.7201, 51.80542
826.2022, 51.93510
826.6843, 52.14168
827.1664, 52.35353
827.6486, 52.54277
828.1307, 52.71765
828.6128, 52.75666
829.0949, 52.60297
829.5770, 52.41048
830.0591, 52.24085
830.5413, 52.09854
831.0234, 52.04707
831.5055, 52.08491
831.9876, 52.12489
832.4697, 52.04907
832.9518, 51.97775
833.4340, 52.09401
833.9161, 52.38789
834.3982, 52.58353
834.8803, 52.55163
835.3624, 52.42604
835.8445, 52.21236
836.3267, 51.92342
836.8088, 51.88484
837.2909, 52.14358
837.7730, 52.44271
838.2551, 52.69241
838.7372, 52.86381
839.2194, 52.81649
839.7015, 52.59218
840.1836, 52.43156
840.6657, 52.60217
841.1478, 52.76431
841.6299, 52.60989
842.1121, 52.19329
842.5942, 52.08442
843.0763, 52.54755
843.5584, 52.88607
844.0405, 52.79538
844.5226, 52.44074
845.0048, 52.56100
845.4869, 53.11973
845.9690, 53.56197
846.4511, 53.52605
846.9332, 53.30002
847.4153, 53.12320
847.8975, 53.00755
848.3796, 52.98633
848.8617, 53.13997
849.3438, 53.31616
849.8259, 53.50897
850.3080, 53.68511
850.7902, 53.71332
851.2723, 53.54666
851.7544, 53.53754
852.2365, 53.85506
852.7186, 54.27472
853.2007, 54.38865
853.6829, 54.27507
854.1650, 54.14954
854.6471, 54.09608
855.1292, 54.04914
855.6113, 53.92266
856.0934, 53.79475
856.5756, 53.81629
857.0577, 54.08472
857.5398, 54.31225
858.0219, 54.48070
858.5040, 54.57987
858.9861, 54.55471
859.4683, 54.43184
859.9504, 54.35976
860.4325, 54.38290
860.9146, 54.43394
861.3967, 54.50845
861.8788, 54.55046
862.3610, 54.48777
862.8431, 54.25244
863.3252, 53.99727
863.8073, 53.70102
864.2894, 53.42968
864.7715, 53.26765
865.2537, 53.22255
865.7358, 53.13586
866.2179, 52.98855
866.7000, 52.85057
867.1821, 52.81568
867.6642, 52.82607
868.1464, 52.77022
868.6285, 52.60644
869.1106, 52.55843
869.5927, 52.86636
870.0748, 53.19191
870.5569, 53.29855
871.0391, 53.14417
871.5212, 53.05955
872.0033, 53.06181
872.4854, 53.05941
872.9675, 52.92918
873.4496, 52.75297
873.9318, 52.79631
874.4139, 53.03968
874.8960, 53.17706
875.3781, 52.85224
875.8602, 52.51641
876.3423, 52.48388
876.8245, 52.77066
877.3066, 52.95792
877.7887, 52.99299
878.2708, 53.05793
878.7529, 53.25829
879.2350, 53.53247
879.7172, 53.64549
880.1993, 53.62232
880.6814, 53.62691
881.1635, 53.88152
881.6456, 54.07776
882.1277, 53.85787
882.6099, 53.38451
883.0920, 53.14857
883.5741, 53.44770
884.0562, 53.70507
884.5383, 53.83723
885.0204, 53.86938
885.5026, 53.83001
885.9847, 53.72449
886.4668, 53.64039
886.9489, 53.58228
887.4310, 53.60110
887.9131, 53.88123
888.3953, 54.23519
888.8774, 54.37737
889.3595, 54.04803
889.8416, 53.77244
890.3237, 53.57660
890.8058, 53.50438
891.2880, 53.67296
891.7701, 54.11863
892.2522, 54.28897
892.7343, 54.10443
893.2164, 53.85885
893.6985, 53.86136
894.1807, 53.99749
894.6628, 54.09664
895.1449, 54.12248
895.6270, 54.18290
896.1091, 54.35770
896.5912, 54.54490
897.0734, 54.69192
897.5555, 54.79856
898.0376, 54.86902
898.5197, 54.91035
899.0018, 54.87542
899.4839, 54.54652
899.9661, 54.19472
900.4482, 54.48854
900.9303, 55.32121
901.4124, 55.93697
901.8945, 55.79554
902.3766, 55.52371
902.8588, 55.41938
903.3409, 55.44228
903.8230, 55.34697
904.3051, 55.07204
904.7872, 54.92626
905.2693, 55.06481
905.7515, 55.32307
906.2336, 55.32361
906.7157, 55.15953
907.1978, 55.10317
907.6799, 55.33920
908.1620, 55.61517
908.6442, 55.93629
909.1263, 56.18320
909.6084, 56.14373
910.0905, 55.64607
910.5726, 55.32597
911.0547, 55.24850
911.5369, 55.33421
912.0190, 55.55099
912.5011, 55.84171
912.9832, 56.03517
913.4653, 56.09224
913.9474, 56.11839
914.4296, 56.12052
914.9117, 56.16029
915.3938, 56.29004
915.8759, 56.51347
916.3580, 56.86404
916.8401, 57.46356
917.3223, 57.88618
917.8044, 57.67956
918.2865, 57.05585
918.7686, 56.81760
919.2507, 56.94143
919.7328, 57.13527
920.2150, 57.28627
920.6971, 57.38793
921.1792, 57.41441
921.6613, 57.37904
922.1434, 57.37890
922.6255, 57.42629
923.1077, 57.48458
923.5898, 57.53593
924.0719, 57.59975
924.5540, 57.74381
925.0361, 57.94665
925.5182, 58.12408
926.0004, 58.27543
926.4825, 58.34188
926.9646, 58.15020
927.4467, 57.89683
927.9288, 57.90245
928.4109, 58.39760
928.8931, 58.70375
929.3752, 58.77119
929.8573, 58.67760
930.3394, 58.38080
930.8215, 57.99051
931.3036, 57.93269
931.7858, 58.27415
932.2679, 58.69552
932.7500, 59.12632
933.2321, 59.43828
933.7142, 59.48380
934.1964, 59.20070
934.6785, 59.10809
935.1606, 59.28415
935.6427, 59.46250
936.1248, 59.48985
936.6069, 59.41632
937.0891, 59.40858
937.5712, 59.45558
938.0533, 59.50422
938.5354, 59.45530
939.0175, 59.46830
939.4996, 59.73229
939.9818, 60.12440
940.4639, 60.27799
940.9460, 60.07312
941.4281, 59.91469
941.9102, 59.87196
942.3923, 59.90730
942.8745, 59.96046
943.3566, 60.04173
943.8387, 60.19631
944.3208, 60.46208
944.8029, 60.69596
945.2850, 60.85873
945.7672, 60.92661
946.2493, 60.84669
946.7314, 60.55120
947.2135, 60.41626
947.6956, 60.47054
948.1777, 60.58975
948.6599, 60.64531
949.1420, 60.70124
949.6241, 60.99260
950.1062, 61.48009
950.5883, 61.82293
951.0704, 61.70640
951.5526, 61.52694
952.0347, 61.39111
952.5168, 61.35128
952.9989, 61.70333
953.4810, 62.59640
953.9631, 63.14732
954.4453, 63.01616
954.9274, 62.57450
955.4095, 62.36926
955.8916, 62.33626
956.3737, 62.33319
956.8558, 62.30737
957.3380, 62.32267
957.8201, 62.31727
958.3022, 62.42580
958.7843, 62.84039
959.2664, 63.68028
959.7485, 64.12168
960.2307, 64.10448
960.7128, 63.95443
961.1949, 63.84849
961.6770, 63.84579
962.1591, 64.03841
962.6412, 64.42950
963.1234, 64.93851
963.6055, 65.78683
964.0876, 66.46102
964.5697, 66.68810
965.0518, 66.61218
965.5339, 66.98025
966.0161, 67.79253
966.4982, 68.35820
966.9803, 68.29523
967.4624, 68.06213
967.9445, 68.07828
968.4266, 68.30556
968.9088, 68.68032
969.3909, 69.33963
969.8730, 69.93449
970.3551, 70.44704
970.8372, 70.89156
971.3193, 71.29173
971.8015, 71.64633
972.2836, 71.89324
972.7657, 72.01854
973.2478, 72.36289
973.7299, 73.48506
974.2120, 74.72553
974.6942, 75.49120
975.1763, 75.73137
975.6584, 76.07321
976.1405, 76.53467
976.6226, 77.12084
977.1047, 77.80280
977.5869, 78.63518
978.0690, 79.92477
978.5511, 81.50794
979.0332, 82.80025
979.5153, 83.40650
979.9974, 83.91472
980.4796, 84.54061
980.9617, 85.30511
981.4438, 86.24313
981.9259, 87.44739
982.4080, 88.55273
982.8901, 89.52466
983.3723, 90.48917
983.8544, 91.60981
984.3365, 92.80125
984.8186, 93.92191
985.3007, 94.96245
985.7828, 95.89687
986.2650, 96.61053
986.7471, 97.33485
987.2292, 98.15836
987.7113, 99.07613
988.1934, 100.0806
988.6755, 101.1739
989.1577, 102.2870
989.6398, 103.3840
990.1219, 104.4795
990.6040, 105.5614
991.0861, 106.6558
991.5682, 107.8040
992.0504, 108.8306
992.5325, 110.2282
993.0146, 112.1723
993.4967, 114.2892
993.9788, 116.2896
994.4609, 118.1862
994.9431, 120.0059
995.4252, 121.7611
995.9073, 123.7678
996.3894, 126.3526
996.8715, 129.2243
997.3536, 132.2517
997.8358, 135.3965
998.3179, 138.5629
998.8000, 141.6272
999.2821, 145.0704
999.7642, 149.1446
1000.246, 153.5937
1000.728, 157.7730
1001.211, 161.8362
1001.693, 165.9695
1002.175, 170.0623
1002.657, 174.7045
1003.139, 180.6507
1003.621, 186.8930
1004.103, 192.3685
1004.585, 196.8442
1005.068, 201.9483
1005.550, 207.7721
1006.032, 213.7139
1006.514, 219.2503
1006.996, 225.4007
1007.478, 230.8814
1007.960, 237.5476
1008.442, 244.0085
1008.924, 250.1462
1009.407, 256.0794
1009.889, 261.9261
1010.371, 267.5600
1010.853, 272.8498
1011.335, 277.8108
1011.817, 282.1430
1012.299, 285.8736
1012.781, 288.7329
1013.263, 290.2439
1013.746, 291.0064
1014.228, 291.6007
1014.710, 292.1519
1015.192, 292.1808
1015.674, 291.6151
1016.156, 290.7619
1016.638, 289.6737
1017.120, 288.4821
1017.603, 287.1915
1018.085, 285.9938
1018.567, 285.6197
1019.049, 287.2341
1019.531, 288.6800
1020.013, 289.0112
1020.495, 289.0103
1020.977, 289.8482
1021.459, 291.5379
1021.942, 293.4402
1022.424, 295.5611
1022.906, 297.2228
1023.388, 297.5666
1023.870, 297.3204
1024.352, 297.5158
1024.834, 298.3707
1025.316, 297.4453
1025.799, 294.2866
1026.281, 290.1321
1026.763, 285.3160
1027.245, 279.9738
1027.727, 274.1840
1028.209, 267.9596
1028.691, 261.3332
1029.173, 254.2710
1029.656, 246.8501
1030.138, 238.5490
1030.620, 230.3481
1031.102, 223.2807
1031.584, 217.5506
1032.066, 211.5736
1032.548, 205.2245
1033.030, 199.1957
1033.512, 194.0564
1033.995, 189.6147
1034.477, 185.8221
1034.959, 182.6340
1035.441, 179.7492
1035.923, 177.1555
1036.405, 174.7865
1036.887, 172.6340
1037.369, 170.6690
1037.851, 168.7449
1038.334, 166.9335
1038.816, 165.4319
1039.298, 164.3591
1039.780, 163.2531
1040.262, 161.6743
1040.744, 160.0517
1041.226, 158.8144
1041.708, 157.9980
1042.191, 156.6404
1042.673, 154.6580
1043.155, 152.7341
1043.637, 151.5239
1044.119, 150.3053
1044.601, 147.8161
1045.083, 144.5326
1045.565, 141.6413
1046.047, 139.8401
1046.530, 137.9200
1047.012, 135.7481
1047.494, 133.4936
1047.976, 131.2680
1048.458, 129.0942
1048.940, 127.2914
1049.422, 125.8639
1049.904, 124.4736
1050.386, 122.8072
1050.869, 121.1852
1051.351, 119.8907
1051.833, 118.8134
1052.315, 117.4655
1052.797, 115.7858
1053.279, 114.2563
1053.761, 112.9748
1054.243, 111.9070
1054.726, 111.1219
1055.208, 110.4664
1055.690, 109.7008
1056.172, 108.6790
1056.654, 107.8951
1057.136, 107.5631
1057.618, 107.1365
1058.100, 106.2344
1058.583, 104.9851
1059.065, 103.8516
1059.547, 102.8256
1060.029, 101.8597
1060.511, 100.8410
1060.993, 100.0097
1061.475, 99.61903
1061.957, 99.40516
1062.439, 99.00380
1062.922, 98.38918
1063.404, 97.83960
1063.886, 97.39106
1064.368, 96.89716
1064.850, 96.10381
1065.332, 95.28310
1065.814, 94.69383
1066.296, 94.35334
1066.778, 94.14294
1067.261, 93.99709
1067.743, 94.08636
1068.225, 94.51759
1068.707, 95.09566
1069.189, 95.47897
1069.671, 95.71500
1070.153, 95.89378
1070.635, 96.00617
1071.118, 96.17370
1071.600, 96.50127
1072.082, 96.84193
1072.564, 97.10964
1073.046, 97.31043
1073.528, 97.49559
1074.010, 97.67469
1074.492, 97.99402
1074.974, 98.59966
1075.457, 99.29533
1075.939, 99.87733
1076.421, 100.4701
1076.903, 101.3422
1077.385, 102.7182
1077.867, 103.6057
1078.349, 103.8379
1078.831, 104.0877
1079.313, 105.0160
1079.796, 106.3352
1080.278, 107.6802
1080.760, 109.0262
1081.242, 110.3068
1081.724, 111.4708
1082.206, 112.5843
1082.688, 113.5524
1083.170, 114.5785
1083.652, 116.0544
1084.135, 117.9166
1084.617, 119.9269
1085.099, 122.0736
1085.581, 124.1233
1086.063, 125.6698
1086.545, 127.3234
1087.027, 129.5371
1087.509, 132.2484
1087.992, 134.9216
1088.474, 137.5561
1088.956, 140.2334
1089.438, 142.8895
1089.920, 145.7818
1090.402, 149.4583
1090.884, 153.4375
1091.366, 157.0133
1091.849, 159.7778
1092.331, 163.0085
1092.813, 166.7384
1093.295, 170.8260
1093.777, 175.2845
1094.259, 179.9650
1094.741, 184.7406
1095.223, 189.5721
1095.705, 194.3548
1096.188, 198.8019
1096.670, 203.4544
1097.152, 208.4000
1097.634, 213.5568
1098.116, 218.9557
1098.598, 224.5657
1099.080, 230.0349
1099.562, 235.3606
1100.044, 240.9479
1100.527, 247.6894
1101.009, 254.1252
1101.491, 259.3102
1101.973, 263.6419
1102.455, 268.2038
1102.937, 273.0246
1103.419, 277.4761
1103.901, 281.3972
1104.384, 284.7966
1104.866, 287.5479
1105.348, 289.8022
1105.830, 291.8038
1106.312, 293.6112
1106.794, 294.5035
1107.276, 294.4047
1107.758, 293.6899
1108.240, 292.6006
1108.723, 290.8940
1109.205, 287.9696
1109.687, 284.1391
1110.169, 279.9991
1110.651, 275.6371
1111.133, 271.0114
1111.615, 266.0628
1112.097, 260.9008
1112.579, 255.5998
1113.062, 250.1409
1113.544, 244.4462
1114.026, 238.5002
1114.508, 232.4652
1114.990, 226.0413
1115.472, 219.9993
1115.954, 214.8041
1116.436, 210.0409
1116.919, 205.2409
1117.401, 200.3880
1117.883, 195.7920
1118.365, 191.4805
1118.847, 187.2707
1119.329, 183.0392
1119.811, 178.8597
1120.293, 174.7893
1120.776, 170.8101
1121.258, 166.8112
1121.740, 162.7457
1122.222, 159.1778
1122.704, 156.3077
1123.186, 153.5573
1123.668, 150.1125
1124.150, 146.5194
1124.632, 143.3669
1125.115, 140.7727
1125.597, 138.1500
1126.079, 135.4722
1126.561, 132.8268
1127.043, 130.2032
1127.525, 127.6904
1128.007, 125.5307
1128.489, 123.5422
1128.971, 121.4016
1129.454, 118.8952
1129.936, 116.6164
1130.418, 114.5803
1130.900, 112.8357
1131.382, 111.5516
1131.864, 110.5091
1132.346, 108.8102
1132.828, 106.7098
1133.311, 105.0507
1133.793, 104.5394
1134.275, 104.0678
1134.757, 103.4842
1135.239, 102.7048
1135.721, 101.4984
1136.203, 99.96032
1136.685, 98.88390
1137.167, 98.25465
1137.650, 97.71645
1138.132, 97.01774
1138.614, 96.39665
1139.096, 96.14983
1139.578, 95.96523
1140.060, 95.22038
1140.542, 93.88948
1141.024, 93.14783
1141.506, 93.14305
1141.989, 93.27156
1142.471, 93.19566
1142.953, 92.94260
1143.435, 92.31985
1143.917, 91.50943
1144.399, 91.37637
1144.881, 92.04552
1145.363, 92.55492
1145.846, 92.67847
1146.328, 92.62273
1146.810, 92.49991
1147.292, 92.38512
1147.774, 92.38654
1148.256, 92.30904
1148.738, 92.52959
1149.220, 92.32027
1149.703, 92.21608
1150.185, 92.35503
1150.667, 92.59641
1151.149, 92.73022
1151.631, 92.82602
1152.113, 93.00158
1152.595, 93.30974
1153.077, 93.60304
1153.559, 93.87377
1154.042, 94.12398
1154.524, 94.33987
1155.006, 94.54983
1155.488, 94.84390
1155.970, 95.18275
1156.452, 95.45608
1156.934, 95.56860
1157.416, 95.73178
1157.898, 95.98936
1158.381, 96.27219
1158.863, 96.54874
1159.345, 96.80785
1159.827, 96.98909
1160.309, 97.10464
1160.791, 97.20091
1161.273, 97.13557
1161.755, 97.28277
1162.238, 97.86314
1162.720, 98.53786
1163.202, 98.97410
1163.684, 99.18526
1164.166, 99.20503
1164.648, 99.06416
1165.130, 99.02206
1165.612, 99.35307
1166.094, 99.66553
1166.577, 99.68020
1167.059, 99.65416
1167.541, 100.0909
1168.023, 100.9372
1168.505, 101.4329
1168.987, 101.5026
1169.469, 101.4470
1169.951, 101.2949
1170.433, 101.2614
1170.916, 101.6064
1171.398, 102.1362
1171.880, 102.2962
1172.362, 102.0949
1172.844, 102.2743
1173.326, 103.0245
1173.808, 103.7438
1174.290, 103.8150
1174.773, 103.7443
1175.255, 103.9449
1175.737, 104.3693
1176.219, 104.7211
1176.701, 105.0006
1177.183, 105.2621
1177.665, 105.5285
1178.147, 105.7659
1178.630, 105.9395
1179.112, 106.0721
1179.594, 106.1564
1180.076, 106.1953
1180.558, 106.3726
1181.040, 106.6989
1181.522, 107.0917
1182.004, 107.5538
1182.486, 107.9958
1182.969, 108.2566
1183.451, 108.4744
1183.933, 108.8240
1184.415, 109.3304
1184.897, 109.8942
1185.379, 110.5240
1185.861, 111.1872
1186.343, 111.9218
1186.825, 112.5969
1187.308, 113.0094
1187.790, 113.2721
1188.272, 113.5415
1188.754, 113.8015
1189.236, 114.2167
1189.718, 114.8168
1190.200, 115.4044
1190.682, 115.7780
1191.165, 116.1292
1191.647, 116.7458
1192.129, 117.5176
1192.611, 118.2319
1193.093, 118.8028
1193.575, 119.3954
1194.057, 120.0033
1194.539, 120.6801
1195.021, 121.5849
1195.504, 122.5113
1195.986, 123.1276
1196.468, 123.5289
1196.950, 124.0060
1197.432, 124.7843
1197.914, 125.2019
1198.396, 125.1210
1198.878, 125.0284
1199.360, 125.4271
1199.843, 126.0751
1200.325, 126.7162
1200.807, 127.3023
1201.289, 127.6638
1201.771, 127.5886
1202.253, 127.7428
1202.735, 128.2637
1203.217, 128.8296
1203.700, 129.0741
1204.182, 129.1405
1204.664, 129.2345
1205.146, 129.3542
1205.628, 129.3877
1206.110, 129.2603
1206.592, 129.1790
1207.074, 129.1887
1207.557, 129.2039
1208.039, 129.1039
1208.521, 128.9466
1209.003, 128.8839
1209.485, 128.9022
1209.967, 128.6016
1210.449, 127.8019
1210.931, 127.0182
1211.413, 126.3303
1211.896, 125.7517
1212.378, 125.4182
1212.860, 125.1283
1213.342, 124.5860
1213.824, 123.7547
1214.306, 122.8446
1214.788, 121.8715
1215.270, 120.8648
1215.752, 119.8135
1216.235, 118.7870
1216.717, 118.0054
1217.199, 117.2401
1217.681, 116.0399
1218.163, 114.2805
1218.645, 113.0456
1219.127, 112.6161
1219.609, 112.0402
1220.092, 110.9973
1220.574, 109.6919
1221.056, 108.4373
1221.538, 107.1077
1222.020, 105.3858
1222.502, 103.1346
1222.984, 101.5531
1223.466, 100.8566
1223.948, 100.2700
1224.431, 99.54738
1224.913, 98.71993
1225.395, 97.69474
1225.877, 96.66325
1226.359, 95.98543
1226.841, 95.89814
1227.323, 95.03291
1227.805, 93.18473
1228.287, 91.33318
1228.770, 89.74621
1229.252, 88.61382
1229.734, 88.74940
1230.216, 89.24271
1230.698, 88.76857
1231.180, 86.88681
1231.662, 85.31423
1232.144, 84.08720
1232.627, 82.89457
1233.109, 81.45700
1233.591, 80.21822
1234.073, 79.99174
1234.555, 80.13418
1235.037, 79.69566
1235.519, 78.45009
1236.001, 77.55177
1236.484, 77.03349
1236.966, 76.65166
1237.448, 76.39540
1237.930, 76.06295
1238.412, 75.30941
1238.894, 74.41915
1239.376, 73.81725
1239.858, 73.56458
1240.340, 73.15244
1240.823, 72.57395
1241.305, 72.10323
1241.787, 71.96688
1242.269, 71.88698
1242.751, 71.66237
1243.233, 71.33561
1243.715, 70.98735
1244.197, 70.64062
1244.679, 69.96035
1245.162, 68.95445
1245.644, 68.24187
1246.126, 68.32436
1246.608, 68.57742
1247.090, 68.73762
1247.572, 68.65398
1248.054, 68.39576
1248.536, 67.97398
1249.019, 66.79149
1249.501, 66.67306
1249.983, 66.17854
1250.465, 65.70294
1250.947, 65.83612
1251.429, 64.94893
1251.911, 65.14444
1252.393, 64.95776
1252.875, 64.99802
1253.358, 64.65952
1253.840, 64.48503
1254.322, 64.76058
1254.804, 64.84241
1255.286, 64.59940
1255.768, 64.86616
1256.250, 64.03990
1256.732, 63.76603
1257.214, 63.31632
1257.697, 62.94540
1258.179, 62.65408
1258.661, 62.44309
1259.143, 62.42699
1259.625, 62.31993
1260.107, 62.02596
1260.589, 61.70586
1261.071, 61.52986
1261.554, 61.42899
1262.036, 61.07754
1262.518, 60.59578
1263.000, 60.38567
1263.482, 60.90670
1263.964, 61.24557
1264.446, 61.33807
1264.928, 61.20989
1265.411, 60.69925
1265.893, 60.08195
1266.375, 59.90519
1266.857, 60.06725
1267.339, 60.28791
1267.821, 60.74362
1268.303, 60.73783
1268.785, 60.15371
1269.267, 59.50129
1269.750, 59.18018
1270.232, 59.03392
1270.714, 58.85013
1271.196, 58.67902
1271.678, 58.66714
1272.160, 58.91042
1272.642, 59.00132
1273.124, 58.91313
1273.606, 58.80909
1274.089, 58.88137
1274.571, 58.91734
1275.053, 58.63421
1275.535, 58.21762
1276.017, 57.99678
1276.499, 58.00745
1276.981, 57.99893
1277.463, 57.96803
1277.946, 58.04230
1278.428, 58.48526
1278.910, 58.85966
1279.392, 58.92722
1279.874, 58.74020
1280.356, 58.23526
1280.838, 57.43839
1281.320, 57.35503
1281.802, 57.90137
1282.285, 58.23648
1282.767, 57.69978
1283.249, 57.12466
1283.731, 56.69527
1284.213, 56.47402
1284.695, 56.64018
1285.177, 57.07610
1285.659, 57.19947
1286.141, 57.06666
1286.624, 56.92702
1287.106, 56.95345
1287.588, 56.86277
1288.070, 56.56143
1288.552, 56.26973
1289.034, 56.16802
1289.516, 56.21177
1289.998, 56.35189
1290.481, 56.54877
1290.963, 56.70363
1291.445, 56.80703
1291.927, 56.81798
1292.409, 56.72202
1292.891, 56.59044
1293.373, 56.47464
1293.855, 56.35242
1294.338, 56.13270
1294.820, 55.90450
1295.302, 55.87202
1295.784, 56.13687
1296.266, 56.15101
1296.748, 55.89509
1297.230, 55.73663
1297.712, 56.01385
1298.194, 56.34145
1298.677, 56.49581
1299.159, 56.45950
1299.641, 56.21055
1300.123, 55.74175
1300.605, 55.29982
1301.087, 54.89085
1301.569, 54.56775
1302.051, 54.31865
1302.533, 54.21848
1303.016, 54.30580
##END=



