##NAMES=Paralaurionite
##RRUFFID=R100178
##IDEAL CHEMISTRY=Pb^2+^Cl(OH)
##LOCALITY=Sierra Gorda, Antofagasta Province, Chile
##OWNER=RRUFF
##SOURCE=Bob Jenkins
##DESCRIPTION=Clear to pale violet melted looking blobs or elongated tabular crystals, associated with clear to white hexagonal prismatic penfieldite, blue tabular pseudoboleite, and colorless tabular gypsum.
##STATUS=The identification of this mineral has been confirmed by single-crystal X-ray diffraction.
##URL=rruff.info/R100178
158.5316, 1429.757
159.0137, 1442.180
159.4958, 1454.238
159.9779, 1467.431
160.4600, 1481.380
160.9422, 1494.835
161.4243, 1506.682
161.9064, 1518.297
162.3885, 1530.522
162.8706, 1543.565
163.3527, 1557.449
163.8349, 1572.015
164.3170, 1587.414
164.7991, 1604.379
165.2812, 1624.260
165.7633, 1645.428
166.2454, 1666.392
166.7276, 1685.927
167.2097, 1705.829
167.6918, 1727.516
168.1739, 1750.693
168.6560, 1774.519
169.1381, 1799.941
169.6203, 1824.630
170.1024, 1834.343
170.5845, 1833.807
171.0666, 1832.282
171.5487, 1832.298
172.0309, 1833.741
172.5130, 1834.764
172.9951, 1834.459
173.4772, 1832.889
173.9593, 1830.106
174.4414, 1826.077
174.9236, 1820.915
175.4057, 1814.209
175.8878, 1805.862
176.3699, 1797.933
176.8520, 1792.364
177.3341, 1788.372
177.8163, 1784.285
178.2984, 1779.781
178.7805, 1774.624
179.2626, 1768.131
179.7447, 1760.298
180.2268, 1752.235
180.7090, 1744.683
181.1911, 1737.785
181.6732, 1732.131
182.1553, 1729.412
182.6374, 1727.950
183.1195, 1723.911
183.6017, 1716.852
184.0838, 1709.035
184.5659, 1702.203
185.0480, 1696.490
185.5301, 1692.345
186.0123, 1691.305
186.4944, 1692.113
186.9765, 1690.624
187.4586, 1686.336
187.9407, 1680.974
188.4228, 1677.018
188.9050, 1674.322
189.3871, 1671.303
189.8692, 1666.706
190.3513, 1660.972
190.8334, 1656.328
191.3155, 1653.068
191.7977, 1650.510
192.2798, 1647.637
192.7619, 1644.463
193.2440, 1641.339
193.7261, 1638.398
194.2082, 1635.667
194.6904, 1633.236
195.1725, 1631.300
195.6546, 1629.350
196.1367, 1626.300
196.6188, 1622.049
197.1009, 1617.908
197.5831, 1614.509
198.0652, 1611.811
198.5473, 1609.630
199.0294, 1607.935
199.5115, 1606.730
199.9937, 1606.141
200.4758, 1606.221
200.9579, 1606.463
201.4400, 1606.561
201.9221, 1606.479
202.4042, 1606.666
202.8864, 1607.413
203.3685, 1608.150
203.8506, 1607.428
204.3327, 1605.033
204.8148, 1602.075
205.2969, 1598.720
205.7791, 1594.678
206.2612, 1592.440
206.7433, 1592.619
207.2254, 1594.310
207.7075, 1595.408
208.1896, 1596.035
208.6718, 1595.740
209.1539, 1593.986
209.6360, 1590.412
210.1181, 1587.096
210.6002, 1583.366
211.0823, 1580.404
211.5645, 1582.681
212.0466, 1593.016
212.5287, 1602.040
213.0108, 1603.863
213.4929, 1596.152
213.9750, 1590.609
214.4572, 1588.089
214.9393, 1588.053
215.4214, 1589.232
215.9035, 1592.498
216.3856, 1595.188
216.8678, 1595.540
217.3499, 1592.599
217.8320, 1590.233
218.3141, 1588.110
218.7962, 1586.762
219.2783, 1588.656
219.7605, 1596.085
220.2426, 1602.452
220.7247, 1603.539
221.2068, 1596.565
221.6889, 1592.433
222.1710, 1593.031
222.6532, 1596.449
223.1353, 1596.246
223.6174, 1590.008
224.0995, 1584.239
224.5816, 1582.636
225.0637, 1587.583
225.5459, 1590.573
226.0280, 1590.709
226.5101, 1588.889
226.9922, 1587.848
227.4743, 1588.033
227.9564, 1588.282
228.4386, 1587.984
228.9207, 1586.819
229.4028, 1585.808
229.8849, 1584.680
230.3670, 1583.754
230.8492, 1584.090
231.3313, 1586.600
231.8134, 1588.979
232.2955, 1590.022
232.7776, 1588.591
233.2597, 1588.521
233.7419, 1590.250
234.2240, 1593.282
234.7061, 1596.298
235.1882, 1599.342
235.6703, 1602.360
236.1524, 1605.480
236.6346, 1609.223
237.1167, 1611.769
237.5988, 1612.352
238.0809, 1612.026
238.5630, 1613.284
239.0451, 1616.537
239.5273, 1620.707
240.0094, 1625.313
240.4915, 1630.120
240.9736, 1636.004
241.4557, 1643.529
241.9378, 1651.861
242.4200, 1659.277
242.9021, 1665.611
243.3842, 1671.350
243.8663, 1676.527
244.3484, 1680.716
244.8306, 1685.520
245.3127, 1690.446
245.7948, 1696.195
246.2769, 1704.217
246.7590, 1715.355
247.2411, 1727.194
247.7233, 1738.937
248.2054, 1750.499
248.6875, 1762.267
249.1696, 1773.483
249.6517, 1785.312
250.1338, 1799.764
250.6160, 1818.036
251.0981, 1836.861
251.5802, 1854.861
252.0623, 1871.671
252.5444, 1890.064
253.0265, 1909.796
253.5087, 1931.205
253.9908, 1954.627
254.4729, 1981.321
254.9550, 2007.763
255.4371, 2032.594
255.9192, 2055.077
256.4014, 2080.136
256.8835, 2108.311
257.3656, 2138.538
257.8477, 2170.627
258.3298, 2205.511
258.8120, 2240.291
259.2941, 2274.109
259.7762, 2306.931
260.2583, 2341.759
260.7404, 2379.718
261.2225, 2418.623
261.7047, 2456.959
262.1868, 2494.129
262.6689, 2532.458
263.1510, 2573.116
263.6331, 2615.665
264.1152, 2658.075
264.5974, 2699.964
265.0795, 2741.885
265.5616, 2783.393
266.0437, 2825.488
266.5258, 2866.211
267.0079, 2905.769
267.4901, 2944.159
267.9722, 2977.815
268.4543, 3006.859
268.9364, 3031.815
269.4185, 3053.495
269.9006, 3072.366
270.3828, 3085.931
270.8649, 3093.130
271.3470, 3094.854
271.8291, 3096.200
272.3112, 3098.487
272.7933, 3096.721
273.2755, 3087.493
273.7576, 3070.629
274.2397, 3047.385
274.7218, 3017.351
275.2039, 2981.410
275.6860, 2942.249
276.1682, 2899.452
276.6503, 2853.631
277.1324, 2804.648
277.6145, 2752.897
278.0966, 2699.025
278.5787, 2642.536
279.0609, 2585.052
279.5430, 2528.351
280.0251, 2472.417
280.5072, 2419.536
280.9893, 2372.068
281.4715, 2330.385
281.9536, 2286.248
282.4357, 2238.069
282.9178, 2189.680
283.3999, 2147.727
283.8820, 2112.344
284.3642, 2079.993
284.8463, 2049.286
285.3284, 2020.061
285.8105, 1992.745
286.2926, 1967.302
286.7747, 1943.158
287.2569, 1919.057
287.7390, 1895.063
288.2211, 1873.403
288.7032, 1855.819
289.1853, 1841.462
289.6674, 1825.715
290.1496, 1808.135
290.6317, 1791.633
291.1138, 1780.471
291.5959, 1773.885
292.0780, 1766.743
292.5602, 1756.505
293.0423, 1744.851
293.5244, 1736.406
294.0065, 1731.336
294.4886, 1726.968
294.9707, 1720.260
295.4529, 1712.029
295.9350, 1705.368
296.4171, 1701.191
296.8992, 1698.817
297.3813, 1697.390
297.8634, 1696.872
298.3456, 1696.786
298.8277, 1697.253
299.3098, 1697.868
299.7919, 1697.367
300.2740, 1694.602
300.7561, 1692.228
301.2383, 1694.326
301.7204, 1700.190
302.2025, 1706.504
302.6846, 1710.939
303.1667, 1714.600
303.6488, 1719.132
304.1310, 1724.661
304.6131, 1731.337
305.0952, 1739.855
305.5773, 1749.672
306.0594, 1759.284
306.5415, 1767.226
307.0237, 1774.940
307.5058, 1783.645
307.9879, 1793.222
308.4700, 1805.100
308.9521, 1821.782
309.4343, 1841.416
309.9164, 1861.072
310.3985, 1879.155
310.8806, 1897.191
311.3627, 1915.777
311.8448, 1935.091
312.3270, 1956.536
312.8091, 1982.463
313.2912, 2010.557
313.7733, 2038.089
314.2554, 2062.812
314.7375, 2087.838
315.2197, 2114.938
315.7018, 2144.132
316.1839, 2173.431
316.6660, 2201.292
317.1481, 2229.392
317.6302, 2258.745
318.1124, 2289.748
318.5945, 2322.048
319.0766, 2355.743
319.5587, 2390.788
320.0408, 2427.488
320.5229, 2466.262
321.0051, 2506.479
321.4872, 2547.948
321.9693, 2590.130
322.4514, 2633.637
322.9335, 2679.130
323.4156, 2725.966
323.8978, 2772.910
324.3799, 2820.422
324.8620, 2867.431
325.3441, 2914.550
325.8262, 2963.072
326.3083, 3006.231
326.7905, 3045.539
327.2726, 3078.695
327.7547, 3102.407
328.2368, 3114.480
328.7189, 3119.596
329.2010, 3119.619
329.6832, 3115.176
330.1653, 3099.270
330.6474, 3070.730
331.1295, 3031.611
331.6116, 2982.599
332.0938, 2917.724
332.5759, 2852.138
333.0580, 2788.319
333.5401, 2725.394
334.0222, 2661.190
334.5043, 2593.332
334.9865, 2526.700
335.4686, 2463.378
335.9507, 2403.031
336.4328, 2346.550
336.9149, 2294.046
337.3970, 2244.591
337.8792, 2197.632
338.3613, 2152.477
338.8434, 2109.864
339.3255, 2069.301
339.8076, 2030.289
340.2898, 1996.843
340.7719, 1969.832
341.2540, 1946.439
341.7361, 1921.438
342.2182, 1894.851
342.7003, 1870.662
343.1825, 1851.365
343.6646, 1836.001
344.1467, 1818.856
344.6288, 1799.232
345.1109, 1780.561
345.5930, 1766.686
346.0752, 1757.319
346.5573, 1747.836
347.0394, 1736.936
347.5215, 1725.290
348.0036, 1713.754
348.4857, 1702.389
348.9679, 1691.955
349.4500, 1683.278
349.9321, 1675.897
350.4142, 1668.447
350.8963, 1660.534
351.3784, 1652.868
351.8606, 1646.830
352.3427, 1642.076
352.8248, 1637.185
353.3069, 1630.622
353.7890, 1623.811
354.2711, 1618.904
354.7533, 1616.275
355.2354, 1613.869
355.7175, 1610.386
356.1996, 1605.913
356.6817, 1600.596
357.1638, 1592.606
357.6460, 1585.168
358.1281, 1581.521
358.6102, 1581.367
359.0923, 1580.549
359.5744, 1576.092
360.0565, 1570.118
360.5387, 1564.654
361.0208, 1560.124
361.5029, 1556.363
361.9850, 1553.760
362.4671, 1551.977
362.9492, 1550.004
363.4314, 1546.883
363.9135, 1543.927
364.3956, 1541.993
364.8777, 1541.779
365.3598, 1541.201
365.8419, 1539.782
366.3241, 1537.759
366.8062, 1535.486
367.2883, 1532.215
367.7704, 1529.461
368.2526, 1527.978
368.7347, 1528.168
369.2168, 1527.253
369.6989, 1523.745
370.1810, 1520.001
370.6631, 1517.965
371.1453, 1518.896
371.6274, 1519.696
372.1095, 1520.280
372.5916, 1520.530
373.0737, 1519.525
373.5558, 1516.327
374.0380, 1513.243
374.5201, 1511.698
375.0022, 1512.398
375.4843, 1512.279
375.9664, 1510.991
376.4485, 1509.059
376.9307, 1507.490
377.4128, 1506.376
377.8949, 1505.273
378.3770, 1503.902
378.8591, 1502.300
379.3412, 1501.307
379.8234, 1501.058
380.3055, 1500.958
380.7876, 1500.567
381.2697, 1499.859
381.7518, 1498.324
382.2339, 1495.616
382.7161, 1492.194
383.1982, 1488.768
383.6803, 1485.393
384.1624, 1482.693
384.6445, 1480.940
385.1266, 1480.251
385.6088, 1481.356
386.0909, 1484.913
386.5730, 1488.546
387.0551, 1489.535
387.5372, 1488.321
388.0193, 1486.154
388.5015, 1482.807
388.9836, 1479.304
389.4657, 1476.781
389.9478, 1475.309
390.4299, 1474.256
390.9120, 1473.528
391.3942, 1472.853
391.8763, 1471.907
392.3584, 1470.178
392.8405, 1468.531
393.3226, 1467.609
393.8047, 1467.227
394.2869, 1466.535
394.7690, 1464.104
395.2511, 1462.012
395.7332, 1461.791
396.2154, 1465.035
396.6975, 1467.318
397.1796, 1466.884
397.6617, 1465.057
398.1438, 1464.112
398.6259, 1465.600
399.1081, 1466.763
399.5902, 1466.670
400.0723, 1465.076
400.5544, 1463.790
401.0365, 1462.659
401.5186, 1461.910
402.0008, 1461.832
402.4829, 1463.123
402.9650, 1463.665
403.4471, 1462.868
403.9292, 1461.133
404.4113, 1460.267
404.8935, 1460.612
405.3756, 1461.029
405.8577, 1460.853
406.3398, 1459.970
406.8219, 1459.588
407.3040, 1460.031
407.7862, 1460.426
408.2683, 1459.059
408.7504, 1455.869
409.2325, 1453.583
409.7146, 1453.597
410.1967, 1455.149
410.6789, 1455.540
411.1610, 1454.748
411.6431, 1453.844
412.1252, 1453.634
412.6073, 1454.046
413.0894, 1454.886
413.5716, 1456.114
414.0537, 1457.718
414.5358, 1460.148
415.0179, 1463.024
415.5000, 1465.206
415.9821, 1465.679
416.4643, 1465.285
416.9464, 1464.801
417.4285, 1464.260
417.9106, 1463.622
418.3927, 1462.854
418.8748, 1461.941
419.3570, 1460.885
419.8391, 1458.590
420.3212, 1457.193
420.8033, 1458.109
421.2854, 1460.891
421.7675, 1463.412
422.2497, 1465.398
422.7318, 1466.712
423.2139, 1467.197
423.6960, 1466.510
424.1781, 1465.787
424.6602, 1464.880
425.1424, 1464.111
425.6245, 1463.945
426.1066, 1464.498
426.5887, 1465.523
427.0709, 1467.175
427.5530, 1469.444
428.0351, 1471.152
428.5172, 1472.084
428.9993, 1472.743
429.4814, 1473.583
429.9636, 1474.827
430.4457, 1475.238
430.9278, 1474.381
431.4099, 1472.956
431.8920, 1472.462
432.3741, 1472.946
432.8563, 1473.961
433.3384, 1475.848
433.8205, 1478.293
434.3026, 1478.760
434.7847, 1477.041
435.2668, 1475.026
435.7490, 1474.662
436.2311, 1475.617
436.7132, 1476.734
437.1953, 1477.685
437.6774, 1478.695
438.1595, 1480.420
438.6417, 1482.611
439.1238, 1484.234
439.6059, 1484.115
440.0880, 1483.404
440.5701, 1483.548
441.0522, 1484.900
441.5344, 1485.764
442.0165, 1484.579
442.4986, 1482.462
442.9807, 1480.779
443.4628, 1479.792
443.9449, 1479.504
444.4271, 1480.377
444.9092, 1482.145
445.3913, 1483.361
445.8734, 1483.036
446.3555, 1482.514
446.8376, 1482.456
447.3198, 1483.116
447.8019, 1483.827
448.2840, 1484.748
448.7661, 1485.624
449.2482, 1486.120
449.7303, 1486.313
450.2125, 1485.982
450.6946, 1484.971
451.1767, 1483.327
451.6588, 1481.522
452.1409, 1479.071
452.6230, 1477.564
453.1052, 1478.956
453.5873, 1483.656
454.0694, 1485.608
454.5515, 1483.719
455.0337, 1480.205
455.5158, 1478.753
455.9979, 1479.231
456.4800, 1479.945
456.9621, 1480.000
457.4442, 1479.840
457.9264, 1480.756
458.4085, 1482.704
458.8906, 1484.547
459.3727, 1485.397
459.8548, 1485.525
460.3369, 1485.226
460.8191, 1484.306
461.3012, 1483.622
461.7833, 1484.004
462.2654, 1485.137
462.7475, 1486.352
463.2296, 1487.375
463.7118, 1488.401
464.1939, 1489.470
464.6760, 1490.584
465.1581, 1491.928
465.6402, 1494.403
466.1223, 1496.572
466.6045, 1497.378
467.0866, 1494.870
467.5687, 1493.178
468.0508, 1492.268
468.5329, 1492.314
469.0150, 1493.971
469.4972, 1499.244
469.9793, 1503.025
470.4614, 1503.205
470.9435, 1499.548
471.4256, 1497.155
471.9077, 1496.015
472.3899, 1496.208
472.8720, 1498.412
473.3541, 1502.943
473.8362, 1506.155
474.3183, 1507.527
474.8004, 1507.436
475.2826, 1505.849
475.7647, 1502.931
476.2468, 1501.046
476.7289, 1502.010
477.2110, 1504.730
477.6931, 1506.967
478.1753, 1508.701
478.6574, 1509.906
479.1395, 1510.747
479.6216, 1510.992
480.1037, 1510.109
480.5858, 1507.212
481.0680, 1504.575
481.5501, 1504.075
482.0322, 1504.980
482.5143, 1505.765
482.9964, 1505.369
483.4786, 1505.152
483.9607, 1506.010
484.4428, 1508.098
484.9249, 1509.706
485.4070, 1509.393
485.8892, 1509.184
486.3713, 1510.618
486.8534, 1516.699
487.3355, 1519.896
487.8176, 1518.465
488.2997, 1514.563
488.7819, 1512.793
489.2640, 1513.834
489.7461, 1515.493
490.2282, 1517.368
490.7103, 1519.389
491.1924, 1519.987
491.6746, 1518.824
492.1567, 1517.582
492.6388, 1517.842
493.1209, 1519.439
493.6030, 1520.954
494.0851, 1522.233
494.5673, 1523.289
495.0494, 1524.148
495.5315, 1524.802
496.0136, 1525.207
496.4957, 1524.917
496.9778, 1524.635
497.4600, 1525.506
497.9421, 1527.380
498.4242, 1528.733
498.9063, 1528.260
499.3884, 1527.114
499.8705, 1526.249
500.3527, 1525.868
500.8348, 1525.763
501.3169, 1526.498
501.7990, 1527.309
502.2811, 1527.120
502.7632, 1523.753
503.2454, 1521.525
503.7275, 1522.148
504.2096, 1525.259
504.6917, 1526.647
505.1738, 1524.777
505.6559, 1523.282
506.1381, 1524.491
506.6202, 1529.586
507.1023, 1532.424
507.5844, 1532.313
508.0665, 1531.229
508.5486, 1532.200
509.0308, 1535.301
509.5129, 1537.086
509.9950, 1536.075
510.4771, 1533.761
510.9592, 1533.283
511.4413, 1534.520
511.9235, 1536.466
512.4056, 1539.272
512.8877, 1542.053
513.3698, 1543.279
513.8519, 1542.735
514.3340, 1542.019
514.8162, 1541.771
515.2983, 1542.216
515.7804, 1543.724
516.2625, 1548.042
516.7446, 1551.396
517.2267, 1551.600
517.7089, 1549.723
518.1910, 1548.349
518.6731, 1548.225
519.1552, 1548.554
519.6373, 1549.272
520.1194, 1550.465
520.6016, 1551.084
521.0837, 1550.384
521.5658, 1549.904
522.0479, 1551.086
522.5300, 1554.814
523.0121, 1556.678
523.4943, 1555.762
523.9764, 1553.669
524.4585, 1553.278
524.9406, 1554.622
525.4227, 1556.284
525.9048, 1557.770
526.3870, 1559.224
526.8691, 1561.281
527.3513, 1563.889
527.8334, 1566.105
528.3155, 1567.384
528.7976, 1567.828
529.2797, 1567.391
529.7618, 1565.926
530.2440, 1564.482
530.7261, 1563.383
531.2082, 1562.869
531.6903, 1563.261
532.1724, 1564.997
532.6545, 1567.285
533.1367, 1570.286
533.6188, 1573.714
534.1009, 1576.685
534.5830, 1579.872
535.0651, 1581.740
535.5472, 1581.332
536.0294, 1578.152
536.5115, 1576.334
536.9936, 1576.304
537.4757, 1577.052
537.9578, 1577.863
538.4399, 1578.796
538.9221, 1579.384
539.4042, 1579.389
539.8863, 1579.371
540.3684, 1580.849
540.8505, 1583.619
541.3326, 1585.215
541.8148, 1583.638
542.2969, 1580.865
542.7790, 1580.641
543.2611, 1582.711
543.7432, 1584.969
544.2253, 1585.467
544.7075, 1585.713
545.1896, 1587.470
545.6717, 1591.245
546.1538, 1595.015
546.6359, 1598.688
547.1180, 1601.480
547.6002, 1602.504
548.0823, 1598.822
548.5644, 1596.500
549.0465, 1597.430
549.5286, 1600.530
550.0107, 1602.645
550.4929, 1603.128
550.9750, 1603.544
551.4571, 1604.168
551.9392, 1604.996
552.4213, 1607.347
552.9034, 1611.879
553.3856, 1615.899
553.8677, 1616.578
554.3498, 1614.266
554.8319, 1613.425
555.3140, 1614.736
555.7961, 1616.696
556.2783, 1616.919
556.7604, 1616.158
557.2425, 1616.624
557.7246, 1620.223
558.2067, 1624.295
558.6888, 1625.984
559.1710, 1625.901
559.6531, 1626.062
560.1352, 1627.508
560.6173, 1629.462
561.0994, 1631.786
561.5815, 1634.635
562.0637, 1636.405
562.5458, 1635.796
563.0279, 1634.620
563.5100, 1634.125
563.9921, 1633.797
564.4742, 1635.125
564.9564, 1638.642
565.4385, 1643.376
565.9206, 1647.877
566.4027, 1652.180
566.8848, 1655.675
567.3669, 1657.659
567.8491, 1658.942
568.3312, 1662.877
568.8133, 1669.305
569.2954, 1674.456
569.7775, 1674.831
570.2596, 1672.553
570.7418, 1671.246
571.2239, 1671.123
571.7060, 1671.855
572.1881, 1673.635
572.6702, 1675.937
573.1523, 1678.219
573.6345, 1680.333
574.1166, 1682.405
574.5987, 1684.628
575.0808, 1686.790
575.5629, 1688.576
576.0450, 1689.198
576.5272, 1690.220
577.0093, 1691.964
577.4914, 1694.351
577.9735, 1697.070
578.4556, 1700.533
578.9377, 1703.458
579.4199, 1705.087
579.9020, 1705.389
580.3841, 1705.782
580.8662, 1706.216
581.3483, 1707.101
581.8304, 1708.974
582.3126, 1711.660
582.7947, 1714.754
583.2768, 1718.511
583.7589, 1721.646
584.2410, 1721.229
584.7231, 1719.288
585.2053, 1719.848
585.6874, 1727.007
586.1696, 1734.836
586.6517, 1740.715
587.1338, 1744.661
587.6159, 1747.026
588.0980, 1746.518
588.5801, 1745.598
589.0623, 1745.292
589.5444, 1745.711
590.0265, 1745.956
590.5086, 1745.671
590.9907, 1745.696
591.4728, 1746.982
591.9550, 1749.896
592.4371, 1751.781
592.9192, 1752.297
593.4013, 1752.174
593.8834, 1752.615
594.3655, 1753.477
594.8477, 1753.659
595.3298, 1752.590
595.8119, 1750.992
596.2940, 1749.540
596.7761, 1748.325
597.2582, 1747.605
597.7404, 1747.651
598.2225, 1748.097
598.7046, 1748.893
599.1867, 1749.989
599.6688, 1750.591
600.1509, 1750.603
600.6331, 1749.895
601.1152, 1748.264
601.5973, 1745.146
602.0794, 1742.339
602.5615, 1739.509
603.0436, 1737.330
603.5258, 1737.066
604.0079, 1739.362
604.4900, 1740.097
604.9721, 1738.344
605.4542, 1735.167
605.9363, 1731.748
606.4185, 1728.385
606.9006, 1727.466
607.3827, 1733.194
607.8648, 1740.099
608.3469, 1738.537
608.8290, 1729.957
609.3112, 1722.571
609.7933, 1722.395
610.2754, 1724.402
610.7575, 1724.595
611.2396, 1722.188
611.7217, 1720.622
612.2039, 1722.497
612.6860, 1724.502
613.1681, 1723.991
613.6502, 1718.501
614.1323, 1714.718
614.6144, 1713.464
615.0966, 1713.278
615.5787, 1711.861
616.0608, 1708.939
616.5429, 1706.680
617.0250, 1705.853
617.5071, 1705.718
617.9893, 1704.638
618.4714, 1702.699
618.9535, 1700.531
619.4356, 1698.473
619.9177, 1696.357
620.3998, 1693.264
620.8820, 1689.477
621.3641, 1687.404
621.8462, 1690.135
622.3283, 1693.870
622.8104, 1695.868
623.2925, 1695.548
623.7747, 1694.443
624.2568, 1691.121
624.7389, 1688.169
625.2210, 1687.888
625.7031, 1692.332
626.1852, 1694.740
626.6674, 1694.048
627.1495, 1691.947
627.6316, 1691.216
628.1137, 1691.904
628.5958, 1692.804
629.0779, 1693.781
629.5601, 1694.553
630.0422, 1694.482
630.5243, 1693.684
631.0064, 1692.626
631.4885, 1691.323
631.9706, 1690.082
632.4528, 1688.814
632.9349, 1687.661
633.4170, 1687.812
633.8991, 1692.234
634.3812, 1696.292
634.8633, 1696.691
635.3455, 1691.202
635.8276, 1688.197
636.3097, 1688.865
636.7918, 1691.149
637.2739, 1693.470
637.7560, 1695.822
638.2382, 1698.170
638.7203, 1700.682
639.2024, 1702.731
639.6845, 1702.749
640.1666, 1701.058
640.6487, 1700.580
641.1309, 1702.752
641.6130, 1705.705
642.0951, 1706.656
642.5772, 1706.193
643.0594, 1705.970
643.5415, 1707.063
644.0236, 1708.403
644.5057, 1709.528
644.9879, 1710.412
645.4700, 1710.908
645.9521, 1710.993
646.4342, 1710.741
646.9163, 1710.276
647.3984, 1709.383
647.8806, 1708.532
648.3627, 1706.712
648.8448, 1704.694
649.3269, 1702.555
649.8090, 1700.327
650.2911, 1699.397
650.7733, 1699.976
651.2554, 1701.379
651.7375, 1703.083
652.2196, 1704.965
652.7017, 1706.754
653.1838, 1708.441
653.6660, 1709.823
654.1481, 1710.344
654.6302, 1710.469
655.1123, 1711.045
655.5944, 1713.414
656.0765, 1715.072
656.5587, 1714.393
657.0408, 1712.080
657.5229, 1711.542
658.0050, 1713.444
658.4871, 1715.982
658.9692, 1718.797
659.4514, 1721.787
659.9335, 1723.859
660.4156, 1724.952
660.8977, 1725.588
661.3798, 1726.203
661.8619, 1726.639
662.3441, 1726.238
662.8262, 1724.947
663.3083, 1723.867
663.7904, 1724.646
664.2725, 1725.766
664.7546, 1725.302
665.2368, 1722.031
665.7189, 1719.557
666.2010, 1719.370
666.6831, 1720.497
667.1652, 1721.889
667.6473, 1723.987
668.1295, 1725.540
668.6116, 1726.334
669.0937, 1726.680
669.5758, 1727.069
670.0579, 1727.475
670.5400, 1728.251
671.0222, 1729.742
671.5043, 1731.364
671.9864, 1731.865
672.4685, 1731.363
672.9506, 1730.531
673.4327, 1728.772
673.9149, 1727.510
674.3970, 1728.195
674.8791, 1730.667
675.3612, 1733.609
675.8433, 1738.061
676.3254, 1741.563
676.8076, 1742.266
677.2897, 1739.423
677.7718, 1738.304
678.2539, 1739.692
678.7360, 1741.799
679.2181, 1743.544
679.7003, 1744.916
680.1824, 1746.232
680.6645, 1747.516
681.1466, 1748.744
681.6287, 1749.463
682.1108, 1750.094
682.5930, 1752.039
683.0751, 1755.996
683.5572, 1759.808
684.0393, 1761.639
684.5214, 1762.160
685.0035, 1762.362
685.4857, 1762.263
685.9678, 1762.162
686.4499, 1761.549
686.9320, 1761.056
687.4141, 1762.132
687.8962, 1765.827
688.3784, 1769.120
688.8605, 1771.345
689.3426, 1772.728
689.8247, 1773.975
690.3068, 1775.115
690.7889, 1776.059
691.2711, 1776.704
691.7532, 1777.175
692.2353, 1777.978
692.7174, 1778.957
693.1995, 1779.156
693.6816, 1777.084
694.1638, 1774.684
694.6459, 1773.131
695.1280, 1772.515
695.6101, 1773.386
696.0922, 1777.862
696.5743, 1782.237
697.0565, 1784.471
697.5386, 1784.063
698.0207, 1783.610
698.5028, 1782.767
698.9849, 1782.671
699.4670, 1784.916
699.9492, 1789.219
700.4313, 1792.510
700.9135, 1794.295
701.3956, 1795.624
701.8777, 1797.640
702.3598, 1799.926
702.8419, 1801.812
703.3240, 1803.131
703.8062, 1803.868
704.2883, 1802.777
704.7704, 1801.412
705.2525, 1802.070
705.7346, 1807.274
706.2167, 1811.836
706.6989, 1815.357
707.1810, 1817.934
707.6631, 1819.652
708.1452, 1820.400
708.6273, 1820.973
709.1094, 1821.588
709.5916, 1822.254
710.0737, 1822.995
710.5558, 1823.804
711.0379, 1824.622
711.5200, 1825.194
712.0021, 1825.912
712.4843, 1827.206
712.9664, 1828.977
713.4485, 1830.774
713.9306, 1832.227
714.4127, 1833.790
714.8948, 1835.915
715.3770, 1838.638
715.8591, 1840.190
716.3412, 1840.047
716.8233, 1839.770
717.3054, 1840.334
717.7875, 1841.705
718.2697, 1842.624
718.7518, 1843.082
719.2339, 1843.506
719.7160, 1844.590
720.1981, 1845.786
720.6802, 1845.810
721.1624, 1844.336
721.6445, 1843.795
722.1266, 1846.803
722.6087, 1850.685
723.0908, 1853.069
723.5729, 1852.620
724.0551, 1852.574
724.5372, 1853.456
725.0193, 1854.453
725.5014, 1854.737
725.9835, 1854.227
726.4656, 1853.276
726.9478, 1851.565
727.4299, 1850.352
727.9120, 1852.203
728.3941, 1856.117
728.8762, 1858.904
729.3583, 1859.688
729.8405, 1859.051
730.3226, 1855.795
730.8047, 1851.795
731.2868, 1850.241
731.7689, 1855.133
732.2510, 1858.984
732.7332, 1859.739
733.2153, 1858.449
733.6974, 1857.019
734.1795, 1855.409
734.6616, 1853.741
735.1437, 1851.879
735.6259, 1850.148
736.1080, 1849.344
736.5901, 1849.450
737.0722, 1850.401
737.5543, 1853.294
738.0364, 1856.124
738.5186, 1856.083
739.0007, 1853.844
739.4828, 1851.844
739.9649, 1851.970
740.4470, 1851.765
740.9291, 1849.692
741.4113, 1845.927
741.8934, 1843.338
742.3755, 1842.299
742.8576, 1841.848
743.3397, 1841.982
743.8218, 1842.491
744.3040, 1841.094
744.7861, 1837.755
745.2682, 1834.739
745.7503, 1834.376
746.2324, 1834.989
746.7145, 1833.415
747.1967, 1829.720
747.6788, 1826.819
748.1609, 1827.092
748.6430, 1828.099
749.1251, 1828.204
749.6072, 1827.009
750.0894, 1826.246
750.5715, 1826.700
751.0536, 1826.678
751.5357, 1824.675
752.0178, 1820.372
752.4999, 1818.315
752.9821, 1818.814
753.4642, 1819.540
753.9463, 1817.547
754.4284, 1814.368
754.9105, 1813.546
755.3926, 1815.783
755.8748, 1817.546
756.3569, 1815.826
756.8390, 1813.008
757.3211, 1811.332
757.8032, 1812.243
758.2853, 1811.775
758.7675, 1809.168
759.2496, 1805.688
759.7318, 1802.091
760.2139, 1798.192
760.6960, 1796.136
761.1781, 1796.432
761.6602, 1797.514
762.1423, 1797.664
762.6245, 1797.116
763.1066, 1796.212
763.5887, 1794.722
764.0708, 1794.019
764.5529, 1796.142
765.0350, 1799.167
765.5172, 1800.803
765.9993, 1799.551
766.4814, 1798.155
766.9635, 1796.786
767.4456, 1795.316
767.9277, 1793.497
768.4099, 1791.197
768.8920, 1789.126
769.3741, 1787.345
769.8562, 1785.893
770.3383, 1785.259
770.8204, 1784.992
771.3026, 1783.673
771.7847, 1779.937
772.2668, 1776.835
772.7489, 1777.164
773.2310, 1779.333
773.7131, 1780.822
774.1953, 1781.330
774.6774, 1780.824
775.1595, 1778.859
775.6416, 1776.223
776.1237, 1774.409
776.6058, 1773.545
777.0880, 1772.402
777.5701, 1770.421
778.0522, 1768.504
778.5343, 1768.252
779.0164, 1769.324
779.4985, 1770.830
779.9807, 1773.220
780.4628, 1774.866
780.9449, 1773.740
781.4270, 1771.238
781.9091, 1770.268
782.3912, 1774.376
782.8734, 1776.127
783.3555, 1773.188
783.8376, 1767.894
784.3197, 1766.546
784.8018, 1769.539
785.2839, 1771.755
785.7661, 1771.545
786.2482, 1769.818
786.7303, 1767.893
787.2124, 1765.701
787.6945, 1762.990
788.1766, 1758.459
788.6588, 1754.576
789.1409, 1752.086
789.6230, 1751.155
790.1051, 1752.373
790.5872, 1758.692
791.0693, 1762.403
791.5515, 1760.918
792.0336, 1756.391
792.5157, 1755.289
792.9978, 1757.635
793.4799, 1760.027
793.9620, 1761.554
794.4442, 1762.072
794.9263, 1760.490
795.4084, 1757.669
795.8905, 1755.987
796.3726, 1757.080
796.8547, 1758.910
797.3369, 1761.678
797.8190, 1764.542
798.3011, 1764.732
798.7832, 1760.262
799.2653, 1757.015
799.7474, 1756.691
800.2296, 1758.274
800.7117, 1759.234
801.1938, 1759.566
801.6759, 1759.182
802.1580, 1757.396
802.6401, 1755.603
803.1223, 1755.847
803.6044, 1757.425
804.0865, 1758.465
804.5686, 1757.869
805.0507, 1757.151
805.5328, 1757.195
806.0150, 1757.483
806.4971, 1756.303
806.9792, 1752.856
807.4613, 1750.600
807.9434, 1750.705
808.4255, 1752.330
808.9077, 1753.991
809.3898, 1755.554
809.8719, 1756.461
810.3540, 1756.428
810.8361, 1755.633
811.3182, 1753.329
811.8004, 1750.390
812.2825, 1748.861
812.7646, 1750.885
813.2467, 1752.371
813.7288, 1752.351
814.2109, 1751.409
814.6931, 1751.193
815.1752, 1751.882
815.6573, 1751.674
816.1394, 1749.585
816.6215, 1747.137
817.1037, 1746.883
817.5858, 1748.349
818.0679, 1750.266
818.5500, 1752.636
819.0322, 1754.733
819.5143, 1756.383
819.9964, 1757.430
820.4785, 1757.424
820.9606, 1755.737
821.4427, 1754.094
821.9249, 1752.522
822.4070, 1751.322
822.8891, 1751.426
823.3712, 1752.701
823.8533, 1753.804
824.3354, 1754.713
824.8176, 1754.606
825.2997, 1751.082
825.7818, 1746.228
826.2639, 1743.676
826.7460, 1747.408
827.2281, 1750.216
827.7103, 1749.276
828.1924, 1747.107
828.6745, 1747.287
829.1566, 1750.728
829.6387, 1752.685
830.1208, 1752.137
830.6030, 1750.568
831.0851, 1749.975
831.5672, 1750.198
832.0493, 1751.055
832.5314, 1752.970
833.0135, 1754.175
833.4957, 1752.594
833.9778, 1749.984
834.4599, 1748.386
834.9420, 1749.118
835.4241, 1749.704
835.9063, 1750.191
836.3884, 1750.523
836.8705, 1750.817
837.3526, 1751.064
837.8347, 1749.859
838.3168, 1746.629
838.7990, 1744.128
839.2811, 1746.085
839.7632, 1750.177
840.2453, 1753.126
840.7274, 1753.937
841.2095, 1754.814
841.6917, 1757.726
842.1738, 1760.037
842.6559, 1759.372
843.1380, 1754.125
843.6201, 1751.824
844.1022, 1753.011
844.5844, 1755.288
845.0665, 1756.926
845.5486, 1757.853
846.0307, 1757.720
846.5128, 1756.506
846.9949, 1754.840
847.4771, 1752.277
847.9592, 1750.078
848.4413, 1749.206
848.9234, 1749.894
849.4055, 1751.577
849.8876, 1755.053
850.3698, 1758.095
850.8519, 1758.981
851.3340, 1757.950
851.8161, 1758.279
852.2982, 1759.943
852.7803, 1761.917
853.2625, 1763.593
853.7446, 1765.069
854.2267, 1767.041
854.7088, 1769.319
855.1909, 1769.733
855.6730, 1765.184
856.1552, 1761.177
856.6373, 1760.143
857.1194, 1761.651
857.6015, 1761.926
858.0836, 1760.828
858.5657, 1759.696
859.0479, 1758.983
859.5300, 1758.779
860.0121, 1759.670
860.4942, 1761.306
860.9763, 1762.414
861.4584, 1762.066
861.9406, 1761.331
862.4227, 1759.892
862.9048, 1758.432
863.3869, 1759.347
863.8690, 1764.242
864.3511, 1767.333
864.8333, 1766.655
865.3154, 1764.218
865.7975, 1764.639
866.2796, 1767.197
866.7617, 1768.619
867.2438, 1766.654
867.7260, 1765.057
868.2081, 1767.879
868.6902, 1772.566
869.1723, 1775.180
869.6544, 1773.234
870.1365, 1771.451
870.6187, 1769.966
871.1008, 1768.876
871.5829, 1768.383
872.0650, 1768.484
872.5471, 1768.948
873.0292, 1769.787
873.5114, 1770.824
873.9935, 1772.150
874.4756, 1773.455
874.9577, 1774.354
875.4399, 1774.781
875.9220, 1774.811
876.4041, 1774.368
876.8862, 1773.601
877.3683, 1772.321
877.8505, 1770.213
878.3326, 1769.928
878.8147, 1771.667
879.2968, 1773.618
879.7789, 1774.089
880.2610, 1773.765
880.7432, 1774.057
881.2253, 1774.991
881.7074, 1774.941
882.1895, 1771.273
882.6716, 1768.122
883.1537, 1768.219
883.6359, 1771.356
884.1180, 1773.758
884.6001, 1775.599
885.0822, 1776.045
885.5643, 1773.924
886.0464, 1770.592
886.5286, 1769.392
887.0107, 1769.949
887.4928, 1770.698
887.9749, 1770.496
888.4570, 1770.574
888.9391, 1772.333
889.4213, 1774.876
889.9034, 1775.183
890.3855, 1771.709
890.8676, 1769.596
891.3497, 1770.168
891.8318, 1772.174
892.3140, 1773.358
892.7961, 1773.922
893.2782, 1774.679
893.7603, 1775.926
894.2424, 1777.286
894.7245, 1778.813
895.2067, 1780.132
895.6888, 1780.785
896.1709, 1780.300
896.6530, 1779.755
897.1351, 1779.147
897.6172, 1778.494
898.0994, 1777.657
898.5815, 1776.730
899.0636, 1776.121
899.5457, 1775.815
900.0278, 1777.048
900.5099, 1783.716
900.9921, 1790.501
901.4742, 1791.530
901.9563, 1785.096
902.4384, 1781.710
902.9205, 1784.630
903.4026, 1787.663
903.8848, 1787.258
904.3669, 1784.140
904.8490, 1785.473
905.3311, 1791.038
905.8132, 1795.290
906.2953, 1793.760
906.7775, 1790.154
907.2596, 1787.425
907.7417, 1785.693
908.2238, 1785.113
908.7059, 1787.791
909.1880, 1788.964
909.6702, 1786.797
910.1523, 1783.091
910.6344, 1782.481
911.1165, 1784.900
911.5986, 1786.815
912.0807, 1787.180
912.5629, 1786.914
913.0450, 1786.916
913.5271, 1787.032
914.0092, 1786.966
914.4913, 1786.041
914.9734, 1786.084
915.4556, 1788.292
915.9377, 1790.667
916.4198, 1791.009
916.9019, 1789.101
917.3840, 1789.432
917.8661, 1792.496
918.3483, 1795.294
918.8304, 1794.985
919.3125, 1792.939
919.7946, 1790.263
920.2767, 1787.090
920.7589, 1785.321
921.2410, 1786.822
921.7231, 1788.516
922.2052, 1788.810
922.6873, 1788.076
923.1694, 1790.408
923.6516, 1795.908
924.1337, 1799.832
924.6158, 1798.605
925.0979, 1795.506
925.5800, 1794.263
926.0621, 1794.635
926.5443, 1796.034
927.0264, 1800.970
927.5085, 1803.328
927.9906, 1800.371
928.4727, 1795.394
928.9548, 1794.066
929.4370, 1796.528
929.9191, 1798.912
930.4012, 1800.581
930.8833, 1801.883
931.3654, 1803.668
931.8475, 1805.112
932.3297, 1804.618
932.8118, 1800.811
933.2939, 1799.058
933.7761, 1802.734
934.2582, 1806.632
934.7403, 1807.350
935.2224, 1804.766
935.7045, 1804.322
936.1866, 1806.100
936.6688, 1807.406
937.1509, 1805.472
937.6330, 1802.670
938.1151, 1801.953
938.5972, 1802.978
939.0793, 1803.558
939.5615, 1802.852
940.0436, 1801.880
940.5257, 1800.739
941.0078, 1799.656
941.4899, 1799.315
941.9720, 1799.700
942.4542, 1800.250
942.9363, 1800.904
943.4184, 1801.391
943.9005, 1800.748
944.3826, 1799.978
944.8647, 1800.631
945.3469, 1804.848
945.8290, 1806.847
946.3111, 1804.875
946.7932, 1802.289
947.2753, 1802.230
947.7574, 1804.538
948.2396, 1805.837
948.7217, 1806.019
949.2038, 1805.836
949.6859, 1806.118
950.1680, 1806.152
950.6501, 1804.627
951.1323, 1801.708
951.6144, 1801.065
952.0965, 1804.827
952.5786, 1807.936
953.0607, 1808.789
953.5428, 1807.979
954.0250, 1806.776
954.5071, 1805.352
954.9892, 1804.764
955.4713, 1805.367
955.9534, 1806.996
956.4355, 1811.141
956.9177, 1815.627
957.3998, 1817.205
957.8819, 1813.228
958.3640, 1810.733
958.8461, 1810.173
959.3282, 1810.508
959.8104, 1810.841
960.2925, 1811.173
960.7746, 1811.217
961.2567, 1810.970
961.7388, 1811.586
962.2209, 1815.577
962.7031, 1819.202
963.1852, 1818.714
963.6673, 1814.415
964.1494, 1814.657
964.6315, 1821.255
965.1136, 1825.909
965.5958, 1824.650
966.0779, 1820.413
966.5600, 1818.758
967.0421, 1819.180
967.5242, 1820.417
968.0063, 1823.131
968.4885, 1824.983
968.9706, 1824.047
969.4527, 1822.384
969.9348, 1822.846
970.4169, 1826.345
970.8990, 1826.932
971.3812, 1823.725
971.8633, 1820.676
972.3454, 1822.681
972.8275, 1826.900
973.3096, 1829.185
973.7917, 1829.137
974.2739, 1828.705
974.7560, 1828.617
975.2381, 1828.131
975.7202, 1826.480
976.2023, 1824.216
976.6844, 1824.510
977.1666, 1827.339
977.6487, 1829.749
978.1308, 1830.476
978.6129, 1830.394
979.0950, 1830.406
979.5771, 1830.260
980.0593, 1829.530
980.5414, 1825.098
981.0235, 1824.947
981.5056, 1831.478
981.9877, 1839.261
982.4698, 1843.391
982.9520, 1844.032
983.4341, 1841.315
983.9162, 1835.292
984.3983, 1829.781
984.8804, 1827.301
985.3625, 1826.519
985.8447, 1827.117
986.3268, 1828.907
986.8089, 1829.397
987.2910, 1827.759
987.7731, 1827.317
988.2552, 1829.677
988.7374, 1833.179
989.2195, 1834.144
989.7016, 1833.467
990.1837, 1833.493
990.6658, 1835.593
991.1479, 1837.363
991.6301, 1837.725
992.1122, 1837.293
992.5944, 1836.684
993.0765, 1835.939
993.5586, 1834.439
994.0407, 1831.961
994.5228, 1830.375
995.0049, 1832.279
995.4871, 1835.334
995.9692, 1836.164
996.4513, 1835.000
996.9334, 1834.463
997.4155, 1836.263
997.8976, 1837.653
998.3798, 1837.744
998.8619, 1837.179
999.3440, 1837.345
999.8261, 1838.248
1000.308, 1840.338
1000.790, 1844.486
1001.272, 1847.269
1001.755, 1844.223
1002.237, 1839.185
1002.719, 1836.166
1003.201, 1835.833
1003.683, 1837.746
1004.165, 1843.530
1004.647, 1847.555
1005.129, 1844.227
1005.612, 1836.774
1006.094, 1834.467
1006.576, 1836.681
1007.058, 1840.288
1007.540, 1846.173
1008.022, 1850.391
1008.504, 1850.196
1008.986, 1847.757
1009.468, 1846.550
1009.951, 1846.662
1010.433, 1847.460
1010.915, 1848.974
1011.397, 1850.485
1011.879, 1851.098
1012.361, 1851.234
1012.843, 1851.475
1013.325, 1851.948
1013.807, 1851.910
1014.290, 1850.910
1014.772, 1849.827
1015.254, 1848.841
1015.736, 1848.134
1016.218, 1848.604
1016.700, 1850.103
1017.182, 1851.774
1017.664, 1853.557
1018.147, 1855.012
1018.629, 1856.252
1019.111, 1856.832
1019.593, 1855.864
1020.075, 1852.162
1020.557, 1850.966
1021.039, 1853.113
1021.521, 1855.313
1022.003, 1853.286
1022.486, 1849.630
1022.968, 1849.805
1023.450, 1853.653
1023.932, 1855.850
1024.414, 1852.173
1024.896, 1848.966
1025.378, 1848.167
1025.860, 1849.311
1026.343, 1851.586
1026.825, 1854.830
1027.307, 1857.313
1027.789, 1858.448
1028.271, 1859.029
1028.753, 1859.623
1029.235, 1860.121
1029.717, 1860.302
1030.199, 1859.877
1030.682, 1860.252
1031.164, 1861.867
1031.646, 1863.048
1032.128, 1862.088
1032.610, 1860.181
1033.092, 1860.756
1033.574, 1863.203
1034.056, 1865.266
1034.539, 1865.752
1035.021, 1865.890
1035.503, 1866.069
1035.985, 1865.719
1036.467, 1865.576
1036.949, 1864.520
1037.431, 1863.467
1037.913, 1862.446
1038.396, 1861.781
1038.878, 1862.087
1039.360, 1862.647
1039.842, 1862.624
1040.324, 1861.969
1040.806, 1862.051
1041.288, 1863.146
1041.770, 1864.519
1042.252, 1866.108
1042.734, 1867.641
1043.217, 1868.504
1043.699, 1868.884
1044.181, 1869.208
1044.663, 1869.347
1045.145, 1870.084
1045.627, 1873.146
1046.109, 1875.712
1046.591, 1875.369
1047.074, 1871.964
1047.556, 1869.317
1048.038, 1867.407
1048.520, 1866.817
1049.002, 1869.708
1049.484, 1872.522
1049.966, 1870.779
1050.448, 1866.484
1050.931, 1865.650
1051.413, 1871.062
1051.895, 1874.857
1052.377, 1876.015
1052.859, 1875.764
1053.341, 1875.012
1053.823, 1874.173
1054.305, 1874.321
1054.787, 1875.580
1055.270, 1876.754
1055.752, 1877.396
1056.234, 1877.672
1056.716, 1877.284
1057.198, 1876.684
1057.680, 1878.205
1058.162, 1881.644
1058.644, 1884.011
1059.126, 1884.490
1059.609, 1883.168
1060.091, 1877.697
1060.573, 1871.819
1061.055, 1870.394
1061.537, 1875.523
1062.019, 1878.010
1062.501, 1877.227
1062.983, 1876.197
1063.466, 1877.680
1063.948, 1879.876
1064.430, 1878.502
1064.912, 1874.912
1065.394, 1873.126
1065.876, 1877.385
1066.358, 1879.874
1066.840, 1878.505
1067.323, 1875.836
1067.805, 1874.653
1068.287, 1874.911
1068.769, 1876.719
1069.251, 1880.050
1069.733, 1883.591
1070.215, 1887.314
1070.697, 1890.040
1071.179, 1890.557
1071.661, 1889.260
1072.144, 1887.408
1072.626, 1884.729
1073.108, 1883.610
1073.590, 1885.068
1074.072, 1887.154
1074.554, 1887.769
1075.036, 1887.373
1075.518, 1886.148
1076.001, 1883.511
1076.483, 1883.619
1076.965, 1888.557
1077.447, 1892.465
1077.929, 1891.445
1078.411, 1887.739
1078.893, 1888.325
1079.375, 1891.899
1079.858, 1894.189
1080.340, 1891.917
1080.822, 1890.200
1081.304, 1891.549
1081.786, 1893.596
1082.268, 1894.098
1082.750, 1892.994
1083.232, 1892.862
1083.714, 1893.744
1084.197, 1894.209
1084.679, 1891.999
1085.161, 1890.151
1085.643, 1892.389
1086.125, 1896.898
1086.607, 1896.985
1087.089, 1889.824
1087.571, 1888.967
1088.054, 1897.869
1088.536, 1907.942
1089.018, 1908.489
1089.500, 1904.004
1089.982, 1900.451
1090.464, 1898.498
1090.946, 1897.654
1091.428, 1898.669
1091.911, 1899.248
1092.393, 1898.450
1092.875, 1896.981
1093.357, 1896.510
1093.839, 1896.816
1094.321, 1897.238
1094.803, 1897.642
1095.285, 1898.016
1095.767, 1898.291
1096.250, 1898.619
1096.732, 1899.093
1097.214, 1899.721
1097.696, 1900.609
1098.178, 1901.753
1098.660, 1902.791
1099.142, 1903.245
1099.624, 1903.893
1100.106, 1906.088
1100.589, 1908.566
1101.071, 1909.216
1101.553, 1907.260
1102.035, 1905.749
1102.517, 1904.609
1102.999, 1904.640
1103.481, 1907.936
1103.963, 1911.861
1104.446, 1912.466
1104.928, 1910.398
1105.410, 1908.819
1105.892, 1908.490
1106.374, 1908.474
1106.856, 1908.426
1107.338, 1909.030
1107.820, 1912.152
1108.302, 1916.436
1108.785, 1918.750
1109.267, 1918.714
1109.749, 1917.595
1110.231, 1913.920
1110.713, 1911.757
1111.195, 1913.162
1111.677, 1916.680
1112.159, 1918.337
1112.641, 1918.366
1113.124, 1918.182
1113.606, 1918.252
1114.088, 1917.776
1114.570, 1914.891
1115.052, 1912.381
1115.534, 1913.057
1116.016, 1916.688
1116.498, 1917.561
1116.981, 1915.573
1117.463, 1914.147
1117.945, 1914.993
1118.427, 1916.681
1118.909, 1918.176
1119.391, 1919.418
1119.873, 1920.379
1120.355, 1921.405
1120.838, 1920.646
1121.320, 1917.487
1121.802, 1915.084
1122.284, 1916.684
1122.766, 1919.713
1123.248, 1920.124
1123.730, 1918.728
1124.212, 1917.773
1124.694, 1917.648
1125.177, 1918.674
1125.659, 1921.394
1126.141, 1924.286
1126.623, 1925.418
1127.105, 1925.533
1127.587, 1927.115
1128.069, 1929.927
1128.551, 1931.246
1129.033, 1928.045
1129.516, 1925.459
1129.998, 1925.175
1130.480, 1925.920
1130.962, 1925.287
1131.444, 1923.666
1131.926, 1923.093
1132.408, 1923.857
1132.890, 1925.537
1133.373, 1929.854
1133.855, 1933.022
1134.337, 1932.714
1134.819, 1929.735
1135.301, 1925.949
1135.783, 1921.492
1136.265, 1918.880
1136.747, 1918.873
1137.229, 1920.487
1137.712, 1925.001
1138.194, 1929.197
1138.676, 1929.491
1139.158, 1925.900
1139.640, 1923.677
1140.122, 1922.855
1140.604, 1922.809
1141.086, 1923.295
1141.569, 1924.402
1142.051, 1926.866
1142.533, 1929.732
1143.015, 1931.611
1143.497, 1931.738
1143.979, 1933.092
1144.461, 1936.190
1144.943, 1938.352
1145.426, 1937.045
1145.908, 1934.499
1146.390, 1934.458
1146.872, 1935.914
1147.354, 1936.771
1147.836, 1934.992
1148.318, 1935.172
1148.800, 1938.518
1149.282, 1941.248
1149.765, 1938.877
1150.247, 1934.066
1150.729, 1933.348
1151.211, 1935.849
1151.693, 1937.304
1152.175, 1933.957
1152.657, 1932.687
1153.139, 1935.607
1153.621, 1939.371
1154.104, 1939.737
1154.586, 1937.674
1155.068, 1936.423
1155.550, 1936.105
1156.032, 1935.641
1156.514, 1933.273
1156.996, 1932.279
1157.478, 1934.198
1157.961, 1937.379
1158.443, 1938.513
1158.925, 1938.128
1159.407, 1939.727
1159.889, 1943.850
1160.371, 1947.123
1160.853, 1946.109
1161.335, 1945.179
1161.818, 1947.249
1162.300, 1946.639
1162.782, 1946.747
1163.264, 1948.186
1163.746, 1946.850
1164.228, 1948.339
1164.710, 1949.307
1165.192, 1945.050
1165.674, 1941.402
1166.156, 1943.986
1166.639, 1951.355
1167.121, 1953.977
1167.603, 1951.879
1168.085, 1949.612
1168.567, 1948.583
1169.049, 1947.968
1169.531, 1946.984
1170.013, 1946.764
1170.496, 1945.990
1170.978, 1946.572
1171.460, 1946.993
1171.942, 1947.254
1172.424, 1946.918
1172.906, 1944.846
1173.388, 1943.715
1173.870, 1947.904
1174.353, 1953.811
1174.835, 1956.417
1175.317, 1954.916
1175.799, 1953.588
1176.281, 1952.397
1176.763, 1951.751
1177.245, 1952.139
1177.727, 1952.931
1178.209, 1953.814
1178.692, 1954.473
1179.174, 1954.233
1179.656, 1952.274
1180.138, 1951.727
1180.620, 1952.892
1181.102, 1953.818
1181.584, 1952.077
1182.066, 1950.049
1182.548, 1951.417
1183.031, 1954.788
1183.513, 1956.834
1183.995, 1956.247
1184.477, 1956.101
1184.959, 1956.493
1185.441, 1957.500
1185.923, 1959.783
1186.405, 1962.340
1186.888, 1963.903
1187.370, 1964.528
1187.852, 1964.439
1188.334, 1963.510
1188.816, 1962.097
1189.298, 1959.954
1189.780, 1958.250
1190.262, 1958.090
1190.745, 1959.198
1191.227, 1962.008
1191.709, 1965.943
1192.191, 1968.002
1192.673, 1966.132
1193.155, 1965.176
1193.637, 1965.789
1194.119, 1967.486
1194.601, 1971.022
1195.084, 1974.602
1195.566, 1974.717
1196.048, 1971.496
1196.530, 1969.113
1197.012, 1968.419
1197.494, 1968.637
1197.976, 1969.979
1198.458, 1971.307
1198.941, 1970.451
1199.423, 1968.701
1199.905, 1968.618
1200.387, 1970.393
1200.869, 1971.046
1201.351, 1969.427
1201.833, 1967.885
1202.315, 1967.078
1202.797, 1966.434
1203.280, 1964.522
1203.762, 1962.365
1204.244, 1961.888
1204.726, 1963.460
1205.208, 1965.275
1205.690, 1967.636
1206.172, 1968.908
1206.654, 1968.229
1207.136, 1966.926
1207.619, 1966.940
1208.101, 1968.123
1208.583, 1970.721
1209.065, 1975.165
1209.547, 1977.516
1210.029, 1976.083
1210.511, 1975.157
1210.993, 1976.426
1211.476, 1978.742
1211.958, 1980.425
1212.440, 1981.492
1212.922, 1981.854
1213.404, 1981.364
1213.886, 1980.885
1214.368, 1980.510
1214.850, 1980.194
1215.333, 1979.791
1215.815, 1980.509
1216.297, 1980.779
1216.779, 1982.579
1217.261, 1984.307
1217.743, 1986.262
1218.225, 1985.876
1218.707, 1981.829
1219.189, 1978.731
1219.672, 1979.126
1220.154, 1981.186
1220.636, 1981.846
1221.118, 1981.601
1221.600, 1981.193
1222.082, 1980.396
1222.564, 1980.988
1223.046, 1983.593
1223.528, 1985.856
1224.011, 1986.432
1224.493, 1986.087
1224.975, 1985.620
1225.457, 1985.354
1225.939, 1986.005
1226.421, 1988.678
1226.903, 1989.334
1227.385, 1987.283
1227.868, 1985.609
1228.350, 1986.465
1228.832, 1988.184
1229.314, 1988.025
1229.796, 1986.969
1230.278, 1986.855
1230.760, 1989.043
1231.242, 1988.640
1231.724, 1984.833
1232.207, 1982.346
1232.689, 1985.594
1233.171, 1989.970
1233.653, 1988.246
1234.135, 1991.113
1234.617, 1991.978
1235.099, 1990.486
1235.581, 1991.860
1236.063, 1986.846
1236.546, 1982.359
1237.028, 1983.552
1237.510, 1986.569
1237.992, 1987.817
1238.474, 1987.923
1238.956, 1987.794
1239.438, 1987.348
1239.920, 1987.601
1240.403, 1988.619
1240.885, 1989.199
1241.367, 1987.280
1241.849, 1985.875
1242.331, 1988.310
1242.813, 1992.599
1243.295, 1995.786
1243.777, 1997.708
1244.260, 1999.155
1244.742, 2000.136
1245.224, 1999.665
1245.706, 1994.781
1246.188, 1990.804
1246.670, 1992.730
1247.152, 1997.003
1247.634, 1998.543
1248.116, 1997.131
1248.599, 1996.732
1249.081, 1997.357
1249.563, 1998.508
1250.045, 2000.552
1250.527, 2002.271
1251.009, 2002.773
1251.491, 2002.765
1251.973, 2003.079
1252.455, 2003.653
1252.938, 2002.716
1253.420, 2000.549
1253.902, 1999.540
1254.384, 2002.584
1254.866, 2004.959
1255.348, 2003.964
1255.830, 2002.624
1256.313, 2004.259
1256.795, 2008.097
1257.277, 2008.680
1257.759, 2006.627
1258.241, 2005.280
1258.723, 2006.504
1259.205, 2008.233
1259.687, 2010.344
1260.169, 2012.285
1260.651, 2013.048
1261.134, 2013.327
1261.616, 2016.572
1262.098, 2021.450
1262.580, 2023.436
1263.062, 2018.005
1263.544, 2013.598
1264.026, 2010.596
1264.508, 2009.482
1264.991, 2012.473
1265.473, 2016.682
1265.955, 2015.589
1266.437, 2011.134
1266.919, 2008.505
1267.401, 2009.763
1267.883, 2011.946
1268.365, 2015.301
1268.848, 2018.587
1269.330, 2021.670
1269.812, 2023.478
1270.294, 2020.842
1270.776, 2016.239
1271.258, 2015.578
1271.740, 2021.305
1272.222, 2024.044
1272.704, 2023.454
1273.187, 2021.498
1273.669, 2017.250
1274.151, 2014.447
1274.633, 2019.090
1275.115, 2016.531
1275.597, 2017.017
1276.079, 2019.304
1276.561, 2017.700
1277.043, 2021.791
1277.526, 2024.913
1278.008, 2021.414
1278.490, 2017.626
1278.972, 2016.698
1279.454, 2017.953
1279.936, 2021.595
1280.418, 2027.381
1280.900, 2028.422
1281.383, 2025.425
1281.865, 2023.072
1282.347, 2024.481
1282.829, 2025.668
1283.311, 2024.939
1283.793, 2023.889
1284.275, 2023.944
1284.757, 2024.614
1285.240, 2023.017
1285.722, 2020.224
1286.204, 2019.878
1286.686, 2026.095
1287.168, 2029.869
1287.650, 2029.585
1288.132, 2028.464
1288.614, 2029.034
1289.096, 2030.052
1289.578, 2027.975
1290.061, 2024.578
1290.543, 2023.657
1291.025, 2027.990
1291.507, 2030.184
1291.989, 2029.854
1292.471, 2028.993
1292.953, 2028.407
1293.435, 2028.273
1293.918, 2028.534
1294.400, 2031.374
1294.882, 2030.056
1295.364, 2031.321
1295.846, 2032.707
1296.328, 2030.660
1296.810, 2034.627
1297.292, 2032.447
1297.775, 2029.856
1298.257, 2032.153
1298.739, 2035.850
1299.221, 2037.907
1299.703, 2038.292
1300.185, 2036.102
1300.667, 2031.846
1301.149, 2028.216
1301.631, 2025.706
1302.114, 2024.621
1302.596, 2027.519
##END=



