##NAMES=Parahopeite
##RRUFFID=R050463
##IDEAL CHEMISTRY=Zn^2+^_3_(P^5+^O_4_)_2_&#183;4H_2_O
##LOCALITY=Broken Hill mine, Kabwe, Zambia
##OWNER=RRUFF
##SOURCE=University of Arizona Mineral Museum
##DESCRIPTION=Colorless elongated subparallel aggregate of crystals
##STATUS=The identification of this mineral has been confirmed by X-ray diffraction and chemical analysis
##URL=rruff.info/R050463
##MEASURED CHEMISTRY=Zn_3.00_(P_1.00_O_4_)_2_Â·4H_2_O
93.78320, 190.8605
94.26532, 187.9774
94.74744, 188.7534
95.22955, 192.7431
95.71167, 198.3859
96.19379, 202.3386
96.67590, 205.2024
97.15802, 206.3686
97.64014, 205.3729
98.12225, 202.7806
98.60437, 199.4667
99.08649, 195.6649
99.56860, 191.5065
100.0507, 186.9684
100.5328, 181.4139
101.0150, 176.5155
101.4971, 173.4869
101.9792, 172.2972
102.4613, 172.2620
102.9434, 173.3903
103.4255, 175.4309
103.9077, 178.6593
104.3898, 183.4338
104.8719, 188.6567
105.3540, 192.2530
105.8361, 194.3935
106.3182, 194.3069
106.8004, 191.2900
107.2825, 186.5388
107.7646, 181.1640
108.2467, 175.6768
108.7288, 170.1961
109.2109, 166.6189
109.6931, 165.5452
110.1752, 165.6652
110.6573, 166.8865
111.1394, 169.0701
111.6215, 172.0118
112.1036, 175.5092
112.5858, 179.6354
113.0679, 184.5389
113.5500, 190.3825
114.0321, 196.7638
114.5142, 204.0388
114.9964, 212.2529
115.4785, 219.7041
115.9606, 224.5368
116.4427, 226.9501
116.9248, 226.5488
117.4069, 222.7397
117.8891, 216.0600
118.3712, 207.2653
118.8533, 195.7589
119.3354, 183.2115
119.8175, 170.7198
120.2996, 158.3075
120.7818, 147.1472
121.2639, 138.0794
121.7460, 131.1275
122.2281, 125.5932
122.7102, 121.9734
123.1923, 119.4931
123.6745, 117.7287
124.1566, 116.6443
124.6387, 116.6966
125.1208, 118.8830
125.6029, 124.8144
126.0850, 129.4809
126.5672, 134.7898
127.0493, 137.8200
127.5314, 135.4941
128.0135, 126.6811
128.4956, 113.5099
128.9777, 101.7061
129.4599, 90.93435
129.9420, 82.27122
130.4241, 76.35634
130.9062, 72.50328
131.3883, 69.82838
131.8705, 67.92300
132.3526, 66.71129
132.8347, 65.72029
133.3168, 64.90403
133.7989, 64.28503
134.2810, 63.86341
134.7632, 63.64227
135.2453, 63.65143
135.7274, 64.01124
136.2095, 64.61789
136.6916, 65.06065
137.1737, 65.19902
137.6559, 65.23952
138.1380, 65.39355
138.6201, 65.67787
139.1022, 65.99898
139.5843, 66.26162
140.0664, 66.52575
140.5486, 66.88360
141.0307, 67.34319
141.5128, 67.92767
141.9949, 68.68714
142.4770, 69.58443
142.9591, 70.76413
143.4413, 72.34365
143.9234, 74.19479
144.4055, 76.10744
144.8876, 77.94893
145.3697, 79.71628
145.8518, 81.38268
146.3340, 82.84243
146.8161, 84.28219
147.2982, 85.69850
147.7803, 87.13121
148.2624, 88.65733
148.7445, 90.38091
149.2267, 92.35275
149.7088, 94.26501
150.1909, 96.05627
150.6730, 97.84867
151.1551, 99.58324
151.6372, 101.3140
152.1194, 103.2849
152.6015, 105.8339
153.0836, 109.1922
153.5657, 112.6085
154.0478, 116.1365
154.5299, 119.7011
155.0121, 123.0513
155.4942, 126.0779
155.9763, 129.3114
156.4584, 133.7276
156.9405, 139.3397
157.4227, 145.1295
157.9048, 150.7697
158.3869, 156.4008
158.8690, 162.2821
159.3511, 168.4622
159.8332, 175.0389
160.3154, 182.1055
160.7975, 189.6459
161.2796, 197.4599
161.7617, 205.4715
162.2438, 213.7175
162.7259, 222.0954
163.2081, 231.5804
163.6902, 240.3337
164.1723, 247.5603
164.6544, 253.2022
165.1365, 256.2365
165.6186, 255.6263
166.1008, 251.2451
166.5829, 243.6281
167.0650, 230.6895
167.5471, 216.0488
168.0292, 201.3664
168.5113, 187.1877
168.9935, 173.8721
169.4756, 162.0005
169.9577, 151.5568
170.4398, 142.8043
170.9219, 135.9616
171.4040, 130.3779
171.8862, 125.5255
172.3683, 121.2069
172.8504, 117.5864
173.3325, 115.0375
173.8146, 114.3942
174.2967, 114.0118
174.7789, 113.9138
175.2610, 114.0258
175.7431, 114.2677
176.2252, 114.6043
176.7073, 115.0535
177.1894, 115.6899
177.6716, 116.9273
178.1537, 117.8359
178.6358, 118.4275
179.1179, 118.5675
179.6000, 117.9594
180.0821, 116.3915
180.5643, 114.0363
181.0464, 111.4766
181.5285, 108.6059
182.0106, 105.6948
182.4927, 102.8087
182.9749, 99.96435
183.4570, 97.21941
183.9391, 94.53938
184.4212, 92.04923
184.9033, 89.94367
185.3854, 88.34509
185.8676, 86.93420
186.3497, 85.52386
186.8318, 84.11742
187.3139, 82.59473
187.7960, 80.85852
188.2781, 78.98177
188.7603, 77.02998
189.2424, 74.97781
189.7245, 72.92133
190.2066, 70.95647
190.6887, 69.05698
191.1708, 67.34335
191.6530, 65.76540
192.1351, 64.42086
192.6172, 63.47935
193.0993, 63.04319
193.5814, 62.88626
194.0635, 62.56176
194.5457, 61.97785
195.0278, 61.40305
195.5099, 60.88875
195.9920, 60.41455
196.4741, 59.95027
196.9562, 59.47995
197.4384, 59.03397
197.9205, 58.69583
198.4026, 58.48727
198.8847, 58.38124
199.3668, 58.42519
199.8489, 58.54306
200.3311, 58.63807
200.8132, 58.65904
201.2953, 58.64846
201.7774, 58.77412
202.2595, 59.45192
202.7416, 59.79820
203.2238, 59.51586
203.7059, 58.89299
204.1880, 58.32058
204.6701, 58.00719
205.1522, 57.90193
205.6344, 57.78548
206.1165, 57.57445
206.5986, 57.44495
207.0807, 57.41259
207.5628, 57.48890
208.0449, 57.72704
208.5271, 58.18615
209.0092, 58.78260
209.4913, 59.15857
209.9734, 59.14681
210.4555, 59.16565
210.9376, 59.42719
211.4198, 59.84462
211.9019, 60.17450
212.3840, 60.27671
212.8661, 60.21926
213.3482, 60.20018
213.8303, 60.18232
214.3125, 60.25148
214.7946, 60.45374
215.2767, 60.78478
215.7588, 61.23352
216.2409, 61.87620
216.7230, 62.57892
217.2052, 63.09831
217.6873, 63.35048
218.1694, 63.58630
218.6515, 63.97780
219.1336, 64.52422
219.6157, 65.17767
220.0979, 66.09249
220.5800, 66.99344
221.0621, 67.51939
221.5442, 67.54609
222.0263, 67.54870
222.5084, 68.05234
222.9906, 69.11122
223.4727, 70.10285
223.9548, 70.84668
224.4369, 71.42937
224.9190, 71.85762
225.4011, 72.12776
225.8833, 72.36845
226.3654, 72.80355
226.8475, 73.52469
227.3296, 73.98392
227.8117, 73.65820
228.2938, 73.29318
228.7760, 73.39961
229.2581, 74.07137
229.7402, 74.95859
230.2223, 75.59595
230.7044, 75.90029
231.1866, 76.22151
231.6687, 76.56088
232.1508, 76.94957
232.6329, 77.38238
233.1150, 77.87121
233.5971, 78.46559
234.0793, 79.28413
234.5614, 80.51445
235.0435, 81.49543
235.5256, 81.99387
236.0077, 82.43923
236.4898, 83.08701
236.9720, 83.98093
237.4541, 85.00821
237.9362, 86.00967
238.4183, 86.90714
238.9004, 87.97119
239.3825, 89.24059
239.8647, 90.60545
240.3468, 92.04639
240.8289, 93.53658
241.3110, 94.97639
241.7931, 96.26357
242.2752, 97.36166
242.7574, 98.35514
243.2395, 98.96287
243.7216, 99.68490
244.2037, 100.9035
244.6858, 102.6272
245.1679, 104.5474
245.6501, 106.3304
246.1322, 107.9344
246.6143, 109.5441
247.0964, 111.1210
247.5785, 112.7373
248.0606, 114.4767
248.5428, 116.3242
249.0249, 118.1871
249.5070, 119.9858
249.9891, 121.7281
250.4712, 123.3143
250.9533, 124.6549
251.4355, 125.9247
251.9176, 127.2625
252.3997, 128.6671
252.8818, 130.0583
253.3639, 131.4423
253.8460, 132.7806
254.3282, 133.5575
254.8103, 133.2232
255.2924, 132.7770
255.7745, 133.1150
256.2566, 134.1585
256.7387, 134.8719
257.2209, 134.3814
257.7030, 132.8618
258.1851, 131.8191
258.6672, 131.9031
259.1493, 131.9408
259.6314, 130.9706
260.1136, 129.0885
260.5957, 127.2306
261.0778, 125.9002
261.5599, 125.0340
262.0420, 124.2661
262.5241, 123.7958
263.0063, 123.1844
263.4884, 122.0066
263.9705, 120.3267
264.4526, 118.7262
264.9347, 117.5997
265.4168, 116.6350
265.8990, 115.2019
266.3811, 112.9983
266.8632, 110.9368
267.3453, 109.8887
267.8275, 109.7077
268.3096, 109.1940
268.7917, 107.7698
269.2738, 105.9275
269.7559, 104.3461
270.2380, 103.0564
270.7202, 101.9147
271.2023, 100.8239
271.6844, 99.79534
272.1665, 98.91582
272.6486, 98.35722
273.1307, 97.79355
273.6129, 96.72055
274.0950, 95.14262
274.5771, 93.95359
275.0592, 93.95937
275.5413, 94.95339
276.0234, 95.71641
276.5056, 95.93060
276.9877, 96.05749
277.4698, 96.54710
277.9519, 97.31222
278.4340, 97.91740
278.9161, 98.03543
279.3983, 97.75852
279.8804, 97.53438
280.3625, 97.54419
280.8446, 97.34021
281.3267, 96.56479
281.8088, 95.39998
282.2910, 94.26561
282.7731, 93.47308
283.2552, 92.88323
283.7373, 92.01134
284.2194, 90.72062
284.7015, 89.39461
285.1837, 88.21744
285.6658, 87.11665
286.1479, 85.97644
286.6300, 84.73972
287.1121, 83.44487
287.5942, 82.15965
288.0764, 80.83072
288.5585, 79.64584
289.0406, 78.76098
289.5227, 78.00692
290.0048, 77.21529
290.4869, 76.30972
290.9691, 75.37284
291.4512, 74.50451
291.9333, 73.65840
292.4154, 73.04255
292.8975, 72.97852
293.3796, 73.00626
293.8618, 72.67227
294.3439, 71.86307
294.8260, 71.07566
295.3081, 71.09270
295.7902, 72.15902
296.2723, 72.86304
296.7545, 72.50400
297.2366, 72.04480
297.7187, 72.05802
298.2008, 72.57712
298.6829, 73.21777
299.1650, 73.54042
299.6472, 73.49231
300.1293, 73.63102
300.6114, 74.17595
301.0935, 74.75220
301.5756, 75.07369
302.0577, 75.24653
302.5399, 75.65955
303.0220, 76.79802
303.5041, 78.60466
303.9862, 79.78331
304.4683, 79.75323
304.9504, 79.73279
305.4326, 80.13966
305.9147, 80.87613
306.3968, 81.74223
306.8789, 82.64790
307.3610, 83.57321
307.8431, 84.38919
308.3253, 84.91405
308.8074, 85.63062
309.2895, 86.76727
309.7716, 88.10969
310.2537, 89.37696
310.7358, 90.44154
311.2180, 91.42160
311.7001, 92.61138
312.1822, 94.22815
312.6643, 95.58169
313.1464, 96.17217
313.6285, 96.69716
314.1107, 97.80367
314.5928, 99.65163
315.0749, 101.7697
315.5570, 103.4663
316.0392, 104.6162
316.5213, 105.7923
317.0034, 106.9074
317.4855, 108.1819
317.9676, 109.9546
318.4497, 112.1330
318.9319, 114.1278
319.4140, 115.2194
319.8961, 115.2876
320.3782, 115.6275
320.8603, 116.1558
321.3424, 117.0859
321.8246, 118.8590
322.3067, 121.1326
322.7888, 123.1259
323.2709, 124.2227
323.7530, 124.5307
324.2351, 124.8091
324.7173, 125.1149
325.1994, 125.2989
325.6815, 125.1869
326.1636, 124.9732
326.6457, 124.9938
327.1278, 125.4823
327.6100, 126.1142
328.0921, 126.0770
328.5742, 125.1472
329.0563, 123.9902
329.5384, 122.6309
330.0205, 121.2150
330.5027, 119.9087
330.9848, 118.7522
331.4669, 117.5721
331.9490, 116.1676
332.4311, 114.5673
332.9132, 112.6156
333.3954, 109.8088
333.8775, 106.9822
334.3596, 104.6048
334.8417, 102.6969
335.3238, 101.0097
335.8059, 99.33867
336.2881, 97.67891
336.7702, 96.13683
337.2523, 94.74768
337.7344, 93.45386
338.2165, 92.27155
338.6986, 91.15792
339.1808, 89.99413
339.6629, 88.63248
340.1450, 87.18520
340.6271, 86.09203
341.1092, 85.51054
341.5913, 84.99435
342.0735, 84.35033
342.5556, 83.67088
343.0377, 83.07070
343.5198, 82.59984
344.0019, 82.20061
344.4840, 81.80277
344.9662, 81.41678
345.4483, 80.97522
345.9304, 80.36940
346.4125, 79.74951
346.8946, 79.21524
347.3767, 78.77934
347.8589, 78.42474
348.3410, 78.18226
348.8231, 78.04611
349.3052, 77.80700
349.7873, 77.28750
350.2694, 76.83141
350.7516, 76.71654
351.2337, 76.87836
351.7158, 77.03574
352.1979, 76.98169
352.6800, 76.79076
353.1621, 76.69675
353.6443, 76.69197
354.1264, 76.81512
354.6085, 77.20424
355.0906, 77.71059
355.5727, 78.07424
356.0548, 78.09310
356.5370, 78.07456
357.0191, 78.46056
357.5012, 79.27815
357.9833, 80.16817
358.4654, 80.94323
358.9475, 81.74892
359.4297, 82.83341
359.9118, 84.31491
360.3939, 85.62869
360.8760, 86.17754
361.3581, 86.12878
361.8402, 86.39046
362.3224, 87.31093
362.8045, 88.37436
363.2866, 89.16688
363.7687, 89.69270
364.2508, 89.77702
364.7329, 89.18057
365.2151, 88.15123
365.6972, 87.06558
366.1793, 85.93996
366.6614, 84.82768
367.1436, 83.87447
367.6257, 82.96495
368.1078, 81.74435
368.5899, 79.89149
369.0720, 77.93083
369.5541, 76.31019
370.0363, 74.98376
370.5184, 73.66415
371.0005, 72.20112
371.4826, 70.68112
371.9647, 69.28030
372.4468, 67.99189
372.9290, 66.82813
373.4111, 65.87406
373.8932, 65.03449
374.3753, 64.15757
374.8574, 63.20446
375.3395, 62.20024
375.8217, 61.11422
376.3038, 59.90294
376.7859, 59.04292
377.2680, 58.81365
377.7501, 58.79500
378.2322, 58.70243
378.7144, 58.49379
379.1965, 58.12638
379.6786, 57.52834
380.1607, 56.72916
380.6428, 56.06536
381.1249, 55.51797
381.6071, 55.10674
382.0892, 54.92943
382.5713, 54.88180
383.0534, 54.77590
383.5355, 54.53057
384.0176, 54.18312
384.4998, 53.80212
384.9819, 53.24194
385.4640, 52.90187
385.9461, 53.00538
386.4282, 53.20035
386.9103, 53.16187
387.3925, 52.28512
387.8746, 52.85454
388.3567, 53.11441
388.8388, 53.08135
389.3209, 51.87806
389.8030, 52.18588
390.2852, 51.88810
390.7673, 51.56550
391.2494, 52.08603
391.7315, 51.05293
392.2136, 51.56008
392.6957, 51.45239
393.1779, 51.62607
393.6600, 51.19044
394.1421, 50.94302
394.6242, 51.30513
395.1063, 51.32973
395.5884, 50.82396
396.0706, 51.01553
396.5527, 49.96115
397.0348, 50.00014
397.5169, 50.51085
397.9990, 50.03572
398.4811, 50.23845
398.9633, 49.90993
399.4454, 50.12677
399.9275, 50.30154
400.4096, 50.37954
400.8917, 50.31715
401.3738, 50.13113
401.8560, 49.84863
402.3381, 49.27482
402.8202, 48.99276
403.3023, 49.44230
403.7844, 50.10900
404.2665, 50.42861
404.7487, 50.21863
405.2308, 49.85392
405.7129, 49.80893
406.1950, 50.10329
406.6771, 50.34452
407.1592, 50.43003
407.6414, 50.47615
408.1235, 50.57396
408.6056, 50.71392
409.0877, 50.83385
409.5698, 50.88960
410.0519, 50.90078
410.5341, 50.88403
411.0162, 50.80608
411.4983, 50.83160
411.9804, 51.15413
412.4625, 51.62684
412.9446, 52.02171
413.4268, 52.34657
413.9089, 52.51226
414.3910, 52.31851
414.8731, 51.85656
415.3553, 51.57586
415.8374, 51.64608
416.3195, 51.91426
416.8016, 52.15120
417.2837, 52.34124
417.7658, 52.65352
418.2480, 53.30857
418.7301, 54.01623
419.2122, 54.36933
419.6943, 54.34359
420.1764, 54.35640
420.6585, 54.76833
421.1407, 55.53406
421.6228, 56.07680
422.1049, 56.46548
422.5870, 56.59188
423.0691, 56.19394
423.5512, 55.54050
424.0334, 55.12209
424.5155, 55.13994
424.9976, 55.42098
425.4797, 55.66869
425.9618, 56.03999
426.4439, 56.01357
426.9261, 55.21873
427.4082, 54.32823
427.8903, 53.91410
428.3724, 53.91394
428.8545, 53.78346
429.3366, 53.02071
429.8188, 51.67004
430.3009, 50.80463
430.7830, 50.95058
431.2651, 51.02552
431.7472, 50.80527
432.2293, 50.44496
432.7115, 50.15678
433.1936, 50.01741
433.6757, 49.91520
434.1578, 49.61361
434.6399, 48.97277
435.1220, 48.62949
435.6042, 49.11089
436.0863, 49.49400
436.5684, 49.18840
437.0505, 48.35682
437.5326, 47.62811
438.0147, 47.50511
438.4969, 47.79516
438.9790, 47.75645
439.4611, 47.17950
439.9432, 46.80592
440.4253, 47.12287
440.9074, 47.71941
441.3896, 48.19518
441.8717, 48.46447
442.3538, 48.63820
442.8359, 48.82113
443.3180, 48.99962
443.8001, 49.07380
444.2823, 49.00237
444.7644, 48.86369
445.2465, 48.64286
445.7286, 48.38201
446.2107, 48.33967
446.6928, 48.75042
447.1750, 49.30049
447.6571, 49.67260
448.1392, 49.87395
448.6213, 50.06488
449.1034, 50.34723
449.5855, 50.65647
450.0677, 50.79175
450.5498, 50.64098
451.0319, 50.58362
451.5140, 50.85222
451.9961, 51.20353
452.4782, 51.27773
452.9604, 51.02760
453.4425, 50.77778
453.9246, 50.88582
454.4067, 51.40531
454.8888, 51.71339
455.3709, 51.65117
455.8531, 51.58910
456.3352, 51.68064
456.8173, 51.85956
457.2994, 51.97087
457.7815, 51.94125
458.2636, 51.89918
458.7458, 52.16865
459.2279, 53.11443
459.7100, 53.59349
460.1921, 53.22061
460.6742, 52.73415
461.1563, 52.54162
461.6385, 52.64002
462.1206, 52.82090
462.6027, 52.92825
463.0848, 52.98368
463.5669, 53.09690
464.0491, 53.26222
464.5312, 53.49800
465.0133, 53.92952
465.4954, 54.36808
465.9775, 54.59047
466.4597, 54.53407
466.9418, 54.43339
467.4239, 54.59009
467.9060, 54.93713
468.3881, 54.99363
468.8702, 54.58995
469.3524, 54.08086
469.8345, 53.71277
470.3166, 53.47108
470.7987, 53.35212
471.2808, 53.41888
471.7629, 53.55868
472.2451, 53.66756
472.7272, 53.75845
473.2093, 53.91376
473.6914, 54.19626
474.1735, 54.51052
474.6556, 54.66958
475.1378, 54.66534
475.6199, 54.57084
476.1020, 54.30892
476.5841, 54.02053
477.0662, 53.73940
477.5483, 53.52135
478.0305, 53.58548
478.5126, 54.15254
478.9947, 55.13578
479.4768, 55.74933
479.9589, 55.78457
480.4410, 55.70040
480.9232, 55.33117
481.4053, 54.98516
481.8874, 55.00769
482.3695, 55.46465
482.8516, 56.12271
483.3337, 56.71450
483.8159, 57.23109
484.2980, 57.76356
484.7801, 58.45643
485.2622, 58.99036
485.7443, 59.07661
486.2264, 58.97649
486.7086, 59.11925
487.1907, 59.70974
487.6728, 60.51748
488.1549, 61.24314
488.6370, 61.88399
489.1191, 62.47018
489.6013, 62.94421
490.0834, 63.44286
490.5655, 64.09350
491.0476, 64.88058
491.5297, 65.68913
492.0118, 66.39902
492.4940, 67.14829
492.9761, 68.16431
493.4582, 69.43905
493.9403, 70.67981
494.4224, 71.74902
494.9045, 72.68002
495.3867, 73.52956
495.8688, 74.26392
496.3509, 75.02512
496.8330, 75.79219
497.3151, 76.63426
497.7972, 77.60124
498.2794, 78.70690
498.7615, 80.03156
499.2436, 81.73454
499.7257, 83.74909
500.2078, 84.95125
500.6899, 84.47579
501.1721, 84.23111
501.6542, 84.70216
502.1363, 85.46312
502.6184, 86.10068
503.1005, 86.48374
503.5826, 86.65085
504.0648, 86.63611
504.5469, 86.43480
505.0290, 86.10369
505.5111, 85.62060
505.9932, 85.02087
506.4753, 84.29346
506.9575, 83.47774
507.4396, 82.64928
507.9217, 81.85857
508.4038, 80.99111
508.8859, 79.98051
509.3680, 78.81220
509.8502, 77.21111
510.3323, 74.87945
510.8144, 72.47121
511.2965, 70.74167
511.7786, 69.56095
512.2607, 68.15738
512.7429, 65.84463
513.2250, 63.63025
513.7071, 62.57228
514.1892, 62.43079
514.6713, 62.09370
515.1534, 61.03933
515.6356, 59.60693
516.1177, 58.47025
516.5998, 57.80915
517.0819, 57.02382
517.5640, 55.83159
518.0461, 54.73003
518.5283, 54.13747
519.0104, 53.95916
519.4925, 53.81762
519.9746, 53.46301
520.4567, 52.95894
520.9388, 52.56142
521.4210, 52.44247
521.9031, 52.09855
522.3852, 51.28269
522.8673, 50.39272
523.3494, 49.65404
523.8315, 49.11002
524.3137, 48.76067
524.7958, 48.69516
525.2779, 48.81683
525.7600, 48.77958
526.2421, 48.54986
526.7242, 48.28588
527.2064, 48.01397
527.6885, 47.77009
528.1706, 47.63071
528.6527, 47.63615
529.1348, 47.55184
529.6169, 47.17719
530.0991, 46.66408
530.5812, 46.20697
531.0633, 45.83374
531.5454, 45.67048
532.0275, 45.85969
532.5096, 46.34011
532.9918, 46.67994
533.4739, 46.89354
533.9560, 46.97409
534.4381, 46.76869
534.9202, 46.50976
535.4023, 46.47082
535.8845, 46.68810
536.3666, 46.99096
536.8487, 47.22045
537.3308, 47.37713
537.8129, 47.44395
538.2951, 47.34148
538.7772, 47.24939
539.2593, 47.10111
539.7415, 47.03711
540.2236, 47.24572
540.7057, 47.76808
541.1878, 48.38609
541.6699, 48.88195
542.1520, 49.27494
542.6342, 49.70321
543.1163, 50.16788
543.5984, 50.68794
544.0805, 51.38536
544.5626, 52.12197
545.0447, 52.59534
545.5269, 52.57046
546.0090, 52.65009
546.4911, 53.34974
546.9732, 54.36401
547.4553, 55.01350
547.9374, 55.15478
548.4196, 55.33279
548.9017, 56.11906
549.3838, 57.53531
549.8659, 58.64573
550.3480, 59.09102
550.8301, 59.71977
551.3123, 60.91865
551.7944, 62.35859
552.2765, 63.58448
552.7586, 64.49467
553.2407, 65.40639
553.7228, 66.74480
554.2050, 68.54545
554.6871, 70.10146
555.1692, 71.18507
555.6513, 72.34333
556.1334, 73.73315
556.6155, 75.31009
557.0977, 77.00376
557.5798, 78.78255
558.0619, 80.77308
558.5440, 83.40541
559.0261, 86.38130
559.5082, 88.53490
559.9904, 89.57632
560.4725, 90.35659
560.9546, 91.59682
561.4367, 93.11649
561.9188, 94.07716
562.4009, 94.28767
562.8831, 94.16399
563.3652, 93.91503
563.8473, 93.40191
564.3294, 92.32591
564.8115, 90.66976
565.2936, 88.80959
565.7758, 87.05418
566.2579, 85.39585
566.7400, 84.36108
567.2221, 84.57970
567.7042, 84.69033
568.1863, 84.40962
568.6685, 83.94718
569.1506, 83.54530
569.6327, 83.24757
570.1148, 82.87985
570.5969, 82.29651
571.0790, 81.50256
571.5612, 80.49506
572.0433, 79.19341
572.5254, 77.91208
573.0075, 77.00072
573.4896, 76.12070
573.9717, 74.67868
574.4539, 72.45378
574.9360, 70.32734
575.4181, 68.77267
575.9002, 67.53848
576.3823, 66.38590
576.8644, 65.24586
577.3466, 63.85780
577.8287, 61.96645
578.3108, 59.72669
578.7929, 57.90356
579.2750, 56.72575
579.7571, 55.68225
580.2393, 54.78424
580.7214, 53.99245
581.2035, 53.34149
581.6856, 52.78460
582.1677, 52.15135
582.6498, 51.29607
583.1320, 50.29139
583.6141, 49.37347
584.0962, 48.50299
584.5783, 47.85124
585.0604, 47.70137
585.5425, 47.60225
586.0247, 47.09557
586.5068, 46.20951
586.9889, 45.46101
587.4710, 45.20974
587.9531, 45.12349
588.4352, 44.77148
588.9174, 44.20351
589.3995, 43.77326
589.8816, 43.66145
590.3637, 43.68351
590.8458, 43.52205
591.3279, 43.11992
591.8101, 42.67351
592.2922, 41.93760
592.7743, 41.39596
593.2564, 41.42875
593.7385, 41.82675
594.2206, 42.20013
594.7028, 42.37090
595.1849, 42.38684
595.6670, 42.31858
596.1491, 42.16526
596.6312, 41.91871
597.1133, 41.42669
597.5955, 41.04214
598.0776, 40.99743
598.5597, 41.17230
599.0418, 41.37539
599.5239, 41.65398
600.0060, 41.72717
600.4882, 41.13170
600.9703, 40.18565
601.4524, 39.72748
601.9345, 39.93302
602.4166, 40.28230
602.8987, 40.31349
603.3809, 40.05825
603.8630, 39.98744
604.3451, 40.19487
604.8272, 40.43768
605.3093, 40.86765
605.7914, 41.19077
606.2736, 41.00871
606.7557, 40.35398
607.2378, 39.70142
607.7199, 39.46527
608.2020, 39.56094
608.6841, 39.54527
609.1663, 39.32037
609.6484, 39.27195
610.1305, 39.76466
610.6126, 40.30141
611.0947, 40.43055
611.5768, 40.14961
612.0590, 39.81272
612.5411, 39.48303
613.0232, 39.23278
613.5053, 39.21262
613.9874, 39.36807
614.4695, 39.40600
614.9517, 39.17796
615.4338, 38.90085
615.9159, 38.96016
616.3980, 39.54195
616.8801, 39.81347
617.3622, 39.49392
617.8444, 39.20078
618.3265, 39.25791
618.8086, 39.49523
619.2907, 39.63738
619.7728, 39.58310
620.2549, 39.40675
620.7371, 39.14108
621.2192, 38.79570
621.7013, 38.62183
622.1834, 38.63768
622.6655, 38.81364
623.1476, 39.31325
623.6298, 39.90588
624.1119, 40.15710
624.5940, 39.87653
625.0761, 39.72970
625.5582, 40.17033
626.0403, 40.82899
626.5225, 41.25957
627.0046, 41.42830
627.4867, 41.48582
627.9688, 41.52692
628.4509, 41.53707
628.9330, 41.45446
629.4152, 41.11565
629.8973, 40.98982
630.3794, 41.20891
630.8615, 41.50531
631.3436, 41.72662
631.8257, 41.90075
632.3079, 42.14263
632.7900, 42.53281
633.2721, 42.94990
633.7542, 43.15829
634.2363, 43.19734
634.7184, 43.47710
635.2006, 44.16656
635.6827, 44.83346
636.1648, 45.02466
636.6469, 44.81856
637.1291, 44.87115
637.6112, 45.38513
638.0933, 45.91714
638.5754, 46.33725
639.0576, 46.69042
639.5397, 47.02475
640.0218, 47.34933
640.5039, 47.66190
640.9860, 47.97371
641.4681, 48.26322
641.9503, 48.41272
642.4324, 48.34268
642.9145, 48.33149
643.3966, 48.53821
643.8787, 48.74280
644.3608, 48.70994
644.8430, 48.50943
645.3251, 48.51075
645.8072, 49.12178
646.2893, 49.77177
646.7714, 49.82118
647.2535, 49.41923
647.7357, 49.04754
648.2178, 48.85028
648.6999, 48.67682
649.1820, 48.36635
649.6641, 47.91343
650.1462, 47.41594
650.6284, 46.84802
651.1105, 46.26704
651.5926, 45.62548
652.0747, 45.01349
652.5568, 44.53368
653.0389, 44.19044
653.5211, 43.91142
654.0032, 43.70003
654.4853, 43.48066
654.9674, 42.97684
655.4495, 42.15368
655.9316, 41.44564
656.4138, 41.00682
656.8959, 40.73926
657.3780, 40.55976
657.8601, 40.46585
658.3422, 40.34145
658.8243, 40.16809
659.3065, 39.96445
659.7886, 39.69449
660.2707, 39.41613
660.7528, 39.24535
661.2349, 39.20536
661.7170, 39.15908
662.1992, 38.91396
662.6813, 38.48815
663.1634, 38.35041
663.6455, 38.70330
664.1276, 38.94244
664.6097, 38.71502
665.0919, 38.39178
665.5740, 38.33356
666.0561, 38.55136
666.5382, 38.70266
667.0203, 38.57915
667.5024, 38.35375
667.9846, 38.19025
668.4667, 38.08419
668.9488, 37.97515
669.4309, 37.83577
669.9130, 37.78540
670.3951, 38.05264
670.8773, 38.74895
671.3594, 38.85490
671.8415, 37.54747
672.3236, 36.61400
672.8057, 36.68144
673.2878, 37.16281
673.7700, 37.47721
674.2521, 37.51599
674.7342, 37.47255
675.2163, 37.44840
675.6984, 37.45666
676.1805, 37.58687
676.6627, 37.82887
677.1448, 37.87013
677.6269, 37.53909
678.1090, 37.08772
678.5911, 36.87464
679.0732, 36.95775
679.5554, 36.95497
680.0375, 36.69789
680.5196, 36.54981
681.0017, 36.70542
681.4838, 37.01956
681.9659, 37.35346
682.4481, 37.65043
682.9302, 37.84294
683.4123, 37.85197
683.8944, 37.70844
684.3765, 37.51470
684.8586, 37.25654
685.3408, 37.03526
685.8229, 36.87607
686.3050, 36.77930
686.7871, 36.73622
687.2692, 36.74342
687.7513, 36.85765
688.2335, 37.19972
688.7156, 37.53163
689.1977, 37.69088
689.6798, 37.76812
690.1619, 37.93713
690.6440, 38.22485
691.1262, 38.48372
691.6083, 38.57560
692.0904, 38.50676
692.5725, 38.29198
693.0546, 37.86037
693.5367, 37.48851
694.0189, 37.17091
694.5010, 37.02168
694.9831, 37.24025
695.4652, 37.76730
695.9473, 38.13631
696.4294, 38.08287
696.9116, 37.95742
697.3937, 38.00769
697.8758, 38.15442
698.3579, 38.26043
698.8400, 38.28976
699.3221, 38.25184
699.8043, 38.13932
700.2864, 37.97297
700.7685, 37.92582
701.2506, 38.08641
701.7327, 38.17682
702.2148, 38.09224
702.6970, 37.96112
703.1791, 37.89213
703.6612, 37.85404
704.1433, 37.70345
704.6254, 37.29913
705.1075, 36.88448
705.5897, 36.61134
706.0718, 36.48569
706.5539, 36.62079
707.0360, 37.00794
707.5181, 37.26603
708.0002, 37.06181
708.4824, 36.49395
708.9645, 36.05051
709.4466, 35.72128
709.9287, 35.53841
710.4108, 35.51748
710.8929, 35.62457
711.3751, 35.97955
711.8572, 36.44177
712.3393, 36.66346
712.8214, 36.47134
713.3035, 36.13932
713.7856, 35.88696
714.2678, 35.67328
714.7499, 35.33286
715.2320, 34.86721
715.7141, 34.61928
716.1962, 34.85296
716.6783, 35.39488
717.1605, 35.73487
717.6426, 35.83482
718.1247, 35.79772
718.6068, 35.39885
719.0889, 35.10513
719.5710, 35.27617
720.0532, 35.65238
720.5353, 35.77151
721.0174, 35.47974
721.4995, 35.05868
721.9816, 34.58447
722.4637, 34.18944
722.9459, 34.27015
723.4280, 34.79513
723.9101, 35.07902
724.3922, 34.73019
724.8743, 34.13912
725.3564, 34.07537
725.8386, 34.78143
726.3207, 35.13900
726.8028, 34.94331
727.2849, 34.64855
727.7670, 34.32136
728.2491, 34.00621
728.7313, 33.70731
729.2134, 33.43450
729.6955, 33.32128
730.1776, 33.60859
730.6597, 34.03208
731.1418, 34.13768
731.6240, 33.97458
732.1061, 33.85394
732.5882, 33.88132
733.0703, 34.01712
733.5524, 34.26641
734.0345, 34.65069
734.5167, 34.62633
734.9988, 33.53510
735.4809, 32.89854
735.9631, 33.27456
736.4452, 33.94117
736.9273, 34.40985
737.4094, 34.60457
737.8915, 34.54333
738.3737, 34.06344
738.8558, 33.56365
739.3379, 33.51630
739.8200, 33.81407
740.3021, 34.17884
740.7842, 34.55224
741.2664, 34.81439
741.7485, 34.85721
742.2306, 34.72029
742.7127, 34.59656
743.1948, 34.50191
743.6769, 34.39072
744.1591, 34.16058
744.6412, 34.01224
745.1233, 34.12909
745.6054, 34.39272
746.0875, 34.55947
746.5696, 34.54724
747.0518, 34.45074
747.5339, 34.27327
748.0160, 34.08840
748.4981, 34.02918
748.9802, 34.09607
749.4623, 34.22787
749.9445, 34.40450
750.4266, 34.56804
750.9087, 34.58701
751.3908, 34.38905
751.8729, 34.39658
752.3550, 34.80112
752.8372, 35.16089
753.3193, 35.47401
753.8014, 35.59539
754.2835, 35.21294
754.7656, 34.31688
755.2477, 33.68837
755.7299, 33.98379
756.2120, 34.46175
756.6941, 34.22894
757.1762, 33.63710
757.6583, 33.71035
758.1404, 34.68184
758.6226, 35.63873
759.1047, 35.61752
759.5868, 34.80964
760.0689, 34.59855
760.5510, 35.33956
761.0331, 35.72552
761.5153, 35.23572
761.9974, 34.59717
762.4795, 34.23246
762.9616, 34.14312
763.4437, 34.35414
763.9258, 35.14546
764.4080, 35.74772
764.8901, 35.67416
765.3722, 35.28778
765.8543, 34.84327
766.3364, 34.47413
766.8185, 34.52554
767.3007, 35.21504
767.7828, 36.02865
768.2649, 35.93855
768.7470, 34.89882
769.2291, 34.20855
769.7112, 33.92942
770.1934, 33.98309
770.6755, 34.56550
771.1576, 35.30912
771.6397, 35.52338
772.1218, 35.11047
772.6039, 34.92772
773.0861, 35.40925
773.5682, 35.83337
774.0503, 35.76282
774.5324, 35.42276
775.0145, 35.10896
775.4966, 34.90507
775.9788, 34.79822
776.4609, 34.83229
776.9430, 34.90492
777.4251, 34.64565
777.9072, 34.07277
778.3893, 33.98119
778.8715, 34.67477
779.3536, 35.43501
779.8357, 35.62913
780.3178, 35.33902
780.7999, 35.12329
781.2820, 35.03568
781.7642, 34.94183
782.2463, 34.87069
782.7284, 34.75709
783.2105, 34.48301
783.6926, 34.15100
784.1747, 33.96489
784.6569, 33.99725
785.1390, 34.15778
785.6211, 34.48763
786.1032, 34.84224
786.5853, 34.92118
787.0674, 34.73150
787.5496, 34.41905
788.0317, 34.02969
788.5138, 33.69305
788.9959, 33.62309
789.4780, 33.84967
789.9601, 33.90581
790.4423, 33.61086
790.9244, 33.43768
791.4065, 33.65963
791.8886, 33.91573
792.3707, 33.81814
792.8528, 33.44924
793.3350, 33.34697
793.8171, 33.98083
794.2992, 34.53238
794.7813, 34.34838
795.2634, 33.85042
795.7455, 33.63811
796.2277, 33.73778
796.7098, 33.83321
797.1919, 33.73409
797.6740, 33.51054
798.1561, 33.22281
798.6382, 32.85617
799.1204, 32.87575
799.6025, 33.45455
800.0846, 33.99940
800.5667, 34.23510
801.0488, 34.25261
801.5309, 34.18748
802.0131, 34.02819
802.4952, 33.87407
802.9773, 33.72341
803.4594, 33.59046
803.9415, 33.47969
804.4236, 33.39065
804.9058, 33.32664
805.3879, 33.28624
805.8700, 33.25230
806.3521, 33.17122
806.8342, 33.15120
807.3163, 33.49543
807.7985, 34.06843
808.2806, 34.24387
808.7627, 33.90374
809.2448, 33.45757
809.7269, 33.16309
810.2090, 33.02668
810.6912, 33.09868
811.1733, 33.58973
811.6554, 33.78565
812.1375, 33.37794
812.6196, 33.02557
813.1017, 32.94114
813.5839, 33.07185
814.0660, 33.46244
814.5481, 34.13464
815.0302, 34.48637
815.5123, 33.95924
815.9944, 33.29951
816.4766, 33.14808
816.9587, 33.28155
817.4408, 33.24615
817.9229, 32.96074
818.4050, 32.67426
818.8871, 32.57832
819.3693, 32.65626
819.8514, 32.91964
820.3335, 33.38088
820.8156, 33.68803
821.2977, 33.72641
821.7798, 33.80944
822.2620, 34.25362
822.7441, 34.84878
823.2262, 34.92891
823.7083, 34.04697
824.1904, 33.69374
824.6725, 34.49775
825.1547, 35.18628
825.6368, 35.06889
826.1189, 34.54718
826.6010, 34.16133
827.0831, 34.01670
827.5652, 33.91734
828.0474, 33.65172
828.5295, 33.43003
829.0116, 33.62233
829.4937, 34.04863
829.9758, 34.20288
830.4579, 33.99602
830.9401, 33.76918
831.4222, 33.79617
831.9043, 33.96953
832.3864, 33.91771
832.8685, 33.54066
833.3506, 33.47048
833.8328, 33.91725
834.3149, 34.37164
834.7971, 34.56644
835.2792, 34.58823
835.7613, 34.59892
836.2434, 34.60752
836.7255, 34.55544
837.2076, 34.31548
837.6898, 34.14554
838.1719, 34.18847
838.6540, 34.36131
839.1361, 34.65458
839.6182, 34.99558
840.1003, 35.10167
840.5825, 34.67467
841.0646, 34.12912
841.5467, 34.07496
842.0288, 34.37437
842.5109, 34.60764
842.9930, 34.71323
843.4752, 34.74668
843.9573, 34.73600
844.4394, 34.69476
844.9215, 34.63032
845.4036, 34.50166
845.8857, 34.57416
846.3679, 34.98693
846.8500, 35.35607
847.3321, 35.57733
847.8142, 35.65952
848.2963, 35.54993
848.7784, 35.26471
849.2606, 35.09676
849.7427, 35.15895
850.2248, 35.27577
850.7069, 35.37399
851.1890, 35.49685
851.6711, 35.75027
852.1533, 36.07204
852.6354, 36.24616
853.1175, 36.15102
853.5996, 36.00495
854.0817, 36.12001
854.5638, 36.36532
855.0460, 36.32090
855.5281, 36.00595
856.0102, 35.88702
856.4923, 36.16992
856.9744, 36.53878
857.4565, 36.57085
857.9387, 36.28263
858.4208, 36.14248
858.9029, 36.18552
859.3850, 36.29472
859.8671, 36.49945
860.3492, 36.70751
860.8314, 36.89692
861.3135, 37.03495
861.7956, 36.99660
862.2777, 36.59462
862.7598, 36.42866
863.2419, 36.93533
863.7241, 37.45067
864.2062, 37.40904
864.6883, 37.10361
865.1704, 37.11978
865.6525, 37.57716
866.1346, 38.00634
866.6168, 38.01924
867.0989, 37.80120
867.5810, 37.58596
868.0631, 37.38903
868.5452, 37.26085
869.0273, 37.21217
869.5095, 37.26253
869.9916, 37.44090
870.4737, 37.68026
870.9558, 37.80264
871.4379, 37.78994
871.9200, 37.74852
872.4022, 37.62220
872.8843, 37.60299
873.3664, 37.82605
873.8485, 38.16286
874.3306, 38.43902
874.8127, 38.65630
875.2949, 38.82990
875.7770, 38.89216
876.2591, 38.99866
876.7412, 39.28667
877.2233, 39.56179
877.7054, 39.63964
878.1876, 39.55253
878.6697, 39.42527
879.1518, 39.28943
879.6339, 39.20465
880.1160, 39.15213
880.5981, 39.22034
881.0803, 39.65257
881.5624, 40.32508
882.0445, 40.81718
882.5266, 40.98689
883.0087, 41.01544
883.4908, 41.08874
883.9730, 41.17650
884.4551, 41.10896
884.9372, 40.86723
885.4193, 40.82768
885.9014, 41.10431
886.3835, 41.42463
886.8657, 41.58805
887.3478, 41.66758
887.8299, 41.87347
888.3120, 42.27587
888.7941, 42.61407
889.2762, 42.94027
889.7584, 43.13976
890.2405, 43.15660
890.7226, 43.04523
891.2047, 42.77217
891.6868, 42.38509
892.1689, 42.19808
892.6511, 42.42389
893.1332, 42.72245
893.6153, 42.90307
894.0974, 43.08439
894.5795, 43.50425
895.0616, 44.03489
895.5438, 44.26811
896.0259, 44.03794
896.5080, 43.68024
896.9901, 43.50232
897.4722, 43.48250
897.9543, 43.64744
898.4365, 43.94786
898.9186, 44.10781
899.4007, 44.04892
899.8828, 43.89896
900.3649, 43.76625
900.8470, 43.63590
901.3292, 43.41441
901.8113, 43.03516
902.2934, 42.93284
902.7755, 43.29334
903.2576, 43.57827
903.7397, 43.39199
904.2219, 43.07253
904.7040, 43.24843
905.1861, 44.03408
905.6682, 44.43278
906.1503, 44.12868
906.6324, 43.83424
907.1146, 43.65744
907.5967, 43.61013
908.0788, 43.83763
908.5609, 44.18964
909.0430, 44.22270
909.5251, 43.32399
910.0073, 43.86194
910.4894, 44.15232
910.9715, 44.20842
911.4536, 43.32855
911.9357, 43.65729
912.4178, 43.50168
912.9000, 43.32619
913.3821, 43.82504
913.8642, 43.08131
914.3463, 43.56946
914.8284, 43.56586
915.3105, 43.78733
915.7927, 43.52144
916.2748, 43.40609
916.7569, 43.77824
917.2390, 43.88045
917.7211, 43.55847
918.2032, 43.79424
918.6854, 43.03348
919.1675, 43.14719
919.6496, 43.63820
920.1317, 43.34072
920.6138, 43.58540
921.0959, 43.62360
921.5781, 42.89797
922.0602, 42.75068
922.5423, 42.82607
923.0244, 43.36629
923.5065, 43.66912
923.9886, 43.41673
924.4708, 43.25135
924.9529, 43.52299
925.4350, 44.00378
925.9171, 44.52010
926.3992, 45.00004
926.8813, 45.09908
927.3635, 44.20388
927.8456, 43.46313
928.3277, 43.66104
928.8098, 44.26880
929.2919, 44.77979
929.7740, 45.14676
930.2562, 45.45804
930.7383, 45.74731
931.2204, 46.04874
931.7025, 46.36949
932.1846, 46.73930
932.6667, 47.23320
933.1489, 47.82568
933.6310, 48.43730
934.1132, 49.04224
934.5953, 49.55676
935.0774, 49.89470
935.5595, 50.19348
936.0416, 50.78221
936.5237, 51.66364
937.0059, 52.53870
937.4880, 53.35762
937.9701, 54.42418
938.4522, 55.96220
938.9343, 57.53221
939.4164, 58.49797
939.8986, 58.93856
940.3807, 60.29504
940.8628, 63.18727
941.3449, 65.76148
941.8270, 67.48414
942.3091, 69.28294
942.7913, 71.63903
943.2734, 74.36311
943.7555, 77.17634
944.2376, 80.06084
944.7197, 83.02895
945.2018, 85.85889
945.6840, 89.04691
946.1661, 92.91700
946.6482, 97.09121
947.1303, 101.3295
947.6124, 105.5675
948.0945, 109.6680
948.5767, 113.5078
949.0588, 117.6903
949.5409, 122.6070
950.0230, 128.0814
950.5051, 134.1593
950.9872, 140.6236
951.4694, 147.1389
951.9515, 153.6635
952.4336, 160.1811
952.9157, 166.6776
953.3978, 173.2245
953.8799, 180.4498
954.3621, 187.6881
954.8442, 193.2971
955.3263, 197.1398
955.8084, 199.4981
956.2905, 200.4851
956.7726, 200.0195
957.2548, 198.0811
957.7369, 194.5419
958.2190, 188.5579
958.7011, 180.0310
959.1832, 170.7252
959.6653, 160.7537
960.1475, 150.2655
960.6296, 139.0212
961.1117, 127.7617
961.5938, 117.8124
962.0759, 109.2076
962.5580, 101.3765
963.0402, 94.41195
963.5223, 88.06298
964.0044, 82.15221
964.4865, 76.99622
964.9686, 73.10851
965.4507, 70.17844
965.9329, 67.15929
966.4150, 63.78052
966.8971, 61.05723
967.3792, 59.52137
967.8613, 58.09593
968.3434, 56.34182
968.8256, 54.53741
969.3077, 52.96399
969.7898, 51.61533
970.2719, 50.32748
970.7540, 48.90166
971.2361, 47.85635
971.7183, 47.78489
972.2004, 47.80427
972.6825, 47.11538
973.1646, 46.08710
973.6467, 45.11549
974.1288, 45.70297
974.6110, 46.04288
975.0931, 46.14851
975.5752, 45.31818
976.0573, 45.69645
976.5394, 45.59037
977.0215, 45.46442
977.5037, 46.01281
977.9858, 45.31860
978.4679, 45.85629
978.9500, 45.90223
979.4321, 46.17323
979.9142, 45.95688
980.3964, 45.65012
980.8785, 45.79980
981.3606, 46.17683
981.8427, 46.79490
982.3248, 47.51939
982.8069, 48.28460
983.2891, 49.02649
983.7712, 49.57855
984.2533, 50.01746
984.7354, 50.99557
985.2175, 52.53084
985.6996, 53.91797
986.1818, 54.96336
986.6639, 56.17590
987.1460, 57.92799
987.6281, 60.03449
988.1102, 62.02057
988.5923, 63.80716
989.0745, 66.21162
989.5566, 69.46486
990.0387, 72.66257
990.5208, 75.46842
991.0029, 78.27536
991.4850, 81.43783
991.9672, 84.83720
992.4493, 87.99168
992.9314, 90.35419
993.4135, 93.77335
993.8956, 98.99574
994.3777, 104.2506
994.8599, 108.8702
995.3420, 113.3885
995.8241, 118.1686
996.3062, 123.2622
996.7883, 129.0631
997.2704, 136.0007
997.7526, 142.9211
998.2347, 149.5849
998.7168, 156.3336
999.1989, 163.7113
999.6810, 171.0896
1000.163, 177.7321
1000.645, 183.6097
1001.127, 188.8854
1001.609, 194.6128
1002.092, 198.1701
1002.574, 198.2234
1003.056, 195.9915
1003.538, 192.2063
1004.020, 186.8968
1004.502, 179.7425
1004.984, 170.8215
1005.466, 161.0456
1005.949, 150.5506
1006.431, 139.9168
1006.913, 129.0113
1007.395, 118.6078
1007.877, 109.8465
1008.359, 102.3924
1008.841, 95.22559
1009.323, 88.06547
1009.805, 81.63904
1010.288, 76.70290
1010.770, 72.65880
1011.252, 68.92845
1011.734, 65.54189
1012.216, 62.57159
1012.698, 60.02028
1013.180, 57.83776
1013.662, 56.00732
1014.145, 54.47045
1014.627, 53.25345
1015.109, 52.21453
1015.591, 51.07259
1016.073, 49.87494
1016.555, 48.72354
1017.037, 47.66289
1017.519, 46.82554
1018.001, 46.28111
1018.484, 46.02284
1018.966, 46.13549
1019.448, 46.48718
1019.930, 46.53188
1020.412, 46.32346
1020.894, 46.43134
1021.376, 46.94628
1021.858, 47.34977
1022.341, 47.32631
1022.823, 47.14910
1023.305, 47.18211
1023.787, 47.45140
1024.269, 48.32508
1024.751, 49.84809
1025.233, 51.09455
1025.715, 51.82455
1026.198, 52.71879
1026.680, 54.25718
1027.162, 56.07249
1027.644, 57.44132
1028.126, 58.35133
1028.608, 59.39402
1029.090, 60.57851
1029.572, 61.85426
1030.054, 63.27786
1030.536, 64.57986
1031.019, 65.56374
1031.501, 66.33532
1031.983, 67.17857
1032.465, 68.16312
1032.947, 68.63653
1033.429, 68.56913
1033.911, 68.07690
1034.393, 67.22489
1034.876, 65.86157
1035.358, 63.77351
1035.840, 61.15978
1036.322, 58.41539
1036.804, 55.35661
1037.286, 53.03886
1037.768, 51.99748
1038.250, 50.71893
1038.733, 48.56841
1039.215, 46.46807
1039.697, 45.13032
1040.179, 44.31525
1040.661, 43.40032
1041.143, 42.25660
1041.625, 41.48424
1042.107, 41.34202
1042.589, 41.21586
1043.072, 41.03266
1043.554, 40.78473
1044.036, 40.29559
1044.518, 39.77263
1045.000, 39.77420
1045.482, 40.50206
1045.964, 41.00537
1046.446, 40.87743
1046.928, 40.98186
1047.411, 41.79275
1047.893, 42.67266
1048.375, 43.03612
1048.857, 43.13177
1049.339, 43.61110
1049.821, 44.62425
1050.303, 45.56110
1050.785, 46.22979
1051.268, 46.94135
1051.750, 48.00792
1052.232, 48.95671
1052.714, 49.31229
1053.196, 49.28006
1053.678, 49.38883
1054.160, 49.76913
1054.642, 49.89950
1055.125, 49.68177
1055.607, 49.16478
1056.089, 48.22887
1056.571, 47.12536
1057.053, 46.07541
1057.535, 45.01488
1058.017, 43.71872
1058.499, 42.11850
1058.981, 40.64838
1059.464, 39.46476
1059.946, 38.41525
1060.428, 37.54899
1060.910, 36.68663
1061.392, 35.57216
1061.874, 34.37451
1062.356, 33.44893
1062.838, 32.86950
1063.320, 32.39491
1063.803, 31.99964
1064.285, 31.61237
1064.767, 31.20146
1065.249, 30.78734
1065.731, 30.37601
1066.213, 29.98172
1066.695, 29.65102
1067.177, 29.39064
1067.660, 29.05793
1068.142, 28.41022
1068.624, 27.92100
1069.106, 27.97612
1069.588, 28.13077
1070.070, 27.96968
1070.552, 27.64665
1071.034, 27.50879
1071.516, 27.60992
1071.999, 27.67711
1072.481, 27.61869
1072.963, 27.47282
1073.445, 27.05115
1073.927, 26.74443
1074.409, 27.02784
1074.891, 27.58164
1075.373, 27.91196
1075.855, 27.92154
1076.338, 27.68245
1076.820, 27.01150
1077.302, 26.44757
1077.784, 26.33239
1078.266, 26.34547
1078.748, 26.28044
1079.230, 26.15263
1079.712, 25.97445
1080.195, 25.77646
1080.677, 25.70403
1081.159, 25.90964
1081.641, 26.03842
1082.123, 25.81155
1082.605, 25.56321
1083.087, 25.58849
1083.569, 25.71185
1084.052, 25.67786
1084.534, 25.48302
1085.016, 25.27614
1085.498, 25.05600
1085.980, 24.98062
1086.462, 25.34156
1086.944, 25.62331
1087.426, 25.32352
1087.908, 24.87051
1088.391, 24.78246
1088.873, 25.03890
1089.355, 25.35515
1089.837, 25.66489
1090.319, 25.96749
1090.801, 26.37893
1091.283, 26.64750
1091.765, 26.55419
1092.248, 26.31095
1092.730, 26.13875
1093.212, 26.00808
1093.694, 25.71102
1094.176, 25.14245
1094.658, 24.89246
1095.140, 25.60654
1095.622, 26.12802
1096.104, 25.65108
1096.587, 25.01319
1097.069, 24.95690
1097.551, 25.31013
1098.033, 25.66598
1098.515, 25.96045
1098.997, 26.02875
1099.479, 25.52966
1099.961, 25.20038
1100.443, 25.49893
1100.926, 25.84069
1101.408, 25.74711
1101.890, 25.44823
1102.372, 25.32889
1102.854, 25.42926
1103.336, 25.59299
1103.818, 25.97732
1104.300, 26.13909
1104.783, 25.71744
1105.265, 25.34795
1105.747, 25.43067
1106.229, 25.72402
1106.711, 25.99829
1107.193, 26.20509
1107.675, 26.15597
1108.157, 25.55570
1108.640, 25.22522
1109.122, 25.52081
1109.604, 25.78799
1110.086, 25.76329
1110.568, 25.60065
1111.050, 25.35203
1111.532, 25.09208
1112.014, 25.12992
1112.496, 25.78542
1112.979, 25.89419
1113.461, 24.76614
1113.943, 23.96950
1114.425, 24.08704
1114.907, 24.44503
1115.389, 24.68424
1115.871, 24.78498
1116.353, 24.65524
1116.835, 24.21439
1117.318, 24.02251
1117.800, 24.13803
1118.282, 24.40992
1118.764, 25.00292
1119.246, 25.45721
1119.728, 25.41393
1120.210, 25.18863
1120.692, 25.29529
1121.175, 25.72341
1121.657, 25.91595
1122.139, 25.85057
1122.621, 25.56082
1123.103, 24.81169
1123.585, 24.46409
1124.067, 25.08957
1124.549, 25.86101
1125.031, 25.82079
1125.514, 25.16007
1125.996, 24.78144
1126.478, 24.73690
1126.960, 24.68554
1127.442, 24.59717
1127.924, 24.62232
1128.406, 24.84282
1128.888, 25.03250
1129.370, 24.99359
1129.853, 24.84029
1130.335, 24.83431
1130.817, 24.97551
1131.299, 25.21292
1131.781, 25.56264
1132.263, 25.64576
1132.745, 25.36948
1133.227, 25.13666
1133.710, 25.19128
1134.192, 25.31740
1134.674, 25.18203
1135.156, 24.86933
1135.638, 24.69592
1136.120, 24.66435
1136.602, 24.88750
1137.084, 25.33178
1137.567, 25.48774
1138.049, 25.16114
1138.531, 24.73918
1139.013, 24.58158
1139.495, 24.58687
1139.977, 24.55870
1140.459, 24.53095
1140.941, 24.66056
1141.423, 24.88454
1141.906, 24.89816
1142.388, 24.66299
1142.870, 24.48024
1143.352, 24.54264
1143.834, 24.69747
1144.316, 24.85579
1144.798, 24.92269
1145.280, 24.57300
1145.762, 24.09779
1146.245, 24.23255
1146.727, 24.83908
1147.209, 25.00279
1147.691, 24.37604
1148.173, 23.86445
1148.655, 24.35740
1149.137, 25.03027
1149.619, 25.19740
1150.102, 25.11586
1150.584, 25.01233
1151.066, 24.92459
1151.548, 24.84632
1152.030, 24.78362
1152.512, 24.78913
1152.994, 24.91630
1153.476, 25.05277
1153.958, 25.21910
1154.441, 25.29248
1154.923, 25.09219
1155.405, 24.82150
1155.887, 24.70975
1156.369, 24.75562
1156.851, 24.89433
1157.333, 25.20035
1157.815, 25.25485
1158.297, 24.65199
1158.780, 24.21441
1159.262, 24.33978
1159.744, 24.58349
1160.226, 24.62096
1160.708, 24.55492
1161.190, 24.59058
1161.672, 24.73585
1162.154, 24.91474
1162.637, 25.24122
1163.119, 25.39392
1163.601, 25.41384
1164.083, 25.10700
1164.565, 24.07829
1165.047, 23.16031
1165.529, 23.32987
1166.011, 24.28818
1166.494, 24.82778
1166.976, 24.88431
1167.458, 24.83455
1167.940, 24.65700
1168.422, 24.47621
1168.904, 24.31895
1169.386, 24.16823
1169.868, 24.00067
1170.350, 23.88879
1170.833, 23.96758
1171.315, 24.20661
1171.797, 24.51312
1172.279, 24.85110
1172.761, 24.69041
1173.243, 24.02936
1173.725, 23.67588
1174.207, 23.93570
1174.689, 24.38685
1175.172, 24.69075
1175.654, 24.82196
1176.136, 24.64325
1176.618, 24.30085
1177.100, 24.08133
1177.582, 24.00650
1178.064, 24.16072
1178.546, 24.48339
1179.029, 24.63915
1179.511, 24.45660
1179.993, 24.20827
1180.475, 24.11715
1180.957, 24.08237
1181.439, 24.02481
1181.921, 23.94740
1182.403, 23.79382
1182.885, 23.64635
1183.368, 23.69767
1183.850, 23.97066
1184.332, 24.24410
1184.814, 24.46753
1185.296, 24.60093
1185.778, 24.68699
1186.260, 24.60850
1186.742, 24.06397
1187.225, 23.49810
1187.707, 23.48472
1188.189, 23.87159
1188.671, 24.01027
1189.153, 23.74804
1189.635, 23.59744
1190.117, 23.68561
1190.599, 23.73941
1191.082, 23.66032
1191.564, 23.62488
1192.046, 23.76594
1192.528, 23.95927
1193.010, 24.03818
1193.492, 24.01190
1193.974, 23.95679
1194.456, 23.87155
1194.938, 23.77589
1195.421, 23.68509
1195.903, 23.45402
1196.385, 22.99957
1196.867, 22.69816
1197.349, 22.85018
1197.831, 23.24014
1198.313, 23.52323
1198.795, 23.69031
1199.277, 23.63471
1199.760, 23.40936
1200.242, 23.27958
1200.724, 23.27787
1201.206, 23.37390
1201.688, 23.54666
1202.170, 23.70723
1202.652, 23.78879
1203.134, 23.80491
1203.617, 23.77941
1204.099, 23.69477
1204.581, 23.43552
1205.063, 23.14182
1205.545, 23.07813
1206.027, 23.24267
1206.509, 23.48271
1206.991, 23.75368
1207.474, 23.96305
1207.956, 24.07683
1208.438, 24.09551
1208.920, 23.91366
1209.402, 23.74242
1209.884, 23.89981
1210.366, 24.09330
1210.848, 23.65896
1211.330, 22.68843
1211.813, 22.49183
1212.295, 23.99494
1212.777, 24.66291
1213.259, 23.83033
1213.741, 23.15226
1214.223, 23.08628
1214.705, 23.21807
1215.187, 23.26908
1215.669, 23.33964
1216.152, 23.66885
1216.634, 24.21841
1217.116, 24.24233
1217.598, 23.67733
1218.080, 23.40186
1218.562, 23.51357
1219.044, 23.65391
1219.526, 23.70069
1220.009, 23.63508
1220.491, 23.42786
1220.973, 23.17227
1221.455, 23.01912
1221.937, 22.94858
1222.419, 22.97534
1222.901, 23.02306
1223.383, 22.79601
1223.865, 22.38151
1224.348, 22.23239
1224.830, 22.49263
1225.312, 22.87424
1225.794, 23.26682
1226.276, 23.55356
1226.758, 23.58419
1227.240, 23.53414
1227.722, 23.57340
1228.204, 23.61713
1228.687, 23.47513
1229.169, 23.22806
1229.651, 23.22479
1230.133, 23.61359
1230.615, 23.74178
1231.097, 23.27315
1231.579, 22.86293
1232.061, 22.55004
1232.544, 22.43813
1233.026, 22.64884
1233.508, 23.00632
1233.990, 23.36335
1234.472, 23.68001
1234.954, 23.77001
1235.436, 23.60390
1235.918, 23.38416
1236.401, 23.09376
1236.883, 22.92834
1237.365, 22.92886
1237.847, 23.08196
1238.329, 23.38904
1238.811, 23.68690
1239.293, 23.78039
1239.775, 23.74830
1240.257, 23.72684
1240.740, 23.72200
1241.222, 23.82862
1241.704, 23.94410
1242.186, 23.70394
1242.668, 23.15490
1243.150, 22.80136
1243.632, 22.86815
1244.114, 23.05853
1244.596, 23.35389
1245.079, 23.48348
1245.561, 23.08900
1246.043, 22.64097
1246.525, 22.52799
1247.007, 22.63497
1247.489, 22.77942
1247.971, 22.93918
1248.453, 23.11318
1248.936, 23.35051
1249.418, 23.47181
1249.900, 23.41386
1250.382, 23.35897
1250.864, 23.33605
1251.346, 23.34075
1251.828, 23.37897
1252.310, 23.43054
1252.792, 23.48825
1253.275, 23.51558
1253.757, 23.26864
1254.239, 22.79663
1254.721, 22.83138
1255.203, 23.31800
1255.685, 23.49828
1256.167, 23.23540
1256.649, 22.90863
1257.131, 22.71300
1257.614, 22.66483
1258.096, 22.90310
1258.578, 23.13981
1259.060, 22.88634
1259.542, 22.56195
1260.024, 22.77764
1260.506, 23.26335
1260.988, 23.54340
1261.471, 23.55717
1261.953, 23.37241
1262.435, 22.89121
1262.917, 22.76254
1263.399, 23.60228
1263.881, 24.15887
1264.363, 23.93118
1264.845, 23.52618
1265.328, 23.04454
1265.810, 22.78642
1266.292, 23.21282
1266.774, 24.08583
1267.256, 24.41955
1267.738, 24.15325
1268.220, 23.96190
1268.702, 23.84771
1269.184, 23.78409
1269.667, 23.76163
1270.149, 23.58005
1270.631, 23.15030
1271.113, 22.83346
1271.595, 22.99847
1272.077, 23.40202
1272.559, 23.79594
1273.041, 24.10269
1273.523, 24.18447
1274.006, 24.10319
1274.488, 23.95399
1274.970, 23.76009
1275.452, 23.51299
1275.934, 23.21067
1276.416, 22.93970
1276.898, 22.69535
1277.380, 22.54462
1277.863, 22.44685
1278.345, 22.52088
1278.827, 23.07901
1279.309, 23.57037
1279.791, 23.43878
1280.273, 23.00485
1280.755, 23.00448
1281.237, 23.43077
1281.719, 23.68019
1282.202, 23.74215
1282.684, 23.73903
1283.166, 23.68422
1283.648, 23.77999
1284.130, 24.08270
1284.612, 24.37879
1285.094, 24.53667
1285.576, 24.49024
1286.059, 24.02139
1286.541, 23.42043
1287.023, 23.01756
1287.505, 22.82315
##END=



