##NAMES=Paramontroseite
##RRUFFID=R050391
##IDEAL CHEMISTRY=V^4+^O_2_
##LOCALITY=J.J. mine, Buell Canyon District, Montrose County, Colorado, USA
##OWNER=RRUFF
##SOURCE=University of Arizona Mineral Museum
##DESCRIPTION=Black massive, radioactive
##STATUS=The identification of this mineral has been confirmed by X-ray diffraction and chemical analysis
##URL=rruff.info/R050391
##MEASURED CHEMISTRY=gray phase: (V^4+^_0.82_Fe^3+^_0.09_U^6+^_0.04_V^5+^_0.03_Al_0.02_)_Î£=1_O_2_; lightest phase is uranophane
128.7333, 801.5518
129.2154, 851.3665
129.6975, 907.1815
130.1796, 972.1476
130.6617, 1043.038
131.1439, 1116.263
131.6260, 1190.464
132.1081, 1264.427
132.5902, 1328.500
133.0723, 1385.807
133.5544, 1428.777
134.0366, 1452.348
134.5187, 1460.301
135.0008, 1456.878
135.4829, 1443.276
135.9650, 1420.593
136.4471, 1414.137
136.9293, 1438.317
137.4114, 1462.265
137.8935, 1475.357
138.3756, 1480.575
138.8577, 1485.711
139.3398, 1495.423
139.8220, 1509.764
140.3041, 1538.122
140.7862, 1585.145
141.2683, 1638.063
141.7504, 1691.695
142.2325, 1746.150
142.7147, 1804.727
143.1968, 1872.618
143.6789, 1949.345
144.1610, 2008.113
144.6431, 2039.186
145.1252, 2062.694
145.6074, 2090.943
146.0895, 2123.346
146.5716, 2151.902
147.0537, 2172.750
147.5358, 2183.689
148.0179, 2174.615
148.5001, 2132.852
148.9822, 2080.989
149.4643, 2035.522
149.9464, 1996.828
150.4285, 1955.498
150.9106, 1902.607
151.3928, 1838.838
151.8749, 1775.795
152.3570, 1712.753
152.8391, 1651.565
153.3212, 1594.065
153.8033, 1540.598
154.2855, 1488.280
154.7676, 1432.725
155.2497, 1375.777
155.7318, 1326.133
156.2139, 1292.014
156.6960, 1262.495
157.1782, 1221.060
157.6603, 1164.296
158.1424, 1114.024
158.6245, 1093.362
159.1066, 1093.010
159.5887, 1092.271
160.0709, 1086.691
160.5530, 1077.613
161.0351, 1065.111
161.5172, 1047.401
161.9993, 1033.240
162.4814, 1032.285
162.9636, 1039.299
163.4457, 1045.400
163.9278, 1049.156
164.4099, 1049.683
164.8920, 1043.874
165.3741, 1029.196
165.8563, 1015.349
166.3384, 1008.997
166.8205, 1007.459
167.3026, 1006.694
167.7847, 1005.955
168.2668, 1004.673
168.7490, 1001.173
169.2311, 994.2458
169.7132, 987.8198
170.1953, 985.8740
170.6774, 985.5265
171.1595, 981.9377
171.6417, 971.4421
172.1238, 956.8918
172.6059, 944.9255
173.0880, 934.8561
173.5701, 929.1972
174.0522, 930.1001
174.5344, 935.2452
175.0165, 941.7484
175.4986, 949.1194
175.9807, 956.4162
176.4628, 961.4097
176.9449, 964.8112
177.4271, 964.1066
177.9092, 955.2680
178.3913, 943.1487
178.8734, 934.2944
179.3555, 931.9603
179.8376, 934.7943
180.3197, 939.3767
180.8019, 948.1436
181.2840, 954.1396
181.7661, 953.1423
182.2482, 949.2148
182.7303, 947.6276
183.2124, 951.4011
183.6946, 958.3758
184.1767, 962.0705
184.6588, 959.7964
185.1409, 958.8799
185.6230, 962.1635
186.1051, 967.3190
186.5873, 971.7062
187.0694, 974.0576
187.5515, 975.0589
188.0336, 976.2165
188.5157, 975.8805
188.9978, 978.9085
189.4800, 989.2917
189.9621, 1001.726
190.4442, 1010.625
190.9263, 1013.313
191.4084, 1012.043
191.8905, 1012.130
192.3727, 1013.979
192.8548, 1016.630
193.3369, 1020.052
193.8190, 1023.977
194.3011, 1029.066
194.7832, 1035.654
195.2654, 1041.391
195.7475, 1041.108
196.2296, 1033.004
196.7117, 1021.579
197.1938, 1004.186
197.6759, 986.0844
198.1581, 972.2338
198.6402, 964.2023
199.1223, 959.3965
199.6044, 953.2724
200.0865, 946.0211
200.5686, 936.7753
201.0508, 923.6522
201.5329, 909.9867
202.0150, 897.8752
202.4971, 888.0060
202.9792, 880.7469
203.4613, 877.4553
203.9435, 881.6539
204.4256, 881.7692
204.9077, 875.1131
205.3898, 866.3997
205.8719, 858.1328
206.3540, 851.0888
206.8362, 845.3126
207.3183, 841.2767
207.8004, 840.5623
208.2825, 837.5362
208.7646, 828.7490
209.2467, 820.5313
209.7289, 817.8073
210.2110, 820.4261
210.6931, 823.6085
211.1752, 821.2184
211.6573, 810.8962
212.1395, 803.7565
212.6216, 800.3917
213.1037, 799.4349
213.5858, 801.8634
214.0679, 806.6713
214.5500, 810.8359
215.0322, 810.9075
215.5143, 805.9093
215.9964, 803.3445
216.4785, 805.0701
216.9606, 807.4550
217.4427, 809.8126
217.9249, 811.7495
218.4070, 812.7625
218.8891, 812.3021
219.3712, 810.3219
219.8533, 808.5430
220.3354, 806.8525
220.8176, 805.4950
221.2997, 804.1074
221.7818, 803.1181
222.2639, 803.6667
222.7460, 807.0317
223.2281, 812.6568
223.7103, 814.2036
224.1924, 805.6848
224.6745, 799.4701
225.1566, 798.6628
225.6387, 801.6388
226.1208, 806.0640
226.6030, 810.7537
227.0851, 815.5023
227.5672, 819.5934
228.0493, 824.7932
228.5314, 826.5895
229.0135, 820.6445
229.4957, 812.4370
229.9778, 808.6954
230.4599, 812.5713
230.9420, 820.8191
231.4241, 825.7723
231.9062, 827.7083
232.3884, 825.1735
232.8705, 813.5932
233.3526, 800.5876
233.8347, 792.6302
234.3168, 791.8866
234.7989, 795.9346
235.2811, 801.4136
235.7632, 810.4452
236.2453, 815.7053
236.7274, 815.2537
237.2095, 812.3381
237.6916, 808.3146
238.1738, 803.7624
238.6559, 799.5601
239.1380, 795.6914
239.6201, 790.3629
240.1022, 792.3199
240.5843, 811.5791
241.0665, 830.2329
241.5486, 839.7803
242.0307, 840.0333
242.5128, 835.7039
242.9949, 829.8251
243.4770, 821.9256
243.9592, 818.2506
244.4413, 825.3530
244.9234, 830.5444
245.4055, 826.7246
245.8876, 816.7840
246.3697, 808.6747
246.8519, 808.4586
247.3340, 815.3040
247.8161, 821.7521
248.2982, 827.9521
248.7803, 833.5015
249.2624, 837.8770
249.7446, 841.6702
250.2267, 846.1375
250.7088, 852.6971
251.1909, 859.5934
251.6730, 861.2780
252.1551, 855.0820
252.6373, 848.9803
253.1194, 843.7437
253.6015, 840.6064
254.0836, 841.5760
254.5657, 847.8761
255.0478, 856.5961
255.5300, 862.4023
256.0121, 863.6547
256.4942, 868.2311
256.9763, 883.7578
257.4584, 900.3910
257.9406, 910.5664
258.4227, 912.5576
258.9048, 911.5639
259.3869, 912.3944
259.8690, 915.0851
260.3511, 918.8561
260.8333, 923.0072
261.3154, 928.9595
261.7975, 939.0491
262.2796, 952.9023
262.7617, 965.3655
263.2438, 970.4936
263.7260, 970.1528
264.2081, 975.5787
264.6902, 990.2177
265.1723, 1007.429
265.6544, 1023.626
266.1365, 1038.571
266.6187, 1050.975
267.1008, 1057.527
267.5829, 1061.624
268.0650, 1071.684
268.5471, 1090.023
269.0292, 1107.332
269.5114, 1113.098
269.9935, 1113.674
270.4756, 1120.451
270.9577, 1140.152
271.4398, 1164.135
271.9219, 1182.065
272.4041, 1193.760
272.8862, 1206.751
273.3683, 1224.828
273.8504, 1246.726
274.3325, 1269.297
274.8146, 1292.119
275.2968, 1316.223
275.7789, 1345.350
276.2610, 1377.234
276.7431, 1402.038
277.2252, 1414.396
277.7073, 1420.555
278.1895, 1429.936
278.6716, 1441.649
279.1537, 1458.630
279.6358, 1488.779
280.1179, 1523.360
280.6000, 1546.236
281.0822, 1553.164
281.5643, 1552.982
282.0464, 1555.706
282.5285, 1561.747
283.0106, 1565.220
283.4927, 1566.500
283.9749, 1564.264
284.4570, 1556.833
284.9391, 1544.252
285.4212, 1528.437
285.9033, 1510.694
286.3854, 1490.966
286.8676, 1469.986
287.3497, 1443.666
287.8318, 1420.104
288.3139, 1407.969
288.7960, 1402.221
289.2781, 1388.698
289.7603, 1358.513
290.2424, 1316.365
290.7245, 1282.598
291.2066, 1262.188
291.6887, 1243.274
292.1708, 1224.792
292.6530, 1206.624
293.1351, 1187.994
293.6172, 1168.701
294.0993, 1150.602
294.5814, 1137.312
295.0635, 1132.374
295.5457, 1125.728
296.0278, 1114.085
296.5099, 1103.253
296.9920, 1098.457
297.4741, 1099.540
297.9562, 1101.867
298.4384, 1100.745
298.9205, 1095.819
299.4026, 1089.724
299.8847, 1081.858
300.3668, 1073.475
300.8489, 1063.211
301.3311, 1052.751
301.8131, 1045.905
302.2953, 1045.910
302.7774, 1050.739
303.2595, 1049.546
303.7416, 1036.003
304.2237, 1025.718
304.7058, 1026.393
305.1880, 1029.687
305.6701, 1025.706
306.1522, 1010.608
306.6343, 990.8303
307.1164, 976.6368
307.5985, 969.0228
308.0807, 963.5249
308.5628, 959.5986
309.0449, 957.5463
309.5270, 959.7147
310.0091, 965.5408
310.4912, 968.9597
310.9734, 963.1990
311.4555, 949.1907
311.9376, 937.1108
312.4197, 927.4213
312.9018, 920.3294
313.3839, 917.3558
313.8661, 916.8806
314.3482, 914.6308
314.8303, 906.8573
315.3124, 896.9312
315.7945, 891.3816
316.2766, 890.9986
316.7588, 890.3270
317.2409, 885.1201
317.7230, 878.2682
318.2051, 875.2204
318.6872, 879.8149
319.1693, 882.6786
319.6515, 872.1788
320.1336, 852.4240
320.6157, 843.4709
321.0978, 856.1332
321.5799, 876.2099
322.0620, 879.2711
322.5442, 862.8485
323.0263, 849.6599
323.5084, 847.6802
323.9905, 851.7934
324.4726, 856.9226
324.9547, 862.1887
325.4369, 864.5876
325.9190, 859.9326
326.4011, 847.2724
326.8832, 841.0381
327.3653, 846.6504
327.8474, 853.4153
328.3296, 855.6443
328.8117, 853.9760
329.2938, 850.9918
329.7759, 847.8823
330.2580, 845.1638
330.7401, 845.2964
331.2223, 855.9349
331.7044, 859.8967
332.1865, 848.6555
332.6686, 832.9514
333.1507, 824.7007
333.6328, 827.3845
334.1150, 835.5215
334.5971, 841.5668
335.0792, 846.2542
335.5613, 846.4517
336.0434, 836.8258
336.5255, 827.9590
337.0077, 826.8976
337.4898, 831.9170
337.9719, 835.9215
338.4540, 832.6416
338.9361, 823.2139
339.4182, 818.0336
339.9004, 819.6956
340.3825, 822.0469
340.8646, 823.9160
341.3467, 825.1113
341.8288, 825.0164
342.3109, 823.1071
342.7931, 821.2457
343.2752, 822.7878
343.7573, 828.3669
344.2394, 833.0111
344.7215, 837.4753
345.2036, 838.7698
345.6858, 831.9506
346.1679, 817.2173
346.6500, 806.0964
347.1321, 808.9488
347.6142, 820.9064
348.0963, 828.6778
348.5785, 830.6446
349.0606, 829.4169
349.5427, 825.0488
350.0248, 818.8528
350.5069, 814.9003
350.9890, 814.3461
351.4712, 815.9301
351.9533, 820.2733
352.4354, 826.5126
352.9175, 829.9260
353.3996, 827.6585
353.8817, 821.9241
354.3639, 818.4939
354.8460, 817.9969
355.3281, 817.8751
355.8102, 819.1476
356.2923, 819.7938
356.7744, 816.0514
357.2566, 807.4802
357.7387, 799.1482
358.2208, 796.7968
358.7029, 801.4465
359.1850, 806.8970
359.6671, 815.7635
360.1493, 822.7361
360.6314, 825.3168
361.1135, 824.1393
361.5956, 820.1996
362.0777, 813.6590
362.5598, 806.1905
363.0420, 804.1160
363.5241, 811.3470
364.0062, 817.9312
364.4883, 824.5209
364.9704, 828.9452
365.4525, 828.1028
365.9347, 821.8718
366.4168, 814.8600
366.8989, 813.0932
367.3810, 817.0447
367.8631, 817.6517
368.3452, 809.6057
368.8274, 804.2908
369.3095, 810.1138
369.7916, 822.9023
370.2737, 832.4210
370.7558, 832.3268
371.2379, 827.5217
371.7201, 826.9683
372.2022, 831.3522
372.6843, 833.0532
373.1664, 825.3919
373.6485, 815.4281
374.1306, 814.6110
374.6128, 826.0132
375.0949, 836.6932
375.5770, 838.9641
376.0591, 835.9037
376.5412, 833.9827
377.0233, 834.7656
377.5055, 834.4851
377.9876, 827.4874
378.4697, 812.7747
378.9518, 807.3235
379.4339, 821.7513
379.9160, 836.1417
380.3982, 836.1225
380.8803, 825.9128
381.3624, 819.1174
381.8445, 823.5144
382.3266, 834.8714
382.8087, 840.3937
383.2909, 834.1202
383.7730, 829.4107
384.2551, 823.9563
384.7372, 821.8241
385.2193, 828.7032
385.7014, 844.0553
386.1836, 860.0950
386.6657, 868.5675
387.1478, 869.0734
387.6299, 869.0209
388.1120, 867.3379
388.5941, 866.3657
389.0763, 867.4039
389.5584, 869.4963
390.0405, 870.8574
390.5226, 870.3763
391.0047, 869.9211
391.4868, 872.9510
391.9690, 879.8703
392.4511, 886.4487
392.9332, 892.6927
393.4153, 896.9959
393.8974, 896.5583
394.3795, 891.4901
394.8617, 888.8657
395.3438, 891.8915
395.8259, 899.6299
396.3080, 912.7900
396.7901, 931.8781
397.2722, 947.9932
397.7544, 954.1389
398.2365, 951.7922
398.7186, 950.8616
399.2007, 953.0579
399.6828, 954.7340
400.1649, 952.2566
400.6471, 948.8430
401.1292, 950.4677
401.6113, 959.1403
402.0934, 971.1503
402.5755, 981.6144
403.0576, 991.6573
403.5398, 995.9373
404.0219, 990.5318
404.5040, 983.8925
404.9861, 979.6521
405.4682, 977.8362
405.9503, 978.0014
406.4325, 980.4722
406.9146, 983.3413
407.3967, 978.8313
407.8788, 961.2604
408.3609, 948.0560
408.8430, 946.0776
409.3252, 947.0389
409.8073, 945.0111
410.2894, 938.9526
410.7715, 930.5333
411.2536, 919.2985
411.7357, 906.3512
412.2179, 898.1619
412.7000, 896.3895
413.1821, 896.4602
413.6642, 896.0427
414.1463, 895.1788
414.6284, 893.9319
415.1106, 892.9797
415.5927, 890.8223
416.0748, 886.1133
416.5569, 879.2767
417.0390, 870.6699
417.5211, 859.6256
418.0033, 849.9297
418.4854, 848.0045
418.9675, 857.1418
419.4496, 863.0332
419.9317, 864.3972
420.4138, 863.0046
420.8960, 858.1147
421.3781, 851.2720
421.8602, 846.8084
422.3423, 847.8689
422.8244, 852.6771
423.3065, 853.5258
423.7887, 848.2239
424.2708, 842.1270
424.7529, 833.1412
425.2350, 825.4131
425.7171, 822.6699
426.1992, 825.2173
426.6814, 830.2749
427.1635, 837.0601
427.6456, 845.0751
428.1277, 846.9867
428.6098, 839.5735
429.0919, 832.2175
429.5741, 829.8712
430.0562, 830.6006
430.5383, 831.6297
431.0204, 831.8159
431.5025, 833.2399
431.9846, 840.2307
432.4668, 850.3409
432.9489, 853.7082
433.4310, 846.4953
433.9131, 836.4606
434.3952, 833.3455
434.8773, 838.1531
435.3595, 839.2297
435.8416, 831.8114
436.3237, 824.2415
436.8058, 820.9822
437.2879, 821.7806
437.7701, 826.1562
438.2522, 834.2617
438.7343, 843.1516
439.2164, 844.9571
439.6985, 834.0888
440.1806, 825.9464
440.6628, 819.5277
441.1449, 816.5580
441.6270, 820.9382
442.1091, 830.4803
442.5912, 837.1628
443.0733, 832.7175
443.5555, 821.5565
444.0376, 822.8059
444.5197, 842.4956
445.0018, 857.6505
445.4839, 852.1253
445.9660, 841.6031
446.4482, 843.8823
446.9303, 863.2116
447.4124, 878.5786
447.8945, 871.4939
448.3766, 852.4244
448.8587, 844.2453
449.3409, 850.5239
449.8230, 859.3105
450.3051, 861.0178
450.7872, 856.6348
451.2693, 856.6017
451.7514, 866.0256
452.2336, 873.5168
452.7157, 872.8422
453.1978, 868.8823
453.6799, 869.8051
454.1620, 877.5392
454.6441, 885.2595
455.1263, 883.2108
455.6084, 868.6870
456.0905, 859.7676
456.5726, 861.0777
457.0547, 863.6129
457.5368, 863.9840
458.0190, 863.9973
458.5011, 867.3279
458.9832, 876.0270
459.4653, 886.1558
459.9474, 892.9475
460.4295, 896.3886
460.9117, 894.8900
461.3938, 883.7905
461.8759, 873.6428
462.3580, 876.9623
462.8401, 890.7249
463.3222, 898.7045
463.8044, 889.5213
464.2865, 878.2274
464.7686, 880.1802
465.2507, 892.3060
465.7328, 901.0371
466.2149, 899.9272
466.6971, 894.3420
467.1792, 894.6807
467.6613, 903.9235
468.1434, 913.3235
468.6255, 926.0457
469.1076, 936.2223
469.5898, 939.5690
470.0719, 937.0206
470.5540, 931.5541
471.0361, 924.5955
471.5182, 917.1873
472.0003, 911.7175
472.4825, 907.0920
472.9646, 907.5372
473.4467, 923.9861
473.9288, 938.5309
474.4109, 936.9688
474.8930, 920.0912
475.3752, 902.8073
475.8573, 891.0994
476.3394, 885.4213
476.8215, 889.3894
477.3036, 903.1495
477.7857, 914.3955
478.2679, 917.2905
478.7500, 913.5266
479.2321, 906.0922
479.7142, 892.2042
480.1963, 882.1689
480.6784, 879.9221
481.1606, 881.0366
481.6427, 882.8970
482.1248, 884.4492
482.6069, 883.6547
483.0890, 878.5698
483.5711, 870.3235
484.0533, 865.1066
484.5354, 864.0402
485.0175, 864.3602
485.4996, 867.6011
485.9817, 870.5339
486.4638, 869.6260
486.9460, 865.0312
487.4281, 861.1098
487.9102, 863.9337
488.3923, 869.9316
488.8744, 866.3958
489.3565, 851.2712
489.8387, 837.9785
490.3208, 833.0193
490.8029, 834.5436
491.2850, 838.6277
491.7671, 847.2947
492.2492, 852.7139
492.7314, 849.6522
493.2135, 843.3756
493.6956, 839.6537
494.1777, 839.0554
494.6598, 839.4901
495.1419, 839.6028
495.6241, 839.2299
496.1062, 837.2939
496.5883, 833.4633
497.0704, 828.3856
497.5525, 820.3684
498.0346, 812.3775
498.5168, 806.8959
498.9989, 804.1480
499.4810, 802.7399
499.9631, 802.0386
500.4452, 801.7376
500.9273, 800.7733
501.4095, 799.1877
501.8916, 796.6245
502.3737, 791.6451
502.8558, 786.3673
503.3379, 783.3996
503.8200, 782.2762
504.3022, 785.7374
504.7843, 800.7081
505.2664, 817.4321
505.7485, 823.1236
506.2306, 817.9652
506.7127, 811.4406
507.1949, 809.9048
507.6770, 812.0082
508.1591, 811.7794
508.6412, 805.4641
509.1233, 802.3808
509.6054, 806.2163
510.0876, 810.8386
510.5697, 810.4639
511.0518, 805.9741
511.5339, 803.7215
512.0161, 809.8104
512.4982, 820.4206
512.9803, 824.5140
513.4624, 820.9836
513.9445, 817.3889
514.4266, 815.9438
514.9088, 816.0707
515.3909, 817.4858
515.8730, 820.4236
516.3551, 821.7256
516.8372, 820.1008
517.3193, 816.6873
517.8015, 809.6843
518.2836, 801.2198
518.7657, 800.1147
519.2478, 812.0070
519.7299, 829.7420
520.2120, 835.6927
520.6942, 820.6211
521.1763, 811.3165
521.6584, 811.1885
522.1405, 812.9267
522.6226, 813.8550
523.1047, 813.3647
523.5869, 810.8267
524.0690, 805.3613
524.5511, 798.9033
525.0332, 793.6028
525.5153, 789.4803
525.9974, 790.7404
526.4796, 801.8711
526.9617, 812.9993
527.4438, 810.5325
527.9259, 796.4781
528.4080, 788.8286
528.8901, 797.2027
529.3723, 805.6066
529.8544, 803.5432
530.3365, 794.8725
530.8186, 787.5748
531.3007, 784.3358
531.7828, 782.0732
532.2650, 775.5231
532.7471, 762.5947
533.2292, 758.5663
533.7113, 777.4985
534.1934, 789.0858
534.6755, 777.4369
535.1577, 755.7112
535.6398, 741.3910
536.1219, 739.5154
536.6040, 744.5503
537.0861, 755.5425
537.5682, 769.4420
538.0504, 775.4612
538.5325, 771.6760
539.0146, 764.8986
539.4967, 759.2206
539.9788, 754.5377
540.4609, 750.3931
540.9431, 748.2725
541.4252, 744.5604
541.9073, 736.5840
542.3894, 727.9526
542.8715, 720.6865
543.3536, 715.9174
543.8358, 716.5046
544.3179, 726.2125
544.8000, 741.6447
545.2821, 747.2380
545.7642, 739.7617
546.2463, 731.2265
546.7285, 721.1807
547.2106, 713.8877
547.6927, 714.7692
548.1748, 723.0275
548.6569, 728.7990
549.1390, 724.6319
549.6211, 718.0439
550.1032, 719.0649
550.5853, 725.5765
551.0674, 726.9243
551.5496, 718.1872
552.0317, 705.8903
552.5138, 700.9276
552.9959, 706.6643
553.4780, 708.3108
553.9601, 700.2360
554.4423, 694.6902
554.9244, 700.2529
555.4065, 710.4557
555.8886, 714.5625
556.3707, 708.5443
556.8528, 698.6851
557.3350, 690.9360
557.8171, 685.5334
558.2992, 685.2308
558.7813, 691.7377
559.2634, 698.8618
559.7455, 703.7940
560.2277, 705.9272
560.7098, 703.6045
561.1919, 691.0192
561.6740, 684.1252
562.1561, 694.5687
562.6382, 709.1118
563.1204, 713.1578
563.6025, 706.1328
564.0846, 695.9244
564.5667, 687.4717
565.0488, 681.6432
565.5309, 683.0054
566.0131, 696.7986
566.4952, 704.5146
566.9773, 696.9915
567.4594, 687.1461
567.9415, 682.1765
568.4236, 681.9898
568.9058, 684.0349
569.3879, 688.2663
569.8700, 693.3491
570.3521, 698.9058
570.8342, 704.3106
571.3163, 707.5314
571.7985, 707.9631
572.2806, 705.6947
572.7627, 700.1445
573.2448, 690.5064
573.7269, 685.1313
574.2090, 685.6274
574.6912, 688.1697
575.1733, 694.7500
575.6554, 701.3472
576.1375, 703.2995
576.6196, 699.7410
577.1017, 694.0023
577.5839, 687.3116
578.0660, 680.8720
578.5481, 679.6870
579.0302, 684.4564
579.5123, 688.8090
579.9944, 689.5228
580.4766, 688.4187
580.9587, 689.4199
581.4408, 693.6019
581.9229, 695.1857
582.4050, 690.5384
582.8871, 685.6179
583.3693, 684.4723
583.8514, 686.2058
584.3335, 688.4993
584.8156, 690.3022
585.2977, 691.4124
585.7798, 690.9063
586.2620, 688.4537
586.7441, 688.5662
587.2262, 693.0703
587.7083, 697.5068
588.1904, 700.3580
588.6725, 701.2161
589.1547, 698.2437
589.6368, 688.3955
590.1189, 682.1617
590.6010, 690.4606
591.0831, 702.0286
591.5652, 699.7492
592.0474, 684.5609
592.5295, 671.4146
593.0116, 670.2079
593.4937, 678.1642
593.9758, 687.9008
594.4579, 703.7836
594.9401, 710.9363
595.4222, 698.8690
595.9043, 686.0923
596.3864, 683.1984
596.8685, 686.9311
597.3506, 687.5374
597.8328, 678.9625
598.3149, 671.0007
598.7970, 675.4252
599.2791, 687.1198
599.7612, 692.0280
600.2433, 687.4390
600.7255, 681.1754
601.2076, 679.7094
601.6897, 682.4899
602.1718, 685.0424
602.6539, 688.5461
603.1360, 690.1028
603.6182, 687.7487
604.1003, 684.7816
604.5824, 683.4889
605.0645, 683.9260
605.5466, 684.9573
606.0287, 685.4819
606.5109, 686.8580
606.9930, 693.1354
607.4751, 703.2116
607.9572, 707.6681
608.4393, 703.4196
608.9214, 695.9385
609.4036, 690.2776
609.8857, 686.4454
610.3678, 683.1307
610.8499, 678.1516
611.3320, 676.3793
611.8141, 681.7659
612.2963, 689.1286
612.7784, 693.1922
613.2605, 693.5140
613.7426, 693.1193
614.2247, 694.5826
614.7068, 696.7061
615.1890, 695.6680
615.6711, 691.2245
616.1532, 689.2424
616.6353, 691.7968
617.1174, 696.7782
617.5995, 703.2917
618.0817, 711.3858
618.5638, 714.1282
619.0459, 704.9446
619.5280, 697.6586
620.0101, 699.8391
620.4922, 705.8099
620.9744, 708.3596
621.4565, 706.1714
621.9386, 702.6473
622.4207, 701.0082
622.9028, 700.4087
623.3849, 696.3796
623.8671, 687.5676
624.3492, 683.6546
624.8313, 690.0969
625.3134, 699.7881
625.7955, 703.2549
626.2776, 700.9342
626.7598, 702.1841
627.2419, 712.9492
627.7240, 722.5178
628.2061, 724.2446
628.6882, 721.8157
629.1703, 721.9322
629.6525, 725.4833
630.1346, 725.8052
630.6167, 713.5791
631.0988, 692.9576
631.5809, 689.2913
632.0630, 707.7005
632.5452, 722.9585
633.0273, 726.0491
633.5094, 724.1561
633.9915, 725.3865
634.4736, 729.5229
634.9557, 732.1881
635.4379, 733.9167
635.9200, 732.4746
636.4021, 723.1849
636.8842, 711.1600
637.3663, 703.4975
637.8484, 702.2104
638.3306, 706.7315
638.8127, 718.0306
639.2948, 734.3860
639.7769, 744.4457
640.2590, 746.5050
640.7411, 748.4646
641.2233, 753.2271
641.7054, 758.1028
642.1875, 760.0422
642.6696, 759.2947
643.1517, 758.8359
643.6339, 761.7389
644.1160, 762.4538
644.5981, 754.3601
645.0802, 743.5161
645.5623, 740.2715
646.0444, 746.1067
646.5266, 752.8210
647.0087, 751.5267
647.4908, 745.4565
647.9729, 752.3456
648.4550, 777.0903
648.9371, 794.8398
649.4193, 797.2197
649.9014, 792.5563
650.3835, 787.0630
650.8656, 781.1161
651.3477, 777.5193
651.8298, 779.3291
652.3120, 780.6279
652.7941, 774.6616
653.2762, 768.4615
653.7583, 773.9563
654.2404, 791.1556
654.7225, 807.7609
655.2047, 813.7237
655.6868, 811.6791
656.1689, 809.5604
656.6510, 807.1152
657.1331, 806.0646
657.6152, 806.3658
658.0974, 808.7494
658.5795, 816.9321
659.0616, 828.6312
659.5437, 832.8859
660.0258, 820.9921
660.5079, 811.1544
660.9901, 810.8505
661.4722, 814.8202
661.9543, 818.1485
662.4364, 820.0936
662.9185, 821.5026
663.4006, 822.6459
663.8828, 824.4524
664.3649, 829.6517
664.8470, 838.3958
665.3291, 845.6591
665.8112, 850.9390
666.2933, 854.0478
666.7755, 854.5686
667.2576, 852.7202
667.7397, 849.4459
668.2218, 837.7230
668.7039, 835.9092
669.1860, 857.0250
669.6682, 881.5381
670.1503, 894.2953
670.6324, 896.8470
671.1145, 897.6125
671.5966, 900.5742
672.0787, 905.0043
672.5609, 910.5358
673.0430, 916.8838
673.5251, 921.7680
674.0072, 924.8097
674.4893, 927.1776
674.9714, 928.4940
675.4536, 930.4418
675.9357, 937.7739
676.4178, 954.6127
676.8999, 967.8940
677.3820, 975.3762
677.8641, 981.1968
678.3463, 988.3168
678.8284, 994.9425
679.3105, 995.6310
679.7926, 988.6773
680.2747, 985.7676
680.7568, 1002.970
681.2390, 1031.107
681.7211, 1047.911
682.2032, 1052.832
682.6853, 1054.169
683.1674, 1054.466
683.6495, 1056.286
684.1317, 1064.476
684.6138, 1081.277
685.0959, 1092.423
685.5780, 1091.774
686.0601, 1092.931
686.5422, 1100.316
687.0244, 1110.391
687.5065, 1119.412
687.9886, 1126.977
688.4707, 1134.979
688.9528, 1144.130
689.4349, 1154.554
689.9171, 1166.958
690.3992, 1180.754
690.8813, 1195.732
691.3634, 1211.644
691.8455, 1222.783
692.3276, 1222.327
692.8098, 1211.989
693.2919, 1206.973
693.7740, 1209.152
694.2561, 1212.581
694.7382, 1218.900
695.2203, 1223.662
695.7025, 1222.403
696.1846, 1216.805
696.6667, 1213.371
697.1488, 1215.366
697.6309, 1217.351
698.1130, 1215.402
698.5952, 1212.398
699.0773, 1212.868
699.5594, 1216.283
700.0415, 1218.184
700.5236, 1215.822
701.0057, 1210.329
701.4879, 1202.570
701.9700, 1192.151
702.4521, 1189.066
702.9342, 1198.994
703.4163, 1203.539
703.8984, 1186.911
704.3806, 1159.425
704.8627, 1146.767
705.3448, 1155.366
705.8269, 1159.170
706.3090, 1151.908
706.7911, 1141.620
707.2733, 1134.260
707.7554, 1126.818
708.2375, 1111.199
708.7196, 1085.610
709.2017, 1063.363
709.6838, 1059.979
710.1660, 1068.781
710.6481, 1074.432
711.1302, 1076.611
711.6123, 1073.563
712.0944, 1064.221
712.5765, 1051.106
713.0587, 1036.616
713.5408, 1020.516
714.0229, 1008.043
714.5050, 1000.934
714.9871, 995.3056
715.4692, 992.7194
715.9514, 989.6566
716.4335, 981.0213
716.9156, 968.7030
717.3977, 961.9969
717.8798, 969.2603
718.3619, 976.7124
718.8441, 971.3212
719.3262, 959.4647
719.8083, 952.5348
720.2904, 951.4290
720.7725, 949.3544
721.2546, 941.4788
721.7368, 930.9391
722.2189, 925.4742
722.7010, 925.7423
723.1831, 926.8432
723.6652, 929.5126
724.1473, 930.9091
724.6295, 930.2034
725.1116, 926.7698
725.5937, 918.2874
726.0758, 901.3494
726.5579, 891.5325
727.0400, 898.2690
727.5222, 906.1343
728.0043, 905.3760
728.4864, 899.7019
728.9685, 896.2332
729.4506, 896.7046
729.9327, 896.7286
730.4149, 889.8438
730.8970, 880.7236
731.3791, 882.3134
731.8612, 893.1803
732.3433, 899.6557
732.8254, 897.6712
733.3076, 890.6264
733.7897, 880.8179
734.2718, 868.8636
734.7539, 862.6030
735.2360, 864.2911
735.7181, 867.9882
736.2003, 876.9750
736.6824, 884.0557
737.1645, 883.4860
737.6466, 877.4697
738.1287, 872.5342
738.6108, 871.2122
739.0930, 869.2082
739.5751, 860.2999
740.0572, 851.9451
740.5393, 856.2864
741.0214, 869.6257
741.5035, 876.8289
741.9857, 870.7061
742.4678, 860.8070
742.9499, 862.1954
743.4320, 873.7156
743.9141, 878.2352
744.3962, 874.1763
744.8784, 871.0647
745.3605, 873.6785
745.8426, 877.2375
746.3247, 874.4417
746.8068, 864.1177
747.2889, 858.5388
747.7711, 862.2159
748.2532, 864.4587
748.7353, 858.1822
749.2174, 852.8181
749.6995, 859.0332
750.1816, 874.7974
750.6638, 888.5859
751.1459, 895.3121
751.6280, 897.4452
752.1101, 895.4407
752.5922, 891.1055
753.0743, 887.5377
753.5565, 885.1933
754.0386, 883.6105
754.5207, 882.4677
755.0028, 882.3429
755.4849, 885.5356
755.9670, 892.9644
756.4492, 894.0210
756.9313, 885.1858
757.4134, 878.4598
757.8955, 880.0425
758.3776, 885.8041
758.8597, 890.3510
759.3419, 893.9695
759.8240, 894.0926
760.3061, 884.8478
760.7882, 878.8492
761.2703, 882.6230
761.7524, 890.8368
762.2346, 898.5409
762.7167, 904.8144
763.1988, 910.6110
763.6809, 917.6276
764.1630, 922.3273
764.6451, 917.6209
765.1273, 907.9523
765.6094, 905.2375
766.0915, 910.5343
766.5736, 916.1339
767.0557, 917.1541
767.5378, 916.1743
768.0200, 919.6266
768.5021, 929.0049
768.9842, 933.6450
769.4663, 932.6381
769.9484, 928.2194
770.4305, 917.0410
770.9127, 905.8875
771.3948, 906.1235
771.8769, 918.8161
772.3590, 927.6419
772.8411, 928.4517
773.3232, 927.8110
773.8054, 925.8420
774.2875, 925.2816
774.7696, 931.7861
775.2517, 943.2161
775.7338, 948.6601
776.2159, 940.1551
776.6981, 927.4646
777.1802, 919.7919
777.6623, 916.7092
778.1444, 920.5333
778.6265, 929.7586
779.1086, 930.9108
779.5908, 915.5522
780.0729, 894.3005
780.5550, 888.3013
781.0371, 899.7305
781.5192, 904.6764
782.0013, 901.8662
782.4835, 895.6086
782.9656, 884.3192
783.4477, 873.4045
783.9298, 871.3694
784.4119, 878.4832
784.8940, 881.4253
785.3762, 875.2920
785.8583, 870.5596
786.3404, 872.1187
786.8225, 874.5833
787.3046, 873.0141
787.7867, 867.9881
788.2689, 863.0005
788.7510, 859.4515
789.2331, 856.4832
789.7152, 854.7202
790.1973, 852.3358
790.6794, 845.0103
791.1616, 833.9155
791.6437, 824.8715
792.1258, 820.3217
792.6079, 818.2569
793.0900, 816.7836
793.5721, 815.5333
794.0543, 809.3643
794.5364, 796.6367
795.0185, 790.0257
795.5006, 795.7298
795.9827, 803.1230
796.4648, 801.0478
796.9470, 790.6798
797.4291, 784.7700
797.9112, 788.5483
798.3933, 789.3320
798.8754, 785.5181
799.3575, 779.6203
799.8397, 771.1170
800.3218, 762.1426
800.8039, 756.3252
801.2860, 754.6719
801.7681, 755.0607
802.2502, 757.9697
802.7324, 761.1066
803.2145, 763.4027
803.6966, 764.0485
804.1787, 760.7797
804.6608, 753.6507
805.1429, 746.8344
805.6251, 743.9007
806.1072, 743.5226
806.5893, 743.1019
807.0714, 742.6615
807.5535, 742.9081
808.0356, 744.1119
808.5178, 742.9738
808.9999, 736.4886
809.4820, 727.8925
809.9641, 726.2617
810.4462, 735.1940
810.9283, 737.4283
811.4105, 727.2889
811.8926, 719.7699
812.3747, 725.2827
812.8568, 733.2424
813.3389, 729.6581
813.8210, 714.5219
814.3032, 704.6910
814.7853, 705.0287
815.2674, 707.9915
815.7495, 712.2421
816.2316, 717.0404
816.7137, 722.8228
817.1959, 728.5853
817.6780, 731.8810
818.1601, 731.5869
818.6422, 729.0787
819.1243, 723.0291
819.6064, 716.9133
820.0886, 717.8043
820.5707, 723.7822
821.0528, 726.6297
821.5349, 723.5297
822.0170, 718.9830
822.4991, 718.4225
822.9813, 720.2928
823.4634, 716.1629
823.9455, 705.4028
824.4276, 702.2806
824.9097, 711.4087
825.3918, 722.0538
825.8740, 726.4331
826.3561, 725.9254
826.8382, 725.0459
827.3203, 723.8388
827.8024, 722.0954
828.2845, 716.7347
828.7667, 714.6918
829.2488, 720.6922
829.7309, 729.9458
830.2130, 738.0789
830.6951, 744.7156
831.1772, 746.3085
831.6594, 739.0352
832.1415, 730.1850
832.6236, 719.5060
833.1057, 711.2535
833.5878, 711.0056
834.0699, 717.1271
834.5521, 722.8861
835.0342, 724.8782
835.5163, 728.1084
835.9984, 742.3457
836.4805, 758.1027
836.9626, 755.9422
837.4448, 740.4320
837.9269, 732.1484
838.4090, 737.7437
838.8911, 746.1587
839.3732, 745.4780
839.8553, 738.5488
840.3375, 736.0449
840.8196, 738.0564
841.3017, 739.4684
841.7838, 738.9208
842.2659, 740.4033
842.7480, 747.7287
843.2302, 757.5372
843.7123, 761.2277
844.1944, 757.0934
844.6765, 752.2974
845.1586, 744.0505
845.6407, 739.3064
846.1229, 743.4965
846.6050, 750.1304
847.0871, 752.8081
847.5692, 751.7448
848.0513, 751.0939
848.5334, 753.0865
849.0156, 753.2969
849.4977, 745.3177
849.9798, 739.7642
850.4619, 748.7766
850.9440, 765.8827
851.4261, 775.9643
851.9083, 774.1587
852.3904, 769.7355
852.8725, 768.1298
853.3546, 767.5030
853.8367, 765.4037
854.3188, 762.8992
854.8010, 763.1116
855.2831, 766.0273
855.7652, 767.2664
856.2473, 762.9404
856.7294, 757.1208
857.2115, 757.7119
857.6937, 763.2218
858.1758, 767.9793
858.6579, 771.2728
859.1400, 769.6377
859.6221, 760.8268
860.1042, 750.9127
860.5864, 749.0167
861.0685, 754.7866
861.5506, 758.3445
862.0327, 759.8985
862.5148, 757.7054
862.9969, 748.3927
863.4791, 741.1973
863.9612, 745.3842
864.4433, 756.9081
864.9254, 760.8370
865.4075, 751.8289
865.8896, 746.3889
866.3718, 747.4310
866.8539, 748.3741
867.3360, 745.7142
867.8181, 742.5331
868.3002, 743.2864
868.7823, 747.7907
869.2645, 749.8170
869.7466, 746.0569
870.2287, 741.7800
870.7108, 737.8477
871.1929, 735.2102
871.6750, 735.1703
872.1572, 737.0349
872.6393, 739.8310
873.1214, 743.3665
873.6035, 744.6192
874.0856, 739.3898
874.5677, 732.4182
875.0499, 730.3220
875.5320, 730.2352
876.0141, 724.7795
876.4962, 713.6120
876.9783, 703.8125
877.4604, 700.2866
877.9426, 700.1364
878.4247, 697.2595
878.9068, 693.8105
879.3889, 701.1791
879.8710, 718.6274
880.3531, 728.1793
880.8353, 722.2180
881.3174, 710.7478
881.7995, 705.3422
882.2816, 705.0795
882.7637, 704.3552
883.2458, 703.1992
883.7280, 701.4615
884.2101, 699.2993
884.6922, 695.6765
885.1743, 688.7484
885.6564, 681.3826
886.1385, 680.6151
886.6207, 689.2480
887.1028, 691.5084
887.5849, 681.4518
888.0670, 674.6602
888.5491, 678.3113
889.0313, 684.0922
889.5134, 683.3257
889.9955, 678.1613
890.4776, 678.9621
890.9597, 695.4489
891.4418, 701.5133
891.9240, 681.5172
892.4061, 663.4460
892.8882, 663.7278
893.3703, 674.0046
893.8524, 684.3867
894.3345, 692.8098
894.8167, 695.6918
895.2988, 686.5883
895.7809, 677.6567
896.2630, 677.3815
896.7451, 678.9770
897.2272, 672.5389
897.7094, 662.1185
898.1915, 661.5084
898.6736, 675.7378
899.1557, 687.8365
899.6378, 679.9839
900.1199, 665.8679
900.6021, 661.4615
901.0842, 664.2701
901.5663, 669.7949
902.0484, 676.2335
902.5305, 680.8304
903.0126, 681.8353
903.4948, 680.2863
903.9769, 677.3000
904.4590, 673.0416
904.9411, 667.4122
905.4232, 660.7923
905.9053, 656.5126
906.3875, 655.6237
906.8696, 653.6116
907.3517, 645.0309
907.8338, 633.8691
908.3159, 634.6440
908.7980, 647.4559
909.2802, 657.1996
909.7623, 662.4496
910.2444, 662.7209
910.7265, 656.3018
911.2086, 649.3916
911.6907, 651.7061
912.1729, 663.0823
912.6550, 669.8550
913.1371, 671.0432
913.6192, 670.5645
914.1013, 667.9597
914.5834, 665.8933
915.0656, 666.0750
915.5477, 668.0474
916.0298, 671.1613
916.5119, 676.6282
916.9940, 678.6531
917.4761, 675.1334
917.9583, 671.1425
918.4404, 667.8328
918.9225, 664.4908
919.4046, 659.2053
919.8867, 653.3047
920.3688, 652.1671
920.8510, 660.5174
921.3331, 663.9608
921.8152, 656.3938
922.2973, 648.1771
922.7794, 642.2703
923.2615, 639.4555
923.7437, 640.8521
924.2258, 646.1914
924.7079, 653.4446
925.1900, 664.9310
925.6721, 673.4342
926.1542, 677.2783
926.6364, 675.7743
927.1185, 664.4944
927.6006, 649.0251
928.0827, 637.6576
928.5648, 632.4479
929.0469, 632.1873
929.5291, 640.6329
930.0112, 648.6504
930.4933, 649.4540
930.9754, 645.8850
931.4575, 639.3388
931.9396, 631.9306
932.4218, 628.2734
932.9039, 629.9482
933.3860, 632.6276
933.8681, 633.1953
934.3502, 632.1852
934.8323, 630.9801
935.3145, 628.4775
935.7966, 620.2701
936.2787, 607.7867
936.7608, 599.5036
937.2429, 600.0125
937.7250, 605.1594
938.2072, 613.2435
938.6893, 620.8501
939.1714, 617.4315
939.6535, 606.1562
940.1356, 600.8403
940.6177, 603.9882
941.0999, 606.8990
941.5820, 603.3706
942.0641, 596.4477
942.5462, 589.4184
943.0283, 583.5789
943.5104, 588.0101
943.9926, 602.0859
944.4747, 613.6769
944.9568, 619.1174
945.4389, 618.0706
945.9210, 609.2634
946.4031, 596.0173
946.8853, 587.4207
947.3674, 583.4517
947.8495, 581.7933
948.3316, 582.6689
948.8137, 580.9719
949.2958, 574.1840
949.7780, 566.8300
950.2601, 563.9299
950.7422, 564.9086
951.2243, 568.1515
951.7064, 575.3405
952.1885, 571.8441
952.6707, 552.0194
953.1528, 537.8657
953.6349, 540.4629
954.1170, 552.3063
954.5991, 565.0226
955.0812, 578.1298
955.5634, 581.7208
956.0455, 572.2217
956.5276, 564.2437
957.0097, 560.2981
957.4918, 556.3041
957.9739, 549.7184
958.4561, 542.0750
958.9382, 535.2500
959.4203, 528.9080
959.9024, 528.3668
960.3845, 538.5270
960.8666, 544.4892
961.3488, 540.8502
961.8309, 537.0500
962.3130, 540.4398
962.7951, 546.6850
963.2772, 546.5399
963.7593, 538.0217
964.2415, 533.7674
964.7236, 538.6474
965.2057, 540.7068
965.6878, 533.1057
966.1699, 526.8024
966.6520, 532.9500
967.1342, 544.6053
967.6163, 544.4779
968.0984, 527.5229
968.5805, 517.5789
969.0626, 520.8417
969.5447, 524.4233
970.0269, 526.5187
970.5090, 526.4939
970.9911, 521.4296
971.4732, 514.2429
971.9553, 513.3008
972.4374, 522.1594
972.9196, 527.2227
973.4017, 520.5435
973.8838, 517.5953
974.3659, 527.8286
974.8480, 540.7186
975.3301, 546.7476
975.8123, 547.4351
976.2944, 548.9681
976.7765, 552.5010
977.2586, 556.2880
977.7407, 561.5209
978.2228, 564.9929
978.7050, 565.2971
979.1871, 563.1486
979.6692, 556.4391
980.1513, 547.9208
980.6334, 546.1500
981.1155, 553.3565
981.5977, 566.1844
982.0798, 588.7852
982.5619, 610.7251
983.0440, 624.5096
983.5261, 636.6238
984.0082, 656.1585
984.4904, 681.0215
984.9725, 700.1098
985.4546, 708.2002
985.9367, 717.3355
986.4188, 733.7912
986.9009, 750.4155
987.3831, 761.6901
987.8652, 771.7485
988.3473, 783.7665
988.8294, 799.1310
989.3115, 822.5081
989.7936, 862.2410
990.2758, 889.3607
990.7579, 879.8317
991.2400, 867.0062
991.7221, 874.1906
992.2042, 889.2371
992.6863, 897.7817
993.1685, 898.3288
993.6506, 895.4933
994.1327, 893.2703
994.6148, 880.5354
995.0969, 844.5887
995.5790, 804.7244
996.0612, 773.4439
996.5433, 746.6145
997.0254, 718.7349
997.5075, 689.0639
997.9896, 657.7598
998.4717, 621.5566
998.9539, 593.8380
999.4360, 588.1693
999.9181, 585.0522
1000.400, 569.1966
1000.882, 548.9989
1001.364, 536.0988
1001.847, 530.3944
1002.329, 524.5801
1002.811, 515.7172
1003.293, 507.8003
1003.775, 503.4419
1004.257, 499.8203
1004.739, 493.7078
1005.221, 488.0808
1005.703, 488.3524
1006.186, 493.0620
1006.668, 494.7470
1007.150, 490.6460
1007.632, 484.2103
1008.114, 472.2411
1008.596, 463.7353
1009.078, 468.8133
1009.560, 477.8369
1010.043, 478.8347
1010.525, 472.3080
1011.007, 465.9825
1011.489, 462.4857
1011.971, 458.2411
1012.453, 451.7560
1012.935, 443.9689
1013.417, 431.7161
1013.899, 421.2254
1014.382, 420.5158
1014.864, 428.0223
1015.346, 437.6566
1015.828, 450.3351
1016.310, 453.6916
1016.792, 431.6950
1017.274, 412.4553
1017.756, 414.6523
1018.239, 424.5979
1018.721, 428.6848
1019.203, 427.4545
1019.685, 427.6812
1020.167, 431.9070
1020.649, 432.5498
1021.131, 423.7281
1021.613, 415.0114
1022.095, 410.7712
1022.578, 408.6570
1023.060, 405.7670
1023.542, 403.1949
1024.024, 404.4289
1024.506, 410.6251
1024.988, 417.1668
1025.470, 428.0522
1025.952, 432.2553
1026.435, 418.7597
1026.917, 403.2628
1027.399, 399.2163
1027.881, 402.6912
1028.363, 403.4562
1028.845, 399.6272
1029.327, 398.2026
1029.809, 403.4470
1030.292, 407.0826
1030.774, 404.7598
1031.256, 402.2738
1031.738, 404.5565
1032.220, 409.0225
1032.702, 410.8458
1033.184, 409.5313
1033.666, 407.7310
1034.148, 403.2506
1034.630, 401.9079
1035.113, 408.3522
1035.595, 414.1356
1036.077, 416.1195
1036.559, 413.7765
1037.041, 403.1714
1037.523, 383.7553
1038.005, 376.5092
1038.487, 395.3651
1038.970, 403.9022
1039.452, 388.8710
1039.934, 377.9196
1040.416, 388.3434
1040.898, 404.5739
1041.380, 407.6494
1041.862, 398.7446
1042.344, 390.8189
1042.826, 384.4087
1043.309, 377.6557
1043.791, 368.0424
1044.273, 362.9592
1044.755, 367.5911
1045.237, 374.2466
1045.719, 374.4543
1046.201, 370.1945
1046.683, 371.3723
1047.166, 381.6505
1047.648, 384.3435
1048.130, 376.7160
1048.612, 369.0973
1049.094, 364.1905
1049.576, 361.0392
1050.058, 358.5152
1050.540, 357.6678
1051.022, 362.8875
1051.505, 375.7851
1051.987, 377.0294
1052.469, 364.1319
1052.951, 355.0215
1053.433, 353.9119
1053.915, 357.8009
1054.397, 365.8383
1054.879, 373.8823
1055.361, 373.7821
1055.844, 366.2769
1056.326, 359.0714
1056.808, 352.1422
1057.290, 351.2862
1057.772, 357.5433
1058.254, 365.1453
1058.736, 371.2166
1059.218, 375.4031
1059.701, 376.7911
1060.183, 376.2281
1060.665, 377.0011
1061.147, 378.5569
1061.629, 378.0155
1062.111, 375.0315
1062.593, 368.8423
1063.075, 359.3947
1063.557, 352.0592
1064.040, 352.5021
1064.522, 357.4034
1065.004, 362.1990
1065.486, 366.1469
1065.968, 366.3489
1066.450, 363.9583
1066.932, 364.4098
1067.414, 368.3945
1067.896, 369.4297
1068.379, 362.3102
1068.861, 353.4486
1069.343, 348.5170
1069.825, 347.5181
1070.307, 355.0240
1070.789, 364.5777
1071.271, 360.7116
1071.753, 345.0548
1072.236, 335.3442
1072.718, 340.0672
1073.200, 348.0171
1073.682, 353.9365
1074.164, 356.5862
1074.646, 351.6177
1075.128, 345.2250
1075.610, 346.2414
1076.093, 352.3098
1076.575, 354.5638
1077.057, 350.5083
1077.539, 348.0302
1078.021, 351.7499
1078.503, 356.2069
1078.985, 361.1908
1079.467, 363.7339
1079.949, 360.2063
1080.432, 353.3540
1080.914, 346.9621
1081.396, 341.6500
1081.878, 339.0189
1082.360, 343.6371
1082.842, 344.3567
1083.324, 333.1396
1083.806, 325.3169
1084.288, 328.7273
1084.771, 338.3289
1085.253, 352.4144
1085.735, 368.3677
1086.217, 373.2456
1086.699, 362.9238
1087.181, 352.0439
1087.663, 337.6840
1088.145, 328.9742
1088.628, 329.7478
1089.110, 334.2570
1089.592, 339.3989
1090.074, 344.1526
1090.556, 346.2932
1091.038, 345.7724
1091.520, 343.0834
1092.002, 337.0348
1092.484, 338.4632
1092.967, 351.0546
1093.449, 357.0597
1093.931, 346.3513
1094.413, 331.1021
1094.895, 326.6177
1095.377, 330.5027
1095.859, 335.3354
1096.341, 340.7214
1096.823, 342.8819
1097.306, 341.9160
1097.788, 341.7209
1098.270, 343.5525
1098.752, 346.6443
1099.234, 350.9289
1099.716, 353.8130
1100.198, 350.1031
1100.680, 342.7507
1101.163, 335.8307
1101.645, 330.9706
1102.127, 334.1035
1102.609, 343.4279
1103.091, 347.0703
1103.573, 339.1487
1104.055, 330.2605
1104.537, 329.0092
1105.020, 330.9212
1105.502, 331.9656
1105.984, 333.7388
1106.466, 339.7397
1106.948, 347.7055
1107.430, 352.8501
1107.912, 354.0680
1108.394, 352.0995
1108.876, 343.7728
1109.359, 337.5807
1109.841, 338.4078
1110.323, 340.4056
1110.805, 342.2890
1111.287, 341.7395
1111.769, 333.1096
1112.251, 319.0324
1112.733, 313.5810
1113.215, 321.2244
1113.698, 329.6931
1114.180, 343.5519
1114.662, 349.9541
1115.144, 339.7317
1115.626, 330.3843
1116.108, 334.7313
1116.590, 346.6224
1117.072, 355.6212
1117.555, 361.7447
1118.037, 359.5752
1118.519, 347.3448
1119.001, 336.0444
1119.483, 326.3423
1119.965, 322.2708
1120.447, 326.1413
1120.929, 332.2369
1121.411, 334.9298
1121.894, 334.8497
1122.376, 331.6576
1122.858, 326.9602
1123.340, 331.4333
1123.822, 343.0967
1124.304, 349.1173
1124.786, 346.9018
1125.268, 341.3600
1125.750, 335.0851
1126.233, 330.0656
1126.715, 329.7065
1127.197, 331.0213
1127.679, 329.0154
1128.161, 326.3361
1128.643, 328.8924
1129.125, 334.3116
1129.607, 334.4772
1130.090, 327.8923
1130.572, 322.6440
1131.054, 322.5985
1131.536, 325.1817
1132.018, 332.1242
1132.500, 337.8370
1132.982, 337.2221
1133.464, 334.1404
1133.947, 334.3692
1134.429, 336.6164
1134.911, 333.6622
1135.393, 321.9114
1135.875, 314.4060
1136.357, 313.1740
1136.839, 315.0450
1137.321, 321.7049
1137.803, 328.3339
1138.286, 333.7236
1138.768, 335.4704
1139.250, 328.3184
1139.732, 314.0154
1140.214, 309.7747
1140.696, 317.0668
1141.178, 323.5002
1141.660, 328.4299
1142.142, 330.6032
1142.625, 329.4932
1143.107, 327.4698
1143.589, 326.3174
1144.071, 325.5969
1144.553, 324.9979
1145.035, 324.0579
1145.517, 319.9796
1145.999, 314.5742
1146.482, 313.6958
1146.964, 317.3950
1147.446, 323.0219
1147.928, 329.2629
1148.410, 333.1086
1148.892, 332.0327
1149.374, 328.1787
1149.856, 319.6388
1150.339, 312.8492
1150.821, 315.9025
1151.303, 324.0799
1151.785, 332.3030
1152.267, 338.3288
1152.749, 336.4716
1153.231, 321.1274
1153.713, 314.9038
1154.195, 333.7820
1154.677, 347.3511
1155.160, 342.4771
1155.642, 333.9576
1156.124, 330.2094
1156.606, 329.0318
1157.088, 327.5730
1157.570, 325.8004
1158.052, 322.8682
1158.534, 317.6192
1159.017, 317.2035
1159.499, 323.0251
1159.981, 327.2781
1160.463, 327.5016
1160.945, 326.8592
1161.427, 327.6564
1161.909, 328.9430
1162.391, 329.6937
1162.874, 329.3996
1163.356, 324.9791
1163.838, 318.2695
1164.320, 315.7632
1164.802, 317.1541
1165.284, 317.4229
1165.766, 315.3251
1166.248, 315.7922
1166.730, 324.0590
1167.213, 330.9032
1167.695, 327.2035
1168.177, 320.2780
1168.659, 314.5209
1169.141, 311.0314
1169.623, 311.0789
1170.105, 314.0420
1170.587, 318.1512
1171.069, 323.1780
1171.552, 328.7068
1172.034, 337.4678
1172.516, 342.4068
1172.998, 341.8323
1173.480, 338.0893
1173.962, 330.3454
1174.444, 322.3494
1174.926, 318.1509
1175.409, 316.7466
1175.891, 314.4073
1176.373, 310.8462
1176.855, 311.1177
1177.337, 315.3408
1177.819, 317.8868
1178.301, 317.7446
1178.783, 317.6764
1179.266, 319.0396
1179.748, 319.4919
1180.230, 315.9833
1180.712, 311.1657
1181.194, 308.1726
1181.676, 307.6553
1182.158, 313.7723
1182.640, 322.0537
1183.122, 322.3577
1183.604, 315.0359
1184.087, 307.9866
1184.569, 303.4807
1185.051, 304.2390
1185.533, 317.4015
1186.015, 328.0277
1186.497, 325.9796
1186.979, 323.3552
1187.461, 333.8170
1187.944, 345.3985
1188.426, 337.8405
1188.908, 315.1998
1189.390, 302.8723
1189.872, 302.6773
1190.354, 307.3231
1190.836, 318.9300
1191.318, 325.5739
1191.801, 324.0714
1192.283, 321.3276
1192.765, 321.2811
1193.247, 321.4743
1193.729, 318.2472
1194.211, 313.8795
1194.693, 315.7485
1195.175, 320.3261
1195.657, 315.6534
1196.140, 305.6777
1196.622, 303.6102
1197.104, 310.9692
1197.586, 322.0000
1198.068, 335.1931
1198.550, 340.8796
1199.032, 322.8690
1199.514, 308.7808
1199.996, 321.2127
1200.479, 336.6690
1200.961, 335.2820
1201.443, 325.7332
1201.925, 322.7940
1202.407, 325.7464
1202.889, 322.8194
1203.371, 311.0816
1203.853, 302.5634
1204.336, 296.8981
1204.818, 296.2902
1205.300, 302.3053
1205.782, 308.5981
1206.264, 312.0346
1206.746, 312.2510
1207.228, 307.6706
1207.710, 301.7997
1208.193, 304.4766
1208.675, 312.7188
1209.157, 318.8862
1209.639, 322.6040
1210.121, 323.7084
1210.603, 322.7254
1211.085, 321.3913
1211.567, 320.3876
1212.049, 319.3175
1212.531, 319.4511
1213.014, 317.3787
1213.496, 305.2846
1213.978, 297.0013
1214.460, 309.7213
1214.942, 326.2883
1215.424, 322.0652
1215.906, 303.1230
1216.388, 294.8450
1216.871, 299.5601
1217.353, 300.2675
1217.835, 295.2524
1218.317, 293.6134
1218.799, 296.8434
1219.281, 301.8453
1219.763, 307.3674
1220.245, 314.7704
1220.728, 326.2759
1221.210, 336.5404
1221.692, 334.3225
1222.174, 325.0724
1222.656, 318.4990
1223.138, 314.5297
1223.620, 314.3084
1224.102, 315.5595
1224.584, 311.1817
1225.067, 300.0959
1225.549, 292.3503
1226.031, 293.9337
1226.513, 296.2003
1226.995, 296.3080
1227.477, 296.4540
1227.959, 298.3770
1228.441, 299.8373
1228.923, 298.4653
1229.406, 296.2048
1229.888, 296.3979
1230.370, 298.8784
1230.852, 302.0648
1231.334, 306.0261
1231.816, 308.9565
1232.298, 310.7525
1232.780, 311.0577
1233.263, 310.0927
1233.745, 312.1743
1234.227, 319.9552
1234.709, 326.1476
1235.191, 321.0398
1235.673, 312.9307
1236.155, 311.5123
1236.637, 311.6335
1237.120, 305.2660
1237.602, 297.7120
1238.084, 298.7313
1238.566, 307.2876
1239.048, 314.9679
1239.530, 321.1236
1240.012, 323.1592
1240.494, 318.7053
1240.976, 314.8486
1241.458, 312.7159
1241.941, 310.2341
1242.423, 306.1402
1242.905, 302.8186
1243.387, 302.2839
1243.869, 304.5432
##END=



