##NAMES=Parabutlerite
##RRUFFID=R060754
##IDEAL CHEMISTRY=Fe^3+^S^6+^O_4_(OH)&#183;2H_2_O
##LOCALITY=Chuquicamata, Chile
##OWNER=RRUFF
##SOURCE=Michael Scott
##DESCRIPTION=Aggregate of pale orange grains
##STATUS=The identification of this mineral has been confirmed by X-ray diffraction.
##URL=rruff.info/R060754
90.190, 185.568
90.673, 200.340
91.155, 209.962
91.637, 211.135
92.119, 209.926
92.601, 208.775
93.083, 207.114
93.565, 202.142
94.047, 190.003
94.529, 166.634
95.012, 154.274
95.494, 159.124
95.976, 168.016
96.458, 172.875
96.940, 172.636
97.422, 171.820
97.904, 176.701
98.386, 192.124
98.869, 202.875
99.351, 208.662
99.833, 209.951
100.315, 205.121
100.797, 193.375
101.279, 180.009
101.761, 175.914
102.243, 185.735
102.726, 192.706
103.208, 192.300
103.690, 186.958
104.172, 180.655
104.654, 174.388
105.136, 168.822
105.618, 164.971
106.100, 161.148
106.582, 161.439
107.064, 172.102
107.547, 190.268
108.029, 202.355
108.511, 198.732
108.993, 186.714
109.475, 183.266
109.957, 195.083
110.439, 207.170
110.921, 204.142
111.404, 185.219
111.886, 169.375
112.368, 168.856
112.850, 177.391
113.332, 187.041
113.814, 198.828
114.296, 208.774
114.778, 209.002
115.260, 195.695
115.743, 184.682
116.225, 187.503
116.707, 197.158
117.189, 203.738
117.671, 199.686
118.153, 190.423
118.635, 191.758
119.117, 208.067
119.600, 228.550
120.082, 250.759
120.564, 272.789
121.046, 290.773
121.528, 299.690
122.010, 301.093
122.492, 309.771
122.974, 328.768
123.456, 352.679
123.939, 382.011
124.421, 414.618
124.903, 446.254
125.385, 473.186
125.867, 495.326
126.349, 515.086
126.831, 527.537
127.313, 541.801
127.796, 561.808
128.278, 587.104
128.760, 614.935
129.242, 643.960
129.724, 677.557
130.206, 699.408
130.688, 701.793
131.170, 700.125
131.652, 701.477
132.135, 707.034
132.617, 714.271
133.099, 720.095
133.581, 724.628
134.063, 727.197
134.545, 722.143
135.027, 719.120
135.509, 726.934
135.992, 746.681
136.474, 770.846
136.956, 786.997
137.438, 787.641
137.920, 791.844
138.402, 800.459
138.884, 811.855
139.366, 824.294
139.848, 837.204
140.331, 851.916
140.813, 870.935
141.295, 898.752
141.777, 925.471
142.259, 947.317
142.741, 969.159
143.223, 997.759
143.705, 1036.015
144.188, 1079.042
144.670, 1115.006
145.152, 1139.679
145.634, 1163.292
146.116, 1186.965
146.598, 1210.397
147.080, 1232.488
147.562, 1252.488
148.044, 1271.997
148.527, 1296.636
149.009, 1334.032
149.491, 1365.592
149.973, 1386.576
150.455, 1398.655
150.937, 1403.383
151.419, 1399.246
151.901, 1391.223
152.383, 1396.298
152.866, 1425.999
153.348, 1451.821
153.830, 1461.044
154.312, 1457.403
154.794, 1451.444
155.276, 1448.269
155.758, 1446.449
156.240, 1441.078
156.723, 1424.245
157.205, 1413.077
157.687, 1421.362
158.169, 1444.971
158.651, 1464.509
159.133, 1466.625
159.615, 1458.479
160.097, 1463.050
160.579, 1488.242
161.062, 1517.303
161.544, 1539.993
162.026, 1556.738
162.508, 1572.595
162.990, 1592.156
163.472, 1611.671
163.954, 1622.003
164.436, 1612.175
164.919, 1603.364
165.401, 1615.857
165.883, 1648.948
166.365, 1680.849
166.847, 1701.621
167.329, 1711.528
167.811, 1712.137
168.293, 1694.942
168.775, 1676.573
169.258, 1675.806
169.740, 1693.453
170.222, 1707.855
170.704, 1701.644
171.186, 1685.641
171.668, 1679.773
172.150, 1691.800
172.632, 1710.711
173.115, 1727.093
173.597, 1741.330
174.079, 1749.503
174.561, 1741.147
175.043, 1727.362
175.525, 1726.543
176.007, 1750.934
176.489, 1781.739
176.971, 1795.047
177.454, 1788.181
177.936, 1780.945
178.418, 1787.037
178.900, 1798.656
179.382, 1804.389
179.864, 1794.296
180.346, 1783.966
180.828, 1799.133
181.311, 1845.810
181.793, 1887.012
182.275, 1896.507
182.757, 1890.089
183.239, 1884.719
183.721, 1884.713
184.203, 1888.125
184.685, 1892.884
185.167, 1899.327
185.650, 1905.484
186.132, 1907.343
186.614, 1909.150
187.096, 1916.959
187.578, 1935.821
188.060, 1957.436
188.542, 1970.415
189.024, 1973.633
189.507, 1972.355
189.989, 1964.643
190.471, 1955.133
190.953, 1949.339
191.435, 1950.581
191.917, 1953.934
192.399, 1949.175
192.881, 1932.041
193.363, 1924.822
193.846, 1949.110
194.328, 1984.820
194.810, 2011.652
195.292, 2022.115
195.774, 2024.467
196.256, 2029.701
196.738, 2038.516
197.220, 2047.312
197.702, 2054.715
198.185, 2061.299
198.667, 2066.915
199.149, 2070.435
199.631, 2075.339
200.113, 2086.827
200.595, 2105.895
201.077, 2126.806
201.559, 2150.168
202.042, 2173.258
202.524, 2192.681
203.006, 2206.614
203.488, 2219.630
203.970, 2236.523
204.452, 2257.138
204.934, 2282.793
205.416, 2318.269
205.898, 2357.106
206.380, 2394.243
206.863, 2428.987
207.345, 2461.156
207.827, 2490.845
208.309, 2518.139
208.791, 2541.951
209.273, 2559.324
209.755, 2574.321
210.238, 2588.566
210.720, 2601.382
211.202, 2618.629
211.684, 2651.679
212.166, 2701.947
212.648, 2739.726
213.130, 2744.804
213.612, 2740.859
214.094, 2749.525
214.577, 2774.476
215.059, 2801.083
215.541, 2818.710
216.023, 2827.360
216.505, 2823.789
216.987, 2795.248
217.469, 2763.872
217.951, 2750.732
218.434, 2758.206
218.916, 2767.908
219.398, 2762.341
219.880, 2743.562
220.362, 2734.962
220.844, 2749.868
221.326, 2767.852
221.808, 2769.414
222.290, 2754.270
222.773, 2737.898
223.255, 2729.477
223.737, 2728.229
224.219, 2729.675
224.701, 2732.815
225.183, 2739.181
225.665, 2745.886
226.147, 2753.684
226.629, 2773.959
227.112, 2821.460
227.594, 2887.229
228.076, 2941.956
228.558, 2977.023
229.040, 3008.624
229.522, 3052.155
230.004, 3105.316
230.486, 3156.015
230.969, 3196.882
231.451, 3231.857
231.933, 3271.569
232.415, 3320.282
232.897, 3364.517
233.379, 3392.678
233.861, 3407.540
234.343, 3413.376
234.825, 3407.936
235.307, 3395.479
235.790, 3383.824
236.272, 3374.752
236.754, 3359.417
237.236, 3333.236
237.718, 3295.514
238.200, 3240.981
238.682, 3155.060
239.165, 3059.577
239.647, 2981.108
240.129, 2920.632
240.611, 2857.862
241.093, 2777.305
241.575, 2683.883
242.057, 2594.417
242.539, 2507.893
243.021, 2427.141
243.503, 2355.079
243.986, 2291.296
244.468, 2232.446
244.950, 2178.783
245.432, 2128.123
245.914, 2073.502
246.396, 2007.906
246.878, 1947.286
247.361, 1902.342
247.843, 1870.068
248.325, 1832.958
248.807, 1769.437
249.289, 1712.473
249.771, 1672.914
250.253, 1689.445
250.735, 1692.363
251.217, 1682.397
251.699, 1620.956
252.182, 1625.984
252.664, 1604.374
253.146, 1581.668
253.628, 1596.051
254.110, 1542.097
254.592, 1555.892
255.074, 1537.690
255.556, 1532.163
256.039, 1521.914
256.521, 1504.566
257.003, 1484.075
257.485, 1465.925
257.967, 1451.979
258.449, 1435.150
258.931, 1404.736
259.413, 1377.825
259.896, 1373.394
260.378, 1392.532
260.860, 1416.398
261.342, 1425.222
261.824, 1415.288
262.306, 1405.471
262.788, 1393.367
263.270, 1383.438
263.752, 1378.722
264.234, 1378.802
264.717, 1381.593
265.199, 1386.466
265.681, 1393.843
266.163, 1390.692
266.645, 1364.034
267.127, 1341.733
267.609, 1336.142
268.091, 1342.166
268.574, 1348.866
269.056, 1349.667
269.538, 1344.955
270.020, 1337.307
270.502, 1324.571
270.984, 1310.916
271.466, 1296.374
271.948, 1281.335
272.431, 1265.788
272.913, 1249.645
273.395, 1233.938
273.877, 1220.661
274.359, 1207.125
274.841, 1201.506
275.323, 1213.809
275.805, 1228.002
276.287, 1229.088
276.770, 1213.314
277.252, 1190.399
277.734, 1173.253
278.216, 1161.531
278.698, 1157.238
279.180, 1169.997
279.662, 1182.699
280.144, 1185.154
280.626, 1177.086
281.109, 1165.930
281.591, 1159.191
282.073, 1157.218
282.555, 1152.517
283.037, 1144.127
283.519, 1133.460
284.001, 1118.479
284.483, 1101.479
284.966, 1088.460
285.448, 1084.747
285.930, 1088.200
286.412, 1091.419
286.894, 1096.739
287.376, 1096.966
287.858, 1083.794
288.340, 1064.308
288.823, 1049.990
289.305, 1046.064
289.787, 1048.455
290.269, 1052.233
290.751, 1057.727
291.233, 1062.081
291.715, 1061.270
292.197, 1059.837
292.679, 1065.311
293.161, 1082.748
293.644, 1098.125
294.126, 1095.464
294.608, 1078.425
295.090, 1070.362
295.572, 1080.840
296.054, 1101.729
296.536, 1122.200
297.018, 1143.899
297.501, 1158.373
297.983, 1155.711
298.465, 1144.966
298.947, 1142.957
299.429, 1153.934
299.911, 1170.664
300.393, 1186.319
300.875, 1201.334
301.358, 1210.820
301.840, 1212.443
302.322, 1209.402
302.804, 1201.399
303.286, 1189.642
303.768, 1182.205
304.250, 1187.424
304.732, 1205.403
305.214, 1211.983
305.697, 1201.243
306.179, 1186.960
306.661, 1170.573
307.143, 1155.052
307.625, 1147.543
308.107, 1153.219
308.589, 1166.902
309.071, 1167.588
309.553, 1142.825
310.036, 1119.167
310.518, 1093.385
311.000, 1072.036
311.482, 1065.290
311.964, 1075.649
312.446, 1091.836
312.928, 1093.760
313.410, 1072.553
313.892, 1056.199
314.375, 1044.943
314.857, 1037.849
315.339, 1037.006
315.821, 1040.960
316.303, 1043.775
316.785, 1038.543
317.267, 1024.796
317.750, 1015.273
318.232, 1014.337
318.714, 1013.081
319.196, 1006.508
319.678, 997.205
320.160, 990.680
320.642, 991.036
321.124, 995.624
321.606, 997.448
322.089, 995.795
322.571, 993.252
323.053, 991.282
323.535, 988.792
324.017, 983.184
324.499, 971.737
324.981, 963.195
325.463, 969.468
325.945, 989.573
326.428, 1005.347
326.910, 1010.052
327.392, 1009.568
327.874, 1013.322
328.356, 1022.496
328.838, 1024.816
329.320, 1005.948
329.802, 978.688
330.284, 967.746
330.767, 978.493
331.249, 996.723
331.731, 1011.020
332.213, 1021.106
332.695, 1025.303
333.177, 1015.586
333.659, 1006.160
334.141, 1009.817
334.624, 1024.322
335.106, 1036.679
335.588, 1037.896
336.070, 1030.543
336.552, 1030.797
337.034, 1047.255
337.516, 1059.966
337.998, 1056.529
338.480, 1036.595
338.963, 1073.184
339.445, 1096.052
339.927, 1105.937
340.409, 1063.956
340.891, 1088.950
341.373, 1087.103
341.855, 1084.155
342.337, 1118.576
342.819, 1084.137
343.302, 1117.966
343.784, 1124.544
344.266, 1143.593
344.748, 1135.635
345.230, 1136.019
345.712, 1140.560
346.194, 1173.658
346.677, 1186.364
347.159, 1184.612
347.641, 1178.082
348.123, 1169.214
348.605, 1161.989
349.087, 1165.296
349.569, 1181.189
350.051, 1199.316
350.533, 1218.229
351.016, 1236.631
351.498, 1254.103
351.980, 1271.137
352.462, 1283.961
352.944, 1283.795
353.426, 1275.702
353.908, 1282.219
354.390, 1312.375
354.872, 1347.914
355.355, 1366.665
355.837, 1371.092
356.319, 1378.351
356.801, 1393.752
357.283, 1412.815
357.765, 1431.165
358.247, 1448.641
358.729, 1467.802
359.211, 1491.006
359.694, 1517.236
360.176, 1539.599
360.658, 1560.362
361.140, 1575.390
361.622, 1577.043
362.104, 1573.848
362.586, 1580.919
363.069, 1603.907
363.551, 1631.760
364.033, 1644.142
364.515, 1632.767
364.997, 1621.786
365.479, 1605.661
365.961, 1594.154
366.443, 1595.455
366.925, 1608.182
367.408, 1624.335
367.890, 1638.312
368.372, 1649.977
368.854, 1655.474
369.336, 1653.006
369.818, 1646.183
370.300, 1626.654
370.782, 1606.775
371.264, 1597.712
371.747, 1577.112
372.229, 1595.741
372.711, 1604.848
373.193, 1604.944
373.675, 1569.042
374.157, 1579.624
374.639, 1571.577
375.121, 1562.767
375.603, 1579.892
376.086, 1549.225
376.568, 1565.939
377.050, 1563.739
377.532, 1570.195
378.014, 1557.907
378.496, 1551.409
378.978, 1547.796
379.460, 1577.099
379.943, 1592.698
380.425, 1582.482
380.907, 1569.903
381.389, 1567.881
381.871, 1573.226
382.353, 1575.955
382.835, 1570.825
383.317, 1563.925
383.799, 1569.601
384.282, 1602.036
384.764, 1627.012
385.246, 1637.669
385.728, 1645.800
386.210, 1661.105
386.692, 1684.147
387.174, 1708.503
387.656, 1727.789
388.138, 1741.864
388.621, 1757.210
389.103, 1773.072
389.585, 1791.359
390.067, 1814.282
390.549, 1839.406
391.031, 1863.085
391.513, 1883.427
391.996, 1902.782
392.478, 1925.757
392.960, 1953.200
393.442, 1976.899
393.924, 1991.077
394.406, 2003.857
394.888, 2022.945
395.370, 2048.577
395.852, 2075.833
396.335, 2104.205
396.817, 2132.033
397.299, 2156.076
397.781, 2175.831
398.263, 2193.895
398.745, 2212.993
399.227, 2232.206
399.709, 2246.015
400.191, 2249.396
400.674, 2252.832
401.156, 2263.961
401.638, 2277.658
402.120, 2283.536
402.602, 2277.441
403.084, 2265.412
403.566, 2258.403
404.048, 2259.588
404.530, 2259.228
405.013, 2255.365
405.495, 2251.861
405.977, 2254.837
406.459, 2261.089
406.941, 2260.114
407.423, 2242.954
407.905, 2212.323
408.387, 2183.575
408.870, 2157.527
409.352, 2131.966
409.834, 2108.419
410.316, 2083.850
410.798, 2053.532
411.280, 2015.262
411.762, 1978.967
412.244, 1955.842
412.727, 1943.705
413.209, 1929.753
413.691, 1911.412
414.173, 1891.365
414.655, 1871.104
415.137, 1850.902
415.619, 1832.519
416.101, 1817.662
416.583, 1803.801
417.065, 1789.042
417.548, 1773.514
418.030, 1758.595
418.512, 1745.314
418.994, 1732.070
419.476, 1713.994
419.958, 1676.574
420.440, 1654.813
420.922, 1666.004
421.405, 1682.642
421.887, 1678.699
422.369, 1653.174
422.851, 1625.396
423.333, 1614.470
423.815, 1620.171
424.297, 1624.117
424.779, 1634.218
425.262, 1630.909
425.744, 1599.465
426.226, 1555.625
426.708, 1519.829
427.190, 1499.804
427.672, 1486.803
428.154, 1472.168
428.636, 1455.893
429.118, 1436.184
429.601, 1408.778
430.083, 1383.537
430.565, 1373.583
431.047, 1376.801
431.529, 1375.104
432.011, 1356.731
432.493, 1336.310
432.975, 1327.590
433.457, 1329.867
433.940, 1337.451
434.422, 1349.095
434.904, 1361.077
435.386, 1361.339
435.868, 1336.186
436.350, 1317.795
436.832, 1306.822
437.314, 1304.107
437.797, 1313.544
438.279, 1333.695
438.761, 1356.146
439.243, 1373.613
439.725, 1386.065
440.207, 1395.534
440.689, 1398.323
441.171, 1403.503
441.654, 1413.606
442.136, 1427.515
442.618, 1444.300
443.100, 1463.998
443.582, 1484.661
444.064, 1504.547
444.546, 1523.719
445.028, 1541.655
445.510, 1557.155
445.992, 1573.570
446.475, 1596.151
446.957, 1623.681
447.439, 1647.528
447.921, 1663.239
448.403, 1677.332
448.885, 1694.058
449.367, 1713.114
449.849, 1733.678
450.332, 1755.334
450.814, 1777.596
451.296, 1799.316
451.778, 1822.746
452.260, 1841.405
452.742, 1851.331
453.224, 1859.945
453.706, 1873.156
454.189, 1889.917
454.671, 1904.512
455.153, 1911.646
455.635, 1913.792
456.117, 1921.176
456.599, 1934.592
457.081, 1951.268
457.563, 1974.159
458.045, 1997.940
458.528, 2016.773
459.010, 2029.437
459.492, 2042.849
459.974, 2062.257
460.456, 2085.481
460.938, 2107.464
461.420, 2127.537
461.902, 2148.294
462.384, 2173.411
462.867, 2201.549
463.349, 2221.145
463.831, 2226.369
464.313, 2230.750
464.795, 2240.381
465.277, 2251.081
465.759, 2260.567
466.241, 2267.080
466.724, 2261.719
467.206, 2227.394
467.688, 2154.314
468.170, 2112.167
468.652, 2135.526
469.134, 2154.937
469.616, 2149.162
470.098, 2124.179
470.580, 2088.698
471.063, 2043.294
471.545, 1998.998
472.027, 1974.481
472.509, 1968.157
472.991, 1953.945
473.473, 1923.724
473.955, 1887.420
474.437, 1854.376
474.919, 1824.296
475.402, 1795.020
475.884, 1769.287
476.366, 1741.439
476.848, 1705.378
477.330, 1663.419
477.812, 1621.297
478.294, 1581.040
478.776, 1545.012
479.259, 1519.223
479.741, 1512.768
480.223, 1498.793
480.705, 1475.799
481.187, 1447.689
481.669, 1411.385
482.151, 1371.559
482.633, 1339.966
483.116, 1325.992
483.598, 1322.699
484.080, 1314.140
484.562, 1299.598
485.044, 1283.729
485.526, 1268.497
486.008, 1251.908
486.490, 1231.824
486.972, 1208.071
487.454, 1183.745
487.937, 1154.542
488.419, 1128.488
488.901, 1117.228
489.383, 1119.591
489.865, 1124.149
490.347, 1124.688
490.829, 1121.526
491.311, 1115.750
491.794, 1104.365
492.276, 1094.260
492.758, 1087.788
493.240, 1080.988
493.722, 1069.909
494.204, 1055.067
494.686, 1040.551
495.168, 1029.416
495.651, 1021.131
496.133, 1013.268
496.615, 1005.216
497.097, 999.450
497.579, 999.854
498.061, 1001.173
498.543, 995.988
499.025, 982.579
499.507, 973.618
499.990, 981.349
500.472, 993.960
500.954, 992.615
501.436, 977.177
501.918, 964.255
502.400, 965.814
502.882, 978.079
503.364, 983.792
503.846, 978.091
504.329, 971.850
504.811, 964.014
505.293, 957.003
505.775, 952.869
506.257, 951.684
506.739, 952.119
507.221, 953.335
507.703, 955.213
508.185, 956.207
508.668, 953.660
509.150, 959.429
509.632, 963.180
510.114, 965.020
510.596, 959.229
511.078, 963.292
511.560, 963.406
512.042, 963.358
512.525, 968.808
513.007, 964.127
513.489, 969.490
513.971, 970.844
514.453, 974.033
514.935, 973.247
515.417, 973.690
515.899, 974.744
516.381, 974.826
516.864, 981.698
517.346, 989.294
517.828, 992.403
518.310, 991.230
518.792, 989.896
519.274, 992.065
519.756, 996.127
520.239, 995.675
520.721, 988.834
521.203, 987.026
521.685, 997.390
522.167, 1012.772
522.649, 1023.736
523.131, 1030.159
523.613, 1033.140
524.095, 1026.640
524.578, 1021.241
525.060, 1030.648
525.542, 1052.283
526.024, 1071.615
526.506, 1080.357
526.988, 1081.347
527.470, 1082.251
527.952, 1080.464
528.434, 1083.696
528.917, 1093.052
529.399, 1106.141
529.881, 1124.411
530.363, 1145.562
530.845, 1163.028
531.327, 1171.354
531.809, 1176.006
532.291, 1186.602
532.773, 1203.078
533.256, 1219.277
533.738, 1233.562
534.220, 1246.478
534.702, 1258.235
535.184, 1268.732
535.666, 1280.177
536.148, 1286.423
536.630, 1299.684
537.112, 1333.696
537.595, 1379.544
538.077, 1417.615
538.559, 1439.484
539.041, 1454.626
539.523, 1479.841
540.005, 1517.846
540.487, 1553.066
540.969, 1586.746
541.452, 1614.990
541.934, 1632.007
542.416, 1643.139
542.898, 1659.108
543.380, 1684.677
543.862, 1712.602
544.344, 1738.086
544.826, 1761.037
545.308, 1783.184
545.791, 1805.498
546.273, 1818.614
546.755, 1811.089
547.237, 1783.019
547.719, 1766.518
548.201, 1778.084
548.683, 1779.688
549.166, 1754.593
549.648, 1720.038
550.130, 1695.273
550.612, 1683.618
551.094, 1673.553
551.576, 1652.304
552.058, 1622.549
552.540, 1601.797
553.022, 1593.754
553.505, 1580.405
553.987, 1551.285
554.469, 1513.037
554.951, 1477.101
555.433, 1443.432
555.915, 1412.800
556.397, 1386.449
556.879, 1362.709
557.362, 1340.808
557.844, 1320.155
558.326, 1299.167
558.808, 1276.610
559.290, 1253.686
559.772, 1233.245
560.254, 1215.518
560.736, 1199.720
561.218, 1193.426
561.701, 1182.162
562.183, 1150.119
562.665, 1105.905
563.147, 1076.772
563.629, 1081.031
564.111, 1095.588
564.593, 1096.971
565.075, 1087.576
565.557, 1073.017
566.040, 1052.783
566.522, 1033.071
567.004, 1042.059
567.486, 1044.079
567.968, 1039.508
568.450, 1008.601
568.932, 1011.699
569.414, 1001.170
569.896, 990.083
570.379, 997.970
570.861, 970.893
571.343, 978.479
571.825, 972.226
572.307, 962.768
572.789, 974.070
573.271, 969.913
573.753, 960.561
574.235, 948.134
574.718, 935.276
575.200, 927.236
575.682, 924.535
576.164, 924.436
576.646, 929.890
577.128, 934.972
577.610, 933.563
578.093, 927.234
578.575, 921.370
579.057, 918.822
579.539, 908.856
580.021, 921.052
580.503, 927.868
580.985, 929.594
581.467, 910.983
581.949, 918.632
582.432, 915.758
582.914, 912.452
583.396, 923.798
583.878, 908.145
584.360, 919.258
584.842, 919.687
585.324, 925.006
585.806, 919.736
586.289, 917.736
586.771, 926.329
587.253, 929.057
587.735, 922.567
588.217, 928.197
588.699, 912.174
589.181, 915.152
589.663, 926.327
590.145, 920.370
590.628, 916.639
591.110, 929.857
591.592, 942.397
592.074, 942.162
592.556, 936.758
593.038, 937.631
593.520, 944.023
594.002, 948.999
594.484, 948.649
594.967, 951.334
595.449, 954.274
595.931, 976.317
596.413, 993.724
596.895, 1006.743
597.377, 1008.594
597.859, 1009.532
598.341, 1021.752
598.823, 1037.396
599.306, 1053.823
599.788, 1066.401
600.270, 1071.187
600.752, 1068.364
601.234, 1055.231
601.716, 1029.761
602.198, 1010.923
602.680, 1012.146
603.162, 1024.307
603.645, 1024.701
604.127, 1008.587
604.609, 993.720
605.091, 983.302
605.573, 973.345
606.055, 958.672
606.537, 942.504
607.019, 934.134
607.502, 938.911
607.984, 946.334
608.466, 935.735
608.948, 907.537
609.430, 894.036
609.912, 903.418
610.394, 916.954
610.876, 920.301
611.359, 917.702
611.841, 924.225
612.323, 950.529
612.805, 969.377
613.287, 969.410
613.769, 960.593
614.251, 949.441
614.733, 938.649
615.216, 932.610
615.698, 935.007
616.180, 941.990
616.662, 941.222
617.144, 929.601
617.626, 929.889
618.108, 953.242
618.590, 980.043
619.072, 993.412
619.555, 996.602
620.037, 1000.849
620.519, 1015.270
621.001, 1022.759
621.483, 1009.086
621.965, 986.639
622.447, 972.451
622.929, 969.036
623.411, 968.329
623.894, 963.497
624.376, 955.651
624.858, 951.160
625.340, 953.431
625.822, 947.842
626.304, 922.956
626.786, 896.591
627.268, 886.804
627.750, 890.904
628.233, 889.236
628.715, 868.658
629.197, 848.897
629.679, 844.203
630.161, 848.445
630.643, 851.360
631.125, 850.242
631.607, 847.384
632.089, 845.558
632.572, 844.156
633.054, 836.054
633.536, 815.897
634.018, 801.921
634.500, 802.024
634.982, 808.338
635.464, 816.658
635.946, 826.262
636.429, 829.991
636.911, 819.482
637.393, 807.980
637.875, 808.617
638.357, 814.943
638.839, 811.128
639.321, 793.440
639.803, 775.537
640.286, 773.891
640.768, 787.461
641.250, 792.627
641.732, 783.984
642.214, 778.797
642.696, 787.385
643.178, 798.394
643.660, 801.007
644.143, 794.964
644.625, 787.831
645.107, 778.471
645.589, 772.222
646.071, 775.971
646.553, 785.438
647.035, 792.373
647.517, 794.097
647.999, 791.494
648.482, 784.743
648.964, 774.134
649.446, 765.417
649.928, 758.158
650.410, 753.798
650.892, 755.229
651.374, 758.107
651.856, 756.402
652.338, 749.944
652.821, 749.019
653.303, 768.498
653.785, 783.213
654.267, 767.000
654.749, 734.851
655.231, 716.026
655.713, 719.071
656.195, 732.964
656.677, 747.854
657.160, 762.990
657.642, 769.633
658.124, 765.235
658.606, 759.680
659.088, 755.342
659.570, 752.047
660.052, 749.944
660.534, 749.060
661.016, 747.084
661.499, 743.840
661.981, 739.081
662.463, 729.650
662.945, 719.683
663.427, 716.815
663.909, 722.296
664.391, 728.960
664.873, 729.901
665.356, 725.945
665.838, 719.706
666.320, 709.654
666.802, 706.172
667.284, 715.785
667.766, 709.964
668.248, 715.638
668.730, 718.521
669.213, 718.764
669.695, 708.458
670.177, 711.774
670.659, 709.631
671.141, 707.264
671.623, 712.497
672.105, 703.725
672.587, 708.838
673.070, 708.408
673.552, 710.514
674.034, 707.128
674.516, 705.439
674.998, 709.244
675.480, 710.007
675.962, 705.988
676.444, 708.257
676.926, 699.293
677.409, 701.098
677.891, 708.006
678.373, 712.535
678.855, 713.842
679.337, 712.154
679.819, 705.425
680.301, 695.293
680.783, 688.663
681.265, 691.467
681.748, 697.422
682.230, 696.448
682.712, 690.275
683.194, 686.932
683.676, 688.275
684.158, 691.445
684.640, 694.151
685.122, 696.460
685.604, 698.990
686.087, 702.682
686.569, 705.040
687.051, 704.954
687.533, 704.407
688.015, 705.332
688.497, 706.867
688.979, 706.117
689.461, 700.732
689.943, 695.482
690.426, 694.790
690.908, 696.749
691.390, 698.879
691.872, 700.415
692.354, 699.029
692.836, 692.888
693.318, 683.696
693.800, 676.022
694.283, 669.865
694.765, 664.961
695.247, 659.322
695.729, 657.536
696.211, 664.810
696.693, 676.731
697.175, 685.660
697.657, 691.001
698.140, 692.248
698.622, 689.241
699.104, 682.038
699.586, 664.787
700.068, 643.591
700.550, 635.073
701.032, 646.742
701.514, 667.121
701.997, 684.058
702.479, 696.871
702.961, 691.883
703.443, 663.643
703.925, 639.932
704.407, 634.776
704.889, 639.889
705.371, 640.244
705.853, 632.625
706.336, 634.594
706.818, 658.456
707.300, 679.048
707.782, 682.773
708.264, 678.446
708.746, 679.006
709.228, 686.618
709.710, 691.849
710.192, 686.266
710.675, 674.021
711.157, 660.164
711.639, 645.693
712.121, 637.375
712.603, 637.614
713.085, 640.789
713.567, 640.310
714.049, 636.517
714.531, 639.850
715.014, 658.392
715.496, 648.216
715.978, 660.519
716.460, 667.365
716.942, 669.048
717.424, 650.104
717.906, 657.796
718.388, 654.813
718.870, 651.393
719.353, 662.833
719.835, 646.889
720.317, 658.094
720.799, 658.462
721.281, 663.789
721.763, 658.376
722.245, 656.281
722.727, 664.929
723.210, 655.679
723.692, 648.697
724.174, 653.031
724.656, 659.296
725.138, 662.851
725.620, 663.942
726.102, 662.669
726.584, 657.207
727.067, 654.284
727.549, 654.712
728.031, 657.632
728.513, 667.702
728.995, 678.123
729.477, 676.277
729.959, 658.959
730.441, 640.909
730.924, 634.177
731.406, 635.253
731.888, 641.039
732.370, 649.734
732.852, 650.227
733.334, 637.885
733.816, 625.001
734.298, 627.213
734.780, 644.310
735.263, 657.506
735.745, 668.750
736.227, 671.952
736.709, 658.803
737.191, 642.611
737.673, 632.806
738.155, 629.067
738.637, 627.723
739.119, 630.337
739.602, 632.251
740.084, 626.643
740.566, 622.283
741.048, 633.613
741.530, 657.016
742.012, 674.012
742.494, 673.293
742.976, 663.536
743.458, 656.376
743.941, 652.098
744.423, 655.536
744.905, 668.613
745.387, 674.019
745.869, 659.643
746.351, 634.355
746.833, 617.896
747.315, 612.051
747.797, 609.854
748.280, 613.058
748.762, 617.840
749.244, 623.614
749.726, 629.964
750.208, 637.075
750.690, 644.914
751.172, 650.948
751.654, 652.428
752.137, 653.053
752.619, 658.554
753.101, 664.811
753.583, 662.123
754.065, 649.352
754.547, 635.812
755.029, 629.292
755.511, 628.415
755.994, 630.399
756.476, 635.531
756.958, 637.368
757.440, 634.510
757.922, 628.369
758.404, 617.558
758.886, 604.746
759.368, 601.529
759.851, 619.812
760.333, 629.801
760.815, 623.209
761.297, 616.614
761.779, 618.688
762.261, 626.932
762.743, 638.120
763.225, 652.212
763.707, 660.333
764.190, 652.536
764.672, 639.038
765.154, 628.963
765.636, 623.544
766.118, 626.130
766.600, 637.164
767.082, 647.697
767.564, 647.954
768.046, 639.257
768.529, 626.609
769.011, 608.764
769.493, 597.191
769.975, 595.292
770.457, 599.545
770.939, 608.926
771.421, 622.332
771.903, 629.763
772.385, 630.029
772.868, 626.251
773.350, 611.628
773.832, 599.652
774.314, 600.219
774.796, 609.546
775.278, 619.534
775.760, 628.408
776.242, 634.339
776.724, 636.823
777.207, 635.249
777.689, 624.413
778.171, 608.942
778.653, 603.453
779.135, 612.774
779.617, 625.571
780.099, 628.760
780.581, 623.953
781.064, 619.264
781.546, 614.519
782.028, 612.190
782.510, 613.527
782.992, 615.933
783.474, 616.416
783.956, 615.458
784.438, 618.317
784.920, 637.755
785.403, 641.990
785.885, 610.883
786.367, 581.991
786.849, 580.468
787.331, 597.194
787.813, 611.825
788.295, 620.329
788.778, 622.568
789.260, 612.031
789.742, 600.503
790.224, 600.620
790.706, 608.912
791.188, 617.780
791.670, 624.117
792.152, 624.732
792.634, 612.320
793.117, 593.353
793.599, 588.275
794.081, 596.392
794.563, 607.773
795.045, 621.385
795.527, 627.462
796.009, 614.363
796.491, 587.642
796.973, 578.843
797.456, 599.195
797.938, 612.165
798.420, 612.836
798.902, 608.033
799.384, 597.478
799.866, 585.327
800.348, 579.368
800.830, 581.455
801.312, 585.219
801.795, 576.850
802.277, 587.321
802.759, 593.219
803.241, 594.790
803.723, 579.071
804.205, 585.677
804.687, 583.337
805.169, 580.630
805.652, 590.379
806.134, 577.175
806.616, 586.726
807.098, 587.194
807.580, 591.819
808.062, 587.442
808.544, 585.845
809.026, 593.253
809.508, 595.676
809.991, 590.262
810.473, 595.152
810.955, 581.633
811.437, 584.268
811.919, 593.872
812.401, 588.911
812.883, 593.965
813.365, 595.205
813.847, 579.110
814.330, 593.162
814.812, 585.945
815.294, 573.959
815.776, 566.011
816.258, 580.808
816.740, 613.265
817.222, 637.007
817.705, 642.864
818.187, 637.221
818.669, 614.316
819.151, 588.609
819.633, 576.709
820.115, 577.735
820.597, 585.316
821.079, 596.756
821.561, 605.628
822.044, 602.943
822.526, 592.126
823.008, 581.868
823.490, 572.691
823.972, 566.280
824.454, 562.875
824.936, 566.988
825.418, 585.558
825.901, 614.792
826.383, 628.585
826.865, 622.167
827.347, 616.974
827.829, 617.398
828.311, 617.139
828.793, 611.609
829.275, 602.489
829.757, 593.844
830.240, 583.617
830.722, 579.373
831.204, 585.438
831.686, 593.197
832.168, 602.672
832.650, 609.626
833.132, 607.028
833.614, 595.341
834.096, 586.447
834.578, 594.126
835.061, 597.833
835.543, 571.608
836.025, 538.700
836.507, 535.220
836.989, 558.600
837.471, 580.157
837.953, 584.638
838.435, 581.365
838.917, 579.807
839.400, 580.884
839.882, 592.358
840.364, 612.499
840.846, 616.601
841.328, 594.286
841.810, 567.383
842.292, 562.720
842.774, 577.336
843.257, 584.185
843.739, 581.239
844.221, 578.703
844.703, 578.552
845.185, 578.727
845.667, 576.585
846.149, 573.950
846.631, 577.223
847.114, 593.623
847.596, 600.816
848.078, 589.373
848.560, 579.672
849.042, 580.016
849.524, 586.004
850.006, 594.199
850.488, 603.563
850.971, 607.591
851.453, 598.912
851.935, 590.435
852.417, 591.872
852.899, 595.032
853.381, 588.568
853.863, 575.204
854.345, 566.932
854.827, 569.688
855.310, 575.248
855.792, 576.556
856.274, 574.684
856.756, 570.218
857.238, 564.222
857.720, 558.513
858.202, 554.091
858.684, 557.319
859.166, 545.882
859.649, 559.646
860.131, 567.293
860.613, 569.151
861.095, 547.882
861.577, 556.477
862.059, 553.103
862.541, 549.239
863.023, 562.037
863.505, 544.132
863.988, 556.666
864.470, 554.823
864.952, 573.600
865.434, 588.174
865.916, 588.135
866.398, 584.224
866.880, 590.820
867.362, 605.790
867.844, 608.633
868.327, 584.995
868.809, 568.874
869.291, 571.711
869.773, 576.967
870.255, 573.055
870.737, 564.604
871.219, 561.225
871.701, 565.255
872.184, 570.452
872.666, 575.349
873.148, 579.045
873.630, 580.361
874.112, 580.349
874.594, 581.164
875.076, 582.414
875.558, 580.252
876.041, 570.601
876.523, 562.801
877.005, 571.335
877.487, 587.281
877.969, 593.475
878.451, 590.495
878.933, 587.122
879.415, 586.745
879.898, 586.479
880.380, 582.399
880.862, 576.288
881.344, 574.378
881.826, 576.550
882.308, 581.325
882.790, 588.702
883.272, 595.343
883.754, 599.580
884.237, 599.860
884.719, 589.993
885.201, 565.824
885.683, 557.023
886.165, 568.561
886.647, 582.583
887.129, 596.067
887.611, 604.974
888.093, 603.105
888.576, 591.277
889.058, 584.055
889.540, 582.093
890.022, 583.779
890.504, 593.993
890.986, 602.400
891.468, 600.719
891.950, 595.068
892.432, 597.278
892.915, 610.179
893.397, 616.255
893.879, 606.610
894.361, 595.740
894.843, 588.219
895.325, 583.443
895.807, 580.096
896.289, 578.763
896.771, 582.473
897.254, 594.410
897.736, 604.599
898.218, 605.311
898.700, 602.898
899.182, 605.004
899.664, 608.303
900.146, 604.906
900.628, 593.596
901.111, 580.404
901.593, 564.650
902.075, 556.909
902.557, 580.197
903.039, 618.803
903.521, 641.965
904.003, 646.074
904.485, 631.634
904.968, 598.651
905.450, 566.404
905.932, 563.073
906.414, 579.944
906.896, 584.549
907.378, 578.571
907.860, 577.850
908.342, 586.094
908.825, 595.768
909.307, 601.652
909.789, 603.830
910.271, 601.065
910.753, 592.855
911.235, 591.084
911.717, 598.490
912.199, 598.018
912.681, 580.099
913.164, 560.454
913.646, 557.557
914.128, 569.422
914.610, 577.382
915.092, 580.627
915.574, 581.731
916.056, 578.878
916.538, 577.474
917.020, 581.515
917.503, 587.998
917.985, 590.782
918.467, 588.052
918.949, 592.613
919.431, 616.750
919.913, 631.239
920.395, 623.973
920.877, 612.037
921.359, 612.902
921.842, 618.046
922.324, 602.414
922.806, 613.185
923.288, 617.546
923.770, 615.844
924.252, 589.912
924.734, 594.842
925.216, 559.200
925.698, 557.980
926.181, 588.625
926.663, 605.266
927.145, 582.468
927.627, 563.666
928.109, 575.669
928.591, 593.881
929.073, 597.641
929.555, 593.023
930.038, 595.556
930.520, 607.369
931.002, 612.177
931.484, 590.434
931.966, 570.003
932.448, 579.050
932.930, 600.453
933.412, 612.661
933.894, 615.478
934.377, 617.980
934.859, 623.633
935.341, 625.068
935.823, 610.201
936.305, 591.014
936.787, 576.941
937.269, 556.199
937.752, 583.669
938.234, 599.436
938.716, 604.129
939.198, 564.578
939.680, 582.158
940.162, 576.843
940.644, 570.590
941.126, 596.211
941.608, 563.096
942.091, 588.211
942.573, 590.082
943.055, 602.592
943.537, 592.065
944.019, 588.653
944.501, 608.285
944.983, 615.158
945.465, 601.978
945.947, 615.164
946.430, 581.244
946.912, 588.660
947.394, 613.911
947.876, 601.890
948.358, 615.497
948.840, 619.344
949.322, 578.833
949.804, 615.464
950.286, 618.734
950.769, 587.748
951.251, 621.736
951.733, 595.473
952.215, 590.717
952.697, 602.144
953.179, 596.700
953.661, 617.856
954.143, 613.386
954.625, 606.626
955.108, 609.859
955.590, 584.777
956.072, 612.224
956.554, 603.789
957.036, 613.190
957.518, 626.633
958.000, 609.517
958.482, 609.020
958.965, 618.110
959.447, 628.124
959.929, 634.167
960.411, 635.670
960.893, 629.726
961.375, 610.925
961.857, 604.080
962.339, 613.639
962.821, 628.081
963.304, 653.364
963.786, 672.561
964.268, 664.880
964.750, 638.521
965.232, 628.615
965.714, 644.531
966.196, 657.707
966.679, 666.621
967.161, 674.589
967.643, 686.274
968.125, 694.819
968.607, 690.776
969.089, 676.355
969.571, 667.060
970.053, 666.006
970.535, 666.073
971.018, 666.344
971.500, 668.141
971.982, 672.284
972.464, 678.122
972.946, 685.965
973.428, 695.389
973.910, 701.641
974.392, 695.514
974.875, 698.764
975.357, 728.364
975.839, 753.841
976.321, 750.971
976.803, 737.463
977.285, 742.522
977.767, 767.933
978.249, 780.894
978.731, 758.318
979.214, 744.966
979.696, 755.447
980.178, 776.234
980.660, 805.385
981.142, 835.166
981.624, 854.366
982.106, 861.416
982.588, 862.537
983.070, 847.013
983.553, 842.591
984.035, 873.727
984.517, 906.395
984.999, 910.721
985.481, 897.419
985.963, 890.953
986.445, 896.298
986.927, 899.222
987.409, 889.451
987.892, 853.810
988.374, 908.873
988.856, 941.918
989.338, 954.130
989.820, 883.104
990.302, 919.560
990.784, 912.943
991.266, 904.559
991.748, 956.143
992.231, 897.225
992.713, 947.859
993.195, 946.751
993.677, 957.488
994.159, 946.426
994.641, 947.711
995.123, 970.844
995.606, 999.612
996.088, 1033.070
996.570, 1063.465
997.052, 1080.647
997.534, 1097.065
998.016, 1125.881
998.498, 1165.232
998.980, 1207.335
999.462, 1250.586
999.945, 1291.341
1000.427, 1326.360
1000.909, 1360.177
1001.391, 1391.909
1001.873, 1426.351
1002.355, 1469.745
1002.837, 1520.255
1003.319, 1572.751
1003.801, 1627.134
1004.284, 1674.545
1004.766, 1697.187
1005.248, 1727.071
1005.730, 1800.839
1006.212, 1879.631
1006.694, 1911.818
1007.176, 1910.378
1007.658, 1928.116
1008.141, 1984.277
1008.623, 2038.802
1009.105, 2071.812
1009.587, 2099.966
1010.069, 2128.928
1010.551, 2161.636
1011.033, 2203.168
1011.515, 2250.535
1011.997, 2296.527
1012.480, 2341.419
1012.962, 2372.091
1013.444, 2380.208
1013.926, 2375.457
1014.408, 2357.148
1014.890, 2333.661
1015.372, 2312.761
1015.854, 2294.368
1016.336, 2274.643
1016.819, 2251.273
1017.301, 2232.912
1017.783, 2225.875
1018.265, 2220.897
1018.747, 2209.263
1019.229, 2200.359
1019.711, 2209.227
1020.193, 2228.610
1020.676, 2232.126
1021.158, 2206.630
1021.640, 2202.839
1022.122, 2258.513
1022.604, 2312.995
1023.086, 2336.990
1023.568, 2347.694
1024.050, 2364.877
1024.532, 2382.953
1025.015, 2381.507
1025.497, 2353.077
1025.979, 2324.917
1026.461, 2311.450
1026.943, 2289.824
1027.425, 2248.745
1027.907, 2197.876
1028.389, 2148.288
1028.872, 2095.260
1029.354, 2021.953
1029.836, 1920.642
1030.318, 1831.266
1030.800, 1768.682
1031.282, 1708.905
1031.764, 1646.123
1032.246, 1581.696
1032.729, 1513.298
1033.211, 1445.304
1033.693, 1385.448
1034.175, 1332.592
1034.657, 1296.773
1035.139, 1293.900
1035.621, 1286.912
1036.103, 1260.958
1036.585, 1235.656
1037.068, 1222.850
1037.550, 1219.828
1038.032, 1223.825
1038.514, 1237.605
1038.996, 1238.389
1039.478, 1215.985
1039.960, 1195.880
1040.442, 1176.663
1040.924, 1166.321
1041.407, 1180.881
1041.889, 1199.322
1042.371, 1180.660
1042.853, 1121.120
1043.335, 1100.286
1043.817, 1150.420
1044.299, 1170.384
1044.781, 1130.449
1045.264, 1092.411
1045.746, 1090.672
1046.228, 1102.614
1046.710, 1096.209
1047.192, 1072.757
1047.674, 1059.000
1048.156, 1060.164
1048.638, 1053.716
1049.120, 1035.270
1049.603, 1015.503
1050.085, 997.808
1050.567, 983.606
1051.049, 975.397
1051.531, 971.754
1052.013, 964.598
1052.495, 953.904
1052.977, 938.137
1053.459, 914.931
1053.942, 899.911
1054.424, 900.211
1054.906, 903.850
1055.388, 898.398
1055.870, 888.375
1056.352, 891.395
1056.834, 907.258
1057.316, 906.007
1057.799, 886.191
1058.281, 867.172
1058.763, 854.546
1059.245, 846.729
1059.727, 842.812
1060.209, 841.351
1060.691, 839.644
1061.173, 837.784
1061.656, 836.392
1062.138, 835.370
1062.620, 832.056
1063.102, 826.657
1063.584, 830.248
1064.066, 850.939
1064.548, 871.888
1065.030, 864.946
1065.512, 842.346
1065.995, 831.116
1066.477, 830.354
1066.959, 841.545
1067.441, 860.407
1067.923, 865.148
1068.405, 845.375
1068.887, 826.661
1069.369, 839.846
1069.851, 864.683
1070.334, 876.359
1070.816, 878.116
1071.298, 871.094
1071.780, 860.071
1072.262, 856.492
1072.744, 863.850
1073.226, 874.525
1073.708, 886.295
1074.191, 895.263
1074.673, 891.590
1075.155, 888.865
1075.637, 909.009
1076.119, 938.656
1076.601, 947.607
1077.083, 933.145
1077.565, 925.898
1078.047, 940.445
1078.530, 961.788
1079.012, 989.207
1079.494, 1014.664
1079.976, 1035.711
1080.458, 1049.535
1080.940, 1047.735
1081.422, 1034.553
1081.904, 1031.914
1082.386, 1044.726
1082.869, 1066.817
1083.351, 1109.082
1083.833, 1144.899
1084.315, 1162.407
1084.797, 1170.707
1085.279, 1171.722
1085.761, 1170.940
1086.243, 1186.113
1086.725, 1224.481
1087.208, 1249.547
1087.690, 1247.670
1088.172, 1258.390
1088.654, 1296.351
1089.136, 1336.651
1089.618, 1365.530
1090.100, 1385.815
1090.582, 1401.381
1091.065, 1412.353
1091.547, 1425.262
1092.029, 1440.660
1092.511, 1454.013
1092.993, 1462.859
1093.475, 1480.915
1093.957, 1516.578
1094.439, 1553.440
1094.922, 1571.438
1095.404, 1577.066
1095.886, 1596.336
1096.368, 1627.027
1096.850, 1634.517
1097.332, 1619.353
1097.814, 1627.949
1098.296, 1672.769
1098.778, 1706.947
1099.260, 1691.669
1099.743, 1662.711
1100.225, 1686.472
1100.707, 1736.478
1101.189, 1746.946
1101.671, 1728.119
1102.153, 1708.714
1102.635, 1697.543
1103.117, 1706.206
1103.600, 1741.060
1104.082, 1773.484
1104.564, 1772.211
1105.046, 1761.672
1105.528, 1769.110
1106.010, 1782.657
1106.492, 1784.337
1106.974, 1778.261
1107.457, 1777.941
1107.939, 1786.696
1108.421, 1798.660
1108.903, 1820.279
1109.385, 1830.966
1109.867, 1814.282
1110.349, 1790.599
1110.831, 1775.037
1111.313, 1760.792
1111.796, 1736.085
1112.278, 1701.991
1112.760, 1671.271
1113.242, 1649.076
1113.724, 1622.829
1114.206, 1579.832
1114.688, 1548.072
1115.170, 1543.290
1115.652, 1543.591
1116.135, 1534.495
1116.617, 1517.519
1117.099, 1495.638
1117.581, 1468.150
1118.063, 1442.821
1118.545, 1420.195
1119.027, 1398.928
1119.509, 1380.864
1119.992, 1353.849
1120.474, 1308.218
1120.956, 1265.851
1121.438, 1258.570
1121.920, 1272.716
1122.402, 1247.270
1122.884, 1188.132
1123.366, 1161.430
1123.849, 1167.550
1124.331, 1159.237
1124.813, 1123.617
1125.295, 1092.272
1125.777, 1089.603
1126.259, 1095.252
1126.741, 1081.196
1127.223, 1055.389
1127.705, 1025.661
1128.188, 998.144
1128.670, 989.869
1129.152, 996.264
1129.634, 992.958
1130.116, 970.640
1130.598, 945.911
1131.080, 925.922
1131.562, 912.371
1132.044, 914.227
1132.527, 915.658
1133.009, 890.983
1133.491, 860.730
1133.973, 850.807
1134.455, 837.977
1134.937, 845.271
1135.419, 847.680
1135.901, 845.465
1136.384, 824.775
1136.866, 827.941
1137.348, 821.550
1137.830, 814.767
1138.312, 816.026
1138.794, 821.620
1139.276, 815.135
1139.758, 794.297
1140.240, 779.799
1140.723, 772.110
1141.205, 769.895
1141.687, 774.190
1142.169, 777.221
1142.651, 774.357
1143.133, 772.847
1143.615, 764.804
1144.097, 776.411
1144.579, 783.248
1145.062, 785.573
1145.544, 769.863
1146.026, 777.440
1146.508, 775.684
1146.990, 773.546
1147.472, 784.399
1147.954, 771.313
1148.436, 781.960
1148.919, 783.135
1149.401, 788.644
1149.883, 784.764
1150.365, 783.784
1150.847, 792.197
1151.329, 795.409
1151.811, 790.448
1152.293, 796.233
1152.776, 782.820
1153.258, 786.253
1153.740, 796.955
1154.222, 792.467
1154.704, 798.423
1155.186, 800.402
1155.668, 784.301
1156.150, 792.088
1156.632, 788.370
1157.115, 795.754
1157.597, 820.807
1158.079, 833.159
1158.561, 827.390
1159.043, 822.980
1159.525, 823.965
1160.007, 826.365
1160.489, 828.004
1160.971, 829.671
1161.454, 833.125
1161.936, 836.979
1162.418, 835.984
1162.900, 829.901
1163.382, 813.668
1163.864, 789.121
1164.346, 769.349
1164.828, 758.737
1165.311, 760.516
1165.793, 778.341
1166.275, 799.409
1166.757, 810.584
1167.239, 815.588
1167.721, 820.002
1168.203, 820.711
1168.685, 807.944
1169.167, 788.468
1169.650, 781.352
1170.132, 790.530
1170.614, 797.291
1171.096, 795.769
1171.578, 788.734
1172.060, 766.347
1172.542, 751.370
1173.024, 762.365
1173.506, 781.238
1173.989, 788.972
1174.471, 788.888
1174.953, 782.576
1175.435, 788.998
1175.917, 792.329
1176.399, 792.734
1176.881, 781.455
1177.363, 785.265
1177.846, 783.026
1178.328, 780.541
1178.810, 786.474
1179.292, 776.894
1179.774, 782.694
1180.256, 782.355
1180.738, 780.593
1181.220, 779.175
1181.703, 768.391
1182.185, 759.500
1182.667, 756.119
1183.149, 763.604
1183.631, 785.502
1184.113, 800.611
1184.595, 786.156
1185.077, 767.619
1185.559, 762.422
1186.042, 762.386
1186.524, 757.279
1187.006, 753.394
1187.488, 764.834
1187.970, 790.273
1188.452, 807.852
1188.934, 812.297
1189.416, 814.422
1189.898, 817.493
1190.381, 810.782
1190.863, 781.403
1191.345, 765.687
1191.827, 759.589
1192.309, 777.477
1192.791, 789.543
1193.273, 796.099
1193.755, 780.645
1194.238, 793.623
1194.720, 795.199
1195.202, 796.310
1195.684, 813.278
1196.166, 801.026
1196.648, 817.742
1197.130, 822.895
1197.612, 833.341
1198.094, 832.325
1198.577, 834.859
1199.059, 839.147
1199.541, 848.280
1200.023, 859.437
1200.505, 868.244
1200.987, 863.354
1201.469, 844.621
1201.951, 830.959
1202.433, 829.632
1202.916, 827.586
1203.398, 826.462
1203.880, 819.196
1204.362, 798.070
1204.844, 779.903
1205.326, 777.154
1205.808, 783.586
1206.290, 789.872
1206.773, 795.093
1207.255, 789.185
1207.737, 773.204
1208.219, 769.499
1208.701, 778.199
1209.183, 783.284
1209.665, 780.385
1210.147, 774.589
1210.630, 768.497
1211.112, 766.087
1211.594, 774.002
1212.076, 785.238
1212.558, 797.066
1213.040, 803.910
1213.522, 796.152
1214.004, 779.619
1214.486, 764.641
1214.969, 753.351
1215.451, 747.607
1215.933, 751.193
1216.415, 753.390
1216.897, 754.760
1217.379, 751.957
1217.861, 742.964
1218.343, 732.045
1218.825, 722.347
1219.308, 710.613
1219.790, 689.235
1220.272, 663.742
1220.754, 667.310
1221.236, 694.119
1221.718, 692.209
1222.200, 665.328
1222.682, 654.178
1223.165, 666.500
1223.647, 684.757
1224.129, 700.347
1224.611, 708.295
1225.093, 701.257
1225.575, 688.562
1226.057, 672.867
1226.539, 659.984
1227.021, 660.738
1227.504, 664.583
1227.986, 649.263
1228.468, 619.419
1228.950, 614.352
1229.432, 651.473
1229.914, 663.790
1230.396, 636.803
1230.878, 625.214
1231.360, 645.862
1231.843, 650.845
1232.325, 612.578
1232.807, 574.604
1233.289, 587.006
1233.771, 624.164
1234.253, 629.243
1234.735, 611.953
1235.217, 594.641
1235.700, 579.836
1236.182, 573.036
1236.664, 571.902
1237.146, 565.644
1237.628, 551.154
1238.110, 539.572
1238.592, 540.010
1239.074, 539.003
1239.557, 525.025
1240.039, 515.688
1240.521, 527.108
1241.003, 540.747
1241.485, 537.703
1241.967, 526.504
1242.449, 524.528
1242.931, 531.542
1243.413, 542.203
1243.896, 557.511
1244.378, 555.880
1244.860, 536.383
1245.342, 527.797
1245.824, 537.358
1246.306, 543.796
1246.788, 533.421
1247.270, 518.812
1247.752, 510.523
1248.235, 508.492
1248.717, 516.490
1249.199, 510.536
1249.681, 517.015
1250.163, 520.476
1250.645, 521.081
1251.127, 510.277
1251.609, 514.206
1252.092, 512.230
1252.574, 510.012
1253.056, 516.014
1253.538, 506.870
1254.020, 512.742
1254.502, 511.521
1254.984, 519.117
1255.466, 529.274
1255.948, 524.486
1256.431, 514.448
1256.913, 522.730
1257.395, 539.205
1257.877, 536.002
1258.359, 521.182
1258.841, 511.410
1259.323, 509.078
1259.805, 515.043
1260.287, 528.152
1260.770, 537.164
1261.252, 535.189
1261.734, 534.063
1262.216, 543.868
1262.698, 545.881
1263.180, 522.494
1263.662, 504.201
1264.144, 512.648
1264.627, 530.879
1265.109, 536.058
1265.591, 530.421
1266.073, 520.733
1266.555, 508.296
1267.037, 507.934
1267.519, 517.295
1268.001, 523.606
1268.484, 523.721
1268.966, 513.375
1269.448, 491.920
1269.930, 478.442
1270.412, 489.844
1270.894, 504.601
1271.376, 512.943
1271.858, 516.911
1272.340, 515.566
1272.823, 512.325
1273.305, 509.764
##END=



