##NAMES=Parascholzite
##RRUFFID=R060806
##IDEAL CHEMISTRY=CaZn^2+^_2_(P^5+^O_4_)_2_&#183;2H_2_O
##LOCALITY=Tip Top mine, Fourmile, Custer District, Custer County, South Dakota, USA
##OWNER=RRUFF
##SOURCE=Michael Scott
##DESCRIPTION=Radial spray of colorless elongated flattened prismatic crystals
##STATUS=The identification of this mineral has been confirmed by single-crystal X-ray diffraction.
##URL=rruff.info/R060806
166.846, 12054.960
167.329, 12047.230
167.811, 12034.610
168.293, 12021.360
168.775, 12001.950
169.257, 11966.040
169.739, 11906.140
170.221, 11824.090
170.703, 11739.630
171.185, 11642.010
171.668, 11553.950
172.150, 11492.500
172.632, 11445.860
173.114, 11389.690
173.596, 11306.090
174.078, 11197.210
174.560, 11102.560
175.042, 11024.790
175.525, 10955.560
176.007, 10888.330
176.489, 10827.310
176.971, 10784.390
177.453, 10769.460
177.935, 10780.500
178.417, 10778.960
178.899, 10754.760
179.381, 10730.590
179.863, 10712.380
180.346, 10700.130
180.828, 10694.140
181.310, 10696.440
181.792, 10705.720
182.274, 10697.250
182.756, 10653.580
183.238, 10613.910
183.721, 10593.440
184.203, 10588.480
184.685, 10588.500
185.167, 10587.310
185.649, 10584.850
186.131, 10580.670
186.613, 10562.500
187.095, 10555.100
187.577, 10578.450
188.059, 10621.580
188.542, 10654.160
189.024, 10655.010
189.506, 10628.670
189.988, 10620.850
190.470, 10658.350
190.952, 10682.880
191.434, 10656.880
191.917, 10598.910
192.399, 10557.650
192.881, 10563.490
193.363, 10610.600
193.845, 10654.640
194.327, 10703.430
194.809, 10742.440
195.291, 10765.580
195.773, 10775.050
196.255, 10774.260
196.738, 10762.400
197.220, 10743.740
197.702, 10743.620
198.184, 10769.430
198.666, 10801.010
199.148, 10836.990
199.630, 10874.130
200.112, 10904.030
200.595, 10920.830
201.077, 10928.700
201.559, 10947.830
202.041, 10982.100
202.523, 11020.000
203.005, 11063.810
203.487, 11108.600
203.969, 11145.030
204.452, 11168.560
204.934, 11179.950
205.416, 11180.590
205.898, 11150.970
206.380, 11135.570
206.862, 11151.670
207.344, 11188.620
207.826, 11226.160
208.308, 11254.640
208.790, 11280.380
209.273, 11322.380
209.755, 11381.270
210.237, 11452.140
210.719, 11549.490
211.201, 11655.230
211.683, 11736.500
212.165, 11777.750
212.648, 11797.890
213.130, 11840.950
213.612, 11917.800
214.094, 11997.410
214.576, 12072.440
215.058, 12148.490
215.540, 12234.380
216.022, 12333.180
216.504, 12440.670
216.986, 12551.410
217.469, 12677.780
217.951, 12783.180
218.433, 12833.520
218.915, 12873.370
219.397, 12967.610
219.879, 13135.820
220.361, 13318.120
220.844, 13416.250
221.326, 13371.360
221.808, 13364.080
222.290, 13438.800
222.772, 13533.280
223.254, 13578.380
223.736, 13561.070
224.218, 13532.100
224.700, 13561.690
225.182, 13690.720
225.665, 13770.550
226.147, 13744.080
226.629, 13706.830
227.111, 13739.050
227.593, 13849.140
228.075, 13987.520
228.557, 14099.080
229.040, 14174.090
229.522, 14260.700
230.004, 14370.700
230.486, 14481.790
230.968, 14570.290
231.450, 14640.500
231.932, 14724.730
232.414, 14858.920
232.896, 15055.330
233.378, 15200.640
233.861, 15263.510
234.343, 15313.200
234.825, 15382.480
235.307, 15469.450
235.789, 15556.030
236.271, 15629.360
236.753, 15689.190
237.235, 15743.180
237.718, 15794.490
238.200, 15838.010
238.682, 15879.660
239.164, 15912.480
239.646, 15920.530
240.128, 15891.130
240.610, 15829.530
241.092, 15781.520
241.574, 15765.900
242.057, 15742.920
242.539, 15702.680
243.021, 15650.900
243.503, 15593.040
243.985, 15531.090
244.467, 15471.040
244.949, 15436.340
245.431, 15463.790
245.913, 15472.910
246.396, 15441.200
246.878, 15394.100
247.360, 15363.400
247.842, 15361.740
248.324, 15372.120
248.806, 15354.160
249.288, 15274.610
249.770, 15221.590
250.253, 15226.830
250.735, 15241.870
251.217, 15224.870
251.699, 15164.960
252.181, 15083.410
252.663, 15012.600
253.145, 14961.480
253.627, 14898.850
254.109, 14812.410
254.592, 14724.040
255.074, 14645.000
255.556, 14577.430
256.038, 14517.510
256.520, 14467.480
257.002, 14435.290
257.484, 14373.610
257.966, 14236.350
258.449, 14108.660
258.931, 14030.000
259.413, 13994.680
259.895, 13971.130
260.377, 13929.010
260.859, 13869.770
261.341, 13842.670
261.823, 13884.020
262.306, 13916.410
262.788, 13902.370
263.270, 13858.000
263.752, 13817.210
264.234, 13799.410
264.716, 13800.880
265.198, 13806.940
265.680, 13811.290
266.162, 13833.550
266.645, 13885.620
267.127, 13956.460
267.609, 14034.770
268.091, 14122.340
268.573, 14206.020
269.055, 14254.680
269.537, 14254.800
270.019, 14272.790
270.501, 14352.760
270.984, 14456.100
271.466, 14548.130
271.948, 14618.160
272.430, 14687.640
272.912, 14787.400
273.394, 14916.710
273.876, 15025.790
274.358, 15082.970
274.841, 15126.070
275.323, 15195.680
275.805, 15295.070
276.287, 15402.130
276.769, 15507.790
277.251, 15609.920
277.733, 15701.010
278.215, 15779.630
278.698, 15845.490
279.180, 15900.720
279.662, 15945.950
280.144, 15972.520
280.626, 15978.710
281.108, 15963.760
281.590, 15921.940
282.072, 15849.750
282.554, 15768.010
283.036, 15699.400
283.519, 15640.600
284.001, 15558.400
284.483, 15419.330
284.965, 15276.180
285.447, 15183.060
285.929, 15137.050
286.411, 15085.360
286.893, 14991.330
287.376, 14860.770
287.858, 14740.360
288.340, 14624.960
288.822, 14524.540
289.304, 14450.300
289.786, 14394.950
290.268, 14341.660
290.750, 14283.560
291.233, 14221.120
291.715, 14154.980
292.197, 14070.050
292.679, 14002.090
293.161, 13957.760
293.643, 13932.680
294.125, 13926.420
294.607, 13938.230
295.089, 13957.360
295.572, 13966.130
296.054, 13954.290
296.536, 13953.220
297.018, 13969.880
297.500, 13990.750
297.982, 14002.090
298.464, 14005.270
298.946, 14015.910
299.428, 14051.070
299.911, 14113.750
300.393, 14176.060
300.875, 14250.410
301.357, 14312.020
301.839, 14342.900
302.321, 14353.880
302.803, 14368.120
303.285, 14401.520
303.767, 14450.860
304.250, 14499.330
304.732, 14549.870
305.214, 14594.870
305.696, 14641.560
306.178, 14679.480
306.660, 14693.890
307.142, 14677.500
307.625, 14645.110
308.107, 14624.300
308.589, 14621.750
309.071, 14607.310
309.553, 14565.530
310.035, 14514.630
310.517, 14467.820
310.999, 14426.820
311.481, 14380.830
311.964, 14316.620
312.446, 14236.090
312.928, 14161.320
313.410, 14099.430
313.892, 14039.030
314.374, 13982.600
314.856, 13925.100
315.338, 13839.010
315.820, 13677.900
316.303, 13489.100
316.785, 13364.690
317.267, 13317.960
317.749, 13293.810
318.231, 13269.190
318.713, 13237.910
319.195, 13181.630
319.677, 13071.740
320.159, 12958.090
320.642, 12879.940
321.124, 12832.260
321.606, 12791.690
322.088, 12746.990
322.570, 12701.890
323.052, 12666.190
323.534, 12643.050
324.016, 12621.230
324.499, 12598.460
324.981, 12574.500
325.463, 12547.960
325.945, 12518.310
326.427, 12489.840
326.909, 12470.710
327.391, 12472.160
327.873, 12448.980
328.355, 12369.360
328.838, 12290.670
329.320, 12258.770
329.802, 12269.440
330.284, 12285.220
330.766, 12275.680
331.248, 12240.930
331.730, 12192.590
332.212, 12108.150
332.694, 12034.850
333.177, 11991.140
333.659, 11964.650
334.141, 11933.640
334.623, 11886.580
335.105, 11834.090
335.587, 11805.810
336.069, 11823.130
336.552, 11821.160
337.034, 11780.770
337.516, 11726.460
337.998, 11676.650
338.480, 11635.040
338.962, 11590.630
339.444, 11522.450
339.926, 11429.020
340.408, 11368.210
340.891, 11368.150
341.373, 11374.960
341.855, 11352.090
342.337, 11306.620
342.819, 11265.750
343.301, 11250.570
343.783, 11247.200
344.265, 11226.190
344.747, 11184.720
345.230, 11137.640
345.712, 11088.250
346.194, 11040.020
346.676, 11001.240
347.158, 10975.550
347.640, 10955.290
348.122, 10937.790
348.604, 10921.830
349.086, 10903.570
349.569, 10882.220
350.051, 10856.480
350.533, 10821.390
351.015, 10771.780
351.497, 10730.850
351.979, 10714.890
352.461, 10702.960
352.944, 10672.410
353.426, 10620.880
353.908, 10560.350
354.390, 10499.580
354.872, 10435.830
355.354, 10402.020
355.836, 10421.340
356.318, 10440.650
356.800, 10442.070
357.283, 10428.220
357.765, 10407.900
358.247, 10386.150
358.729, 10359.690
359.211, 10316.430
359.693, 10242.670
360.175, 10175.240
360.657, 10112.740
361.139, 10060.970
361.622, 10025.730
362.104, 10007.780
362.586, 10000.770
363.068, 10000.510
363.550, 10007.570
364.032, 10011.780
364.514, 10018.580
364.996, 10014.520
365.478, 9978.783
365.961, 9926.121
366.443, 9896.443
366.925, 9923.688
367.407, 9977.968
367.889, 10004.000
368.371, 9998.560
368.853, 9990.083
369.335, 9991.377
369.818, 9998.314
370.300, 10001.960
370.782, 9997.438
371.264, 9999.434
371.746, 10032.470
372.228, 10076.630
372.710, 10079.080
373.192, 10019.200
373.674, 9946.478
374.157, 9926.341
374.639, 9973.164
375.121, 10010.040
375.603, 10046.250
376.085, 10061.850
376.567, 10026.510
377.049, 9953.079
377.531, 9892.354
378.013, 9882.500
378.496, 9914.234
378.978, 9919.453
379.460, 9859.648
379.942, 9817.401
380.424, 9815.518
380.906, 9829.695
381.388, 9831.174
381.871, 9811.647
382.353, 9788.110
382.835, 9787.819
383.317, 9818.114
383.799, 9839.280
384.281, 9846.039
384.763, 9845.732
385.245, 9841.095
385.727, 9832.218
386.210, 9818.323
386.692, 9796.707
387.174, 9770.566
387.656, 9742.933
388.138, 9708.523
388.620, 9695.652
389.102, 9730.387
389.584, 9791.195
390.066, 9847.629
390.549, 9897.696
391.031, 9940.806
391.513, 9974.191
391.995, 10000.230
392.477, 10026.680
392.959, 10056.410
393.441, 10081.850
393.923, 10091.890
394.405, 10082.530
394.888, 10080.450
395.370, 10084.930
395.852, 10098.380
396.334, 10127.380
396.816, 10167.710
397.298, 10205.630
397.780, 10231.660
398.262, 10249.940
398.745, 10279.750
399.227, 10332.060
399.709, 10382.200
400.191, 10431.120
400.673, 10475.400
401.155, 10506.770
401.637, 10525.600
402.119, 10548.910
402.602, 10594.530
403.084, 10662.960
403.566, 10752.500
404.048, 10892.390
404.530, 11018.730
405.012, 11100.770
405.494, 11149.300
405.976, 11186.370
406.458, 11214.010
406.940, 11244.100
407.423, 11301.520
407.905, 11386.830
408.387, 11456.920
408.869, 11492.870
409.351, 11507.900
409.833, 11524.240
410.315, 11544.080
410.797, 11555.410
411.280, 11560.880
411.762, 11552.260
412.244, 11512.530
412.726, 11441.070
413.208, 11364.050
413.690, 11306.150
414.172, 11266.990
414.654, 11203.250
415.137, 11099.140
415.619, 10992.690
416.101, 10885.950
416.583, 10786.200
417.065, 10705.430
417.547, 10647.810
418.029, 10599.390
418.511, 10537.220
418.993, 10460.020
419.476, 10373.120
419.958, 10245.440
420.440, 10135.380
420.922, 10086.080
421.404, 10081.130
421.886, 10065.390
422.368, 9996.477
422.850, 9899.422
423.332, 9832.092
423.815, 9797.162
424.297, 9781.134
424.779, 9801.362
425.261, 9824.201
425.743, 9795.591
426.225, 9695.455
426.707, 9607.367
427.190, 9580.180
427.672, 9590.144
428.154, 9602.608
428.636, 9611.623
429.118, 9609.993
429.600, 9587.892
430.082, 9544.120
430.564, 9513.840
431.046, 9502.685
431.529, 9497.171
432.011, 9498.553
432.493, 9500.636
432.975, 9491.499
433.457, 9466.315
433.939, 9436.530
434.421, 9426.127
434.903, 9449.210
435.385, 9452.807
435.868, 9410.654
436.350, 9370.378
436.832, 9362.008
437.314, 9377.152
437.796, 9383.437
438.278, 9352.453
438.760, 9305.098
439.242, 9295.830
439.724, 9332.194
440.207, 9359.274
440.689, 9350.431
441.171, 9322.245
441.653, 9298.966
442.135, 9280.565
442.617, 9268.472
443.099, 9269.530
443.581, 9274.672
444.064, 9264.888
444.546, 9238.420
445.028, 9222.805
445.510, 9248.269
445.992, 9312.967
446.474, 9326.865
446.956, 9240.501
447.438, 9169.723
447.921, 9155.700
448.403, 9169.568
448.885, 9175.276
449.367, 9160.654
449.849, 9134.622
450.331, 9107.071
450.813, 9076.317
451.295, 9054.075
451.777, 9043.213
452.259, 9039.011
452.742, 9047.682
453.224, 9060.704
453.706, 9059.496
454.188, 9029.947
454.670, 8991.167
455.152, 8967.431
455.634, 8958.266
456.116, 8956.532
456.599, 8964.102
457.081, 8972.409
457.563, 8967.200
458.045, 8947.555
458.527, 8929.563
459.009, 8910.190
459.491, 8898.078
459.973, 8906.058
460.456, 8929.801
460.938, 8950.366
461.420, 8955.437
461.902, 8949.326
462.384, 8949.604
462.866, 8977.586
463.348, 8979.044
463.830, 8926.076
464.312, 8864.665
464.795, 8830.834
465.277, 8827.188
465.759, 8832.513
466.241, 8828.897
466.723, 8818.870
467.205, 8816.451
467.687, 8823.719
468.169, 8833.357
468.651, 8847.385
469.134, 8859.566
469.616, 8860.070
470.098, 8844.159
470.580, 8827.481
471.062, 8814.050
471.544, 8807.178
472.026, 8820.117
472.508, 8855.436
472.991, 8883.229
473.473, 8874.479
473.955, 8828.624
474.437, 8787.992
474.919, 8736.920
475.401, 8707.894
475.883, 8726.026
476.365, 8765.042
476.848, 8794.708
477.330, 8804.564
477.812, 8797.163
478.294, 8770.876
478.776, 8722.122
479.258, 8683.722
479.740, 8658.163
480.222, 8641.160
480.704, 8628.445
481.186, 8622.410
481.669, 8629.171
482.151, 8656.388
482.633, 8686.509
483.115, 8699.521
483.597, 8699.613
484.079, 8707.310
484.561, 8730.426
485.043, 8754.082
485.526, 8759.363
486.008, 8742.161
486.490, 8732.792
486.972, 8743.917
487.454, 8750.590
487.936, 8732.877
488.418, 8701.874
488.900, 8678.688
489.383, 8672.672
489.865, 8680.912
490.347, 8701.856
490.829, 8744.234
491.311, 8770.762
491.793, 8772.953
492.275, 8763.921
492.757, 8741.197
493.239, 8711.593
493.722, 8692.833
494.204, 8701.842
494.686, 8714.392
495.168, 8686.735
495.650, 8624.564
496.132, 8594.357
496.614, 8627.571
497.096, 8681.784
497.578, 8693.737
498.061, 8655.325
498.543, 8637.542
499.025, 8668.236
499.507, 8702.609
499.989, 8715.651
500.471, 8708.331
500.953, 8683.998
501.435, 8643.158
501.918, 8599.014
502.400, 8583.286
502.882, 8608.020
503.364, 8628.294
503.846, 8636.188
504.328, 8643.306
504.810, 8658.277
505.292, 8677.741
505.775, 8690.031
506.257, 8683.879
506.739, 8673.296
507.221, 8680.857
507.703, 8705.035
508.185, 8727.572
508.667, 8746.089
509.149, 8753.572
509.631, 8733.141
510.113, 8676.773
510.596, 8643.228
511.078, 8660.134
511.560, 8680.818
512.042, 8672.938
512.524, 8644.547
513.006, 8616.828
513.488, 8599.881
513.971, 8595.167
514.453, 8610.204
514.935, 8656.553
515.417, 8685.688
515.899, 8681.866
516.381, 8670.537
516.863, 8662.118
517.345, 8656.418
517.827, 8650.319
518.310, 8639.213
518.792, 8630.989
519.274, 8641.735
519.756, 8666.653
520.238, 8676.696
520.720, 8660.747
521.202, 8632.822
521.684, 8607.173
522.166, 8581.263
522.649, 8576.263
523.131, 8612.369
523.613, 8648.640
524.095, 8670.096
524.577, 8676.591
525.059, 8666.387
525.541, 8638.924
526.023, 8608.474
526.505, 8598.813
526.988, 8612.776
527.470, 8629.077
527.952, 8657.950
528.434, 8673.505
528.916, 8650.641
529.398, 8606.383
529.880, 8578.240
530.362, 8582.167
530.844, 8595.407
531.327, 8599.886
531.809, 8600.250
532.291, 8607.936
532.773, 8625.737
533.255, 8651.080
533.737, 8682.836
534.219, 8721.906
534.701, 8753.302
535.184, 8766.335
535.666, 8784.861
536.148, 8816.549
536.630, 8855.872
537.112, 8892.718
537.594, 8925.605
538.076, 8968.152
538.558, 9040.266
539.041, 9137.715
539.523, 9227.455
540.005, 9307.456
540.487, 9382.686
540.969, 9446.157
541.451, 9510.534
541.933, 9601.463
542.415, 9727.427
542.898, 9862.594
543.380, 9996.230
543.862, 10134.210
544.344, 10286.270
544.826, 10451.830
545.308, 10623.580
545.790, 10796.220
546.272, 10970.550
546.754, 11150.830
547.237, 11345.760
547.719, 11532.590
548.201, 11709.830
548.683, 11878.500
549.165, 12046.170
549.647, 12208.660
550.129, 12344.560
550.611, 12430.560
551.093, 12488.200
551.576, 12562.230
552.058, 12647.550
552.540, 12690.980
553.022, 12671.660
553.504, 12600.150
553.986, 12489.760
554.468, 12333.150
554.950, 12154.480
555.432, 11950.910
555.915, 11728.620
556.397, 11481.980
556.879, 11221.340
557.361, 10958.420
557.843, 10698.840
558.325, 10450.480
558.807, 10220.210
559.289, 10007.210
559.771, 9840.000
560.254, 9750.890
560.736, 9656.571
561.218, 9465.864
561.700, 9232.530
562.182, 9073.692
562.664, 9044.218
563.146, 9030.042
563.628, 8979.521
564.111, 8905.981
564.593, 8820.418
565.075, 8728.767
565.557, 8652.304
566.039, 8612.590
566.521, 8604.729
567.003, 8581.508
567.485, 8526.444
567.968, 8483.700
568.450, 8463.138
568.932, 8454.955
569.414, 8456.551
569.896, 8465.271
570.378, 8468.588
570.860, 8452.094
571.342, 8429.257
571.825, 8424.092
572.307, 8434.457
572.789, 8436.619
573.271, 8418.108
573.753, 8394.581
574.235, 8391.326
574.717, 8413.836
575.199, 8441.210
575.681, 8482.250
576.164, 8518.857
576.646, 8541.751
577.128, 8554.703
577.610, 8562.613
578.092, 8567.052
578.574, 8574.711
579.056, 8601.991
579.538, 8644.919
580.020, 8657.219
580.503, 8622.735
580.985, 8594.737
581.467, 8611.491
581.949, 8661.334
582.431, 8702.939
582.913, 8743.759
583.395, 8763.803
583.877, 8734.008
584.359, 8696.123
584.842, 8695.675
585.324, 8731.276
585.806, 8770.329
586.288, 8789.216
586.770, 8795.339
587.252, 8816.044
587.734, 8861.433
588.216, 8883.454
588.698, 8857.105
589.181, 8819.708
589.663, 8794.130
590.145, 8781.317
590.627, 8784.094
591.109, 8830.854
591.591, 8867.434
592.073, 8836.752
592.555, 8769.729
593.038, 8734.422
593.520, 8748.673
594.002, 8776.125
594.484, 8774.185
594.966, 8741.965
595.448, 8730.331
595.930, 8753.789
596.412, 8776.942
596.894, 8794.902
597.377, 8806.575
597.859, 8810.396
598.341, 8806.344
598.823, 8797.362
599.305, 8785.488
599.787, 8769.693
600.269, 8746.183
600.752, 8716.312
601.234, 8688.334
601.716, 8666.096
602.198, 8647.284
602.680, 8627.535
603.162, 8605.234
603.644, 8587.885
604.126, 8580.872
604.608, 8572.679
605.091, 8563.784
605.573, 8549.299
606.055, 8518.978
606.537, 8468.656
607.019, 8418.089
607.501, 8385.817
607.983, 8368.359
608.465, 8362.539
608.947, 8369.358
609.430, 8356.894
609.912, 8296.421
610.394, 8211.385
610.876, 8171.695
611.358, 8223.631
611.840, 8242.522
612.322, 8203.488
612.804, 8150.566
613.286, 8102.050
613.769, 8063.110
614.251, 8040.323
614.733, 8039.011
615.215, 8045.220
615.697, 8040.188
616.179, 8024.934
616.661, 8008.890
617.143, 7996.243
617.625, 7971.363
618.108, 7915.361
618.590, 7836.618
619.072, 7782.501
619.554, 7761.162
620.036, 7750.805
620.518, 7755.026
621.000, 7763.481
621.482, 7767.710
621.965, 7767.508
622.447, 7767.503
622.929, 7771.605
623.411, 7775.382
623.893, 7766.647
624.375, 7745.027
624.857, 7734.315
625.339, 7744.402
625.821, 7755.379
626.304, 7747.917
626.786, 7723.867
627.268, 7705.069
627.750, 7696.162
628.232, 7687.434
628.714, 7679.838
629.196, 7668.794
629.679, 7640.829
630.161, 7600.928
630.643, 7577.889
631.125, 7597.950
631.607, 7644.893
632.089, 7675.904
632.571, 7690.650
633.053, 7691.366
633.535, 7673.008
634.018, 7649.250
634.500, 7632.774
634.982, 7623.254
635.464, 7617.655
635.946, 7613.087
636.428, 7615.479
636.910, 7636.223
637.392, 7660.393
637.875, 7670.172
638.357, 7662.671
638.839, 7645.310
639.321, 7620.792
639.803, 7593.647
640.285, 7578.965
640.767, 7576.852
641.249, 7588.037
641.731, 7622.859
642.214, 7657.505
642.696, 7661.071
643.178, 7635.236
643.660, 7617.570
644.142, 7619.541
644.624, 7620.589
645.106, 7614.181
645.588, 7601.042
646.070, 7576.019
646.553, 7542.089
647.035, 7519.567
647.517, 7530.182
647.999, 7564.342
648.481, 7589.222
648.963, 7603.811
649.445, 7618.930
649.927, 7639.915
650.409, 7659.437
650.892, 7664.140
651.374, 7653.683
651.856, 7661.066
652.338, 7700.200
652.820, 7743.273
653.302, 7790.247
653.784, 7829.249
654.266, 7842.569
654.748, 7829.882
655.231, 7810.888
655.713, 7798.341
656.195, 7794.253
656.677, 7807.938
657.159, 7840.462
657.641, 7870.229
658.123, 7889.680
658.606, 7906.552
659.088, 7930.127
659.570, 7961.232
660.052, 7988.523
660.534, 8016.371
661.016, 8035.410
661.498, 8040.132
661.980, 8036.218
662.462, 8026.380
662.945, 8013.162
663.427, 8004.064
663.909, 8007.871
664.391, 8016.699
664.873, 8015.028
665.355, 8003.059
665.837, 7983.452
666.319, 7956.912
666.802, 7922.571
667.284, 7876.220
667.766, 7817.476
668.248, 7775.416
668.730, 7772.757
669.212, 7755.937
669.694, 7694.825
670.176, 7630.021
670.658, 7607.478
671.141, 7621.381
671.623, 7622.253
672.105, 7575.843
672.587, 7506.625
673.069, 7441.513
673.551, 7382.255
674.033, 7339.735
674.515, 7317.004
674.997, 7302.273
675.480, 7285.568
675.962, 7267.082
676.444, 7248.833
676.926, 7232.131
677.408, 7213.483
677.890, 7191.962
678.372, 7169.045
678.854, 7138.394
679.336, 7106.364
679.819, 7095.475
680.301, 7130.358
680.783, 7164.125
681.265, 7153.074
681.747, 7111.589
682.229, 7062.990
682.711, 7013.324
683.193, 6971.783
683.675, 6945.423
684.158, 6932.747
684.640, 6930.757
685.122, 6946.460
685.604, 6952.818
686.086, 6935.432
686.568, 6921.076
687.050, 6929.688
687.532, 6952.444
688.015, 6968.520
688.497, 6974.027
688.979, 6972.111
689.461, 6956.165
689.943, 6938.813
690.425, 6935.999
690.907, 6946.244
691.389, 6958.399
691.872, 6966.595
692.354, 6971.088
692.836, 6974.717
693.318, 6978.155
693.800, 6961.414
694.282, 6911.103
694.764, 6871.066
695.246, 6867.920
695.729, 6891.901
696.211, 6924.513
696.693, 6980.944
697.175, 7001.568
697.657, 6940.030
698.139, 6875.350
698.621, 6856.115
699.103, 6870.928
699.585, 6898.468
700.068, 6930.558
700.550, 6953.620
701.032, 6947.299
701.514, 6920.959
701.996, 6908.347
702.478, 6910.635
702.960, 6897.168
703.442, 6849.858
703.924, 6794.434
704.407, 6770.001
704.889, 6782.562
705.371, 6794.023
705.853, 6818.647
706.335, 6824.724
706.817, 6782.842
707.299, 6731.958
707.781, 6716.400
708.263, 6738.977
708.746, 6762.108
709.228, 6765.194
709.710, 6758.954
710.192, 6755.308
710.674, 6751.574
711.156, 6739.244
711.638, 6716.608
712.120, 6690.170
712.602, 6663.537
713.085, 6640.022
713.567, 6647.144
714.049, 6705.281
714.531, 6730.096
715.013, 6676.674
715.495, 6616.673
715.977, 6612.934
716.459, 6650.952
716.942, 6676.470
717.424, 6677.240
717.906, 6671.149
718.388, 6662.640
718.870, 6651.705
719.352, 6632.564
719.834, 6610.504
720.316, 6603.642
720.799, 6623.859
721.281, 6651.825
721.763, 6657.818
722.245, 6644.642
722.727, 6630.933
723.209, 6618.587
723.691, 6603.453
724.173, 6579.417
724.656, 6555.965
725.138, 6557.449
725.620, 6601.794
726.102, 6626.253
726.584, 6617.736
727.066, 6605.845
727.548, 6605.884
728.030, 6607.475
728.512, 6593.241
728.995, 6559.869
729.477, 6528.620
729.959, 6507.185
730.441, 6498.477
730.923, 6514.026
731.405, 6544.817
731.887, 6566.696
732.369, 6572.177
732.851, 6567.745
733.334, 6559.438
733.816, 6547.640
734.298, 6533.266
734.780, 6511.379
735.262, 6508.066
735.744, 6550.141
736.226, 6586.894
736.708, 6551.561
737.190, 6459.104
737.673, 6417.431
738.155, 6485.263
738.637, 6535.052
739.119, 6525.240
739.601, 6492.015
740.083, 6459.929
740.565, 6433.366
741.047, 6409.164
741.529, 6383.271
742.012, 6370.214
742.494, 6400.469
742.976, 6455.527
743.458, 6486.056
743.940, 6487.078
744.422, 6463.085
744.904, 6413.109
745.386, 6350.883
745.869, 6301.714
746.351, 6262.573
746.833, 6250.580
747.315, 6283.901
747.797, 6317.556
748.279, 6335.970
748.761, 6345.240
749.243, 6349.789
749.726, 6349.744
750.208, 6352.209
750.690, 6367.214
751.172, 6376.759
751.654, 6369.584
752.136, 6350.479
752.618, 6316.297
753.100, 6273.617
753.583, 6256.415
754.065, 6303.733
754.547, 6374.242
755.029, 6373.894
755.511, 6312.248
755.993, 6269.198
756.475, 6260.757
756.957, 6264.578
757.439, 6264.144
757.922, 6262.247
758.404, 6271.071
758.886, 6305.541
759.368, 6320.932
759.850, 6298.683
760.332, 6274.926
760.814, 6263.374
761.296, 6260.925
761.778, 6264.707
762.261, 6277.138
762.743, 6278.515
763.225, 6242.017
763.707, 6207.383
764.189, 6222.942
764.671, 6262.349
765.153, 6263.150
765.635, 6210.513
766.117, 6155.153
766.600, 6148.526
767.082, 6177.012
767.564, 6205.316
768.046, 6232.968
768.528, 6245.111
769.010, 6235.367
769.492, 6221.794
769.974, 6224.022
770.456, 6237.604
770.939, 6226.303
771.421, 6160.667
771.903, 6121.874
772.385, 6139.340
772.867, 6161.814
773.349, 6162.504
773.831, 6147.779
774.313, 6130.698
774.796, 6109.205
775.278, 6101.921
775.760, 6137.369
776.242, 6173.576
776.724, 6167.536
777.206, 6132.542
777.688, 6100.323
778.170, 6082.646
778.653, 6077.004
779.135, 6087.754
779.617, 6106.991
780.099, 6110.628
780.581, 6098.962
781.063, 6072.288
781.545, 6026.619
782.027, 5990.627
782.510, 5996.831
782.992, 6039.119
783.474, 6062.664
783.956, 6057.098
784.438, 6053.172
784.920, 6058.795
785.402, 6062.355
785.884, 6054.246
786.367, 6039.525
786.849, 6030.453
787.331, 6031.535
787.813, 6030.762
788.295, 6025.570
788.777, 6015.602
789.259, 5990.963
789.741, 5964.074
790.223, 5966.545
790.706, 6004.989
791.188, 6032.215
791.670, 5982.983
792.152, 5902.871
792.634, 5893.742
793.116, 5942.025
793.598, 5976.771
794.080, 5979.028
794.562, 5963.489
795.045, 5940.538
795.527, 5914.431
796.009, 5909.312
796.491, 5935.835
796.973, 5944.185
797.455, 5916.939
797.937, 5888.276
798.419, 5884.654
798.901, 5894.401
799.384, 5884.851
799.866, 5840.573
800.348, 5818.594
800.830, 5857.488
801.312, 5886.786
801.794, 5850.510
802.276, 5791.312
802.758, 5772.167
803.240, 5803.547
803.723, 5844.910
804.205, 5882.226
804.687, 5907.128
805.169, 5904.595
805.651, 5884.553
806.133, 5865.448
806.615, 5851.586
807.097, 5841.288
807.580, 5832.924
808.062, 5828.820
808.544, 5840.501
809.026, 5867.218
809.508, 5864.985
809.990, 5822.756
810.472, 5789.409
810.954, 5793.816
811.437, 5817.658
811.919, 5825.708
812.401, 5812.961
812.883, 5806.921
813.365, 5814.139
813.847, 5819.402
814.329, 5814.093
814.811, 5808.852
815.294, 5812.847
815.776, 5826.244
816.258, 5845.563
816.740, 5899.411
817.222, 5922.006
817.704, 5844.820
818.186, 5753.356
818.668, 5744.930
819.150, 5799.885
819.633, 5834.197
820.115, 5810.108
820.597, 5767.125
821.079, 5738.767
821.561, 5723.586
822.043, 5725.724
822.525, 5740.273
823.007, 5740.646
823.489, 5717.454
823.972, 5691.003
824.454, 5684.884
824.936, 5695.806
825.418, 5706.632
825.900, 5720.311
826.382, 5711.269
826.864, 5661.038
827.346, 5619.216
827.828, 5630.457
828.311, 5677.712
828.793, 5697.906
829.275, 5667.940
829.757, 5653.800
830.239, 5671.001
830.721, 5685.840
831.203, 5677.031
831.685, 5661.815
832.167, 5665.260
832.650, 5690.493
833.132, 5714.090
833.614, 5743.014
834.096, 5751.159
834.578, 5702.629
835.060, 5636.516
835.542, 5598.963
836.024, 5594.374
836.507, 5608.512
836.989, 5639.880
837.471, 5663.260
837.953, 5630.226
838.435, 5572.128
838.917, 5572.586
839.399, 5626.718
839.881, 5661.980
840.364, 5646.779
840.846, 5609.804
841.328, 5586.660
841.810, 5576.492
842.292, 5572.305
842.774, 5575.585
843.256, 5573.542
843.738, 5560.761
844.221, 5547.428
844.703, 5540.026
845.185, 5539.870
845.667, 5555.324
846.149, 5612.276
846.631, 5636.249
847.113, 5586.569
847.595, 5546.974
848.077, 5562.444
848.560, 5602.987
849.042, 5626.457
849.524, 5628.251
850.006, 5624.935
850.488, 5610.228
850.970, 5603.322
851.452, 5633.492
851.934, 5662.432
852.416, 5636.542
852.899, 5566.123
853.381, 5511.614
853.863, 5502.620
854.345, 5513.822
854.827, 5532.216
855.309, 5551.534
855.791, 5562.935
856.273, 5566.300
856.755, 5562.120
857.238, 5551.056
857.720, 5541.230
858.202, 5545.788
858.684, 5556.687
859.166, 5540.331
859.648, 5500.714
860.130, 5490.676
860.612, 5524.400
861.094, 5547.203
861.577, 5513.467
862.059, 5445.625
862.541, 5407.872
863.023, 5403.989
863.505, 5413.762
863.987, 5442.860
864.469, 5471.211
864.951, 5493.622
865.434, 5507.435
865.916, 5507.847
866.398, 5494.194
866.880, 5475.745
867.362, 5435.887
867.844, 5414.506
868.326, 5437.389
868.808, 5462.981
869.291, 5461.369
869.773, 5439.233
870.255, 5416.648
870.737, 5396.858
871.219, 5379.030
871.701, 5356.016
872.183, 5341.853
872.665, 5355.024
873.148, 5378.970
873.630, 5386.085
874.112, 5373.637
874.594, 5365.101
875.076, 5381.040
875.558, 5398.081
876.040, 5384.833
876.522, 5359.878
877.004, 5357.560
877.487, 5376.219
877.969, 5390.106
878.451, 5386.617
878.933, 5379.690
879.415, 5393.362
879.897, 5417.431
880.379, 5410.849
880.861, 5377.578
881.343, 5359.987
881.826, 5370.163
882.308, 5384.790
882.790, 5383.947
883.272, 5370.649
883.754, 5350.974
884.236, 5322.405
884.718, 5312.807
885.200, 5328.599
885.682, 5350.098
886.165, 5371.232
886.647, 5387.730
887.129, 5393.224
887.611, 5387.452
888.093, 5372.684
888.575, 5340.173
889.057, 5313.358
889.539, 5280.376
890.021, 5270.266
890.504, 5326.337
890.986, 5419.016
891.468, 5460.495
891.950, 5419.517
892.432, 5395.594
892.914, 5426.550
893.396, 5449.706
893.878, 5417.378
894.361, 5372.939
894.843, 5379.171
895.325, 5433.991
895.807, 5465.173
896.289, 5424.919
896.771, 5383.789
897.253, 5374.023
897.735, 5384.619
898.218, 5413.857
898.700, 5452.119
899.182, 5483.090
899.664, 5501.101
900.146, 5509.533
900.628, 5505.595
901.110, 5497.907
901.592, 5495.449
902.075, 5497.754
902.557, 5502.688
903.039, 5510.451
903.521, 5526.055
904.003, 5554.300
904.485, 5581.832
904.967, 5580.195
905.449, 5562.501
905.931, 5570.165
906.414, 5603.335
906.896, 5650.502
907.378, 5707.466
907.860, 5759.418
908.342, 5788.391
908.824, 5803.716
909.306, 5837.665
909.788, 5890.225
910.270, 5960.181
910.753, 6048.769
911.235, 6147.516
911.717, 6256.190
912.199, 6362.925
912.681, 6445.381
913.163, 6501.463
913.645, 6571.569
914.127, 6661.061
914.609, 6749.138
915.092, 6827.955
915.574, 6910.806
916.056, 7011.217
916.538, 7123.667
917.020, 7227.643
917.502, 7319.993
917.984, 7412.779
918.466, 7513.710
918.948, 7604.866
919.431, 7670.153
919.913, 7729.958
920.395, 7809.575
920.877, 7906.274
921.359, 7985.931
921.841, 8050.357
922.323, 8090.628
922.805, 8090.320
923.288, 8081.071
923.770, 8086.388
924.252, 8093.002
924.734, 8074.662
925.216, 8027.075
925.698, 7984.617
926.180, 7972.052
926.662, 7950.687
927.144, 7891.275
927.627, 7823.446
928.109, 7786.629
928.591, 7765.297
929.073, 7708.175
929.555, 7594.737
930.037, 7472.290
930.519, 7350.221
931.002, 7248.921
931.484, 7213.945
931.966, 7198.072
932.448, 7111.361
932.930, 6959.530
933.412, 6840.022
933.894, 6813.625
934.376, 6810.936
934.858, 6764.206
935.341, 6697.798
935.823, 6649.514
936.305, 6613.366
936.787, 6560.945
937.269, 6487.364
937.751, 6422.760
938.233, 6397.544
938.715, 6385.044
939.197, 6336.637
939.680, 6267.059
940.162, 6217.167
940.644, 6187.744
941.126, 6158.318
941.608, 6119.958
942.090, 6075.773
942.572, 6028.539
943.054, 5978.816
943.536, 5919.252
944.019, 5855.466
944.501, 5836.316
944.983, 5867.853
945.465, 5893.666
945.947, 5879.597
946.429, 5842.849
946.911, 5808.532
947.393, 5777.212
947.875, 5756.125
948.358, 5745.687
948.840, 5732.457
949.322, 5712.859
949.804, 5690.561
950.286, 5666.247
950.768, 5645.663
951.250, 5646.907
951.732, 5672.953
952.215, 5691.234
952.697, 5701.616
953.179, 5700.443
953.661, 5682.602
954.143, 5664.150
954.625, 5661.460
955.107, 5671.651
955.589, 5681.286
956.071, 5692.100
956.554, 5695.212
957.036, 5687.321
957.518, 5678.940
958.000, 5674.333
958.482, 5671.651
958.964, 5667.955
959.446, 5663.576
959.929, 5665.660
960.411, 5679.082
960.893, 5687.104
961.375, 5677.940
961.857, 5679.875
962.339, 5716.506
962.821, 5766.255
963.303, 5793.431
963.785, 5795.582
964.268, 5801.268
964.750, 5811.224
965.232, 5823.374
965.714, 5839.266
966.196, 5855.239
966.678, 5870.147
967.160, 5883.347
967.642, 5892.109
968.125, 5893.820
968.607, 5903.123
969.089, 5919.108
969.571, 5944.619
970.053, 5988.541
970.535, 6034.672
971.017, 6069.676
971.499, 6097.981
971.981, 6131.379
972.464, 6171.685
972.946, 6214.124
973.428, 6261.966
973.910, 6306.704
974.392, 6336.968
974.874, 6369.592
975.356, 6420.442
975.838, 6486.972
976.320, 6557.579
976.803, 6629.944
977.285, 6707.111
977.767, 6802.600
978.249, 6886.950
978.731, 6922.229
979.213, 6958.249
979.695, 7059.215
980.177, 7214.247
980.659, 7347.984
981.142, 7416.288
981.624, 7523.654
982.106, 7730.671
982.588, 7949.781
983.070, 8127.597
983.552, 8291.526
984.034, 8464.366
984.516, 8656.556
984.998, 8902.443
985.481, 9243.280
985.963, 9582.492
986.445, 9866.071
986.927, 10158.960
987.409, 10494.490
987.891, 10873.370
988.373, 11300.970
988.856, 11772.810
989.338, 12264.680
989.820, 12740.980
990.302, 13274.550
990.784, 13929.470
991.266, 14621.490
991.748, 15266.740
992.230, 15917.130
992.712, 16658.900
993.195, 17506.211
993.677, 18390.480
994.159, 19258.740
994.641, 20195.260
995.123, 21273.680
995.605, 22408.600
996.087, 23536.330
996.569, 24654.199
997.052, 25781.520
997.534, 26913.750
998.016, 28030.590
998.498, 29152.881
998.980, 30205.109
999.462, 31191.859
999.944, 32053.010
1000.426, 32754.289
1000.908, 33287.090
1001.391, 33676.969
1001.873, 33922.879
1002.355, 33883.871
1002.837, 33467.539
1003.319, 32789.078
1003.801, 31853.270
1004.283, 30735.689
1004.765, 29463.609
1005.247, 28073.250
1005.730, 26578.301
1006.212, 24990.811
1006.694, 23414.770
1007.176, 21861.080
1007.658, 20372.609
1008.140, 18949.199
1008.622, 17627.119
1009.104, 16440.260
1009.586, 15379.920
1010.069, 14440.070
1010.551, 13621.270
1011.033, 12854.180
1011.515, 12078.470
1011.997, 11385.690
1012.479, 10861.750
1012.961, 10413.470
1013.443, 9961.032
1013.926, 9518.456
1014.408, 9132.999
1014.890, 8815.343
1015.372, 8521.580
1015.854, 8241.694
1016.336, 7974.921
1016.818, 7694.956
1017.300, 7451.660
1017.782, 7304.042
1018.265, 7219.394
1018.747, 7136.489
1019.229, 7043.754
1019.711, 6921.621
1020.193, 6727.592
1020.675, 6549.126
1021.157, 6413.839
1021.639, 6315.476
1022.122, 6265.959
1022.604, 6244.124
1023.086, 6220.818
1023.568, 6192.226
1024.050, 6128.670
1024.532, 5963.829
1025.014, 5841.305
1025.496, 5849.116
1025.978, 5879.984
1026.461, 5855.694
1026.943, 5797.185
1027.425, 5751.387
1027.907, 5725.212
1028.389, 5693.533
1028.871, 5647.363
1029.353, 5600.062
1029.835, 5555.487
1030.318, 5510.542
1030.800, 5452.111
1031.282, 5396.733
1031.764, 5382.208
1032.246, 5414.319
1032.728, 5412.544
1033.210, 5330.953
1033.692, 5265.945
1034.174, 5238.176
1034.657, 5228.514
1035.139, 5238.283
1035.621, 5253.116
1036.103, 5248.175
1036.585, 5221.527
1037.067, 5209.882
1037.549, 5248.244
1038.031, 5251.450
1038.514, 5161.397
1038.996, 5092.157
1039.478, 5116.444
1039.960, 5179.073
1040.442, 5208.612
1040.924, 5205.629
1041.406, 5204.573
1041.888, 5214.689
1042.370, 5208.889
1042.853, 5180.222
1043.335, 5142.548
1043.817, 5089.808
1044.299, 5044.613
1044.781, 5041.305
1045.263, 5073.813
1045.745, 5077.121
1046.227, 5032.284
1046.709, 5011.576
1047.192, 5031.781
1047.674, 5043.588
1048.156, 5018.529
1048.638, 4995.691
1049.120, 5023.258
1049.602, 5086.566
1050.084, 5111.583
1050.566, 5090.325
1051.049, 5066.602
1051.531, 5039.953
1052.013, 5016.933
1052.495, 4996.125
1052.977, 4993.185
1053.459, 5026.846
1053.941, 5082.427
1054.423, 5115.550
1054.906, 5125.447
1055.388, 5118.214
1055.870, 5090.339
1056.352, 5099.340
1056.834, 5165.862
1057.316, 5225.030
1057.798, 5224.151
1058.280, 5191.620
1058.762, 5189.752
1059.245, 5213.593
1059.727, 5214.043
1060.209, 5193.347
1060.691, 5190.862
1061.173, 5214.614
1061.655, 5240.362
1062.137, 5252.437
1062.619, 5263.393
1063.101, 5296.032
1063.584, 5342.161
1064.066, 5373.924
1064.548, 5396.120
1065.030, 5431.501
1065.512, 5480.157
1065.994, 5515.063
1066.476, 5522.825
1066.958, 5528.901
1067.441, 5566.090
1067.923, 5615.903
1068.405, 5643.635
1068.887, 5662.046
1069.369, 5701.951
1069.851, 5758.868
1070.333, 5804.823
1070.815, 5830.054
1071.297, 5849.361
1071.780, 5867.180
1072.262, 5893.480
1072.744, 5951.167
1073.226, 6013.776
1073.708, 6041.864
1074.190, 6048.510
1074.672, 6066.026
1075.154, 6102.562
1075.636, 6152.025
1076.119, 6218.580
1076.601, 6284.316
1077.083, 6346.935
1077.565, 6395.594
1078.047, 6400.476
1078.529, 6397.579
1079.011, 6448.576
1079.493, 6548.870
1079.976, 6626.254
1080.458, 6647.747
1080.940, 6673.800
1081.422, 6736.421
1081.904, 6790.932
1082.386, 6806.125
1082.868, 6809.522
1083.350, 6831.260
1083.833, 6866.265
1084.315, 6886.849
1084.797, 6874.056
1085.279, 6897.317
1085.761, 7001.041
1086.243, 7084.717
1086.725, 7123.416
1087.207, 7138.573
1087.689, 7128.490
1088.172, 7114.662
1088.654, 7150.223
1089.136, 7245.573
1089.618, 7277.092
1090.100, 7212.979
1090.582, 7180.971
1091.064, 7216.094
1091.546, 7236.569
1092.028, 7193.572
1092.511, 7128.601
1092.993, 7098.758
1093.475, 7099.001
1093.957, 7101.118
1094.439, 7106.426
1094.921, 7080.973
1095.403, 7020.741
1095.885, 6946.616
1096.368, 6864.885
1096.850, 6791.097
1097.332, 6739.128
1097.814, 6705.735
1098.296, 6690.341
1098.778, 6686.377
1099.260, 6672.553
1099.742, 6644.910
1100.224, 6581.114
1100.707, 6482.573
1101.189, 6400.558
1101.671, 6367.140
1102.153, 6354.182
1102.635, 6328.437
1103.117, 6301.700
1103.599, 6298.180
1104.081, 6303.906
1104.563, 6289.947
1105.046, 6258.169
1105.528, 6231.806
1106.010, 6219.524
1106.492, 6198.702
1106.974, 6131.667
1107.456, 6078.025
1107.938, 6093.552
1108.420, 6130.272
1108.903, 6141.541
1109.385, 6138.028
1109.867, 6152.367
1110.349, 6187.143
1110.831, 6201.853
1111.313, 6159.617
1111.795, 6134.898
1112.277, 6168.641
1112.760, 6197.021
1113.242, 6178.022
1113.724, 6144.295
1114.206, 6141.439
1114.688, 6159.068
1115.170, 6137.803
1115.652, 6060.248
1116.134, 5994.950
1116.616, 5961.138
1117.099, 5897.142
1117.581, 5769.216
1118.063, 5648.718
1118.545, 5588.883
1119.027, 5559.320
1119.509, 5499.363
1119.991, 5410.865
1120.473, 5341.799
1120.955, 5293.541
1121.438, 5238.373
1121.920, 5171.919
1122.402, 5108.323
1122.884, 5053.477
1123.366, 5008.079
1123.848, 4974.628
1124.330, 4949.001
1124.812, 4921.521
1125.295, 4894.194
1125.777, 4880.034
1126.259, 4871.957
1126.741, 4833.861
1127.223, 4763.271
1127.705, 4706.418
1128.187, 4694.050
1128.669, 4691.742
1129.151, 4658.987
1129.634, 4624.346
1130.116, 4629.039
1130.598, 4647.326
1131.080, 4640.461
1131.562, 4611.516
1132.044, 4582.171
1132.526, 4558.322
1133.008, 4540.817
1133.490, 4530.647
1133.973, 4526.233
1134.455, 4548.858
1134.937, 4554.009
1135.419, 4486.037
1135.901, 4395.854
1136.383, 4363.516
1136.865, 4388.032
1137.347, 4397.748
1137.830, 4373.550
1138.312, 4369.293
1138.794, 4402.259
1139.276, 4421.336
1139.758, 4410.653
1140.240, 4380.668
1140.722, 4332.048
1141.204, 4281.018
1141.687, 4266.563
1142.169, 4288.254
1142.651, 4299.106
1143.133, 4298.569
1143.615, 4331.106
1144.097, 4402.793
1144.579, 4442.273
1145.061, 4415.760
1145.543, 4369.957
1146.026, 4351.645
1146.508, 4350.535
1146.990, 4346.913
1147.472, 4345.148
1147.954, 4359.162
1148.436, 4382.875
1148.918, 4395.740
1149.400, 4396.259
1149.882, 4405.054
1150.365, 4436.190
1150.847, 4458.810
1151.329, 4444.618
1151.811, 4420.422
1152.293, 4399.280
1152.775, 4384.670
1153.257, 4375.219
1153.739, 4375.900
1154.222, 4405.408
1154.704, 4468.938
1155.186, 4501.085
1155.668, 4464.328
1156.150, 4436.498
1156.632, 4433.915
1157.114, 4435.189
1157.596, 4430.877
1158.078, 4427.963
1158.561, 4432.396
1159.043, 4444.583
1159.525, 4467.879
1160.007, 4504.520
1160.489, 4534.417
1160.971, 4557.188
1161.453, 4574.198
1161.935, 4585.133
1162.417, 4603.631
1162.900, 4638.530
1163.382, 4670.183
1163.864, 4669.665
1164.346, 4652.130
1164.828, 4651.318
1165.310, 4661.962
1165.792, 4664.406
1166.274, 4666.629
1166.757, 4701.235
1167.239, 4771.285
1167.721, 4844.384
1168.203, 4908.002
1168.685, 4950.754
1169.167, 4947.235
1169.649, 4939.706
1170.131, 4964.861
1170.614, 4998.607
1171.096, 5020.415
1171.578, 5026.791
1172.060, 5018.132
1172.542, 4995.400
1173.024, 4945.785
1173.506, 4837.238
1173.988, 4751.640
1174.470, 4703.751
1174.953, 4666.275
1175.435, 4631.804
1175.917, 4599.757
1176.399, 4574.014
1176.881, 4544.809
1177.363, 4473.012
1177.845, 4357.248
1178.327, 4292.938
1178.809, 4278.303
1179.292, 4266.523
1179.774, 4247.640
1180.256, 4205.625
1180.738, 4133.398
1181.220, 4070.292
1181.702, 4060.543
1182.184, 4077.506
1182.666, 4092.457
1183.149, 4101.720
1183.631, 4102.991
1184.113, 4092.435
1184.595, 4050.607
1185.077, 3987.981
1185.559, 3959.293
1186.041, 3991.155
1186.523, 4024.521
1187.005, 4048.404
1187.488, 4053.248
1187.970, 4017.107
1188.452, 3979.160
1188.934, 3966.544
1189.416, 3970.601
1189.898, 3978.948
1190.380, 3991.396
1190.862, 4007.696
1191.344, 4033.942
1191.827, 4035.080
1192.309, 4004.808
1192.791, 3979.841
1193.273, 3970.588
1193.755, 3966.198
1194.237, 3959.959
1194.719, 3949.785
1195.201, 3926.109
1195.684, 3900.633
1196.166, 3916.854
1196.648, 3949.322
1197.130, 3928.642
1197.612, 3868.387
1198.094, 3824.661
1198.576, 3812.285
1199.058, 3817.318
1199.541, 3836.909
1200.023, 3859.296
1200.505, 3891.153
1200.987, 3907.586
1201.469, 3893.537
1201.951, 3857.230
1202.433, 3779.599
1202.915, 3694.925
1203.397, 3689.570
1203.880, 3765.934
1204.362, 3798.465
1204.844, 3767.846
1205.326, 3748.079
1205.808, 3743.229
1206.290, 3754.919
1206.772, 3787.710
1207.254, 3812.869
1207.736, 3806.905
1208.219, 3786.402
1208.701, 3776.973
1209.183, 3777.929
1209.665, 3796.329
1210.147, 3820.472
1210.629, 3807.023
1211.111, 3769.073
1211.593, 3771.573
1212.076, 3825.297
1212.558, 3860.170
1213.040, 3831.720
1213.522, 3793.978
1214.004, 3765.163
1214.486, 3752.490
1214.968, 3779.199
1215.450, 3807.416
1215.932, 3796.486
1216.415, 3761.191
1216.897, 3734.935
1217.379, 3718.110
1217.861, 3718.750
1218.343, 3740.926
1218.825, 3771.351
1219.307, 3816.223
1219.789, 3826.448
1220.271, 3782.177
1220.754, 3741.588
1221.236, 3748.518
1221.718, 3777.538
1222.200, 3794.939
1222.682, 3801.108
1223.164, 3785.043
1223.646, 3764.150
1224.128, 3791.574
1224.611, 3843.927
1225.093, 3836.454
1225.575, 3763.657
1226.057, 3729.472
1226.539, 3799.990
1227.021, 3849.095
1227.503, 3799.382
1227.985, 3750.546
1228.468, 3760.996
1228.950, 3773.518
1229.432, 3732.416
1229.914, 3676.328
1230.396, 3665.265
1230.878, 3693.513
1231.360, 3712.990
1231.842, 3723.392
1232.324, 3726.952
1232.807, 3723.664
1233.289, 3721.118
1233.771, 3721.083
1234.253, 3723.934
1234.735, 3730.349
1235.217, 3723.167
1235.699, 3661.693
1236.181, 3603.937
1236.663, 3650.684
1237.146, 3725.286
1237.628, 3727.422
1238.110, 3688.008
1238.592, 3666.171
1239.074, 3667.634
1239.556, 3672.874
1240.038, 3679.408
1240.520, 3683.018
1241.003, 3672.864
1241.485, 3678.750
1241.967, 3725.935
1242.449, 3743.045
1242.931, 3685.272
1243.413, 3619.276
1243.895, 3615.224
1244.377, 3649.563
1244.859, 3668.196
1245.342, 3671.626
1245.824, 3654.849
1246.306, 3626.057
1246.788, 3615.361
1247.270, 3623.706
1247.752, 3639.325
1248.234, 3656.785
1248.716, 3666.275
1249.198, 3658.713
1249.681, 3649.896
1250.163, 3656.170
1250.645, 3654.792
1251.127, 3609.965
1251.609, 3572.059
1252.091, 3611.693
1252.573, 3678.086
1253.055, 3667.567
1253.538, 3587.473
1254.020, 3571.052
1254.502, 3630.603
1254.984, 3658.353
1255.466, 3647.863
1255.948, 3648.022
1256.430, 3670.058
1256.912, 3681.015
1257.395, 3661.416
1257.877, 3639.917
1258.359, 3652.668
1258.841, 3672.408
1259.323, 3664.944
1259.805, 3647.907
1260.287, 3639.371
1260.769, 3636.575
1261.251, 3634.054
1261.734, 3630.893
1262.216, 3624.921
1262.698, 3611.671
1263.180, 3618.372
1263.662, 3662.060
1264.144, 3686.844
1264.626, 3682.320
1265.108, 3671.618
1265.590, 3660.910
1266.073, 3664.499
1266.555, 3698.690
1267.037, 3733.601
1267.519, 3710.672
1268.001, 3653.521
1268.483, 3602.715
1268.965, 3566.320
##END=



