##NAMES=Parascholzite
##RRUFFID=R060806
##IDEAL CHEMISTRY=CaZn^2+^_2_(P^5+^O_4_)_2_&#183;2H_2_O
##LOCALITY=Tip Top mine, Fourmile, Custer District, Custer County, South Dakota, USA
##OWNER=RRUFF
##SOURCE=Michael Scott
##DESCRIPTION=Radial spray of colorless elongated flattened prismatic crystals
##STATUS=The identification of this mineral has been confirmed by single-crystal X-ray diffraction.
##URL=rruff.info/R060806
116.220, 1197.558
116.702, 1259.623
117.184, 1319.635
117.666, 1377.993
118.148, 1435.069
118.630, 1494.222
119.112, 1567.083
119.595, 1638.559
120.077, 1693.556
120.559, 1714.928
121.041, 1726.286
121.523, 1745.780
122.005, 1773.899
122.487, 1795.298
122.969, 1793.924
123.451, 1777.819
123.934, 1762.009
124.416, 1752.736
124.898, 1748.075
125.380, 1745.591
125.862, 1744.955
126.344, 1747.017
126.826, 1753.881
127.308, 1764.803
127.790, 1776.523
128.273, 1785.341
128.755, 1793.250
129.237, 1805.523
129.719, 1824.345
130.201, 1846.542
130.683, 1864.900
131.165, 1879.326
131.648, 1896.331
132.130, 1924.797
132.612, 1963.101
133.094, 1996.205
133.576, 2017.607
134.058, 2030.378
134.540, 2049.426
135.022, 2076.067
135.504, 2104.897
135.986, 2126.913
136.469, 2140.747
136.951, 2159.457
137.433, 2193.675
137.915, 2245.451
138.397, 2276.535
138.879, 2282.490
139.361, 2272.230
139.843, 2261.747
140.326, 2248.772
140.808, 2241.327
141.290, 2244.985
141.772, 2264.369
142.254, 2280.539
142.736, 2293.148
143.218, 2301.854
143.700, 2302.667
144.182, 2286.414
144.665, 2273.630
145.147, 2279.559
145.629, 2317.461
146.111, 2351.820
146.593, 2378.427
147.075, 2397.262
147.557, 2412.125
148.039, 2420.734
148.521, 2426.552
149.004, 2432.902
149.486, 2438.481
149.968, 2445.853
150.450, 2455.122
150.932, 2465.524
151.414, 2480.527
151.896, 2505.454
152.378, 2533.965
152.861, 2557.131
153.343, 2568.124
153.825, 2579.690
154.307, 2596.760
154.789, 2625.135
155.271, 2649.273
155.753, 2667.431
156.235, 2679.950
156.717, 2688.028
157.200, 2683.760
157.682, 2680.570
158.164, 2685.620
158.646, 2705.302
159.128, 2727.134
159.610, 2752.096
160.092, 2778.176
160.574, 2795.331
161.057, 2792.408
161.539, 2782.454
162.021, 2775.791
162.503, 2777.240
162.985, 2780.791
163.467, 2784.224
163.949, 2787.442
164.431, 2790.834
164.913, 2800.366
165.396, 2808.649
165.878, 2806.870
166.360, 2780.818
166.842, 2751.274
167.324, 2733.981
167.806, 2731.666
168.288, 2727.153
168.770, 2704.700
169.253, 2672.655
169.735, 2646.113
170.217, 2642.462
170.699, 2642.964
171.181, 2627.048
171.663, 2586.633
172.145, 2547.690
172.627, 2531.920
173.109, 2535.133
173.592, 2544.481
174.074, 2562.333
174.556, 2579.203
175.038, 2580.155
175.520, 2557.129
176.002, 2526.584
176.484, 2505.618
176.966, 2493.369
177.449, 2484.725
177.931, 2471.008
178.413, 2458.689
178.895, 2462.612
179.377, 2499.262
179.859, 2542.911
180.341, 2550.886
180.823, 2524.150
181.305, 2490.020
181.788, 2467.776
182.270, 2456.457
182.752, 2452.488
183.234, 2456.492
183.716, 2466.583
184.198, 2479.425
184.680, 2495.164
185.162, 2511.819
185.645, 2530.432
186.127, 2549.554
186.609, 2561.998
187.091, 2560.808
187.573, 2549.752
188.055, 2543.409
188.537, 2542.393
189.019, 2543.532
189.501, 2540.702
189.984, 2534.327
190.466, 2532.983
190.948, 2546.252
191.430, 2571.032
191.912, 2582.471
192.394, 2576.940
192.876, 2563.313
193.358, 2555.802
193.840, 2554.544
194.323, 2556.774
194.805, 2563.177
195.287, 2573.468
195.769, 2578.968
196.251, 2578.061
196.733, 2573.106
197.215, 2568.514
197.697, 2563.777
198.180, 2562.625
198.662, 2569.481
199.144, 2585.029
199.626, 2597.162
200.108, 2603.174
200.590, 2605.265
201.072, 2610.981
201.554, 2620.792
202.036, 2632.480
202.519, 2647.165
203.001, 2666.592
203.483, 2674.465
203.965, 2663.587
204.447, 2637.996
204.929, 2623.767
205.411, 2621.905
205.893, 2628.351
206.376, 2641.852
206.858, 2664.882
207.340, 2683.302
207.822, 2693.162
208.304, 2694.877
208.786, 2696.814
209.268, 2698.670
209.750, 2701.406
210.232, 2706.471
210.714, 2714.639
211.197, 2722.632
211.679, 2728.377
212.161, 2731.500
212.643, 2743.003
213.125, 2767.232
213.607, 2794.487
214.089, 2811.635
214.572, 2815.201
215.054, 2817.612
215.536, 2822.776
216.018, 2831.374
216.500, 2836.780
216.982, 2834.794
217.464, 2833.015
217.946, 2844.899
218.428, 2875.642
218.911, 2908.326
219.393, 2938.080
219.875, 2965.331
220.357, 2986.661
220.839, 3001.894
221.321, 3011.250
221.803, 3014.455
222.285, 3007.035
222.767, 3001.846
223.250, 3005.477
223.732, 3023.714
224.214, 3034.923
224.696, 3037.732
225.178, 3034.217
225.660, 3028.144
226.142, 3015.065
226.624, 3006.725
227.107, 3010.948
227.589, 3039.580
228.071, 3052.127
228.553, 3040.393
229.035, 3012.917
229.517, 2997.373
229.999, 2995.459
230.481, 3002.428
230.963, 3017.486
231.445, 3048.136
231.928, 3070.370
232.410, 3078.684
232.892, 3077.617
233.374, 3086.810
233.856, 3115.097
234.338, 3141.791
234.820, 3153.875
235.303, 3140.324
235.785, 3135.298
236.267, 3145.964
236.749, 3168.240
237.231, 3177.930
237.713, 3167.277
238.195, 3153.752
238.677, 3148.735
239.159, 3158.185
239.641, 3163.701
240.124, 3159.840
240.606, 3149.063
241.088, 3151.877
241.570, 3177.364
242.052, 3205.589
242.534, 3222.927
243.016, 3226.088
243.498, 3224.487
243.981, 3217.403
244.463, 3205.428
244.945, 3194.530
245.427, 3179.333
245.909, 3171.138
246.391, 3180.456
246.873, 3220.349
247.355, 3251.478
247.837, 3268.519
248.320, 3271.808
248.802, 3266.320
249.284, 3245.161
249.766, 3223.359
250.248, 3213.802
250.730, 3223.968
251.212, 3231.310
251.694, 3233.999
252.176, 3231.980
252.659, 3219.949
253.141, 3188.499
253.623, 3158.491
254.105, 3149.463
254.587, 3173.493
255.069, 3191.941
255.551, 3198.019
256.033, 3192.121
256.516, 3182.321
256.998, 3162.328
257.480, 3146.121
257.962, 3149.309
258.444, 3184.656
258.926, 3207.871
259.408, 3206.419
259.890, 3181.251
260.372, 3170.791
260.855, 3180.454
261.337, 3197.224
261.819, 3208.304
262.301, 3209.723
262.783, 3216.612
263.265, 3235.020
263.747, 3263.827
264.229, 3281.187
264.711, 3283.384
265.194, 3279.453
265.676, 3275.130
266.158, 3266.239
266.640, 3271.739
267.122, 3301.338
267.604, 3352.923
268.086, 3385.725
268.569, 3394.346
269.051, 3394.519
269.533, 3401.025
270.015, 3415.179
270.497, 3430.513
270.979, 3444.703
271.461, 3458.568
271.943, 3480.969
272.425, 3515.716
272.908, 3550.646
273.390, 3571.863
273.872, 3576.300
274.354, 3583.120
274.836, 3596.851
275.318, 3616.567
275.800, 3637.166
276.282, 3660.349
276.764, 3679.511
277.247, 3684.566
277.729, 3672.466
278.211, 3670.869
278.693, 3691.508
279.175, 3727.465
279.657, 3738.763
280.139, 3720.213
280.621, 3696.300
281.103, 3691.423
281.586, 3706.449
282.068, 3717.282
282.550, 3717.417
283.032, 3709.758
283.514, 3706.250
283.996, 3707.670
284.478, 3709.108
284.960, 3710.229
285.443, 3710.606
285.925, 3694.319
286.407, 3650.251
286.889, 3591.885
287.371, 3560.527
287.853, 3557.773
288.335, 3564.224
288.817, 3565.354
289.299, 3561.688
289.782, 3557.635
290.264, 3555.336
290.746, 3552.173
291.228, 3539.759
291.710, 3517.962
292.192, 3497.704
292.674, 3490.222
293.156, 3492.413
293.638, 3491.790
294.121, 3485.199
294.603, 3475.398
295.085, 3466.896
295.567, 3459.668
296.049, 3452.515
296.531, 3439.934
297.013, 3426.596
297.496, 3426.957
297.978, 3448.796
298.460, 3477.622
298.942, 3492.091
299.424, 3494.032
299.906, 3494.049
300.388, 3500.339
300.870, 3509.542
301.352, 3514.275
301.835, 3510.898
302.317, 3507.249
302.799, 3515.344
303.281, 3531.863
303.763, 3544.172
304.245, 3536.342
304.727, 3521.859
305.209, 3521.823
305.691, 3545.187
306.174, 3568.305
306.656, 3566.472
307.138, 3546.742
307.620, 3529.470
308.102, 3528.662
308.584, 3534.321
309.066, 3537.693
309.548, 3538.668
310.030, 3533.948
310.513, 3512.556
310.995, 3483.798
311.477, 3467.037
311.959, 3491.100
312.441, 3517.986
312.923, 3513.689
313.405, 3466.706
313.887, 3426.793
314.370, 3426.619
314.852, 3449.034
315.334, 3466.584
315.816, 3469.328
316.298, 3463.844
316.780, 3450.715
317.262, 3428.472
317.744, 3410.057
318.226, 3405.261
318.709, 3405.899
319.191, 3402.185
319.673, 3377.389
320.155, 3360.294
320.637, 3367.485
321.119, 3402.334
321.601, 3427.548
322.083, 3431.814
322.565, 3423.001
323.048, 3408.306
323.530, 3373.014
324.012, 3347.956
324.494, 3345.891
324.976, 3367.576
325.458, 3380.275
325.940, 3371.000
326.422, 3356.691
326.905, 3349.797
327.387, 3355.979
327.869, 3363.977
328.351, 3375.435
328.833, 3389.458
329.315, 3396.478
329.797, 3389.808
330.279, 3381.577
330.762, 3378.914
331.244, 3386.235
331.726, 3392.643
332.208, 3400.194
332.690, 3406.898
333.172, 3401.858
333.654, 3372.868
334.136, 3348.649
334.618, 3347.185
335.100, 3384.082
335.583, 3402.609
336.065, 3395.052
336.547, 3370.527
337.029, 3351.188
337.511, 3336.913
337.993, 3327.897
338.475, 3326.470
338.957, 3335.038
339.440, 3334.895
339.922, 3321.928
340.404, 3305.200
340.886, 3303.088
341.368, 3318.683
341.850, 3330.147
342.332, 3325.478
342.814, 3305.736
343.297, 3293.471
343.779, 3290.283
344.261, 3289.681
344.743, 3282.578
345.225, 3269.319
345.707, 3256.860
346.189, 3246.343
346.671, 3238.702
347.153, 3237.455
347.635, 3243.048
348.118, 3250.601
348.600, 3254.947
349.082, 3256.969
349.564, 3260.877
350.046, 3270.951
350.528, 3281.127
351.010, 3278.624
351.492, 3264.389
351.975, 3250.777
352.457, 3252.532
352.939, 3260.926
353.421, 3258.613
353.903, 3234.228
354.385, 3208.639
354.867, 3209.083
355.349, 3229.084
355.832, 3242.572
356.314, 3225.423
356.796, 3197.837
357.278, 3181.546
357.760, 3183.622
358.242, 3189.709
358.724, 3193.691
359.206, 3194.892
359.688, 3191.829
360.171, 3173.320
360.653, 3157.753
361.135, 3159.018
361.617, 3182.778
362.099, 3205.235
362.581, 3219.210
363.063, 3226.168
363.545, 3228.101
364.027, 3212.287
364.510, 3203.578
364.992, 3215.471
365.474, 3251.167
365.956, 3278.703
366.438, 3290.458
366.920, 3292.458
367.402, 3290.045
367.884, 3274.792
368.366, 3264.969
368.849, 3267.757
369.331, 3282.087
369.813, 3286.167
370.295, 3269.363
370.777, 3251.699
371.259, 3245.369
371.741, 3256.696
372.224, 3268.212
372.706, 3279.951
373.188, 3291.067
373.670, 3297.898
374.152, 3297.734
374.634, 3298.084
375.116, 3302.813
375.598, 3312.972
376.080, 3323.133
376.562, 3333.763
377.045, 3343.599
377.527, 3349.928
378.009, 3352.459
378.491, 3353.564
378.973, 3353.235
379.455, 3351.830
379.937, 3353.979
380.419, 3360.368
380.902, 3368.170
381.384, 3375.137
381.866, 3381.163
382.348, 3384.588
382.830, 3383.542
383.312, 3380.327
383.794, 3378.688
384.276, 3378.666
384.759, 3383.902
385.241, 3402.694
385.723, 3429.009
386.205, 3447.244
386.687, 3450.693
387.169, 3449.935
387.651, 3459.125
388.133, 3475.188
388.615, 3486.701
389.098, 3480.363
389.580, 3468.526
390.062, 3463.207
390.544, 3465.139
391.026, 3476.918
391.508, 3510.640
391.990, 3554.275
392.472, 3587.119
392.954, 3591.169
393.437, 3589.347
393.919, 3593.422
394.401, 3604.673
394.883, 3618.433
395.365, 3634.120
395.847, 3651.202
396.329, 3669.137
396.811, 3678.335
397.293, 3698.245
397.776, 3738.595
398.258, 3797.726
398.740, 3850.959
399.222, 3894.729
399.704, 3933.309
400.186, 3968.732
400.668, 3998.943
401.151, 4029.185
401.633, 4062.012
402.115, 4094.563
402.597, 4116.974
403.079, 4115.862
403.561, 4127.889
404.043, 4173.103
404.525, 4261.265
405.007, 4332.624
405.490, 4384.265
405.972, 4423.384
406.454, 4460.314
406.936, 4495.744
407.418, 4524.560
407.900, 4539.246
408.382, 4545.266
408.864, 4579.893
409.346, 4647.804
409.828, 4712.760
410.311, 4743.381
410.793, 4741.671
411.275, 4713.334
411.757, 4647.246
412.239, 4572.244
412.721, 4545.785
413.203, 4559.525
413.685, 4558.657
414.168, 4489.533
414.650, 4389.039
415.132, 4316.628
415.614, 4284.702
416.096, 4257.262
416.578, 4199.509
417.060, 4124.163
417.542, 4056.643
418.025, 4011.031
418.507, 3974.976
418.989, 3940.532
419.471, 3907.562
419.953, 3878.783
420.435, 3860.336
420.917, 3844.641
421.399, 3825.103
421.881, 3796.997
422.364, 3768.413
422.846, 3737.336
423.328, 3705.780
423.810, 3685.081
424.292, 3687.124
424.774, 3691.767
425.256, 3689.761
425.738, 3675.979
426.220, 3665.237
426.703, 3659.146
427.185, 3655.276
427.667, 3650.110
428.149, 3645.459
428.631, 3635.533
429.113, 3615.293
429.595, 3584.050
430.077, 3566.097
430.560, 3563.635
431.042, 3568.927
431.524, 3577.502
432.006, 3590.046
432.488, 3593.661
432.970, 3581.734
433.452, 3563.095
433.934, 3563.223
434.417, 3582.199
434.899, 3599.474
435.381, 3601.092
435.863, 3590.540
436.345, 3575.759
436.827, 3556.149
437.309, 3538.583
437.791, 3530.652
438.273, 3530.901
438.755, 3535.933
439.238, 3551.723
439.720, 3566.793
440.202, 3568.460
440.684, 3556.889
441.166, 3543.984
441.648, 3533.627
442.130, 3526.965
442.612, 3525.476
443.095, 3534.871
443.577, 3542.756
444.059, 3542.728
444.541, 3537.498
445.023, 3535.234
445.505, 3540.700
445.987, 3547.314
446.469, 3552.259
446.952, 3554.772
447.434, 3557.454
447.916, 3561.895
448.398, 3565.902
448.880, 3566.472
449.362, 3560.469
449.844, 3556.396
450.326, 3556.265
450.808, 3559.718
451.290, 3563.819
451.773, 3570.407
452.255, 3573.330
452.737, 3564.835
453.219, 3543.232
453.701, 3530.723
454.183, 3530.020
454.665, 3538.619
455.147, 3557.850
455.630, 3586.721
456.112, 3606.494
456.594, 3599.046
457.076, 3576.119
457.558, 3571.410
458.040, 3586.232
458.522, 3602.171
459.004, 3602.082
459.487, 3591.533
459.969, 3579.807
460.451, 3563.665
460.933, 3554.899
461.415, 3573.155
461.897, 3609.776
462.379, 3635.141
462.861, 3626.169
463.343, 3606.025
463.826, 3588.234
464.308, 3572.442
464.790, 3566.899
465.272, 3581.292
465.754, 3605.270
466.236, 3625.444
466.718, 3644.543
467.200, 3654.824
467.682, 3648.393
468.165, 3626.229
468.647, 3618.821
469.129, 3635.327
469.611, 3656.728
470.093, 3671.738
470.575, 3678.249
471.057, 3684.543
471.539, 3692.083
472.022, 3698.448
472.504, 3697.167
472.986, 3686.732
473.468, 3678.235
473.950, 3677.433
474.432, 3682.729
474.914, 3686.761
475.396, 3689.952
475.878, 3688.488
476.361, 3674.759
476.843, 3653.091
477.325, 3635.845
477.807, 3624.271
478.289, 3620.986
478.771, 3636.814
479.253, 3665.398
479.735, 3685.682
480.217, 3676.911
480.700, 3660.569
481.182, 3655.731
481.664, 3665.354
482.146, 3675.345
482.628, 3678.067
483.110, 3677.892
483.592, 3679.353
484.074, 3685.681
484.556, 3691.134
485.039, 3692.218
485.521, 3690.135
486.003, 3692.989
486.485, 3708.104
486.967, 3721.055
487.449, 3724.727
487.931, 3714.213
488.414, 3710.503
488.896, 3718.018
489.378, 3728.010
489.860, 3727.011
490.342, 3712.217
490.824, 3701.844
491.306, 3702.637
491.788, 3710.903
492.270, 3711.529
492.753, 3704.129
493.235, 3695.729
493.717, 3689.865
494.199, 3687.062
494.681, 3691.161
495.163, 3704.389
495.645, 3716.779
496.127, 3710.614
496.609, 3694.830
497.092, 3690.236
497.574, 3717.443
498.056, 3750.350
498.538, 3768.603
499.020, 3773.474
499.502, 3777.048
499.984, 3785.960
500.466, 3795.231
500.948, 3800.546
501.431, 3796.413
501.913, 3797.472
502.395, 3811.050
502.877, 3830.622
503.359, 3844.666
503.841, 3854.559
504.323, 3856.526
504.805, 3845.891
505.288, 3822.930
505.770, 3808.952
506.252, 3803.323
506.734, 3807.456
507.216, 3827.818
507.698, 3867.443
508.180, 3889.521
508.662, 3886.563
509.145, 3872.849
509.627, 3873.720
510.109, 3887.800
510.591, 3900.373
511.073, 3902.697
511.555, 3900.059
512.037, 3902.184
512.519, 3909.032
513.001, 3918.164
513.484, 3932.085
513.966, 3945.645
514.448, 3952.095
514.930, 3947.974
515.412, 3940.822
515.894, 3932.626
516.376, 3924.350
516.858, 3917.913
517.341, 3911.181
517.823, 3908.738
518.305, 3914.587
518.787, 3929.498
519.269, 3939.372
519.751, 3939.826
520.233, 3938.225
520.715, 3938.678
521.197, 3940.476
521.680, 3946.631
522.162, 3959.947
522.644, 3975.448
523.126, 3980.940
523.608, 3973.911
524.090, 3974.415
524.572, 3996.258
525.054, 4030.425
525.536, 4038.594
526.019, 4020.095
526.501, 3998.826
526.983, 3994.186
527.465, 4001.210
527.947, 4011.178
528.429, 4024.354
528.911, 4033.653
529.393, 4027.246
529.875, 4012.814
530.358, 4004.425
530.840, 4009.828
531.322, 4021.381
531.804, 4036.417
532.286, 4054.800
532.768, 4073.840
533.250, 4093.584
533.732, 4113.626
534.214, 4134.234
534.697, 4157.201
535.179, 4176.946
535.661, 4189.254
536.143, 4200.986
536.625, 4221.726
537.107, 4254.526
537.589, 4289.058
538.071, 4323.630
538.554, 4358.178
539.036, 4385.761
539.518, 4403.811
540.000, 4436.379
540.482, 4510.824
540.964, 4613.686
541.446, 4696.744
541.928, 4754.124
542.411, 4802.088
542.893, 4848.222
543.375, 4898.103
543.857, 4962.687
544.339, 5057.122
544.821, 5154.085
545.303, 5227.653
545.785, 5286.553
546.268, 5363.343
546.750, 5488.382
547.232, 5620.320
547.714, 5740.353
548.196, 5844.700
548.678, 5939.573
549.160, 6026.990
549.642, 6103.593
550.124, 6164.702
550.606, 6200.020
551.089, 6244.460
551.571, 6313.551
552.053, 6387.478
552.535, 6411.375
553.017, 6381.703
553.499, 6327.700
553.981, 6258.816
554.463, 6175.912
554.945, 6084.638
555.428, 5984.865
555.910, 5869.504
556.392, 5719.710
556.874, 5552.596
557.356, 5400.126
557.838, 5270.501
558.320, 5152.077
558.802, 5034.936
559.284, 4923.201
559.767, 4821.612
560.249, 4735.358
560.731, 4657.977
561.213, 4584.208
561.695, 4515.294
562.177, 4462.782
562.659, 4445.146
563.141, 4430.102
563.624, 4401.265
564.106, 4348.875
564.588, 4311.917
565.070, 4296.710
565.552, 4289.532
566.034, 4271.223
566.516, 4239.932
566.998, 4215.423
567.481, 4203.832
567.963, 4200.315
568.445, 4193.288
568.927, 4183.386
569.409, 4176.113
569.891, 4181.521
570.373, 4188.967
570.855, 4175.477
571.338, 4139.316
571.820, 4115.314
572.302, 4142.671
572.784, 4185.934
573.266, 4208.566
573.748, 4188.998
574.230, 4167.813
574.712, 4152.433
575.194, 4144.061
575.677, 4145.412
576.159, 4170.869
576.641, 4188.771
577.123, 4189.394
577.605, 4174.386
578.087, 4169.007
578.569, 4177.558
579.051, 4185.899
579.533, 4182.306
580.016, 4166.905
580.498, 4161.550
580.980, 4167.707
581.462, 4181.553
581.944, 4207.039
582.426, 4237.717
582.908, 4249.747
583.390, 4222.392
583.872, 4192.639
584.355, 4203.970
584.837, 4244.069
585.319, 4278.810
585.801, 4281.361
586.283, 4281.912
586.765, 4303.125
587.247, 4348.380
587.729, 4377.072
588.211, 4364.631
588.694, 4344.845
589.176, 4339.913
589.658, 4362.370
590.140, 4374.670
590.622, 4371.898
591.104, 4363.230
591.586, 4363.167
592.068, 4372.628
592.551, 4384.542
593.033, 4400.751
593.515, 4415.444
593.997, 4405.772
594.479, 4374.455
594.961, 4352.594
595.443, 4368.439
595.925, 4401.185
596.407, 4424.189
596.890, 4435.643
597.372, 4437.783
597.854, 4425.500
598.336, 4408.028
598.818, 4393.992
599.300, 4384.769
599.782, 4380.355
600.265, 4383.391
600.747, 4390.744
601.229, 4396.449
601.711, 4399.780
602.193, 4402.344
602.675, 4403.858
603.157, 4404.741
603.639, 4408.266
604.121, 4415.208
604.604, 4421.287
605.086, 4423.708
605.568, 4422.882
606.050, 4422.867
606.532, 4424.328
607.014, 4421.021
607.496, 4397.512
607.978, 4366.803
608.460, 4354.681
608.943, 4376.694
609.425, 4399.447
609.907, 4398.147
610.389, 4382.463
610.871, 4370.444
611.353, 4377.246
611.835, 4378.757
612.317, 4361.537
612.799, 4328.013
613.282, 4310.285
613.764, 4318.824
614.246, 4329.240
614.728, 4329.618
615.210, 4318.437
615.692, 4311.814
616.174, 4310.617
616.656, 4311.227
617.138, 4310.764
617.621, 4309.099
618.103, 4303.575
618.585, 4290.771
619.067, 4281.960
619.549, 4296.233
620.031, 4324.531
620.513, 4347.160
620.995, 4354.228
621.477, 4353.527
621.960, 4345.156
622.442, 4331.247
622.924, 4322.658
623.406, 4326.857
623.888, 4332.795
624.370, 4335.791
624.852, 4335.277
625.334, 4334.839
625.817, 4335.792
626.299, 4334.951
626.781, 4326.738
627.263, 4309.603
627.745, 4305.496
628.227, 4319.438
628.709, 4339.851
629.191, 4349.685
629.674, 4351.106
630.156, 4352.730
630.638, 4358.028
631.120, 4364.640
631.602, 4372.498
632.084, 4380.128
632.566, 4382.577
633.048, 4373.360
633.531, 4361.840
634.013, 4352.479
634.495, 4345.453
634.977, 4341.184
635.459, 4339.532
635.941, 4340.739
636.423, 4345.914
636.905, 4358.363
637.387, 4363.296
637.870, 4356.759
638.352, 4349.504
638.834, 4359.089
639.316, 4383.837
639.798, 4399.664
640.280, 4399.947
640.762, 4390.715
641.244, 4376.422
641.726, 4359.427
642.209, 4346.805
642.691, 4342.986
643.173, 4344.015
643.655, 4350.303
644.137, 4360.609
644.619, 4365.778
645.101, 4353.027
645.583, 4342.580
646.065, 4345.956
646.548, 4366.700
647.030, 4385.935
647.512, 4406.398
647.994, 4421.654
648.476, 4423.968
648.958, 4411.616
649.440, 4401.843
649.922, 4395.796
650.404, 4394.452
650.887, 4399.307
651.369, 4410.146
651.851, 4427.513
652.333, 4462.889
652.815, 4491.911
653.297, 4480.360
653.779, 4441.664
654.261, 4413.801
654.744, 4420.673
655.226, 4435.203
655.708, 4448.198
656.190, 4459.136
656.672, 4462.161
657.154, 4445.854
657.636, 4434.806
658.118, 4443.791
658.601, 4478.397
659.083, 4503.623
659.565, 4519.790
660.047, 4525.436
660.529, 4509.036
661.011, 4477.380
661.493, 4470.537
661.975, 4502.918
662.458, 4539.495
662.940, 4538.482
663.422, 4514.396
663.904, 4494.569
664.386, 4490.753
664.868, 4492.998
665.350, 4501.183
665.832, 4512.601
666.314, 4518.013
666.797, 4505.182
667.279, 4497.609
667.761, 4503.889
668.243, 4523.376
668.725, 4535.969
669.207, 4541.494
669.689, 4539.336
670.171, 4522.968
670.653, 4495.907
671.135, 4486.213
671.618, 4496.435
672.100, 4508.635
672.582, 4508.294
673.064, 4498.225
673.546, 4481.011
674.028, 4453.776
674.510, 4429.800
674.992, 4412.388
675.474, 4403.990
675.957, 4408.013
676.439, 4447.176
676.921, 4471.713
677.403, 4466.295
677.885, 4443.981
678.367, 4442.517
678.849, 4469.256
679.331, 4491.563
679.814, 4496.264
680.296, 4487.941
680.778, 4483.377
681.260, 4482.280
681.742, 4483.172
682.224, 4484.564
682.706, 4487.392
683.188, 4495.263
683.670, 4508.318
684.153, 4516.403
684.635, 4514.481
685.117, 4505.042
685.599, 4487.586
686.081, 4450.932
686.563, 4433.188
687.045, 4446.021
687.528, 4470.810
688.010, 4490.740
688.492, 4506.854
688.974, 4511.476
689.456, 4499.252
689.938, 4482.955
690.420, 4488.338
690.902, 4511.342
691.384, 4527.128
691.867, 4520.931
692.349, 4509.509
692.831, 4513.984
693.313, 4528.902
693.795, 4538.266
694.277, 4532.863
694.759, 4522.016
695.241, 4506.623
695.723, 4487.231
696.206, 4475.626
696.688, 4474.328
697.170, 4477.981
697.652, 4485.944
698.134, 4498.848
698.616, 4505.997
699.098, 4506.646
699.580, 4505.645
700.062, 4505.226
700.545, 4506.631
701.027, 4516.670
701.509, 4538.107
701.991, 4553.995
702.473, 4541.524
702.955, 4518.171
703.437, 4506.388
703.919, 4521.581
704.402, 4533.677
704.884, 4532.657
705.366, 4523.905
705.848, 4515.825
706.330, 4505.803
706.812, 4501.804
707.294, 4505.745
707.776, 4516.007
708.258, 4530.225
708.741, 4548.590
709.223, 4565.203
709.705, 4582.354
710.187, 4593.252
710.669, 4576.617
711.151, 4539.275
711.633, 4513.117
712.115, 4523.277
712.597, 4545.455
713.080, 4566.051
713.562, 4584.127
714.044, 4598.220
714.526, 4609.051
715.008, 4614.811
715.490, 4613.752
715.972, 4604.619
716.455, 4593.783
716.937, 4578.252
717.419, 4569.001
717.901, 4582.688
718.383, 4613.262
718.865, 4628.843
719.347, 4623.588
719.829, 4614.034
720.311, 4613.720
720.794, 4620.089
721.276, 4630.411
721.758, 4650.454
722.240, 4663.353
722.722, 4657.730
723.204, 4642.727
723.686, 4633.056
724.168, 4628.192
724.651, 4631.200
725.133, 4647.056
725.615, 4668.000
726.097, 4671.858
726.579, 4657.986
727.061, 4645.540
727.543, 4643.217
728.025, 4645.333
728.507, 4641.147
728.990, 4632.211
729.472, 4625.009
729.954, 4624.610
730.436, 4625.964
730.918, 4626.351
731.400, 4625.669
731.882, 4624.122
732.364, 4621.359
732.846, 4618.116
733.328, 4614.806
733.811, 4611.486
734.293, 4605.003
734.775, 4593.329
735.257, 4586.187
735.739, 4596.190
736.221, 4617.342
736.703, 4626.646
737.185, 4621.892
737.667, 4614.602
738.150, 4613.086
738.632, 4615.075
739.114, 4618.671
739.596, 4624.819
740.078, 4629.259
740.560, 4623.806
741.042, 4620.241
741.524, 4631.985
742.007, 4671.328
742.489, 4697.210
742.971, 4704.954
743.453, 4700.841
743.935, 4690.800
744.417, 4675.656
744.899, 4664.064
745.381, 4656.709
745.864, 4656.778
746.346, 4673.087
746.828, 4699.298
747.310, 4721.751
747.792, 4745.348
748.274, 4753.415
748.756, 4722.566
749.238, 4693.867
749.721, 4732.527
750.203, 4754.836
750.685, 4761.674
751.167, 4706.698
751.649, 4731.541
752.131, 4724.396
752.613, 4715.940
753.095, 4752.017
753.577, 4706.032
754.060, 4741.402
754.542, 4744.297
755.024, 4762.056
755.506, 4747.629
755.988, 4743.143
756.470, 4770.853
756.952, 4744.927
757.434, 4710.696
757.916, 4697.296
758.399, 4722.833
758.881, 4748.859
759.363, 4752.466
759.845, 4731.629
760.327, 4730.854
760.809, 4753.762
761.291, 4772.914
761.773, 4757.487
762.255, 4722.750
762.738, 4696.702
763.220, 4682.504
763.702, 4679.312
764.184, 4692.391
764.666, 4712.913
765.148, 4734.123
765.630, 4761.473
766.112, 4773.354
766.594, 4755.722
767.077, 4734.499
767.559, 4738.147
768.041, 4771.728
768.523, 4790.136
769.005, 4786.189
769.487, 4774.423
769.969, 4775.265
770.451, 4782.791
770.934, 4780.387
771.416, 4758.381
771.898, 4738.142
772.380, 4735.969
772.862, 4744.293
773.344, 4752.292
773.826, 4755.420
774.308, 4761.924
774.791, 4779.261
775.273, 4796.741
775.755, 4792.027
776.237, 4761.527
776.719, 4734.213
777.201, 4716.215
777.683, 4706.063
778.165, 4703.071
778.648, 4705.730
779.130, 4709.358
779.612, 4706.642
780.094, 4709.191
780.576, 4732.037
781.058, 4765.971
781.540, 4786.304
782.022, 4777.308
782.504, 4765.977
782.987, 4754.411
783.469, 4744.717
783.951, 4748.479
784.433, 4767.573
784.915, 4781.609
785.397, 4777.482
785.879, 4766.030
786.361, 4775.025
786.843, 4798.549
787.326, 4809.615
787.808, 4771.915
788.290, 4736.303
788.772, 4742.327
789.254, 4785.634
789.736, 4811.247
790.218, 4800.032
790.700, 4788.506
791.182, 4789.661
791.665, 4801.875
792.147, 4808.231
792.629, 4808.233
793.111, 4807.509
793.593, 4809.897
794.075, 4813.670
794.557, 4812.849
795.039, 4808.564
795.521, 4812.223
796.004, 4845.711
796.486, 4876.348
796.968, 4881.690
797.450, 4857.624
797.932, 4834.675
798.414, 4805.866
798.896, 4791.024
799.378, 4809.816
799.860, 4859.588
800.343, 4870.897
800.825, 4842.236
801.307, 4813.032
801.789, 4818.999
802.271, 4841.541
802.753, 4855.929
803.235, 4859.804
803.718, 4859.575
804.200, 4851.990
804.682, 4845.827
805.164, 4850.041
805.646, 4869.806
806.128, 4870.710
806.610, 4843.128
807.092, 4816.765
807.574, 4818.487
808.057, 4843.070
808.539, 4851.438
809.021, 4841.319
809.503, 4831.008
809.985, 4838.909
810.467, 4853.729
810.949, 4864.135
811.431, 4869.058
811.914, 4866.629
812.396, 4839.210
812.878, 4817.939
813.360, 4828.027
813.842, 4885.877
814.324, 4903.040
814.806, 4870.132
815.288, 4827.158
815.770, 4812.321
816.253, 4817.816
816.735, 4819.728
817.217, 4814.834
817.699, 4816.000
818.181, 4848.293
818.663, 4881.922
819.145, 4886.676
819.627, 4843.373
820.109, 4813.931
820.592, 4806.173
821.074, 4809.598
821.556, 4819.176
822.038, 4836.204
822.520, 4843.242
823.002, 4838.320
823.484, 4831.417
823.966, 4833.225
824.448, 4839.777
824.931, 4843.889
825.413, 4843.616
825.895, 4845.001
826.377, 4858.127
826.859, 4869.580
827.341, 4864.188
827.823, 4825.526
828.305, 4817.230
828.787, 4849.793
829.270, 4892.699
829.752, 4923.936
830.234, 4942.068
830.716, 4932.823
831.198, 4891.692
831.680, 4857.536
832.162, 4876.066
832.644, 4914.241
833.127, 4934.006
833.609, 4923.932
834.091, 4913.571
834.573, 4913.529
835.055, 4912.417
835.537, 4900.873
836.019, 4874.795
836.501, 4858.414
836.984, 4851.949
837.466, 4854.936
837.948, 4871.755
838.430, 4896.418
838.912, 4918.168
839.394, 4935.930
839.876, 4945.600
840.358, 4939.540
840.841, 4927.697
841.323, 4917.603
841.805, 4909.461
842.287, 4905.131
842.769, 4905.350
843.251, 4908.038
843.733, 4912.071
844.215, 4917.282
844.697, 4922.329
845.180, 4927.163
845.662, 4931.180
846.144, 4936.834
846.626, 4939.737
847.108, 4930.902
847.590, 4906.220
848.072, 4894.186
848.554, 4921.411
849.036, 4947.538
849.519, 4947.403
850.001, 4916.067
850.483, 4903.508
850.965, 4912.115
851.447, 4927.479
851.929, 4943.849
852.411, 4957.005
852.893, 4955.454
853.375, 4939.101
853.858, 4923.052
854.340, 4916.742
854.822, 4913.531
855.304, 4906.477
855.786, 4892.941
856.268, 4898.916
856.750, 4937.012
857.232, 4968.348
857.714, 4963.722
858.197, 4930.798
858.679, 4919.018
859.161, 4927.610
859.643, 4940.798
860.125, 4952.268
860.607, 4959.446
861.089, 4957.399
861.571, 4946.643
862.054, 4938.917
862.536, 4937.398
863.018, 4939.323
863.500, 4945.110
863.982, 4954.172
864.464, 4959.309
864.946, 4960.391
865.428, 4961.267
865.911, 4968.349
866.393, 4974.371
866.875, 4961.477
867.357, 4935.330
867.839, 4921.285
868.321, 4940.834
868.803, 4964.356
869.285, 4982.989
869.767, 4995.868
870.250, 4997.565
870.732, 4984.725
871.214, 4972.390
871.696, 4964.422
872.178, 4961.609
872.660, 4968.520
873.142, 4982.677
873.624, 4995.276
874.106, 5003.835
874.589, 5007.428
875.071, 5001.556
875.553, 4990.241
876.035, 4984.180
876.517, 4984.288
876.999, 4988.495
877.481, 4996.457
877.963, 5008.237
878.445, 5027.585
878.928, 5052.690
879.410, 5069.350
879.892, 5071.247
880.374, 5067.991
880.856, 5066.690
881.338, 5066.747
881.820, 5067.206
882.302, 5075.651
882.784, 5072.752
883.267, 5048.424
883.749, 5020.314
884.231, 5012.362
884.713, 5024.944
885.195, 5043.409
885.677, 5067.058
886.159, 5088.784
886.641, 5097.542
887.124, 5100.158
887.606, 5108.290
888.088, 5130.501
888.570, 5140.557
889.052, 5116.240
889.534, 5087.539
890.016, 5077.460
890.498, 5089.301
890.981, 5105.424
891.463, 5126.618
891.945, 5146.861
892.427, 5163.976
892.909, 5174.677
893.391, 5165.822
893.873, 5135.179
894.355, 5118.675
894.838, 5156.144
895.320, 5195.050
895.802, 5195.677
896.284, 5154.476
896.766, 5140.037
897.248, 5161.676
897.730, 5178.812
898.212, 5153.830
898.694, 5107.424
899.177, 5107.403
899.659, 5146.417
900.141, 5175.854
900.623, 5152.188
901.105, 5125.968
901.587, 5131.384
902.069, 5164.472
902.551, 5181.178
903.033, 5175.145
903.516, 5165.723
903.998, 5155.539
904.480, 5148.537
904.962, 5157.652
905.444, 5180.095
905.926, 5203.539
906.408, 5223.470
906.890, 5241.319
907.372, 5258.359
907.855, 5273.719
908.337, 5284.907
908.819, 5281.497
909.301, 5293.750
909.783, 5332.380
910.265, 5378.114
910.747, 5393.696
911.229, 5385.905
911.711, 5396.102
912.194, 5438.382
912.676, 5482.500
913.158, 5498.803
913.640, 5503.434
914.122, 5513.843
914.604, 5532.721
915.086, 5559.964
915.568, 5600.119
916.051, 5641.824
916.533, 5674.086
917.015, 5697.823
917.497, 5727.326
917.979, 5763.692
918.461, 5796.502
918.943, 5813.330
919.425, 5825.333
919.907, 5841.212
920.390, 5861.804
920.872, 5891.816
921.354, 5943.394
921.836, 5988.451
922.318, 6014.146
922.800, 6022.721
923.282, 6031.494
923.764, 6040.056
924.247, 6042.107
924.729, 6021.925
925.211, 6003.072
925.693, 6019.930
926.175, 6058.563
926.657, 6073.090
927.139, 6029.748
927.621, 5987.368
928.104, 5954.037
928.586, 5930.652
929.068, 5929.525
929.550, 5948.119
930.032, 5938.880
930.514, 5878.995
930.996, 5811.513
931.478, 5783.319
931.960, 5775.853
932.443, 5761.116
932.925, 5720.628
933.407, 5692.820
933.889, 5687.094
934.371, 5687.086
934.853, 5677.017
935.335, 5656.911
935.817, 5632.378
936.299, 5602.602
936.782, 5580.260
937.264, 5586.941
937.746, 5600.005
938.228, 5591.285
938.710, 5554.510
939.192, 5533.742
939.674, 5548.112
940.156, 5563.068
940.638, 5562.537
941.121, 5548.929
941.603, 5540.162
942.085, 5535.867
942.567, 5527.793
943.049, 5502.823
943.531, 5478.846
944.013, 5478.471
944.495, 5493.379
944.977, 5497.056
945.460, 5470.620
945.942, 5450.372
946.424, 5442.540
946.906, 5443.557
947.388, 5449.419
947.870, 5458.914
948.352, 5460.845
948.834, 5449.309
949.317, 5438.826
949.799, 5448.113
950.281, 5463.285
950.763, 5466.390
951.245, 5442.752
951.727, 5429.165
952.209, 5426.859
952.691, 5433.559
953.174, 5452.930
953.656, 5481.493
954.138, 5494.132
954.620, 5489.945
955.102, 5480.788
955.584, 5471.227
956.066, 5463.195
956.548, 5456.282
957.031, 5450.974
957.513, 5457.617
957.995, 5486.469
958.477, 5504.042
958.959, 5489.912
959.441, 5462.365
959.923, 5483.733
960.405, 5541.427
960.887, 5582.272
961.370, 5568.152
961.852, 5546.093
962.334, 5535.850
962.816, 5537.567
963.298, 5553.642
963.780, 5594.969
964.262, 5619.109
964.744, 5618.580
965.226, 5608.672
965.709, 5606.881
966.191, 5611.358
966.673, 5617.668
967.155, 5625.096
967.637, 5635.167
968.119, 5657.938
968.601, 5676.292
969.083, 5673.667
969.565, 5647.881
970.048, 5643.616
970.530, 5664.451
971.012, 5688.075
971.494, 5703.771
971.976, 5711.823
972.458, 5703.757
972.940, 5686.786
973.422, 5687.414
973.904, 5733.870
974.387, 5780.189
974.869, 5804.166
975.351, 5822.201
975.833, 5875.210
976.315, 5968.193
976.797, 6034.287
977.279, 6055.948
977.761, 6057.203
978.244, 6051.404
978.726, 6048.652
979.208, 6065.233
979.690, 6112.242
980.172, 6155.324
980.654, 6181.418
981.136, 6209.714
981.618, 6253.521
982.101, 6312.441
982.583, 6370.479
983.065, 6428.399
983.547, 6496.347
984.029, 6594.189
984.511, 6694.923
984.993, 6767.959
985.475, 6820.858
985.957, 6901.808
986.440, 7031.973
986.922, 7156.037
987.404, 7256.253
987.886, 7350.505
988.368, 7475.322
988.850, 7626.018
989.332, 7783.640
989.814, 7941.501
990.296, 8108.797
990.779, 8291.216
991.261, 8485.075
991.743, 8684.021
992.225, 8888.123
992.707, 9097.338
993.189, 9311.845
993.671, 9533.401
994.153, 9761.066
994.635, 10000.330
995.118, 10271.150
995.600, 10569.050
996.082, 10858.600
996.564, 11117.270
997.046, 11376.040
997.528, 11651.570
998.010, 11933.730
998.492, 12187.540
998.974, 12411.080
999.457, 12624.040
999.939, 12844.930
1000.421, 13031.770
1000.903, 13138.260
1001.385, 13181.040
1001.867, 13185.950
1002.349, 13179.750
1002.831, 13086.670
1003.314, 12893.700
1003.796, 12633.810
1004.278, 12315.570
1004.760, 11948.650
1005.242, 11586.690
1005.724, 11233.320
1006.206, 10863.490
1006.688, 10446.930
1007.171, 10031.660
1007.653, 9635.518
1008.135, 9268.774
1008.617, 8950.106
1009.099, 8694.501
1009.581, 8447.388
1010.063, 8186.750
1010.545, 7936.304
1011.027, 7738.390
1011.510, 7575.548
1011.992, 7411.751
1012.474, 7229.044
1012.956, 7063.217
1013.438, 6927.705
1013.920, 6812.795
1014.402, 6712.773
1014.884, 6628.141
1015.367, 6550.668
1015.849, 6480.601
1016.331, 6420.087
1016.813, 6375.332
1017.295, 6337.561
1017.777, 6299.130
1018.259, 6259.736
1018.741, 6220.108
1019.223, 6175.711
1019.706, 6138.849
1020.188, 6112.899
1020.670, 6095.339
1021.152, 6085.383
1021.634, 6080.088
1022.116, 6066.311
1022.598, 6038.688
1023.080, 6009.856
1023.563, 5983.736
1024.045, 5962.889
1024.527, 5949.763
1025.009, 5944.666
1025.491, 5943.075
1025.973, 5945.511
1026.455, 5947.821
1026.937, 5950.598
1027.419, 5949.566
1027.901, 5932.396
1028.384, 5904.324
1028.866, 5884.745
1029.348, 5893.511
1029.830, 5893.764
1030.312, 5870.067
1030.794, 5841.930
1031.276, 5851.406
1031.758, 5893.224
1032.241, 5904.903
1032.723, 5872.963
1033.205, 5833.072
1033.687, 5805.654
1034.169, 5790.178
1034.651, 5789.751
1035.133, 5806.752
1035.615, 5817.507
1036.098, 5820.347
1036.580, 5820.926
1037.062, 5818.259
1037.544, 5817.730
1038.026, 5837.784
1038.508, 5869.743
1038.990, 5890.082
1039.472, 5880.681
1039.954, 5868.188
1040.437, 5857.323
1040.919, 5848.329
1041.401, 5840.413
1041.883, 5833.780
1042.365, 5835.618
1042.847, 5846.987
1043.329, 5862.177
1043.811, 5887.079
1044.293, 5905.757
1044.776, 5901.089
1045.258, 5872.596
1045.740, 5846.275
1046.222, 5820.115
1046.704, 5804.543
1047.186, 5804.633
1047.668, 5815.061
1048.150, 5829.904
1048.633, 5846.284
1049.115, 5855.793
1049.597, 5848.684
1050.079, 5849.779
1050.561, 5882.236
1051.043, 5914.499
1051.525, 5919.151
1052.007, 5894.436
1052.490, 5879.596
1052.972, 5874.674
1053.454, 5879.090
1053.936, 5900.464
1054.418, 5924.018
1054.900, 5933.911
1055.382, 5934.458
1055.864, 5945.499
1056.346, 5979.783
1056.828, 5991.034
1057.311, 5962.643
1057.793, 5929.342
1058.275, 5955.691
1058.757, 6011.091
1059.239, 6028.269
1059.721, 5989.983
1060.203, 5956.927
1060.685, 5953.147
1061.168, 5961.292
1061.650, 5974.991
1062.132, 5993.477
1062.614, 6010.304
1063.096, 6025.461
1063.578, 6037.259
1064.060, 6046.178
1064.542, 6049.586
1065.025, 6036.491
1065.507, 6019.465
1065.989, 6021.540
1066.471, 6054.597
1066.953, 6072.411
1067.435, 6068.482
1067.917, 6068.115
1068.399, 6104.581
1068.881, 6155.960
1069.364, 6186.657
1069.846, 6195.532
1070.328, 6195.498
1070.810, 6175.696
1071.292, 6167.026
1071.774, 6179.712
1072.256, 6205.866
1072.738, 6231.659
1073.220, 6255.696
1073.703, 6265.951
1074.185, 6255.905
1074.667, 6248.599
1075.149, 6265.220
1075.631, 6287.546
1076.113, 6298.774
1076.595, 6297.891
1077.077, 6303.330
1077.559, 6315.879
1078.042, 6329.796
1078.524, 6342.346
1079.006, 6354.619
1079.488, 6369.019
1079.970, 6383.926
1080.452, 6396.040
1080.934, 6393.940
1081.416, 6406.117
1081.899, 6438.553
1082.381, 6476.198
1082.863, 6505.620
1083.345, 6526.469
1083.827, 6534.778
1084.309, 6531.088
1084.791, 6528.459
1085.273, 6528.732
1085.755, 6537.198
1086.238, 6560.778
1086.720, 6591.531
1087.202, 6608.031
1087.684, 6610.683
1088.166, 6611.761
1088.648, 6615.281
1089.130, 6613.880
1089.612, 6590.246
1090.094, 6565.433
1090.577, 6564.104
1091.059, 6592.867
1091.541, 6610.615
1092.023, 6616.236
1092.505, 6615.025
1092.987, 6605.090
1093.469, 6594.361
1093.951, 6598.516
1094.434, 6611.610
1094.916, 6620.636
1095.398, 6629.885
1095.880, 6618.896
1096.362, 6574.059
1096.844, 6528.646
1097.326, 6518.059
1097.808, 6534.186
1098.291, 6546.675
1098.773, 6553.853
1099.255, 6553.976
1099.737, 6540.818
1100.219, 6526.483
1100.701, 6517.209
1101.183, 6510.433
1101.665, 6500.438
1102.147, 6487.194
1102.630, 6471.479
1103.112, 6452.601
1103.594, 6436.271
1104.076, 6429.296
1104.558, 6426.287
1105.040, 6423.340
1105.522, 6420.027
1106.004, 6412.017
1106.486, 6396.810
1106.969, 6387.088
1107.451, 6388.932
1107.933, 6397.644
1108.415, 6407.812
1108.897, 6419.147
1109.379, 6431.681
1109.861, 6453.231
1110.343, 6459.194
1110.826, 6444.144
1111.308, 6422.213
1111.790, 6398.319
1112.272, 6377.056
1112.754, 6381.865
1113.236, 6406.582
1113.718, 6419.836
1114.200, 6394.693
1114.682, 6369.353
1115.165, 6350.445
1115.647, 6341.877
1116.129, 6361.505
1116.611, 6405.143
1117.093, 6401.299
1117.575, 6341.445
1118.057, 6277.484
1118.539, 6243.458
1119.021, 6223.128
1119.504, 6208.303
1119.986, 6197.893
1120.468, 6190.303
1120.950, 6186.327
1121.432, 6179.121
1121.914, 6165.349
1122.396, 6153.672
1122.878, 6161.153
1123.361, 6172.395
1123.843, 6165.227
1124.325, 6128.790
1124.807, 6120.340
1125.289, 6153.536
1125.771, 6173.165
1126.253, 6140.950
1126.735, 6090.206
1127.218, 6086.086
1127.700, 6112.326
1128.182, 6134.240
1128.664, 6146.897
1129.146, 6139.252
1129.628, 6094.542
1130.110, 6057.054
1130.592, 6073.549
1131.074, 6127.261
1131.557, 6149.813
1132.039, 6144.857
1132.521, 6140.428
1133.003, 6160.400
1133.485, 6170.668
1133.967, 6153.072
1134.449, 6126.075
1134.931, 6118.512
1135.413, 6128.053
1135.896, 6120.094
1136.378, 6091.172
1136.860, 6061.382
1137.342, 6043.143
1137.824, 6030.989
1138.306, 6019.624
1138.788, 6011.448
1139.270, 6018.769
1139.752, 6042.541
1140.235, 6062.827
1140.717, 6073.896
1141.199, 6083.591
1141.681, 6111.122
1142.163, 6133.328
1142.645, 6119.748
1143.127, 6063.532
1143.609, 6027.122
1144.092, 6011.535
1144.574, 6009.130
1145.056, 6019.570
1145.538, 6037.359
1146.020, 6065.399
1146.502, 6092.163
1146.984, 6096.234
1147.466, 6055.854
1147.948, 6032.839
1148.431, 6030.208
1148.913, 6039.843
1149.395, 6063.817
1149.877, 6092.780
1150.359, 6105.313
1150.841, 6104.993
1151.323, 6103.006
1151.805, 6103.026
1152.287, 6100.391
1152.770, 6090.504
1153.252, 6083.968
1153.734, 6095.596
1154.216, 6119.286
1154.698, 6136.256
1155.180, 6145.406
1155.662, 6146.088
1156.144, 6127.010
1156.627, 6113.490
1157.109, 6113.870
1157.591, 6122.685
1158.073, 6132.124
1158.555, 6141.898
1159.037, 6150.641
1159.519, 6158.199
1160.001, 6163.931
1160.484, 6163.845
1160.966, 6165.714
1161.448, 6177.935
1161.930, 6193.847
1162.412, 6185.521
1162.894, 6155.872
1163.376, 6145.834
1163.858, 6169.318
1164.340, 6199.738
1164.823, 6222.602
1165.305, 6240.053
1165.787, 6255.826
1166.269, 6269.777
1166.751, 6266.952
1167.233, 6247.283
1167.715, 6233.283
1168.197, 6234.603
1168.679, 6244.364
1169.162, 6265.458
1169.644, 6286.301
1170.126, 6290.178
1170.608, 6273.479
1171.090, 6260.377
1171.572, 6250.632
1172.054, 6246.042
1172.536, 6250.990
1173.019, 6258.294
1173.501, 6264.772
1173.983, 6266.944
1174.465, 6255.372
1174.947, 6213.882
1175.429, 6209.483
1175.911, 6252.612
1176.393, 6288.757
1176.875, 6258.821
1177.358, 6205.703
1177.840, 6185.022
1178.322, 6188.182
1178.804, 6180.724
1179.286, 6149.377
1179.768, 6125.021
1180.250, 6109.315
1180.732, 6106.494
1181.214, 6133.660
1181.697, 6169.805
1182.179, 6183.192
1182.661, 6173.818
1183.143, 6162.303
1183.625, 6151.398
1184.107, 6139.900
1184.589, 6125.604
1185.071, 6115.095
1185.554, 6121.090
1186.036, 6136.059
1186.518, 6147.299
1187.000, 6153.157
1187.482, 6157.324
1187.964, 6164.335
1188.446, 6161.680
1188.928, 6139.444
1189.411, 6115.684
1189.893, 6135.227
1190.375, 6176.613
1190.857, 6190.514
1191.339, 6161.191
1191.821, 6141.116
1192.303, 6147.690
1192.785, 6155.259
1193.267, 6150.082
1193.750, 6142.064
1194.232, 6166.182
1194.714, 6206.896
1195.196, 6223.510
1195.678, 6193.392
1196.160, 6169.402
1196.642, 6166.270
1197.124, 6168.152
1197.606, 6168.743
1198.089, 6166.621
1198.571, 6154.830
1199.053, 6136.184
1199.535, 6119.113
1200.017, 6103.452
1200.499, 6096.561
1200.981, 6102.026
1201.463, 6113.546
1201.945, 6129.390
1202.428, 6147.319
1202.910, 6155.136
1203.392, 6155.082
1203.874, 6156.794
1204.356, 6173.728
1204.838, 6179.448
1205.320, 6159.785
1205.802, 6138.148
1206.285, 6139.887
1206.767, 6159.191
1207.249, 6171.740
1207.731, 6177.060
1208.213, 6177.156
1208.695, 6158.872
1209.177, 6156.083
1209.659, 6189.498
1210.141, 6225.676
1210.624, 6212.854
1211.106, 6166.583
1211.588, 6152.683
1212.070, 6172.895
1212.552, 6196.001
1213.034, 6211.605
1213.516, 6219.652
1213.998, 6218.801
1214.480, 6213.070
1214.963, 6205.902
1215.445, 6199.179
1215.927, 6204.825
1216.409, 6223.435
1216.891, 6230.220
1217.373, 6202.015
1217.855, 6172.682
1218.337, 6147.764
1218.820, 6133.846
1219.302, 6154.260
1219.784, 6196.558
1220.266, 6213.318
1220.748, 6196.634
1221.230, 6181.695
1221.712, 6185.860
1222.194, 6193.479
1222.677, 6198.989
1223.159, 6204.214
1223.641, 6216.646
1224.123, 6232.063
1224.605, 6236.757
1225.087, 6226.725
1225.569, 6215.672
1226.051, 6204.215
1226.533, 6199.179
1227.016, 6204.355
1227.498, 6216.629
1227.980, 6230.663
1228.462, 6244.888
1228.944, 6255.192
1229.426, 6260.931
1229.908, 6261.093
1230.390, 6252.173
1230.872, 6241.218
1231.355, 6226.667
1231.837, 6216.280
1232.319, 6239.694
1232.801, 6283.721
1233.283, 6315.010
1233.765, 6322.058
1234.247, 6322.819
1234.729, 6319.661
1235.212, 6313.593
1235.694, 6302.295
1236.176, 6290.412
1236.658, 6292.572
1237.140, 6303.771
1237.622, 6312.677
1238.104, 6316.493
1238.586, 6314.038
1239.068, 6298.864
1239.551, 6292.564
1240.033, 6318.901
1240.515, 6355.233
1240.997, 6339.179
1241.479, 6293.890
1241.961, 6273.076
1242.443, 6316.302
1242.925, 6335.464
1243.407, 6318.771
1243.890, 6298.529
1244.372, 6296.000
1244.854, 6304.604
1245.336, 6314.050
1245.818, 6324.271
1246.300, 6335.022
1246.782, 6348.280
1247.264, 6357.044
1247.747, 6359.579
1248.229, 6362.786
1248.711, 6383.021
1249.193, 6398.875
1249.675, 6366.081
1250.157, 6307.485
1250.639, 6276.908
1251.121, 6294.842
1251.604, 6309.671
1252.086, 6320.598
1252.568, 6327.592
1253.050, 6324.725
1253.532, 6322.949
1254.014, 6341.328
1254.496, 6368.923
1254.978, 6377.236
1255.460, 6354.808
1255.943, 6355.836
1256.425, 6385.218
1256.907, 6409.641
1257.389, 6395.215
1257.871, 6372.577
1258.353, 6372.329
1258.835, 6382.817
1259.317, 6373.444
1259.799, 6337.286
1260.281, 6332.853
1260.764, 6364.146
1261.246, 6392.293
1261.728, 6381.042
1262.210, 6364.898
1262.692, 6369.259
1263.174, 6384.100
1263.656, 6392.119
1264.138, 6393.583
1264.621, 6389.751
1265.103, 6380.971
1265.585, 6370.830
1266.067, 6362.172
1266.549, 6352.351
1267.031, 6331.630
1267.513, 6314.833
1267.995, 6326.923
1268.478, 6363.624
1268.960, 6396.953
1269.442, 6424.210
1269.924, 6441.483
1270.406, 6425.826
1270.888, 6428.093
1271.370, 6472.466
1271.852, 6528.486
1272.334, 6554.332
1272.817, 6555.832
1273.299, 6549.878
1273.781, 6538.917
1274.263, 6531.009
1274.745, 6533.219
1275.227, 6534.415
1275.709, 6533.011
1276.191, 6529.558
1276.673, 6531.604
1277.156, 6529.497
1277.638, 6490.374
1278.120, 6421.262
1278.602, 6386.594
1279.084, 6417.869
1279.566, 6450.997
1280.048, 6480.062
1280.530, 6499.724
1281.013, 6493.792
1281.495, 6481.666
1281.977, 6492.238
1282.459, 6522.663
1282.941, 6545.355
1283.423, 6559.716
1283.905, 6559.104
1284.387, 6540.136
1284.870, 6520.474
1285.352, 6513.527
1285.834, 6517.342
1286.316, 6540.043
1286.798, 6571.892
1287.280, 6577.093
1287.762, 6553.244
1288.244, 6530.378
1288.726, 6512.162
1289.208, 6504.731
1289.691, 6528.228
1290.173, 6549.214
1290.655, 6540.523
1291.137, 6516.600
1291.619, 6500.995
1292.101, 6493.148
1292.583, 6492.647
1293.065, 6500.847
1293.548, 6517.324
1294.030, 6557.095
1294.512, 6583.507
1294.994, 6579.748
1295.476, 6562.645
1295.958, 6557.060
1296.440, 6559.763
1296.922, 6569.571
1297.405, 6595.987
1297.887, 6608.958
1298.369, 6536.316
1298.851, 6502.840
1299.333, 6539.233
1299.815, 6595.025
1300.297, 6620.219
1300.779, 6614.810
##END=



