##NAMES=Paravinogradovite
##RRUFFID=R060834
##IDEAL CHEMISTRY=(Na,[box])_2_(Ti^4+^,Fe^3+^)_4_(Si_2_O_6_)_2_(Si_3_AlO_10_)(OH)_4_&#183;H_2_O
##LOCALITY=Kukisvumchorr Mountain, Khibiny Massif, Kola Peninsula, Russia
##OWNER=RRUFF
##SOURCE=Michael Scott
##DESCRIPTION=Aggregates of parallel tan colored acicular crystals associated with zircon
##STATUS=The identification of this mineral is confirmed by single-crystal X-ray diffraction and chemical analysis.
##URL=rruff.info/R060834
##MEASURED CHEMISTRY=(Na_2.13_K_0.14_)_2.27_(Ti^4+^_3.47_Fe^2+^_0.46_Nb^5+^_0.04_Mg_0.03_)_Σ=4_(Si_2.00_O_6_)_2_((Si_2.67_Al_1.17_B_0.16_)_Σ=4_O_10_)(OH)_4_·H_2_O; B and OH by difference and charge balance; Fe^2+^ by charge balance;
159.1325, 6984.736
159.6146, 7033.143
160.0968, 7080.555
160.5789, 7123.452
161.0610, 7167.235
161.5431, 7219.532
162.0252, 7280.301
162.5073, 7337.031
162.9895, 7374.535
163.4716, 7388.139
163.9537, 7412.427
164.4358, 7460.488
164.9179, 7512.754
165.4000, 7549.862
165.8822, 7568.825
166.3643, 7582.909
166.8464, 7606.490
167.3285, 7640.672
167.8106, 7671.345
168.2927, 7699.100
168.7749, 7721.818
169.2570, 7740.259
169.7391, 7755.084
170.2212, 7757.212
170.7033, 7727.488
171.1854, 7664.771
171.6676, 7622.126
172.1497, 7638.729
172.6318, 7666.886
173.1139, 7641.188
173.5960, 7545.900
174.0781, 7435.249
174.5603, 7370.556
175.0424, 7349.166
175.5245, 7329.521
176.0066, 7308.162
176.4887, 7282.175
176.9708, 7244.771
177.4530, 7192.583
177.9351, 7139.104
178.4172, 7101.003
178.8993, 7076.165
179.3814, 7050.688
179.8635, 7020.705
180.3457, 6988.070
180.8278, 6954.521
181.3099, 6919.835
181.7920, 6886.340
182.2741, 6853.333
182.7562, 6821.067
183.2384, 6802.035
183.7205, 6810.954
184.2026, 6832.217
184.6847, 6840.859
185.1668, 6831.945
185.6489, 6814.778
186.1311, 6797.160
186.6132, 6779.045
187.0953, 6758.969
187.5774, 6734.272
188.0595, 6707.821
188.5416, 6684.674
189.0238, 6665.678
189.5059, 6649.065
189.9880, 6632.258
190.4701, 6615.698
190.9522, 6603.470
191.4343, 6596.953
191.9165, 6595.570
192.3986, 6601.426
192.8807, 6618.377
193.3628, 6631.151
193.8449, 6616.328
194.3270, 6582.121
194.8092, 6560.517
195.2913, 6573.261
195.7734, 6601.855
196.2555, 6615.104
196.7376, 6608.718
197.2197, 6592.687
197.7019, 6566.828
198.1840, 6535.679
198.6661, 6517.786
199.1482, 6527.756
199.6303, 6551.555
200.1124, 6566.150
200.5946, 6567.991
201.0767, 6568.293
201.5588, 6580.000
202.0409, 6598.297
202.5230, 6609.723
203.0051, 6605.408
203.4873, 6593.736
203.9694, 6586.850
204.4515, 6586.042
204.9336, 6586.801
205.4157, 6583.756
205.8978, 6579.245
206.3800, 6580.244
206.8621, 6591.134
207.3442, 6607.315
207.8263, 6622.586
208.3084, 6636.424
208.7905, 6651.297
209.2727, 6667.737
209.7548, 6686.496
210.2369, 6710.077
210.7190, 6741.514
211.2011, 6776.620
211.6832, 6811.412
212.1654, 6845.902
212.6475, 6877.989
213.1296, 6902.021
213.6117, 6922.924
214.0938, 6952.381
214.5760, 7002.282
215.0581, 7054.621
215.5402, 7086.960
216.0223, 7098.419
216.5044, 7116.672
216.9865, 7160.761
217.4687, 7223.382
217.9508, 7286.290
218.4329, 7351.453
218.9150, 7412.850
219.3971, 7464.235
219.8792, 7506.163
220.3614, 7544.810
220.8435, 7581.296
221.3256, 7617.554
221.8077, 7658.622
222.2898, 7712.185
222.7719, 7761.456
223.2541, 7785.721
223.7362, 7789.851
224.2183, 7809.482
224.7004, 7868.011
225.1825, 7948.140
225.6646, 8007.311
226.1468, 8036.761
226.6289, 8061.328
227.1110, 8092.503
227.5931, 8129.843
228.0752, 8173.443
228.5573, 8227.315
229.0395, 8282.618
229.5216, 8320.323
230.0037, 8333.585
230.4858, 8347.920
230.9679, 8376.665
231.4500, 8415.012
231.9322, 8448.736
232.4143, 8469.749
232.8964, 8490.397
233.3785, 8537.682
233.8606, 8619.662
234.3427, 8692.456
234.8249, 8736.298
235.3070, 8763.180
235.7891, 8792.805
236.2712, 8830.517
236.7533, 8873.478
237.2354, 8917.486
237.7176, 8962.090
238.1997, 9009.965
238.6818, 9062.406
239.1639, 9118.501
239.6460, 9178.861
240.1281, 9244.183
240.6103, 9308.804
241.0924, 9363.028
241.5745, 9402.715
242.0566, 9458.807
242.5387, 9544.737
243.0208, 9641.715
243.5030, 9735.819
243.9851, 9824.460
244.4672, 9905.994
244.9493, 9975.776
245.4314, 10030.81
245.9135, 10099.21
246.3957, 10180.95
246.8778, 10275.79
247.3599, 10391.88
247.8420, 10525.06
248.3241, 10650.37
248.8062, 10745.10
249.2884, 10807.98
249.7705, 10895.56
250.2526, 11015.92
250.7347, 11148.92
251.2168, 11291.89
251.6989, 11440.55
252.1811, 11585.72
252.6632, 11720.72
253.1453, 11846.01
253.6274, 11969.45
254.1095, 12075.60
254.5916, 12196.31
255.0738, 12348.47
255.5559, 12519.43
256.0380, 12689.95
256.5201, 12850.84
257.0022, 13000.71
257.4843, 13136.12
257.9665, 13236.77
258.4486, 13344.99
258.9307, 13465.03
259.4128, 13594.10
259.8949, 13729.24
260.3770, 13869.58
260.8592, 14014.59
261.3413, 14164.79
261.8234, 14325.10
262.3055, 14483.67
262.7876, 14649.64
263.2697, 14809.23
263.7519, 14945.68
264.2340, 15057.21
264.7161, 15161.77
265.1982, 15283.94
265.6803, 15431.91
266.1624, 15578.61
266.6446, 15735.19
267.1267, 15882.15
267.6088, 16002.48
268.0909, 16099.72
268.5730, 16193.22
269.0551, 16302.79
269.5373, 16430.42
270.0194, 16557.16
270.5015, 16690.14
270.9836, 16815.51
271.4657, 16931.83
271.9478, 17036.97
272.4300, 17124.39
272.9121, 17181.69
273.3942, 17215.93
273.8763, 17285.66
274.3584, 17415.27
274.8405, 17547.66
275.3227, 17665.61
275.8048, 17771.78
276.2869, 17870.66
276.7690, 17960.43
277.2511, 18047.57
277.7332, 18150.88
278.2154, 18280.20
278.6975, 18398.49
279.1796, 18482.09
279.6617, 18553.20
280.1438, 18633.73
280.6259, 18731.01
281.1081, 18835.49
281.5902, 18940.63
282.0723, 19048.07
282.5544, 19140.37
283.0365, 19198.79
283.5186, 19248.96
284.0008, 19316.62
284.4829, 19405.39
284.9650, 19496.42
285.4471, 19576.68
285.9292, 19647.53
286.4113, 19718.47
286.8935, 19797.87
287.3756, 19867.93
287.8577, 19911.56
288.3398, 19930.50
288.8219, 19935.49
289.3040, 19923.08
289.7862, 19901.93
290.2683, 19891.98
290.7504, 19900.17
291.2325, 19896.92
291.7146, 19852.47
292.1967, 19771.27
292.6789, 19680.92
293.1610, 19570.63
293.6431, 19463.36
294.1252, 19395.74
294.6073, 19362.06
295.0894, 19297.70
295.5716, 19151.78
296.0537, 18937.78
296.5358, 18753.85
297.0179, 18620.99
297.5000, 18491.54
297.9821, 18350.46
298.4643, 18198.58
298.9464, 18036.87
299.4285, 17865.69
299.9106, 17687.21
300.3927, 17504.12
300.8748, 17322.73
301.3570, 17128.92
301.8391, 16908.98
302.3212, 16681.80
302.8033, 16471.63
303.2854, 16283.51
303.7675, 16097.89
304.2497, 15882.90
304.7318, 15621.96
305.2139, 15372.86
305.6960, 15132.86
306.1781, 14904.25
306.6602, 14690.24
307.1424, 14490.16
307.6245, 14298.37
308.1066, 14112.42
308.5887, 13933.49
309.0708, 13740.03
309.5529, 13503.53
310.0351, 13281.48
310.5172, 13100.77
310.9993, 12945.15
311.4814, 12785.44
311.9635, 12604.63
312.4456, 12408.91
312.9278, 12215.50
313.4099, 12018.51
313.8920, 11837.69
314.3741, 11680.13
314.8562, 11537.82
315.3383, 11404.91
315.8205, 11280.02
316.3026, 11159.66
316.7847, 11037.23
317.2668, 10911.67
317.7489, 10793.94
318.2310, 10694.29
318.7132, 10596.51
319.1953, 10485.36
319.6774, 10361.25
320.1595, 10239.78
320.6416, 10126.39
321.1237, 10023.41
321.6059, 9944.468
322.0880, 9896.905
322.5701, 9859.253
323.0522, 9811.021
323.5343, 9756.638
324.0164, 9712.482
324.4986, 9688.425
324.9807, 9673.510
325.4628, 9655.731
325.9449, 9634.743
326.4270, 9614.755
326.9091, 9598.740
327.3913, 9585.633
327.8734, 9570.721
328.3555, 9539.769
328.8376, 9523.308
329.3197, 9550.993
329.8018, 9602.589
330.2840, 9631.161
330.7661, 9615.547
331.2482, 9579.531
331.7303, 9570.131
332.2124, 9602.534
332.6945, 9632.768
333.1767, 9658.724
333.6588, 9681.146
334.1409, 9699.829
334.6230, 9715.227
335.1051, 9729.812
335.5872, 9746.442
336.0694, 9765.548
336.5515, 9784.403
337.0336, 9801.417
337.5157, 9819.911
337.9979, 9841.772
338.4800, 9866.303
338.9621, 9892.603
339.4442, 9920.759
339.9263, 9949.259
340.4084, 9970.769
340.8906, 9982.857
341.3727, 9991.259
341.8548, 9992.188
342.3369, 9992.757
342.8190, 10002.61
343.3011, 10024.97
343.7833, 10047.63
344.2654, 10049.58
344.7475, 10026.23
345.2296, 10017.54
345.7117, 10038.52
346.1938, 10068.83
346.6760, 10097.48
347.1581, 10123.54
347.6402, 10145.44
348.1223, 10161.79
348.6044, 10173.32
349.0865, 10181.56
349.5687, 10185.86
350.0508, 10189.27
350.5329, 10190.84
351.0150, 10193.19
351.4971, 10203.39
351.9792, 10229.45
352.4614, 10258.00
352.9435, 10276.55
353.4256, 10287.35
353.9077, 10301.30
354.3898, 10322.03
354.8719, 10350.11
355.3541, 10389.29
355.8362, 10445.77
356.3183, 10497.32
356.8004, 10526.71
357.2825, 10553.66
357.7646, 10604.64
358.2468, 10684.81
358.7289, 10774.73
359.2110, 10852.12
359.6931, 10912.25
360.1752, 10980.35
360.6573, 11052.92
361.1395, 11134.99
361.6216, 11232.83
362.1037, 11342.52
362.5858, 11457.62
363.0679, 11575.88
363.5500, 11692.99
364.0322, 11785.76
364.5143, 11821.17
364.9964, 11884.59
365.4785, 12011.58
365.9606, 12158.53
366.4427, 12285.28
366.9249, 12380.36
367.4070, 12458.14
367.8891, 12536.69
368.3712, 12617.36
368.8533, 12682.47
369.3354, 12721.87
369.8176, 12753.17
370.2997, 12788.72
370.7818, 12827.06
371.2639, 12860.39
371.7460, 12894.64
372.2281, 12918.21
372.7103, 12905.75
373.1924, 12853.36
373.6745, 12789.74
374.1566, 12733.73
374.6387, 12676.87
375.1208, 12599.85
375.6030, 12504.03
376.0851, 12385.05
376.5672, 12235.37
377.0493, 12060.81
377.5314, 11872.34
378.0135, 11672.55
378.4957, 11465.25
378.9778, 11254.87
379.4599, 11039.15
379.9420, 10829.00
380.4241, 10628.43
380.9063, 10430.17
381.3884, 10227.61
381.8705, 10022.75
382.3526, 9823.067
382.8347, 9636.221
383.3168, 9460.604
383.7990, 9285.058
384.2811, 9095.744
384.7632, 8922.900
385.2453, 8784.012
385.7274, 8658.685
386.2095, 8522.223
386.6917, 8365.771
387.1738, 8205.426
387.6559, 8062.092
388.1380, 7932.949
388.6201, 7833.042
389.1022, 7790.774
389.5844, 7754.888
390.0665, 7688.401
390.5486, 7597.193
391.0307, 7517.594
391.5128, 7483.767
391.9949, 7472.078
392.4771, 7428.938
392.9592, 7349.165
393.4413, 7267.052
393.9234, 7196.553
394.4055, 7139.481
394.8876, 7097.908
395.3698, 7081.069
395.8519, 7065.318
396.3340, 7041.025
396.8161, 7009.006
397.2982, 6968.340
397.7803, 6917.894
398.2625, 6866.923
398.7446, 6828.916
399.2267, 6811.365
399.7088, 6782.329
400.1909, 6729.718
400.6730, 6676.595
401.1552, 6636.363
401.6373, 6607.768
402.1194, 6582.600
402.6015, 6555.782
403.0836, 6527.752
403.5657, 6501.242
404.0479, 6477.995
404.5300, 6453.372
405.0121, 6425.677
405.4942, 6397.127
405.9763, 6371.071
406.4584, 6347.708
406.9406, 6322.161
407.4227, 6282.661
407.9048, 6230.340
408.3869, 6200.578
408.8690, 6203.250
409.3511, 6218.430
409.8333, 6236.453
410.3154, 6256.184
410.7975, 6274.739
411.2796, 6290.459
411.7617, 6305.085
412.2438, 6320.526
412.7260, 6336.576
413.2081, 6351.153
413.6902, 6361.441
414.1723, 6371.876
414.6544, 6392.893
415.1365, 6426.396
415.6187, 6461.871
416.1008, 6500.745
416.5829, 6538.637
417.0650, 6569.394
417.5471, 6593.497
418.0292, 6619.377
418.5114, 6655.930
418.9935, 6702.924
419.4756, 6737.028
419.9577, 6732.582
420.4398, 6744.671
420.9219, 6801.605
421.4041, 6874.453
421.8862, 6925.578
422.3683, 6941.699
422.8504, 6942.638
423.3325, 6958.549
423.8146, 6992.280
424.2968, 7019.205
424.7789, 7032.742
425.2610, 7042.788
425.7431, 7052.966
426.2252, 7064.498
426.7073, 7081.017
427.1895, 7105.346
427.6716, 7135.072
428.1537, 7170.425
428.6358, 7211.406
429.1179, 7241.113
429.6000, 7246.115
430.0822, 7239.281
430.5643, 7250.266
431.0464, 7283.048
431.5285, 7320.843
432.0106, 7371.417
432.4927, 7418.479
432.9749, 7437.413
433.4570, 7427.182
433.9391, 7413.207
434.4212, 7419.380
434.9033, 7446.195
435.3854, 7469.921
435.8676, 7491.426
436.3497, 7508.629
436.8318, 7508.996
437.3139, 7509.277
437.7960, 7537.204
438.2781, 7602.681
438.7603, 7674.412
439.2424, 7704.369
439.7245, 7688.298
440.2066, 7668.222
440.6887, 7640.152
441.1708, 7618.538
441.6530, 7614.981
442.1351, 7625.278
442.6172, 7635.195
443.0993, 7646.158
443.5814, 7648.881
444.0635, 7623.306
444.5457, 7572.459
445.0278, 7534.544
445.5099, 7530.441
445.9920, 7543.590
446.4741, 7539.318
446.9562, 7515.607
447.4384, 7484.405
447.9205, 7440.492
448.4026, 7394.488
448.8847, 7359.840
449.3668, 7334.983
449.8489, 7305.627
450.3311, 7259.430
450.8132, 7198.544
451.2953, 7141.213
451.7774, 7085.478
452.2595, 7036.758
452.7416, 7004.971
453.2238, 6975.505
453.7059, 6932.872
454.1880, 6873.760
454.6701, 6808.412
455.1522, 6744.894
455.6343, 6683.517
456.1165, 6628.067
456.5986, 6579.466
457.0807, 6534.808
457.5628, 6492.041
458.0449, 6451.360
458.5270, 6413.676
459.0092, 6377.665
459.4913, 6346.319
459.9734, 6328.097
460.4555, 6316.203
460.9376, 6290.113
461.4197, 6242.258
461.9019, 6187.871
462.3840, 6149.532
462.8661, 6133.801
463.3482, 6110.904
463.8303, 6071.067
464.3124, 6034.256
464.7946, 6011.055
465.2767, 5998.805
465.7588, 5991.612
466.2409, 5986.894
466.7230, 5982.025
467.2051, 5969.269
467.6873, 5944.294
468.1694, 5926.114
468.6515, 5924.961
469.1336, 5925.838
469.6157, 5917.500
470.0978, 5901.485
470.5800, 5889.572
471.0621, 5885.144
471.5442, 5889.859
472.0263, 5909.801
472.5084, 5944.749
472.9905, 5979.878
473.4727, 6008.902
473.9548, 6032.618
474.4369, 6050.699
474.9190, 6056.311
475.4011, 6073.109
475.8832, 6112.260
476.3654, 6159.799
476.8475, 6199.185
477.3296, 6232.163
477.8117, 6276.875
478.2938, 6348.931
478.7759, 6444.718
479.2581, 6536.760
479.7402, 6614.087
480.2223, 6706.719
480.7044, 6829.170
481.1865, 6961.355
481.6686, 7079.547
482.1508, 7181.474
482.6329, 7296.620
483.1150, 7459.355
483.5971, 7655.753
484.0792, 7836.592
484.5613, 7994.094
485.0435, 8155.405
485.5256, 8334.896
486.0077, 8532.267
486.4898, 8742.803
486.9719, 8980.931
487.4540, 9211.093
487.9362, 9405.606
488.4183, 9589.051
488.9004, 9802.415
489.3825, 10050.71
489.8646, 10297.36
490.3467, 10508.92
490.8289, 10684.61
491.3110, 10831.06
491.7931, 10925.70
492.2752, 11014.97
492.7573, 11129.18
493.2394, 11234.14
493.7216, 11289.71
494.2037, 11284.65
494.6858, 11237.86
495.1679, 11161.88
495.6500, 11059.00
496.1321, 10949.63
496.6143, 10844.48
497.0964, 10710.56
497.5785, 10504.80
498.0606, 10251.20
498.5427, 10024.68
499.0248, 9847.738
499.5070, 9679.771
499.9891, 9510.702
500.4712, 9335.424
500.9533, 9142.523
501.4355, 8929.921
501.9176, 8713.479
502.3997, 8510.886
502.8818, 8321.680
503.3639, 8149.659
503.8460, 8005.669
504.3282, 7867.880
504.8103, 7732.804
505.2924, 7600.936
505.7745, 7471.785
506.2566, 7344.832
506.7387, 7227.509
507.2209, 7131.683
507.7030, 7054.970
508.1851, 6973.749
508.6672, 6884.259
509.1493, 6792.660
509.6314, 6698.204
510.1136, 6604.722
510.5957, 6527.187
511.0778, 6480.688
511.5599, 6433.605
512.0420, 6362.259
512.5241, 6283.412
513.0062, 6228.037
513.4883, 6202.539
513.9705, 6181.949
514.4526, 6136.765
514.9347, 6064.052
515.4168, 6006.658
515.8989, 5968.101
516.3810, 5942.520
516.8632, 5943.461
517.3453, 5950.186
517.8274, 5932.740
518.3095, 5882.168
518.7916, 5832.166
519.2737, 5821.229
519.7559, 5840.875
520.2380, 5852.544
520.7201, 5850.715
521.2022, 5847.834
521.6843, 5853.441
522.1664, 5865.201
522.6486, 5871.899
523.1307, 5864.111
523.6128, 5863.591
524.0949, 5875.406
524.5770, 5899.262
525.0591, 5940.178
525.5413, 5996.202
526.0234, 6051.168
526.5055, 6088.427
526.9876, 6109.241
527.4697, 6141.815
527.9518, 6196.364
528.4340, 6245.999
528.9161, 6278.546
529.3982, 6306.943
529.8803, 6342.746
530.3624, 6388.225
530.8445, 6441.533
531.3267, 6504.494
531.8088, 6574.142
532.2909, 6647.615
532.7730, 6724.850
533.2551, 6794.058
533.7372, 6845.142
534.2194, 6885.238
534.7015, 6937.716
535.1836, 7007.602
535.6657, 7080.547
536.1478, 7157.119
536.6299, 7234.673
537.1121, 7314.395
537.5942, 7393.501
538.0763, 7462.761
538.5584, 7514.534
539.0405, 7554.026
539.5226, 7596.874
540.0048, 7642.469
540.4869, 7694.434
540.9690, 7766.040
541.4511, 7833.671
541.9332, 7871.829
542.4153, 7882.417
542.8975, 7900.325
543.3796, 7953.140
543.8617, 8007.699
544.3438, 8031.278
544.8259, 8028.416
545.3080, 8017.829
545.7902, 8006.467
546.2723, 7998.537
546.7544, 8003.298
547.2365, 8031.945
547.7186, 8041.889
548.2007, 8014.164
548.6829, 7989.012
549.1650, 7987.047
549.6471, 7998.915
550.1292, 8006.770
550.6113, 8003.410
551.0934, 7992.528
551.5756, 7975.649
552.0577, 7954.060
552.5398, 7938.820
553.0219, 7935.015
553.5040, 7928.085
553.9861, 7906.701
554.4683, 7870.749
554.9504, 7827.640
555.4325, 7765.785
555.9146, 7710.645
556.3967, 7676.371
556.8788, 7650.929
557.3610, 7620.864
557.8431, 7582.961
558.3252, 7539.427
558.8073, 7491.329
559.2894, 7439.297
559.7715, 7428.511
560.2537, 7412.851
560.7358, 7386.495
561.2179, 7350.000
561.7000, 7273.017
562.1821, 7248.317
562.6642, 7202.669
563.1464, 7156.148
563.6285, 7138.812
564.1106, 7054.855
564.5927, 7017.047
565.0748, 6951.509
565.5569, 6886.827
566.0391, 6838.150
566.5212, 6796.501
567.0033, 6739.917
567.4854, 6651.062
567.9675, 6583.050
568.4496, 6544.057
568.9318, 6515.281
569.4139, 6494.732
569.8960, 6476.377
570.3781, 6448.922
570.8602, 6405.217
571.3423, 6357.845
571.8245, 6322.175
572.3066, 6297.197
572.7887, 6276.284
573.2708, 6259.305
573.7529, 6242.382
574.2350, 6221.133
574.7172, 6196.246
575.1993, 6175.952
575.6814, 6167.401
576.1635, 6154.350
576.6456, 6129.342
577.1277, 6099.418
577.6099, 6069.543
578.0920, 6042.064
578.5741, 6020.577
579.0562, 6010.504
579.5383, 6008.532
580.0204, 5998.190
580.5026, 5977.040
580.9847, 5956.292
581.4668, 5941.654
581.9489, 5927.551
582.4310, 5906.840
582.9132, 5879.000
583.3953, 5851.717
583.8774, 5816.117
584.3596, 5791.094
584.8417, 5804.274
585.3238, 5840.122
585.8059, 5854.773
586.2880, 5829.450
586.7701, 5790.092
587.2523, 5780.873
587.7344, 5809.786
588.2165, 5828.457
588.6986, 5828.976
589.1807, 5829.012
589.6628, 5832.831
590.1450, 5841.625
590.6271, 5857.814
591.1092, 5882.954
591.5913, 5911.213
592.0734, 5941.102
592.5555, 5970.609
593.0377, 5994.471
593.5198, 6013.014
594.0019, 6034.782
594.4840, 6065.398
594.9661, 6103.412
595.4482, 6143.677
595.9304, 6194.911
596.4125, 6233.602
596.8946, 6246.637
597.3767, 6259.305
597.8588, 6287.113
598.3409, 6327.700
598.8231, 6370.721
599.3052, 6412.421
599.7873, 6452.206
600.2694, 6488.949
600.7515, 6523.088
601.2336, 6555.590
601.7158, 6585.460
602.1979, 6621.510
602.6800, 6675.434
603.1621, 6746.047
603.6442, 6800.063
604.1263, 6820.553
604.6085, 6847.740
605.0906, 6898.148
605.5727, 6952.342
606.0548, 6988.802
606.5369, 7007.617
607.0190, 7029.804
607.5012, 7075.632
607.9833, 7132.554
608.4654, 7168.848
608.9475, 7183.811
609.4296, 7200.406
609.9117, 7226.535
610.3939, 7255.850
610.8760, 7279.556
611.3581, 7296.229
611.8402, 7319.279
612.3223, 7363.431
612.8044, 7398.025
613.2866, 7409.324
613.7687, 7403.704
614.2508, 7383.550
614.7329, 7352.620
615.2150, 7331.165
615.6971, 7350.010
616.1793, 7399.599
616.6614, 7421.927
617.1435, 7414.767
617.6256, 7388.853
618.1077, 7337.457
618.5898, 7278.792
619.0720, 7247.359
619.5541, 7248.819
620.0362, 7239.559
620.5183, 7203.303
621.0004, 7162.852
621.4825, 7132.715
621.9647, 7109.694
622.4468, 7084.988
622.9289, 7055.253
623.4110, 7025.603
623.8931, 7005.752
624.3752, 6995.418
624.8574, 6973.270
625.3395, 6937.137
625.8216, 6893.369
626.3037, 6839.079
626.7858, 6781.866
627.2679, 6735.878
627.7501, 6704.195
628.2322, 6674.552
628.7143, 6645.654
629.1964, 6615.967
629.6785, 6586.348
630.1606, 6554.651
630.6428, 6512.422
631.1249, 6455.049
631.6070, 6397.671
632.0891, 6370.022
632.5712, 6374.640
633.0533, 6369.218
633.5355, 6352.784
634.0176, 6323.388
634.4997, 6268.968
634.9818, 6203.704
635.4639, 6155.616
635.9460, 6132.703
636.4282, 6110.644
636.9103, 6076.592
637.3924, 6043.705
637.8745, 6030.813
638.3566, 6031.079
638.8387, 6018.624
639.3209, 5978.751
639.8030, 5926.243
640.2851, 5888.646
640.7672, 5866.759
641.2493, 5851.310
641.7314, 5847.135
642.2136, 5839.084
642.6957, 5810.929
643.1778, 5773.642
643.6599, 5750.866
644.1420, 5750.758
644.6241, 5750.759
645.1063, 5742.695
645.5884, 5731.787
646.0705, 5720.816
646.5526, 5711.567
647.0347, 5709.163
647.5168, 5717.400
647.9990, 5727.784
648.4811, 5720.414
648.9632, 5692.796
649.4453, 5679.077
649.9274, 5690.988
650.4095, 5700.309
650.8917, 5678.992
651.3738, 5643.038
651.8559, 5634.949
652.3380, 5674.943
652.8201, 5705.697
653.3022, 5701.715
653.7844, 5687.501
654.2665, 5684.202
654.7486, 5691.219
655.2307, 5697.829
655.7128, 5697.735
656.1949, 5697.040
656.6771, 5707.166
657.1592, 5728.257
657.6413, 5752.618
658.1234, 5783.130
658.6055, 5807.719
659.0876, 5817.061
659.5698, 5814.818
660.0519, 5813.422
660.5340, 5813.184
661.0161, 5813.217
661.4982, 5814.162
661.9803, 5814.703
662.4625, 5807.976
662.9446, 5800.242
663.4267, 5809.025
663.9088, 5844.064
664.3909, 5887.892
664.8730, 5916.139
665.3552, 5929.603
665.8373, 5934.116
666.3194, 5927.926
666.8015, 5922.665
667.2836, 5923.995
667.7657, 5931.993
668.2479, 5948.389
668.7300, 5982.684
669.2121, 6004.742
669.6942, 6002.705
670.1763, 5996.574
670.6584, 5995.613
671.1406, 6000.639
671.6227, 6012.363
672.1048, 6031.499
672.5869, 6050.726
673.0690, 6060.967
673.5511, 6064.441
674.0333, 6068.080
674.5154, 6072.320
674.9975, 6079.379
675.4796, 6091.883
675.9617, 6105.624
676.4438, 6110.731
676.9260, 6100.171
677.4081, 6098.616
677.8902, 6123.600
678.3723, 6137.917
678.8544, 6114.168
679.3365, 6074.453
679.8187, 6050.793
680.3008, 6051.973
680.7829, 6067.401
681.2650, 6100.837
681.7471, 6137.801
682.2292, 6151.133
682.7114, 6141.938
683.1935, 6125.069
683.6756, 6105.768
684.1577, 6089.795
684.6398, 6087.565
685.1219, 6102.414
685.6041, 6112.115
686.0862, 6119.263
686.5683, 6117.334
687.0504, 6090.652
687.5325, 6062.561
688.0146, 6064.856
688.4968, 6100.886
688.9789, 6126.139
689.4610, 6108.836
689.9431, 6081.703
690.4252, 6072.324
690.9073, 6078.353
691.3895, 6095.767
691.8716, 6122.208
692.3537, 6144.186
692.8358, 6145.444
693.3179, 6127.835
693.8000, 6110.512
694.2822, 6090.292
694.7643, 6080.380
695.2464, 6092.738
695.7285, 6109.119
696.2106, 6104.688
696.6927, 6082.396
697.1749, 6079.167
697.6570, 6128.416
698.1391, 6165.878
698.6212, 6152.975
699.1033, 6118.028
699.5854, 6089.621
700.0676, 6075.418
700.5497, 6078.757
701.0318, 6107.707
701.5139, 6146.383
701.9960, 6158.292
702.4781, 6144.173
702.9603, 6129.989
703.4424, 6120.204
703.9245, 6113.158
704.4066, 6105.590
704.8887, 6099.347
705.3708, 6106.330
705.8530, 6136.541
706.3351, 6165.568
706.8172, 6197.492
707.2993, 6222.906
707.7814, 6229.456
708.2635, 6224.769
708.7457, 6227.721
709.2278, 6246.568
709.7099, 6272.234
710.1920, 6301.361
710.6741, 6329.642
711.1563, 6346.248
711.6384, 6351.220
712.1205, 6354.368
712.6026, 6360.699
713.0847, 6370.549
713.5668, 6384.918
714.0490, 6404.381
714.5311, 6425.568
715.0132, 6445.541
715.4953, 6471.190
715.9774, 6514.706
716.4595, 6560.913
716.9417, 6589.208
717.4238, 6595.942
717.9059, 6598.162
718.3880, 6600.390
718.8701, 6601.678
719.3522, 6595.002
719.8344, 6588.455
720.3165, 6601.555
720.7986, 6638.239
721.2807, 6676.598
721.7628, 6696.531
722.2449, 6698.656
722.7271, 6676.641
723.2092, 6626.273
723.6913, 6604.075
724.1734, 6638.605
724.6555, 6681.771
725.1376, 6677.677
725.6198, 6625.587
726.1019, 6590.654
726.5840, 6579.286
727.0661, 6575.087
727.5482, 6584.407
728.0303, 6592.896
728.5125, 6590.451
728.9946, 6576.429
729.4767, 6552.485
729.9588, 6515.563
730.4409, 6477.109
730.9230, 6448.337
731.4052, 6426.375
731.8873, 6405.014
732.3694, 6383.521
732.8515, 6365.483
733.3336, 6353.661
733.8157, 6344.668
734.2979, 6329.663
734.7800, 6306.774
735.2621, 6286.933
735.7442, 6275.242
736.2263, 6258.802
736.7084, 6224.744
737.1906, 6183.987
737.6727, 6156.597
738.1548, 6149.046
738.6369, 6129.591
739.1190, 6082.421
739.6011, 6029.881
740.0833, 5976.519
740.5654, 5930.817
741.0475, 5910.655
741.5296, 5917.623
742.0117, 5922.542
742.4938, 5893.238
742.9760, 5845.602
743.4581, 5824.695
743.9402, 5825.629
744.4223, 5793.754
744.9044, 5708.853
745.3865, 5618.000
745.8687, 5569.922
746.3508, 5561.051
746.8329, 5549.234
747.3150, 5532.407
747.7971, 5516.292
748.2792, 5503.965
748.7614, 5490.418
749.2435, 5471.926
749.7256, 5449.774
750.2077, 5427.979
750.6898, 5409.415
751.1719, 5387.377
751.6541, 5355.742
752.1362, 5320.851
752.6183, 5287.925
753.1004, 5258.153
753.5825, 5234.589
754.0646, 5218.890
754.5468, 5201.125
755.0289, 5163.396
755.5110, 5110.214
755.9931, 5070.155
756.4752, 5044.818
756.9573, 5024.714
757.4395, 5005.973
757.9216, 4991.083
758.4037, 4986.651
758.8858, 4996.780
759.3679, 4985.585
759.8500, 4933.936
760.3322, 4884.831
760.8143, 4846.786
761.2964, 4814.057
761.7785, 4779.007
762.2606, 4743.284
762.7427, 4717.614
763.2249, 4711.543
763.7070, 4709.346
764.1891, 4703.585
764.6712, 4693.391
765.1533, 4675.903
765.6354, 4652.205
766.1176, 4626.566
766.5997, 4600.987
767.0818, 4579.328
767.5639, 4574.440
768.0460, 4584.119
768.5281, 4571.331
769.0103, 4528.554
769.4924, 4493.755
769.9745, 4490.929
770.4566, 4500.529
770.9387, 4484.364
771.4208, 4430.423
771.9030, 4399.025
772.3851, 4415.731
772.8672, 4423.139
773.3493, 4397.259
773.8314, 4360.925
774.3135, 4336.195
774.7957, 4324.932
775.2778, 4317.689
775.7599, 4323.938
776.2420, 4318.797
776.7241, 4267.634
777.2062, 4202.011
777.6884, 4170.921
778.1705, 4177.342
778.6526, 4193.609
779.1347, 4203.182
779.6168, 4207.342
780.0989, 4206.781
780.5811, 4202.133
781.0632, 4201.406
781.5453, 4206.459
782.0274, 4205.570
782.5095, 4189.923
782.9916, 4168.771
783.4738, 4160.314
783.9559, 4167.857
784.4380, 4175.449
784.9201, 4182.839
785.4022, 4190.494
785.8843, 4199.099
786.3665, 4207.553
786.8486, 4216.503
787.3307, 4225.233
787.8128, 4226.916
788.2949, 4215.724
788.7770, 4200.900
789.2592, 4183.794
789.7413, 4168.419
790.2234, 4159.581
790.7055, 4157.621
791.1876, 4160.631
791.6697, 4167.589
792.1519, 4178.840
792.6340, 4200.197
793.1161, 4226.697
793.5982, 4235.417
794.0803, 4224.764
794.5624, 4214.431
795.0446, 4214.166
795.5267, 4220.181
796.0088, 4227.730
796.4909, 4238.587
796.9730, 4235.038
797.4551, 4207.634
797.9373, 4183.753
798.4194, 4170.829
798.9015, 4165.667
799.3836, 4167.935
799.8657, 4176.495
800.3478, 4179.564
800.8300, 4167.164
801.3121, 4160.055
801.7942, 4170.150
802.2763, 4183.624
802.7584, 4185.969
803.2405, 4181.041
803.7227, 4183.606
804.2048, 4201.348
804.6869, 4219.462
805.1690, 4226.465
805.6511, 4224.024
806.1332, 4207.507
806.6154, 4182.828
807.0975, 4175.566
807.5796, 4195.413
808.0617, 4223.199
808.5438, 4235.138
809.0259, 4234.020
809.5081, 4241.168
809.9902, 4258.563
810.4723, 4268.788
810.9544, 4263.186
811.4365, 4260.763
811.9186, 4283.533
812.4008, 4324.421
812.8829, 4341.125
813.3650, 4307.605
813.8471, 4290.676
814.3292, 4309.205
814.8113, 4325.794
815.2935, 4313.333
815.7756, 4289.652
816.2577, 4288.593
816.7398, 4319.466
817.2219, 4342.070
817.7040, 4323.070
818.1862, 4306.644
818.6683, 4330.692
819.1504, 4377.438
819.6325, 4420.631
820.1146, 4453.254
820.5967, 4476.166
821.0789, 4487.864
821.5610, 4493.290
822.0431, 4498.995
822.5252, 4505.048
823.0073, 4510.502
823.4894, 4515.560
823.9716, 4524.587
824.4537, 4540.066
824.9358, 4561.636
825.4179, 4590.282
825.9000, 4627.489
826.3821, 4658.969
826.8643, 4682.116
827.3464, 4707.602
827.8285, 4743.895
828.3106, 4778.625
828.7927, 4790.956
829.2748, 4779.201
829.7570, 4792.506
830.2391, 4847.978
830.7212, 4903.756
831.2033, 4959.888
831.6854, 5007.953
832.1675, 5033.228
832.6497, 5046.462
833.1318, 5076.238
833.6139, 5136.017
834.0960, 5191.654
834.5781, 5218.523
835.0602, 5239.743
835.5424, 5275.851
836.0245, 5322.850
836.5066, 5371.604
836.9887, 5418.855
837.4708, 5462.911
837.9529, 5501.723
838.4351, 5537.321
838.9172, 5567.706
839.3993, 5597.695
839.8814, 5654.110
840.3635, 5739.519
840.8456, 5813.536
841.3278, 5846.122
841.8099, 5855.116
842.2920, 5878.037
842.7741, 5913.622
843.2562, 5980.677
843.7383, 6091.723
844.2205, 6193.547
844.7026, 6263.185
845.1847, 6312.281
845.6668, 6352.675
846.1489, 6382.291
846.6310, 6429.418
847.1132, 6504.291
847.5953, 6582.625
848.0774, 6673.022
848.5595, 6755.458
849.0416, 6810.889
849.5237, 6847.480
850.0059, 6888.459
850.4880, 6938.451
850.9701, 6992.496
851.4522, 7055.358
851.9343, 7115.400
852.4164, 7160.055
852.8986, 7197.457
853.3807, 7243.069
853.8628, 7299.290
854.3449, 7349.958
854.8270, 7375.475
855.3091, 7398.371
855.7913, 7453.435
856.2734, 7523.896
856.7555, 7571.312
857.2376, 7593.480
857.7197, 7613.980
858.2018, 7646.692
858.6840, 7687.452
859.1661, 7735.952
859.6482, 7788.226
860.1303, 7812.778
860.6124, 7807.406
861.0945, 7806.647
861.5767, 7823.117
862.0588, 7848.678
862.5409, 7875.144
863.0230, 7902.289
863.5051, 7930.691
863.9872, 7965.250
864.4694, 7986.390
864.9515, 7989.583
865.4336, 7981.221
865.9157, 7953.722
866.3978, 7921.205
866.8799, 7922.362
867.3621, 7974.292
867.8442, 8005.442
868.3263, 8002.089
868.8084, 7991.011
869.2905, 7971.912
869.7726, 7956.248
870.2548, 7959.371
870.7369, 7978.749
871.2190, 7992.938
871.7011, 7991.500
872.1832, 7989.157
872.6653, 7996.300
873.1475, 8002.940
873.6296, 7996.973
874.1117, 7983.015
874.5938, 7973.822
875.0759, 7973.558
875.5580, 7972.659
876.0402, 7959.093
876.5223, 7943.381
877.0044, 7940.335
877.4865, 7946.264
877.9686, 7955.384
878.4507, 7964.290
878.9329, 7960.991
879.4150, 7934.962
879.8971, 7901.723
880.3792, 7891.731
880.8613, 7900.852
881.3434, 7906.777
881.8256, 7907.920
882.3077, 7902.111
882.7898, 7887.782
883.2719, 7871.435
883.7540, 7862.795
884.2361, 7859.913
884.7183, 7839.261
885.2004, 7796.003
885.6825, 7757.339
886.1646, 7728.377
886.6467, 7704.226
887.1288, 7681.961
887.6110, 7661.663
888.0931, 7642.294
888.5752, 7617.350
889.0573, 7613.854
889.5394, 7664.715
890.0215, 7692.880
890.5037, 7661.003
890.9858, 7609.118
891.4679, 7568.694
891.9500, 7540.943
892.4321, 7527.832
892.9142, 7541.447
893.3964, 7552.314
893.8785, 7562.333
894.3606, 7559.766
894.8427, 7528.822
895.3248, 7483.119
895.8069, 7443.771
896.2891, 7415.491
896.7712, 7394.343
897.2533, 7379.421
897.7354, 7370.038
898.2175, 7365.829
898.6996, 7366.785
899.1818, 7380.720
899.6639, 7400.412
900.1460, 7399.663
900.6281, 7363.362
901.1102, 7321.972
901.5923, 7306.965
902.0745, 7304.639
902.5566, 7298.153
903.0387, 7285.172
903.5208, 7256.772
904.0029, 7213.722
904.4850, 7180.713
904.9672, 7180.750
905.4493, 7198.984
905.9314, 7212.047
906.4135, 7217.837
906.8956, 7195.779
907.3777, 7147.279
907.8599, 7130.355
908.3420, 7174.843
908.8241, 7231.599
909.3062, 7227.090
909.7883, 7171.706
910.2704, 7161.632
910.7526, 7202.776
911.2347, 7220.831
911.7168, 7196.782
912.1990, 7163.994
912.6811, 7145.007
913.1632, 7135.772
913.6453, 7126.424
914.1274, 7117.669
914.6096, 7104.542
915.0917, 7080.884
915.5738, 7067.927
916.0559, 7079.830
916.5380, 7095.605
917.0201, 7093.042
917.5023, 7074.595
917.9844, 7061.295
918.4665, 7057.680
918.9486, 7051.774
919.4307, 7045.728
919.9128, 7034.616
920.3950, 7002.985
920.8771, 6972.201
921.3592, 6976.817
921.8413, 7019.753
922.3234, 7050.481
922.8055, 7056.973
923.2877, 7057.367
923.7698, 7055.563
924.2519, 7050.258
924.7340, 7039.357
925.2161, 7024.396
925.6982, 7005.759
926.1804, 6981.237
926.6625, 6970.615
927.1446, 6997.881
927.6267, 7023.027
928.1088, 7014.509
928.5909, 6995.659
929.0731, 7000.674
929.5552, 7024.500
930.0373, 7032.155
930.5194, 7005.800
931.0015, 6972.537
931.4836, 6939.345
931.9658, 6918.698
932.4479, 6933.964
932.9300, 6968.140
933.4121, 6991.068
933.8942, 6995.204
934.3763, 6986.006
934.8585, 6963.210
935.3406, 6936.767
935.8227, 6923.361
936.3048, 6911.640
936.7869, 6873.145
937.2690, 6817.004
937.7512, 6781.097
938.2333, 6778.539
938.7154, 6786.468
939.1975, 6785.139
939.6796, 6776.786
940.1617, 6764.808
940.6439, 6749.556
941.1260, 6729.429
941.6081, 6705.907
942.0902, 6690.957
942.5723, 6691.044
943.0544, 6697.403
943.5366, 6699.706
944.0187, 6697.514
944.5008, 6687.678
944.9829, 6670.805
945.4650, 6655.914
945.9471, 6645.040
946.4293, 6623.387
946.9114, 6577.092
947.3935, 6527.697
947.8756, 6526.690
948.3577, 6572.735
948.8398, 6603.064
949.3220, 6616.295
949.8041, 6617.202
950.2862, 6605.146
950.7683, 6592.919
951.2504, 6593.481
951.7325, 6601.089
952.2147, 6592.729
952.6968, 6563.900
953.1789, 6551.099
953.6610, 6559.421
954.1431, 6570.825
954.6252, 6580.644
955.1074, 6584.730
955.5895, 6576.142
956.0716, 6557.308
956.5537, 6549.514
957.0358, 6556.428
957.5179, 6562.567
958.0001, 6565.134
958.4822, 6569.993
958.9643, 6578.300
959.4464, 6592.835
959.9285, 6620.955
960.4106, 6663.499
960.8928, 6687.014
961.3749, 6678.034
961.8570, 6677.875
962.3391, 6697.942
962.8212, 6719.186
963.3033, 6731.196
963.7855, 6736.760
964.2676, 6739.251
964.7497, 6736.340
965.2318, 6744.064
965.7139, 6782.313
966.1960, 6801.847
966.6782, 6773.378
967.1603, 6744.409
967.6424, 6747.932
968.1245, 6773.122
968.6066, 6795.619
969.0887, 6814.975
969.5709, 6831.753
970.0530, 6852.156
970.5351, 6861.936
971.0172, 6841.235
971.4993, 6822.708
971.9814, 6838.082
972.4636, 6876.995
972.9457, 6906.402
973.4278, 6923.493
973.9099, 6929.728
974.3920, 6920.578
974.8741, 6906.247
975.3563, 6872.503
975.8384, 6849.340
976.3205, 6879.722
976.8026, 6948.333
977.2847, 6985.475
977.7668, 6960.769
978.2490, 6947.922
978.7311, 6980.950
979.2132, 7008.310
979.6953, 6991.620
980.1774, 6964.541
980.6595, 6973.928
981.1417, 7013.352
981.6238, 7026.188
982.1059, 6971.352
982.5880, 6944.250
983.0701, 7003.130
983.5522, 7064.735
984.0344, 7084.313
984.5165, 7074.376
984.9986, 7042.901
985.4807, 6997.719
985.9628, 6975.830
986.4449, 7002.915
986.9271, 7029.494
987.4092, 7040.483
987.8913, 7042.298
988.3734, 7036.257
988.8555, 7025.494
989.3376, 7012.505
989.8198, 6998.281
990.3019, 6986.095
990.7840, 6975.458
991.2661, 6969.707
991.7482, 6979.594
992.2303, 6985.803
992.7125, 6964.965
993.1946, 6934.213
993.6767, 6921.554
994.1588, 6931.256
994.6409, 6948.990
995.1230, 6982.240
995.6052, 7004.644
996.0873, 6988.395
996.5694, 6970.982
997.0515, 6991.384
997.5336, 7029.627
998.0157, 7047.365
998.4979, 7037.884
998.9800, 7024.757
999.4621, 7018.876
999.9442, 7010.446
1000.426, 6985.022
1000.908, 6963.758
1001.391, 6968.692
1001.873, 6989.991
1002.355, 7008.152
1002.837, 7019.176
1003.319, 7031.051
1003.801, 7062.597
1004.283, 7076.207
1004.765, 7030.382
1005.247, 6979.241
1005.730, 6974.371
1006.212, 6999.387
1006.694, 7016.676
1007.176, 7018.521
1007.658, 7022.211
1008.140, 7037.822
1008.622, 7053.882
1009.104, 7064.475
1009.587, 7073.354
1010.069, 7084.933
1010.551, 7096.922
1011.033, 7102.392
1011.515, 7100.252
1011.997, 7104.542
1012.479, 7126.664
1012.961, 7149.191
1013.443, 7160.054
1013.926, 7171.378
1014.408, 7196.200
1014.890, 7228.268
1015.372, 7258.619
1015.854, 7284.902
1016.336, 7293.297
1016.818, 7256.794
1017.300, 7229.963
1017.783, 7244.941
1018.265, 7270.272
1018.747, 7278.298
1019.229, 7278.729
1019.711, 7295.117
1020.193, 7331.169
1020.675, 7359.107
1021.157, 7358.334
1021.639, 7363.552
1022.122, 7391.105
1022.604, 7425.833
1023.086, 7467.822
1023.568, 7504.141
1024.050, 7502.880
1024.532, 7461.079
1025.014, 7455.985
1025.496, 7546.662
1025.979, 7622.977
1026.461, 7630.644
1026.943, 7634.915
1027.425, 7694.874
1027.907, 7772.375
1028.389, 7795.882
1028.871, 7759.359
1029.353, 7754.500
1029.835, 7831.215
1030.318, 7894.340
1030.800, 7906.891
1031.282, 7918.567
1031.764, 7961.735
1032.246, 8019.711
1032.728, 8067.511
1033.210, 8104.072
1033.692, 8143.180
1034.174, 8186.528
1034.657, 8232.723
1035.139, 8283.601
1035.621, 8334.949
1036.103, 8389.145
1036.585, 8439.642
1037.067, 8474.677
1037.549, 8495.135
1038.031, 8523.203
1038.514, 8561.710
1038.996, 8604.196
1039.478, 8652.425
1039.960, 8702.081
1040.442, 8759.005
1040.924, 8810.309
1041.406, 8834.996
1041.888, 8838.421
1042.370, 8865.648
1042.853, 8940.656
1043.335, 8989.131
1043.817, 8998.254
1044.299, 9000.484
1044.781, 9001.379
1045.263, 9007.996
1045.745, 9032.718
1046.227, 9068.219
1046.709, 9079.629
1047.192, 9057.175
1047.674, 9040.690
1048.156, 9028.819
1048.638, 9029.167
1049.120, 9051.092
1049.602, 9070.129
1050.084, 9063.260
1050.566, 9039.531
1051.049, 9027.925
1051.531, 9032.825
1052.013, 9018.255
1052.495, 8980.048
1052.977, 8942.019
1053.459, 8909.682
1053.941, 8881.366
1054.423, 8858.092
1054.906, 8831.976
1055.388, 8782.243
1055.870, 8709.820
1056.352, 8654.468
1056.834, 8616.521
1057.316, 8595.299
1057.798, 8592.453
1058.280, 8568.444
1058.762, 8496.805
1059.245, 8406.860
1059.727, 8340.038
1060.209, 8295.350
1060.691, 8277.259
1061.173, 8279.650
1061.655, 8253.471
1062.137, 8193.334
1062.619, 8127.544
1063.101, 8069.624
1063.584, 8020.618
1064.066, 7982.435
1064.548, 7952.325
1065.030, 7922.846
1065.512, 7895.672
1065.994, 7883.879
1066.476, 7881.049
1066.958, 7852.068
1067.441, 7785.914
1067.923, 7713.992
1068.405, 7659.940
1068.887, 7618.414
1069.369, 7584.169
1069.851, 7555.689
1070.333, 7532.620
1070.815, 7512.538
1071.297, 7489.815
1071.780, 7463.624
1072.262, 7440.528
1072.744, 7428.966
1073.226, 7409.491
1073.708, 7360.308
1074.190, 7299.623
1074.672, 7233.148
1075.154, 7175.673
1075.636, 7160.926
1076.119, 7178.984
1076.601, 7163.848
1077.083, 7074.629
1077.565, 7007.092
1078.047, 7034.513
1078.529, 7069.852
1079.011, 7060.988
1079.494, 7028.233
1079.976, 6990.688
1080.458, 6951.680
1080.940, 6910.301
1081.422, 6863.033
1081.904, 6832.282
1082.386, 6835.730
1082.868, 6840.051
1083.350, 6848.317
1083.833, 6840.335
1084.315, 6789.657
1084.797, 6717.632
1085.279, 6661.113
1085.761, 6621.524
1086.243, 6603.396
1086.725, 6635.118
1087.207, 6638.009
1087.689, 6578.005
1088.172, 6529.576
1088.654, 6538.419
1089.136, 6562.892
1089.618, 6547.531
1090.100, 6498.757
1090.582, 6474.775
1091.064, 6485.953
1091.546, 6478.420
1092.029, 6445.014
1092.511, 6407.983
1092.993, 6370.887
1093.475, 6350.147
1093.957, 6365.716
1094.439, 6397.910
1094.921, 6390.781
1095.403, 6345.910
1095.885, 6311.964
1096.368, 6289.697
1096.850, 6285.374
1097.332, 6299.746
1097.814, 6306.498
1098.296, 6288.888
1098.778, 6259.679
1099.260, 6233.415
1099.742, 6211.663
1100.224, 6200.682
1100.707, 6197.885
1101.189, 6197.835
1101.671, 6198.042
1102.153, 6191.837
1102.635, 6176.955
1103.117, 6161.688
1103.599, 6153.800
1104.081, 6147.797
1104.564, 6134.877
1105.046, 6121.793
1105.528, 6123.021
1106.010, 6129.797
1106.492, 6120.785
1106.974, 6094.041
1107.456, 6067.515
1107.938, 6043.745
1108.421, 6036.256
1108.903, 6068.535
1109.385, 6101.693
1109.867, 6109.342
1110.349, 6102.429
1110.831, 6089.723
1111.313, 6075.650
1111.795, 6070.070
1112.277, 6077.049
1112.760, 6082.487
1113.242, 6097.115
1113.724, 6091.746
1114.206, 6030.572
1114.688, 5976.807
1115.170, 5978.484
1115.652, 6007.844
1116.134, 6018.167
1116.616, 6009.030
1117.099, 6009.146
1117.581, 6027.107
1118.063, 6026.945
1118.545, 5998.387
1119.027, 5972.774
1119.509, 5961.607
1119.991, 5964.372
1120.473, 5985.956
1120.956, 6012.392
1121.438, 5989.297
1121.920, 5919.761
1122.402, 5894.195
1122.884, 5912.784
1123.366, 5928.010
1123.848, 5927.584
1124.330, 5906.005
1124.813, 5857.990
1125.295, 5808.781
1125.777, 5794.992
1126.259, 5803.730
1126.741, 5810.917
1127.223, 5817.509
1127.705, 5833.042
1128.187, 5850.234
1128.669, 5840.810
1129.151, 5797.137
1129.634, 5746.529
1130.116, 5696.209
1130.598, 5665.573
1131.080, 5684.468
1131.562, 5716.382
1132.044, 5733.052
1132.526, 5735.422
1133.008, 5721.054
1133.491, 5696.585
1133.973, 5692.206
1134.455, 5730.485
1134.937, 5744.437
1135.419, 5692.644
1135.901, 5647.211
1136.383, 5635.913
1136.865, 5638.928
1137.348, 5643.857
1137.830, 5650.871
1138.312, 5662.331
1138.794, 5678.934
1139.276, 5687.316
1139.758, 5688.293
1140.240, 5676.089
1140.722, 5644.117
1141.204, 5619.380
1141.687, 5614.020
1142.169, 5618.336
1142.651, 5623.504
1143.133, 5628.325
1143.615, 5628.065
1144.097, 5623.722
1144.579, 5627.321
1145.061, 5637.137
1145.543, 5634.199
1146.026, 5615.884
1146.508, 5597.263
1146.990, 5586.472
1147.472, 5585.502
1147.954, 5604.747
1148.436, 5628.197
1148.918, 5630.298
1149.400, 5622.143
1149.883, 5621.599
1150.365, 5626.461
1150.847, 5625.554
1151.329, 5617.145
1151.811, 5611.571
1152.293, 5615.875
1152.775, 5619.240
1153.257, 5617.498
1153.740, 5612.283
1154.222, 5595.699
1154.704, 5583.280
1155.186, 5600.226
1155.668, 5634.533
1156.150, 5643.653
1156.632, 5617.756
1157.114, 5597.604
1157.596, 5581.645
1158.078, 5575.027
1158.561, 5583.312
1159.043, 5588.592
1159.525, 5576.639
1160.007, 5570.984
1160.489, 5605.765
1160.971, 5665.201
1161.453, 5681.916
1161.935, 5657.761
1162.418, 5635.682
1162.900, 5618.271
1163.382, 5611.001
1163.864, 5614.460
1164.346, 5616.770
1164.828, 5610.305
1165.310, 5606.494
1165.792, 5627.344
1166.275, 5652.640
1166.757, 5644.328
1167.239, 5623.945
1167.721, 5631.694
1168.203, 5657.495
1168.685, 5665.307
1169.167, 5649.254
1169.649, 5639.200
1170.131, 5653.189
1170.614, 5665.294
1171.096, 5663.565
1171.578, 5658.441
1172.060, 5652.691
1172.542, 5648.791
1173.024, 5651.689
1173.506, 5657.589
1173.988, 5652.670
1174.470, 5632.736
1174.953, 5637.908
1175.435, 5681.330
1175.917, 5712.280
1176.399, 5722.935
1176.881, 5727.188
1177.363, 5730.343
1177.845, 5731.808
1178.327, 5730.781
1178.810, 5728.057
1179.292, 5727.129
1179.774, 5726.398
1180.256, 5713.968
1180.738, 5694.240
1181.220, 5690.720
1181.702, 5703.713
1182.184, 5709.145
1182.667, 5696.435
1183.149, 5685.826
1183.631, 5698.244
1184.113, 5715.276
1184.595, 5721.602
1185.077, 5723.463
1185.559, 5726.120
1186.041, 5729.410
1186.523, 5731.137
1187.005, 5732.098
1187.488, 5738.312
1187.970, 5756.647
1188.452, 5763.069
1188.934, 5738.015
1189.416, 5725.347
1189.898, 5740.816
1190.380, 5759.779
1190.862, 5769.691
1191.345, 5773.381
1191.827, 5774.594
1192.309, 5773.337
1192.791, 5768.384
1193.273, 5759.768
1193.755, 5757.172
1194.237, 5760.866
1194.719, 5766.572
1195.202, 5772.951
1195.684, 5777.708
1196.166, 5779.360
1196.648, 5780.873
1197.130, 5782.678
1197.612, 5789.027
1198.094, 5815.743
1198.576, 5842.979
1199.058, 5833.500
1199.541, 5805.989
1200.023, 5807.058
1200.505, 5838.883
1200.987, 5857.798
1201.469, 5848.988
1201.951, 5829.800
1202.433, 5785.529
1202.915, 5757.283
1203.397, 5774.315
1203.880, 5794.559
1204.362, 5785.859
1204.844, 5772.344
1205.326, 5796.999
1205.808, 5853.012
1206.290, 5869.720
1206.772, 5842.281
1207.254, 5871.888
1207.737, 5963.512
1208.219, 5989.337
1208.701, 5918.287
1209.183, 5846.412
1209.665, 5834.150
1210.147, 5848.191
1210.629, 5852.995
1211.111, 5855.506
1211.594, 5865.350
1212.076, 5879.512
1212.558, 5895.184
1213.040, 5910.833
1213.522, 5929.135
1214.004, 5946.819
1214.486, 5941.623
1214.968, 5888.007
1215.450, 5863.498
1215.932, 5933.049
1216.415, 5968.627
1216.897, 5891.988
1217.379, 5822.964
1217.861, 5838.030
1218.343, 5890.780
1218.825, 5917.274
1219.307, 5921.556
1219.789, 5926.820
1220.272, 5933.061
1220.754, 5931.348
1221.236, 5922.893
1221.718, 5933.550
1222.200, 5966.717
1222.682, 5994.268
1223.164, 6001.100
1223.646, 5999.264
1224.129, 6002.769
1224.611, 6001.044
1225.093, 5977.602
1225.575, 5947.115
1226.057, 5916.431
1226.539, 5895.997
1227.021, 5908.638
1227.503, 5946.664
1227.985, 5968.265
1228.468, 5963.750
1228.950, 5950.664
1229.432, 5908.709
1229.914, 5900.477
1230.396, 5957.922
1230.878, 5998.713
1231.360, 5979.951
1231.842, 5942.454
1232.324, 5929.171
1232.807, 5930.805
1233.289, 5921.623
1233.771, 5905.255
1234.253, 5903.387
1234.735, 5911.150
1235.217, 5904.710
1235.699, 5886.334
1236.181, 5882.604
1236.664, 5901.805
1237.146, 5922.431
1237.628, 5933.703
1238.110, 5937.179
1238.592, 5929.868
1239.074, 5872.988
1239.556, 5921.400
1240.038, 5950.176
1240.521, 5960.380
1241.003, 5896.348
1241.485, 5928.166
1241.967, 5921.572
1242.449, 5913.403
1242.931, 5958.713
1243.413, 5905.476
1243.895, 5949.938
1244.377, 5955.400
1244.859, 5978.711
1245.342, 5963.380
1245.824, 5959.979
1246.306, 5995.240
1246.788, 6009.094
1247.270, 5989.306
1247.752, 6013.751
1248.234, 5959.166
1248.716, 6000.514
1249.199, 6025.639
1249.681, 6030.798
1250.163, 6017.099
1250.645, 6016.443
1251.127, 6042.586
1251.609, 6057.443
1252.091, 6041.590
1252.573, 6034.750
1253.056, 6048.349
1253.538, 6061.273
1254.020, 6063.657
1254.502, 6063.203
1254.984, 6068.619
1255.466, 6074.811
1255.948, 6065.408
1256.430, 6045.936
1256.912, 6044.343
1257.395, 6055.562
1257.877, 6057.706
1258.359, 6054.108
1258.841, 6075.081
1259.323, 6123.492
1259.805, 6144.717
1260.287, 6093.084
1260.769, 6057.889
1261.251, 6107.712
1261.734, 6154.735
1262.216, 6144.496
1262.698, 6124.745
1263.180, 6132.004
1263.662, 6154.250
1264.144, 6178.485
1264.626, 6201.684
1265.108, 6202.945
1265.591, 6180.924
1266.073, 6169.581
1266.555, 6169.497
1267.037, 6170.893
1267.519, 6172.241
1268.001, 6182.591
1268.483, 6205.435
1268.965, 6221.554
1269.448, 6213.039
##END=



