##NAMES=Paradamite
##RRUFFID=R050582
##IDEAL CHEMISTRY=Zn^2+^_2_As^5+^O_4_(OH)
##LOCALITY=Ojuela mine, Mapimi, Durango, Mexico
##OWNER=RRUFF
##SOURCE=University of Arizona Mineral Museum
##DESCRIPTION=Groups of tabular pale yellow crystals
##STATUS=The identification of this mineral has been confirmed by X-ray diffraction and chemical analysis
##URL=rruff.info/R050582
##MEASURED CHEMISTRY=Zn_2.00_(As_1.00_O_4_)(OH)
92.06543, 1656.964
92.54755, 1625.657
93.02966, 1626.021
93.51178, 1660.799
93.99390, 1694.977
94.47601, 1726.444
94.95813, 1757.096
95.44025, 1790.667
95.92236, 1830.760
96.40448, 1877.518
96.88660, 1917.833
97.36871, 1968.867
97.85082, 2005.448
98.33294, 2009.062
98.81506, 1976.997
99.29717, 1920.993
99.77929, 1854.198
100.2614, 1778.117
100.7435, 1711.501
101.2256, 1659.230
101.7078, 1618.643
102.1899, 1585.065
102.6720, 1557.086
103.1541, 1536.832
103.6362, 1524.972
104.1183, 1521.231
104.6005, 1520.936
105.0826, 1519.746
105.5647, 1516.939
106.0468, 1518.199
106.5289, 1525.899
107.0110, 1536.692
107.4931, 1547.948
107.9753, 1559.026
108.4574, 1572.681
108.9395, 1594.170
109.4216, 1623.738
109.9037, 1662.488
110.3858, 1705.039
110.8680, 1757.125
111.3501, 1820.519
111.8322, 1895.479
112.3143, 1985.975
112.7964, 2124.145
113.2785, 2305.864
113.7607, 2533.040
114.2428, 2868.346
114.7249, 3261.216
115.2070, 3598.591
115.6891, 3808.341
116.1712, 3871.413
116.6534, 3786.433
117.1355, 3425.498
117.6176, 3013.428
118.0997, 2713.993
118.5818, 2541.794
119.0639, 2438.133
119.5461, 2400.060
120.0282, 2400.445
120.5103, 2348.192
120.9924, 2187.856
121.4745, 1957.311
121.9566, 1737.664
122.4388, 1525.386
122.9209, 1345.958
123.4030, 1211.156
123.8851, 1116.581
124.3672, 1046.069
124.8493, 992.5538
125.3315, 956.6069
125.8136, 927.0116
126.2957, 907.9460
126.7778, 892.2819
127.2599, 877.7031
127.7420, 863.8574
128.2242, 851.1482
128.7063, 840.4102
129.1884, 832.6682
129.6705, 824.8575
130.1526, 815.6913
130.6347, 807.1121
131.1169, 800.2370
131.5990, 795.5123
132.0811, 793.1354
132.5632, 793.6302
133.0453, 799.1516
133.5274, 805.1630
134.0096, 811.5386
134.4917, 818.2767
134.9738, 826.4294
135.4559, 837.3326
135.9380, 848.2036
136.4201, 849.2181
136.9023, 837.8010
137.3844, 822.6719
137.8665, 805.6427
138.3486, 787.3069
138.8307, 770.2642
139.3128, 756.0751
139.7950, 744.5051
140.2771, 734.3359
140.7592, 725.1395
141.2413, 717.6473
141.7234, 712.9601
142.2055, 711.4482
142.6877, 710.9423
143.1698, 709.9284
143.6519, 709.2976
144.1340, 710.3109
144.6161, 713.7625
145.0982, 718.9926
145.5803, 724.2499
146.0625, 729.0588
146.5446, 734.7471
147.0267, 741.6993
147.5088, 749.6906
147.9909, 758.3889
148.4730, 767.5690
148.9552, 777.2655
149.4373, 787.7100
149.9194, 799.4071
150.4015, 811.5968
150.8836, 824.4023
151.3657, 837.5753
151.8479, 850.8812
152.3300, 864.0978
152.8121, 877.5404
153.2942, 889.4138
153.7763, 897.7903
154.2584, 906.6223
154.7406, 917.5745
155.2227, 930.8895
155.7048, 946.2704
156.1869, 963.3849
156.6690, 982.3663
157.1511, 1003.715
157.6333, 1027.584
158.1154, 1053.635
158.5975, 1081.282
159.0796, 1110.387
159.5617, 1141.592
160.0438, 1176.069
160.5260, 1213.594
161.0081, 1253.565
161.4902, 1294.172
161.9723, 1337.292
162.4544, 1386.545
162.9365, 1442.729
163.4187, 1505.069
163.9008, 1571.681
164.3829, 1641.944
164.8650, 1717.000
165.3471, 1800.791
165.8292, 1891.585
166.3113, 1977.470
166.7935, 2060.551
167.2756, 2132.173
167.7577, 2189.114
168.2398, 2231.118
168.7219, 2256.674
169.2040, 2265.244
169.6862, 2257.490
170.1683, 2228.028
170.6504, 2166.242
171.1325, 2088.235
171.6146, 1997.018
172.0967, 1894.605
172.5789, 1787.117
173.0610, 1681.413
173.5431, 1572.268
174.0252, 1478.399
174.5073, 1400.002
174.9894, 1333.716
175.4716, 1277.146
175.9537, 1229.734
176.4358, 1191.864
176.9179, 1164.699
177.4000, 1152.038
177.8821, 1146.938
178.3643, 1149.249
178.8464, 1158.430
179.3285, 1173.355
179.8106, 1193.584
180.2927, 1220.530
180.7748, 1258.391
181.2570, 1308.015
181.7391, 1367.390
182.2212, 1437.063
182.7033, 1516.325
183.1854, 1604.822
183.6675, 1703.352
184.1497, 1809.055
184.6318, 1914.473
185.1139, 2030.170
185.5960, 2131.060
186.0781, 2216.227
186.5602, 2280.957
187.0423, 2311.251
187.5245, 2298.981
188.0066, 2245.425
188.4887, 2163.180
188.9708, 2044.592
189.4529, 1913.892
189.9350, 1779.035
190.4172, 1641.762
190.8993, 1515.083
191.3814, 1405.999
191.8635, 1312.063
192.3456, 1226.932
192.8277, 1150.314
193.3099, 1082.874
193.7920, 1026.429
194.2741, 981.7550
194.7562, 941.6920
195.2383, 903.6666
195.7204, 869.0289
196.2026, 839.8134
196.6847, 816.7479
197.1668, 798.1904
197.6489, 782.0461
198.1310, 768.9027
198.6131, 756.6257
199.0953, 743.5729
199.5774, 731.4131
200.0595, 722.0770
200.5416, 716.3563
201.0237, 713.0470
201.5058, 709.4399
201.9880, 704.5015
202.4701, 701.2657
202.9522, 700.4656
203.4343, 701.2355
203.9164, 702.8085
204.3985, 704.8353
204.8807, 707.3611
205.3628, 710.4463
205.8449, 712.8866
206.3270, 717.7563
206.8091, 726.3757
207.2912, 737.0770
207.7733, 747.9606
208.2555, 758.0231
208.7376, 767.8262
209.2197, 779.4766
209.7018, 794.8331
210.1839, 810.0834
210.6660, 823.6410
211.1482, 837.0932
211.6303, 852.6055
212.1124, 871.3367
212.5945, 892.7961
213.0766, 915.7877
213.5587, 939.4324
214.0409, 965.3275
214.5230, 993.9590
215.0051, 1025.070
215.4872, 1058.348
215.9693, 1093.518
216.4514, 1130.956
216.9336, 1172.029
217.4157, 1215.797
217.8978, 1263.291
218.3799, 1316.240
218.8620, 1373.312
219.3441, 1431.786
219.8263, 1489.885
220.3084, 1548.825
220.7905, 1611.237
221.2726, 1676.302
221.7547, 1745.770
222.2368, 1820.401
222.7190, 1900.154
223.2011, 1984.873
223.6832, 2074.530
224.1653, 2169.801
224.6474, 2270.985
225.1295, 2380.168
225.6117, 2490.198
226.0938, 2599.368
226.5759, 2706.917
227.0580, 2804.188
227.5401, 2886.450
228.0222, 2956.515
228.5043, 3018.856
228.9865, 3071.642
229.4686, 3123.355
229.9507, 3176.702
230.4328, 3231.620
230.9149, 3298.555
231.3970, 3377.878
231.8792, 3474.195
232.3613, 3592.944
232.8434, 3735.321
233.3255, 3891.265
233.8076, 4057.274
234.2897, 4235.271
234.7719, 4401.291
235.2540, 4570.845
235.7361, 4710.313
236.2182, 4802.509
236.7003, 4844.046
237.1824, 4830.827
237.6646, 4754.804
238.1467, 4610.848
238.6288, 4428.386
239.1109, 4183.131
239.5930, 3917.681
240.0751, 3643.298
240.5573, 3364.927
241.0394, 3092.465
241.5215, 2836.203
242.0036, 2592.855
242.4857, 2376.023
242.9678, 2193.880
243.4500, 2032.022
243.9321, 1885.771
244.4142, 1754.324
244.8963, 1637.728
245.3784, 1537.394
245.8605, 1456.369
246.3427, 1381.760
246.8248, 1313.629
247.3069, 1251.422
247.7890, 1195.605
248.2711, 1145.770
248.7532, 1101.210
249.2354, 1060.986
249.7175, 1025.948
250.1996, 992.2878
250.6817, 958.0952
251.1638, 926.7913
251.6459, 900.1107
252.1281, 877.9505
252.6102, 859.5034
253.0923, 844.2621
253.5744, 833.0828
254.0565, 820.1722
254.5386, 803.9573
255.0208, 787.7653
255.5029, 772.2408
255.9850, 757.8815
256.4671, 745.5030
256.9492, 735.9188
257.4313, 729.4071
257.9135, 722.8204
258.3956, 715.6368
258.8777, 708.8885
259.3598, 702.7462
259.8419, 697.3609
260.3240, 693.0455
260.8062, 690.1514
261.2883, 688.6686
261.7704, 686.9076
262.2525, 683.5800
262.7346, 681.2912
263.2167, 681.5139
263.6989, 683.7013
264.1810, 686.2907
264.6631, 688.2817
265.1452, 689.8082
265.6273, 692.0802
266.1094, 695.3688
266.5916, 698.9242
267.0737, 702.1182
267.5558, 705.3351
268.0379, 709.5677
268.5200, 715.4551
269.0021, 722.6713
269.4843, 729.9261
269.9664, 736.7357
270.4485, 744.1203
270.9306, 752.7934
271.4127, 762.2471
271.8948, 771.1473
272.3770, 778.6229
272.8591, 785.7175
273.3412, 795.5843
273.8233, 808.7230
274.3054, 822.6513
274.7875, 836.1334
275.2697, 849.8964
275.7518, 865.2493
276.2339, 882.6530
276.7160, 901.8378
277.1981, 922.5254
277.6802, 944.6933
278.1623, 967.7292
278.6444, 991.8909
279.1266, 1016.845
279.6087, 1041.974
280.0908, 1067.180
280.5729, 1092.346
281.0550, 1118.254
281.5371, 1145.285
282.0193, 1169.030
282.5014, 1190.445
282.9835, 1207.263
283.4656, 1216.779
283.9477, 1218.795
284.4298, 1212.133
284.9120, 1193.016
285.3941, 1162.837
285.8762, 1128.766
286.3583, 1091.499
286.8404, 1051.408
287.3225, 1007.654
287.8047, 959.5976
288.2868, 912.3992
288.7689, 869.8586
289.2510, 831.6212
289.7331, 795.4737
290.2152, 760.7419
290.6974, 728.4506
291.1795, 700.1961
291.6616, 676.0572
292.1437, 654.2477
292.6258, 633.6008
293.1079, 614.5703
293.5901, 597.7792
294.0722, 583.6887
294.5543, 571.4293
295.0364, 560.3175
295.5185, 550.3286
296.0006, 541.9105
296.4828, 535.8756
296.9649, 531.2887
297.4470, 526.3914
297.9291, 521.1470
298.4112, 515.5516
298.8933, 508.9972
299.3755, 501.8155
299.8576, 495.9356
300.3397, 492.2728
300.8218, 490.0138
301.3039, 487.8787
301.7860, 485.8441
302.2682, 484.1180
302.7503, 483.0619
303.2324, 482.4461
303.7145, 481.3368
304.1966, 479.1952
304.6787, 477.0898
305.1609, 476.4056
305.6430, 476.9578
306.1251, 477.1582
306.6072, 476.2547
307.0893, 474.5265
307.5714, 472.6718
308.0536, 470.9445
308.5357, 468.5913
309.0178, 464.5164
309.4999, 459.2615
309.9820, 454.1781
310.4641, 449.5209
310.9463, 445.3680
311.4284, 442.1969
311.9105, 440.2668
312.3926, 437.9711
312.8747, 433.6720
313.3568, 428.4000
313.8390, 424.0353
314.3211, 421.3237
314.8032, 419.2461
315.2853, 416.7765
315.7674, 413.9121
316.2495, 410.9874
316.7317, 407.7253
317.2138, 404.7568
317.6959, 403.1938
318.1780, 403.6962
318.6601, 404.0842
319.1422, 402.3848
319.6243, 398.9125
320.1064, 395.9029
320.5886, 394.0775
321.0707, 392.9966
321.5528, 391.9711
322.0349, 390.9659
322.5170, 390.3306
322.9991, 390.4807
323.4813, 391.1562
323.9634, 391.6397
324.4455, 391.8158
324.9276, 391.7445
325.4097, 391.4072
325.8918, 390.8540
326.3740, 390.3042
326.8561, 389.7069
327.3382, 389.2038
327.8203, 389.0609
328.3024, 389.3453
328.7845, 389.7556
329.2667, 390.0586
329.7488, 390.3179
330.2309, 390.7026
330.7130, 391.3884
331.1951, 392.1080
331.6772, 392.5773
332.1594, 392.7986
332.6415, 392.9257
333.1236, 392.7206
333.6057, 392.6628
334.0878, 393.7070
334.5699, 396.4105
335.0521, 399.2318
335.5342, 401.0031
336.0163, 401.9904
336.4984, 403.4246
336.9805, 405.8220
337.4626, 408.7197
337.9448, 411.1346
338.4269, 412.8481
338.9090, 415.5415
339.3911, 420.8868
339.8732, 427.4976
340.3553, 432.4339
340.8375, 434.8154
341.3196, 436.6988
341.8017, 440.4582
342.2838, 445.9016
342.7659, 451.3922
343.2480, 457.1002
343.7302, 462.4427
344.2123, 466.3566
344.6944, 468.7803
345.1765, 471.4277
345.6586, 475.3436
346.1407, 480.6534
346.6229, 487.0203
347.1050, 495.1851
347.5871, 503.6895
348.0692, 511.5513
348.5513, 518.9308
349.0334, 526.6522
349.5156, 534.9603
349.9977, 543.9420
350.4798, 553.6608
350.9619, 563.5790
351.4440, 574.9641
351.9261, 588.8577
352.4083, 604.2433
352.8904, 619.4200
353.3725, 633.7648
353.8546, 648.2320
354.3367, 664.3918
354.8188, 682.5554
355.3010, 701.0347
355.7831, 720.2981
356.2652, 739.4025
356.7473, 758.6319
357.2294, 777.6418
357.7115, 793.9110
358.1937, 805.6250
358.6758, 812.4485
359.1579, 813.6848
359.6400, 808.8270
360.1221, 799.5776
360.6042, 785.5460
361.0863, 767.6740
361.5685, 748.1866
362.0506, 728.1751
362.5327, 707.5963
363.0148, 686.1818
363.4969, 662.3630
363.9790, 639.7842
364.4612, 618.2260
364.9433, 598.4050
365.4254, 581.6237
365.9075, 568.2554
366.3896, 557.5237
366.8717, 548.2838
367.3539, 541.0511
367.8360, 534.3961
368.3181, 527.4138
368.8002, 521.6579
369.2823, 518.7502
369.7644, 518.3923
370.2466, 518.5962
370.7287, 517.4769
371.2108, 514.8912
371.6929, 513.5234
372.1750, 513.3405
372.6571, 514.2958
373.1393, 516.8184
373.6214, 520.4171
374.1035, 524.3459
374.5856, 528.1829
375.0677, 532.0472
375.5498, 536.3090
376.0320, 540.4241
376.5141, 545.9159
376.9962, 553.2406
377.4783, 561.6650
377.9604, 570.4813
378.4425, 579.5653
378.9247, 589.2400
379.4068, 599.7766
379.8889, 610.8430
380.3710, 624.0018
380.8531, 640.2911
381.3352, 657.7621
381.8174, 675.4976
382.2995, 693.6900
382.7816, 713.2420
383.2637, 735.0458
383.7458, 758.7394
384.2279, 781.6114
384.7101, 803.8085
385.1922, 824.8333
385.6743, 847.3445
386.1564, 867.8121
386.6385, 882.4694
387.1206, 889.7462
387.6028, 890.4064
388.0849, 885.2401
388.5670, 873.8821
389.0491, 858.4384
389.5312, 837.1852
390.0133, 813.1436
390.4955, 786.9040
390.9776, 758.9134
391.4597, 732.1210
391.9418, 708.3403
392.4239, 687.5113
392.9060, 670.0168
393.3882, 656.4261
393.8703, 645.3995
394.3524, 635.7418
394.8345, 627.7315
395.3166, 622.2686
395.7987, 620.2385
396.2809, 620.5109
396.7630, 621.7922
397.2451, 624.1155
397.7272, 627.0817
398.2093, 630.3572
398.6914, 634.3894
399.1736, 639.6760
399.6557, 646.3642
400.1378, 654.0357
400.6199, 662.7778
401.1020, 672.3300
401.5841, 681.8800
402.0662, 691.0790
402.5483, 700.6932
403.0305, 711.7751
403.5126, 724.2241
403.9947, 736.8181
404.4768, 748.5641
404.9589, 760.8842
405.4410, 775.6145
405.9232, 792.5260
406.4053, 809.2076
406.8874, 823.8066
407.3695, 836.8939
407.8516, 852.0175
408.3337, 870.3292
408.8159, 888.9540
409.2980, 907.3298
409.7801, 925.4374
410.2622, 943.1568
410.7443, 960.5963
411.2264, 977.9630
411.7086, 995.8027
412.1907, 1014.840
412.6728, 1032.274
413.1549, 1049.058
413.6370, 1063.586
414.1191, 1074.690
414.6013, 1082.461
415.0834, 1087.954
415.5655, 1092.232
416.0476, 1095.092
416.5297, 1092.645
417.0118, 1082.168
417.4940, 1069.248
417.9761, 1055.041
418.4582, 1038.728
418.9403, 1019.067
419.4224, 995.5341
419.9045, 969.5602
420.3867, 943.3010
420.8688, 917.0308
421.3509, 890.0897
421.8330, 862.1522
422.3151, 833.9958
422.7972, 805.4009
423.2794, 776.9471
423.7615, 750.0341
424.2436, 725.9692
424.7257, 704.4675
425.2078, 683.2288
425.6899, 661.7696
426.1721, 641.5492
426.6542, 623.0270
427.1363, 605.7811
427.6184, 589.1359
428.1005, 572.7560
428.5826, 557.5395
429.0648, 545.3440
429.5469, 536.1490
430.0290, 525.9750
430.5111, 512.9730
430.9932, 499.9310
431.4753, 489.3336
431.9575, 480.9757
432.4396, 473.1407
432.9217, 464.7766
433.4038, 456.5448
433.8859, 449.7737
434.3680, 444.6918
434.8502, 439.7068
435.3323, 433.6243
435.8144, 426.9704
436.2965, 421.1899
436.7786, 416.6652
437.2607, 412.5117
437.7429, 408.1981
438.2250, 403.9236
438.7071, 400.1073
439.1892, 396.8635
439.6713, 394.1974
440.1534, 392.1371
440.6356, 390.6844
441.1177, 389.9933
441.5998, 391.0656
442.0819, 392.1264
442.5640, 391.4686
443.0461, 389.4642
443.5282, 387.9330
444.0103, 388.1237
444.4925, 389.7737
444.9746, 391.4316
445.4567, 393.3768
445.9388, 394.9727
446.4209, 395.5010
446.9030, 395.9736
447.3852, 397.5785
447.8673, 400.5398
448.3494, 403.9423
448.8315, 406.3465
449.3136, 407.0888
449.7957, 410.1816
450.2779, 417.9759
450.7600, 425.8766
451.2421, 432.3595
451.7242, 437.7978
452.2063, 443.0284
452.6884, 448.3595
453.1706, 454.0374
453.6527, 460.8546
454.1348, 469.4208
454.6169, 477.0993
455.0990, 481.7618
455.5811, 486.2841
456.0633, 492.5203
456.5454, 500.6693
457.0275, 510.0641
457.5096, 520.6111
457.9917, 532.0569
458.4738, 543.7739
458.9560, 555.9297
459.4381, 567.8298
459.9202, 578.1798
460.4023, 588.0646
460.8844, 599.7564
461.3665, 614.4448
461.8487, 629.8127
462.3308, 643.7775
462.8129, 656.9091
463.2950, 671.4016
463.7771, 688.3411
464.2592, 706.1104
464.7414, 722.7194
465.2235, 738.2254
465.7056, 752.5937
466.1877, 766.6771
466.6698, 779.1205
467.1519, 788.3545
467.6341, 794.7726
468.1162, 800.2478
468.5983, 806.0716
469.0804, 811.8010
469.5625, 815.1350
470.0446, 816.0863
470.5268, 814.5026
471.0089, 808.5073
471.4910, 801.0336
471.9731, 794.6384
472.4552, 789.8905
472.9373, 785.9476
473.4195, 781.5633
473.9016, 776.4646
474.3837, 774.6563
474.8658, 778.6252
475.3479, 783.3753
475.8300, 786.7959
476.3122, 790.3177
476.7943, 796.1133
477.2764, 805.1173
477.7585, 816.4072
478.2406, 828.5507
478.7227, 841.3531
479.2049, 856.3286
479.6870, 874.2412
480.1691, 894.1281
480.6512, 915.6123
481.1333, 938.3528
481.6154, 961.1113
482.0976, 983.4476
482.5797, 1005.390
483.0618, 1026.492
483.5439, 1046.697
484.0260, 1068.717
484.5081, 1095.855
484.9902, 1124.326
485.4724, 1146.327
485.9545, 1160.559
486.4366, 1172.794
486.9187, 1185.160
487.4008, 1196.662
487.8829, 1206.464
488.3651, 1214.331
488.8472, 1218.966
489.3293, 1218.867
489.8114, 1214.065
490.2935, 1208.981
490.7756, 1202.962
491.2578, 1197.478
491.7399, 1192.260
492.2220, 1188.091
492.7041, 1186.001
493.1862, 1186.338
493.6683, 1188.622
494.1505, 1192.161
494.6326, 1196.847
495.1147, 1203.183
495.5968, 1211.275
496.0789, 1220.957
496.5610, 1234.304
497.0432, 1248.940
497.5253, 1261.307
498.0074, 1270.096
498.4895, 1273.885
498.9716, 1269.981
499.4537, 1258.170
499.9359, 1239.784
500.4180, 1213.583
500.9001, 1181.460
501.3822, 1144.752
501.8643, 1103.630
502.3464, 1060.464
502.8286, 1013.474
503.3107, 966.0916
503.7928, 923.0168
504.2749, 884.4977
504.7570, 848.2582
505.2391, 813.0831
505.7213, 779.4630
506.2034, 749.2450
506.6855, 722.4505
507.1676, 698.3469
507.6497, 677.7786
508.1318, 659.2203
508.6140, 641.3297
509.0961, 623.8199
509.5782, 606.7448
510.0603, 590.3204
510.5424, 574.5002
511.0245, 558.2714
511.5067, 539.5783
511.9888, 523.0248
512.4709, 510.7081
512.9530, 500.1946
513.4351, 488.8805
513.9172, 476.0620
514.3994, 462.8201
514.8815, 450.2145
515.3636, 438.1535
515.8457, 427.4040
516.3278, 418.5757
516.8099, 410.2632
517.2921, 401.2963
517.7742, 392.6014
518.2563, 385.8479
518.7384, 381.9215
519.2205, 378.8155
519.7026, 374.3089
520.1848, 368.5776
520.6669, 362.9165
521.1490, 357.4415
521.6311, 352.4043
522.1132, 348.2704
522.5953, 344.8944
523.0775, 341.7326
523.5596, 338.4185
524.0417, 335.5512
524.5238, 334.4278
525.0059, 334.1690
525.4880, 331.8942
525.9702, 326.2313
526.4523, 319.4532
526.9344, 315.4711
527.4165, 315.7382
527.8986, 315.2169
528.3807, 313.3137
528.8629, 311.2430
529.3450, 309.4142
529.8271, 307.9804
530.3092, 307.3378
530.7913, 307.8275
531.2734, 308.5674
531.7556, 306.9546
532.2377, 301.4770
532.7198, 297.9586
533.2019, 299.4898
533.6840, 301.3656
534.1661, 300.6827
534.6483, 297.8514
535.1304, 295.3724
535.6125, 295.0090
536.0946, 295.6527
536.5767, 295.2733
537.0588, 293.8295
537.5410, 292.1941
538.0231, 290.6305
538.5052, 289.1271
538.9873, 287.5796
539.4694, 285.9021
539.9515, 284.7108
540.4337, 284.8783
540.9158, 285.1356
541.3979, 284.0106
541.8800, 281.6469
542.3621, 279.1886
542.8442, 277.2501
543.3264, 275.9160
543.8085, 275.5031
544.2906, 277.8060
544.7726, 278.4967
545.2548, 276.6070
545.7369, 273.8174
546.2190, 270.7632
546.7011, 267.9047
547.1832, 266.1135
547.6653, 266.2862
548.1475, 267.8535
548.6296, 268.4800
549.1117, 267.7540
549.5938, 267.1713
550.0759, 267.2718
550.5580, 267.6085
551.0402, 268.0889
551.5223, 268.6408
552.0044, 268.5970
552.4865, 266.7214
552.9686, 264.3090
553.4507, 264.1563
553.9329, 266.3869
554.4150, 267.8290
554.8971, 266.3676
555.3792, 263.3881
555.8613, 262.6115
556.3434, 264.9802
556.8256, 266.7192
557.3077, 267.0477
557.7898, 266.4893
558.2719, 264.9109
558.7540, 262.7339
559.2361, 261.5792
559.7183, 262.8042
560.2004, 265.4644
560.6825, 265.3434
561.1646, 259.4754
561.6467, 255.9302
562.1288, 256.5509
562.6110, 258.5907
563.0931, 260.7986
563.5752, 262.6933
564.0573, 263.5226
564.5394, 262.2296
565.0215, 259.7865
565.5037, 258.9102
565.9858, 259.8887
566.4679, 260.4630
566.9500, 259.2018
567.4321, 257.6552
567.9142, 258.2881
568.3964, 261.3354
568.8785, 263.1744
569.3606, 261.1820
569.8427, 258.3669
570.3248, 258.0499
570.8069, 259.9574
571.2891, 261.8748
571.7712, 262.6520
572.2533, 262.4981
572.7354, 261.8952
573.2175, 260.4442
573.6996, 259.2305
574.1818, 258.0751
574.6639, 257.2912
575.1460, 257.2863
575.6281, 257.8162
576.1102, 258.2298
576.5923, 258.1066
577.0745, 257.7755
577.5566, 258.1228
578.0387, 259.3863
578.5208, 260.0146
579.0029, 259.3937
579.4850, 258.3527
579.9672, 257.2498
580.4493, 256.2200
580.9314, 255.8102
581.4135, 256.9861
581.8956, 258.2308
582.3777, 257.6902
582.8599, 255.8708
583.3420, 254.7620
583.8241, 255.0993
584.3062, 256.1074
584.7883, 256.7774
585.2704, 257.0371
585.7526, 257.2916
586.2347, 257.7202
586.7168, 257.9566
587.1989, 257.8335
587.6810, 257.4171
588.1631, 256.7421
588.6453, 255.8403
589.1274, 254.9367
589.6095, 254.2578
590.0916, 253.7574
590.5737, 254.0340
591.0558, 256.0634
591.5380, 257.4388
592.0201, 256.4257
592.5022, 254.3101
592.9843, 253.0977
593.4664, 253.4780
593.9485, 254.0344
594.4307, 253.5159
594.9128, 252.3962
595.3949, 251.7881
595.8770, 251.8748
596.3591, 252.2680
596.8412, 252.7321
597.3234, 253.2506
597.8055, 253.6902
598.2876, 253.7673
598.7697, 254.1507
599.2518, 254.9602
599.7339, 256.1193
600.2161, 258.0480
600.6982, 260.4331
601.1803, 261.8876
601.6624, 261.1348
602.1445, 258.6990
602.6266, 256.9415
603.1088, 255.8898
603.5909, 255.4602
604.0730, 256.1584
604.5551, 257.1063
605.0372, 257.8655
605.5193, 258.3504
606.0015, 258.2347
606.4836, 256.9557
606.9657, 255.2520
607.4478, 253.7160
607.9299, 252.4798
608.4120, 252.4610
608.8942, 254.2858
609.3763, 256.6237
609.8584, 257.3590
610.3405, 255.8607
610.8226, 255.0297
611.3047, 255.3967
611.7869, 255.8527
612.2690, 255.9184
612.7511, 255.7172
613.2332, 255.5382
613.7153, 255.4861
614.1974, 255.3672
614.6796, 254.7907
615.1617, 253.7103
615.6438, 253.0815
616.1259, 253.0081
616.6080, 253.2510
617.0901, 253.9334
617.5723, 254.7642
618.0544, 255.3415
618.5365, 255.6045
619.0186, 255.5889
619.5007, 254.8174
619.9828, 253.9743
620.4650, 254.7271
620.9471, 257.0311
621.4292, 258.1807
621.9113, 256.0294
622.3934, 251.7232
622.8755, 249.7052
623.3577, 251.7769
623.8398, 253.6699
624.3219, 255.2851
624.8040, 256.7373
625.2861, 258.0095
625.7682, 259.1743
626.2504, 260.4956
626.7325, 262.2518
627.2145, 263.8893
627.6967, 263.9174
628.1788, 262.2155
628.6609, 261.9099
629.1430, 263.9924
629.6251, 267.0228
630.1072, 270.3158
630.5894, 273.6202
631.0715, 275.8450
631.5536, 275.7044
632.0357, 275.6883
632.5178, 276.9323
632.9999, 279.1687
633.4821, 282.0455
633.9642, 285.4486
634.4463, 289.2653
634.9284, 293.2359
635.4105, 299.2827
635.8926, 303.7536
636.3748, 313.4209
636.8569, 322.8989
637.3390, 332.5511
637.8211, 341.0845
638.3032, 347.7999
638.7853, 352.4515
639.2675, 354.6517
639.7496, 354.0835
640.2317, 350.9496
640.7138, 344.9364
641.1959, 336.2315
641.6780, 326.8245
642.1602, 317.0060
642.6423, 307.7211
643.1244, 299.9588
643.6065, 293.7690
644.0886, 289.8933
644.5707, 290.4510
645.0529, 290.9615
645.5350, 288.9914
646.0171, 286.0688
646.4992, 284.6894
646.9813, 285.4129
647.4634, 286.4178
647.9456, 285.5141
648.4277, 282.9252
648.9098, 281.3322
649.3919, 280.8872
649.8740, 281.0774
650.3561, 282.2486
650.8383, 283.6282
651.3204, 284.3535
651.8025, 284.3615
652.2846, 284.1116
652.7667, 283.6736
653.2488, 283.1341
653.7310, 282.6053
654.2131, 282.0551
654.6952, 281.3036
655.1773, 280.2630
655.6594, 279.2194
656.1415, 278.7065
656.6237, 278.9995
657.1058, 278.5449
657.5879, 275.7499
658.0700, 273.9794
658.5521, 274.8038
659.0342, 276.8581
659.5164, 278.4406
659.9985, 279.1478
660.4806, 279.6979
660.9627, 280.7930
661.4448, 282.1298
661.9269, 283.0311
662.4091, 283.4603
662.8912, 283.4890
663.3733, 282.9609
663.8554, 282.3346
664.3375, 282.5692
664.8196, 284.0550
665.3018, 285.2961
665.7839, 285.5734
666.2660, 286.2956
666.7481, 288.9577
667.2302, 292.3911
667.7123, 294.5324
668.1945, 294.6367
668.6766, 293.6745
669.1587, 292.6489
669.6408, 291.5798
670.1229, 290.8691
670.6050, 290.7563
671.0872, 290.3109
671.5693, 288.7339
672.0514, 286.7229
672.5335, 285.3395
673.0156, 284.5317
673.4977, 284.6640
673.9799, 287.0039
674.4620, 289.3843
674.9441, 290.1092
675.4262, 289.2909
675.9083, 287.4161
676.3904, 284.6904
676.8726, 281.7350
677.3547, 279.3805
677.8368, 277.5090
678.3189, 277.1493
678.8010, 279.6796
679.2831, 281.7253
679.7653, 282.0111
680.2474, 281.1054
680.7295, 279.2171
681.2116, 276.2209
681.6937, 274.3096
682.1758, 275.4165
682.6580, 277.8564
683.1401, 279.5892
683.6222, 280.5817
684.1043, 281.5225
684.5864, 282.7748
685.0685, 283.8320
685.5507, 283.7657
686.0328, 282.2856
686.5149, 280.8486
686.9970, 278.8588
687.4791, 277.6053
687.9612, 277.9812
688.4434, 279.0633
688.9255, 279.7090
689.4076, 279.6563
689.8897, 279.4825
690.3718, 279.2603
690.8539, 279.3562
691.3361, 281.1945
691.8182, 284.6337
692.3003, 286.2803
692.7824, 284.3539
693.2645, 280.7841
693.7466, 278.5448
694.2288, 277.8657
694.7109, 277.6810
695.1930, 278.2923
695.6751, 279.0104
696.1572, 280.0107
696.6393, 280.7808
697.1215, 280.1905
697.6036, 278.2184
698.0857, 276.9730
698.5678, 279.4054
699.0499, 283.8328
699.5320, 285.1072
700.0142, 283.1037
700.4963, 280.2560
700.9784, 276.7257
701.4605, 274.0483
701.9426, 275.0240
702.4247, 280.4425
702.9069, 283.0327
703.3890, 280.1956
703.8711, 277.4067
704.3532, 276.8506
704.8353, 277.4863
705.3174, 278.0150
705.7996, 278.1436
706.2817, 278.2527
706.7638, 278.7152
707.2459, 279.3867
707.7280, 279.8224
708.2101, 280.0152
708.6923, 279.9762
709.1743, 279.4893
709.6564, 279.1050
710.1385, 279.5849
710.6207, 280.8393
711.1028, 281.7400
711.5849, 281.7112
712.0670, 281.9151
712.5491, 283.3687
713.0313, 284.9511
713.5134, 285.2260
713.9955, 284.1492
714.4776, 282.7555
714.9597, 281.7541
715.4418, 281.1040
715.9240, 280.5422
716.4061, 279.9667
716.8882, 280.4806
717.3703, 282.7855
717.8524, 285.4350
718.3345, 287.1745
718.8167, 288.2782
719.2988, 289.7505
719.7809, 292.4155
720.2630, 294.3139
720.7451, 294.1684
721.2272, 293.3664
721.7094, 293.3962
722.1915, 294.1776
722.6736, 294.6349
723.1557, 294.0805
723.6378, 293.1404
724.1199, 292.9838
724.6021, 293.6148
725.0842, 295.1181
725.5663, 298.1449
726.0484, 300.7379
726.5305, 301.1300
727.0126, 300.4257
727.4948, 300.9671
727.9769, 303.4146
728.4590, 305.3986
728.9411, 305.5179
729.4232, 305.4806
729.9053, 306.8522
730.3875, 309.2630
730.8696, 311.4740
731.3517, 312.9660
731.8338, 314.3897
732.3159, 316.8663
732.7980, 320.3891
733.2802, 323.2130
733.7623, 325.3014
734.2444, 326.7584
734.7265, 327.1387
735.2086, 327.2553
735.6907, 328.4605
736.1729, 330.8764
736.6550, 332.5744
737.1371, 332.9742
737.6192, 332.7502
738.1013, 331.9939
738.5834, 331.0041
739.0656, 330.1171
739.5477, 329.4520
740.0298, 329.1503
740.5119, 329.4517
740.9940, 330.1631
741.4761, 330.4499
741.9583, 330.2412
742.4404, 329.9572
742.9225, 329.5122
743.4046, 329.2872
743.8867, 329.5937
744.3688, 330.4276
744.8510, 331.8677
745.3331, 334.5948
745.8152, 337.0861
746.2973, 338.6436
746.7794, 339.8661
747.2615, 341.3996
747.7437, 343.2233
748.2258, 344.9776
748.7079, 346.4688
749.1900, 347.6164
749.6721, 347.9791
750.1542, 347.5852
750.6364, 348.1418
751.1185, 350.0722
751.6006, 352.2340
752.0827, 354.0224
752.5648, 355.5058
753.0469, 356.8835
753.5291, 358.1112
754.0112, 359.3498
754.4933, 360.3533
754.9754, 361.6349
755.4575, 363.6271
755.9396, 366.0875
756.4218, 368.6658
756.9039, 371.2343
757.3860, 373.6369
757.8681, 375.7368
758.3502, 377.5363
758.8323, 378.8157
759.3145, 379.5412
759.7966, 380.8073
760.2787, 383.1710
760.7608, 385.9038
761.2429, 388.0156
761.7250, 389.4103
762.2072, 391.4153
762.6893, 394.5653
763.1714, 397.5824
763.6535, 400.0213
764.1356, 402.3016
764.6177, 404.9577
765.0999, 407.8858
765.5820, 410.3737
766.0641, 411.6620
766.5462, 412.9856
767.0283, 416.1318
767.5104, 420.7260
767.9926, 425.4498
768.4747, 430.1041
768.9568, 434.3276
769.4389, 437.8041
769.9210, 440.7029
770.4031, 443.4050
770.8853, 445.0782
771.3674, 448.2337
771.8495, 453.8900
772.3316, 459.8701
772.8137, 465.3004
773.2958, 470.4242
773.7780, 475.8385
774.2601, 481.7141
774.7422, 487.0283
775.2243, 490.3689
775.7064, 493.2699
776.1885, 497.6244
776.6707, 503.3064
777.1528, 509.8007
777.6349, 516.9442
778.1170, 523.8215
778.5991, 529.0218
779.0812, 532.7335
779.5634, 538.9633
780.0455, 549.1341
780.5276, 558.6198
781.0097, 565.6092
781.4918, 572.1731
781.9739, 579.8737
782.4561, 588.5217
782.9382, 597.0212
783.4203, 605.5690
783.9024, 613.2514
784.3845, 618.8978
784.8666, 623.9504
785.3488, 630.8486
785.8309, 638.9199
786.3130, 644.7184
786.7951, 646.2254
787.2772, 645.9823
787.7593, 648.3837
788.2415, 653.3525
788.7236, 657.9804
789.2057, 662.2595
789.6878, 665.7055
790.1699, 668.0154
790.6520, 669.3826
791.1342, 670.0445
791.6162, 669.9719
792.0983, 669.4403
792.5804, 666.6146
793.0626, 665.4832
793.5447, 669.2888
794.0268, 674.6336
794.5089, 677.0526
794.9910, 676.4528
795.4731, 676.7917
795.9553, 681.0318
796.4374, 687.1449
796.9195, 692.0486
797.4016, 696.0890
797.8837, 700.5572
798.3658, 705.6918
798.8480, 711.6477
799.3301, 718.5778
799.8122, 726.3693
800.2943, 734.4121
800.7764, 742.1288
801.2585, 751.3954
801.7407, 763.5588
802.2228, 775.8395
802.7049, 786.2331
803.1870, 796.4686
803.6691, 809.0676
804.1512, 824.4749
804.6334, 840.7469
805.1155, 856.7031
805.5976, 873.1496
806.0797, 891.4425
806.5618, 910.6252
807.0439, 929.1832
807.5261, 946.4970
808.0082, 962.4734
808.4903, 977.0947
808.9724, 990.0916
809.4545, 1000.210
809.9366, 1007.340
810.4188, 1012.639
810.9009, 1016.558
811.3830, 1018.065
811.8651, 1015.079
812.3472, 1009.130
812.8293, 1005.717
813.3115, 1005.297
813.7936, 1006.377
814.2757, 1007.045
814.7578, 1010.845
815.2399, 1018.945
815.7220, 1032.059
816.2042, 1051.726
816.6863, 1078.065
817.1684, 1107.867
817.6505, 1136.547
818.1326, 1167.451
818.6147, 1206.342
819.0969, 1253.104
819.5790, 1307.113
820.0611, 1368.252
820.5432, 1435.255
821.0253, 1506.827
821.5074, 1583.361
821.9896, 1666.060
822.4717, 1755.571
822.9538, 1851.257
823.4359, 1953.868
823.9180, 2061.614
824.4001, 2171.893
824.8823, 2286.287
825.3644, 2407.200
825.8465, 2534.035
826.3286, 2669.989
826.8107, 2811.717
827.2928, 2967.981
827.7750, 3144.456
828.2571, 3340.865
828.7392, 3552.938
829.2213, 3781.470
829.7034, 4035.157
830.1855, 4323.005
830.6677, 4642.184
831.1498, 4984.630
831.6319, 5348.600
832.1140, 5745.412
832.5961, 6181.271
833.0782, 6633.830
833.5604, 7096.666
834.0425, 7557.837
834.5246, 7980.998
835.0067, 8396.606
835.4888, 8713.615
835.9709, 8945.595
836.4531, 9069.447
836.9352, 9061.924
837.4173, 8946.761
837.8994, 8745.551
838.3815, 8461.900
838.8636, 8149.917
839.3458, 7807.810
839.8279, 7473.760
840.3100, 7170.806
840.7921, 6905.031
841.2742, 6686.490
841.7563, 6516.956
842.2385, 6389.110
842.7206, 6298.661
843.2027, 6246.456
843.6848, 6235.653
844.1669, 6266.219
844.6490, 6336.099
845.1312, 6446.133
845.6133, 6590.668
846.0954, 6767.389
846.5775, 6974.470
847.0596, 7209.446
847.5417, 7477.941
848.0239, 7755.903
848.5060, 8056.054
848.9881, 8350.743
849.4702, 8655.082
849.9523, 8935.210
850.4344, 9171.339
850.9166, 9353.233
851.3987, 9452.621
851.8808, 9465.706
852.3629, 9379.011
852.8450, 9168.623
853.3271, 8857.501
853.8093, 8464.496
854.2914, 8006.307
854.7735, 7510.508
855.2556, 6994.758
855.7377, 6476.595
856.2198, 5984.009
856.7020, 5516.516
857.1841, 5084.376
857.6662, 4688.392
858.1483, 4332.705
858.6304, 4021.487
859.1125, 3750.240
859.5947, 3514.488
860.0768, 3314.762
860.5589, 3139.448
861.0410, 2990.411
861.5231, 2862.288
862.0052, 2756.079
862.4874, 2668.442
862.9695, 2598.915
863.4516, 2545.619
863.9337, 2506.100
864.4158, 2479.772
864.8979, 2464.405
865.3801, 2458.720
865.8622, 2463.300
866.3443, 2478.995
866.8264, 2505.531
867.3085, 2542.530
867.7906, 2589.514
868.2728, 2644.739
868.7549, 2706.271
869.2370, 2774.626
869.7191, 2850.909
870.2012, 2935.055
870.6833, 3032.422
871.1655, 3145.104
871.6476, 3266.275
872.1297, 3389.112
872.6118, 3518.153
873.0939, 3664.745
873.5760, 3832.587
874.0581, 4006.682
874.5402, 4187.485
875.0223, 4372.651
875.5045, 4568.851
875.9866, 4763.647
876.4687, 4951.918
876.9508, 5129.942
877.4329, 5286.617
877.9150, 5427.984
878.3972, 5533.280
878.8793, 5596.852
879.3614, 5614.521
879.8435, 5580.452
880.3256, 5496.493
880.8077, 5365.509
881.2899, 5188.199
881.7720, 4977.749
882.2541, 4741.173
882.7362, 4484.565
883.2183, 4222.732
883.7004, 3957.667
884.1826, 3703.609
884.6647, 3465.594
885.1468, 3240.711
885.6289, 3026.409
886.1110, 2824.114
886.5931, 2644.427
887.0753, 2490.837
887.5574, 2349.018
888.0395, 2217.450
888.5216, 2097.273
889.0037, 1988.557
889.4858, 1891.003
889.9680, 1804.155
890.4501, 1728.745
890.9322, 1659.447
891.4143, 1595.805
891.8964, 1537.342
892.3785, 1484.389
892.8607, 1436.326
893.3428, 1393.072
893.8249, 1354.192
894.3070, 1319.708
894.7891, 1290.211
895.2712, 1263.156
895.7534, 1235.872
896.2355, 1209.900
896.7176, 1188.179
897.1997, 1170.446
897.6818, 1154.430
898.1639, 1139.365
898.6461, 1126.382
899.1282, 1116.946
899.6103, 1110.633
900.0924, 1105.960
900.5745, 1103.050
901.0566, 1098.863
901.5388, 1092.211
902.0209, 1086.552
902.5030, 1084.500
902.9851, 1085.128
903.4672, 1085.718
903.9493, 1085.345
904.4315, 1087.583
904.9136, 1095.144
905.3957, 1101.815
905.8778, 1105.270
906.3599, 1107.275
906.8420, 1109.505
907.3242, 1111.947
907.8063, 1113.762
908.2884, 1115.334
908.7705, 1115.450
909.2526, 1112.925
909.7347, 1109.363
910.2169, 1107.278
910.6990, 1105.086
911.1811, 1098.695
911.6632, 1086.801
912.1453, 1073.450
912.6274, 1062.529
913.1096, 1051.798
913.5917, 1038.109
914.0738, 1021.808
914.5559, 1003.282
915.0380, 982.8876
915.5201, 962.6848
916.0023, 944.2265
916.4844, 925.9645
916.9665, 903.3988
917.4486, 876.5489
917.9307, 853.2068
918.4128, 834.0521
918.8950, 815.6194
919.3771, 796.6559
919.8592, 777.1298
920.3413, 756.7053
920.8234, 735.3085
921.3055, 715.9384
921.7877, 699.2859
922.2698, 683.4448
922.7519, 667.7120
923.2340, 653.3008
923.7161, 641.6990
924.1982, 631.6408
924.6804, 620.7410
925.1625, 608.5367
925.6446, 597.1466
926.1267, 587.6032
926.6088, 578.4307
927.0909, 568.6178
927.5731, 559.0151
928.0552, 550.5691
928.5373, 543.3107
929.0194, 537.0739
929.5015, 532.3192
929.9836, 526.6590
930.4658, 516.6024
930.9479, 505.2227
931.4300, 496.7953
931.9121, 490.9979
932.3942, 486.3665
932.8763, 482.3084
933.3585, 478.1855
933.8406, 473.4025
934.3227, 468.1977
934.8048, 463.2880
935.2869, 458.5890
935.7690, 452.8234
936.2512, 445.7658
936.7333, 439.7891
937.2154, 436.2985
937.6975, 434.2084
938.1796, 431.7983
938.6617, 429.0587
939.1439, 426.0731
939.6260, 422.8504
940.1081, 419.3352
940.5902, 415.5406
941.0723, 411.3350
941.5544, 406.2749
942.0366, 400.7527
942.5187, 396.0699
943.0008, 392.1942
943.4829, 389.1548
943.9650, 388.4767
944.4471, 386.8045
944.9293, 381.6793
945.4114, 375.7718
945.8935, 372.1038
946.3756, 370.5633
946.8577, 368.8554
947.3398, 366.3628
947.8220, 363.4032
948.3041, 359.6884
948.7862, 355.9856
949.2683, 352.9525
949.7504, 350.4956
950.2325, 348.1866
950.7147, 345.9552
951.1968, 344.4070
951.6789, 344.9514
952.1610, 345.3434
952.6431, 341.6747
953.1252, 336.0515
953.6074, 333.3706
954.0895, 333.6798
954.5716, 333.5702
955.0537, 331.3144
955.5358, 328.1557
956.0179, 325.7460
956.5000, 323.8923
956.9821, 321.6959
957.4642, 319.1597
957.9464, 316.5599
958.4285, 313.9049
958.9106, 311.8423
959.3927, 310.9911
959.8748, 310.8157
960.3569, 309.8528
960.8391, 307.8742
961.3212, 306.4700
961.8033, 306.0632
962.2854, 304.9826
962.7675, 302.2350
963.2496, 299.2453
963.7318, 297.5390
964.2139, 296.9305
964.6960, 295.9763
965.1781, 294.1507
965.6602, 292.8510
966.1423, 292.8257
966.6245, 292.4615
967.1066, 290.9156
967.5887, 288.7711
968.0708, 286.6812
968.5529, 284.6927
969.0350, 282.8053
969.5172, 280.7980
969.9993, 279.1840
970.4814, 278.2832
970.9635, 277.6978
971.4456, 277.3539
971.9277, 277.0171
972.4099, 276.3890
972.8920, 275.3910
973.3741, 273.9305
973.8562, 271.2473
974.3383, 268.8312
974.8204, 268.2149
975.3026, 268.4082
975.7847, 268.0349
976.2668, 267.1122
976.7489, 266.5142
977.2310, 266.6466
977.7131, 266.4599
978.1953, 264.3509
978.6774, 263.7795
979.1595, 262.3326
979.6416, 260.4877
980.1237, 259.3503
980.6058, 256.8377
981.0880, 255.0142
981.5701, 255.2556
982.0522, 256.5068
982.5343, 256.9817
983.0164, 256.8684
983.4985, 257.4510
983.9807, 258.7000
984.4628, 258.9593
984.9449, 257.6612
985.4270, 256.3405
985.9091, 256.3723
986.3912, 257.2750
986.8734, 257.6327
987.3555, 257.4079
987.8376, 256.9259
988.3197, 256.1768
988.8018, 255.2185
989.2839, 253.9564
989.7661, 252.7232
990.2482, 251.7827
990.7303, 251.1961
991.2124, 251.4657
991.6945, 253.2036
992.1766, 254.3838
992.6588, 255.0962
993.1409, 254.9300
993.6230, 252.9241
994.1051, 250.5152
994.5872, 249.7839
995.0693, 250.6996
995.5515, 250.9726
996.0336, 249.9480
996.5157, 249.1988
996.9978, 248.8916
997.4799, 248.9126
997.9620, 249.6702
998.4442, 250.4864
998.9263, 250.3044
999.4084, 249.0210
999.8905, 247.6263
1000.373, 245.4963
1000.855, 244.4560
1001.337, 245.8977
1001.819, 248.0131
1002.301, 249.9247
1002.783, 251.2071
1003.265, 250.9717
1003.747, 249.0430
1004.230, 247.7320
1004.712, 248.5805
1005.194, 249.9526
1005.676, 251.1056
1006.158, 251.9623
1006.640, 252.8871
1007.122, 253.4070
1007.604, 251.7753
1008.086, 247.4019
1008.569, 244.0638
1009.051, 245.7746
1009.533, 249.0041
1010.015, 249.9595
1010.497, 249.6547
1010.979, 249.8741
1011.461, 250.7336
1011.943, 251.5137
1012.426, 251.8791
1012.908, 251.9835
1013.390, 251.9131
1013.872, 251.7370
1014.354, 251.9500
1014.836, 252.1172
1015.318, 250.4495
1015.800, 247.0542
1016.282, 244.8492
1016.765, 245.5817
1017.247, 246.5764
1017.729, 243.0801
1018.211, 236.8512
1018.693, 234.4796
1019.175, 235.4753
1019.657, 236.7206
1020.139, 237.4781
1020.622, 236.9450
1021.104, 234.4543
1021.586, 231.2459
1022.068, 229.5000
1022.550, 229.1176
1023.032, 229.0449
1023.514, 229.2884
1023.996, 229.4382
1024.478, 229.3628
1024.961, 229.6343
1025.443, 230.8148
1025.925, 232.1782
1026.407, 231.8729
1026.889, 229.7751
1027.371, 228.7432
1027.853, 228.9395
1028.335, 229.3779
1028.818, 230.0432
1029.300, 229.8822
1029.782, 227.6002
1030.264, 224.5960
1030.746, 224.8557
1031.228, 229.1607
1031.710, 231.8868
1032.192, 232.5185
1032.674, 233.0982
1033.156, 234.1500
1033.639, 235.3214
1034.121, 236.3247
1034.603, 237.2391
1035.085, 238.2992
1035.567, 239.5263
1036.049, 240.8035
1036.531, 241.8350
1037.013, 243.5523
1037.496, 246.9276
1037.978, 250.1293
1038.460, 251.8704
1038.942, 252.2404
1039.424, 251.3491
1039.906, 248.4514
1040.388, 246.5853
1040.870, 246.8414
1041.353, 246.5579
1041.835, 244.6878
1042.317, 242.4156
1042.799, 241.0168
1043.281, 239.9212
1043.763, 237.2563
1044.245, 231.9851
1044.727, 228.2134
1045.209, 227.4951
1045.692, 226.4513
1046.174, 223.7583
1046.656, 220.8005
1047.138, 218.2268
1047.620, 216.3416
1048.102, 215.9987
1048.584, 217.8064
1049.066, 219.0756
1049.548, 219.6226
1050.031, 219.3664
1050.513, 217.8094
1050.995, 215.8643
1051.477, 213.8346
1051.959, 212.0773
1052.441, 211.4477
1052.923, 212.3371
1053.405, 212.9570
1053.888, 212.6054
1054.370, 212.3441
1054.852, 212.6999
1055.334, 213.1912
1055.816, 213.7515
1056.298, 214.0385
1056.780, 213.1302
1057.262, 210.6279
1057.745, 208.8201
1058.227, 208.8739
1058.709, 209.0711
1059.191, 208.5453
1059.673, 208.0172
1060.155, 208.0803
1060.637, 208.6525
1061.119, 209.6816
1061.601, 211.2384
1062.083, 211.8906
1062.566, 210.1124
1063.048, 208.6696
1063.530, 209.4692
1064.012, 210.4961
1064.494, 209.9620
1064.976, 208.3046
1065.458, 206.3785
1065.940, 204.3598
1066.423, 203.3686
1066.905, 204.8983
1067.387, 206.1682
1067.869, 205.9187
1068.351, 204.8677
1068.833, 203.2281
1069.315, 201.4159
1069.797, 199.5710
1070.280, 197.8629
1070.762, 198.1435
1071.244, 204.2816
1071.726, 208.4716
1072.208, 205.0131
1072.690, 200.2142
1073.172, 199.4117
1073.654, 200.8241
1074.136, 200.5203
1074.619, 198.1452
1075.101, 197.0996
1075.583, 200.1609
1076.065, 202.4369
1076.547, 200.4292
1077.029, 197.8821
1077.511, 197.9719
1077.993, 199.3202
1078.475, 199.6928
1078.958, 198.8263
1079.440, 197.5708
1079.922, 195.9394
1080.404, 194.6438
1080.886, 194.3253
1081.368, 194.1350
1081.850, 192.6749
1082.332, 191.4569
1082.814, 193.4556
1083.297, 197.8796
1083.779, 199.9357
1084.261, 197.1951
1084.743, 194.7711
1085.225, 195.6856
1085.707, 196.9094
1086.189, 196.0282
1086.671, 194.6958
1087.154, 195.3600
1087.636, 197.4250
1088.118, 198.1470
1088.600, 196.4800
1089.082, 194.9739
1089.564, 194.9556
1090.046, 195.0502
1090.528, 194.2621
1091.010, 193.3977
1091.493, 193.4290
1091.975, 194.0535
1092.457, 194.3081
1092.939, 193.9295
1093.421, 193.8179
1093.903, 194.8911
1094.385, 195.5436
1094.867, 194.4184
1095.349, 193.1486
1095.832, 193.3835
1096.314, 194.3990
1096.796, 194.4669
1097.278, 193.3364
1097.760, 193.0328
1098.242, 195.0295
1098.724, 196.7653
1099.206, 197.1438
1099.689, 197.2578
1100.171, 197.6775
1100.653, 198.4158
1101.135, 199.4748
1101.617, 200.8237
1102.099, 202.2150
1102.581, 203.2815
1103.063, 204.9124
1103.546, 207.3676
1104.028, 210.3878
1104.510, 214.1723
1104.992, 218.1985
1105.474, 221.9250
1105.956, 225.3641
1106.438, 228.7224
1106.920, 231.8607
1107.402, 235.3284
1107.885, 239.1335
1108.367, 243.3838
1108.849, 248.7157
1109.331, 254.0175
1109.813, 258.1632
1110.295, 262.6907
1110.777, 265.3005
1111.259, 269.9930
1111.741, 273.4233
1112.224, 275.5685
1112.706, 276.2429
1113.188, 275.0804
1113.670, 272.7878
1114.152, 269.5938
1114.634, 265.6703
1115.116, 261.3363
1115.598, 256.6483
1116.081, 251.0078
1116.563, 242.6660
1117.045, 236.4809
1117.527, 234.7565
1118.009, 232.5431
1118.491, 226.6851
1118.973, 220.0111
1119.455, 216.2989
1119.938, 215.1600
1120.420, 212.6672
1120.902, 207.8408
1121.384, 204.1265
1121.866, 201.9734
1122.348, 200.1824
1122.830, 198.6014
1123.312, 196.6950
1123.794, 193.5460
1124.276, 190.0314
1124.759, 189.3193
1125.241, 192.4131
1125.723, 192.2390
1126.205, 187.7785
1126.687, 183.9837
1127.169, 182.0336
1127.651, 180.8682
1128.133, 179.9309
1128.616, 179.0171
1129.098, 177.6081
1129.580, 175.8016
1130.062, 175.5009
1130.544, 176.9191
1131.026, 177.0838
1131.508, 175.4259
1131.990, 174.1724
1132.473, 174.4148
1132.955, 175.1849
1133.437, 175.4524
1133.919, 175.1734
1134.401, 173.8589
1134.883, 171.6704
1135.365, 170.8398
1135.847, 171.4158
1136.329, 171.4644
1136.812, 170.3957
1137.294, 169.2781
1137.776, 168.9638
1138.258, 168.3367
1138.740, 168.6626
1139.222, 168.0771
1139.704, 168.1394
1140.186, 168.6997
1140.668, 169.1401
1141.151, 169.3110
1141.633, 169.0149
1142.115, 168.1415
1142.597, 167.5293
1143.079, 168.4976
1143.561, 169.9696
1144.043, 170.0115
1144.525, 169.2654
1145.008, 168.5847
1145.490, 168.4051
1145.972, 170.1713
1146.454, 173.9268
1146.936, 176.2599
1147.418, 174.3220
1147.900, 171.1873
1148.382, 169.5849
1148.865, 168.5796
1149.347, 166.7117
1149.829, 164.8178
1150.311, 164.9741
1150.793, 166.8138
1151.275, 167.5018
1151.757, 165.6561
1152.239, 163.9444
1152.721, 164.1617
1153.203, 164.6766
1153.686, 164.8730
1154.168, 164.4577
1154.650, 162.3153
1155.132, 159.6200
1155.614, 159.3161
1156.096, 161.9708
1156.578, 163.4226
1157.060, 161.1967
1157.543, 159.4760
1158.025, 159.6556
1158.507, 160.3833
1158.989, 161.1221
1159.471, 161.7869
1159.953, 162.4190
1160.435, 162.9598
1160.917, 162.8295
1161.400, 159.8882
1161.882, 160.9390
1162.364, 171.1630
1162.846, 177.4008
1163.328, 174.3275
1163.810, 168.8120
1164.292, 165.0751
1164.774, 162.8247
1165.256, 161.5537
1165.739, 161.3001
1166.221, 161.3986
1166.703, 161.7927
1167.185, 162.9892
1167.667, 165.6137
1168.149, 166.7203
1168.631, 164.4707
1169.113, 161.9393
1169.595, 162.7836
1170.078, 165.7719
1170.560, 166.5965
1171.042, 165.3031
1171.524, 163.0170
1172.006, 159.8792
1172.488, 159.2409
1172.970, 161.9087
1173.452, 164.8642
1173.934, 166.1701
1174.417, 166.5805
1174.899, 166.7278
1175.381, 167.0733
1175.863, 169.1231
1176.345, 172.3666
1176.827, 175.2357
1177.309, 177.7417
1177.791, 181.0735
1178.274, 185.4699
1178.756, 188.9435
1179.238, 189.5648
1179.720, 189.7259
1180.202, 191.8291
1180.684, 195.1173
1181.166, 199.3776
1181.648, 203.7477
1182.130, 206.4759
1182.613, 207.8768
1183.095, 210.2701
1183.577, 214.7077
1184.059, 218.0279
1184.541, 217.4897
1185.023, 216.7739
1185.505, 218.5160
1185.987, 220.3013
1186.469, 219.8959
1186.952, 218.1669
1187.434, 217.1192
1187.916, 216.7899
1188.398, 214.6405
1188.880, 208.5767
1189.362, 203.5855
1189.844, 200.8393
1190.326, 198.3767
1190.809, 196.1970
1191.291, 193.3295
1191.773, 188.3291
1192.255, 182.4968
1192.737, 179.1479
1193.219, 178.6499
1193.701, 176.4963
1194.183, 171.9500
1194.666, 168.6595
1195.148, 167.3630
1195.630, 166.2884
1196.112, 164.5974
1196.594, 163.0071
1197.076, 162.3643
1197.558, 162.3036
1198.040, 161.7829
1198.522, 160.8499
1199.005, 159.8830
1199.487, 158.8946
1199.969, 157.5656
1200.451, 155.9693
1200.933, 155.5168
1201.415, 157.0051
1201.897, 158.8433
1202.379, 159.2425
1202.861, 158.9191
1203.344, 158.8045
1203.826, 158.9201
1204.308, 159.4299
1204.790, 160.1663
1205.272, 160.8052
1205.754, 161.2310
1206.236, 161.2457
1206.718, 160.4854
1207.201, 160.2982
1207.683, 161.9646
1208.165, 163.9588
1208.647, 165.1401
1209.129, 166.2333
1209.611, 168.2378
1210.093, 170.6937
1210.575, 172.3947
1211.057, 173.1523
1211.540, 174.3478
1212.022, 177.3302
1212.504, 178.9771
1212.986, 177.6476
1213.468, 176.6424
1213.950, 176.9825
1214.432, 178.2648
1214.914, 180.3824
1215.396, 182.9926
1215.879, 185.1792
1216.361, 186.9295
1216.843, 188.3693
1217.325, 189.4539
1217.807, 190.4541
1218.289, 191.3649
1218.771, 192.7248
1219.253, 194.8416
1219.736, 196.7225
1220.218, 197.2700
1220.700, 197.0631
1221.182, 197.2400
1221.664, 197.7639
1222.146, 198.4940
1222.628, 199.4592
1223.110, 200.9420
1223.593, 202.8323
1224.075, 204.3891
1224.557, 205.2924
1225.039, 206.1087
1225.521, 207.5579
1226.003, 208.7793
1226.485, 208.5870
1226.967, 208.1413
1227.449, 209.2717
1227.932, 210.6236
1228.414, 209.1655
1228.896, 205.5812
1229.378, 204.5888
1229.860, 208.2521
1230.342, 210.8321
1230.824, 210.2596
1231.306, 209.5041
1231.788, 210.3014
1232.271, 210.0956
1232.753, 206.4420
1233.235, 201.8633
1233.717, 199.7377
1234.199, 199.7177
1234.681, 199.6113
1235.163, 199.5390
1235.645, 198.5409
1236.128, 196.2498
1236.610, 195.5171
1237.092, 197.1884
1237.574, 198.7808
1238.056, 198.8401
1238.538, 197.8053
1239.020, 195.9101
1239.502, 193.8179
1239.984, 193.5243
1240.467, 194.3097
1240.949, 194.0119
1241.431, 192.8500
1241.913, 192.0019
1242.395, 191.7182
1242.877, 191.7356
1243.359, 191.9828
1243.841, 191.8870
1244.323, 189.9096
1244.806, 188.7762
1245.288, 191.4277
1245.770, 195.0032
1246.252, 197.4641
1246.734, 198.5495
1247.216, 197.5975
1247.698, 194.9925
1248.180, 193.5612
1248.662, 194.6255
1249.145, 194.5432
1249.627, 191.7773
1250.109, 190.1482
1250.591, 191.2591
1251.073, 192.0293
1251.555, 190.1808
1252.037, 188.0679
1252.519, 189.2470
1253.002, 192.6603
1253.484, 193.0021
1253.966, 190.3737
1254.448, 189.5096
1254.930, 190.4300
1255.412, 190.0899
1255.894, 188.0490
1256.376, 187.3564
1256.859, 189.6405
1257.341, 192.7548
1257.823, 195.2286
1258.305, 196.2406
1258.787, 193.9864
1259.269, 190.1348
1259.751, 185.5513
1260.233, 181.8047
1260.715, 182.4623
1261.198, 186.3631
1261.680, 187.3619
1262.162, 183.2331
1262.644, 179.5563
1263.126, 177.9452
1263.608, 177.1886
1264.090, 177.8308
1264.572, 178.1597
1265.054, 176.7622
1265.537, 175.1077
1266.019, 174.6854
1266.501, 175.2906
1266.983, 176.4346
1267.465, 178.2907
1267.947, 178.4041
1268.429, 176.5216
1268.911, 176.1345
1269.394, 177.7952
1269.876, 179.0551
1270.358, 178.9041
1270.840, 178.3001
1271.322, 178.0648
1271.804, 177.9971
1272.286, 177.6026
1272.768, 177.3036
1273.250, 178.1208
1273.733, 179.3991
1274.215, 179.9541
1274.697, 179.8534
1275.179, 179.6288
1275.661, 179.4579
1276.143, 179.6495
1276.625, 180.8175
1277.107, 181.3878
1277.589, 179.4866
1278.072, 178.6454
1278.554, 181.9126
1279.036, 185.3298
1279.518, 185.7467
1280.000, 184.3308
1280.482, 182.6549
1280.964, 180.9009
1281.446, 181.5140
1281.929, 184.8566
1282.411, 187.5558
1282.893, 189.4517
1283.375, 190.3074
1283.857, 190.1124
1284.339, 191.0725
1284.821, 194.4986
1285.303, 198.8063
1285.786, 202.5162
1286.268, 205.5988
##END=



