##NAMES=Paralaurionite
##RRUFFID=R100178
##IDEAL CHEMISTRY=Pb^2+^Cl(OH)
##LOCALITY=Sierra Gorda, Antofagasta Province, Chile
##OWNER=RRUFF
##SOURCE=Bob Jenkins
##DESCRIPTION=Clear to pale violet melted looking blobs or elongated tabular crystals, associated with clear to white hexagonal prismatic penfieldite, blue tabular pseudoboleite, and colorless tabular gypsum.
##STATUS=The identification of this mineral has been confirmed by single-crystal X-ray diffraction.
##URL=rruff.info/R100178
163.4050, 67.55647
163.8871, 66.76613
164.3693, 66.50327
164.8514, 66.58009
165.3335, 66.55328
165.8156, 66.40495
166.2977, 66.17897
166.7798, 65.84002
167.2620, 65.43156
167.7441, 64.99245
168.2262, 64.51771
168.7083, 64.07336
169.1904, 63.88155
169.6725, 64.09631
170.1547, 64.23172
170.6368, 64.03021
171.1189, 63.57678
171.6010, 63.17211
172.0831, 62.98930
172.5652, 62.90403
173.0474, 62.62825
173.5295, 62.02955
174.0116, 61.49313
174.4937, 61.42582
174.9758, 61.82604
175.4579, 62.07255
175.9401, 61.80753
176.4222, 61.27918
176.9043, 60.73280
177.3864, 60.19352
177.8685, 59.68342
178.3506, 59.22714
178.8328, 58.82793
179.3149, 58.47154
179.7970, 58.26168
180.2791, 58.04132
180.7612, 57.63332
181.2433, 56.94442
181.7255, 56.14135
182.2076, 55.58735
182.6897, 55.40351
183.1718, 55.26690
183.6539, 55.09715
184.1360, 54.93249
184.6181, 54.79335
185.1003, 54.68408
185.5824, 54.63770
186.0645, 54.80029
186.5466, 55.84576
187.0287, 56.23117
187.5108, 55.21849
187.9930, 53.59001
188.4751, 52.35027
188.9572, 52.08190
189.4393, 52.59133
189.9214, 52.81145
190.4035, 52.47950
190.8857, 52.15144
191.3678, 51.86157
191.8499, 51.65014
192.3320, 51.61788
192.8141, 51.86444
193.2962, 52.31245
193.7784, 52.33415
194.2605, 51.52981
194.7426, 50.83178
195.2247, 50.62157
195.7068, 50.78660
196.1889, 50.99193
196.6711, 51.05449
197.1532, 50.98164
197.6353, 50.85970
198.1174, 50.62450
198.5995, 50.40259
199.0816, 50.30900
199.5638, 50.31719
200.0459, 50.23693
200.5280, 49.87902
201.0101, 49.37507
201.4922, 49.10743
201.9743, 49.18565
202.4565, 49.40501
202.9386, 49.65569
203.4207, 49.94248
203.9028, 50.11926
204.3849, 50.02362
204.8670, 49.79141
205.3492, 49.62016
205.8313, 49.57591
206.3134, 49.56480
206.7955, 49.41226
207.2776, 49.04936
207.7597, 48.86919
208.2419, 49.34496
208.7240, 49.98753
209.2061, 50.28768
209.6882, 50.01335
210.1703, 49.47206
210.6524, 49.18705
211.1346, 49.22870
211.6167, 49.35992
212.0988, 49.64093
212.5809, 49.90797
213.0630, 49.97561
213.5451, 49.75166
214.0273, 49.36475
214.5094, 49.09774
214.9915, 48.97580
215.4736, 48.94567
215.9557, 49.18407
216.4378, 49.41273
216.9200, 49.25993
217.4021, 48.54418
217.8842, 47.57287
218.3663, 47.25460
218.8484, 48.32233
219.3305, 49.00206
219.8127, 48.84475
220.2948, 48.32837
220.7769, 47.92459
221.2590, 47.84793
221.7411, 48.03895
222.2232, 48.32880
222.7054, 48.98995
223.1875, 49.41193
223.6696, 49.49694
224.1517, 49.35029
224.6338, 48.99335
225.1159, 48.43022
225.5980, 47.84614
226.0802, 47.78990
226.5623, 49.06860
227.0444, 49.92241
227.5265, 50.05721
228.0086, 49.74401
228.4907, 49.29087
228.9729, 48.82269
229.4550, 48.32970
229.9371, 47.76534
230.4192, 46.67552
230.9013, 46.20450
231.3834, 47.09187
231.8656, 48.58416
232.3477, 49.50872
232.8298, 49.36981
233.3119, 48.66570
233.7940, 48.48650
234.2761, 48.98324
234.7583, 49.48602
235.2404, 49.93267
235.7225, 50.26192
236.2046, 50.27900
236.6867, 49.82104
237.1688, 49.27908
237.6510, 49.46827
238.1331, 50.51165
238.6152, 51.33847
239.0973, 51.45135
239.5794, 51.10320
240.0615, 50.74054
240.5437, 50.34969
241.0258, 50.26677
241.5079, 51.18318
241.9900, 53.09895
242.4721, 54.66787
242.9542, 55.14725
243.4364, 54.85139
243.9185, 54.53757
244.4006, 54.27928
244.8827, 54.17244
245.3648, 54.31700
245.8469, 54.68760
246.3290, 55.17445
246.8112, 55.80125
247.2933, 56.50845
247.7754, 57.11073
248.2575, 57.51991
248.7396, 57.92896
249.2217, 58.42031
249.7039, 59.01003
250.1860, 59.77731
250.6681, 60.83316
251.1502, 62.11027
251.6323, 63.42764
252.1144, 64.94306
252.5966, 66.19032
253.0787, 66.64958
253.5608, 66.65713
254.0429, 66.99924
254.5250, 68.39465
255.0071, 70.48232
255.4893, 71.74939
255.9714, 71.46529
256.4535, 71.53882
256.9356, 73.10034
257.4177, 75.48681
257.8998, 77.60592
258.3820, 78.73940
258.8641, 79.22403
259.3462, 80.25770
259.8283, 82.07339
260.3104, 84.10203
260.7925, 86.52828
261.2747, 88.93114
261.7568, 90.64198
262.2389, 91.19946
262.7210, 91.12158
263.2031, 92.01953
263.6852, 94.69113
264.1674, 96.99275
264.6495, 98.26360
265.1316, 99.02953
265.6137, 99.73897
266.0958, 100.5621
266.5779, 101.6160
267.0601, 103.3159
267.5422, 106.5050
268.0243, 108.7576
268.5064, 109.3924
268.9885, 109.2860
269.4706, 109.1750
269.9528, 109.3234
270.4349, 109.5347
270.9170, 109.4249
271.3991, 108.8551
271.8812, 108.2148
272.3633, 107.5442
272.8455, 106.8233
273.3276, 106.1581
273.8097, 105.5248
274.2918, 104.6564
274.7739, 103.0516
275.2560, 100.1015
275.7382, 97.71268
276.2202, 96.36701
276.7024, 95.09790
277.1845, 93.20412
277.6666, 90.63913
278.1487, 87.92834
278.6308, 85.76513
279.1129, 84.49675
279.5951, 82.56067
280.0772, 79.12946
280.5593, 75.85261
281.0414, 73.79973
281.5235, 72.83202
282.0056, 71.97522
282.4878, 70.23992
282.9699, 67.40492
283.4520, 65.24297
283.9341, 64.42290
284.4162, 63.51700
284.8983, 61.68113
285.3805, 59.22638
285.8626, 57.09314
286.3447, 56.05019
286.8268, 56.07861
287.3089, 55.78326
287.7910, 54.81694
288.2732, 53.92865
288.7553, 53.54401
289.2374, 53.38382
289.7195, 52.80312
290.2016, 51.34530
290.6837, 49.29530
291.1659, 48.24940
291.6480, 49.32356
292.1301, 50.09591
292.6122, 49.91577
293.0943, 49.26384
293.5764, 48.88037
294.0586, 49.11328
294.5407, 49.67616
295.0228, 49.79279
295.5049, 48.95721
295.9870, 48.27221
296.4691, 47.81388
296.9513, 47.50829
297.4334, 47.27419
297.9155, 47.08685
298.3976, 46.98195
298.8797, 47.03081
299.3618, 47.38721
299.8440, 47.60981
300.3261, 47.54411
300.8082, 47.44244
301.2903, 47.52768
301.7724, 47.83271
302.2545, 48.21281
302.7367, 48.49293
303.2188, 48.61781
303.7009, 48.86549
304.1830, 49.30372
304.6651, 49.79700
305.1472, 50.26733
305.6294, 50.71053
306.1115, 51.16861
306.5936, 51.69135
307.0757, 52.28948
307.5578, 52.73101
308.0399, 52.64345
308.5221, 52.79059
309.0042, 53.70232
309.4863, 55.14556
309.9684, 56.47849
310.4505, 57.27777
310.9326, 57.62586
311.4148, 58.06405
311.8969, 58.41259
312.3790, 59.03909
312.8611, 60.23405
313.3432, 61.72844
313.8253, 63.13119
314.3075, 64.26639
314.7896, 65.16438
315.2717, 65.89562
315.7538, 66.36974
316.2359, 66.80854
316.7180, 67.02626
317.2001, 67.30574
317.6823, 67.96680
318.1644, 69.10304
318.6465, 70.56313
319.1286, 72.13146
319.6107, 73.79060
320.0928, 75.62328
320.5750, 77.96793
321.0571, 80.25619
321.5392, 82.01589
322.0213, 83.21316
322.5034, 84.15154
322.9855, 85.04737
323.4677, 85.83547
323.9498, 87.27932
324.4319, 90.10857
324.9140, 92.81668
325.3961, 94.56612
325.8782, 95.51981
326.3604, 96.41089
326.8425, 97.80642
327.3246, 99.59724
327.8067, 100.5302
328.2888, 100.2589
328.7709, 99.66722
329.2531, 98.84725
329.7352, 97.87530
330.2173, 96.92513
330.6994, 96.09881
331.1815, 95.18682
331.6636, 93.59931
332.1458, 90.63760
332.6279, 87.83027
333.1100, 85.34868
333.5921, 82.99368
334.0742, 80.54453
334.5563, 77.96130
335.0385, 75.33878
335.5206, 72.83827
336.0027, 70.49305
336.4848, 68.17962
336.9669, 65.70872
337.4490, 63.38893
337.9312, 61.39624
338.4133, 59.74136
338.8954, 58.40656
339.3775, 57.43633
339.8596, 56.89415
340.3417, 55.87581
340.8239, 53.77295
341.3060, 51.89149
341.7881, 50.73761
342.2702, 50.15596
342.7523, 49.83166
343.2344, 49.59966
343.7166, 49.39770
344.1987, 48.92271
344.6808, 47.70094
345.1629, 46.73967
345.6450, 46.34468
346.1271, 46.17374
346.6093, 45.85760
347.0914, 45.26135
347.5735, 44.47888
348.0556, 43.66410
348.5377, 42.57661
349.0198, 41.92186
349.5020, 42.07962
349.9841, 42.32492
350.4662, 42.04376
350.9483, 41.25171
351.4304, 40.51134
351.9125, 40.48742
352.3947, 41.33257
352.8768, 41.87312
353.3589, 42.24883
353.8410, 42.18812
354.3231, 41.14600
354.8052, 39.59208
355.2874, 38.50737
355.7695, 38.64153
356.2516, 39.71200
356.7337, 40.07635
357.2158, 39.00061
357.6979, 38.19194
358.1800, 38.15797
358.6621, 38.44640
359.1443, 38.60627
359.6264, 38.46336
360.1085, 38.04696
360.5906, 37.26064
361.0727, 35.65406
361.5548, 34.88906
362.0370, 36.09479
362.5191, 37.40821
363.0012, 37.49682
363.4833, 36.35646
363.9654, 35.09380
364.4475, 34.99211
364.9297, 36.16123
365.4118, 36.61897
365.8939, 35.71561
366.3760, 34.77271
366.8581, 34.25349
367.3402, 34.09575
367.8224, 34.15803
368.3045, 34.47088
368.7866, 34.85542
369.2687, 34.61847
369.7508, 33.18660
370.2329, 32.43568
370.7151, 33.74070
371.1972, 35.62667
371.6793, 36.68653
372.1614, 36.48938
372.6435, 35.56716
373.1256, 34.20780
373.6078, 32.31869
374.0899, 31.38492
374.5720, 32.46562
375.0541, 33.97845
375.5362, 34.85632
376.0183, 35.07927
376.5005, 34.95369
376.9826, 34.36707
377.4647, 33.54868
377.9468, 33.50564
378.4289, 34.73999
378.9110, 35.76173
379.3932, 35.11897
379.8753, 33.59060
380.3574, 32.70069
380.8395, 33.44396
381.3216, 34.55127
381.8037, 34.27686
382.2859, 32.58845
382.7680, 31.08892
383.2501, 30.43105
383.7322, 30.43130
384.2143, 30.73590
384.6964, 31.41509
385.1786, 32.12326
385.6607, 32.72322
386.1428, 33.19866
386.6249, 33.51495
387.1070, 33.66925
387.5891, 33.64175
388.0713, 33.22218
388.5534, 32.45648
389.0355, 32.07987
389.5176, 32.70428
389.9997, 33.49698
390.4818, 33.56949
390.9640, 32.90296
391.4461, 32.07697
391.9282, 31.42575
392.4103, 30.95074
392.8924, 30.59676
393.3745, 30.39143
393.8567, 30.26346
394.3388, 30.09372
394.8209, 29.99198
395.3030, 30.27949
395.7851, 31.12752
396.2672, 32.10505
396.7494, 32.41590
397.2315, 31.66110
397.7136, 31.17408
398.1957, 31.40146
398.6778, 31.65210
399.1599, 31.14306
399.6420, 29.92857
400.1241, 28.87924
400.6063, 28.82347
401.0884, 29.80179
401.5705, 30.38623
402.0526, 30.36205
402.5347, 30.24558
403.0168, 30.15370
403.4990, 30.08183
403.9811, 29.99815
404.4632, 29.88734
404.9453, 29.76916
405.4274, 29.70729
405.9095, 29.87375
406.3917, 29.79075
406.8738, 29.08305
407.3559, 28.40891
407.8380, 28.29136
408.3201, 28.75026
408.8022, 29.40335
409.2844, 29.90378
409.7665, 30.24632
410.2486, 30.47027
410.7307, 30.42953
411.2128, 30.42383
411.6949, 30.66165
412.1771, 30.96788
412.6592, 31.03510
413.1413, 30.68301
413.6234, 30.10886
414.1055, 29.69855
414.5876, 29.42070
415.0698, 29.40378
415.5519, 30.07765
416.0340, 30.75591
416.5161, 30.93973
416.9982, 30.58142
417.4803, 30.02068
417.9625, 29.39750
418.4446, 28.76393
418.9267, 28.50196
419.4088, 28.78950
419.8909, 29.18405
420.3730, 29.43062
420.8552, 29.56884
421.3373, 29.67489
421.8194, 29.82995
422.3015, 29.90696
422.7836, 29.63131
423.2657, 29.01095
423.7479, 28.64211
424.2300, 28.86825
424.7121, 29.38619
425.1942, 29.72540
425.6763, 29.87654
426.1584, 29.91128
426.6406, 29.78337
427.1227, 29.58058
427.6048, 29.43497
428.0869, 29.36474
428.5690, 29.39623
429.0511, 29.61620
429.5333, 30.01395
430.0154, 30.16773
430.4975, 29.82743
430.9796, 29.47696
431.4617, 29.47474
431.9438, 29.68469
432.4260, 29.68599
432.9081, 29.24535
433.3902, 28.62471
433.8723, 28.46409
434.3544, 29.27939
434.8365, 29.70090
435.3187, 29.27822
435.8008, 28.71493
436.2829, 28.64184
436.7650, 29.08916
437.2471, 29.64971
437.7292, 29.96395
438.2114, 30.03143
438.6935, 29.90708
439.1756, 29.14809
439.6577, 28.69134
440.1398, 29.03850
440.6219, 29.72405
441.1040, 30.07393
441.5862, 29.80519
442.0683, 29.27069
442.5504, 29.13766
443.0325, 29.56576
443.5146, 29.90504
443.9967, 30.06599
444.4789, 30.15311
444.9610, 30.23672
445.4431, 30.29812
445.9252, 30.25178
446.4073, 29.99747
446.8894, 29.59202
447.3716, 29.23795
447.8537, 28.91136
448.3358, 28.69803
448.8179, 28.68474
449.3000, 28.78214
449.7821, 28.91499
450.2643, 29.07586
450.7464, 29.23300
451.2285, 29.37966
451.7106, 29.50579
452.1927, 29.55576
452.6748, 29.51611
453.1570, 29.40246
453.6391, 29.15381
454.1212, 28.81262
454.6033, 28.60876
455.0854, 28.75950
455.5675, 28.94950
456.0497, 28.81023
456.5318, 28.40528
457.0139, 28.16220
457.4960, 28.33506
457.9781, 28.76490
458.4602, 29.02736
458.9424, 29.10657
459.4245, 29.09202
459.9066, 28.98982
460.3887, 28.80562
460.8708, 28.43843
461.3529, 27.92508
461.8351, 27.58665
462.3172, 27.77380
462.7993, 28.51202
463.2814, 28.93784
463.7635, 28.75253
464.2456, 28.62068
464.7278, 28.77932
465.2099, 29.06803
465.6920, 29.25599
466.1741, 29.25472
466.6562, 29.14348
467.1383, 29.03050
467.6205, 28.86863
468.1026, 28.85196
468.5847, 29.27838
469.0668, 29.58800
469.5489, 29.41037
470.0310, 28.88950
470.5132, 28.44662
470.9953, 28.35534
471.4774, 28.49928
471.9595, 28.59498
472.4416, 28.64126
472.9237, 28.64574
473.4059, 28.66348
473.8880, 28.60232
474.3701, 28.24483
474.8522, 27.54804
475.3343, 27.13040
475.8164, 27.72146
476.2986, 28.86003
476.7807, 29.30149
477.2628, 28.78915
477.7449, 28.23431
478.2270, 28.50193
478.7091, 29.30459
479.1913, 29.43209
479.6734, 28.13355
480.1555, 26.91705
480.6376, 26.60088
481.1197, 26.92540
481.6018, 27.42966
482.0839, 27.98389
482.5660, 28.43649
483.0482, 28.54239
483.5303, 28.14377
484.0124, 27.97098
484.4945, 28.01263
484.9766, 28.27361
485.4587, 29.08854
485.9409, 30.12270
486.4230, 30.53308
486.9051, 29.80176
487.3872, 28.43162
487.8693, 27.94247
488.3514, 29.07824
488.8336, 29.69307
489.3157, 29.14736
489.7978, 28.49573
490.2799, 28.59258
490.7620, 29.34222
491.2441, 29.92994
491.7263, 29.57055
492.2084, 28.51567
492.6905, 28.02175
493.1726, 28.29473
493.6547, 28.63626
494.1368, 28.89584
494.6190, 29.01270
495.1011, 28.83794
495.5832, 28.30387
496.0653, 27.81568
496.5474, 27.73229
497.0295, 27.94138
497.5117, 28.14657
497.9938, 28.33866
498.4759, 28.37172
498.9580, 27.97158
499.4401, 27.26898
499.9222, 26.95973
500.4044, 27.39248
500.8865, 27.90901
501.3686, 28.19083
501.8507, 28.30931
502.3328, 28.46150
502.8149, 28.72044
503.2971, 28.88032
503.7792, 28.60434
504.2613, 27.66308
504.7434, 27.11821
505.2255, 27.08487
505.7076, 27.28607
506.1898, 27.83947
506.6719, 28.49866
507.1540, 28.74217
507.6361, 28.27430
508.1182, 27.48437
508.6003, 27.33846
509.0825, 28.18362
509.5646, 28.74081
510.0467, 28.62997
510.5288, 28.42005
511.0109, 28.40260
511.4930, 28.56328
511.9752, 28.75840
512.4573, 28.98024
512.9394, 29.12469
513.4215, 28.86475
513.9036, 28.11430
514.3857, 27.51331
514.8679, 27.47532
515.3500, 27.58058
515.8321, 27.13496
516.3142, 26.01322
516.7963, 25.38052
517.2784, 26.23016
517.7606, 27.63324
518.2427, 28.26475
518.7248, 28.02744
519.2069, 27.56782
519.6890, 27.28384
520.1711, 27.13566
520.6533, 26.93445
521.1354, 26.55078
521.6175, 26.29156
522.0996, 26.21128
522.5817, 26.27663
523.0638, 26.48713
523.5460, 26.82382
524.0281, 27.24615
524.5102, 27.77232
524.9923, 28.38574
525.4744, 28.44608
525.9565, 27.13424
526.4387, 26.34962
526.9208, 26.82573
527.4029, 27.80413
527.8850, 28.53957
528.3671, 28.83392
528.8492, 28.87565
529.3314, 28.77387
529.8135, 28.55261
530.2956, 28.47470
530.7777, 28.64480
531.2598, 28.77159
531.7419, 28.59415
532.2241, 28.27063
532.7062, 28.04183
533.1883, 27.94010
533.6704, 27.96344
534.1525, 28.22247
534.6346, 28.59468
535.1168, 28.71637
535.5989, 28.47646
536.0810, 28.31878
536.5631, 28.81277
537.0452, 30.00092
537.5273, 30.42793
538.0095, 29.46762
538.4916, 28.51987
538.9737, 28.05738
539.4558, 27.94548
539.9379, 27.99902
540.4200, 28.14250
540.9022, 28.31193
541.3843, 28.43735
541.8664, 28.54155
542.3485, 28.46928
542.8306, 27.96173
543.3127, 27.55772
543.7948, 27.47318
544.2769, 27.58738
544.7590, 27.71127
545.2411, 27.77411
545.7233, 27.84140
546.2054, 28.10107
546.6875, 28.51873
547.1696, 28.48103
547.6517, 27.62080
548.1339, 26.81284
548.6160, 27.04528
549.0981, 27.94786
549.5802, 28.47741
550.0623, 28.03689
550.5444, 27.60160
551.0266, 27.97729
551.5087, 28.81745
551.9908, 29.29704
552.4729, 29.15938
552.9550, 28.76659
553.4371, 28.54825
553.9193, 28.52321
554.4014, 28.57149
554.8835, 28.71043
555.3656, 28.89186
555.8477, 29.23202
556.3298, 29.56104
556.8120, 29.55057
557.2941, 29.09940
557.7762, 28.58219
558.2583, 28.59412
558.7404, 29.22153
559.2225, 29.64664
559.7047, 29.72591
560.1868, 29.75085
560.6689, 29.94529
561.1510, 30.16417
561.6331, 30.11722
562.1152, 29.61920
562.5974, 29.11500
563.0795, 29.03505
563.5616, 29.29415
564.0437, 29.62068
564.5258, 29.99142
565.0079, 30.29110
565.4901, 30.43375
565.9722, 30.40420
566.4543, 30.19919
566.9364, 29.33919
567.4185, 28.85049
567.9006, 29.57377
568.3828, 30.73464
568.8649, 31.13860
569.3470, 30.52192
569.8291, 29.63759
570.3112, 29.35316
570.7933, 29.70040
571.2755, 30.06224
571.7576, 30.47209
572.2397, 30.85514
572.7218, 31.26664
573.2039, 31.60864
573.6860, 31.73111
574.1682, 31.60370
574.6503, 31.44141
575.1324, 31.38087
575.6145, 31.44499
576.0966, 31.85031
576.5787, 32.76043
577.0609, 33.40445
577.5430, 33.14060
578.0251, 32.32194
578.5072, 31.83792
578.9893, 31.84821
579.4714, 31.87193
579.9536, 31.53289
580.4357, 31.20778
580.9178, 31.50449
581.3999, 32.40569
581.8820, 33.26587
582.3641, 33.60096
582.8463, 33.46969
583.3284, 33.20632
583.8105, 32.48838
584.2926, 32.11841
584.7747, 32.30864
585.2568, 32.73167
585.7390, 33.27944
586.2211, 33.84746
586.7032, 34.18128
587.1853, 33.98679
587.6674, 33.51030
588.1495, 33.52259
588.6317, 34.14680
589.1138, 34.46853
589.5959, 33.96912
590.0780, 33.25012
590.5601, 33.13467
591.0422, 33.60936
591.5244, 33.76358
592.0065, 32.84489
592.4886, 31.86002
592.9707, 31.88019
593.4528, 32.66255
593.9349, 33.24534
594.4171, 33.18696
594.8992, 32.86398
595.3813, 32.95695
595.8634, 33.69439
596.3455, 34.17218
596.8276, 34.40858
597.3098, 34.40767
597.7919, 34.02152
598.2740, 33.43769
598.7561, 32.89545
599.2382, 32.48230
599.7203, 32.31504
600.2025, 32.78786
600.6846, 33.86801
601.1667, 34.16248
601.6488, 33.17936
602.1309, 32.11087
602.6130, 31.90319
603.0952, 32.17611
603.5773, 32.15361
604.0594, 31.51147
604.5415, 30.99189
605.0236, 31.06749
605.5057, 31.46899
605.9879, 31.82673
606.4700, 32.06692
606.9521, 32.18718
607.4342, 32.14285
607.9163, 31.98942
608.3984, 32.17171
608.8806, 33.47786
609.3627, 34.00515
609.8448, 32.97509
610.3269, 31.59673
610.8090, 30.69286
611.2911, 30.36272
611.7733, 30.41341
612.2554, 30.88583
612.7375, 31.49195
613.2196, 31.44482
613.7017, 30.66208
614.1838, 30.05533
614.6660, 29.72232
615.1481, 29.89130
615.6302, 31.41788
616.1123, 34.16853
616.5944, 35.37346
617.0765, 33.11155
617.5587, 30.41837
618.0408, 29.21977
618.5229, 29.17526
619.0050, 29.48632
619.4871, 29.86070
619.9692, 30.20936
620.4514, 30.44835
620.9335, 30.62033
621.4156, 30.34810
621.8977, 28.87472
622.3798, 27.85953
622.8619, 28.02345
623.3441, 28.71583
623.8262, 29.21050
624.3083, 29.33210
624.7904, 29.34450
625.2725, 29.46104
625.7546, 29.63979
626.2367, 29.74125
626.7188, 29.74753
627.2009, 29.84035
627.6830, 30.22953
628.1652, 30.67477
628.6473, 30.54807
629.1294, 29.65087
629.6115, 28.93950
630.0936, 28.62081
630.5757, 28.47344
631.0579, 28.39983
631.5400, 28.35629
632.0221, 28.24912
632.5042, 28.02574
632.9863, 27.82794
633.4684, 27.96539
633.9506, 28.53021
634.4327, 28.97642
634.9148, 29.22773
635.3969, 29.41254
635.8790, 29.64320
636.3611, 29.84542
636.8433, 29.86819
637.3254, 29.62598
637.8075, 29.35509
638.2896, 29.27901
638.7717, 29.28019
639.2538, 29.00163
639.7360, 28.41876
640.2181, 28.17939
640.7002, 28.86564
641.1823, 30.14500
641.6644, 30.66274
642.1465, 29.64786
642.6287, 28.90378
643.1108, 28.60836
643.5929, 28.45419
644.0750, 28.17454
644.5571, 27.85191
645.0392, 27.80639
645.5214, 28.27572
646.0035, 28.90796
646.4856, 29.08065
646.9677, 28.79562
647.4498, 28.44783
647.9319, 27.96136
648.4141, 27.73267
648.8962, 28.43541
649.3783, 29.71255
649.8604, 30.16689
650.3425, 28.98272
650.8246, 27.92497
651.3068, 27.72139
651.7889, 28.00744
652.2710, 28.51486
652.7531, 29.09973
653.2352, 29.41831
653.7173, 29.16244
654.1995, 28.49216
654.6816, 28.05279
655.1637, 27.82670
655.6458, 27.87883
656.1279, 28.66341
656.6100, 29.35847
657.0922, 29.33113
657.5743, 28.78255
658.0564, 28.47036
658.5385, 28.86827
659.0206, 29.35781
659.5027, 29.37398
659.9849, 29.00726
660.4670, 28.41505
660.9491, 27.62212
661.4312, 26.96608
661.9133, 26.75492
662.3954, 26.96921
662.8776, 27.32786
663.3597, 28.10017
663.8418, 28.66179
664.3239, 28.78964
664.8060, 28.80939
665.2881, 29.06431
665.7703, 29.49090
666.2524, 29.69873
666.7345, 29.36272
667.2166, 28.78650
667.6987, 28.57775
668.1808, 28.72307
668.6630, 28.68486
669.1451, 28.25671
669.6272, 27.80632
670.1093, 27.69234
670.5914, 27.90034
671.0735, 28.13368
671.5557, 28.42281
672.0378, 28.69329
672.5199, 29.05136
673.0020, 29.29975
673.4841, 29.03262
673.9662, 28.34490
674.4484, 27.94486
674.9305, 28.47342
675.4126, 29.54995
675.8947, 29.78931
676.3768, 28.91376
676.8589, 28.45711
677.3411, 29.06044
677.8232, 29.79625
678.3053, 29.88789
678.7874, 29.48535
679.2695, 29.12481
679.7516, 28.92032
680.2338, 28.79695
680.7159, 28.67833
681.1980, 28.62488
681.6801, 28.84093
682.1622, 29.30330
682.6443, 29.57669
683.1265, 29.25100
683.6086, 28.50762
684.0907, 28.25677
684.5728, 28.76551
685.0549, 29.18246
685.5370, 29.24347
686.0192, 29.31568
686.5013, 29.78288
686.9834, 30.44182
687.4655, 30.66601
687.9476, 30.01783
688.4297, 29.23215
688.9119, 28.95141
689.3940, 29.03127
689.8761, 29.19251
690.3582, 29.38000
690.8403, 29.50591
691.3224, 29.50988
691.8046, 29.39235
692.2867, 29.13132
692.7688, 28.28053
693.2509, 28.02595
693.7330, 28.91289
694.2151, 29.90661
694.6973, 30.39704
695.1794, 30.49044
695.6615, 30.57190
696.1436, 30.82156
696.6257, 31.06287
697.1078, 31.18263
697.5900, 31.13733
698.0721, 30.57202
698.5542, 29.37839
699.0363, 28.64768
699.5184, 29.30185
700.0005, 30.84980
700.4827, 31.55512
700.9648, 30.73475
701.4469, 30.16337
701.9290, 30.05909
702.4111, 30.02415
702.8932, 29.70062
703.3754, 29.28543
703.8575, 29.29761
704.3396, 29.98346
704.8217, 30.69917
705.3038, 30.50051
705.7859, 29.61683
706.2681, 29.19547
706.7502, 29.38231
707.2323, 29.64640
707.7144, 29.69858
708.1965, 29.63662
708.6786, 29.68529
709.1607, 29.86967
709.6428, 30.08334
710.1249, 30.50865
710.6071, 30.77389
711.0892, 30.52034
711.5713, 30.00580
712.0534, 29.60441
712.5355, 29.45604
713.0176, 29.62253
713.4998, 30.50385
713.9819, 31.83843
714.4640, 32.02074
714.9461, 30.82075
715.4282, 29.83552
715.9103, 29.75329
716.3925, 30.21778
716.8746, 30.78366
717.3567, 31.48318
717.8388, 31.99091
718.3209, 32.36299
718.8030, 32.44364
719.2852, 31.85683
719.7673, 31.07132
720.2494, 30.77926
720.7315, 31.09374
721.2136, 31.50222
721.6957, 31.51226
722.1779, 31.25477
722.6600, 31.20975
723.1421, 31.40030
723.6242, 31.61544
724.1063, 31.85726
724.5884, 32.00420
725.0706, 31.86516
725.5527, 31.46606
726.0348, 31.17774
726.5169, 31.03567
726.9990, 30.98608
727.4811, 31.04409
727.9633, 31.16443
728.4454, 31.48614
728.9275, 31.87040
729.4096, 31.70477
729.8917, 30.40975
730.3738, 28.73459
730.8560, 28.40437
731.3381, 29.46194
731.8202, 30.37990
732.3023, 30.86569
732.7844, 31.32041
733.2665, 32.26519
733.7487, 33.39107
734.2308, 33.54545
734.7129, 32.00215
735.1950, 30.86967
735.6771, 30.88211
736.1592, 31.19668
736.6414, 31.16993
737.1235, 30.87680
737.6056, 30.66346
738.0877, 30.68497
738.5698, 30.84159
739.0519, 31.07892
739.5341, 31.36364
740.0162, 31.36191
740.4983, 31.01098
740.9804, 30.57980
741.4625, 30.13614
741.9446, 29.74419
742.4268, 29.52447
742.9089, 29.47704
743.3910, 29.56594
743.8731, 29.98559
744.3552, 30.32767
744.8373, 30.33638
745.3195, 30.17123
745.8016, 30.10126
746.2837, 30.16732
746.7658, 30.12434
747.2479, 29.61247
747.7300, 28.90466
748.2122, 28.85747
748.6943, 29.48318
749.1764, 29.95980
749.6585, 30.04891
750.1406, 29.93115
750.6227, 29.73236
751.1049, 29.46087
751.5870, 29.34966
752.0691, 29.63020
752.5512, 29.74586
753.0333, 29.42661
753.5154, 29.03849
753.9976, 28.92214
754.4797, 29.02269
754.9618, 29.01993
755.4439, 28.69187
755.9260, 28.40421
756.4081, 28.89080
756.8903, 29.86703
757.3724, 30.00727
757.8545, 29.10463
758.3366, 28.19080
758.8187, 27.87967
759.3008, 28.01194
759.7830, 28.20359
760.2651, 28.51806
760.7472, 28.74170
761.2293, 28.97956
761.7114, 29.01733
762.1935, 28.59879
762.6757, 28.00715
763.1578, 27.60467
763.6399, 27.47534
764.1220, 27.47584
764.6041, 27.53257
765.0862, 27.64051
765.5684, 27.92895
766.0505, 28.29897
766.5326, 28.12097
767.0147, 27.15457
767.4968, 26.31341
767.9789, 26.74801
768.4611, 28.36671
768.9432, 28.88911
769.4253, 27.46515
769.9074, 26.39687
770.3895, 26.20059
770.8716, 26.30631
771.3538, 26.44579
771.8359, 26.57672
772.3180, 26.63720
772.8001, 26.52645
773.2822, 26.50762
773.7643, 26.88959
774.2465, 27.40946
774.7286, 27.70962
775.2107, 27.75561
775.6928, 27.58419
776.1749, 27.19454
776.6570, 26.78957
777.1392, 26.84368
777.6213, 27.47081
778.1034, 27.72074
778.5855, 27.47065
779.0676, 27.05607
779.5497, 26.30489
780.0319, 25.66253
780.5140, 25.87780
780.9961, 27.04456
781.4782, 27.78733
781.9603, 27.39535
782.4424, 26.89449
782.9246, 26.92795
783.4067, 27.20830
783.8888, 27.30589
784.3709, 27.13353
784.8530, 26.82746
785.3351, 26.46287
785.8173, 26.09244
786.2994, 25.86571
786.7815, 25.78371
787.2636, 25.67545
787.7457, 25.45797
788.2278, 25.40059
788.7100, 25.82287
789.1921, 26.54338
789.6742, 26.81728
790.1563, 26.27875
790.6384, 25.98993
791.1205, 26.07286
791.6026, 26.35275
792.0847, 27.02605
792.5668, 27.72620
793.0490, 27.76394
793.5311, 26.95194
794.0132, 26.14303
794.4953, 26.16640
794.9774, 26.59085
795.4595, 26.57092
795.9417, 26.19662
796.4238, 26.17549
796.9059, 26.76365
797.3880, 27.39035
797.8701, 27.42936
798.3522, 26.90778
798.8344, 26.23444
799.3165, 24.97690
799.7986, 24.39597
800.2807, 25.41473
800.7628, 26.52198
801.2449, 26.76808
801.7271, 26.38949
802.2092, 26.08916
802.6913, 26.04651
803.1734, 26.05768
803.6555, 25.91117
804.1376, 25.84475
804.6198, 26.25264
805.1019, 26.97142
805.5840, 27.52889
806.0661, 27.71476
806.5482, 27.59731
807.0303, 27.11011
807.5125, 26.33651
807.9946, 26.20396
808.4767, 26.87314
808.9588, 27.25284
809.4409, 26.86393
809.9230, 26.22803
810.4052, 25.89320
810.8873, 25.86516
811.3694, 25.94711
811.8515, 26.38941
812.3336, 26.60019
812.8157, 26.14938
813.2979, 25.68284
813.7800, 25.87790
814.2621, 26.50134
814.7442, 26.78042
815.2263, 26.33931
815.7084, 25.74773
816.1906, 25.56260
816.6727, 25.62777
817.1548, 25.65310
817.6369, 25.61368
818.1190, 25.54755
818.6011, 25.48049
819.0833, 25.28805
819.5654, 24.71379
820.0475, 23.72499
820.5296, 23.33052
821.0117, 23.88503
821.4938, 24.29570
821.9760, 23.99398
822.4581, 23.69707
822.9402, 24.19638
823.4223, 25.26927
823.9044, 25.83749
824.3865, 25.27904
824.8687, 24.82128
825.3508, 24.88731
825.8329, 25.31001
826.3150, 26.32128
826.7971, 27.51861
827.2792, 27.81058
827.7614, 26.70345
828.2435, 25.29188
828.7256, 24.97657
829.2077, 25.47951
829.6898, 25.77807
830.1719, 25.84280
830.6541, 25.75962
831.1362, 25.52458
831.6183, 25.27394
832.1004, 25.14305
832.5825, 25.13315
833.0646, 25.37418
833.5468, 26.23148
834.0289, 26.76291
834.5110, 26.71622
834.9931, 26.46209
835.4752, 26.24807
835.9573, 26.01110
836.4395, 25.47773
836.9216, 24.38085
837.4037, 23.65336
837.8858, 24.17648
838.3679, 25.01149
838.8500, 25.09909
839.3322, 24.66351
839.8143, 24.47576
840.2964, 24.78898
840.7785, 25.19212
841.2606, 25.20424
841.7427, 24.94815
842.2249, 24.88050
842.7070, 25.00039
843.1891, 25.42963
843.6712, 26.38015
844.1533, 27.00348
844.6354, 26.35920
845.1176, 24.81493
845.5997, 24.19174
846.0818, 25.33131
846.5639, 26.07062
847.0460, 26.25111
847.5281, 26.22003
848.0103, 26.05936
848.4924, 25.82764
848.9745, 25.54052
849.4566, 25.20180
849.9387, 25.04285
850.4208, 25.42261
850.9030, 25.81642
851.3851, 25.65330
851.8672, 25.17985
852.3493, 24.85729
852.8314, 24.78431
853.3135, 24.85713
853.7957, 25.02872
854.2778, 25.19940
854.7599, 25.09707
855.2420, 24.72893
855.7241, 24.45036
856.2062, 24.28990
856.6884, 24.28958
857.1705, 24.56729
857.6526, 24.88798
858.1347, 24.74140
858.6168, 23.89007
859.0989, 23.65524
859.5811, 24.73515
860.0632, 25.51195
860.5453, 25.45070
861.0274, 25.06268
861.5095, 24.74665
861.9916, 24.53263
862.4738, 24.33385
862.9559, 24.07418
863.4380, 23.90748
863.9201, 24.12073
864.4022, 24.35804
864.8843, 24.00746
865.3665, 23.27059
865.8486, 22.91847
866.3307, 23.26944
866.8128, 23.88373
867.2949, 24.27374
867.7770, 24.46595
868.2592, 24.66095
868.7413, 24.86414
869.2234, 24.43546
869.7055, 22.99219
870.1876, 21.77324
870.6697, 22.07973
871.1519, 23.56752
871.6340, 24.27860
872.1161, 23.69939
872.5981, 23.32888
873.0803, 23.29216
873.5624, 23.41012
874.0445, 23.81150
874.5266, 24.23150
875.0087, 24.22194
875.4908, 23.69716
875.9730, 23.32392
876.4551, 23.53692
876.9372, 23.74491
877.4193, 23.53847
877.9014, 23.13021
878.3835, 22.73419
878.8657, 22.43589
879.3478, 22.37259
879.8299, 22.67790
880.3120, 23.04826
880.7941, 22.98230
881.2762, 22.64216
881.7584, 22.60195
882.2405, 22.87720
882.7226, 23.04416
883.2047, 22.90110
883.6868, 22.68033
884.1689, 22.70300
884.6511, 22.96097
885.1332, 23.22314
885.6153, 23.58340
886.0974, 23.66163
886.5795, 23.12538
887.0616, 22.62074
887.5438, 22.69237
888.0259, 23.17951
888.5080, 23.63180
888.9901, 24.20094
889.4722, 24.34336
889.9543, 23.61344
890.4365, 22.83975
890.9186, 22.42069
891.4007, 22.24431
891.8828, 22.12793
892.3649, 22.04420
892.8470, 22.09324
893.3292, 22.48250
893.8113, 22.83774
894.2934, 22.65804
894.7755, 22.25463
895.2576, 22.28002
895.7397, 22.68539
896.2219, 22.79868
896.7040, 22.25775
897.1861, 21.55243
897.6682, 21.45040
898.1503, 21.87009
898.6324, 22.21025
899.1146, 22.48005
899.5967, 22.42187
900.0788, 21.86975
900.5609, 21.27425
901.0430, 21.06772
901.5251, 21.20427
902.0073, 21.40685
902.4894, 21.73797
902.9715, 22.01054
903.4536, 22.29831
903.9357, 22.42571
904.4178, 22.19125
904.9000, 21.81640
905.3821, 21.62531
905.8642, 21.65516
906.3463, 21.62129
906.8284, 21.27255
907.3105, 21.06686
907.7927, 21.35734
908.2748, 21.79497
908.7569, 22.03695
909.2390, 22.07638
909.7211, 22.05260
910.2032, 22.01907
910.6854, 21.98505
911.1675, 22.03479
911.6496, 22.04685
912.1317, 21.68210
912.6138, 21.09256
913.0959, 20.88209
913.5781, 21.20807
914.0602, 21.59934
914.5423, 21.61718
915.0244, 21.36713
915.5065, 21.06945
915.9886, 20.72077
916.4708, 20.91354
916.9529, 21.86214
917.4350, 22.56055
917.9171, 22.38284
918.3992, 21.78423
918.8813, 21.60771
919.3635, 21.97063
919.8456, 21.81383
920.3277, 20.60536
920.8098, 19.75087
921.2919, 19.49779
921.7740, 19.74551
922.2562, 20.84780
922.7383, 22.38982
923.2204, 23.11947
923.7025, 22.60831
924.1846, 22.01944
924.6667, 21.49308
925.1489, 21.12223
925.6310, 21.07798
926.1131, 21.16425
926.5952, 21.11947
927.0773, 20.91068
927.5594, 20.66428
928.0416, 20.35630
928.5237, 20.19399
929.0058, 20.56723
929.4879, 21.10379
929.9700, 21.07491
930.4521, 20.61651
930.9343, 20.52791
931.4164, 21.13210
931.8985, 21.82436
932.3806, 21.86597
932.8627, 21.44374
933.3448, 21.17225
933.8270, 21.03059
934.3091, 20.65206
934.7912, 19.92513
935.2733, 19.64929
935.7554, 20.49663
936.2375, 21.91034
936.7197, 22.41733
937.2018, 21.69686
937.6839, 22.03405
938.1660, 24.01652
938.6481, 25.60734
939.1302, 26.32348
939.6124, 26.14613
940.0945, 24.62878
940.5766, 22.00759
941.0587, 20.50684
941.5408, 20.94894
942.0229, 21.19936
942.5051, 20.96871
942.9872, 20.73591
943.4693, 20.65072
943.9514, 20.74832
944.4335, 21.24163
944.9156, 22.11253
945.3978, 22.46848
945.8799, 21.52907
946.3620, 20.58512
946.8441, 20.21868
947.3262, 20.23585
947.8083, 20.64243
948.2905, 21.22099
948.7726, 21.53791
949.2547, 21.43292
949.7368, 21.10216
950.2189, 20.48069
950.7010, 19.89705
951.1832, 19.82097
951.6653, 20.13592
952.1474, 20.68200
952.6295, 21.33865
953.1116, 21.69911
953.5938, 21.48665
954.0759, 20.95428
954.5580, 20.32180
955.0400, 19.71135
955.5222, 20.02651
956.0043, 21.26188
956.4864, 21.86584
956.9685, 21.28320
957.4506, 20.42333
957.9327, 20.18102
958.4149, 20.38455
958.8970, 20.26258
959.3791, 19.67955
959.8612, 19.47665
960.3433, 19.81310
960.8254, 20.26996
961.3076, 20.72041
961.7897, 21.11628
962.2718, 21.43463
962.7539, 21.68096
963.2360, 21.56169
963.7181, 20.66195
964.2003, 20.03900
964.6824, 19.81170
965.1645, 19.85004
965.6466, 20.29119
966.1287, 20.87203
966.6108, 21.16879
967.0930, 21.13708
967.5751, 20.90735
968.0572, 20.15047
968.5393, 19.64941
969.0214, 20.02654
969.5035, 20.54146
969.9857, 20.45925
970.4678, 19.93138
970.9499, 19.36764
971.4320, 18.79698
971.9141, 18.99629
972.3962, 21.65613
972.8784, 24.08596
973.3605, 23.31111
973.8426, 20.97950
974.3247, 19.72109
974.8068, 19.81371
975.2889, 20.12323
975.7711, 20.05935
976.2532, 19.83383
976.7353, 19.51515
977.2174, 19.28373
977.6995, 19.61146
978.1816, 20.33380
978.6638, 20.84365
979.1459, 20.97608
979.6280, 20.90173
980.1101, 20.74615
980.5922, 20.51525
981.0743, 20.17377
981.5565, 19.75787
982.0386, 19.41792
982.5207, 19.17524
983.0028, 19.41797
983.4849, 20.35174
983.9670, 21.25558
984.4492, 21.30041
984.9313, 20.68091
985.4134, 20.30740
985.8955, 20.20893
986.3776, 20.14724
986.8597, 20.10000
987.3419, 20.10367
987.8240, 20.23899
988.3061, 20.30425
988.7882, 19.93078
989.2703, 19.12465
989.7524, 18.86367
990.2346, 19.43165
990.7167, 19.93822
991.1988, 20.50869
991.6809, 20.65714
992.1630, 19.72990
992.6451, 18.40273
993.1273, 17.89128
993.6094, 18.28150
994.0915, 18.85168
994.5736, 19.71229
995.0557, 20.58891
995.5378, 21.96057
996.0200, 22.81429
996.5021, 21.99734
996.9842, 20.31453
997.4663, 19.39417
997.9484, 19.52688
998.4305, 19.85523
998.9127, 20.40604
999.3948, 20.81327
999.8769, 20.84853
1000.359, 20.72344
1000.841, 20.58923
1001.323, 20.47518
1001.805, 20.36019
1002.287, 20.21378
1002.770, 20.26252
1003.252, 20.88414
1003.734, 21.46264
1004.216, 21.52546
1004.698, 21.28779
1005.180, 21.00135
1005.662, 20.72134
1006.144, 20.42692
1006.627, 20.09189
1007.109, 19.86270
1007.591, 19.92322
1008.073, 20.10285
1008.555, 20.26600
1009.037, 20.36998
1009.519, 20.23306
1010.001, 19.93097
1010.483, 19.98079
1010.966, 20.74275
1011.448, 21.50203
1011.930, 21.20437
1012.412, 20.40503
1012.894, 20.24092
1013.376, 20.56030
1013.858, 20.74055
1014.340, 20.63548
1014.823, 20.38772
1015.305, 20.07041
1015.787, 19.81430
1016.269, 20.01184
1016.751, 20.44563
1017.233, 20.09282
1017.715, 19.06378
1018.197, 18.53423
1018.679, 18.82901
1019.162, 19.29723
1019.644, 19.39527
1020.126, 19.36173
1020.608, 19.93155
1021.090, 21.00539
1021.572, 20.96335
1022.054, 19.69428
1022.536, 19.29817
1023.018, 20.54671
1023.501, 21.96251
1023.983, 22.23302
1024.465, 21.64139
1024.947, 20.99056
1025.429, 20.25853
1025.911, 19.74416
1026.393, 19.44748
1026.875, 19.48989
1027.358, 20.05557
1027.840, 20.49912
1028.322, 20.12680
1028.804, 19.17117
1029.286, 18.59378
1029.768, 18.44731
1030.250, 18.45415
1030.732, 18.60135
1031.214, 18.96109
1031.697, 19.75361
1032.179, 20.40939
1032.661, 20.22045
1033.143, 19.42583
1033.625, 19.28879
1034.107, 20.27703
1034.589, 20.72310
1035.071, 20.30795
1035.553, 19.90652
1036.036, 19.82576
1036.518, 19.88758
1037.000, 19.95056
1037.482, 20.00424
1037.964, 19.98995
1038.446, 19.95030
1038.928, 19.74994
1039.410, 19.00802
1039.893, 18.62313
1040.375, 19.01007
1040.857, 19.79646
1041.339, 20.98226
1041.821, 22.34527
1042.303, 22.60350
1042.785, 20.92403
1043.267, 19.72629
1043.750, 19.25057
1044.232, 19.09234
1044.714, 19.27296
1045.196, 19.58420
1045.678, 19.94300
1046.160, 20.27399
1046.642, 20.24091
1047.124, 19.42294
1047.606, 19.12473
1048.089, 19.99299
1048.571, 20.82635
1049.053, 21.35052
1049.535, 21.45419
1050.017, 20.73758
1050.499, 19.49754
1050.981, 18.87891
1051.463, 19.26058
1051.945, 19.73360
1052.428, 20.36246
1052.910, 20.73571
1053.392, 20.46672
1053.874, 20.01134
1054.356, 19.80283
1054.838, 19.81832
1055.320, 19.87820
1055.802, 20.02166
1056.285, 19.94372
1056.767, 19.22640
1057.249, 18.66790
1057.731, 18.88233
1058.213, 19.26798
1058.695, 19.08164
1059.177, 18.53321
1059.659, 18.47285
1060.141, 19.25925
1060.624, 19.75170
1061.106, 19.16819
1061.588, 18.66241
1062.070, 18.98206
1062.552, 19.53655
1063.034, 19.81561
1063.516, 19.78719
1063.998, 19.44063
1064.480, 18.68367
1064.963, 18.33294
1065.445, 19.15878
1065.927, 19.92530
1066.409, 19.93602
1066.891, 19.62114
1067.373, 19.28767
1067.855, 19.02232
1068.337, 18.90113
1068.820, 18.94514
1069.302, 19.07601
1069.784, 19.32261
1070.266, 19.57054
1070.748, 19.67659
1071.230, 19.82949
1071.712, 20.41438
1072.194, 21.12057
1072.677, 21.23568
1073.159, 20.61650
1073.641, 19.99853
1074.123, 19.67597
1074.605, 19.46458
1075.087, 19.27810
1075.569, 19.15487
1076.051, 19.11540
1076.533, 19.17022
1077.016, 19.41351
1077.498, 19.82607
1077.980, 20.01481
1078.462, 19.62529
1078.944, 19.25201
1079.426, 19.42490
1079.908, 19.49317
1080.390, 18.49240
1080.872, 17.24273
1081.354, 17.29714
1081.837, 18.66867
1082.319, 19.57214
1082.801, 19.04288
1083.283, 18.50478
1083.765, 18.68668
1084.247, 19.03183
1084.729, 19.27917
1085.211, 19.34606
1085.694, 19.05424
1086.176, 18.48880
1086.658, 18.09565
1087.140, 18.07670
1087.622, 18.08518
1088.104, 17.85304
1088.586, 17.73704
1089.068, 18.00532
1089.551, 18.48617
1090.033, 19.10758
1090.515, 19.74362
1090.997, 20.04915
1091.479, 19.87306
1091.961, 19.64462
1092.443, 19.58737
1092.925, 19.44395
1093.407, 18.82868
1093.890, 18.27352
1094.372, 18.44576
1094.854, 19.07932
1095.336, 19.38957
1095.818, 19.16566
1096.300, 19.13251
1096.782, 19.55544
1097.264, 20.16296
1097.746, 21.29166
1098.229, 22.14718
1098.711, 21.93523
1099.193, 21.06215
1099.675, 20.24976
1100.157, 19.60310
1100.639, 19.16103
1101.121, 19.20622
1101.603, 19.07010
1102.086, 18.19155
1102.568, 17.48427
1103.050, 17.72497
1103.532, 18.36791
1104.014, 18.61853
1104.496, 18.45566
1104.978, 18.38174
1105.460, 18.56107
1105.943, 18.69618
1106.425, 18.60358
1106.907, 18.62297
1107.389, 19.13901
1107.871, 19.66817
1108.353, 19.63717
1108.835, 19.14587
1109.317, 18.73467
1109.799, 18.43346
1110.281, 18.23681
1110.764, 18.02142
1111.246, 18.07569
1111.728, 18.75421
1112.210, 19.48323
1112.692, 19.91576
1113.174, 20.03225
1113.656, 19.68673
1114.138, 18.64279
1114.621, 18.22367
1115.103, 18.88988
1115.585, 19.43741
1116.067, 19.76826
1116.549, 19.80035
1117.031, 19.20366
1117.513, 18.50566
1117.995, 18.73685
1118.478, 19.91807
1118.960, 20.04080
1119.442, 18.34480
1119.924, 17.43376
1120.406, 17.90069
1120.888, 18.40964
1121.370, 18.43192
1121.852, 18.14722
1122.334, 17.65165
1122.817, 17.05689
1123.299, 17.04885
1123.781, 17.87570
1124.263, 18.21482
1124.745, 17.88215
1125.227, 17.60988
1125.709, 17.61488
1126.191, 17.76997
1126.673, 17.99630
1127.156, 18.25131
1127.638, 18.42529
1128.120, 18.51377
1128.602, 18.64828
1129.084, 18.84269
1129.566, 18.93094
1130.048, 18.87814
1130.530, 18.71368
1131.013, 18.43763
1131.495, 18.14225
1131.977, 17.93055
1132.459, 17.83832
1132.941, 18.17162
1133.423, 18.87611
1133.905, 19.05481
1134.387, 18.64165
1134.870, 18.52547
1135.352, 19.05670
1135.834, 19.39691
1136.316, 18.62207
1136.798, 17.45277
1137.280, 17.50643
1137.762, 18.46078
1138.244, 19.37266
1138.726, 20.09612
1139.208, 20.07477
1139.691, 19.31119
1140.173, 18.90215
1140.655, 19.57612
1141.137, 20.49562
1141.619, 20.69034
1142.101, 20.35075
1142.583, 19.62202
1143.065, 18.69606
1143.548, 17.82687
1144.030, 17.16958
1144.512, 17.14535
1144.994, 17.88493
1145.476, 18.64871
1145.958, 18.82307
1146.440, 18.77647
1146.922, 18.86527
1147.405, 18.96429
1147.887, 19.00375
1148.369, 18.89070
1148.851, 18.24628
1149.333, 17.18341
1149.815, 16.76876
1150.297, 17.75942
1150.779, 18.78995
1151.261, 19.15693
1151.744, 19.16324
1152.226, 18.94995
1152.708, 18.55877
1153.190, 17.82287
1153.672, 16.95982
1154.154, 16.61222
1154.636, 16.99076
1155.118, 17.38851
1155.600, 17.55656
1156.083, 17.76673
1156.565, 18.26682
1157.047, 18.68530
1157.529, 18.66912
1158.011, 18.44815
1158.493, 18.42025
1158.975, 18.60089
1159.457, 18.67468
1159.940, 18.37365
1160.422, 18.38249
1160.904, 19.13601
1161.386, 19.58993
1161.868, 19.16318
1162.350, 18.55913
1162.832, 18.37058
1163.314, 18.52616
1163.796, 18.84189
1164.279, 19.38666
1164.761, 19.69473
1165.243, 19.72213
1165.725, 19.62967
1166.207, 19.37208
1166.689, 19.31674
1167.171, 19.78823
1167.653, 20.21862
1168.135, 19.71946
1168.618, 18.50375
1169.100, 17.72130
1169.582, 17.37324
1170.064, 17.44194
1170.546, 17.91837
1171.028, 18.46657
1171.510, 18.97506
1171.992, 19.29178
1172.474, 19.27107
1172.957, 19.11088
1173.439, 19.17683
1173.921, 19.37525
1174.403, 19.47999
1174.885, 19.46399
1175.367, 19.15051
1175.849, 18.61373
1176.331, 18.31153
1176.814, 18.43934
1177.296, 18.78494
1177.778, 19.36219
1178.260, 19.78844
1178.742, 19.46318
1179.224, 18.82772
1179.706, 18.32373
1180.188, 18.05926
1180.671, 18.27781
1181.153, 18.88881
1181.635, 19.24662
1182.117, 18.96731
1182.599, 18.77595
1183.081, 19.37857
1183.563, 19.81391
1184.045, 19.24805
1184.527, 18.42349
1185.010, 18.09328
1185.492, 18.10914
1185.974, 17.86063
1186.456, 17.21393
1186.938, 17.29927
1187.420, 19.57412
1187.902, 20.65089
1188.384, 18.66997
1188.866, 17.02402
1189.349, 17.45281
1189.831, 18.65104
1190.313, 19.49942
1190.795, 19.94734
1191.277, 19.72044
1191.759, 18.56596
1192.241, 17.84564
1192.723, 17.58342
1193.206, 17.78486
1193.688, 18.65286
1194.170, 19.12096
1194.652, 18.45576
1195.134, 17.46900
1195.616, 17.28771
1196.098, 17.78009
1196.580, 18.57510
1197.063, 19.59271
1197.545, 20.01168
1198.027, 19.81396
1198.509, 19.42826
1198.991, 18.99021
1199.473, 18.43177
1199.955, 17.65696
1200.437, 17.16163
1200.919, 17.92869
1201.401, 19.17489
1201.884, 19.62885
1202.366, 19.47405
1202.848, 18.85657
1203.330, 18.05137
1203.812, 17.77272
1204.294, 18.16324
1204.776, 18.33396
1205.258, 17.44206
1205.741, 16.83650
1206.223, 17.69168
1206.705, 18.83324
1207.187, 19.52051
1207.669, 19.84532
1208.151, 19.85192
1208.633, 19.67297
1209.115, 19.66649
1209.598, 19.94636
1210.080, 20.07652
1210.562, 20.02880
1211.044, 19.77082
1211.526, 18.99571
1212.008, 18.38151
1212.490, 18.26764
1212.972, 18.45271
1213.454, 18.79548
1213.937, 19.21337
1214.419, 19.28746
1214.901, 18.95365
1215.383, 18.52189
1215.865, 17.89733
1216.347, 17.89917
1216.829, 18.81659
1217.311, 19.37626
1217.793, 18.77708
1218.276, 17.92033
1218.758, 18.05207
1219.240, 18.79825
1219.722, 19.17015
1220.204, 19.22775
1220.686, 19.01788
1221.168, 18.69891
1221.650, 18.93936
1222.133, 19.77595
1222.615, 20.39284
1223.097, 20.32526
1223.579, 19.98611
1224.061, 19.53197
1224.543, 19.21588
1225.025, 19.36302
1225.507, 19.73054
1225.990, 20.24924
1226.472, 20.66199
1226.954, 20.44655
1227.436, 19.59733
1227.918, 18.88960
1228.400, 18.64616
1228.882, 18.35308
1229.364, 17.51390
1229.846, 17.09871
1230.328, 18.17600
1230.811, 19.10259
1231.293, 18.22476
1231.775, 16.64025
1232.257, 16.51288
1232.739, 17.82815
1233.221, 18.37537
1233.703, 17.90033
1234.185, 17.80515
1234.668, 18.24106
1235.150, 18.86988
1235.632, 19.63528
1236.114, 20.08728
1236.596, 19.83954
1237.078, 19.25464
1237.560, 18.95350
1238.042, 18.83615
1238.525, 18.50297
1239.007, 18.07308
1239.489, 17.94238
1239.971, 18.09493
1240.453, 18.28199
1240.935, 18.43624
1241.417, 18.70864
1241.899, 19.25995
1242.381, 19.72094
1242.864, 19.72643
1243.346, 19.60250
1243.828, 19.53022
1244.310, 19.55417
1244.792, 19.77908
1245.274, 20.10423
1245.756, 20.41335
1246.238, 20.68072
1246.720, 20.42714
1247.203, 18.92040
1247.685, 17.97126
1248.167, 18.04313
1248.649, 18.16791
1249.131, 18.01155
1249.613, 17.89636
1250.095, 18.10964
1250.577, 18.45552
1251.059, 18.49087
1251.542, 18.28017
1252.024, 18.77428
1252.506, 19.96532
1252.988, 20.37748
1253.470, 19.90782
1253.952, 19.18822
1254.434, 18.46286
1254.916, 18.21088
1255.399, 18.83378
1255.881, 19.52869
1256.363, 19.01237
1256.845, 18.18937
1257.327, 18.52757
1257.809, 19.34566
1258.291, 19.72126
1258.773, 19.61753
1259.255, 19.06446
1259.738, 18.19520
1260.220, 17.68505
1260.702, 17.85720
1261.184, 18.17200
1261.666, 18.35631
1262.148, 18.78684
1262.630, 20.29273
1263.112, 21.36648
1263.594, 20.40675
1264.077, 18.78394
1264.559, 18.64557
1265.041, 19.74006
1265.523, 19.79280
1266.005, 18.46869
1266.487, 18.22980
1266.969, 19.29901
1267.451, 19.92604
1267.934, 19.68995
1268.416, 19.26529
1268.898, 19.02617
1269.380, 18.79516
1269.862, 18.30203
1270.344, 17.78124
1270.826, 17.51225
1271.308, 17.61735
1271.791, 18.71754
1272.273, 20.21029
1272.755, 20.75504
1273.237, 20.35677
1273.719, 19.97420
1274.201, 19.93114
1274.683, 19.92887
1275.165, 19.90115
1275.647, 19.78983
1276.130, 19.62894
1276.612, 19.31261
1277.094, 18.25482
1277.576, 17.47715
1278.058, 18.50122
1278.540, 20.44486
1279.022, 20.72757
1279.504, 19.16979
1279.986, 18.51342
1280.469, 18.83135
1280.951, 19.80289
1281.433, 21.48379
1281.915, 22.05497
1282.397, 20.85348
1282.879, 19.59120
1283.361, 19.63910
1283.843, 20.18164
1284.326, 20.25425
1284.808, 19.85351
##END=



