##NAMES=Paravauxite
##RRUFFID=R050577
##IDEAL CHEMISTRY=Fe^2+^Al_2_(PO_4_)_2_(OH)_2_&#183;8H_2_O
##LOCALITY=Llallagua, Bolivia
##OWNER=RRUFF
##SOURCE=University of Arizona Mineral Museum
##DESCRIPTION=Colorless bladed crystal
##STATUS=The identification of this mineral has been confirmed by X-ray diffraction and chemical analysis
##URL=rruff.info/R050577
##MEASURED CHEMISTRY=(Fe^2+^_0.93_Mg_0.04_Mn_0.03_)Al_2_(PO_4_)_2_((OH)_0.93_F_0.07_)_2_Î‡8H_2_O
92.06543, 202.3864
92.54755, 203.4872
93.02966, 204.7301
93.51178, 203.1204
93.99390, 200.8456
94.47601, 198.9661
94.95813, 197.5186
95.44025, 196.0905
95.92236, 194.3959
96.40448, 192.3760
96.88660, 189.9826
97.36871, 186.5981
97.85082, 183.5089
98.33294, 181.8497
98.81506, 181.6459
99.29717, 181.3593
99.77929, 180.0981
100.2614, 178.0453
100.7435, 175.7414
101.2256, 172.7402
101.7078, 169.5316
102.1899, 167.3779
102.6720, 166.8124
103.1541, 166.9990
103.6362, 167.0641
104.1183, 167.0029
104.6005, 166.9387
105.0826, 166.9405
105.5647, 166.9911
106.0468, 167.1766
106.5289, 167.5320
107.0110, 167.9547
107.4931, 168.4667
107.9753, 169.0667
108.4574, 169.5981
108.9395, 169.6650
109.4216, 168.4527
109.9037, 168.0935
110.3858, 169.1856
110.8680, 170.9971
111.3501, 172.6978
111.8322, 173.8195
112.3143, 174.5469
112.7964, 176.1521
113.2785, 179.3823
113.7607, 182.6072
114.2428, 185.4379
114.7249, 187.9247
115.2070, 190.3420
115.6891, 192.9177
116.1712, 195.6194
116.6534, 197.8011
117.1355, 198.8910
117.6176, 199.8911
118.0997, 201.5207
118.5818, 203.8483
119.0639, 206.6402
119.5461, 209.7797
120.0282, 213.2247
120.5103, 216.9610
120.9924, 220.9141
121.4745, 225.1499
121.9566, 230.0045
122.4388, 236.0253
122.9209, 241.8223
123.4030, 246.5748
123.8851, 250.3882
124.3672, 253.6758
124.8493, 256.1457
125.3315, 257.6342
125.8136, 260.7541
126.2957, 267.5604
126.7778, 274.7031
127.2599, 281.2491
127.7420, 286.8714
128.2242, 291.5113
128.7063, 294.7662
129.1884, 295.2582
129.6705, 297.2827
130.1526, 302.7750
130.6347, 308.4237
131.1169, 311.5304
131.5990, 311.2606
132.0811, 308.9457
132.5632, 307.4909
133.0453, 307.5432
133.5274, 307.7282
134.0096, 308.5507
134.4917, 309.3644
134.9738, 309.1826
135.4559, 307.4835
135.9380, 304.6290
136.4201, 301.8343
136.9023, 298.7209
137.3844, 296.1066
137.8665, 294.9310
138.3486, 294.8161
138.8307, 293.9382
139.3128, 290.8760
139.7950, 286.5021
140.2771, 282.9844
140.7592, 280.5795
141.2413, 278.9015
141.7234, 277.7886
142.2055, 277.3896
142.6877, 276.8031
143.1698, 275.8349
143.6519, 274.3302
144.1340, 271.8781
144.6161, 267.9339
145.0982, 263.1553
145.5803, 259.2704
146.0625, 256.6998
146.5446, 254.4452
147.0267, 252.1981
147.5088, 249.9565
147.9909, 247.7622
148.4730, 245.7298
148.9552, 243.8161
149.4373, 241.2650
149.9194, 237.4885
150.4015, 233.5201
150.8836, 229.3347
151.3657, 225.1379
151.8479, 221.2332
152.3300, 217.9400
152.8121, 215.3073
153.2942, 212.8728
153.7763, 210.4136
154.2584, 208.2652
154.7406, 206.9805
155.2227, 206.3955
155.7048, 205.4939
156.1869, 202.9953
156.6690, 198.1167
157.1511, 194.6089
157.6333, 193.3353
158.1154, 192.9088
158.5975, 192.2306
159.0796, 191.0734
159.5617, 189.5878
160.0438, 187.6828
160.5260, 185.2549
161.0081, 183.7006
161.4902, 183.8027
161.9723, 184.9295
162.4544, 185.9543
162.9365, 186.6001
163.4187, 187.1309
163.9008, 187.8052
164.3829, 188.6094
164.8650, 189.5596
165.3471, 190.6393
165.8292, 191.8593
166.3113, 193.2715
166.7935, 194.8464
167.2756, 196.7043
167.7577, 199.2353
168.2398, 202.4003
168.7219, 205.1646
169.2040, 206.3056
169.6862, 205.5581
170.1683, 204.9824
170.6504, 204.4549
171.1325, 204.5052
171.6146, 205.4601
172.0967, 207.3870
172.5789, 210.1550
173.0610, 213.8733
173.5431, 219.6040
174.0252, 223.7632
174.5073, 226.0122
174.9894, 227.0405
175.4716, 227.0755
175.9537, 226.2650
176.4358, 224.9960
176.9179, 224.1006
177.4000, 224.6940
177.8821, 224.0313
178.3643, 221.1499
178.8464, 217.4375
179.3285, 214.3692
179.8106, 212.5404
180.2927, 211.3998
180.7748, 209.4501
181.2570, 205.4471
181.7391, 202.1783
182.2212, 200.1574
182.7033, 199.0191
183.1854, 198.2538
183.6675, 197.6337
184.1497, 197.2253
184.6318, 197.3166
185.1139, 198.2330
185.5960, 199.0235
186.0781, 198.8904
186.5602, 198.2876
187.0423, 198.5683
187.5245, 200.5132
188.0066, 203.6649
188.4887, 206.7706
188.9708, 209.8281
189.4529, 212.8020
189.9350, 215.1848
190.4172, 217.1116
190.8993, 220.2184
191.3814, 225.7044
191.8635, 232.6555
192.3456, 239.7842
192.8277, 247.1079
193.3099, 254.2593
193.7920, 261.0202
194.2741, 267.4427
194.7562, 273.1670
195.2383, 278.3700
195.7204, 282.5974
196.2026, 285.3514
196.6847, 286.5446
197.1668, 286.1440
197.6489, 283.8495
198.1310, 279.1187
198.6131, 273.9827
199.0953, 268.6188
199.5774, 263.3255
200.0595, 258.3541
200.5416, 253.7503
201.0237, 249.6436
201.5058, 246.4641
201.9880, 244.8885
202.4701, 243.0350
202.9522, 239.8102
203.4343, 236.4963
203.9164, 234.4075
204.3985, 234.1453
204.8807, 235.3009
205.3628, 236.7196
205.8449, 239.0020
206.3270, 240.7189
206.8091, 241.7032
207.2912, 242.0738
207.7733, 241.8085
208.2555, 240.8737
208.7376, 239.5620
209.2197, 238.9675
209.7018, 239.4629
210.1839, 240.3235
210.6660, 242.0334
211.1482, 243.9527
211.6303, 245.1716
212.1124, 245.1965
212.5945, 244.2988
213.0766, 243.5549
213.5587, 243.0086
214.0409, 242.5465
214.5230, 242.3912
215.0051, 242.2854
215.4872, 241.7587
215.9693, 240.5525
216.4514, 238.7905
216.9336, 236.9051
217.4157, 234.3066
217.8978, 232.3234
218.3799, 231.8286
218.8620, 232.3206
219.3441, 232.4494
219.8263, 231.4007
220.3084, 229.7784
220.7905, 229.2186
221.2726, 230.0769
221.7547, 231.2068
222.2368, 231.8324
222.7190, 232.1816
223.2011, 233.2041
223.6832, 235.3953
224.1653, 238.4946
224.6474, 241.8796
225.1295, 245.7236
225.6117, 249.4434
226.0938, 252.2730
226.5759, 254.3871
227.0580, 257.2350
227.5401, 261.4712
228.0222, 266.7152
228.5043, 272.3820
228.9865, 278.4171
229.4686, 284.8700
229.9507, 292.1357
230.4328, 300.1886
230.9149, 307.3700
231.3970, 312.8955
231.8792, 317.4033
232.3613, 321.5804
232.8434, 325.5155
233.3255, 328.6918
233.8076, 330.4391
234.2897, 330.6642
234.7719, 330.6013
235.2540, 332.0650
235.7361, 332.1349
236.2182, 328.4269
236.7003, 320.6835
237.1824, 311.3345
237.6646, 302.7382
238.1467, 294.9153
238.6288, 287.4590
239.1109, 280.8248
239.5930, 274.1505
240.0751, 266.8997
240.5573, 259.0327
241.0394, 250.9017
241.5215, 242.6017
242.0036, 233.6141
242.4857, 226.4992
242.9678, 223.0898
243.4500, 220.2165
243.9321, 216.2393
244.4142, 211.0827
244.8963, 205.7835
245.3784, 201.5781
245.8605, 198.8166
246.3427, 195.9115
246.8248, 192.5726
247.3069, 189.3500
247.7890, 186.5502
248.2711, 184.1572
248.7532, 181.9375
249.2354, 179.5368
249.7175, 176.7230
250.1996, 174.8170
250.6817, 174.8233
251.1638, 174.7411
251.6459, 173.3378
252.1281, 170.8227
252.6102, 168.3858
253.0923, 167.1986
253.5744, 167.4725
254.0565, 167.7652
254.5386, 168.0938
255.0208, 168.4199
255.5029, 168.6038
255.9850, 168.7364
256.4671, 169.1343
256.9492, 170.1506
257.4313, 171.8944
257.9135, 172.9019
258.3956, 172.6278
258.8777, 172.3210
259.3598, 172.2731
259.8419, 172.6112
260.3240, 173.5087
260.8062, 175.1100
261.2883, 177.4207
261.7704, 180.1882
262.2525, 183.9024
262.7346, 187.5002
263.2167, 190.4593
263.6989, 192.9397
264.1810, 195.3836
264.6631, 198.0923
265.1452, 201.0230
265.6273, 203.8017
266.1094, 205.9229
266.5916, 208.4407
267.0737, 211.7388
267.5558, 215.7083
268.0379, 220.1917
268.5200, 225.2251
269.0021, 230.5835
269.4843, 235.3500
269.9664, 239.1414
270.4485, 242.9439
270.9306, 246.7696
271.4127, 250.8169
271.8948, 255.4382
272.3770, 260.7303
272.8591, 266.7937
273.3412, 274.3633
273.8233, 284.4159
274.3054, 293.6077
274.7875, 299.8841
275.2697, 304.6888
275.7518, 310.8128
276.2339, 319.3729
276.7160, 329.2691
277.1981, 338.7302
277.6802, 348.1499
278.1623, 356.1942
278.6444, 361.3907
279.1266, 365.2414
279.6087, 370.8264
280.0908, 379.4517
280.5729, 387.9977
281.0550, 392.1183
281.5371, 392.2069
282.0193, 389.7223
282.5014, 384.2375
282.9835, 376.6534
283.4656, 368.1846
283.9477, 359.0418
284.4298, 349.0088
284.9120, 337.2925
285.3941, 324.1629
285.8762, 312.0953
286.3583, 301.5088
286.8404, 292.2880
287.3225, 284.7416
287.8047, 279.0497
288.2868, 273.4535
288.7689, 265.9102
289.2510, 257.2143
289.7331, 250.0749
290.2152, 246.0805
290.6974, 243.1922
291.1795, 239.3724
291.6616, 234.5585
292.1437, 229.6920
292.6258, 225.2092
293.1079, 221.0980
293.5901, 217.2162
294.0722, 213.3278
294.5543, 209.9177
295.0364, 207.7928
295.5185, 206.8545
296.0006, 205.4363
296.4828, 202.5203
296.9649, 198.7698
297.4470, 195.4207
297.9291, 192.5690
298.4112, 189.9775
298.8933, 187.5014
299.3755, 185.1543
299.8576, 183.0063
300.3397, 181.2670
300.8218, 179.5318
301.3039, 177.1354
301.7860, 173.9584
302.2682, 171.0595
302.7503, 169.2588
303.2324, 168.2411
303.7145, 166.8645
304.1966, 164.7955
304.6787, 162.4347
305.1609, 160.0870
305.6430, 157.7564
306.1251, 155.6900
306.6072, 153.9608
307.0893, 152.5733
307.5714, 151.7036
308.0536, 151.6189
308.5357, 151.3603
309.0178, 149.8293
309.4999, 147.4409
309.9820, 145.2564
310.4641, 143.3784
310.9463, 141.9988
311.4284, 141.7762
311.9105, 142.9975
312.3926, 143.8412
312.8747, 142.7072
313.3568, 140.4404
313.8390, 138.4689
314.3211, 136.8839
314.8032, 135.8812
315.2853, 136.0886
315.7674, 137.5396
316.2495, 138.3416
316.7317, 137.2955
317.2138, 135.2327
317.6959, 133.4558
318.1780, 132.0866
318.6601, 130.9178
319.1422, 129.7209
319.6243, 128.5420
320.1064, 127.7732
320.5886, 127.6872
321.0707, 127.9121
321.5528, 127.9234
322.0349, 127.6966
322.5170, 127.5883
322.9991, 128.0606
323.4813, 128.8125
323.9634, 128.8952
324.4455, 127.9245
324.9276, 126.7182
325.4097, 126.2136
325.8918, 126.2555
326.3740, 126.0701
326.8561, 124.8323
327.3382, 123.3854
327.8203, 123.3314
328.3024, 125.0539
328.7845, 126.7877
329.2667, 126.9013
329.7488, 126.0039
330.2309, 125.6033
330.7130, 126.5356
331.1951, 127.6845
331.6772, 127.7749
332.1594, 126.8254
332.6415, 126.0423
333.1236, 126.1471
333.6057, 126.8046
334.0878, 127.2248
334.5699, 127.2735
335.0521, 127.2839
335.5342, 127.5106
336.0163, 127.8929
336.4984, 128.1671
336.9805, 128.2124
337.4626, 128.1473
337.9448, 128.1869
338.4269, 128.3661
338.9090, 128.4232
339.3911, 128.0280
339.8732, 127.4803
340.3553, 127.4868
340.8375, 128.3146
341.3196, 129.1785
341.8017, 129.1450
342.2838, 128.2999
342.7659, 127.3066
343.2480, 125.8953
343.7302, 124.6157
344.2123, 124.3154
344.6944, 125.0379
345.1765, 125.5785
345.6586, 124.8455
346.1407, 123.1148
346.6229, 122.2578
347.1050, 123.0161
347.5871, 124.0036
348.0692, 124.4055
348.5513, 124.3276
349.0334, 124.1392
349.5156, 123.9009
349.9977, 123.8077
350.4798, 124.4640
350.9619, 126.2689
351.4440, 127.8693
351.9261, 128.7940
352.4083, 129.2393
352.8904, 129.5735
353.3725, 129.9252
353.8546, 130.0316
354.3367, 129.3590
354.8188, 127.5975
355.3010, 126.4106
355.7831, 126.1039
356.2652, 126.3350
356.7473, 126.9089
357.2294, 127.7679
357.7115, 128.7677
358.1937, 129.8721
358.6758, 131.0819
359.1579, 131.7036
359.6400, 131.3439
360.1221, 130.8450
360.6042, 130.5738
361.0863, 130.4954
361.5685, 130.3993
362.0506, 130.1198
362.5327, 129.8157
363.0148, 130.1729
363.4969, 131.8660
363.9790, 133.3272
364.4612, 134.1441
364.9433, 134.6885
365.4254, 135.3677
365.9075, 136.3205
366.3896, 137.4903
366.8717, 138.8201
367.3539, 140.5377
367.8360, 141.8612
368.3181, 142.4570
368.8002, 142.9411
369.2823, 143.8568
369.7644, 145.1395
370.2466, 146.2016
370.7287, 146.4071
371.2108, 145.6557
371.6929, 145.8461
372.1750, 147.8772
372.6571, 149.8171
373.1393, 151.4614
373.6214, 152.5708
374.1035, 152.6871
374.5856, 151.4896
375.0677, 149.5157
375.5498, 148.5402
376.0320, 149.4512
376.5141, 150.0911
376.9962, 150.0956
377.4783, 149.8750
377.9604, 149.6675
378.4425, 149.5805
378.9247, 149.7711
379.4068, 150.7029
379.8889, 152.9641
380.3710, 153.8788
380.8531, 152.0244
381.3352, 150.0990
381.8174, 149.3179
382.2995, 149.5130
382.7816, 149.8310
383.2637, 149.5554
383.7458, 148.8462
384.2279, 148.9412
384.7101, 150.9245
385.1922, 152.0133
385.6743, 150.6573
386.1564, 148.3360
386.6385, 146.8225
387.1206, 146.8471
387.6028, 147.7550
388.0849, 148.5675
388.5670, 149.2437
389.0491, 150.0133
389.5312, 151.2019
390.0133, 152.3043
390.4955, 152.6223
390.9776, 152.2303
391.4597, 152.4585
391.9418, 154.8487
392.4239, 158.9638
392.9060, 162.1313
393.3882, 163.8895
393.8703, 165.1524
394.3524, 166.2672
394.8345, 167.3684
395.3166, 168.7635
395.7987, 170.4769
396.2809, 172.6062
396.7630, 175.3224
397.2451, 178.6673
397.7272, 182.3194
398.2093, 186.4123
398.6914, 190.5954
399.1736, 194.1308
399.6557, 196.6346
400.1378, 199.7850
400.6199, 205.6795
401.1020, 213.0183
401.5841, 217.8980
402.0662, 218.8773
402.5483, 218.8800
403.0305, 221.7710
403.5126, 227.3325
403.9947, 231.5220
404.4768, 232.9414
404.9589, 233.1387
405.4410, 233.4551
405.9232, 233.9483
406.4053, 234.1807
406.8874, 233.8480
407.3695, 233.0161
407.8516, 232.0592
408.3337, 231.0994
408.8159, 229.9023
409.2980, 227.7449
409.7801, 225.4517
410.2622, 224.4456
410.7443, 225.2243
411.2264, 227.0348
411.7086, 228.6825
412.1907, 229.9502
412.6728, 231.6286
413.1549, 233.7900
413.6370, 236.2876
414.1191, 238.6438
414.6013, 241.1249
415.0834, 244.8294
415.5655, 250.7960
416.0476, 258.8675
416.5297, 265.9050
417.0118, 270.0526
417.4940, 275.2461
417.9761, 283.1078
418.4582, 292.0450
418.9403, 299.6255
419.4224, 305.0211
419.9045, 309.9331
420.3867, 317.5287
420.8688, 328.7307
421.3509, 340.1027
421.8330, 351.1787
422.3151, 362.5919
422.7972, 374.4012
423.2794, 386.7518
423.7615, 400.0544
424.2436, 414.7280
424.7257, 430.6333
425.2078, 447.1541
425.6899, 464.9844
426.1721, 482.1490
426.6542, 497.6852
427.1363, 512.4296
427.6184, 527.5782
428.1005, 543.6542
428.5826, 559.4690
429.0648, 574.0360
429.5469, 587.4672
430.0290, 598.0317
430.5111, 605.4962
430.9932, 609.3969
431.4753, 609.9238
431.9575, 607.1379
432.4396, 601.5016
432.9217, 593.1698
433.4038, 582.1856
433.8859, 568.0228
434.3680, 550.4987
434.8502, 531.9610
435.3323, 514.1004
435.8144, 496.1420
436.2965, 476.0179
436.7786, 452.1663
437.2607, 428.4226
437.7429, 406.6502
438.2250, 386.5996
438.7071, 367.8082
439.1892, 350.2245
439.6713, 333.5132
440.1534, 317.2939
440.6356, 301.4270
441.1177, 286.8531
441.5998, 274.1436
442.0819, 262.3987
442.5640, 251.0899
443.0461, 240.2485
443.5282, 229.9915
444.0103, 220.4231
444.4925, 211.5858
444.9746, 203.8550
445.4567, 198.4666
445.9388, 192.6957
446.4209, 185.1081
446.9030, 177.6429
447.3852, 172.7185
447.8673, 170.7500
448.3494, 169.4268
448.8315, 165.5943
449.3136, 158.4790
449.7957, 152.7546
450.2779, 149.3830
450.7600, 146.4573
451.2421, 143.4888
451.7242, 140.4786
452.2063, 137.4896
452.6884, 134.5234
453.1706, 131.7390
453.6527, 129.6341
454.1348, 128.4303
454.6169, 127.2346
455.0990, 126.1217
455.5811, 124.7345
456.0633, 122.4539
456.5454, 119.3369
457.0275, 116.6995
457.5096, 116.0621
457.9917, 116.7384
458.4738, 116.0499
458.9560, 113.3556
459.4381, 110.6512
459.9202, 109.2588
460.4023, 108.7995
460.8844, 108.6881
461.3665, 109.0248
461.8487, 109.4061
462.3308, 109.6732
462.8129, 109.7599
463.2950, 109.2732
463.7771, 107.8773
464.2592, 106.4358
464.7414, 106.5349
465.2235, 108.5839
465.7056, 109.1883
466.1877, 106.6797
466.6698, 103.5682
467.1519, 101.5900
467.6341, 100.8420
468.1162, 101.1253
468.5983, 102.5051
469.0804, 104.5373
469.5625, 105.1125
470.0446, 102.5728
470.5268, 100.6580
471.0089, 99.93804
471.4910, 99.79652
471.9731, 99.76877
472.4552, 99.70790
472.9373, 99.59317
473.4195, 99.44328
473.9016, 99.28632
474.3837, 98.72304
474.8658, 97.62846
475.3479, 96.21988
475.8300, 94.08907
476.3122, 91.83100
476.7943, 90.27814
477.2764, 89.81326
477.7585, 89.95803
478.2406, 90.08894
478.7227, 90.23051
479.2049, 90.13486
479.6870, 89.76424
480.1691, 89.10871
480.6512, 88.06103
481.1333, 86.70957
481.6154, 85.44234
482.0976, 84.38033
482.5797, 83.54228
483.0618, 83.01656
483.5439, 82.81097
484.0260, 82.68249
484.5081, 82.69256
484.9902, 82.56597
485.4724, 81.58305
485.9545, 79.18760
486.4366, 77.59972
486.9187, 78.55947
487.4008, 80.32703
487.8829, 80.25695
488.3651, 78.04214
488.8472, 75.74894
489.3293, 75.26210
489.8114, 76.56113
490.2935, 77.31931
490.7756, 77.53666
491.2578, 77.32452
491.7399, 76.74366
492.2220, 75.74087
492.7041, 73.90550
493.1862, 71.19736
493.6683, 68.62236
494.1505, 67.75053
494.6326, 69.04070
495.1147, 70.21964
495.5968, 71.30571
496.0789, 72.24886
496.5610, 73.26682
497.0432, 74.09303
497.5253, 74.09167
498.0074, 72.73503
498.4895, 70.97083
498.9716, 70.78032
499.4537, 72.48035
499.9359, 73.75597
500.4180, 74.04778
500.9001, 73.71336
501.3822, 72.86568
501.8643, 71.58517
502.3464, 70.51843
502.8286, 69.86215
503.3107, 69.64329
503.7928, 70.15681
504.2749, 71.40480
504.7570, 72.27788
505.2391, 72.08340
505.7213, 71.19073
506.2034, 70.52225
506.6855, 69.88531
507.1676, 69.85020
507.6497, 71.05636
508.1318, 72.68092
508.6140, 73.85831
509.0961, 74.45007
509.5782, 74.66368
510.0603, 74.63042
510.5424, 74.36844
511.0245, 74.25560
511.5067, 74.76659
511.9888, 74.84888
512.4709, 73.76814
512.9530, 72.45054
513.4351, 71.95279
513.9172, 72.52081
514.3994, 73.54111
514.8815, 74.35278
515.3636, 74.95802
515.8457, 75.34767
516.3278, 75.30801
516.8099, 75.33968
517.2921, 75.61777
517.7742, 76.09711
518.2563, 76.81962
518.7384, 77.95584
519.2205, 78.81750
519.7026, 78.25303
520.1848, 76.51479
520.6669, 75.59452
521.1490, 75.99348
521.6311, 77.13198
522.1132, 78.86973
522.5953, 81.02558
523.0775, 82.40984
523.5596, 82.04382
524.0417, 81.53183
524.5238, 82.18631
525.0059, 83.62588
525.4880, 84.66173
525.9702, 84.77059
526.4523, 84.51711
526.9344, 84.94143
527.4165, 86.67165
527.8986, 87.36985
528.3807, 85.93232
528.8629, 84.57764
529.3450, 84.49867
529.8271, 85.50188
530.3092, 87.05142
530.7913, 88.92390
531.2734, 90.70991
531.7556, 91.20284
532.2377, 89.67090
532.7198, 88.92074
533.2019, 90.25434
533.6840, 91.73980
534.1661, 92.36419
534.6483, 92.16946
535.1304, 91.68067
535.6125, 90.91802
536.0946, 90.21986
536.5767, 90.27882
537.0588, 91.12428
537.5410, 92.13494
538.0231, 93.20432
538.5052, 94.17653
538.9873, 94.81863
539.4694, 95.13500
539.9515, 95.22578
540.4337, 95.28533
540.9158, 95.02229
541.3979, 93.84306
541.8800, 91.94082
542.3621, 90.33088
542.8442, 89.64336
543.3264, 89.70157
543.8085, 89.90466
544.2906, 90.11484
544.7726, 90.69214
545.2548, 92.00078
545.7369, 93.39481
546.2190, 94.39344
546.7011, 95.00338
547.1832, 95.53718
547.6653, 96.28859
548.1475, 96.24507
548.6296, 97.11388
549.1117, 96.00602
549.5938, 95.11382
550.0759, 94.67532
550.5580, 94.71459
551.0402, 95.52348
551.5223, 97.05392
552.0044, 98.38672
552.4865, 98.82198
552.9686, 98.77902
553.4507, 99.00891
553.9329, 99.54380
554.4150, 99.99201
554.8971, 99.88712
555.3792, 99.77147
555.8613, 101.3032
556.3434, 105.5331
556.8256, 108.4708
557.3077, 108.5396
557.7898, 107.5714
558.2719, 107.0054
558.7540, 107.0128
559.2361, 107.2380
559.7183, 107.3865
560.2004, 107.6487
560.6825, 108.9465
561.1646, 112.3547
561.6467, 114.9361
562.1288, 115.7820
562.6110, 116.3126
563.0931, 117.5769
563.5752, 119.5524
564.0573, 121.5229
564.5394, 122.9246
565.0215, 124.0025
565.5037, 125.4748
565.9858, 127.4505
566.4679, 129.1411
566.9500, 130.1794
567.4321, 130.8395
567.9142, 131.4017
568.3964, 131.8333
568.8785, 132.6060
569.3606, 134.4057
569.8427, 136.2613
570.3248, 136.9123
570.8069, 136.5727
571.2891, 136.5716
571.7712, 137.6395
572.2533, 139.4583
572.7354, 141.2462
573.2175, 143.1387
573.6996, 144.7485
574.1818, 145.9678
574.6639, 147.0250
575.1460, 147.7888
575.6281, 148.5118
576.1102, 149.8240
576.5923, 152.1965
577.0745, 155.0321
577.5566, 156.7608
578.0387, 156.9914
578.5208, 158.3056
579.0029, 162.1336
579.4850, 166.2027
579.9672, 168.7933
580.4493, 170.1309
580.9314, 171.2432
581.4135, 172.0087
581.8956, 173.1194
582.3777, 175.7358
582.8599, 179.3791
583.3420, 182.0415
583.8241, 182.8701
584.3062, 183.3376
584.7883, 185.6055
585.2704, 190.3300
585.7526, 193.5853
586.2347, 194.6053
586.7168, 195.1017
587.1989, 195.7570
587.6810, 196.3978
588.1631, 196.4118
588.6453, 195.6297
589.1274, 195.0219
589.6095, 196.1929
590.0916, 199.3867
590.5737, 202.1667
591.0558, 204.8161
591.5380, 206.5618
592.0201, 206.1395
592.5022, 204.9572
592.9843, 205.3927
593.4664, 208.4759
593.9485, 211.4789
594.4307, 211.8016
594.9128, 210.5480
595.3949, 210.4408
595.8770, 211.9429
596.3591, 213.5752
596.8412, 214.1720
597.3234, 213.9119
597.8055, 214.0867
598.2876, 215.3473
598.7697, 216.1162
599.2518, 215.8895
599.7339, 215.2203
600.2161, 214.3328
600.6982, 213.4572
601.1803, 213.2390
601.6624, 214.3963
602.1445, 216.4533
602.6266, 217.0759
603.1088, 215.6651
603.5909, 214.3726
604.0730, 214.1848
604.5551, 213.9828
605.0372, 212.7027
605.5193, 210.4490
606.0015, 208.5687
606.4836, 207.8622
606.9657, 207.7595
607.4478, 208.0427
607.9299, 208.4774
608.4120, 207.4873
608.8942, 204.1571
609.3763, 200.1193
609.8584, 197.9943
610.3405, 198.6485
610.8226, 198.0525
611.3047, 195.4557
611.7869, 192.4574
612.2690, 189.5060
612.7511, 186.7432
613.2332, 184.4327
613.7153, 182.6469
614.1974, 180.8404
614.6796, 177.8584
615.1617, 173.5496
615.6438, 171.1563
616.1259, 172.2218
616.6080, 172.6642
617.0901, 169.5432
617.5723, 164.7922
618.0544, 161.2207
618.5365, 159.5698
619.0186, 158.0502
619.5007, 155.6576
619.9828, 152.7272
620.4650, 149.4622
620.9471, 145.9981
621.4292, 143.4020
621.9113, 142.5981
622.3934, 142.9631
622.8755, 142.1116
623.3577, 138.9059
623.8398, 136.0681
624.3219, 134.0047
624.8040, 132.0123
625.2861, 129.3998
625.7682, 126.4487
626.2504, 124.0977
626.7325, 123.0536
627.2145, 122.5022
627.6967, 120.8302
628.1788, 117.9780
628.6609, 115.3440
629.1430, 113.1859
629.6251, 111.3241
630.1072, 109.7360
630.5894, 108.3322
631.0715, 106.7654
631.5536, 104.6394
632.0357, 102.7082
632.5178, 101.5511
632.9999, 100.7600
633.4821, 99.56979
633.9642, 97.87080
634.4463, 96.29272
634.9284, 95.45320
635.4105, 95.30710
635.8926, 95.28958
636.3748, 96.00766
636.8569, 95.84846
637.3390, 94.07024
637.8211, 91.75554
638.3032, 89.44698
638.7853, 87.36509
639.2675, 86.01612
639.7496, 86.24129
640.2317, 87.07923
640.7138, 86.95243
641.1959, 85.91727
641.6780, 84.73140
642.1602, 83.66050
642.6423, 82.50894
643.1244, 80.85743
643.6065, 78.51015
644.0886, 77.12878
644.5707, 77.35291
645.0529, 77.82678
645.5350, 78.36111
646.0171, 78.65176
646.4992, 78.21923
646.9813, 76.98948
647.4634, 75.48775
647.9456, 74.21122
648.4277, 73.16370
648.9098, 72.45632
649.3919, 72.27979
649.8740, 71.94942
650.3561, 71.00527
650.8383, 69.89745
651.3204, 69.26692
651.8025, 69.18749
652.2846, 68.69567
652.7667, 66.94530
653.2488, 64.98223
653.7310, 63.80964
654.2131, 63.33515
654.6952, 63.14587
655.1773, 63.08221
655.6594, 63.01289
656.1415, 62.67402
656.6237, 61.90226
657.1058, 61.63052
657.5879, 62.35747
658.0700, 63.05455
658.5521, 63.78102
659.0342, 64.17289
659.5164, 63.44680
659.9985, 61.45045
660.4806, 59.88929
660.9627, 60.77003
661.4448, 62.96111
661.9269, 63.81221
662.4091, 63.18776
662.8912, 61.94256
663.3733, 60.21955
663.8554, 58.50818
664.3375, 57.88954
664.8196, 58.98302
665.3018, 59.37452
665.7839, 58.06373
666.2660, 56.99188
666.7481, 57.63096
667.2302, 59.11790
667.7123, 59.87739
668.1945, 59.33216
668.6766, 58.15544
669.1587, 56.94077
669.6408, 55.73261
670.1229, 55.28276
670.6050, 55.76814
671.0872, 56.58214
671.5693, 57.89854
672.0514, 59.09554
672.5335, 59.02748
673.0156, 57.39048
673.4977, 55.92348
673.9799, 55.09696
674.4620, 54.68218
674.9441, 54.59374
675.4262, 54.74691
675.9083, 55.04583
676.3904, 55.44976
676.8726, 55.75139
677.3547, 55.51975
677.8368, 54.60473
678.3189, 54.17060
678.8010, 54.50600
679.2831, 54.91181
679.7653, 55.08715
680.2474, 55.18610
680.7295, 55.37358
681.2116, 55.67145
681.6937, 56.11025
682.1758, 57.18412
682.6580, 58.12423
683.1401, 57.54488
683.6222, 55.74136
684.1043, 54.49055
684.5864, 54.65037
685.0685, 55.53365
685.5507, 55.97840
686.0328, 55.91767
686.5149, 55.68441
686.9970, 54.93037
687.4791, 54.39838
687.9612, 54.58418
688.4434, 54.98172
688.9255, 54.79046
689.4076, 53.85193
689.8897, 53.20699
690.3718, 53.85535
690.8539, 55.28079
691.3361, 56.76312
691.8182, 58.22614
692.3003, 58.70435
692.7824, 57.57662
693.2645, 55.80446
693.7466, 54.82824
694.2288, 54.65883
694.7109, 55.35732
695.1930, 58.36638
695.6751, 60.51300
696.1572, 59.98988
696.6393, 58.30817
697.1215, 57.35763
697.6036, 57.58354
698.0857, 58.23736
698.5678, 59.01551
699.0499, 59.65373
699.5320, 58.97895
700.0142, 56.89753
700.4963, 55.89724
700.9784, 57.37907
701.4605, 59.46085
701.9426, 59.29834
702.4247, 56.42093
702.9069, 55.11243
703.3890, 56.70021
703.8711, 58.39838
704.3532, 59.53492
704.8353, 59.97614
705.3174, 59.36898
705.7996, 57.82286
706.2817, 56.16982
706.7638, 54.93382
707.2459, 54.28521
707.7280, 55.13920
708.2101, 57.73174
708.6923, 59.53278
709.1743, 59.53216
709.6564, 58.95692
710.1385, 59.21375
710.6207, 60.20542
711.1028, 60.68617
711.5849, 60.22871
712.0670, 59.65772
712.5491, 58.86972
713.0313, 58.37179
713.5134, 59.08374
713.9955, 60.85105
714.4776, 62.35600
714.9597, 62.59696
715.4418, 61.91565
715.9240, 61.02465
716.4061, 59.82024
716.8882, 59.44905
717.3703, 60.63593
717.8524, 61.89767
718.3345, 61.93163
718.8167, 61.02703
719.2988, 60.13934
719.7809, 59.19378
720.2630, 58.50663
720.7451, 57.83844
721.2272, 57.71526
721.7094, 59.17873
722.1915, 61.79893
722.6736, 63.86961
723.1557, 64.34496
723.6378, 63.88528
724.1199, 63.87555
724.6021, 64.39783
725.0842, 64.24712
725.5663, 62.94087
726.0484, 61.69576
726.5305, 61.33883
727.0126, 61.53157
727.4948, 61.56548
727.9769, 61.27064
728.4590, 61.24266
728.9411, 61.89429
729.4232, 62.68451
729.9053, 63.10053
730.3875, 63.27168
730.8696, 63.69585
731.3517, 64.57500
731.8338, 65.40656
732.3159, 65.32751
732.7980, 64.34065
733.2802, 63.87965
733.7623, 64.06729
734.2444, 64.47282
734.7265, 65.36213
735.2086, 66.04127
735.6907, 65.35444
736.1729, 63.18015
736.6550, 61.44840
737.1371, 60.46947
737.6192, 60.11562
738.1013, 60.61548
738.5834, 61.56893
739.0656, 62.40361
739.5477, 62.97025
740.0298, 63.41132
740.5119, 63.90587
740.9940, 64.36692
741.4761, 64.30149
741.9583, 63.55125
742.4404, 63.28744
742.9225, 64.36682
743.4046, 65.25844
743.8867, 63.75121
744.3688, 60.44893
744.8510, 58.91858
745.3331, 60.78378
745.8152, 62.78221
746.2973, 64.08343
746.7794, 64.84985
747.2615, 65.25554
747.7437, 65.30085
748.2258, 64.78938
748.7079, 63.51965
749.1900, 62.02156
749.6721, 61.32633
750.1542, 61.42011
750.6364, 61.44736
751.1185, 61.26729
751.6006, 61.17053
752.0827, 61.44246
752.5648, 61.88772
753.0469, 61.90409
753.5291, 61.14971
754.0112, 60.90422
754.4933, 61.97431
754.9754, 62.96857
755.4575, 62.53671
755.9396, 61.55760
756.4218, 62.04580
756.9039, 64.54725
757.3860, 66.73435
757.8681, 65.54150
758.3502, 62.04143
758.8323, 60.07552
759.3145, 59.71031
759.7966, 59.81192
760.2787, 60.00127
760.7608, 60.43371
761.2429, 61.49529
761.7250, 63.32845
762.2072, 64.04748
762.6893, 62.78812
763.1714, 61.61623
763.6535, 61.40993
764.1356, 61.21433
764.6177, 59.72071
765.0999, 57.25215
765.5820, 55.63070
766.0641, 56.19845
766.5462, 57.51096
767.0283, 57.61806
767.5104, 56.84356
767.9926, 56.38796
768.4747, 56.45267
768.9568, 56.78414
769.4389, 57.27149
769.9210, 57.80186
770.4031, 57.98154
770.8853, 57.61462
771.3674, 57.27654
771.8495, 57.11024
772.3316, 56.81844
772.8137, 55.90688
773.2958, 54.93398
773.7780, 54.88446
774.2601, 56.02804
774.7422, 57.14303
775.2243, 57.40644
775.7064, 57.24292
776.1885, 57.08055
776.6707, 56.97035
777.1528, 57.15127
777.6349, 57.70222
778.1170, 57.87009
778.5991, 56.53402
779.0812, 53.83175
779.5634, 52.83833
780.0455, 54.51280
780.5276, 55.73938
781.0097, 55.49202
781.4918, 54.81635
781.9739, 54.52279
782.4561, 54.50237
782.9382, 54.25724
783.4203, 53.61210
783.9024, 52.81667
784.3845, 51.67323
784.8666, 50.64000
785.3488, 50.37855
785.8309, 50.78098
786.3130, 51.23027
786.7951, 51.39044
787.2772, 51.39107
787.7593, 51.46254
788.2415, 51.60034
788.7236, 51.55569
789.2057, 51.22013
789.6878, 51.06455
790.1699, 51.32172
790.6520, 51.88720
791.1342, 52.76386
791.6162, 54.15893
792.0983, 54.61753
792.5804, 53.21886
793.0626, 51.85177
793.5447, 51.16670
794.0268, 50.96555
794.5089, 51.07665
794.9910, 51.40813
795.4731, 51.78270
795.9553, 52.11279
796.4374, 52.37907
796.9195, 52.56032
797.4016, 52.65192
797.8837, 52.64524
798.3658, 52.54113
798.8480, 52.22329
799.3301, 51.51529
799.8122, 50.65443
800.2943, 50.47945
800.7764, 51.43584
801.2585, 52.11946
801.7407, 52.90092
802.2228, 52.97581
802.7049, 51.07072
803.1870, 48.68609
803.6691, 48.25329
804.1512, 50.28056
804.6334, 51.87605
805.1155, 51.13527
805.5976, 49.74812
806.0797, 49.06002
806.5618, 49.01534
807.0439, 49.49501
807.5261, 50.40095
808.0082, 51.32566
808.4903, 51.91212
808.9724, 52.17816
809.4545, 52.12508
809.9366, 51.69709
810.4188, 51.28739
810.9009, 50.83467
811.3830, 50.68631
811.8651, 51.32129
812.3472, 52.45217
812.8293, 53.04036
813.3115, 52.88708
813.7936, 52.62393
814.2757, 51.99817
814.7578, 51.62392
815.2399, 52.55000
815.7220, 53.76052
816.2042, 53.12362
816.6863, 50.18893
817.1684, 47.62215
817.6505, 48.39261
818.1326, 50.74694
818.6147, 51.26637
819.0969, 50.28321
819.5790, 49.83621
820.0611, 50.52728
820.5432, 51.27353
821.0253, 50.89008
821.5074, 49.70532
821.9896, 50.10016
822.4717, 53.54713
822.9538, 55.18922
823.4359, 53.01521
823.9180, 50.51460
824.4001, 49.38341
824.8823, 49.31812
825.3644, 49.92693
825.8465, 51.50876
826.3286, 52.29866
826.8107, 50.86398
827.2928, 49.06523
827.7750, 48.24490
828.2571, 48.28290
828.7392, 49.02289
829.2213, 50.28267
829.7034, 51.17255
830.1855, 50.65818
830.6677, 49.27798
831.1498, 48.47794
831.6319, 48.25697
832.1140, 48.52653
832.5961, 49.31215
833.0782, 50.47504
833.5604, 52.18975
834.0425, 54.07188
834.5246, 54.43427
835.0067, 51.50478
835.4888, 50.08543
835.9709, 51.61222
836.4531, 52.98441
836.9352, 52.61765
837.4173, 51.34787
837.8994, 50.47230
838.3815, 50.23978
838.8636, 50.01509
839.3458, 49.02314
839.8279, 48.30632
840.3100, 49.34564
840.7921, 51.21810
841.2742, 51.91661
841.7563, 51.15622
842.2385, 50.36530
842.7206, 50.73946
843.2027, 50.40837
843.6848, 50.57076
844.1669, 51.24750
844.6490, 51.42884
845.1312, 53.01375
845.6133, 54.26545
846.0954, 53.98698
846.5775, 52.84757
847.0596, 52.30970
847.5417, 52.64454
848.0239, 52.74945
848.5060, 52.27145
848.9881, 52.00001
849.4702, 52.70795
849.9523, 53.40957
850.4344, 52.84376
850.9166, 51.09885
851.3987, 49.54643
851.8808, 48.63097
852.3629, 48.39637
852.8450, 49.29782
853.3271, 50.70170
853.8093, 51.85688
854.2914, 52.51196
854.7735, 52.02682
855.2556, 49.98109
855.7377, 47.64687
856.2198, 47.26636
856.7020, 48.75530
857.1841, 50.26640
857.6662, 51.97728
858.1483, 52.38232
858.6304, 50.22540
859.1125, 47.80220
859.5947, 48.21907
860.0768, 51.50039
860.5589, 52.82148
861.0410, 50.22641
861.5231, 48.49666
862.0052, 48.63119
862.4874, 49.36591
862.9695, 50.25969
863.4516, 50.99893
863.9337, 50.97192
864.4158, 49.87374
864.8979, 48.81329
865.3801, 48.37560
865.8622, 48.39393
866.3443, 48.94109
866.8264, 49.75570
867.3085, 50.22103
867.7906, 50.18627
868.2728, 50.04906
868.7549, 50.19548
869.2370, 50.49458
869.7191, 50.55605
870.2012, 50.38133
870.6833, 50.17336
871.1655, 49.94125
871.6476, 49.81206
872.1297, 49.92580
872.6118, 50.13502
873.0939, 49.98621
873.5760, 48.99007
874.0581, 49.08575
874.5402, 52.12883
875.0223, 54.01894
875.5045, 52.58694
875.9866, 50.19015
876.4687, 49.30046
876.9508, 49.90756
877.4329, 50.17447
877.9150, 48.98328
878.3972, 47.98623
878.8793, 48.09358
879.3614, 48.83525
879.8435, 50.01799
880.3256, 51.32485
880.8077, 52.14564
881.2899, 52.20573
881.7720, 51.68489
882.2541, 50.28207
882.7362, 48.56197
883.2183, 48.50991
883.7004, 49.96105
884.1826, 50.95173
884.6647, 50.86185
885.1468, 50.25964
885.6289, 49.63664
886.1110, 49.02907
886.5931, 48.65433
887.0753, 48.58905
887.5574, 48.51574
888.0395, 48.29890
888.5216, 48.23402
889.0037, 48.82005
889.4858, 49.51606
889.9680, 49.21690
890.4501, 47.61684
890.9322, 46.84927
891.4143, 47.97520
891.8964, 49.07184
892.3785, 49.02991
892.8607, 48.77490
893.3428, 49.50298
893.8249, 51.03591
894.3070, 52.17754
894.7891, 52.30792
895.2712, 52.08532
895.7534, 52.11623
896.2355, 52.16536
896.7176, 51.69268
897.1997, 50.86474
897.6818, 50.34840
898.1639, 50.40704
898.6461, 50.97902
899.1282, 52.27021
899.6103, 53.88053
900.0924, 53.70504
900.5745, 51.61967
901.0566, 50.65153
901.5388, 51.55736
902.0209, 53.08423
902.5030, 54.59273
902.9851, 55.80236
903.4672, 55.82225
903.9493, 53.96661
904.4315, 52.85889
904.9136, 52.97973
905.3957, 53.23957
905.8778, 53.44267
906.3599, 53.53469
906.8420, 53.46421
907.3242, 53.23092
907.8063, 52.85359
908.2884, 51.88819
908.7705, 51.39164
909.2526, 52.34547
909.7347, 53.45366
910.2169, 53.16170
910.6990, 52.17286
911.1811, 52.39388
911.6632, 54.44323
912.1453, 56.58409
912.6274, 57.17816
913.1096, 57.11454
913.5917, 57.72290
914.0738, 58.80354
914.5559, 59.91425
915.0380, 60.88317
915.5201, 61.20539
916.0023, 60.45043
916.4844, 59.11599
916.9665, 58.41381
917.4486, 58.32975
917.9307, 57.07378
918.4128, 54.12096
918.8950, 52.79567
919.3771, 54.98298
919.8592, 58.11917
920.3413, 58.88054
920.8234, 57.35005
921.3055, 57.01429
921.7877, 58.57920
922.2698, 60.09328
922.7519, 61.79675
923.2340, 62.93466
923.7161, 62.49830
924.1982, 61.43054
924.6804, 61.61913
925.1625, 63.54771
925.6446, 64.71774
926.1267, 63.68520
926.6088, 62.71601
927.0909, 63.27213
927.5731, 64.26894
928.0552, 64.35147
928.5373, 63.62336
929.0194, 63.14103
929.5015, 63.41241
929.9836, 63.97154
930.4658, 64.42078
930.9479, 64.91719
931.4300, 65.91344
931.9121, 67.15168
932.3942, 67.66246
932.8763, 67.23650
933.3585, 66.93651
933.8406, 67.82336
934.3227, 69.41209
934.8048, 70.70841
935.2869, 71.66525
935.7690, 71.53745
936.2512, 70.15315
936.7333, 69.49995
937.2154, 70.83782
937.6975, 72.82606
938.1796, 73.10474
938.6617, 71.56043
939.1439, 70.90998
939.6260, 71.35113
940.1081, 72.19829
940.5902, 73.75491
941.0723, 75.03394
941.5544, 75.16717
942.0366, 74.42509
942.5187, 73.67528
943.0008, 72.66631
943.4829, 72.24680
943.9650, 72.93758
944.4471, 73.63562
944.9293, 73.80327
945.4114, 73.86119
945.8935, 74.39669
946.3756, 75.32252
946.8577, 75.84792
947.3398, 75.34879
947.8220, 75.09571
948.3041, 75.90003
948.7862, 77.03740
949.2683, 78.02915
949.7504, 78.78539
950.2325, 79.16492
950.7147, 79.18263
951.1968, 79.32507
951.6789, 80.11883
952.1610, 81.04561
952.6431, 81.52718
953.1252, 81.62713
953.6074, 81.13375
954.0895, 80.29781
954.5716, 80.43185
955.0537, 82.21348
955.5358, 84.48331
956.0179, 85.77505
956.5000, 86.19190
956.9821, 85.86987
957.4642, 84.87318
957.9464, 84.90614
958.4285, 86.42984
958.9106, 88.37698
959.3927, 89.99501
959.8748, 91.31275
960.3569, 92.28707
960.8391, 92.78765
961.3212, 93.68302
961.8033, 94.98764
962.2854, 96.68781
962.7675, 99.05246
963.2496, 101.3895
963.7318, 102.9295
964.2139, 103.7829
964.6960, 104.7857
965.1781, 105.0740
965.6602, 106.9491
966.1423, 112.3376
966.6245, 117.0512
967.1066, 118.4061
967.5887, 118.7519
968.0708, 121.0625
968.5529, 125.4528
969.0350, 129.9921
969.5172, 134.7850
969.9993, 138.9935
970.4814, 141.3480
970.9635, 143.9241
971.4456, 148.2034
971.9277, 153.9499
972.4099, 160.7751
972.8920, 168.5282
973.3741, 175.9779
973.8562, 181.3375
974.3383, 187.2849
974.8204, 196.7987
975.3026, 207.6784
975.7847, 216.3305
976.2668, 223.3109
976.7489, 231.9491
977.2310, 243.7089
977.7131, 256.7978
978.1953, 270.0920
978.6774, 283.1070
979.1595, 294.0320
979.6416, 304.1807
980.1237, 317.4571
980.6058, 334.4814
981.0880, 352.8537
981.5701, 370.9617
982.0522, 389.7760
982.5343, 411.1052
983.0164, 431.8753
983.4985, 453.6562
983.9807, 477.3472
984.4628, 499.9037
984.9449, 525.0359
985.4270, 551.1849
985.9091, 577.0753
986.3912, 602.7761
986.8734, 629.0361
987.3555, 656.1572
987.8376, 681.2139
988.3197, 704.2022
988.8018, 725.4271
989.2839, 746.3239
989.7661, 762.7308
990.2482, 770.2927
990.7303, 769.2683
991.2124, 761.3817
991.6945, 744.4757
992.1766, 725.8548
992.6588, 707.8615
993.1409, 684.8553
993.6230, 651.5378
994.1051, 614.0125
994.5872, 580.0087
995.0693, 549.5105
995.5515, 518.9304
996.0336, 487.5185
996.5157, 456.7913
996.9978, 425.3522
997.4799, 396.4852
997.9620, 372.7586
998.4442, 352.3195
998.9263, 332.8551
999.4084, 314.1709
999.8905, 295.8716
1000.373, 277.7606
1000.855, 260.2773
1001.337, 243.0289
1001.819, 227.1477
1002.301, 213.8759
1002.783, 202.6387
1003.265, 192.3959
1003.747, 182.9220
1004.230, 174.0922
1004.712, 165.9463
1005.194, 158.3332
1005.676, 151.1506
1006.158, 144.3655
1006.640, 137.9892
1007.122, 131.8934
1007.604, 125.6499
1008.086, 119.0907
1008.569, 113.1917
1009.051, 108.7991
1009.533, 105.3869
1010.015, 102.9769
1010.497, 100.8731
1010.979, 97.69816
1011.461, 93.58640
1011.943, 89.67251
1012.426, 86.50049
1012.908, 83.81774
1013.390, 81.43999
1013.872, 79.32828
1014.354, 77.27840
1014.836, 75.44158
1015.318, 74.39257
1015.800, 74.11478
1016.282, 74.02910
1016.765, 73.83606
1017.247, 73.16931
1017.729, 71.22688
1018.211, 68.41854
1018.693, 66.32477
1019.175, 64.81554
1019.657, 62.57281
1020.139, 59.40255
1020.622, 57.51665
1021.104, 58.52110
1021.586, 60.66150
1022.068, 60.73063
1022.550, 58.92977
1023.032, 57.33683
1023.514, 55.94640
1023.996, 55.03159
1024.478, 54.65998
1024.961, 54.89633
1025.443, 55.99047
1025.925, 57.12344
1026.407, 56.21157
1026.889, 53.11768
1027.371, 50.97670
1027.853, 49.88197
1028.335, 49.23719
1028.818, 49.02860
1029.300, 48.67204
1029.782, 47.51603
1030.264, 46.18382
1030.746, 46.56154
1031.228, 49.20096
1031.710, 49.99104
1032.192, 48.06347
1032.674, 46.94117
1033.156, 48.02743
1033.639, 49.23562
1034.121, 48.79332
1034.603, 47.27727
1035.085, 46.38396
1035.567, 46.34441
1036.049, 46.01734
1036.531, 45.00127
1037.013, 44.48601
1037.496, 44.96703
1037.978, 45.84130
1038.460, 47.05823
1038.942, 48.18755
1039.424, 47.68589
1039.906, 44.48388
1040.388, 42.92747
1040.870, 44.33403
1041.353, 45.48476
1041.835, 45.12352
1042.317, 44.67179
1042.799, 45.69812
1043.281, 47.47023
1043.763, 47.67840
1044.245, 45.50510
1044.727, 44.17491
1045.209, 44.16060
1045.692, 44.54693
1046.174, 45.62556
1046.656, 46.54031
1047.138, 46.11318
1047.620, 45.05130
1048.102, 45.56130
1048.584, 48.63803
1049.066, 50.13328
1049.548, 47.82270
1050.031, 46.05616
1050.513, 46.59372
1050.995, 47.88614
1051.477, 48.71775
1051.959, 49.25480
1052.441, 50.30223
1052.923, 52.27162
1053.405, 53.17910
1053.888, 51.33429
1054.370, 50.00194
1054.852, 50.70218
1055.334, 52.14136
1055.816, 53.64249
1056.298, 54.89229
1056.780, 55.25043
1057.262, 54.45228
1057.745, 53.97829
1058.227, 54.56414
1058.709, 55.14108
1059.191, 55.26350
1059.673, 55.19910
1060.155, 55.28913
1060.637, 55.35546
1061.119, 54.88529
1061.601, 53.73360
1062.083, 52.80013
1062.566, 52.90549
1063.048, 52.62630
1063.530, 50.71077
1064.012, 48.70149
1064.494, 48.11985
1064.976, 48.42287
1065.458, 48.31299
1065.940, 47.53069
1066.423, 46.87874
1066.905, 46.84960
1067.387, 46.78080
1067.869, 46.42555
1068.351, 45.85262
1068.833, 44.75499
1069.315, 43.63617
1069.797, 43.50522
1070.280, 44.48589
1070.762, 45.31829
1071.244, 45.55556
1071.726, 45.43556
1072.208, 45.07994
1072.690, 44.40272
1073.172, 42.86325
1073.654, 41.16564
1074.136, 40.44258
1074.619, 40.83607
1075.101, 41.70366
1075.583, 43.52996
1076.065, 44.53835
1076.547, 42.91172
1077.029, 41.10382
1077.511, 41.25905
1077.993, 42.37706
1078.475, 42.74659
1078.958, 42.25252
1079.440, 41.97486
1079.922, 42.36155
1080.404, 42.91679
1080.886, 43.53833
1081.368, 44.10386
1081.850, 44.35789
1082.332, 44.61023
1082.814, 45.46137
1083.297, 46.75343
1083.779, 47.52384
1084.261, 47.27393
1084.743, 47.08188
1085.225, 47.69566
1085.707, 48.24006
1086.189, 47.82640
1086.671, 47.26149
1087.154, 47.74934
1087.636, 48.96394
1088.118, 49.46367
1088.600, 48.69317
1089.082, 48.03151
1089.564, 47.94657
1090.046, 48.24651
1090.528, 49.11521
1091.010, 50.07792
1091.493, 50.64806
1091.975, 50.92299
1092.457, 51.25259
1092.939, 51.73236
1093.421, 52.06308
1093.903, 51.92216
1094.385, 51.88260
1094.867, 52.42090
1095.349, 52.96520
1095.832, 52.80492
1096.314, 52.37855
1096.796, 52.56181
1097.278, 53.49445
1097.760, 54.58551
1098.242, 56.19644
1098.724, 57.17708
1099.206, 56.72434
1099.689, 55.96865
1100.171, 55.43789
1100.653, 55.23707
1101.135, 55.64753
1101.617, 56.57488
1102.099, 56.98734
1102.581, 56.15443
1103.063, 55.63041
1103.546, 56.38374
1104.028, 56.83213
1104.510, 55.45972
1104.992, 53.83478
1105.474, 54.21903
1105.956, 56.10228
1106.438, 56.51637
1106.920, 54.27165
1107.402, 52.46574
1107.885, 51.49967
1108.367, 51.14350
1108.849, 51.68969
1109.331, 52.48234
1109.813, 53.44198
1110.295, 54.12676
1110.777, 53.12793
1111.259, 49.64446
1111.741, 47.48397
1112.224, 47.74501
1112.706, 48.19118
1113.188, 48.81335
1113.670, 49.02134
1114.152, 47.84045
1114.634, 46.25451
1115.116, 46.47147
1115.598, 48.83582
1116.081, 48.74502
1116.563, 43.33393
1117.045, 40.45512
1117.527, 42.47403
1118.009, 44.76801
1118.491, 45.16003
1118.973, 44.78197
1119.455, 45.04524
1119.938, 45.85177
1120.420, 46.33583
1120.902, 46.76934
1121.384, 46.10372
1121.866, 43.71254
1122.348, 41.42449
1122.830, 39.42821
1123.312, 38.57116
1123.794, 40.07257
1124.276, 43.00072
1124.759, 44.40491
1125.241, 44.10129
1125.723, 43.14405
1126.205, 41.08598
1126.687, 40.24903
1127.169, 41.50109
1127.651, 42.90736
1128.133, 43.16527
1128.616, 43.72713
1129.098, 42.97911
1129.580, 43.53434
1130.062, 43.42380
1130.544, 42.54944
1131.026, 42.25183
1131.508, 42.76366
1131.990, 43.52673
1132.473, 44.38737
1132.955, 44.52691
1133.437, 42.63905
1133.919, 43.63351
1134.401, 40.11241
1134.883, 43.24350
1135.365, 44.18600
1135.847, 42.74596
1136.329, 41.79487
1136.812, 42.21940
1137.294, 42.80603
1137.776, 42.57507
1138.258, 42.07865
1138.740, 42.34959
1139.222, 43.15774
1139.704, 43.88274
1140.186, 44.44163
1140.668, 44.38257
1141.151, 43.77348
1141.633, 43.61413
1142.115, 44.42097
1142.597, 45.25117
1143.079, 44.73475
1143.561, 43.86155
1144.043, 44.48003
1144.525, 45.89586
1145.008, 46.73873
1145.490, 47.02352
1145.972, 47.41473
1146.454, 48.07085
1146.936, 48.37996
1147.418, 47.65480
1147.900, 47.01845
1148.382, 47.80720
1148.865, 47.86998
1149.347, 49.51488
1149.829, 49.64981
1150.311, 50.67806
1150.793, 52.37306
1151.275, 52.87007
1151.757, 51.07477
1152.239, 49.93914
1152.721, 51.71164
1153.203, 54.00996
1153.686, 55.76142
1154.168, 56.85627
1154.650, 56.85257
1155.132, 56.27999
1155.614, 56.25181
1156.096, 56.97836
1156.578, 57.78060
1157.060, 58.38195
1157.543, 59.15112
1158.025, 60.60693
1158.507, 61.79685
1158.989, 61.37294
1159.471, 60.90713
1159.953, 62.89045
1160.435, 66.91656
1160.917, 69.47817
1161.400, 69.86821
1161.882, 69.89497
1162.364, 69.27203
1162.846, 68.76263
1163.328, 68.44764
1163.810, 68.47105
1164.292, 69.13304
1164.774, 70.04369
1165.256, 70.29269
1165.739, 71.02835
1166.221, 70.14037
1166.703, 71.74906
1167.185, 72.50220
1167.667, 72.06045
1168.149, 70.99187
1168.631, 69.48436
1169.113, 67.65556
1169.595, 65.52800
1170.078, 63.32814
1170.560, 61.92916
1171.042, 61.31250
1171.524, 60.63058
1172.006, 59.85381
1172.488, 59.02486
1172.970, 58.15654
1173.452, 57.42508
1173.934, 56.97194
1174.417, 56.41201
1174.899, 55.01762
1175.381, 53.17324
1175.863, 51.90265
1176.345, 51.05571
1176.827, 50.30993
1177.309, 49.53998
1177.791, 48.40357
1178.274, 46.84138
1178.756, 45.48454
1179.238, 44.86383
1179.720, 44.50588
1180.202, 44.06853
1180.684, 43.45740
1181.166, 42.16288
1181.648, 40.80846
1182.130, 40.82430
1182.613, 41.89464
1183.095, 42.03565
1183.577, 40.38954
1184.059, 39.14015
1184.541, 40.10575
1185.023, 40.90356
1185.505, 39.68020
1185.987, 38.28717
1186.469, 38.63873
1186.952, 39.76177
1187.434, 39.84113
1187.916, 38.74575
1188.398, 37.60472
1188.880, 36.30829
1189.362, 35.45997
1189.844, 35.46016
1190.326, 35.47467
1190.809, 35.26228
1191.291, 34.92390
1191.773, 34.46675
1192.255, 33.98648
1192.737, 33.71926
1193.219, 33.68473
1193.701, 33.62307
1194.183, 33.43496
1194.666, 33.70932
1195.148, 34.74055
1195.630, 35.27136
1196.112, 34.64825
1196.594, 33.62243
1197.076, 32.97499
1197.558, 32.63760
1198.040, 32.49954
1198.522, 32.51771
1199.005, 32.16591
1199.487, 31.52719
1199.969, 31.43734
1200.451, 32.03741
1200.933, 32.97069
1201.415, 34.05436
1201.897, 34.58608
1202.379, 33.36287
1202.861, 31.54971
1203.344, 31.07887
1203.826, 31.30417
1204.308, 31.10212
1204.790, 30.59775
1205.272, 30.43286
1205.754, 30.67834
1206.236, 30.79021
1206.718, 30.44851
1207.201, 30.13411
1207.683, 30.22003
1208.165, 30.34330
1208.647, 30.31883
1209.129, 30.15732
1209.611, 29.52723
1210.093, 28.89730
1210.575, 29.49652
1211.057, 31.53061
1211.540, 32.66567
1212.022, 31.87440
1212.504, 31.25888
1212.986, 31.22857
1213.468, 31.17538
1213.950, 30.84537
1214.432, 30.45173
1214.914, 30.08086
1215.396, 29.87429
1215.879, 30.32656
1216.361, 30.23567
1216.843, 30.56018
1217.325, 31.10751
1217.807, 31.16152
1218.289, 32.49800
1218.771, 32.77123
1219.253, 30.81409
1219.736, 28.69260
1220.218, 28.65445
1220.700, 29.61438
1221.182, 29.06433
1221.664, 27.54421
1222.146, 26.68529
1222.628, 26.50470
1223.110, 26.97155
1223.593, 27.90737
1224.075, 28.69751
1224.557, 29.06827
1225.039, 29.10055
1225.521, 28.44541
1226.003, 28.02350
1226.485, 28.90399
1226.967, 30.21622
1227.449, 31.27850
1227.932, 32.01068
1228.414, 32.44406
1228.896, 32.56273
1229.378, 32.30943
1229.860, 31.67310
1230.342, 30.65248
1230.824, 27.85198
1231.306, 26.63347
1231.788, 30.11149
1232.271, 32.97466
1232.753, 31.36897
1233.235, 28.16509
1233.717, 26.99307
1234.199, 27.64764
1234.681, 28.99219
1235.163, 31.48770
1235.645, 32.31188
1236.128, 31.15163
1236.610, 29.85601
1237.092, 28.78266
1237.574, 28.55149
1238.056, 29.61931
1238.538, 30.94245
1239.020, 31.10057
1239.502, 30.56786
1239.984, 30.54589
1240.467, 30.83365
1240.949, 30.87834
1241.431, 30.68356
1241.913, 30.21860
1242.395, 29.64836
1242.877, 29.82192
1243.359, 31.25109
1243.841, 32.52854
1244.323, 32.51953
1244.806, 32.09361
1245.288, 32.19657
1245.770, 31.90220
1246.252, 29.40235
1246.734, 26.40125
1247.216, 26.00137
1247.698, 28.09768
1248.180, 29.52346
1248.662, 29.58626
1249.145, 29.60693
1249.627, 30.01257
1250.109, 29.71708
1250.591, 27.65547
1251.073, 26.47006
1251.555, 28.14674
1252.037, 30.62987
1252.519, 31.04101
1253.002, 29.88783
1253.484, 29.58762
1253.966, 30.11137
1254.448, 30.23901
1254.930, 29.94136
1255.412, 29.56086
1255.894, 29.18621
1256.376, 28.87695
1256.859, 28.66806
1257.341, 28.22864
1257.823, 26.72361
1258.305, 25.51377
1258.787, 27.00848
1259.269, 29.44078
1259.751, 30.79102
1260.233, 31.07771
1260.715, 30.27307
1261.198, 28.80714
1261.680, 28.01674
1262.162, 28.36038
1262.644, 28.83286
1263.126, 29.09229
1263.608, 29.48058
1264.090, 30.82599
1264.572, 31.43464
1265.054, 29.48713
1265.537, 27.29886
1266.019, 27.48683
1266.501, 29.31128
1266.983, 30.33593
1267.465, 30.53424
1267.947, 29.94314
1268.429, 28.40561
1268.911, 28.09356
1269.394, 29.35100
1269.876, 30.78537
1270.358, 31.82571
1270.840, 31.94680
1271.322, 30.41825
1271.804, 28.77633
1272.286, 30.15016
1272.768, 28.67251
1273.250, 31.30935
1273.733, 28.77017
1274.215, 28.71211
1274.697, 30.61880
1275.179, 31.84037
1275.661, 31.69864
1276.143, 30.86995
1276.625, 29.10841
1277.107, 27.71368
1277.589, 26.59036
1278.072, 26.58601
1278.554, 29.61418
1279.036, 32.31382
1279.518, 31.60458
1280.000, 29.26699
1280.482, 28.18826
1280.964, 28.30825
1281.446, 29.19109
1281.929, 28.18407
1282.411, 30.71857
1282.893, 27.51173
1283.375, 25.47218
1283.857, 25.56700
1284.339, 26.80087
1284.821, 28.63053
1285.303, 30.19746
1285.786, 30.68760
1286.268, 30.09116
##END=



