##NAMES=Paracoquimbite
##RRUFFID=R050351
##IDEAL CHEMISTRY=Fe^3+^_4_(S^6+^O_4_)_6_(H_2_O)_12_&#183;6H_2_O
##LOCALITY=Cyprus
##OWNER=RRUFF
##SOURCE=California Institute of Technology
##DESCRIPTION=Purple fragment
##STATUS=The identification of this mineral is confirmed by single-crystal X-ray diffraction and chemical analysis.
##URL=rruff.info/R050351
##MEASURED CHEMISTRY=(Fe^3+^_1.97_Al_0.03_)_Σ=2_(S_1.00_O_4_)_3_·9H_2_O
119.3521, 223.1577
119.8342, 229.2503
120.3163, 237.5435
120.7984, 246.0079
121.2805, 252.9745
121.7626, 259.3023
122.2448, 266.4598
122.7269, 275.7136
123.2090, 285.8501
123.6911, 295.5295
124.1732, 304.4124
124.6553, 313.6686
125.1375, 325.1534
125.6196, 338.1218
126.1017, 350.2164
126.5838, 359.4234
127.0659, 366.9173
127.5480, 375.2358
128.0302, 385.5014
128.5123, 395.2317
128.9944, 400.1950
129.4765, 400.8087
129.9586, 400.9716
130.4407, 402.2498
130.9229, 405.0635
131.4050, 411.5133
131.8871, 422.7866
132.3692, 437.0300
132.8513, 449.7418
133.3334, 460.0342
133.8156, 468.5352
134.2977, 476.6259
134.7798, 485.9380
135.2619, 498.4547
135.7440, 515.3671
136.2261, 535.5853
136.7083, 556.0128
137.1904, 577.0798
137.6725, 597.3705
138.1546, 614.5247
138.6367, 627.4381
139.1188, 643.8645
139.6010, 666.8748
140.0831, 696.3773
140.5652, 724.0597
141.0473, 749.5044
141.5294, 774.2130
142.0115, 799.4052
142.4937, 824.5794
142.9758, 851.9233
143.4579, 883.4366
143.9400, 920.7511
144.4221, 953.9857
144.9042, 985.3929
145.3864, 1011.683
145.8685, 1026.681
146.3506, 1029.909
146.8327, 1023.069
147.3148, 1006.148
147.7969, 976.8727
148.2791, 942.8348
148.7612, 899.2757
149.2433, 851.5794
149.7254, 811.4033
150.2075, 779.5577
150.6896, 754.6605
151.1718, 736.5504
151.6539, 727.2652
152.1360, 721.5242
152.6181, 720.7286
153.1002, 723.5950
153.5823, 726.3041
154.0645, 725.9650
154.5466, 727.3019
155.0287, 732.5516
155.5108, 746.5399
155.9929, 758.9813
156.4750, 766.8834
156.9572, 771.5143
157.4393, 777.8793
157.9214, 788.3240
158.4035, 800.1001
158.8856, 811.5176
159.3677, 821.5972
159.8499, 831.9423
160.3320, 843.4969
160.8141, 855.9251
161.2962, 867.2166
161.7783, 874.4624
162.2604, 881.2093
162.7426, 890.3820
163.2247, 907.8029
163.7068, 923.5060
164.1889, 932.1789
164.6710, 934.1373
165.1531, 935.3735
165.6353, 937.3971
166.1174, 940.6832
166.5995, 945.7440
167.0816, 955.2562
167.5637, 964.7373
168.0458, 970.8973
168.5280, 973.6444
169.0101, 976.1395
169.4922, 983.3223
169.9743, 990.9222
170.4564, 992.8991
170.9385, 983.3449
171.4207, 969.1981
171.9028, 956.7911
172.3849, 946.5518
172.8670, 934.8779
173.3491, 917.3812
173.8312, 896.4391
174.3134, 876.5160
174.7955, 858.7907
175.2776, 843.7191
175.7597, 831.9100
176.2418, 823.3216
176.7239, 818.0445
177.2061, 817.4354
177.6882, 820.2570
178.1703, 823.1359
178.6524, 824.3675
179.1345, 824.6543
179.6166, 825.2215
180.0988, 826.2207
180.5809, 827.0892
181.0630, 827.1128
181.5451, 826.4272
182.0272, 825.5779
182.5093, 825.0106
182.9915, 824.4692
183.4736, 823.3013
183.9557, 821.3848
184.4378, 819.0731
184.9199, 815.8400
185.4020, 812.0851
185.8842, 810.2867
186.3663, 811.1861
186.8484, 815.0485
187.3305, 823.2538
187.8126, 836.5250
188.2947, 852.7381
188.7769, 867.8922
189.2590, 882.1714
189.7411, 899.4279
190.2232, 923.2192
190.7053, 952.5739
191.1874, 981.4591
191.6696, 1009.186
192.1517, 1037.286
192.6338, 1069.046
193.1159, 1104.545
193.5980, 1141.529
194.0801, 1179.435
194.5623, 1217.958
195.0444, 1255.079
195.5265, 1290.071
196.0086, 1323.903
196.4907, 1359.324
196.9728, 1396.735
197.4550, 1432.331
197.9371, 1464.065
198.4192, 1491.936
198.9013, 1516.554
199.3834, 1538.084
199.8655, 1556.228
200.3477, 1568.725
200.8298, 1573.901
201.3119, 1580.962
201.7940, 1594.313
202.2761, 1613.732
202.7582, 1641.724
203.2404, 1678.443
203.7225, 1723.883
204.2046, 1777.904
204.6867, 1840.298
205.1688, 1912.262
205.6509, 1994.774
206.1331, 2089.135
206.6152, 2188.397
207.0973, 2293.305
207.5794, 2402.086
208.0615, 2510.519
208.5436, 2620.397
209.0258, 2725.706
209.5079, 2827.668
209.9900, 2932.926
210.4721, 3002.541
210.9542, 3031.714
211.4363, 3023.732
211.9185, 2987.327
212.4006, 2918.188
212.8827, 2829.122
213.3648, 2726.369
213.8469, 2603.791
214.3290, 2485.517
214.8112, 2371.156
215.2933, 2263.207
215.7754, 2166.602
216.2575, 2081.385
216.7396, 2007.099
217.2217, 1944.425
217.7038, 1894.552
218.1860, 1853.522
218.6681, 1823.799
219.1502, 1802.556
219.6323, 1779.238
220.1144, 1750.780
220.5965, 1725.870
221.0787, 1710.737
221.5608, 1709.831
222.0429, 1706.651
222.5250, 1699.605
223.0071, 1689.704
223.4892, 1681.349
223.9714, 1676.675
224.4535, 1670.133
224.9356, 1658.820
225.4177, 1642.750
225.8998, 1621.723
226.3819, 1594.257
226.8641, 1561.906
227.3462, 1531.007
227.8283, 1502.598
228.3104, 1474.089
228.7925, 1444.479
229.2746, 1412.836
229.7568, 1381.259
230.2389, 1349.710
230.7210, 1317.994
231.2031, 1286.335
231.6852, 1254.130
232.1673, 1222.917
232.6495, 1193.715
233.1316, 1166.933
233.6137, 1141.145
234.0958, 1115.867
234.5779, 1091.951
235.0600, 1072.557
235.5422, 1059.843
236.0243, 1048.221
236.5064, 1034.845
236.9885, 1017.291
237.4706, 1003.407
237.9527, 994.0223
238.4349, 988.2585
238.9170, 984.1198
239.3991, 981.6102
239.8812, 980.7219
240.3633, 981.8723
240.8454, 986.7596
241.3276, 989.2548
241.8097, 987.6478
242.2918, 984.2516
242.7739, 984.3162
243.2560, 989.6218
243.7381, 995.6288
244.2203, 1000.290
244.7024, 1002.034
245.1845, 1007.031
245.6666, 1016.607
246.1487, 1028.793
246.6308, 1040.046
247.1130, 1049.952
247.5951, 1059.619
248.0772, 1069.026
248.5593, 1077.593
249.0414, 1088.340
249.5235, 1102.405
250.0057, 1117.903
250.4878, 1131.382
250.9699, 1139.650
251.4520, 1151.728
251.9341, 1171.582
252.4162, 1201.717
252.8984, 1227.220
253.3805, 1245.102
253.8626, 1260.828
254.3447, 1282.466
254.8268, 1313.929
255.3089, 1343.914
255.7911, 1368.344
256.2732, 1386.483
256.7553, 1406.134
257.2374, 1426.759
257.7195, 1449.543
258.2017, 1476.343
258.6838, 1509.042
259.1659, 1541.912
259.6480, 1573.325
260.1301, 1602.828
260.6122, 1635.943
261.0944, 1674.033
261.5765, 1714.259
262.0586, 1753.262
262.5407, 1789.151
263.0228, 1828.820
263.5049, 1873.829
263.9871, 1924.399
264.4692, 1975.253
264.9513, 2025.683
265.4334, 2078.239
265.9155, 2137.325
266.3976, 2204.093
266.8798, 2269.628
267.3619, 2330.357
267.8440, 2387.930
268.3261, 2451.480
268.8082, 2521.757
269.2903, 2596.090
269.7725, 2671.895
270.2546, 2747.863
270.7367, 2827.185
271.2188, 2911.250
271.7009, 2997.967
272.1830, 3080.302
272.6652, 3156.758
273.1473, 3231.225
273.6294, 3306.149
274.1115, 3380.874
274.5936, 3460.596
275.0757, 3548.548
275.5579, 3640.645
276.0400, 3722.065
276.5221, 3791.195
277.0042, 3856.005
277.4863, 3921.001
277.9684, 3986.344
278.4506, 4050.366
278.9327, 4115.026
279.4148, 4175.714
279.8969, 4220.687
280.3790, 4248.278
280.8611, 4272.117
281.3433, 4298.059
281.8254, 4326.252
282.3075, 4358.154
282.7896, 4396.095
283.2717, 4433.242
283.7538, 4457.006
284.2360, 4466.954
284.7181, 4475.589
285.2002, 4493.207
285.6823, 4517.135
286.1644, 4522.114
286.6465, 4506.736
287.1287, 4477.438
287.6108, 4441.525
288.0929, 4398.907
288.5750, 4348.379
289.0571, 4290.542
289.5392, 4224.153
290.0214, 4144.132
290.5035, 4050.134
290.9856, 3948.801
291.4677, 3847.018
291.9498, 3743.859
292.4319, 3636.775
292.9141, 3521.830
293.3962, 3403.231
293.8783, 3291.019
294.3604, 3185.782
294.8425, 3082.392
295.3246, 2974.232
295.8068, 2862.864
296.2889, 2755.698
296.7710, 2653.460
297.2531, 2555.692
297.7352, 2464.060
298.2173, 2378.469
298.6995, 2294.293
299.1816, 2207.117
299.6637, 2119.481
300.1458, 2039.279
300.6279, 1968.162
301.1100, 1902.495
301.5922, 1838.144
302.0743, 1775.778
302.5564, 1718.402
303.0385, 1670.454
303.5206, 1627.386
304.0027, 1581.025
304.4849, 1529.873
304.9670, 1479.129
305.4491, 1434.646
305.9312, 1394.977
306.4133, 1356.637
306.8954, 1319.198
307.3776, 1281.505
307.8597, 1241.580
308.3418, 1198.475
308.8239, 1158.918
309.3060, 1130.938
309.7881, 1108.990
310.2703, 1085.223
310.7524, 1055.080
311.2345, 1022.632
311.7166, 989.4266
312.1987, 955.7004
312.6808, 925.7218
313.1630, 905.4391
313.6451, 888.5452
314.1272, 868.0369
314.6093, 837.0394
315.0914, 806.4893
315.5735, 782.6863
316.0557, 764.5884
316.5378, 746.6932
317.0199, 725.2519
317.5020, 704.0103
317.9841, 685.7088
318.4662, 674.3391
318.9484, 661.4943
319.4305, 642.6403
319.9126, 620.0587
320.3947, 599.7398
320.8768, 585.1848
321.3589, 571.9944
321.8411, 557.7228
322.3232, 541.1239
322.8053, 526.1283
323.2874, 514.8189
323.7695, 505.3315
324.2516, 494.7148
324.7338, 480.0720
325.2159, 466.4815
325.6980, 455.9472
326.1801, 449.3566
326.6622, 442.0541
327.1443, 432.6844
327.6265, 422.8552
328.1086, 414.1544
328.5907, 407.2778
329.0728, 400.8957
329.5549, 395.2408
330.0370, 390.3048
330.5192, 384.1820
331.0013, 375.2824
331.4834, 366.5001
331.9655, 359.8342
332.4476, 356.7303
332.9297, 353.2536
333.4119, 349.0575
333.8940, 344.2490
334.3761, 339.2994
334.8582, 334.1984
335.3403, 329.1377
335.8224, 324.1789
336.3046, 319.1699
336.7867, 314.7217
337.2688, 311.0192
337.7509, 307.7177
338.2330, 303.8572
338.7151, 299.0921
339.1973, 294.9654
339.6794, 292.4708
340.1615, 291.7737
340.6436, 289.2397
341.1257, 284.2155
341.6078, 278.8494
342.0899, 276.3822
342.5721, 277.1292
343.0542, 277.0689
343.5363, 274.7586
344.0184, 270.7453
344.5005, 267.2737
344.9826, 264.4096
345.4648, 261.8204
345.9469, 259.2991
346.4290, 256.8120
346.9111, 254.3624
347.3932, 251.8850
347.8753, 249.4900
348.3575, 247.4455
348.8396, 245.7439
349.3217, 244.2452
349.8038, 243.1209
350.2859, 242.1280
350.7680, 240.5256
351.2502, 238.0598
351.7323, 235.6166
352.2144, 234.7151
352.6965, 234.7748
353.1786, 234.0664
353.6607, 230.6208
354.1429, 226.4427
354.6250, 224.2518
355.1071, 224.2140
355.5892, 224.5155
356.0713, 223.9633
356.5534, 222.8102
357.0356, 221.4355
357.5177, 220.5401
357.9998, 218.9942
358.4819, 214.8958
358.9640, 208.8886
359.4461, 204.7008
359.9283, 206.3323
360.4104, 209.5204
360.8925, 210.6020
361.3746, 207.6902
361.8567, 204.4215
362.3388, 202.3129
362.8210, 200.9424
363.3031, 199.3036
363.7852, 195.9436
364.2673, 193.1574
364.7494, 192.3864
365.2315, 194.5600
365.7137, 195.8607
366.1958, 194.8954
366.6779, 192.8870
367.1600, 191.2640
367.6421, 190.4998
368.1242, 189.8099
368.6064, 189.2251
369.0885, 188.7677
369.5706, 187.6380
370.0527, 185.0216
370.5348, 182.3593
371.0169, 180.6053
371.4991, 180.5553
371.9812, 180.0621
372.4633, 178.6103
372.9454, 176.6273
373.4275, 175.7509
373.9096, 176.6449
374.3918, 177.4734
374.8739, 177.1957
375.3560, 175.3357
375.8381, 174.6753
376.3202, 175.7785
376.8023, 177.3564
377.2845, 177.0378
377.7666, 174.3047
378.2487, 172.6018
378.7308, 173.7126
379.2129, 177.0004
379.6950, 177.7028
380.1772, 175.4239
380.6593, 172.6263
381.1414, 171.5742
381.6235, 172.1258
382.1056, 172.9335
382.5877, 173.8280
383.0699, 174.6916
383.5520, 175.1192
384.0341, 175.1802
384.5162, 175.5343
384.9983, 177.1446
385.4804, 179.2838
385.9626, 180.2589
386.4447, 179.7668
386.9268, 178.8457
387.4089, 178.5846
387.8910, 178.7033
388.3731, 178.5779
388.8553, 177.4293
389.3374, 176.2210
389.8195, 176.1332
390.3016, 177.0981
390.7837, 177.8498
391.2658, 177.5596
391.7480, 176.6613
392.2301, 175.5361
392.7122, 173.6995
393.1943, 172.4706
393.6764, 172.6537
394.1585, 173.9751
394.6407, 175.6404
395.1228, 178.0974
395.6049, 180.2685
396.0870, 181.4886
396.5691, 181.2909
397.0512, 181.3981
397.5334, 182.4499
398.0155, 183.8860
398.4976, 184.9905
398.9797, 185.3064
399.4618, 185.7053
399.9439, 186.3768
400.4261, 187.3175
400.9082, 188.2092
401.3903, 188.8433
401.8724, 189.6212
402.3545, 190.8430
402.8366, 192.7735
403.3188, 194.5361
403.8009, 196.0463
404.2830, 197.3753
404.7651, 198.6909
405.2472, 199.9593
405.7293, 201.2798
406.2115, 202.7694
406.6936, 204.4296
407.1757, 205.6040
407.6578, 206.0334
408.1399, 206.6949
408.6220, 209.0781
409.1042, 213.1372
409.5863, 216.6947
410.0684, 218.9728
410.5505, 220.5391
411.0326, 223.1320
411.5147, 226.7146
411.9969, 229.8277
412.4790, 230.9016
412.9611, 230.7970
413.4432, 231.6343
413.9253, 233.8451
414.4074, 236.4710
414.8896, 238.1416
415.3717, 239.4113
415.8538, 241.5855
416.3359, 246.8322
416.8180, 252.2525
417.3001, 254.6434
417.7823, 254.0760
418.2644, 253.7054
418.7465, 256.1682
419.2286, 259.3520
419.7107, 261.1137
420.1928, 259.6465
420.6750, 258.3935
421.1571, 258.7687
421.6392, 260.3564
422.1213, 262.0777
422.6034, 264.7120
423.0855, 266.5049
423.5677, 266.4156
424.0498, 263.6128
424.5319, 261.6577
425.0140, 260.5272
425.4961, 260.5059
425.9782, 262.0031
426.4604, 267.2436
426.9425, 270.7050
427.4246, 270.9285
427.9067, 268.4823
428.3888, 267.2507
428.8709, 267.3034
429.3531, 268.4370
429.8352, 270.9983
430.3173, 275.5158
430.7994, 278.4816
431.2815, 279.5340
431.7636, 279.4349
432.2458, 279.1693
432.7279, 278.7075
433.2100, 278.5603
433.6921, 279.2339
434.1742, 280.3068
434.6563, 280.2204
435.1385, 278.9611
435.6206, 277.0117
436.1027, 274.1353
436.5848, 270.8712
437.0669, 268.9800
437.5490, 269.3365
438.0312, 269.7841
438.5133, 267.0054
438.9954, 262.1913
439.4775, 258.6451
439.9596, 259.5616
440.4417, 261.5609
440.9239, 261.0476
441.4060, 257.8151
441.8881, 255.5952
442.3702, 257.0411
442.8523, 260.3110
443.3344, 263.6691
443.8166, 267.0935
444.2987, 270.0190
444.7808, 272.3177
445.2629, 273.9879
445.7450, 275.0371
446.2271, 273.7608
446.7093, 273.3187
447.1914, 275.3452
447.6735, 281.1467
448.1556, 285.2145
448.6377, 286.3209
449.1198, 286.4819
449.6020, 287.9698
450.0841, 292.4045
450.5662, 294.5779
451.0483, 292.8238
451.5304, 288.2417
452.0125, 285.8029
452.4947, 285.8208
452.9768, 286.9496
453.4589, 288.7723
453.9410, 291.3292
454.4231, 293.0691
454.9052, 293.6478
455.3874, 294.4919
455.8695, 298.0715
456.3516, 303.9729
456.8337, 308.9691
457.3158, 311.5944
457.7979, 313.1286
458.2801, 315.3751
458.7622, 318.4082
459.2443, 322.9064
459.7264, 330.6552
460.2085, 339.6155
460.6906, 346.7608
461.1728, 351.2818
461.6549, 355.7395
462.1370, 362.0458
462.6191, 369.3663
463.1012, 376.3391
463.5833, 382.3876
464.0655, 388.0605
464.5476, 393.1960
465.0297, 397.9055
465.5118, 403.3062
465.9939, 410.6547
466.4760, 417.9587
466.9582, 423.9620
467.4403, 427.1283
467.9224, 431.7379
468.4045, 439.5608
468.8866, 448.1217
469.3687, 453.8480
469.8509, 455.0752
470.3330, 456.3055
470.8151, 458.5453
471.2972, 461.6966
471.7793, 464.4849
472.2614, 466.5216
472.7436, 469.3459
473.2257, 474.4479
473.7078, 481.8990
474.1899, 488.6317
474.6720, 494.3097
475.1541, 499.6247
475.6363, 504.7408
476.1184, 510.0038
476.6005, 517.7159
477.0826, 529.9503
477.5647, 544.4803
478.0468, 557.5092
478.5290, 569.2855
479.0111, 582.0732
479.4932, 599.2698
479.9753, 617.6008
480.4574, 632.3723
480.9395, 641.1742
481.4217, 651.7880
481.9038, 669.1823
482.3859, 691.1681
482.8680, 714.3771
483.3501, 739.1805
483.8322, 763.5702
484.3144, 786.0226
484.7965, 806.6132
485.2786, 829.5077
485.7607, 855.3000
486.2428, 883.2892
486.7249, 913.3204
487.2071, 945.9422
487.6892, 978.7002
488.1713, 1011.669
488.6534, 1044.683
489.1355, 1077.988
489.6176, 1111.778
490.0998, 1145.859
490.5819, 1180.433
491.0640, 1215.840
491.5461, 1252.613
492.0282, 1290.910
492.5103, 1330.966
492.9925, 1372.012
493.4746, 1414.920
493.9567, 1461.971
494.4388, 1514.889
494.9209, 1567.145
495.4030, 1611.112
495.8852, 1648.876
496.3673, 1687.055
496.8494, 1729.256
497.3315, 1771.242
497.8136, 1810.185
498.2957, 1845.966
498.7779, 1876.545
499.2600, 1902.965
499.7421, 1922.774
500.2242, 1934.287
500.7063, 1937.213
501.1884, 1932.876
501.6706, 1921.914
502.1527, 1903.900
502.6348, 1878.479
503.1169, 1841.596
503.5990, 1802.145
504.0811, 1763.456
504.5633, 1723.607
505.0454, 1672.998
505.5275, 1606.105
506.0096, 1539.409
506.4917, 1479.624
506.9738, 1426.623
507.4560, 1375.863
507.9381, 1327.376
508.4202, 1281.009
508.9023, 1236.831
509.3844, 1194.790
509.8665, 1153.882
510.3487, 1113.607
510.8308, 1074.963
511.3129, 1040.007
511.7950, 1008.332
512.2772, 978.0328
512.7593, 948.0690
513.2414, 919.0077
513.7235, 891.2216
514.2056, 864.6893
514.6877, 838.8431
515.1699, 813.8870
515.6520, 789.1454
516.1341, 763.9528
516.6162, 737.7758
517.0983, 711.7805
517.5804, 685.1246
518.0626, 658.9379
518.5447, 635.0762
519.0268, 615.8077
519.5089, 596.7302
519.9910, 577.0130
520.4731, 556.6440
520.9553, 536.2996
521.4374, 515.2360
521.9195, 495.6424
522.4016, 478.8802
522.8837, 465.4679
523.3658, 453.2015
523.8480, 442.4580
524.3301, 431.9843
524.8122, 419.6295
525.2943, 405.6419
525.7764, 393.2660
526.2585, 383.6704
526.7407, 375.8629
527.2228, 368.0538
527.7049, 360.2469
528.1870, 352.7094
528.6691, 345.4890
529.1512, 338.5775
529.6334, 331.8630
530.1155, 325.2648
530.5976, 319.2450
531.0797, 314.4068
531.5618, 310.0294
532.0439, 305.4283
532.5261, 299.7910
533.0082, 294.7541
533.4903, 291.2310
533.9724, 288.5023
534.4545, 284.9349
534.9366, 279.9509
535.4188, 274.6097
535.9009, 268.6365
536.3830, 262.0955
536.8651, 258.0977
537.3472, 257.8805
537.8293, 257.7914
538.3115, 255.1530
538.7936, 249.7464
539.2757, 245.0769
539.7578, 241.3147
540.2399, 238.3924
540.7220, 236.5967
541.2042, 235.7169
541.6863, 234.3703
542.1684, 231.8294
542.6505, 228.9460
543.1326, 227.0895
543.6147, 226.0029
544.0969, 224.6579
544.5790, 222.0342
545.0611, 219.2126
545.5432, 217.0680
546.0253, 215.6943
546.5074, 214.6778
546.9896, 214.2179
547.4717, 213.8474
547.9538, 213.1934
548.4359, 212.2389
548.9180, 210.9322
549.4001, 209.1790
549.8823, 207.1018
550.3644, 204.8466
550.8465, 202.0726
551.3286, 199.7164
551.8107, 197.9869
552.2928, 196.8632
552.7750, 196.4975
553.2571, 197.1398
553.7392, 197.3137
554.2213, 195.2730
554.7034, 191.6553
555.1855, 190.4953
555.6677, 192.2480
556.1498, 194.4719
556.6319, 194.2480
557.1140, 192.6105
557.5961, 191.7857
558.0782, 192.9635
558.5604, 194.2084
559.0425, 193.6061
559.5246, 191.8776
560.0067, 190.6281
560.4888, 190.6231
560.9709, 191.1547
561.4531, 192.3314
561.9352, 194.1324
562.4173, 194.8877
562.8994, 193.1938
563.3815, 191.3542
563.8636, 190.4717
564.3458, 190.7043
564.8279, 191.6480
565.3100, 193.8821
565.7921, 196.1134
566.2742, 196.1857
566.7563, 193.7480
567.2385, 192.6875
567.7206, 194.1084
568.2027, 197.0381
568.6848, 199.8745
569.1669, 202.5258
569.6490, 203.9812
570.1312, 202.2098
570.6133, 199.6171
571.0954, 200.1325
571.5775, 203.6579
572.0596, 207.2647
572.5417, 209.2587
573.0239, 210.4241
573.5060, 211.2395
573.9881, 211.4192
574.4702, 212.3155
574.9523, 214.6917
575.4344, 217.8942
575.9166, 221.0690
576.3987, 224.3498
576.8808, 227.3740
577.3629, 229.8461
577.8450, 232.0788
578.3271, 235.2685
578.8093, 239.7714
579.2914, 244.1125
579.7735, 247.3639
580.2556, 249.7503
580.7377, 253.5879
581.2198, 258.9570
581.7020, 264.7061
582.1841, 270.1528
582.6662, 275.2060
583.1483, 279.1888
583.6304, 281.5166
584.1125, 285.2005
584.5947, 294.6703
585.0768, 306.7344
585.5589, 316.6840
586.0410, 320.4970
586.5231, 324.6104
587.0052, 332.4640
587.4873, 342.7123
587.9694, 351.5821
588.4515, 357.4804
588.9337, 362.8781
589.4158, 367.8938
589.8979, 372.5139
590.3800, 379.7242
590.8621, 390.6888
591.3442, 402.2251
591.8264, 412.2896
592.3085, 420.8586
592.7906, 428.7257
593.2727, 435.6664
593.7548, 442.8609
594.2369, 452.8604
594.7191, 464.6447
595.2012, 473.8951
595.6833, 478.9138
596.1654, 482.4272
596.6475, 487.6510
597.1296, 493.6803
597.6118, 498.5419
598.0939, 499.7763
598.5760, 500.9971
599.0581, 505.0577
599.5402, 511.4636
600.0223, 515.9034
600.5045, 517.8739
600.9866, 517.2047
601.4687, 513.4086
601.9508, 505.5597
602.4329, 498.8871
602.9150, 494.3892
603.3972, 489.7411
603.8793, 482.2659
604.3614, 471.4705
604.8435, 463.1598
605.3256, 458.9123
605.8077, 455.3862
606.2899, 446.6830
606.7720, 433.7937
607.2541, 421.7723
607.7362, 412.8319
608.2183, 405.2855
608.7004, 397.8182
609.1826, 390.2526
609.6647, 382.2469
610.1468, 373.0333
610.6289, 363.6584
611.1110, 354.8165
611.5931, 346.4437
612.0753, 338.4265
612.5574, 330.7702
613.0395, 323.3561
613.5216, 316.1360
614.0037, 309.0814
614.4858, 301.9887
614.9680, 294.3830
615.4501, 287.3728
615.9322, 282.6542
616.4143, 280.3802
616.8964, 277.7323
617.3785, 274.2049
617.8607, 270.0801
618.3428, 265.5173
618.8249, 260.6883
619.3070, 256.3141
619.7891, 253.2145
620.2712, 250.3896
620.7534, 246.5817
621.2355, 242.0407
621.7176, 238.0770
622.1997, 235.8787
622.6818, 233.9903
623.1639, 231.4671
623.6461, 228.0810
624.1282, 225.1580
624.6103, 223.4394
625.0924, 221.6903
625.5745, 218.9953
626.0566, 214.5811
626.5388, 211.4135
627.0209, 209.8418
627.5030, 209.0783
627.9851, 208.3204
628.4672, 207.5462
628.9493, 206.1735
629.4315, 203.9564
629.9136, 201.2641
630.3957, 198.4143
630.8778, 195.5454
631.3599, 193.1123
631.8420, 191.8770
632.3242, 190.7270
632.8063, 188.5279
633.2884, 185.5484
633.7705, 183.1937
634.2526, 182.4726
634.7347, 182.0541
635.2169, 181.3552
635.6990, 180.3446
636.1811, 179.0698
636.6632, 177.3592
637.1453, 175.5930
637.6274, 174.1774
638.1096, 173.2412
638.5917, 171.5372
639.0738, 168.7875
639.5559, 165.8662
640.0380, 163.9146
640.5201, 162.7396
641.0023, 161.5201
641.4844, 159.9529
641.9665, 158.4227
642.4486, 157.2429
642.9307, 156.3817
643.4128, 155.7847
643.8950, 155.9104
644.3771, 155.8194
644.8592, 155.0587
645.3413, 153.6944
645.8234, 152.0773
646.3055, 149.7176
646.7877, 147.7262
647.2698, 146.6669
647.7519, 146.5838
648.2340, 145.6695
648.7161, 143.5444
649.1982, 141.6316
649.6804, 141.2079
650.1625, 142.0931
650.6446, 142.5163
651.1267, 142.3304
651.6088, 142.1163
652.0909, 142.9541
652.5731, 144.0773
653.0552, 143.9538
653.5373, 141.6488
654.0194, 139.4247
654.5015, 138.9459
654.9836, 139.3424
655.4658, 139.3303
655.9479, 138.0457
656.4300, 136.9415
656.9121, 136.0882
657.3942, 135.6229
657.8763, 136.0892
658.3585, 138.1004
658.8406, 139.5780
659.3227, 139.6469
659.8048, 138.6565
660.2869, 138.4646
660.7690, 139.0930
661.2512, 139.8677
661.7333, 140.3760
662.2154, 140.7150
662.6975, 140.9322
663.1796, 141.0450
663.6617, 141.4995
664.1439, 142.9081
664.6260, 144.6151
665.1081, 146.0305
665.5902, 146.9599
666.0723, 147.9016
666.5544, 148.7233
667.0366, 149.7693
667.5187, 151.4223
668.0008, 154.4253
668.4829, 156.4604
668.9650, 157.1359
669.4471, 157.0899
669.9293, 157.2530
670.4114, 157.6270
670.8935, 158.1947
671.3756, 159.1465
671.8577, 159.9855
672.3398, 159.7399
672.8220, 158.6488
673.3041, 157.5406
673.7862, 156.9502
674.2683, 156.3868
674.7504, 155.3388
675.2325, 153.9406
675.7147, 152.9093
676.1968, 153.8982
676.6789, 153.9324
677.1610, 150.7791
677.6431, 144.1367
678.1252, 141.3184
678.6074, 144.2348
679.0895, 147.4525
679.5716, 147.2861
680.0537, 143.7344
680.5358, 140.7317
681.0179, 138.3536
681.5001, 136.5693
681.9822, 135.7401
682.4643, 135.4383
682.9464, 134.7314
683.4285, 133.3125
683.9106, 132.0403
684.3928, 131.7019
684.8749, 131.7785
685.3570, 131.6343
685.8391, 131.0960
686.3212, 130.3422
686.8033, 129.2390
687.2855, 127.9810
687.7676, 126.9373
688.2497, 126.3826
688.7318, 125.2269
689.2139, 122.9347
689.6960, 120.1539
690.1782, 118.9878
690.6603, 119.3384
691.1424, 119.2898
691.6245, 117.5961
692.1066, 115.2011
692.5887, 113.1964
693.0709, 111.6864
693.5530, 111.1581
694.0351, 113.5308
694.5172, 115.6303
694.9993, 114.9956
695.4814, 111.4026
695.9636, 108.7644
696.4457, 108.2498
696.9278, 108.2365
697.4099, 108.0283
697.8920, 107.5776
698.3741, 107.3174
698.8563, 107.3667
699.3384, 107.2396
699.8205, 106.3301
700.3026, 104.8311
700.7847, 103.4961
701.2668, 102.3544
701.7490, 101.7524
702.2311, 102.5170
702.7132, 103.8534
703.1953, 104.6777
703.6774, 104.6887
704.1595, 104.2125
704.6417, 103.1448
705.1238, 101.7406
705.6059, 100.3303
706.0880, 98.35777
706.5701, 97.35680
707.0522, 97.83360
707.5344, 99.09681
708.0165, 99.67944
708.4986, 99.53247
708.9807, 99.47497
709.4628, 99.86081
709.9449, 100.3367
710.4271, 100.3226
710.9092, 99.83684
711.3913, 98.94393
711.8734, 96.98045
712.3555, 95.22583
712.8376, 94.87486
713.3198, 95.63422
713.8019, 96.00200
714.2840, 94.87238
714.7661, 93.99192
715.2482, 94.36455
715.7303, 95.90592
716.2125, 95.74417
716.6946, 93.13166
717.1767, 90.85948
717.6588, 90.74278
718.1409, 92.50713
718.6230, 94.47352
719.1052, 96.69145
719.5873, 97.83563
720.0694, 95.72330
720.5515, 92.48389
721.0336, 90.83309
721.5157, 91.21084
721.9979, 92.32466
722.4800, 94.79030
722.9621, 96.97636
723.4442, 97.37722
723.9263, 94.24574
724.4084, 93.00070
724.8906, 94.75125
725.3727, 97.06947
725.8548, 97.38109
726.3369, 95.54594
726.8190, 93.77734
727.3011, 92.30364
727.7833, 91.10529
728.2654, 89.91575
728.7475, 89.02361
729.2296, 89.26279
729.7117, 91.42683
730.1938, 93.58966
730.6760, 94.49565
731.1581, 94.52068
731.6402, 94.26280
732.1223, 93.59545
732.6044, 92.98213
733.0865, 92.51102
733.5687, 92.12934
734.0508, 91.69453
734.5329, 91.14674
735.0150, 90.79402
735.4971, 90.71319
735.9792, 90.87563
736.4614, 91.43199
736.9435, 92.25706
737.4256, 92.70488
737.9077, 91.71620
738.3898, 90.77797
738.8719, 91.88907
739.3541, 94.34234
739.8362, 95.63052
740.3183, 93.26984
740.8004, 91.16075
741.2825, 91.12617
741.7646, 92.87347
742.2468, 93.93907
742.7289, 94.05681
743.2110, 94.16058
743.6931, 94.79500
744.1752, 95.79430
744.6573, 96.20580
745.1395, 96.03378
745.6216, 95.52969
746.1037, 94.37962
746.5858, 93.26959
747.0679, 93.20687
747.5500, 94.19633
748.0322, 95.21933
748.5143, 95.84568
748.9964, 96.33463
749.4785, 96.95887
749.9606, 97.90251
750.4427, 98.04101
750.9249, 97.18382
751.4070, 95.85300
751.8891, 93.94329
752.3712, 91.47835
752.8533, 91.46822
753.3354, 94.27738
753.8176, 96.78859
754.2997, 95.26976
754.7818, 91.84256
755.2639, 89.69437
755.7460, 89.40018
756.2281, 89.95219
756.7103, 91.42957
757.1924, 93.16739
757.6745, 94.59315
758.1566, 95.63483
758.6387, 96.33817
759.1208, 96.59296
759.6030, 96.64996
760.0851, 96.89253
760.5672, 97.34776
761.0493, 96.98398
761.5314, 95.51916
762.0135, 93.93226
762.4957, 93.27215
762.9778, 93.35713
763.4599, 93.99197
763.9420, 95.53031
764.4241, 96.57838
764.9063, 96.21780
765.3884, 94.99545
765.8705, 93.56173
766.3526, 90.94231
766.8347, 89.78986
767.3168, 90.92214
767.7990, 92.91862
768.2811, 93.54483
768.7632, 92.72675
769.2453, 92.09455
769.7274, 92.02341
770.2095, 92.15010
770.6917, 91.80191
771.1738, 91.27148
771.6559, 91.25905
772.1380, 92.68050
772.6201, 93.73350
773.1022, 93.21072
773.5844, 91.72293
774.0665, 90.33052
774.5486, 88.88130
775.0307, 87.99740
775.5128, 87.99525
775.9949, 88.44263
776.4771, 88.32971
776.9592, 87.63291
777.4413, 87.04210
777.9234, 86.70315
778.4055, 86.65598
778.8876, 87.02483
779.3698, 87.73756
779.8519, 88.61164
780.3340, 90.01788
780.8161, 91.08534
781.2982, 91.38634
781.7803, 91.04614
782.2625, 90.35307
782.7446, 88.90697
783.2267, 87.85924
783.7088, 87.52818
784.1909, 87.69490
784.6730, 87.63304
785.1552, 87.34702
785.6373, 87.52667
786.1194, 88.70043
786.6015, 90.19425
787.0836, 91.11043
787.5657, 91.52790
788.0479, 91.65041
788.5300, 91.44193
789.0121, 91.08430
789.4942, 90.67393
789.9763, 90.17817
790.4584, 89.40948
790.9406, 87.86900
791.4227, 87.13118
791.9048, 88.09622
792.3869, 89.91515
792.8690, 89.15205
793.3511, 86.04594
793.8333, 84.41423
794.3154, 87.30547
794.7975, 91.54520
795.2796, 93.42535
795.7617, 93.41234
796.2438, 92.91158
796.7260, 92.27776
797.2081, 91.50711
797.6902, 90.09612
798.1723, 88.47648
798.6544, 88.59991
799.1365, 91.42339
799.6187, 93.36546
800.1008, 92.84528
800.5829, 90.88496
801.0650, 90.87732
801.5471, 92.47970
802.0292, 93.47488
802.5114, 91.79717
802.9935, 89.66283
803.4756, 89.38052
803.9577, 90.40217
804.4398, 90.87831
804.9219, 89.26699
805.4041, 88.14745
805.8862, 88.47594
806.3683, 89.87468
806.8504, 90.92336
807.3325, 91.72038
807.8146, 91.54961
808.2968, 89.40349
808.7789, 86.74348
809.2610, 87.51833
809.7431, 90.90706
810.2252, 93.56146
810.7073, 93.22954
811.1895, 92.06212
811.6716, 90.93225
812.1537, 90.02715
812.6358, 89.95790
813.1179, 91.91116
813.6000, 93.19257
814.0822, 93.06749
814.5643, 91.87276
815.0464, 90.49841
815.5285, 88.92431
816.0106, 88.40974
816.4927, 89.98679
816.9749, 92.37904
817.4570, 94.03175
817.9391, 94.91130
818.4212, 94.96928
818.9033, 93.28676
819.3854, 91.70329
819.8676, 91.14243
820.3497, 91.30647
820.8318, 91.05525
821.3139, 89.93401
821.7960, 89.51616
822.2781, 90.39622
822.7603, 92.01986
823.2424, 93.20979
823.7245, 93.97751
824.2066, 94.38250
824.6887, 94.51166
825.1708, 94.22215
825.6530, 92.76762
826.1351, 90.83160
826.6172, 89.96766
827.0993, 91.88855
827.5814, 93.34697
828.0635, 93.42863
828.5457, 92.79466
829.0278, 92.97845
829.5099, 94.19073
829.9920, 94.69850
830.4741, 93.80703
830.9562, 92.54799
831.4384, 92.91898
831.9205, 94.25134
832.4026, 94.77757
832.8847, 92.96721
833.3668, 91.48425
833.8489, 92.06081
834.3311, 93.75919
834.8132, 95.00264
835.2953, 95.76698
835.7774, 95.87480
836.2595, 95.02222
836.7416, 93.86864
837.2238, 93.43082
837.7059, 93.67130
838.1880, 94.36721
838.6701, 95.62976
839.1522, 96.82564
839.6343, 97.17665
840.1165, 97.09645
840.5986, 97.18581
841.0807, 97.91404
841.5628, 98.30520
842.0449, 97.75237
842.5270, 97.06051
843.0092, 97.14795
843.4913, 98.24506
843.9734, 98.72112
844.4555, 98.29549
844.9376, 97.74677
845.4197, 98.04654
845.9019, 98.90510
846.3840, 99.95638
846.8661, 101.3799
847.3482, 101.7613
847.8303, 98.53564
848.3124, 94.97439
848.7946, 94.33419
849.2767, 98.57810
849.7588, 101.0231
850.2409, 101.2024
850.7230, 100.4648
851.2051, 99.45246
851.6873, 98.40119
852.1694, 99.27924
852.6515, 102.3004
853.1336, 105.0499
853.6157, 105.5842
854.0978, 104.8758
854.5800, 103.5155
855.0621, 101.4074
855.5442, 100.2911
856.0263, 101.4003
856.5084, 102.6704
856.9905, 103.0514
857.4727, 102.5428
857.9548, 102.4358
858.4369, 102.7490
858.9190, 103.2862
859.4011, 104.1788
859.8832, 105.0874
860.3654, 105.3312
860.8475, 104.9805
861.3296, 104.7477
861.8117, 104.8816
862.2938, 105.2850
862.7759, 106.0011
863.2581, 106.9758
863.7402, 108.0068
864.2223, 109.2180
864.7044, 110.0204
865.1865, 110.0450
865.6686, 109.5763
866.1508, 109.1837
866.6329, 108.9090
867.1150, 108.9506
867.5971, 109.4475
868.0792, 110.2555
868.5613, 111.9696
869.0435, 113.9772
869.5256, 114.1790
870.0077, 111.0093
870.4898, 108.7592
870.9719, 108.4810
871.4540, 109.2725
871.9362, 109.0163
872.4183, 107.8815
872.9004, 107.1943
873.3825, 107.3854
873.8646, 108.1262
874.3467, 109.6675
874.8289, 111.3824
875.3110, 112.2990
875.7931, 110.9446
876.2752, 110.4478
876.7573, 111.7154
877.2394, 113.3283
877.7216, 113.4507
878.2037, 111.9759
878.6858, 110.9569
879.1679, 110.7311
879.6500, 110.4684
880.1321, 108.6975
880.6143, 106.5266
881.0964, 105.6880
881.5785, 106.7391
882.0606, 107.9906
882.5427, 109.6233
883.0248, 110.6001
883.5070, 109.9124
883.9891, 106.9841
884.4712, 106.2440
884.9533, 108.1244
885.4354, 110.0130
885.9175, 109.2620
886.3997, 107.2255
886.8818, 106.9346
887.3639, 108.3590
887.8460, 109.5080
888.3281, 109.6251
888.8102, 108.8630
889.2924, 106.5548
889.7745, 102.9458
890.2566, 101.6772
890.7387, 103.6021
891.2208, 105.3039
891.7029, 105.2027
892.1851, 104.0189
892.6672, 103.7301
893.1493, 104.0975
893.6314, 104.0981
894.1135, 102.9184
894.5956, 101.5159
895.0778, 100.1617
895.5599, 99.00993
896.0420, 98.56163
896.5241, 99.55103
897.0062, 99.58040
897.4883, 97.79490
897.9705, 95.54801
898.4526, 95.73006
898.9347, 97.78152
899.4168, 99.07045
899.8989, 98.80385
900.3810, 98.05847
900.8632, 97.39831
901.3453, 96.88374
901.8274, 96.60577
902.3095, 97.05095
902.7916, 96.76134
903.2737, 95.16297
903.7559, 93.66393
904.2380, 93.88124
904.7201, 95.56177
905.2022, 96.09713
905.6843, 95.30608
906.1664, 94.45711
906.6486, 94.96230
907.1307, 95.63026
907.6128, 95.03866
908.0949, 92.95046
908.5770, 92.00439
909.0591, 93.48125
909.5413, 94.81396
910.0234, 94.71732
910.5055, 93.56383
910.9876, 93.99984
911.4697, 95.92088
911.9518, 97.34482
912.4340, 96.37401
912.9161, 94.99771
913.3982, 95.70529
913.8803, 97.67073
914.3624, 98.58248
914.8445, 96.19779
915.3267, 94.81379
915.8088, 95.63353
916.2909, 97.49474
916.7730, 97.98441
917.2551, 97.13712
917.7372, 96.50163
918.2194, 96.46036
918.7015, 96.63270
919.1836, 96.55590
919.6657, 96.45293
920.1478, 96.58382
920.6299, 96.79298
921.1121, 97.83697
921.5942, 101.1159
922.0763, 103.8504
922.5584, 103.2340
923.0405, 99.09286
923.5226, 97.13589
924.0048, 97.61320
924.4869, 98.74538
924.9690, 99.62616
925.4511, 100.0356
925.9332, 99.02483
926.4153, 96.71796
926.8975, 96.23643
927.3796, 101.1092
927.8617, 104.9461
928.3438, 105.1687
928.8259, 102.6455
929.3080, 101.8398
929.7902, 102.7256
930.2723, 104.3988
930.7544, 107.2746
931.2365, 109.7603
931.7186, 109.3723
932.2007, 107.2598
932.6829, 105.7856
933.1650, 106.2678
933.6471, 106.5719
934.1292, 105.9706
934.6113, 105.4543
935.0934, 106.8593
935.5756, 110.1653
936.0577, 111.8027
936.5398, 110.9907
937.0219, 110.3164
937.5040, 113.1460
937.9861, 117.1076
938.4683, 119.4770
938.9504, 119.6856
939.4325, 118.8849
939.9146, 115.9082
940.3967, 113.7662
940.8788, 114.4697
941.3610, 117.7165
941.8431, 119.4529
942.3252, 119.7363
942.8073, 119.8289
943.2894, 120.7810
943.7715, 121.7099
944.2537, 121.6795
944.7358, 120.9082
945.2179, 120.2467
945.7000, 118.9980
946.1821, 119.2976
946.6642, 122.3883
947.1464, 126.4458
947.6285, 127.2035
948.1106, 125.1255
948.5927, 123.6514
949.0748, 123.6743
949.5569, 124.4169
950.0391, 125.5600
950.5212, 126.8580
951.0033, 128.0390
951.4854, 129.1452
951.9675, 129.8468
952.4496, 129.8370
952.9318, 129.9570
953.4139, 130.8874
953.8960, 132.5291
954.3781, 134.7218
954.8602, 137.3459
955.3423, 138.9856
955.8245, 137.8667
956.3066, 136.1396
956.7887, 134.9268
957.2708, 134.3932
957.7529, 135.0838
958.2350, 137.7261
958.7172, 139.8100
959.1993, 140.4811
959.6814, 140.4622
960.1635, 141.1774
960.6456, 142.5099
961.1277, 144.2213
961.6099, 146.8623
962.0920, 148.5745
962.5741, 146.8773
963.0562, 144.4706
963.5383, 144.6707
964.0204, 149.1223
964.5026, 151.3696
964.9847, 150.8678
965.4668, 149.8988
965.9489, 150.6396
966.4310, 152.4010
966.9131, 153.8151
967.3953, 154.8031
967.8774, 155.7258
968.3595, 156.2676
968.8416, 157.2878
969.3237, 159.5672
969.8058, 162.6959
970.2880, 164.6071
970.7701, 165.0988
971.2522, 166.3081
971.7343, 169.3993
972.2164, 172.8291
972.6985, 173.9390
973.1807, 173.8747
973.6628, 174.8945
974.1449, 179.0561
974.6270, 182.0654
975.1091, 181.7443
975.5912, 181.2560
976.0734, 184.1038
976.5555, 190.3867
977.0376, 193.9545
977.5197, 194.3475
978.0018, 194.5385
978.4839, 196.4501
978.9661, 199.7273
979.4482, 204.9573
979.9303, 211.9039
980.4124, 216.4081
980.8945, 215.9457
981.3766, 216.1873
981.8588, 219.0135
982.3409, 223.4718
982.8230, 227.0667
983.3051, 229.8863
983.7872, 232.2499
984.2693, 233.5830
984.7515, 235.8363
985.2336, 241.3676
985.7157, 248.1880
986.1978, 253.6268
986.6799, 256.7249
987.1620, 260.1599
987.6442, 263.7674
988.1263, 268.1953
988.6084, 274.4732
989.0905, 281.8958
989.5726, 288.6889
990.0547, 294.8001
990.5369, 300.4514
991.0190, 304.3285
991.5011, 309.2467
991.9832, 317.3962
992.4653, 327.6192
992.9474, 335.6845
993.4296, 341.0451
993.9117, 348.9008
994.3938, 361.2236
994.8759, 375.7157
995.3580, 389.2671
995.8401, 402.8146
996.3223, 418.3362
996.8044, 436.7672
997.2865, 456.3097
997.7686, 476.5115
998.2507, 498.0272
998.7328, 521.5609
999.2150, 546.8859
999.6971, 572.9455
1000.179, 599.3948
1000.661, 628.3986
1001.143, 661.6915
1001.626, 697.7485
1002.108, 736.3419
1002.590, 776.9335
1003.072, 818.6757
1003.554, 858.4003
1004.036, 904.4614
1004.518, 958.1268
1005.000, 1018.780
1005.482, 1086.231
1005.965, 1159.142
1006.447, 1231.428
1006.929, 1300.133
1007.411, 1374.439
1007.893, 1461.359
1008.375, 1554.888
1008.857, 1651.313
1009.339, 1751.836
1009.822, 1848.144
1010.304, 1939.849
1010.786, 2028.385
1011.268, 2114.541
1011.750, 2195.532
1012.232, 2267.232
1012.714, 2330.981
1013.196, 2391.596
1013.678, 2441.893
1014.161, 2501.332
1014.643, 2572.765
1015.125, 2652.455
1015.607, 2733.848
1016.089, 2817.583
1016.571, 2910.232
1017.053, 3012.254
1017.535, 3123.713
1018.018, 3240.036
1018.500, 3369.336
1018.982, 3518.370
1019.464, 3687.974
1019.946, 3878.416
1020.428, 4087.159
1020.910, 4326.654
1021.392, 4604.886
1021.874, 4915.488
1022.357, 5246.596
1022.839, 5596.722
1023.321, 5960.758
1023.803, 6374.953
1024.285, 6747.806
1024.767, 7081.806
1025.249, 7345.424
1025.731, 7516.383
1026.214, 7596.493
1026.696, 7515.188
1027.178, 7267.118
1027.660, 6898.272
1028.142, 6379.135
1028.624, 5804.408
1029.106, 5226.731
1029.588, 4662.014
1030.070, 4169.284
1030.553, 3749.197
1031.035, 3392.158
1031.517, 3098.493
1031.999, 2861.742
1032.481, 2672.018
1032.963, 2524.930
1033.445, 2410.506
1033.927, 2330.887
1034.410, 2262.915
1034.892, 2202.966
1035.374, 2146.603
1035.856, 2093.618
1036.338, 2044.116
1036.820, 1983.557
1037.302, 1912.922
1037.784, 1830.702
1038.266, 1734.384
1038.749, 1628.470
1039.231, 1515.178
1039.713, 1396.682
1040.195, 1280.454
1040.677, 1162.441
1041.159, 1056.458
1041.641, 963.2874
1042.123, 881.1942
1042.605, 808.8057
1043.088, 744.9614
1043.570, 688.9293
1044.052, 640.5875
1044.534, 597.3350
1045.016, 559.4935
1045.498, 524.7903
1045.980, 491.3522
1046.462, 460.0931
1046.945, 437.0815
1047.427, 422.4294
1047.909, 407.2961
1048.391, 388.1360
1048.873, 369.2789
1049.355, 355.8193
1049.837, 345.2153
1050.319, 333.8604
1050.802, 319.9253
1051.284, 308.0544
1051.766, 298.8360
1052.248, 290.7572
1052.730, 283.0317
1053.212, 275.6738
1053.694, 268.6422
1054.176, 261.9940
1054.658, 255.9963
1055.141, 251.3837
1055.623, 246.7288
1056.105, 240.8625
1056.587, 234.9718
1057.069, 231.2259
1057.551, 229.7157
1058.033, 227.0524
1058.515, 222.7425
1058.997, 217.8346
1059.480, 212.1490
1059.962, 207.0695
1060.444, 203.9653
1060.926, 203.0490
1061.408, 203.1537
1061.890, 205.1184
1062.372, 205.5480
1062.854, 202.8137
1063.337, 198.6436
1063.819, 196.0804
1064.301, 194.7202
1064.783, 193.7210
1065.265, 192.8174
1065.747, 192.3152
1066.229, 192.8977
1066.711, 193.3311
1067.193, 192.6301
1067.676, 190.8894
1068.158, 189.9137
1068.640, 189.6733
1069.122, 189.7655
1069.604, 190.1160
1070.086, 190.5380
1070.568, 190.9608
1071.050, 191.3577
1071.532, 191.5951
1072.015, 191.4225
1072.497, 192.0688
1072.979, 193.7910
1073.461, 195.7771
1073.943, 197.1573
1074.425, 198.2624
1074.907, 199.0238
1075.389, 199.5563
1075.872, 202.2196
1076.354, 209.4917
1076.836, 216.2810
1077.318, 221.2539
1077.800, 224.8058
1078.282, 227.4307
1078.764, 229.4930
1079.246, 232.4631
1079.729, 236.9864
1080.211, 241.5988
1080.693, 244.6041
1081.175, 248.2249
1081.657, 254.3280
1082.139, 262.9252
1082.621, 269.8895
1083.103, 275.2460
1083.585, 280.6953
1084.068, 287.6297
1084.550, 294.6164
1085.032, 299.8171
1085.514, 304.1699
1085.996, 309.2714
1086.478, 315.9321
1086.960, 322.0077
1087.442, 327.4388
1087.924, 332.2617
1088.406, 335.6712
1088.889, 338.8535
1089.371, 345.0928
1089.853, 353.7813
1090.335, 360.2608
1090.817, 361.5457
1091.299, 361.7762
1091.781, 361.2133
1092.263, 360.9431
1092.746, 363.8503
1093.228, 369.0197
1093.710, 371.4246
1094.192, 369.8463
1094.674, 369.0643
1095.156, 374.5091
1095.638, 379.6930
1096.120, 379.5904
1096.603, 375.0512
1097.085, 372.1501
1097.567, 370.9351
1098.049, 370.0260
1098.531, 368.8773
1099.013, 367.9162
1099.495, 367.9549
1099.977, 368.2643
1100.459, 367.5408
1100.942, 364.0884
1101.424, 365.0601
1101.906, 371.8757
1102.388, 378.5266
1102.870, 380.5266
1103.352, 380.1010
1103.834, 380.6308
1104.316, 382.3894
1104.798, 386.1248
1105.281, 394.8299
1105.763, 401.5169
1106.245, 403.9307
1106.727, 406.0310
1107.209, 413.0796
1107.691, 423.6377
1108.173, 431.6036
1108.655, 436.6784
1109.138, 439.4211
1109.620, 437.2268
1110.102, 436.0617
1110.584, 439.8382
1111.066, 446.0471
1111.548, 450.0335
1112.030, 451.8092
1112.512, 450.0981
1112.995, 444.2437
1113.477, 437.7243
1113.959, 435.4404
1114.441, 432.3694
1114.923, 423.2834
1115.405, 408.1935
1115.887, 394.5491
1116.369, 382.3703
1116.851, 370.8279
1117.333, 359.4140
1117.816, 348.9099
1118.298, 342.1390
1118.780, 336.2116
1119.262, 326.5190
1119.744, 310.0608
1120.226, 296.0856
1120.708, 285.1973
1121.190, 276.1449
1121.673, 268.7460
1122.155, 262.2434
1122.637, 254.0858
1123.119, 245.0771
1123.601, 237.4373
1124.083, 233.4823
1124.565, 228.8665
1125.047, 222.0085
1125.530, 215.4435
1126.012, 212.0873
1126.494, 211.1731
1126.976, 208.1408
1127.458, 203.1304
1127.940, 198.5801
1128.422, 196.2760
1128.904, 194.2810
1129.386, 191.8271
1129.869, 189.0998
1130.351, 186.1244
1130.833, 182.9248
1131.315, 181.0965
1131.797, 180.8759
1132.279, 181.0260
1132.761, 180.2144
1133.243, 179.7059
1133.725, 181.1560
1134.208, 183.8741
1134.690, 184.1104
1135.172, 181.3953
1135.654, 179.9758
1136.136, 181.2729
1136.618, 182.5382
1137.100, 179.5505
1137.582, 175.6141
1138.065, 174.5807
1138.547, 177.4329
1139.029, 179.7011
1139.511, 181.4276
1139.993, 182.1827
1140.475, 181.2622
1140.957, 180.1450
1141.439, 181.6374
1141.922, 184.4613
1142.404, 186.4013
1142.886, 186.4631
1143.368, 186.7332
1143.850, 187.1303
1144.332, 188.2516
1144.814, 190.8531
1145.296, 194.2226
1145.778, 196.4084
1146.260, 197.7951
1146.743, 199.5742
1147.225, 204.2289
1147.707, 206.1385
1148.189, 202.3587
1148.671, 198.7379
1149.153, 201.0998
1149.635, 208.1743
1150.117, 214.6461
1150.600, 220.2231
1151.082, 223.9980
1151.564, 223.3488
1152.046, 223.5389
1152.528, 227.2913
1153.010, 232.1971
1153.492, 234.7422
1153.974, 235.2081
1154.457, 236.9134
1154.939, 240.1203
1155.421, 244.0564
1155.903, 248.7237
1156.385, 253.4392
1156.867, 258.1194
1157.349, 262.4573
1157.831, 265.3395
1158.313, 266.7400
1158.796, 269.1271
1159.278, 272.9782
1159.760, 277.3979
1160.242, 282.3427
1160.724, 286.9570
1161.206, 290.0989
1161.688, 292.0934
1162.170, 295.5745
1162.652, 300.7894
1163.135, 304.8588
1163.617, 306.6464
1164.099, 308.1832
1164.581, 312.1132
1165.063, 316.6320
1165.545, 320.0517
1166.027, 322.1771
1166.509, 321.8901
1166.992, 318.4830
1167.474, 316.7220
1167.956, 319.1871
1168.438, 323.0527
1168.920, 325.2177
1169.402, 326.1650
1169.884, 326.5178
1170.366, 326.0858
1170.849, 326.0150
1171.331, 326.3628
1171.813, 326.8934
1172.295, 327.5567
1172.777, 328.2546
1173.259, 328.9990
1173.741, 329.6266
1174.223, 329.8027
1174.705, 329.5611
1175.188, 328.3761
1175.670, 325.6775
1176.152, 323.5074
1176.634, 323.8203
1177.116, 325.5020
1177.598, 326.0684
1178.080, 326.0763
1178.562, 327.2619
1179.044, 332.1875
1179.527, 335.1067
1180.009, 334.8318
1180.491, 334.1027
1180.973, 335.4766
1181.455, 338.4284
1181.937, 341.9017
1182.419, 345.8072
1182.901, 350.0605
1183.384, 353.0788
1183.866, 358.9383
1184.348, 369.0549
1184.830, 380.7561
1185.312, 391.1622
1185.794, 400.3931
1186.276, 407.3163
1186.758, 412.4777
1187.240, 421.6051
1187.723, 440.6911
1188.205, 459.2659
1188.687, 474.1584
1189.169, 488.1082
1189.651, 505.3990
1190.133, 525.5670
1190.615, 546.6415
1191.097, 568.4503
1191.579, 591.9425
1192.062, 618.9603
1192.544, 646.4033
1193.026, 673.5245
1193.508, 700.1017
1193.990, 723.6615
1194.472, 746.3165
1194.954, 776.7257
1195.436, 817.9301
1195.919, 855.1561
1196.401, 876.2844
1196.883, 899.0199
1197.365, 932.8998
1197.847, 971.9012
1198.329, 999.2765
1198.811, 1016.308
1199.293, 1028.491
1199.776, 1037.531
1200.258, 1040.702
1200.740, 1037.174
1201.222, 1026.156
1201.704, 1006.573
1202.186, 979.7095
1202.668, 950.6326
1203.150, 919.5297
1203.632, 886.6531
1204.115, 852.3651
1204.597, 815.4550
1205.079, 773.1527
1205.561, 730.4204
1206.043, 691.0939
1206.525, 654.3094
1207.007, 616.2284
1207.489, 578.0255
1207.971, 543.5197
1208.454, 515.5309
1208.936, 489.5466
1209.418, 464.0049
1209.900, 440.0082
1210.382, 418.6500
1210.864, 399.4964
1211.346, 380.6416
1211.828, 362.1962
1212.311, 345.5257
1212.793, 330.8164
1213.275, 318.2987
1213.757, 309.4856
1214.239, 301.3419
1214.721, 291.7364
1215.203, 280.9149
1215.685, 269.9850
1216.167, 259.1741
1216.650, 249.4489
1217.132, 240.9501
1217.614, 234.1477
1218.096, 230.3806
1218.578, 227.1004
1219.060, 221.9584
1219.542, 215.2395
1220.024, 208.0417
1220.506, 200.7961
1220.989, 195.4652
1221.471, 195.0266
1221.953, 193.9681
1222.435, 190.7351
1222.917, 186.2599
1223.399, 180.7536
1223.881, 174.7100
1224.363, 171.1231
1224.846, 169.6936
1225.328, 168.1193
1225.810, 164.9572
1226.292, 161.9497
1226.774, 159.6766
1227.256, 157.5217
1227.738, 154.4842
1228.220, 150.9758
1228.703, 148.4124
1229.185, 146.8016
1229.667, 145.6245
1230.149, 145.8776
1230.631, 144.7246
1231.113, 141.0939
1231.595, 136.6246
1232.077, 133.0878
1232.559, 130.4517
1233.042, 129.0407
1233.524, 128.6890
1234.006, 127.9816
1234.488, 126.2685
1234.970, 124.1344
1235.452, 121.4488
1235.934, 118.8839
1236.416, 117.7866
1236.898, 117.3922
1237.381, 115.6013
1237.863, 112.5012
1238.345, 110.4826
1238.827, 111.9133
1239.309, 112.0451
1239.791, 109.8783
1240.273, 106.6096
1240.755, 103.0001
1241.238, 99.75426
1241.720, 98.65981
1242.202, 99.64732
1242.684, 99.99921
1243.166, 99.01466
1243.648, 97.64021
1244.130, 95.85454
1244.612, 94.23550
1245.094, 93.73255
1245.577, 93.75928
1246.059, 93.47800
1246.541, 92.81898
1247.023, 92.11289
1247.505, 91.58904
1247.987, 90.33320
1248.469, 87.90947
1248.951, 85.57110
1249.433, 85.22492
1249.916, 85.69257
1250.398, 85.59653
1250.880, 84.84459
1251.362, 84.29493
1251.844, 84.08338
1252.326, 83.67345
1252.808, 83.00179
1253.290, 81.86935
1253.773, 79.14677
1254.255, 76.53680
1254.737, 76.02831
1255.219, 77.51750
1255.701, 78.36913
1256.183, 78.52294
1256.665, 78.64571
1257.147, 78.96996
1257.630, 78.82931
1258.112, 76.68972
1258.594, 74.57693
1259.076, 74.87561
1259.558, 76.79345
1260.040, 76.38104
1260.522, 73.68463
1261.004, 72.63318
1261.486, 74.38848
1261.969, 75.80427
1262.451, 73.86571
1262.933, 71.36180
1263.415, 69.95904
1263.897, 69.52464
1264.379, 69.95034
1264.861, 71.05035
1265.343, 71.25732
1265.825, 70.08768
1266.308, 69.22097
1266.790, 70.05665
1267.272, 70.99641
1267.754, 71.27730
1268.236, 71.09508
1268.718, 70.95013
1269.200, 70.78737
1269.682, 70.30132
1270.165, 69.36409
1270.647, 68.79897
1271.129, 69.72673
1271.611, 69.98243
1272.093, 68.40691
1272.575, 66.39032
1273.057, 67.38607
1273.539, 69.92594
1274.021, 70.45184
1274.504, 68.15651
1274.986, 66.64983
1275.468, 67.03871
1275.950, 67.20866
1276.432, 66.28862
1276.914, 65.38199
1277.396, 66.78919
1277.878, 69.05855
1278.360, 69.97933
1278.843, 69.17867
1279.325, 68.04618
##END=



