##NAMES=Pargasite
##RRUFFID=R050321
##IDEAL CHEMISTRY=NaCa_2_(Mg_4_Al)(Si_6_Al_2_)O_22_(OH)_2_
##LOCALITY=Soper River, near Kimmirut, Baffin Island, Nunavut, Canada
##OWNER=RRUFF
##SOURCE=Frank Hawthorne
##DESCRIPTION=Greenish brown transparent fragment
##STATUS=The identification of this mineral has been confirmed by X-ray diffraction and chemical analysis
##URL=rruff.info/R050321
##MEASURED CHEMISTRY=(Na_0.77_K_0.23_)(Ca_1.90_Na_0.10_)_&#931;=2_Mg_4.00_(Al_0.58_Fe^3+^_0.07_Ti_0.05_Mg_0.30_)(Si_6.24_Al_1.76_)_&#931;=8_O_22_((OH)_0.69_F_0.31_)_2_
128.6822, 1126.548
129.1643, 1125.062
129.6464, 1123.592
130.1285, 1122.669
130.6106, 1123.125
131.0928, 1123.376
131.5749, 1122.990
132.0570, 1122.088
132.5391, 1121.036
133.0212, 1120.189
133.5033, 1119.646
133.9855, 1118.576
134.4676, 1116.292
134.9497, 1114.151
135.4318, 1112.987
135.9139, 1112.848
136.3960, 1113.159
136.8782, 1113.353
137.3603, 1113.428
137.8424, 1113.298
138.3245, 1112.839
138.8066, 1112.215
139.2887, 1111.602
139.7709, 1111.035
140.2530, 1110.495
140.7351, 1110.100
141.2172, 1109.847
141.6993, 1109.218
142.1814, 1107.515
142.6636, 1105.139
143.1457, 1103.594
143.6278, 1103.449
144.1099, 1104.049
144.5920, 1104.784
145.0741, 1105.641
145.5563, 1106.657
146.0384, 1108.214
146.5205, 1110.506
147.0026, 1111.677
147.4847, 1110.346
147.9668, 1108.447
148.4490, 1106.836
148.9311, 1105.738
149.4132, 1105.042
149.8953, 1104.650
150.3774, 1104.825
150.8595, 1104.750
151.3417, 1104.056
151.8238, 1103.292
152.3059, 1102.997
152.7880, 1103.351
153.2701, 1104.012
153.7522, 1104.110
154.2344, 1102.894
154.7165, 1101.909
155.1986, 1101.038
155.6807, 1100.463
156.1628, 1100.522
156.6449, 1101.434
157.1271, 1102.926
157.6092, 1103.872
158.0913, 1104.440
158.5734, 1104.446
159.0555, 1103.686
159.5376, 1102.300
160.0198, 1100.427
160.5019, 1097.668
160.9840, 1094.839
161.4661, 1094.504
161.9482, 1098.588
162.4303, 1103.027
162.9125, 1105.159
163.3946, 1105.052
163.8767, 1104.150
164.3588, 1102.911
164.8409, 1101.491
165.3230, 1100.111
165.8052, 1098.644
166.2873, 1097.388
166.7694, 1096.707
167.2515, 1096.576
167.7336, 1097.133
168.2157, 1099.417
168.6979, 1102.139
169.1800, 1103.721
169.6621, 1103.307
170.1442, 1101.461
170.6263, 1099.589
171.1084, 1097.015
171.5906, 1095.644
172.0727, 1096.693
172.5548, 1099.000
173.0369, 1100.972
173.5190, 1101.633
174.0011, 1101.113
174.4833, 1100.506
174.9654, 1099.459
175.4475, 1098.680
175.9296, 1098.354
176.4117, 1098.408
176.8938, 1098.734
177.3760, 1099.307
177.8581, 1100.148
178.3402, 1100.474
178.8223, 1099.792
179.3044, 1099.146
179.7865, 1098.948
180.2687, 1099.125
180.7508, 1099.359
181.2329, 1099.369
181.7150, 1099.126
182.1971, 1099.081
182.6792, 1099.440
183.1614, 1099.802
183.6435, 1099.992
184.1256, 1099.982
184.6077, 1099.753
185.0898, 1099.231
185.5719, 1098.387
186.0540, 1097.646
186.5362, 1096.599
187.0183, 1095.889
187.5004, 1096.644
187.9825, 1099.091
188.4646, 1101.046
188.9467, 1099.718
189.4289, 1095.952
189.9110, 1093.157
190.3931, 1092.625
190.8752, 1093.352
191.3573, 1093.859
191.8394, 1094.049
192.3216, 1094.006
192.8037, 1093.635
193.2858, 1093.082
193.7679, 1092.697
194.2500, 1093.151
194.7321, 1093.954
195.2143, 1093.244
195.6964, 1089.661
196.1785, 1086.677
196.6606, 1086.638
197.1427, 1088.545
197.6248, 1090.231
198.1070, 1090.283
198.5891, 1088.831
199.0712, 1087.090
199.5533, 1084.011
200.0354, 1081.876
200.5175, 1082.090
200.9997, 1083.934
201.4818, 1085.793
201.9639, 1086.322
202.4460, 1085.479
202.9281, 1085.070
203.4102, 1085.486
203.8924, 1086.019
204.3745, 1086.436
204.8566, 1086.794
205.3387, 1087.315
205.8208, 1088.266
206.3029, 1089.769
206.7851, 1090.599
207.2672, 1090.486
207.7493, 1090.054
208.2314, 1089.304
208.7135, 1088.393
209.1956, 1087.616
209.6778, 1087.202
210.1599, 1087.127
210.6420, 1087.752
211.1241, 1090.178
211.6062, 1092.205
212.0883, 1092.130
212.5705, 1090.278
213.0526, 1088.651
213.5347, 1089.146
214.0168, 1092.096
214.4989, 1094.223
214.9810, 1095.585
215.4632, 1096.180
215.9453, 1095.494
216.4274, 1093.672
216.9095, 1092.170
217.3916, 1092.444
217.8737, 1094.541
218.3559, 1095.789
218.8380, 1095.588
219.3201, 1094.905
219.8022, 1094.599
220.2843, 1094.738
220.7664, 1094.795
221.2486, 1094.060
221.7307, 1092.841
222.2128, 1092.464
222.6949, 1093.589
223.1770, 1095.400
223.6591, 1097.061
224.1413, 1098.546
224.6234, 1099.882
225.1055, 1101.114
225.5876, 1102.189
226.0697, 1102.972
226.5518, 1103.463
227.0340, 1103.611
227.5161, 1103.142
227.9982, 1101.788
228.4803, 1100.736
228.9624, 1100.916
229.4445, 1101.756
229.9267, 1102.617
230.4088, 1103.440
230.8909, 1104.012
231.3730, 1103.751
231.8551, 1102.227
232.3372, 1100.970
232.8194, 1100.877
233.3015, 1101.302
233.7836, 1101.478
234.2657, 1101.021
234.7478, 1100.254
235.2299, 1099.939
235.7121, 1100.336
236.1942, 1100.682
236.6763, 1100.478
237.1584, 1100.218
237.6405, 1100.505
238.1227, 1101.660
238.6048, 1103.287
239.0869, 1104.411
239.5690, 1105.028
240.0511, 1105.064
240.5332, 1104.081
241.0154, 1102.802
241.4975, 1102.045
241.9796, 1102.169
242.4617, 1102.718
242.9438, 1102.492
243.4259, 1100.642
243.9081, 1099.350
244.3902, 1099.408
244.8723, 1099.814
245.3544, 1099.460
245.8365, 1097.936
246.3186, 1095.908
246.8007, 1094.926
247.2829, 1096.055
247.7650, 1096.742
248.2471, 1096.847
248.7292, 1096.506
249.2113, 1095.572
249.6934, 1094.058
250.1756, 1092.543
250.6577, 1092.225
251.1398, 1094.911
251.6219, 1096.139
252.1040, 1094.883
252.5861, 1092.777
253.0683, 1091.033
253.5504, 1090.066
254.0325, 1089.892
254.5146, 1090.664
254.9967, 1093.761
255.4788, 1095.115
255.9610, 1093.979
256.4431, 1091.579
256.9252, 1088.440
257.4073, 1084.814
257.8894, 1081.696
258.3716, 1080.582
258.8537, 1082.781
259.3358, 1083.591
259.8179, 1081.474
260.3000, 1078.895
260.7821, 1078.333
261.2643, 1080.131
261.7464, 1082.290
262.2285, 1082.559
262.7106, 1080.389
263.1927, 1078.678
263.6748, 1077.425
264.1570, 1076.667
264.6391, 1076.759
265.1212, 1077.661
265.6033, 1078.380
266.0854, 1077.770
266.5675, 1075.770
267.0497, 1074.794
267.5318, 1076.112
268.0139, 1077.625
268.4960, 1077.356
268.9781, 1075.286
269.4602, 1073.283
269.9424, 1072.867
270.4245, 1073.843
270.9066, 1074.282
271.3887, 1073.324
271.8708, 1072.447
272.3529, 1073.360
272.8351, 1075.866
273.3172, 1077.417
273.7993, 1076.101
274.2814, 1072.672
274.7635, 1069.955
275.2456, 1067.894
275.7278, 1066.693
276.2099, 1066.864
276.6920, 1068.257
277.1741, 1069.661
277.6562, 1070.568
278.1383, 1071.074
278.6204, 1071.409
279.1025, 1071.401
279.5847, 1071.598
280.0668, 1072.621
280.5489, 1074.295
281.0310, 1075.583
281.5131, 1076.217
281.9952, 1076.122
282.4774, 1075.043
282.9595, 1072.701
283.4416, 1070.974
283.9237, 1071.545
284.4058, 1073.831
284.8879, 1075.389
285.3701, 1075.536
285.8522, 1074.848
286.3343, 1073.541
286.8164, 1071.666
287.2985, 1070.747
287.7806, 1072.581
288.2628, 1076.139
288.7449, 1077.910
289.2270, 1076.873
289.7091, 1074.933
290.1912, 1073.367
290.6733, 1072.182
291.1555, 1071.463
291.6376, 1071.532
292.1197, 1072.073
292.6018, 1072.272
293.0839, 1071.904
293.5660, 1071.650
294.0482, 1072.059
294.5303, 1072.880
295.0124, 1073.716
295.4945, 1074.655
295.9766, 1075.386
296.4587, 1075.181
296.9409, 1073.756
297.4230, 1072.371
297.9051, 1071.899
298.3872, 1071.773
298.8693, 1071.323
299.3514, 1070.290
299.8336, 1068.982
300.3157, 1067.627
300.7978, 1066.117
301.2799, 1065.181
301.7620, 1065.556
302.2441, 1066.417
302.7263, 1067.097
303.2084, 1067.476
303.6905, 1067.679
304.1726, 1067.900
304.6547, 1068.151
305.1368, 1068.016
305.6190, 1066.930
306.1011, 1065.794
306.5832, 1065.333
307.0653, 1065.584
307.5474, 1066.043
308.0295, 1066.193
308.5117, 1066.096
308.9938, 1066.635
309.4759, 1068.863
309.9580, 1070.581
310.4401, 1070.072
310.9222, 1067.776
311.4044, 1065.415
311.8865, 1064.029
312.3686, 1063.466
312.8507, 1062.934
313.3328, 1061.992
313.8149, 1061.894
314.2971, 1063.897
314.7792, 1067.049
315.2613, 1069.626
315.7434, 1070.795
316.2255, 1070.944
316.7076, 1070.931
317.1898, 1070.853
317.6719, 1070.304
318.1540, 1068.344
318.6361, 1066.114
319.1182, 1064.879
319.6003, 1065.063
320.0825, 1066.190
320.5646, 1068.074
321.0467, 1071.017
321.5288, 1072.770
322.0109, 1071.160
322.4930, 1068.942
322.9752, 1068.544
323.4573, 1070.382
323.9394, 1072.316
324.4215, 1072.092
324.9036, 1069.765
325.3857, 1067.911
325.8679, 1066.981
326.3500, 1066.714
326.8321, 1067.066
327.3142, 1067.940
327.7963, 1068.825
328.2784, 1069.578
328.7606, 1070.115
329.2427, 1069.919
329.7248, 1068.495
330.2069, 1067.143
330.6890, 1066.592
331.1711, 1066.674
331.6533, 1067.078
332.1354, 1067.775
332.6175, 1068.651
333.0996, 1069.693
333.5817, 1071.222
334.0638, 1071.871
334.5460, 1069.913
335.0281, 1067.040
335.5102, 1065.176
335.9923, 1064.983
336.4744, 1065.503
336.9565, 1065.700
337.4387, 1065.560
337.9208, 1065.305
338.4029, 1064.667
338.8850, 1064.217
339.3671, 1064.665
339.8492, 1066.136
340.3314, 1067.574
340.8135, 1068.291
341.2956, 1068.325
341.7777, 1067.761
342.2598, 1066.145
342.7419, 1064.614
343.2241, 1064.130
343.7062, 1064.557
344.1883, 1065.317
344.6704, 1066.690
345.1525, 1068.115
345.6346, 1068.138
346.1168, 1066.288
346.5989, 1064.323
347.0810, 1063.637
347.5631, 1063.709
348.0452, 1063.681
348.5273, 1063.104
349.0095, 1062.542
349.4916, 1062.899
349.9737, 1064.208
350.4558, 1064.972
350.9379, 1064.063
351.4200, 1062.442
351.9022, 1061.714
352.3843, 1062.184
352.8664, 1062.902
353.3485, 1063.252
353.8306, 1063.327
354.3127, 1063.577
354.7949, 1064.323
355.2770, 1064.940
355.7591, 1064.184
356.2412, 1062.052
356.7233, 1061.026
357.2054, 1063.209
357.6876, 1066.662
358.1697, 1068.057
358.6518, 1066.756
359.1339, 1064.947
359.6160, 1064.596
360.0981, 1065.416
360.5803, 1065.844
361.0624, 1065.314
361.5445, 1064.614
362.0266, 1064.184
362.5087, 1064.077
362.9908, 1064.697
363.4730, 1066.618
363.9551, 1069.215
364.4372, 1070.588
364.9193, 1070.159
365.4014, 1069.587
365.8835, 1069.669
366.3657, 1070.073
366.8478, 1070.160
367.3299, 1069.724
367.8120, 1068.848
368.2941, 1067.328
368.7762, 1064.638
369.2584, 1063.588
369.7405, 1065.951
370.2226, 1069.323
370.7047, 1071.598
371.1868, 1072.462
371.6689, 1072.209
372.1511, 1070.834
372.6332, 1068.277
373.1153, 1066.884
373.5974, 1067.314
374.0795, 1068.125
374.5616, 1068.707
375.0438, 1069.114
375.5259, 1069.580
376.0080, 1070.226
376.4901, 1071.027
376.9722, 1071.896
377.4543, 1073.641
377.9365, 1074.413
378.4186, 1073.157
378.9007, 1071.218
379.3828, 1070.107
379.8649, 1070.225
380.3470, 1070.907
380.8292, 1071.222
381.3113, 1070.965
381.7934, 1070.942
382.2755, 1070.911
382.7576, 1071.285
383.2397, 1072.856
383.7219, 1075.174
384.2040, 1076.696
384.6861, 1076.004
385.1682, 1073.341
385.6503, 1072.572
386.1324, 1076.173
386.6146, 1079.008
387.0967, 1080.116
387.5788, 1079.982
388.0609, 1078.997
388.5430, 1077.344
389.0251, 1075.633
389.5073, 1075.226
389.9894, 1077.073
390.4715, 1078.227
390.9536, 1078.069
391.4357, 1077.617
391.9178, 1077.456
392.4000, 1077.661
392.8821, 1077.998
393.3642, 1078.221
393.8463, 1078.318
394.3284, 1078.636
394.8105, 1079.290
395.2927, 1080.051
395.7748, 1081.111
396.2569, 1082.170
396.7390, 1082.750
397.2211, 1082.580
397.7032, 1081.865
398.1854, 1080.851
398.6675, 1079.139
399.1496, 1078.359
399.6317, 1080.198
400.1138, 1082.399
400.5959, 1083.152
401.0780, 1082.165
401.5602, 1080.686
402.0423, 1079.440
402.5244, 1078.505
403.0065, 1078.972
403.4886, 1082.017
403.9707, 1084.948
404.4529, 1085.844
404.9350, 1085.158
405.4171, 1084.096
405.8992, 1082.774
406.3813, 1081.573
406.8634, 1081.188
407.3456, 1081.693
407.8277, 1082.353
408.3098, 1082.959
408.7919, 1083.428
409.2740, 1083.570
409.7561, 1083.177
410.2383, 1082.982
410.7204, 1083.693
411.2025, 1084.976
411.6846, 1085.781
412.1667, 1085.733
412.6488, 1085.490
413.1310, 1086.060
413.6131, 1087.430
414.0952, 1088.146
414.5773, 1087.182
415.0594, 1085.982
415.5415, 1086.111
416.0237, 1087.490
416.5058, 1088.685
416.9879, 1088.662
417.4700, 1087.707
417.9521, 1087.413
418.4342, 1088.554
418.9164, 1089.306
419.3985, 1088.559
419.8806, 1087.299
420.3627, 1087.136
420.8448, 1088.573
421.3269, 1090.621
421.8091, 1091.827
422.2912, 1091.873
422.7733, 1091.867
423.2554, 1091.883
423.7375, 1091.785
424.2196, 1091.352
424.7018, 1090.709
425.1839, 1090.310
425.6660, 1090.565
426.1481, 1091.272
426.6302, 1091.010
427.1123, 1088.396
427.5945, 1086.498
428.0766, 1086.111
428.5587, 1086.394
429.0408, 1086.366
429.5229, 1085.776
430.0050, 1085.298
430.4872, 1086.298
430.9693, 1089.602
431.4514, 1090.933
431.9335, 1087.919
432.4156, 1084.873
432.8977, 1083.521
433.3799, 1083.553
433.8620, 1083.835
434.3441, 1083.662
434.8262, 1083.261
435.3083, 1083.328
435.7904, 1084.023
436.2726, 1084.745
436.7547, 1085.712
437.2368, 1086.374
437.7189, 1085.948
438.2010, 1084.209
438.6831, 1082.519
439.1653, 1082.426
439.6474, 1083.535
440.1295, 1083.470
440.6116, 1081.203
441.0937, 1079.006
441.5758, 1079.309
442.0580, 1081.346
442.5401, 1082.836
443.0222, 1082.847
443.5043, 1082.234
443.9864, 1081.915
444.4685, 1081.825
444.9507, 1081.217
445.4328, 1079.388
445.9149, 1077.192
446.3970, 1076.768
446.8791, 1078.761
447.3612, 1080.317
447.8434, 1080.379
448.3255, 1079.716
448.8076, 1079.110
449.2897, 1078.734
449.7718, 1078.783
450.2539, 1079.654
450.7361, 1081.443
451.2182, 1081.663
451.7003, 1079.177
452.1824, 1076.632
452.6645, 1074.683
453.1466, 1073.382
453.6288, 1072.812
454.1109, 1073.008
454.5930, 1073.707
455.0751, 1074.438
455.5572, 1075.455
456.0393, 1075.958
456.5215, 1075.276
457.0036, 1074.724
457.4857, 1075.421
457.9678, 1077.039
458.4499, 1078.268
458.9320, 1077.974
459.4142, 1076.490
459.8963, 1075.838
460.3784, 1076.545
460.8605, 1077.161
461.3426, 1077.551
461.8247, 1077.554
462.3069, 1076.739
462.7890, 1075.005
463.2711, 1073.437
463.7532, 1073.567
464.2353, 1075.221
464.7174, 1075.732
465.1996, 1074.107
465.6817, 1072.414
466.1638, 1072.375
466.6459, 1073.411
467.1280, 1074.082
467.6101, 1073.786
468.0923, 1073.030
468.5744, 1072.096
469.0565, 1071.041
469.5386, 1070.714
470.0207, 1071.822
470.5028, 1073.341
470.9850, 1073.181
471.4671, 1070.951
471.9492, 1069.537
472.4313, 1070.708
472.9134, 1072.442
473.3955, 1072.453
473.8777, 1070.630
474.3598, 1068.252
474.8419, 1066.087
475.3240, 1064.240
475.8061, 1063.780
476.2882, 1066.088
476.7704, 1067.906
477.2525, 1068.241
477.7346, 1067.896
478.2167, 1068.057
478.6988, 1068.958
479.1809, 1069.535
479.6631, 1068.171
480.1452, 1064.204
480.6273, 1061.741
481.1094, 1062.132
481.5915, 1062.661
482.0736, 1062.472
482.5558, 1061.807
483.0379, 1061.059
483.5200, 1060.340
484.0021, 1060.023
484.4842, 1061.105
484.9663, 1064.043
485.4485, 1066.278
485.9306, 1067.013
486.4127, 1067.118
486.8948, 1067.111
487.3769, 1067.000
487.8590, 1066.635
488.3412, 1065.866
488.8233, 1064.813
489.3054, 1063.605
489.7875, 1062.219
490.2696, 1061.043
490.7517, 1060.323
491.2339, 1059.940
491.7160, 1059.586
492.1981, 1059.234
492.6802, 1058.993
493.1623, 1058.771
493.6444, 1058.739
494.1266, 1059.483
494.6087, 1061.063
495.0908, 1062.117
495.5729, 1061.237
496.0550, 1058.455
496.5371, 1056.765
497.0193, 1056.557
497.5014, 1056.805
497.9835, 1057.779
498.4656, 1058.816
498.9477, 1059.028
499.4298, 1058.128
499.9120, 1056.428
500.3941, 1054.192
500.8762, 1050.916
501.3583, 1049.053
501.8404, 1049.645
502.3225, 1050.595
502.8047, 1051.261
503.2868, 1051.739
503.7689, 1052.399
504.2510, 1053.505
504.7331, 1054.554
505.2152, 1054.484
505.6974, 1053.092
506.1795, 1051.792
506.6616, 1050.272
507.1437, 1049.569
507.6258, 1051.236
508.1079, 1054.708
508.5901, 1056.885
509.0722, 1055.358
509.5543, 1052.127
510.0364, 1049.759
510.5185, 1048.286
511.0006, 1048.068
511.4828, 1049.765
511.9649, 1052.397
512.4470, 1053.884
512.9291, 1054.068
513.4112, 1053.932
513.8933, 1053.595
514.3754, 1053.128
514.8575, 1052.628
515.3397, 1052.089
515.8218, 1051.368
516.3039, 1050.281
516.7860, 1048.950
517.2681, 1048.283
517.7502, 1049.319
518.2324, 1049.719
518.7145, 1048.760
519.1966, 1047.379
519.6787, 1046.387
520.1608, 1045.955
520.6429, 1045.879
521.1251, 1046.107
521.6072, 1046.612
522.0893, 1046.282
522.5714, 1044.146
523.0535, 1042.744
523.5356, 1043.473
524.0178, 1045.063
524.4999, 1046.083
524.9820, 1046.155
525.4641, 1045.824
525.9462, 1045.531
526.4283, 1045.254
526.9105, 1044.792
527.3926, 1043.993
527.8747, 1043.439
528.3568, 1044.252
528.8389, 1045.733
529.3210, 1045.405
529.8032, 1040.750
530.2853, 1036.834
530.7674, 1037.447
531.2495, 1040.584
531.7316, 1042.187
532.2137, 1041.062
532.6959, 1039.001
533.1780, 1038.214
533.6601, 1038.956
534.1422, 1039.373
534.6243, 1039.675
535.1064, 1039.482
535.5886, 1038.244
536.0707, 1036.537
536.5528, 1035.214
537.0349, 1034.620
537.5170, 1034.459
537.9991, 1034.212
538.4813, 1033.747
538.9634, 1033.906
539.4455, 1035.364
539.9276, 1036.764
540.4097, 1037.518
540.8918, 1037.760
541.3740, 1037.786
541.8561, 1037.710
542.3382, 1037.480
542.8203, 1036.930
543.3024, 1036.106
543.7845, 1035.473
544.2667, 1035.177
544.7488, 1035.034
545.2309, 1034.997
545.7130, 1035.026
546.1951, 1034.584
546.6772, 1032.778
547.1594, 1031.230
547.6415, 1031.244
548.1236, 1032.355
548.6057, 1033.461
549.0878, 1034.139
549.5699, 1034.338
550.0521, 1033.909
550.5342, 1032.547
551.0163, 1031.504
551.4984, 1031.106
551.9805, 1030.654
552.4626, 1029.249
552.9448, 1027.664
553.4269, 1027.650
553.9090, 1030.158
554.3911, 1033.339
554.8732, 1033.645
555.3553, 1030.539
555.8375, 1028.170
556.3196, 1026.870
556.8017, 1026.711
557.2838, 1028.630
557.7659, 1031.665
558.2480, 1033.002
558.7302, 1030.402
559.2123, 1027.171
559.6944, 1027.101
560.1765, 1029.479
560.6586, 1031.060
561.1407, 1030.776
561.6229, 1029.679
562.1050, 1029.049
562.5871, 1029.001
563.0692, 1028.628
563.5513, 1027.456
564.0334, 1026.428
564.5156, 1026.253
564.9977, 1026.517
565.4798, 1026.294
565.9619, 1025.232
566.4440, 1024.100
566.9261, 1024.365
567.4083, 1026.757
567.8904, 1027.559
568.3725, 1024.720
568.8546, 1022.363
569.3367, 1022.286
569.8188, 1023.528
570.3010, 1024.504
570.7831, 1024.660
571.2652, 1024.278
571.7473, 1023.561
572.2294, 1022.552
572.7115, 1021.526
573.1937, 1020.439
573.6758, 1019.584
574.1579, 1019.378
574.6400, 1019.645
575.1221, 1019.673
575.6042, 1019.101
576.0864, 1018.614
576.5685, 1018.636
577.0506, 1018.947
577.5327, 1019.276
578.0148, 1019.534
578.4969, 1019.522
578.9791, 1018.935
579.4612, 1017.731
579.9433, 1017.124
580.4254, 1017.864
580.9075, 1018.336
581.3896, 1018.166
581.8718, 1017.621
582.3539, 1017.024
582.8360, 1016.437
583.3181, 1015.664
583.8002, 1014.055
584.2823, 1011.886
584.7645, 1011.407
585.2466, 1013.135
585.7287, 1015.106
586.2108, 1016.783
586.6929, 1017.914
587.1750, 1017.881
587.6572, 1016.279
588.1393, 1015.087
588.6214, 1015.514
589.1035, 1016.702
589.5856, 1017.775
590.0677, 1018.558
590.5499, 1018.633
591.0320, 1017.640
591.5141, 1015.879
591.9962, 1014.484
592.4783, 1013.970
592.9604, 1013.120
593.4426, 1011.347
593.9247, 1009.719
594.4068, 1009.055
594.8889, 1009.243
595.3710, 1009.745
595.8531, 1010.368
596.3353, 1010.775
596.8174, 1009.908
597.2995, 1007.471
597.7816, 1005.468
598.2637, 1004.067
598.7458, 1003.599
599.2280, 1004.854
599.7101, 1007.415
600.1922, 1009.021
600.6743, 1008.272
601.1564, 1006.877
601.6385, 1006.431
602.1207, 1006.520
602.6028, 1005.593
603.0849, 1003.040
603.5670, 1000.483
604.0491, 1000.166
604.5313, 1002.589
605.0134, 1004.109
605.4955, 1004.049
605.9776, 1003.991
606.4597, 1004.862
606.9418, 1005.842
607.4240, 1005.641
607.9061, 1003.974
608.3882, 1002.012
608.8703, 1001.106
609.3524, 1001.182
609.8345, 1001.194
610.3167, 1001.117
610.7988, 1001.041
611.2809, 1001.222
611.7630, 1001.338
612.2451, 1000.714
612.7272, 998.9841
613.2094, 998.0045
613.6915, 999.7387
614.1736, 1002.065
614.6557, 1001.741
615.1378, 998.9755
615.6199, 996.9930
616.1021, 997.9103
616.5842, 1000.511
617.0663, 1001.288
617.5484, 998.5475
618.0305, 996.8124
618.5126, 996.5721
618.9948, 996.7727
619.4769, 996.6857
619.9590, 996.5592
620.4411, 997.2654
620.9232, 999.4509
621.4053, 1001.854
621.8875, 1002.300
622.3696, 1000.825
622.8517, 999.3883
623.3338, 998.1617
623.8159, 997.3542
624.2980, 997.6979
624.7802, 998.6684
625.2623, 998.4199
625.7444, 995.0369
626.2265, 992.6108
626.7086, 994.0682
627.1907, 997.1845
627.6729, 998.9269
628.1550, 998.7071
628.6371, 997.3288
629.1192, 995.3082
629.6013, 992.8339
630.0834, 991.5824
630.5656, 992.3715
631.0477, 993.0377
631.5298, 992.7820
632.0119, 992.6717
632.4940, 993.9512
632.9761, 996.3106
633.4583, 997.9183
633.9404, 997.2392
634.4225, 995.5625
634.9046, 995.0219
635.3867, 995.5220
635.8688, 995.7964
636.3510, 995.3792
636.8331, 994.7711
637.3152, 994.5107
637.7973, 994.6247
638.2794, 995.0825
638.7615, 996.5096
639.2437, 997.5901
639.7258, 997.5281
640.2079, 996.8913
640.6900, 996.4170
641.1721, 996.3223
641.6542, 996.5208
642.1364, 997.1105
642.6185, 997.9908
643.1006, 997.5994
643.5827, 994.9501
644.0648, 993.2140
644.5469, 994.5230
645.0291, 996.6207
645.5112, 997.3085
645.9933, 996.4501
646.4754, 996.0507
646.9575, 997.5143
647.4396, 999.5185
647.9218, 1000.848
648.4039, 1001.466
648.8860, 1001.288
649.3681, 1000.197
649.8502, 998.9841
650.3323, 998.9588
650.8145, 1000.590
651.2966, 1001.248
651.7787, 999.8826
652.2608, 998.7929
652.7429, 998.9408
653.2250, 999.6329
653.7072, 999.8513
654.1893, 999.3709
654.6714, 999.0479
655.1535, 999.9415
655.6356, 1001.635
656.1177, 1002.706
656.5999, 1003.067
657.0820, 1003.151
657.5641, 1002.956
658.0462, 1002.782
658.5283, 1003.270
659.0104, 1004.523
659.4926, 1005.739
659.9747, 1007.185
660.4568, 1008.203
660.9389, 1007.874
661.4210, 1006.882
661.9031, 1006.728
662.3853, 1007.974
662.8674, 1009.654
663.3495, 1010.318
663.8316, 1009.863
664.3137, 1010.041
664.7958, 1011.509
665.2780, 1012.394
665.7601, 1010.863
666.2422, 1008.778
666.7243, 1008.578
667.2064, 1010.763
667.6885, 1012.650
668.1707, 1012.915
668.6528, 1012.291
669.1349, 1011.335
669.6170, 1010.222
670.0991, 1009.513
670.5812, 1009.523
671.0634, 1009.613
671.5455, 1008.558
672.0276, 1005.905
672.5097, 1003.884
672.9918, 1002.812
673.4739, 1002.062
673.9561, 1002.031
674.4382, 1001.975
674.9203, 1000.689
675.4024, 997.8853
675.8845, 995.2201
676.3666, 994.1898
676.8488, 994.2164
677.3309, 994.1779
677.8130, 994.0096
678.2951, 993.5308
678.7772, 992.5593
679.2593, 991.4012
679.7415, 990.6683
680.2236, 990.6984
680.7057, 990.0585
681.1878, 988.0997
681.6699, 986.1706
682.1520, 984.7548
682.6342, 983.7968
683.1163, 983.3190
683.5984, 983.2704
684.0805, 983.1199
684.5626, 982.2418
685.0447, 980.7474
685.5269, 979.1074
686.0090, 977.2070
686.4911, 975.8352
686.9732, 975.5703
687.4553, 975.8217
687.9374, 975.5639
688.4196, 974.7108
688.9017, 974.2455
689.3838, 975.0425
689.8659, 975.5556
690.3480, 974.5664
690.8301, 972.7359
691.3123, 971.1677
691.7944, 970.2419
692.2765, 969.7627
692.7586, 969.5727
693.2407, 969.6466
693.7228, 969.6567
694.2050, 969.6169
694.6871, 969.4512
695.1692, 968.9075
695.6513, 968.3894
696.1334, 968.6164
696.6155, 969.5694
697.0977, 969.6135
697.5798, 967.6335
698.0619, 965.1700
698.5440, 963.1790
699.0261, 961.5937
699.5082, 960.1198
699.9904, 958.7048
700.4725, 957.8273
700.9546, 958.2171
701.4367, 959.7172
701.9188, 959.7817
702.4009, 957.6502
702.8831, 955.5972
703.3652, 953.5792
703.8473, 952.3113
704.3294, 953.0262
704.8115, 955.3102
705.2936, 956.5515
705.7758, 954.8456
706.2579, 952.5533
706.7400, 951.3744
707.2221, 951.1215
707.7042, 951.6582
708.1863, 952.8765
708.6685, 953.7903
709.1505, 953.4170
709.6326, 951.9694
710.1147, 951.0748
710.5969, 951.1097
711.0790, 951.0175
711.5611, 950.6575
712.0432, 950.1419
712.5253, 949.1850
713.0074, 948.1140
713.4896, 947.9480
713.9717, 949.5498
714.4538, 951.2975
714.9359, 951.8037
715.4180, 951.3600
715.9001, 950.4661
716.3823, 949.2405
716.8644, 948.0383
717.3465, 947.0763
717.8286, 946.3978
718.3107, 946.1857
718.7928, 946.8010
719.2750, 947.1956
719.7571, 947.5184
720.2392, 947.4459
720.7213, 946.5275
721.2034, 945.1578
721.6855, 943.9957
722.1677, 943.2118
722.6498, 942.9296
723.1319, 943.3763
723.6140, 944.3615
724.0961, 945.8730
724.5782, 947.7847
725.0604, 948.6193
725.5425, 947.4156
726.0246, 945.1537
726.5067, 943.7914
726.9888, 943.4601
727.4709, 943.6553
727.9531, 945.5695
728.4352, 946.6479
728.9173, 944.9481
729.3994, 942.4451
729.8815, 941.9768
730.3636, 944.0859
730.8458, 946.1600
731.3279, 946.2320
731.8100, 945.1859
732.2921, 944.1359
732.7742, 943.2115
733.2563, 943.1928
733.7385, 944.5076
734.2206, 945.7845
734.7027, 945.0729
735.1848, 942.1462
735.6669, 940.6552
736.1490, 941.8442
736.6312, 942.9144
737.1133, 943.3561
737.5954, 943.5496
738.0775, 943.8453
738.5596, 944.2419
739.0417, 944.5183
739.5239, 944.6761
740.0060, 944.5212
740.4881, 943.5421
740.9702, 942.0629
741.4523, 940.9993
741.9344, 940.5438
742.4166, 940.8652
742.8987, 942.3272
743.3808, 944.5068
743.8629, 945.2347
744.3450, 943.4279
744.8271, 942.1224
745.3093, 941.8965
745.7914, 941.7741
746.2735, 941.1540
746.7556, 940.2637
747.2377, 939.6164
747.7198, 939.3920
748.2020, 939.3569
748.6841, 939.4378
749.1662, 939.5465
749.6483, 939.4725
750.1304, 939.2450
750.6125, 939.1560
751.0947, 939.3670
751.5768, 939.7519
752.0589, 940.1684
752.5410, 940.8035
753.0231, 940.5759
753.5052, 938.8203
753.9874, 937.0834
754.4695, 935.5885
754.9516, 934.4910
755.4337, 933.9939
755.9158, 934.1086
756.3979, 934.5969
756.8801, 935.9336
757.3622, 937.0905
757.8443, 936.8263
758.3264, 935.6234
758.8085, 934.4711
759.2906, 933.6873
759.7728, 933.6158
760.2549, 934.8138
760.7370, 936.8848
761.2191, 937.1706
761.7012, 934.8274
762.1833, 932.9717
762.6655, 932.0795
763.1476, 931.9167
763.6297, 932.7227
764.1118, 934.0909
764.5939, 934.8416
765.0760, 934.3333
765.5582, 934.0128
766.0403, 934.9390
766.5224, 936.1816
767.0045, 936.9263
767.4866, 936.9981
767.9688, 936.0743
768.4509, 933.9532
768.9330, 931.5790
769.4151, 930.6031
769.8972, 931.0660
770.3793, 931.5508
770.8615, 932.0433
771.3436, 932.5244
771.8257, 933.1023
772.3078, 933.5696
772.7899, 933.5892
773.2720, 933.1345
773.7542, 932.6539
774.2363, 931.6791
774.7184, 931.2952
775.2005, 933.0348
775.6826, 935.2037
776.1647, 935.2643
776.6469, 933.0530
777.1290, 930.5806
777.6111, 929.3004
778.0932, 928.9661
778.5753, 929.2130
779.0574, 930.0153
779.5396, 930.7011
780.0217, 931.1692
780.5038, 931.4006
780.9859, 931.3756
781.4680, 931.1022
781.9501, 930.5928
782.4323, 929.1034
782.9144, 928.6168
783.3965, 930.1845
783.8786, 931.8176
784.3607, 932.5824
784.8428, 932.5500
785.3250, 931.8447
785.8071, 930.5017
786.2892, 929.2054
786.7713, 928.4528
787.2534, 928.1813
787.7355, 928.3525
788.2177, 928.9260
788.6998, 929.7045
789.1819, 930.6388
789.6640, 931.5876
790.1461, 932.4668
790.6282, 933.2741
791.1104, 933.1242
791.5925, 931.3307
792.0746, 929.7404
792.5567, 928.1828
793.0388, 927.3403
793.5209, 928.5900
794.0031, 931.0452
794.4852, 931.6124
794.9673, 928.1976
795.4494, 925.0449
795.9315, 925.2343
796.4136, 926.9669
796.8958, 928.2927
797.3779, 928.8777
797.8600, 928.4363
798.3421, 926.7728
798.8242, 925.0072
799.3063, 925.3544
799.7885, 927.9274
800.2706, 928.9431
800.7527, 927.8439
801.2348, 926.8330
801.7169, 926.9001
802.1990, 927.3783
802.6812, 927.4006
803.1633, 926.9813
803.6454, 926.3672
804.1275, 925.5903
804.6096, 924.6277
805.0917, 922.8110
805.5739, 921.2695
806.0560, 921.4175
806.5381, 923.0730
807.0202, 924.8946
807.5023, 926.1414
807.9844, 927.0873
808.4666, 928.3717
808.9487, 929.7059
809.4308, 929.7360
809.9129, 928.2871
810.3950, 926.6760
810.8771, 925.5759
811.3593, 924.9610
811.8414, 924.8538
812.3235, 925.5357
812.8056, 925.6379
813.2877, 924.7004
813.7698, 923.7342
814.2520, 922.8759
814.7341, 922.1975
815.2162, 921.6265
815.6983, 921.2247
816.1804, 921.4888
816.6625, 923.3361
817.1447, 925.1848
817.6268, 925.9246
818.1089, 925.8737
818.5910, 925.2534
819.0731, 924.2927
819.5552, 923.7748
820.0374, 924.2860
820.5195, 925.1310
821.0016, 924.6984
821.4837, 922.9388
821.9658, 921.7168
822.4479, 921.2632
822.9301, 921.0359
823.4122, 920.9727
823.8943, 920.7833
824.3764, 919.6404
824.8585, 917.0194
825.3406, 916.2390
825.8228, 919.1962
826.3049, 921.8432
826.7870, 922.7764
827.2691, 922.7384
827.7512, 922.3310
828.2333, 921.7606
828.7155, 921.2503
829.1976, 920.8373
829.6797, 920.6902
830.1618, 921.2804
830.6439, 922.2227
831.1260, 922.6110
831.6082, 922.3457
832.0903, 921.6230
832.5724, 920.4848
833.0545, 919.3366
833.5366, 919.1794
834.0187, 920.3376
834.5009, 920.0166
834.9830, 917.0798
835.4651, 914.9775
835.9472, 915.7758
836.4293, 917.3801
836.9114, 917.2659
837.3936, 915.5426
837.8757, 914.4947
838.3578, 915.0812
838.8399, 915.6531
839.3220, 915.3297
839.8041, 914.8987
840.2863, 915.4908
840.7684, 916.7416
841.2505, 917.1776
841.7326, 915.9995
842.2147, 914.3933
842.6968, 913.7243
843.1790, 913.7579
843.6611, 914.0461
844.1432, 914.4950
844.6253, 914.1478
845.1074, 912.4485
845.5895, 910.7556
846.0717, 911.0245
846.5538, 913.2634
847.0359, 914.6591
847.5180, 915.2856
848.0001, 914.8676
848.4822, 912.0843
848.9644, 909.4141
849.4465, 908.7091
849.9286, 909.4811
850.4107, 910.2314
850.8928, 910.8062
851.3749, 911.1489
851.8571, 910.8133
852.3392, 910.6186
852.8213, 911.7282
853.3034, 913.3854
853.7855, 913.9826
854.2676, 913.0430
854.7498, 911.4719
855.2319, 909.8365
855.7140, 908.3348
856.1961, 907.4260
856.6782, 907.0770
857.1603, 907.0096
857.6425, 907.1563
858.1246, 907.7902
858.6067, 909.4537
859.0888, 911.3962
859.5709, 910.4647
860.0530, 904.7509
860.5352, 901.2032
861.0173, 900.6506
861.4994, 901.5504
861.9815, 904.4437
862.4636, 907.7219
862.9457, 909.0303
863.4279, 908.0731
863.9100, 907.4596
864.3921, 908.4745
864.8742, 909.2661
865.3563, 908.7982
865.8384, 907.5909
866.3206, 905.6482
866.8027, 903.5244
867.2848, 903.0884
867.7669, 905.8221
868.2490, 909.0356
868.7311, 908.7321
869.2133, 906.1737
869.6954, 904.8854
870.1775, 905.1213
870.6596, 906.2272
871.1417, 908.0335
871.6238, 909.5807
872.1060, 909.4323
872.5881, 907.6027
873.0702, 905.9775
873.5523, 904.4418
874.0344, 903.4707
874.5165, 903.8599
874.9987, 904.0590
875.4808, 901.8932
875.9629, 898.5276
876.4450, 897.7068
876.9271, 901.4780
877.4092, 903.8454
877.8914, 902.5967
878.3735, 900.6655
878.8556, 899.4591
879.3377, 898.9403
879.8198, 899.1262
880.3019, 899.8693
880.7841, 900.0685
881.2662, 898.4927
881.7483, 896.4328
882.2304, 895.3536
882.7125, 895.0707
883.1946, 895.2607
883.6768, 895.8129
884.1589, 896.5176
884.6410, 897.2551
885.1231, 897.9610
885.6052, 898.6544
886.0873, 899.3615
886.5695, 898.8924
887.0516, 896.7816
887.5337, 895.4023
888.0158, 895.9644
888.4979, 897.1573
888.9800, 897.4557
889.4622, 896.8614
889.9443, 896.2375
890.4264, 895.1921
890.9085, 894.6862
891.3906, 895.2938
891.8727, 895.9961
892.3549, 896.0165
892.8370, 895.7130
893.3191, 895.9392
893.8012, 896.9717
894.2833, 897.7436
894.7654, 897.7537
895.2476, 897.2713
895.7297, 896.1385
896.2118, 894.8281
896.6939, 894.0321
897.1760, 893.9066
897.6581, 894.4688
898.1403, 896.0076
898.6224, 897.4025
899.1045, 896.2141
899.5866, 893.2003
900.0687, 891.8748
900.5508, 892.5299
901.0330, 893.3351
901.5151, 893.4343
901.9972, 893.2382
902.4793, 893.3701
902.9614, 893.8311
903.4435, 894.0786
903.9257, 894.3210
904.4078, 893.7311
904.8899, 891.3179
905.3720, 889.0827
905.8541, 888.7045
906.3362, 889.7188
906.8184, 890.7244
907.3005, 891.7955
907.7826, 892.6259
908.2647, 892.9131
908.7468, 893.2540
909.2289, 894.4090
909.7111, 895.5063
910.1932, 895.1767
910.6753, 893.4815
911.1574, 892.0833
911.6395, 891.5875
912.1216, 891.9771
912.6038, 894.4148
913.0859, 897.0366
913.5680, 896.6532
914.0501, 893.8156
914.5322, 891.4064
915.0143, 890.6945
915.4965, 890.9205
915.9786, 891.5541
916.4607, 892.3162
916.9428, 891.9446
917.4249, 890.5586
917.9070, 889.9423
918.3892, 890.6247
918.8713, 891.0344
919.3534, 889.7794
919.8355, 887.5850
920.3176, 886.7526
920.7997, 887.7299
921.2819, 888.3958
921.7640, 888.6199
922.2461, 888.7336
922.7282, 888.8125
923.2103, 888.8818
923.6924, 889.0651
924.1746, 889.3365
924.6567, 889.1964
925.1388, 888.0690
925.6209, 887.2914
926.1030, 887.2076
926.5851, 887.4335
927.0673, 887.6887
927.5494, 888.0635
928.0315, 888.9069
928.5136, 890.3199
928.9957, 891.3867
929.4778, 891.5209
929.9600, 891.2282
930.4421, 890.7050
930.9242, 890.1445
931.4063, 890.0677
931.8884, 890.3030
932.3705, 889.8766
932.8527, 888.1963
933.3348, 885.9755
933.8169, 883.5895
934.2990, 881.5162
934.7811, 881.4823
935.2632, 883.2587
935.7454, 884.8270
936.2275, 885.5264
936.7096, 885.7970
937.1917, 886.0840
937.6738, 886.2673
938.1559, 885.7161
938.6381, 884.2666
939.1202, 883.5038
939.6023, 883.7746
940.0844, 884.1174
940.5665, 884.0990
941.0486, 883.7937
941.5308, 883.2474
942.0129, 882.3993
942.4950, 881.9405
942.9771, 882.3279
943.4592, 882.4040
943.9413, 881.3055
944.4235, 880.5417
944.9056, 881.8407
945.3877, 883.9873
945.8698, 884.0565
946.3519, 881.0547
946.8340, 878.8945
947.3162, 878.7823
947.7983, 879.5172
948.2804, 881.3163
948.7625, 883.0732
949.2446, 883.3334
949.7267, 882.3186
950.2089, 881.5591
950.6910, 881.8218
951.1731, 882.1907
951.6552, 881.7189
952.1373, 881.1116
952.6194, 881.3592
953.1016, 882.2035
953.5837, 882.7912
954.0658, 882.9417
954.5479, 883.4346
955.0300, 885.2831
955.5121, 887.1214
955.9943, 885.8660
956.4763, 882.3723
956.9584, 879.9539
957.4406, 878.9471
957.9227, 878.8537
958.4048, 879.5000
958.8869, 880.1082
959.3690, 879.4118
959.8511, 877.7424
960.3333, 878.2135
960.8154, 881.3143
961.2975, 882.7050
961.7796, 881.1133
962.2617, 879.4307
962.7438, 879.6693
963.2260, 880.8767
963.7081, 880.9441
964.1902, 879.5211
964.6723, 878.8740
965.1544, 879.8263
965.6365, 880.1852
966.1187, 879.0212
966.6008, 877.5028
967.0829, 876.3742
967.5650, 875.6164
968.0471, 875.1505
968.5292, 874.9003
969.0114, 875.1297
969.4935, 876.4526
969.9756, 877.5851
970.4577, 878.0133
970.9398, 877.9254
971.4219, 877.2835
971.9041, 876.3005
972.3862, 875.7842
972.8683, 876.1505
973.3504, 876.7031
973.8325, 877.2363
974.3146, 877.6636
974.7968, 878.0695
975.2789, 878.2460
975.7610, 877.5746
976.2431, 876.1212
976.7252, 875.1678
977.2073, 875.9725
977.6895, 876.8891
978.1716, 875.5190
978.6537, 873.3339
979.1358, 873.0934
979.6179, 874.5061
980.1000, 875.5853
980.5822, 875.5892
981.0643, 875.1241
981.5464, 874.6822
982.0285, 874.3333
982.5106, 874.4647
982.9927, 874.8814
983.4749, 874.4413
983.9570, 873.0544
984.4391, 871.8768
984.9212, 871.5043
985.4033, 871.7969
985.8854, 872.8438
986.3676, 874.4003
986.8497, 873.7416
987.3318, 870.4994
987.8139, 869.7401
988.2960, 872.9911
988.7781, 876.2169
989.2603, 876.7393
989.7424, 875.6286
990.2245, 875.1205
990.7066, 875.3493
991.1887, 875.0271
991.6708, 873.7397
992.1530, 872.9616
992.6351, 873.4506
993.1172, 873.9030
993.5993, 873.0292
994.0814, 871.4185
994.5635, 870.9514
995.0457, 872.2221
995.5278, 872.9443
996.0099, 872.8271
996.4920, 872.5381
996.9741, 871.9058
997.4562, 871.4429
997.9384, 871.7453
998.4205, 872.5867
998.9026, 873.1534
999.3847, 873.2973
999.8668, 873.2918
1000.349, 873.0027
1000.831, 872.8002
1001.313, 872.9094
1001.795, 873.1727
1002.277, 873.3406
1002.760, 873.4775
1003.242, 874.0433
1003.724, 875.6611
1004.206, 876.5062
1004.688, 875.1319
1005.170, 873.2801
1005.652, 872.0543
1006.134, 871.3697
1006.616, 870.8679
1007.099, 870.5723
1007.581, 871.0065
1008.063, 872.7840
1008.545, 874.4763
1009.027, 875.0926
1009.509, 874.8759
1009.991, 873.6707
1010.473, 871.9965
1010.956, 870.8935
1011.438, 870.5696
1011.920, 870.4777
1012.402, 870.2027
1012.884, 870.0784
1013.366, 870.5771
1013.848, 871.4902
1014.330, 872.8163
1014.812, 874.1893
1015.295, 874.0855
1015.777, 872.2426
1016.259, 870.9821
1016.741, 872.5353
1017.223, 875.3591
1017.705, 876.9104
1018.187, 877.2795
1018.669, 876.3165
1019.151, 874.2754
1019.634, 872.9045
1020.116, 872.8469
1020.598, 873.3486
1021.080, 873.7381
1021.562, 873.9460
1022.044, 873.6276
1022.526, 872.8593
1023.008, 872.3903
1023.491, 872.2932
1023.973, 872.7313
1024.455, 873.8566
1024.937, 874.6852
1025.419, 873.9329
1025.901, 872.0616
1026.383, 871.1740
1026.865, 871.2989
1027.348, 872.1075
1027.830, 873.7552
1028.312, 874.9514
1028.794, 875.1292
1029.276, 874.4915
1029.758, 873.0814
1030.240, 871.1268
1030.722, 870.6022
1031.204, 871.8494
1031.687, 873.0240
1032.169, 873.9716
1032.651, 874.9012
1033.133, 876.2768
1033.615, 876.9665
1034.097, 875.0178
1034.579, 870.7428
1035.061, 869.2504
1035.543, 872.1022
1036.026, 873.5702
1036.508, 872.1868
1036.990, 871.3180
1037.472, 873.2480
1037.954, 875.7354
1038.436, 875.6183
1038.918, 873.0096
1039.400, 871.2429
1039.883, 870.3829
1040.365, 870.2846
1040.847, 871.4071
1041.329, 872.6759
1041.811, 873.8690
1042.293, 874.7988
1042.775, 875.0568
1043.257, 874.6717
1043.740, 874.7175
1044.222, 875.9257
1044.704, 876.4431
1045.186, 875.9451
1045.668, 875.0154
1046.150, 873.4125
1046.632, 871.8326
1047.114, 871.0242
1047.596, 871.0104
1048.078, 871.7059
1048.561, 874.1572
1049.043, 875.7000
1049.525, 875.2537
1050.007, 874.7092
1050.489, 875.0136
1050.971, 875.6876
1051.453, 876.4135
1051.935, 877.0340
1052.418, 876.6337
1052.900, 873.9774
1053.382, 872.1736
1053.864, 872.1845
1054.346, 872.7552
1054.828, 873.9359
1055.310, 874.8476
1055.792, 874.0095
1056.275, 871.7733
1056.757, 870.6750
1057.239, 871.6307
1057.721, 873.0157
1058.203, 875.4613
1058.685, 877.0043
1059.167, 875.6456
1059.649, 873.4066
1060.131, 872.6849
1060.614, 873.4029
1061.096, 874.0144
1061.578, 874.0812
1062.060, 874.1135
1062.542, 874.3387
1063.024, 874.5121
1063.506, 874.4398
1063.988, 874.2781
1064.470, 874.1888
1064.953, 874.1849
1065.435, 874.2083
1065.917, 874.2017
1066.399, 874.3761
1066.881, 875.2145
1067.363, 875.7983
1067.845, 875.7344
1068.327, 875.0300
1068.810, 873.0771
1069.292, 870.5619
1069.774, 869.4805
1070.256, 870.5509
1070.738, 872.0861
1071.220, 874.1080
1071.702, 875.5087
1072.184, 874.9029
1072.667, 873.9240
1073.149, 874.6108
1073.631, 876.3629
1074.113, 876.9606
1074.595, 875.6602
1075.077, 875.1926
1075.559, 877.8969
1076.041, 880.4084
1076.523, 880.9614
1077.005, 880.3139
1077.488, 878.5063
1077.970, 876.3483
1078.452, 875.3821
1078.934, 875.9685
1079.416, 876.8406
1079.898, 877.6241
1080.380, 878.3187
1080.862, 879.2122
1081.344, 879.7684
1081.827, 879.1234
1082.309, 877.9310
1082.791, 877.4133
1083.273, 877.7917
1083.755, 878.4689
1084.237, 879.8232
1084.719, 880.5443
1085.201, 879.3545
1085.684, 877.9244
1086.166, 877.8326
1086.648, 878.3043
1087.130, 877.7613
1087.612, 876.1974
1088.094, 875.4040
1088.576, 876.1970
1089.058, 877.5590
1089.541, 879.5576
1090.023, 881.4433
1090.505, 882.9740
1090.987, 883.8906
1091.469, 883.5908
1091.951, 882.3438
1092.433, 881.4949
1092.915, 881.5696
1093.397, 881.7379
1093.880, 881.6778
1094.362, 881.6100
1094.844, 881.6060
1095.326, 881.6992
1095.808, 882.0212
1096.290, 882.4529
1096.772, 882.6815
1097.254, 882.6523
1097.736, 882.2869
1098.219, 881.0809
1098.701, 880.1365
1099.183, 879.5671
1099.665, 879.8192
1100.147, 882.1588
1100.629, 885.3686
1101.111, 886.7162
1101.593, 885.6326
1102.076, 884.4891
1102.558, 884.4996
1103.040, 883.7440
1103.522, 880.1586
1104.004, 877.0479
1104.486, 877.2794
1104.968, 879.2933
1105.450, 880.6234
1105.932, 881.0000
1106.415, 880.8309
1106.897, 878.4727
1107.379, 878.1279
1107.861, 883.2726
1108.343, 887.5477
1108.825, 886.6363
1109.307, 883.7364
1109.789, 882.8867
1110.271, 883.9359
1110.754, 884.1849
1111.236, 882.6868
1111.718, 881.7475
1112.200, 881.7487
1112.682, 882.1170
1113.164, 883.3348
1113.646, 884.2675
1114.128, 883.4236
1114.611, 881.4778
1115.093, 880.7186
1115.575, 881.4529
1116.057, 882.5439
1116.539, 884.8068
1117.021, 886.1882
1117.503, 885.9334
1117.985, 885.0838
1118.468, 883.8138
1118.950, 882.6844
1119.432, 882.9486
1119.914, 884.7770
1120.396, 885.8407
1120.878, 885.6132
1121.360, 885.8195
1121.842, 887.3275
1122.324, 887.9283
1122.807, 885.6535
1123.289, 883.1497
1123.771, 884.0956
1124.253, 887.9777
1124.735, 890.4852
1125.217, 891.4866
1125.699, 891.4500
1126.181, 889.8176
1126.663, 889.0178
1127.146, 890.0863
1127.628, 891.7410
1128.110, 892.8539
1128.592, 893.5961
1129.074, 894.5704
1129.556, 895.8775
1130.038, 896.1979
1130.520, 895.4003
1131.003, 894.4131
1131.485, 893.3525
1131.967, 892.7036
1132.449, 892.7676
1132.931, 893.4739
1133.413, 894.8405
1133.895, 896.7292
1134.377, 898.4114
1134.859, 899.8620
1135.342, 899.6730
1135.824, 897.6934
1136.306, 896.1371
1136.788, 895.9661
1137.270, 896.6608
1137.752, 897.8058
1138.234, 899.1489
1138.716, 900.1339
1139.198, 900.7683
1139.681, 900.7336
1140.163, 900.2796
1140.645, 901.1368
1141.127, 903.5968
1141.609, 905.7637
1142.091, 906.3634
1142.573, 905.8304
1143.055, 903.8490
1143.538, 901.6896
1144.020, 902.4537
1144.502, 905.0770
1144.984, 906.8646
1145.466, 907.4755
1145.948, 907.5424
1146.430, 907.3604
1146.912, 907.4374
1147.395, 908.3246
1147.877, 909.5723
1148.359, 910.8254
1148.841, 912.0116
1149.323, 913.0783
1149.805, 913.9860
1150.287, 914.7423
1150.769, 915.3008
1151.251, 915.3170
1151.734, 914.1695
1152.216, 913.5560
1152.698, 915.0167
1153.180, 917.0394
1153.662, 918.4932
1154.144, 919.6533
1154.626, 921.2956
1155.108, 923.0630
1155.590, 923.4033
1156.073, 921.5712
1156.555, 920.5095
1157.037, 921.5084
1157.519, 923.1420
1158.001, 925.7169
1158.483, 927.8408
1158.965, 928.1552
1159.447, 927.4602
1159.930, 926.8992
1160.412, 926.5942
1160.894, 927.3976
1161.376, 931.1681
1161.858, 933.2547
1162.340, 931.5443
1162.822, 930.2977
1163.304, 931.7013
1163.786, 933.5958
1164.269, 933.8467
1164.751, 932.9822
1165.233, 932.8145
1165.715, 933.4463
1166.197, 934.3721
1166.679, 935.7210
1167.161, 937.0323
1167.643, 938.2740
1168.125, 939.2940
1168.608, 939.9118
1169.090, 940.4841
1169.572, 941.6055
1170.054, 943.1651
1170.536, 944.2307
1171.018, 944.7769
1171.500, 945.4753
1171.982, 946.3900
1172.465, 947.1525
1172.947, 947.6249
1173.429, 948.1211
1173.911, 948.8763
1174.393, 949.9423
1174.875, 951.7468
1175.357, 953.9135
1175.839, 954.8847
1176.322, 954.8958
1176.804, 954.6844
1177.286, 954.6139
1177.768, 956.1547
1178.250, 959.8920
1178.732, 962.7975
1179.214, 961.1720
1179.696, 958.2518
1180.178, 958.2783
1180.661, 959.9581
1181.143, 961.7048
1181.625, 963.2609
1182.107, 964.5097
1182.589, 965.4254
1183.071, 965.9504
1183.553, 965.8760
1184.035, 966.1380
1184.517, 967.5586
1185.000, 969.2559
1185.482, 970.9911
1185.964, 972.3647
1186.446, 972.4263
1186.928, 971.9659
1187.410, 973.0793
1187.892, 976.1679
1188.374, 978.2322
1188.857, 977.6199
1189.339, 977.3397
1189.821, 978.2143
1190.303, 979.3197
1190.785, 980.2690
1191.267, 981.1855
1191.749, 982.3631
1192.231, 983.6272
1192.714, 984.2755
1193.196, 984.1147
1193.678, 984.1045
1194.160, 984.3494
1194.642, 984.3187
1195.124, 983.4343
1195.606, 983.8425
1196.088, 987.2781
1196.570, 991.2356
1197.052, 991.9581
1197.535, 990.3428
1198.017, 991.1870
1198.499, 994.4059
1198.981, 996.1234
1199.463, 996.1581
1199.945, 996.3773
1200.427, 997.3301
1200.909, 998.8576
1201.392, 1000.934
1201.874, 1002.831
1202.356, 1003.364
1202.838, 1003.062
1203.320, 1002.352
1203.802, 1001.985
1204.284, 1004.404
1204.766, 1008.774
1205.249, 1011.619
1205.731, 1011.982
1206.213, 1011.804
1206.695, 1011.955
1207.177, 1012.748
1207.659, 1015.285
1208.141, 1017.682
1208.623, 1018.153
1209.105, 1017.573
1209.588, 1016.351
1210.070, 1015.285
1210.552, 1016.492
1211.034, 1020.739
1211.516, 1023.930
1211.998, 1024.911
1212.480, 1025.050
1212.962, 1023.389
1213.444, 1022.470
1213.927, 1024.430
1214.409, 1027.156
1214.891, 1028.349
1215.373, 1028.335
1215.855, 1028.523
1216.337, 1028.768
1216.819, 1029.958
1217.301, 1032.506
1217.784, 1034.388
1218.266, 1035.220
1218.748, 1034.967
1219.230, 1033.328
1219.712, 1032.017
1220.194, 1033.414
1220.676, 1036.659
1221.158, 1039.422
1221.641, 1041.547
1222.123, 1041.525
1222.605, 1039.887
1223.087, 1039.724
1223.569, 1041.641
1224.051, 1044.223
1224.533, 1046.732
1225.015, 1048.691
1225.497, 1049.453
1225.979, 1049.576
1226.462, 1049.280
1226.944, 1049.070
1227.426, 1049.627
1227.908, 1050.789
1228.390, 1052.393
1228.872, 1054.197
1229.354, 1055.072
1229.836, 1053.969
1230.319, 1053.855
1230.801, 1056.760
1231.283, 1059.525
1231.765, 1060.872
1232.247, 1061.497
1232.729, 1061.683
1233.211, 1061.677
1233.693, 1061.818
1234.176, 1062.119
1234.658, 1062.744
1235.140, 1063.554
1235.622, 1065.328
1236.104, 1068.662
1236.586, 1070.793
1237.068, 1070.650
1237.550, 1070.382
1238.032, 1071.554
1238.515, 1073.414
1238.997, 1074.910
1239.479, 1075.903
1239.961, 1075.392
1240.443, 1073.888
1240.925, 1073.791
1241.407, 1075.095
1241.889, 1076.817
1242.371, 1078.532
1242.854, 1079.515
1243.336, 1079.158
1243.818, 1078.958
1244.300, 1080.897
1244.782, 1083.071
1245.264, 1083.245
1245.746, 1082.887
1246.228, 1084.105
1246.711, 1086.118
1247.193, 1086.839
1247.675, 1086.094
1248.157, 1085.962
1248.639, 1087.424
1249.121, 1088.570
1249.603, 1087.955
1250.085, 1088.544
1250.568, 1092.546
1251.050, 1096.393
1251.532, 1097.665
1252.014, 1097.389
1252.496, 1097.093
1252.978, 1096.848
1253.460, 1097.611
1253.942, 1099.496
1254.424, 1101.327
1254.906, 1103.063
1255.389, 1103.195
1255.871, 1101.347
1256.353, 1100.314
1256.835, 1101.957
1257.317, 1104.320
1257.799, 1104.730
1258.281, 1104.363
1258.763, 1105.552
1259.246, 1107.388
1259.728, 1108.033
1260.210, 1108.000
1260.692, 1109.030
1261.174, 1111.126
1261.656, 1112.558
1262.138, 1112.612
1262.620, 1112.125
1263.103, 1110.496
1263.585, 1109.740
1264.067, 1111.474
1264.549, 1113.618
1265.031, 1114.504
1265.513, 1115.049
1265.995, 1116.748
1266.477, 1119.330
1266.959, 1121.449
1267.442, 1123.206
1267.924, 1123.902
1268.406, 1123.124
1268.888, 1123.379
1269.370, 1125.330
1269.852, 1126.645
1270.334, 1126.059
1270.816, 1125.409
1271.298, 1126.684
1271.781, 1129.122
1272.263, 1131.946
1272.745, 1134.365
1273.227, 1133.415
1273.709, 1130.785
1274.191, 1131.019
1274.673, 1133.929
1275.155, 1136.229
1275.638, 1136.859
1276.120, 1137.435
1276.602, 1138.552
1277.084, 1140.307
1277.566, 1144.237
1278.048, 1147.021
1278.530, 1145.414
1279.012, 1142.766
1279.495, 1142.331
1279.977, 1143.520
1280.459, 1144.429
1280.941, 1144.952
1281.423, 1146.769
1281.905, 1151.152
1282.387, 1152.275
1282.869, 1149.078
1283.351, 1146.723
1283.833, 1146.817
1284.316, 1147.208
1284.798, 1146.361
1285.280, 1145.464
1285.762, 1146.006
1286.244, 1148.567
##END=



