##NAMES=Pargasite
##RRUFFID=R060632
##IDEAL CHEMISTRY=NaCa_2_(Mg_4_Al)(Si_6_Al_2_)O_22_(OH)_2_
##LOCALITY=unknown
##OWNER=RRUFF
##SOURCE=Gemological Institute of America
##DESCRIPTION=Black cleavage fragment
##STATUS=The identification of this mineral is confirmed by single-crystal X-ray diffraction and chemical analysis.
##URL=rruff.info/R060632
##MEASURED CHEMISTRY=(Na_0.61_K_0.34_[box]_0.05_)(Ca_1.82_Na_0.18_)_&#931;=2_(Mg_3.12_Fe^2+^_0.88_)_&#931;=4_(Al_0.78_Ti_0.22_)(Si_6.00_Al_2.00_)_&#931;=8_O_22_((OH)_0.84_F_0.16_)_2_
106.576, 1059.907
107.058, 1114.327
107.540, 1172.554
108.022, 1226.766
108.505, 1271.865
108.987, 1282.768
109.469, 1330.694
109.951, 1431.380
110.433, 1569.492
110.915, 1708.695
111.397, 1847.196
111.879, 1984.660
112.362, 2123.500
112.844, 2275.615
113.326, 2415.262
113.808, 2524.115
114.290, 2609.673
114.772, 2719.169
115.254, 2868.631
115.736, 3045.485
116.218, 3239.390
116.701, 3454.909
117.183, 3680.921
117.665, 3912.969
118.147, 4149.724
118.629, 4396.137
119.111, 4670.813
119.593, 4953.750
120.075, 5210.729
120.558, 5432.354
121.040, 5621.963
121.522, 5783.513
122.004, 5919.474
122.486, 6020.137
122.968, 6078.289
123.450, 6095.063
123.932, 6073.989
124.414, 6007.476
124.897, 5906.763
125.379, 5783.098
125.861, 5627.887
126.343, 5468.104
126.825, 5335.633
127.307, 5229.522
127.789, 5138.342
128.271, 5053.525
128.753, 4976.902
129.236, 4914.516
129.718, 4866.228
130.200, 4834.075
130.682, 4824.640
131.164, 4838.887
131.646, 4869.016
132.128, 4907.833
132.610, 4955.025
133.093, 5011.215
133.575, 5075.654
134.057, 5148.225
134.539, 5233.786
135.021, 5332.672
135.503, 5444.107
135.985, 5564.647
136.467, 5694.957
136.949, 5836.880
137.432, 5990.552
137.914, 6156.446
138.396, 6337.320
138.878, 6534.073
139.360, 6743.990
139.842, 6960.258
140.324, 7187.744
140.806, 7407.998
141.288, 7602.004
141.771, 7755.765
142.253, 7937.580
142.735, 8189.275
143.217, 8500.179
143.699, 8664.267
144.181, 8640.059
144.663, 8514.401
145.145, 8359.830
145.628, 8166.537
146.110, 7961.148
146.592, 7743.833
147.074, 7506.110
147.556, 7294.114
148.038, 7113.024
148.520, 6952.941
149.002, 6802.245
149.484, 6648.978
149.967, 6513.819
150.449, 6403.285
150.931, 6323.304
151.413, 6253.731
151.895, 6186.437
152.377, 6129.618
152.859, 6102.077
153.342, 6116.550
153.824, 6150.971
154.306, 6197.575
154.788, 6256.300
155.270, 6326.848
155.752, 6401.486
156.234, 6486.505
156.716, 6604.762
157.198, 6763.079
157.680, 6953.935
158.163, 7171.570
158.645, 7423.720
159.127, 7694.069
159.609, 7975.588
160.091, 8269.594
160.573, 8589.703
161.055, 8952.920
161.538, 9336.243
162.020, 9714.385
162.502, 10130.550
162.984, 10496.340
163.466, 10783.060
163.948, 10989.160
164.430, 11097.980
164.912, 11094.270
165.394, 10988.980
165.876, 10795.400
166.359, 10444.970
166.841, 10058.480
167.323, 9716.013
167.805, 9429.802
168.287, 9152.550
168.769, 8841.999
169.251, 8522.701
169.733, 8236.632
170.216, 8022.504
170.698, 7842.624
171.180, 7657.135
171.662, 7450.354
172.144, 7267.426
172.626, 7156.108
173.108, 7100.870
173.590, 7051.374
174.072, 6975.522
174.555, 6889.220
175.037, 6809.021
175.519, 6731.052
176.001, 6672.359
176.483, 6663.013
176.965, 6696.107
177.447, 6733.714
177.929, 6744.387
178.412, 6741.167
178.894, 6748.213
179.376, 6770.677
179.858, 6807.093
180.340, 6862.018
180.822, 6934.424
181.304, 7005.683
181.786, 7059.392
182.268, 7099.383
182.751, 7135.454
183.233, 7164.912
183.715, 7194.675
184.197, 7242.133
184.679, 7308.825
185.161, 7376.692
185.643, 7435.032
186.125, 7481.176
186.607, 7507.100
187.090, 7504.995
187.572, 7479.916
188.054, 7443.656
188.536, 7394.580
189.018, 7343.510
189.500, 7308.365
189.982, 7287.943
190.464, 7261.834
190.947, 7223.041
191.429, 7171.543
191.911, 7106.803
192.393, 7026.296
192.875, 6940.083
193.357, 6856.232
193.839, 6775.548
194.321, 6711.449
194.803, 6680.740
195.286, 6680.972
195.768, 6660.847
196.250, 6614.417
196.732, 6553.053
197.214, 6492.483
197.696, 6431.273
198.178, 6383.116
198.661, 6359.683
199.143, 6361.687
199.625, 6361.101
200.107, 6353.908
200.589, 6344.585
201.071, 6345.242
201.553, 6357.297
202.035, 6373.624
202.517, 6389.107
202.999, 6403.021
203.482, 6422.041
203.964, 6446.945
204.446, 6477.189
204.928, 6511.612
205.410, 6550.578
205.892, 6592.036
206.374, 6628.449
206.857, 6654.031
207.339, 6707.892
207.821, 6805.216
208.303, 6936.238
208.785, 7042.234
209.267, 7115.728
209.749, 7180.505
210.231, 7252.728
210.713, 7330.103
211.195, 7426.403
211.678, 7547.154
212.160, 7691.640
212.642, 7839.557
213.124, 7991.069
213.606, 8148.888
214.088, 8312.723
214.570, 8482.647
215.052, 8663.094
215.535, 8854.661
216.017, 9058.325
216.499, 9280.076
216.981, 9522.714
217.463, 9781.376
217.945, 10052.490
218.427, 10328.490
218.909, 10621.830
219.391, 10931.430
219.874, 11258.200
220.356, 11604.960
220.838, 11972.900
221.320, 12355.970
221.802, 12742.120
222.284, 13129.940
222.766, 13522.750
223.248, 13923.560
223.731, 14341.900
224.213, 14725.560
224.695, 15075.480
225.177, 15393.920
225.659, 15694.920
226.141, 15996.380
226.623, 16243.350
227.105, 16417.340
227.587, 16511.631
228.070, 16569.779
228.552, 16605.320
229.034, 16594.189
229.516, 16495.910
229.998, 16291.630
230.480, 16031.790
230.962, 15729.220
231.444, 15383.150
231.926, 14998.560
232.409, 14561.820
232.891, 14098.700
233.373, 13645.630
233.855, 13205.070
234.337, 12774.580
234.819, 12345.110
235.301, 11894.830
235.783, 11507.730
236.266, 11207.430
236.748, 10958.860
237.230, 10697.130
237.712, 10411.650
238.194, 10123.720
238.676, 9840.006
239.158, 9550.737
239.640, 9291.564
240.122, 9074.011
240.605, 8881.690
241.087, 8678.033
241.569, 8437.200
242.051, 8220.233
242.533, 8055.553
243.015, 7960.046
243.497, 7868.941
243.980, 7783.104
244.462, 7701.168
244.944, 7619.851
245.426, 7537.183
245.908, 7457.596
246.390, 7383.821
246.872, 7322.137
247.354, 7250.334
247.836, 7162.748
248.318, 7067.269
248.801, 6983.335
249.283, 6913.076
249.765, 6850.813
250.247, 6795.770
250.729, 6754.376
251.211, 6704.717
251.693, 6643.571
252.176, 6576.206
252.658, 6517.007
253.140, 6473.164
253.622, 6426.152
254.104, 6356.346
254.586, 6281.536
255.068, 6251.771
255.550, 6211.083
256.032, 6160.042
256.514, 6067.655
256.997, 6028.658
257.479, 5968.256
257.961, 5906.984
258.443, 5863.723
258.925, 5764.441
259.407, 5723.959
259.889, 5718.190
260.371, 5686.150
260.854, 5611.488
261.336, 5542.115
261.818, 5500.829
262.300, 5496.878
262.782, 5491.614
263.264, 5485.238
263.746, 5476.731
264.228, 5462.934
264.711, 5440.728
265.193, 5420.011
265.675, 5407.511
266.157, 5408.293
266.639, 5394.605
267.121, 5357.567
267.603, 5313.033
268.085, 5298.874
268.567, 5326.591
269.050, 5352.734
269.532, 5354.745
270.014, 5327.258
270.496, 5305.850
270.978, 5292.489
271.460, 5284.499
271.942, 5275.724
272.424, 5264.690
272.906, 5258.708
273.389, 5254.290
273.871, 5240.430
274.353, 5257.948
274.835, 5267.850
275.317, 5270.544
275.799, 5244.443
276.281, 5255.525
276.763, 5251.706
277.246, 5247.275
277.728, 5263.590
278.210, 5241.677
278.692, 5257.663
279.174, 5255.750
279.656, 5279.205
280.138, 5298.880
280.620, 5323.935
281.103, 5347.681
281.585, 5370.191
282.067, 5387.770
282.549, 5411.717
283.031, 5433.113
283.513, 5455.776
283.995, 5476.594
284.477, 5509.966
284.959, 5563.020
285.441, 5631.276
285.924, 5671.050
286.406, 5677.828
286.888, 5671.268
287.370, 5670.995
287.852, 5677.535
288.334, 5701.807
288.816, 5764.579
289.298, 5851.894
289.781, 5899.582
290.263, 5902.868
290.745, 5892.123
291.227, 5902.716
291.709, 5931.960
292.191, 5961.459
292.673, 5986.511
293.155, 6006.545
293.638, 6017.345
294.120, 6017.881
294.602, 6018.550
295.084, 6026.031
295.566, 6021.476
296.048, 6056.069
296.530, 6081.161
297.012, 6097.259
297.494, 6077.430
297.977, 6103.996
298.459, 6111.968
298.941, 6119.177
299.423, 6152.271
299.905, 6137.667
300.387, 6170.350
300.869, 6184.159
301.351, 6193.592
301.833, 6197.144
302.316, 6201.726
302.798, 6205.240
303.280, 6210.187
303.762, 6221.886
304.244, 6247.622
304.726, 6274.450
305.208, 6283.184
305.690, 6276.814
306.173, 6276.193
306.655, 6305.162
307.137, 6345.291
307.619, 6371.326
308.101, 6366.372
308.583, 6359.663
309.065, 6377.651
309.547, 6415.406
310.030, 6452.151
310.512, 6477.025
310.994, 6494.952
311.476, 6509.083
311.958, 6514.474
312.440, 6526.548
312.922, 6560.808
313.404, 6610.088
313.886, 6654.338
314.369, 6680.588
314.851, 6700.804
315.333, 6722.817
315.815, 6748.841
316.297, 6775.190
316.779, 6801.277
317.261, 6826.489
317.743, 6850.010
318.225, 6859.092
318.708, 6875.698
319.190, 6916.962
319.672, 6998.091
320.154, 7062.432
320.636, 7078.383
321.118, 7071.201
321.600, 7079.104
322.082, 7130.462
322.565, 7181.285
323.047, 7216.345
323.529, 7233.595
324.011, 7239.847
324.493, 7224.653
324.975, 7202.665
325.457, 7190.560
325.939, 7204.353
326.422, 7213.732
326.904, 7209.035
327.386, 7186.888
327.868, 7172.838
328.350, 7181.214
328.832, 7189.745
329.314, 7179.065
329.796, 7130.082
330.278, 7086.187
330.760, 7053.913
331.243, 7033.158
331.725, 7016.523
332.207, 7011.096
332.689, 7002.916
333.171, 6981.916
333.653, 6944.121
334.135, 6900.389
334.617, 6846.170
335.100, 6786.076
335.582, 6750.679
336.064, 6755.516
336.546, 6757.031
337.028, 6722.863
337.510, 6638.407
337.992, 6578.184
338.474, 6555.055
338.957, 6554.222
339.439, 6534.946
339.921, 6492.597
340.403, 6449.629
340.885, 6419.014
341.367, 6401.162
341.849, 6383.329
342.331, 6367.248
342.813, 6346.814
343.296, 6307.500
343.778, 6248.884
344.260, 6192.486
344.742, 6148.230
345.224, 6115.018
345.706, 6090.621
346.188, 6077.123
346.670, 6063.754
347.152, 6054.376
347.635, 6044.028
348.117, 6032.765
348.599, 6017.839
349.081, 6007.640
349.563, 5995.547
350.045, 5983.377
350.527, 5972.802
351.009, 5968.987
351.491, 5969.398
351.974, 5968.783
352.456, 5967.198
352.938, 5961.735
353.420, 5961.279
353.902, 5958.816
354.384, 5956.271
354.866, 5956.520
355.349, 5951.621
355.831, 5951.552
356.313, 5952.498
356.795, 5950.868
357.277, 5947.429
357.759, 5944.114
358.241, 5946.323
358.723, 5963.894
359.205, 5983.994
359.688, 5995.919
360.170, 5995.255
360.652, 5995.107
361.134, 5998.795
361.616, 6007.283
362.098, 6022.219
362.580, 6050.917
363.062, 6080.382
363.544, 6103.674
364.027, 6118.483
364.509, 6137.132
364.991, 6167.810
365.473, 6201.732
365.955, 6229.165
366.437, 6246.188
366.919, 6259.478
367.401, 6268.332
367.884, 6272.675
368.366, 6280.928
368.848, 6301.059
369.330, 6320.371
369.812, 6330.331
370.294, 6318.612
370.776, 6315.361
371.258, 6322.503
371.741, 6339.749
372.223, 6367.891
372.705, 6418.733
373.187, 6464.016
373.669, 6487.037
374.151, 6476.808
374.633, 6476.971
375.115, 6494.777
375.597, 6518.536
376.079, 6520.514
376.562, 6493.494
377.044, 6470.499
377.526, 6468.122
378.008, 6486.939
378.490, 6500.292
378.972, 6509.037
379.454, 6510.612
379.936, 6502.477
380.419, 6508.833
380.901, 6511.672
381.383, 6511.182
381.865, 6497.395
382.347, 6500.779
382.829, 6497.281
383.311, 6493.501
383.793, 6499.301
384.276, 6487.448
384.758, 6492.157
385.240, 6476.358
385.722, 6444.042
386.204, 6412.839
386.686, 6383.602
387.168, 6361.539
387.650, 6356.597
388.132, 6357.463
388.615, 6349.424
389.097, 6329.178
389.579, 6302.175
390.061, 6267.724
390.543, 6229.575
391.025, 6195.427
391.507, 6173.819
391.989, 6153.756
392.471, 6128.590
392.954, 6097.532
393.436, 6063.974
393.918, 6034.397
394.400, 6001.438
394.882, 5957.156
395.364, 5877.564
395.846, 5809.772
396.328, 5771.938
396.810, 5762.046
397.293, 5748.544
397.775, 5721.731
398.257, 5692.893
398.739, 5668.314
399.221, 5652.489
399.703, 5635.875
400.185, 5616.238
400.668, 5595.702
401.150, 5581.083
401.632, 5583.074
402.114, 5576.420
402.596, 5548.200
403.078, 5488.525
403.560, 5446.339
404.042, 5423.781
404.524, 5416.019
405.007, 5419.881
405.489, 5440.102
405.971, 5453.686
406.453, 5455.531
406.935, 5445.523
407.417, 5417.416
407.899, 5366.556
408.381, 5320.024
408.863, 5309.479
409.346, 5331.183
409.828, 5338.054
410.310, 5315.448
410.792, 5283.076
411.274, 5282.473
411.756, 5310.338
412.238, 5338.247
412.720, 5344.066
413.203, 5338.451
413.685, 5345.030
414.167, 5368.817
414.649, 5390.332
415.131, 5386.370
415.613, 5366.202
416.095, 5349.114
416.577, 5343.559
417.060, 5344.276
417.542, 5346.647
418.024, 5350.629
418.506, 5359.572
418.988, 5387.145
419.470, 5414.737
419.952, 5424.426
420.434, 5396.059
420.916, 5368.063
421.398, 5349.975
421.881, 5341.489
422.363, 5340.769
422.845, 5361.728
423.327, 5379.158
423.809, 5381.699
424.291, 5373.214
424.773, 5368.486
425.255, 5362.844
425.738, 5356.340
426.220, 5346.389
426.702, 5340.890
427.184, 5333.606
427.666, 5327.206
428.148, 5317.000
428.630, 5313.212
429.112, 5321.417
429.595, 5326.362
430.077, 5311.342
430.559, 5270.404
431.041, 5243.598
431.523, 5239.827
432.005, 5248.936
432.487, 5245.257
432.969, 5228.198
433.451, 5206.881
433.934, 5186.171
434.416, 5165.526
434.898, 5142.894
435.380, 5118.493
435.862, 5090.697
436.344, 5060.524
436.826, 5025.969
437.308, 4980.334
437.790, 4910.031
438.273, 4834.320
438.755, 4776.839
439.237, 4736.389
439.719, 4706.083
440.201, 4689.558
440.683, 4677.137
441.165, 4657.902
441.647, 4625.437
442.129, 4593.232
442.612, 4567.918
443.094, 4548.185
443.576, 4531.045
444.058, 4532.800
444.540, 4522.149
445.022, 4476.089
445.504, 4381.587
445.987, 4314.168
446.469, 4305.157
446.951, 4317.325
447.433, 4315.946
447.915, 4292.733
448.397, 4266.492
448.879, 4234.799
449.361, 4200.348
449.843, 4181.324
450.326, 4186.459
450.808, 4192.122
451.290, 4183.272
451.772, 4154.409
452.254, 4140.564
452.736, 4147.945
453.218, 4161.544
453.700, 4155.474
454.182, 4128.804
454.665, 4102.990
455.147, 4086.555
455.629, 4076.885
456.111, 4068.558
456.593, 4061.836
457.075, 4049.952
457.557, 4020.964
458.039, 3982.431
458.522, 3953.649
459.004, 3938.752
459.486, 3933.216
459.968, 3937.416
460.450, 3947.796
460.932, 3954.469
461.414, 3946.270
461.896, 3936.569
462.379, 3939.370
462.861, 3957.467
463.343, 3967.228
463.825, 3949.097
464.307, 3921.480
464.789, 3902.815
465.271, 3912.201
465.753, 3914.739
466.235, 3895.755
466.717, 3860.688
467.200, 3837.791
467.682, 3842.078
468.164, 3846.579
468.646, 3839.918
469.128, 3815.909
469.610, 3796.259
470.092, 3776.837
470.574, 3765.340
471.057, 3752.979
471.539, 3751.396
472.021, 3747.197
472.503, 3740.522
472.985, 3723.957
473.467, 3720.161
473.949, 3711.249
474.431, 3702.127
474.914, 3697.313
475.396, 3692.583
475.878, 3690.831
476.360, 3697.716
476.842, 3706.693
477.324, 3711.566
477.806, 3712.051
478.288, 3707.052
478.770, 3689.942
479.253, 3671.010
479.735, 3658.943
480.217, 3654.114
480.699, 3658.381
481.181, 3681.240
481.663, 3709.564
482.145, 3731.527
482.627, 3743.035
483.109, 3749.250
483.592, 3751.130
484.074, 3748.651
484.556, 3741.941
485.038, 3716.054
485.520, 3699.580
486.002, 3705.322
486.484, 3713.083
486.966, 3727.356
487.448, 3740.048
487.931, 3751.247
488.413, 3756.467
488.895, 3769.404
489.377, 3779.249
489.859, 3788.966
490.341, 3802.989
490.823, 3809.081
491.306, 3823.036
491.788, 3833.851
492.270, 3846.104
492.752, 3855.244
493.234, 3865.345
493.716, 3878.562
494.198, 3890.053
494.680, 3897.253
495.162, 3909.569
495.645, 3934.885
496.127, 3978.845
496.609, 4025.826
497.091, 4060.637
497.573, 4085.177
498.055, 4106.865
498.537, 4126.967
499.019, 4147.414
499.501, 4170.832
499.984, 4198.260
500.466, 4222.983
500.948, 4234.338
501.430, 4245.302
501.912, 4269.242
502.394, 4336.956
502.876, 4384.286
503.358, 4385.863
503.841, 4356.341
504.323, 4359.849
504.805, 4415.286
505.287, 4477.402
505.769, 4529.611
506.251, 4572.188
506.733, 4596.280
507.215, 4594.549
507.698, 4588.699
508.180, 4606.710
508.662, 4648.744
509.144, 4694.418
509.626, 4742.818
510.108, 4788.150
510.590, 4813.478
511.072, 4820.530
511.554, 4822.616
512.036, 4821.986
512.519, 4824.040
513.001, 4839.968
513.483, 4872.593
513.965, 4904.271
514.447, 4927.075
514.929, 4939.913
515.411, 4941.346
515.893, 4912.847
516.375, 4890.837
516.858, 4894.667
517.340, 4918.023
517.822, 4935.964
518.304, 4942.855
518.786, 4943.494
519.268, 4938.257
519.750, 4924.639
520.232, 4915.338
520.715, 4915.281
521.197, 4915.193
521.679, 4902.702
522.161, 4869.996
522.643, 4851.279
523.125, 4855.086
523.607, 4874.260
524.089, 4887.069
524.571, 4889.141
525.054, 4897.923
525.536, 4905.078
526.018, 4910.689
526.500, 4910.145
526.982, 4917.550
527.464, 4921.769
527.946, 4925.859
528.429, 4932.630
528.911, 4942.500
529.393, 4942.783
529.875, 4947.318
530.357, 4956.084
530.839, 4963.824
531.321, 4970.592
531.803, 4973.476
532.286, 4981.376
532.768, 4987.265
533.250, 4993.072
533.732, 5001.676
534.214, 5005.126
534.696, 5013.686
535.178, 5020.207
535.660, 5027.660
536.142, 5033.092
536.625, 5039.148
537.107, 5047.228
537.589, 5054.186
538.071, 5058.359
538.553, 5060.684
539.035, 5066.851
539.517, 5072.085
539.999, 5076.438
540.481, 5077.265
540.964, 5082.645
541.446, 5086.199
541.928, 5089.679
542.410, 5095.699
542.892, 5097.039
543.374, 5103.018
543.856, 5106.807
544.338, 5099.587
544.820, 5096.364
545.303, 5092.170
545.785, 5087.058
546.267, 5078.278
546.749, 5074.234
547.231, 5068.293
547.713, 5062.273
548.195, 5058.897
548.677, 5050.650
549.159, 5047.232
549.642, 5041.885
550.124, 5037.422
550.606, 5030.654
551.088, 5021.433
551.570, 5003.081
552.052, 4987.996
552.534, 4972.112
553.016, 4955.484
553.499, 4935.860
553.981, 4920.103
554.463, 4902.796
554.945, 4885.427
555.427, 4869.358
555.909, 4855.072
556.391, 4843.595
556.873, 4833.268
557.356, 4821.527
557.838, 4810.421
558.320, 4803.778
558.802, 4787.931
559.284, 4779.205
559.766, 4768.749
560.248, 4753.079
560.730, 4735.601
561.213, 4724.284
561.695, 4711.477
562.177, 4697.250
562.659, 4677.365
563.141, 4664.787
563.623, 4649.282
564.105, 4633.652
564.587, 4622.104
565.069, 4603.042
565.552, 4591.428
566.034, 4576.841
566.516, 4563.616
566.998, 4547.439
567.480, 4532.101
567.962, 4516.313
568.444, 4506.436
568.926, 4495.125
569.408, 4482.455
569.891, 4464.357
570.373, 4453.269
570.855, 4439.372
571.337, 4425.360
571.819, 4415.257
572.301, 4397.952
572.783, 4387.782
573.265, 4374.768
573.747, 4363.056
574.230, 4348.520
574.712, 4334.858
575.194, 4324.020
575.676, 4308.471
576.158, 4287.245
576.640, 4278.666
577.122, 4249.904
577.604, 4221.295
578.086, 4199.951
578.569, 4185.246
579.051, 4163.196
579.533, 4131.575
580.015, 4101.707
580.497, 4084.305
580.979, 4077.213
581.461, 4065.541
581.943, 4046.900
582.426, 4028.721
582.908, 4023.338
583.390, 4024.510
583.872, 4018.337
584.354, 4000.856
584.836, 3973.140
585.318, 3924.803
585.800, 3865.111
586.282, 3821.931
586.765, 3818.237
587.247, 3823.486
587.729, 3825.102
588.211, 3821.937
588.693, 3816.414
589.175, 3811.486
589.657, 3801.804
590.140, 3781.208
590.622, 3741.394
591.104, 3717.905
591.586, 3717.701
592.068, 3727.419
592.550, 3724.425
593.032, 3708.845
593.514, 3693.128
593.996, 3679.145
594.479, 3669.242
594.961, 3670.007
595.443, 3680.125
595.925, 3691.516
596.407, 3699.874
596.889, 3706.368
597.371, 3713.752
597.853, 3722.761
598.335, 3725.274
598.818, 3705.687
599.300, 3684.447
599.782, 3678.893
600.264, 3716.121
600.746, 3736.868
601.228, 3721.408
601.710, 3693.528
602.192, 3697.819
602.674, 3750.953
603.157, 3796.396
603.639, 3818.847
604.121, 3822.052
604.603, 3816.608
605.085, 3800.698
605.567, 3799.634
606.049, 3842.027
606.531, 3911.136
607.013, 3961.879
607.496, 3992.021
607.978, 4009.079
608.460, 4005.122
608.942, 3997.347
609.424, 4010.078
609.906, 4063.235
610.388, 4112.144
610.870, 4124.283
611.353, 4121.146
611.835, 4139.857
612.317, 4223.390
612.799, 4288.482
613.281, 4310.056
613.763, 4295.622
614.245, 4298.252
614.727, 4320.024
615.209, 4354.285
615.692, 4403.785
616.174, 4467.452
616.656, 4514.148
617.138, 4542.344
617.620, 4561.515
618.102, 4567.660
618.584, 4572.320
619.067, 4611.438
619.549, 4703.292
620.031, 4798.127
620.513, 4847.748
620.995, 4870.587
621.477, 4897.449
621.959, 4934.374
622.441, 4983.149
622.923, 5048.497
623.406, 5127.477
623.888, 5207.280
624.370, 5291.757
624.852, 5370.887
625.334, 5437.894
625.816, 5490.810
626.298, 5558.690
626.780, 5644.657
627.263, 5737.983
627.745, 5831.864
628.227, 5925.907
628.709, 6007.611
629.191, 6071.354
629.673, 6140.256
630.155, 6251.353
630.637, 6389.220
631.119, 6516.508
631.602, 6617.541
632.084, 6708.961
632.566, 6791.914
633.048, 6873.209
633.530, 6973.201
634.012, 7113.251
634.494, 7259.122
634.976, 7401.728
635.458, 7538.542
635.941, 7665.759
636.423, 7770.080
636.905, 7884.101
637.387, 8030.828
637.869, 8217.204
638.351, 8384.407
638.833, 8527.696
639.315, 8661.572
639.797, 8805.423
640.280, 8954.412
640.762, 9092.416
641.244, 9209.235
641.726, 9329.750
642.208, 9488.102
642.690, 9669.515
643.172, 9849.917
643.654, 10027.180
644.137, 10193.440
644.619, 10342.050
645.101, 10475.270
645.583, 10614.180
646.065, 10767.300
646.547, 10921.000
647.029, 11067.140
647.511, 11206.740
647.994, 11350.150
648.476, 11499.710
648.958, 11645.410
649.440, 11776.910
649.922, 11895.420
650.404, 12003.040
650.886, 12095.970
651.368, 12189.400
651.851, 12300.260
652.333, 12422.140
652.815, 12546.660
653.297, 12686.090
653.779, 12803.750
654.261, 12862.400
654.743, 12883.330
655.225, 12912.130
655.707, 12966.930
656.190, 13025.680
656.672, 13082.100
657.154, 13136.980
657.636, 13200.470
658.118, 13280.420
658.600, 13353.740
659.082, 13405.440
659.564, 13436.670
660.046, 13484.080
660.529, 13549.520
661.011, 13615.200
661.493, 13666.190
661.975, 13705.380
662.457, 13735.850
662.939, 13755.750
663.421, 13780.440
663.903, 13841.560
664.385, 13908.430
664.868, 13941.520
665.350, 13902.190
665.832, 13859.190
666.314, 13851.840
666.796, 13849.970
667.278, 13779.420
667.760, 13585.720
668.242, 13420.280
668.724, 13333.960
669.207, 13305.540
669.689, 13236.850
670.171, 13126.650
670.653, 12988.820
671.135, 12815.490
671.617, 12623.240
672.099, 12455.650
672.581, 12312.730
673.064, 12160.230
673.546, 11946.870
674.028, 11728.350
674.510, 11566.880
674.992, 11494.030
675.474, 11402.580
675.956, 11241.250
676.438, 11054.230
676.920, 10888.370
677.403, 10749.200
677.885, 10622.550
678.367, 10511.900
678.849, 10409.600
679.331, 10299.520
679.813, 10178.640
680.295, 10079.460
680.778, 10013.000
681.260, 9969.618
681.742, 9937.801
682.224, 9914.618
682.706, 9890.603
683.188, 9852.876
683.670, 9816.929
684.152, 9799.115
684.634, 9797.801
685.117, 9792.380
685.599, 9767.940
686.081, 9744.111
686.563, 9729.721
687.045, 9723.951
687.527, 9684.350
688.009, 9677.995
688.491, 9663.573
688.973, 9641.512
689.456, 9588.936
689.938, 9575.764
690.420, 9546.802
690.902, 9517.191
691.384, 9442.202
691.866, 9402.446
692.348, 9354.122
692.830, 9297.725
693.312, 9208.982
693.795, 9161.998
694.277, 9098.286
694.759, 9042.839
695.241, 8852.196
695.723, 8693.784
696.205, 8471.089
696.687, 8233.042
697.169, 8113.473
697.652, 8013.229
698.134, 7908.311
698.616, 7798.957
699.098, 7671.810
699.580, 7567.621
700.062, 7454.245
700.544, 7340.450
701.026, 7239.491
701.508, 7123.477
701.991, 7020.615
702.473, 6937.952
702.955, 6860.614
703.437, 6776.572
703.919, 6696.217
704.401, 6628.001
704.883, 6577.485
705.365, 6530.417
705.847, 6479.543
706.330, 6435.647
706.812, 6411.228
707.294, 6411.313
707.776, 6407.269
708.258, 6392.275
708.740, 6379.711
709.222, 6403.319
709.705, 6452.378
710.187, 6471.547
710.669, 6423.557
711.151, 6367.861
711.633, 6367.618
712.115, 6407.473
712.597, 6450.064
713.079, 6476.238
713.561, 6507.432
714.044, 6552.795
714.526, 6611.799
715.008, 6674.430
715.490, 6747.373
715.972, 6813.459
716.454, 6864.670
716.936, 6902.530
717.418, 6939.604
717.901, 6975.929
718.383, 7013.724
718.865, 7048.733
719.347, 7088.142
719.829, 7151.638
720.311, 7239.684
720.793, 7330.552
721.275, 7426.857
721.757, 7507.682
722.240, 7550.595
722.722, 7530.333
723.204, 7528.069
723.686, 7567.961
724.168, 7621.265
724.650, 7662.655
725.132, 7683.878
725.614, 7720.391
726.096, 7749.774
726.579, 7797.215
727.061, 7840.272
727.543, 7879.177
728.025, 7901.525
728.507, 7945.257
728.989, 7980.418
729.471, 8015.228
729.953, 8061.976
730.435, 8094.678
730.918, 8135.571
731.400, 8174.682
731.882, 8197.524
732.364, 8207.431
732.846, 8217.534
733.328, 8229.115
733.810, 8237.061
734.292, 8232.265
734.775, 8223.171
735.257, 8262.948
735.739, 8351.674
736.221, 8429.040
736.703, 8439.576
737.185, 8424.436
737.667, 8452.270
738.149, 8521.231
738.631, 8594.031
739.114, 8659.157
739.596, 8713.549
740.078, 8753.092
740.560, 8774.175
741.042, 8800.103
741.524, 8837.245
742.006, 8874.371
742.489, 8904.624
742.971, 8927.293
743.453, 8949.002
743.935, 8969.691
744.417, 8990.092
744.899, 9007.602
745.381, 9025.114
745.863, 9052.732
746.345, 9095.307
746.828, 9132.995
747.310, 9151.254
747.792, 9155.783
748.274, 9152.656
748.756, 9128.168
749.238, 9117.572
749.720, 9146.390
750.202, 9179.770
750.684, 9167.702
751.167, 9101.403
751.649, 9025.698
752.131, 8938.660
752.613, 8862.572
753.095, 8837.352
753.577, 8812.126
754.059, 8786.896
754.541, 8761.673
755.023, 8736.448
755.506, 8711.223
755.988, 8693.932
756.470, 8676.141
756.952, 8646.181
757.434, 8614.968
757.916, 8588.210
758.398, 8562.872
758.880, 8526.869
759.362, 8481.559
759.845, 8421.204
760.327, 8339.932
760.809, 8242.630
761.291, 8142.462
761.773, 8039.391
762.255, 7945.563
762.737, 7870.194
763.219, 7805.638
763.702, 7754.171
764.184, 7713.188
764.666, 7651.834
765.148, 7521.130
765.630, 7398.400
766.112, 7334.616
766.594, 7338.027
767.076, 7304.281
767.558, 7218.645
768.041, 7126.763
768.523, 7058.267
769.005, 7010.933
769.487, 6969.978
769.969, 6934.891
770.451, 6900.731
770.933, 6866.838
771.416, 6829.259
771.898, 6779.425
772.380, 6712.702
772.862, 6654.378
773.344, 6619.764
773.826, 6594.206
774.308, 6564.783
774.790, 6525.389
775.272, 6496.718
775.755, 6480.180
776.237, 6472.714
776.719, 6475.686
777.201, 6487.127
777.683, 6488.925
778.165, 6477.002
778.647, 6462.519
779.129, 6460.294
779.612, 6461.720
780.094, 6452.630
780.576, 6416.531
781.058, 6392.094
781.540, 6401.474
782.022, 6425.371
782.504, 6437.853
782.986, 6432.217
783.468, 6431.774
783.951, 6441.820
784.433, 6453.653
784.915, 6446.784
785.397, 6425.296
785.879, 6419.433
786.361, 6444.806
786.843, 6474.707
787.325, 6486.507
787.807, 6482.397
788.290, 6466.409
788.772, 6415.881
789.254, 6381.431
789.736, 6389.737
790.218, 6420.280
790.700, 6430.074
791.182, 6409.617
791.664, 6397.167
792.146, 6405.563
792.629, 6422.720
793.111, 6419.034
793.593, 6397.455
794.075, 6374.302
794.557, 6358.091
795.039, 6341.573
795.521, 6315.792
796.003, 6284.144
796.485, 6255.837
796.968, 6227.119
797.450, 6210.724
797.932, 6221.138
798.414, 6246.330
798.896, 6234.367
799.378, 6174.293
799.860, 6127.762
800.343, 6128.506
800.825, 6151.623
801.307, 6130.128
801.789, 6072.771
802.271, 6020.216
802.753, 5997.865
803.235, 5986.885
803.717, 5980.164
804.199, 5974.875
804.682, 5958.107
805.164, 5913.865
805.646, 5872.240
806.128, 5841.522
806.610, 5820.537
807.092, 5805.598
807.574, 5798.906
808.056, 5778.500
808.539, 5715.432
809.021, 5637.991
809.503, 5613.183
809.985, 5630.937
810.467, 5635.806
810.949, 5573.357
811.431, 5509.354
811.913, 5488.943
812.395, 5512.205
812.878, 5521.099
813.360, 5510.484
813.842, 5489.717
814.324, 5459.145
814.806, 5421.001
815.288, 5390.018
815.770, 5366.106
816.252, 5347.497
816.734, 5332.525
817.217, 5322.216
817.699, 5326.732
818.181, 5342.261
818.663, 5336.056
819.145, 5276.083
819.627, 5207.025
820.109, 5143.539
820.591, 5086.004
821.073, 5058.869
821.556, 5071.382
822.038, 5088.176
822.520, 5092.313
823.002, 5084.791
823.484, 5065.816
823.966, 5036.607
824.448, 5008.674
824.930, 4994.346
825.413, 4981.688
825.895, 4960.314
826.377, 4929.686
826.859, 4897.847
827.341, 4853.650
827.823, 4823.384
828.305, 4824.958
828.787, 4856.387
829.269, 4855.473
829.752, 4818.685
830.234, 4777.913
830.716, 4763.697
831.198, 4756.503
831.680, 4705.676
832.162, 4617.773
832.644, 4552.397
833.127, 4567.777
833.609, 4595.108
834.091, 4597.392
834.573, 4570.365
835.055, 4530.656
835.537, 4467.094
836.019, 4411.536
836.501, 4381.044
836.983, 4371.931
837.466, 4367.829
837.948, 4367.836
838.430, 4352.626
838.912, 4282.583
839.394, 4209.858
839.876, 4197.209
840.358, 4240.113
840.840, 4265.655
841.322, 4228.621
841.805, 4192.811
842.287, 4186.375
842.769, 4206.022
843.251, 4208.547
843.733, 4192.663
844.215, 4167.226
844.697, 4131.456
845.179, 4091.530
845.661, 4060.865
846.144, 4038.788
846.626, 4020.172
847.108, 4000.448
847.590, 3984.998
848.072, 3983.562
848.554, 3993.435
849.036, 3981.198
849.518, 3930.488
850.000, 3888.509
850.483, 3876.402
850.965, 3885.376
851.447, 3879.249
851.929, 3859.550
852.411, 3841.018
852.893, 3835.528
853.375, 3832.362
853.857, 3815.345
854.340, 3790.506
854.822, 3780.731
855.304, 3820.955
855.786, 3844.404
856.268, 3826.419
856.750, 3778.646
857.232, 3745.985
857.714, 3728.557
858.196, 3726.400
858.679, 3747.369
859.161, 3775.258
859.643, 3781.743
860.125, 3771.538
860.607, 3758.103
861.089, 3744.139
861.571, 3731.901
862.054, 3719.255
862.536, 3709.323
863.018, 3710.530
863.500, 3716.378
863.982, 3726.275
864.464, 3735.192
864.946, 3743.177
865.428, 3747.444
865.910, 3756.511
866.393, 3763.656
866.875, 3770.719
867.357, 3780.464
867.839, 3787.058
868.321, 3791.118
868.803, 3799.043
869.285, 3817.440
869.767, 3828.023
870.250, 3826.190
870.732, 3819.101
871.214, 3813.552
871.696, 3810.255
872.178, 3802.053
872.660, 3831.838
873.142, 3852.405
873.624, 3864.244
874.106, 3841.221
874.589, 3862.604
875.071, 3913.855
875.553, 3955.218
876.035, 3948.565
876.517, 3934.629
876.999, 3957.720
877.481, 4027.827
877.963, 4070.579
878.445, 4075.293
878.928, 4068.775
879.410, 4085.719
879.892, 4112.911
880.374, 4118.464
880.856, 4089.586
881.338, 4078.634
881.820, 4131.229
882.302, 4199.177
882.784, 4242.696
883.267, 4256.230
883.749, 4260.792
884.231, 4251.636
884.713, 4246.696
885.195, 4263.184
885.677, 4295.782
886.159, 4329.298
886.641, 4362.731
887.123, 4393.699
887.606, 4418.239
888.088, 4441.446
888.570, 4468.566
889.052, 4500.835
889.534, 4527.736
890.016, 4544.841
890.498, 4564.090
890.981, 4592.886
891.463, 4629.516
891.945, 4663.153
892.427, 4693.809
892.909, 4718.234
893.391, 4725.240
893.873, 4731.851
894.355, 4752.154
894.837, 4785.237
895.320, 4823.350
895.802, 4881.365
896.284, 4920.063
896.766, 4918.069
897.248, 4893.054
897.730, 4917.004
898.212, 4987.565
898.694, 5041.828
899.177, 5039.799
899.659, 5024.683
900.141, 5051.965
900.623, 5102.823
901.105, 5136.175
901.587, 5115.128
902.069, 5105.911
902.551, 5124.208
903.033, 5158.338
903.516, 5189.444
903.998, 5217.161
904.480, 5246.156
904.962, 5276.522
905.444, 5310.041
905.926, 5355.641
906.408, 5404.417
906.890, 5441.287
907.372, 5462.291
907.855, 5472.925
908.337, 5467.263
908.819, 5456.885
909.301, 5450.171
909.783, 5445.921
910.265, 5453.338
910.747, 5474.475
911.229, 5498.167
911.711, 5514.699
912.194, 5525.843
912.676, 5534.040
913.158, 5539.396
913.640, 5544.161
914.122, 5546.164
914.604, 5550.704
915.086, 5564.149
915.568, 5587.549
916.050, 5591.789
916.533, 5573.530
917.015, 5552.659
917.497, 5538.593
917.979, 5531.615
918.461, 5534.771
918.943, 5546.395
919.425, 5557.448
919.907, 5566.535
920.390, 5571.013
920.872, 5563.771
921.354, 5550.435
921.836, 5554.731
922.318, 5583.746
922.800, 5601.242
923.282, 5593.310
923.765, 5571.950
924.247, 5555.301
924.729, 5543.417
925.211, 5537.156
925.693, 5545.597
926.175, 5547.462
926.657, 5526.095
927.139, 5495.359
927.621, 5478.986
928.104, 5488.318
928.586, 5474.056
929.068, 5426.203
929.550, 5370.550
930.032, 5337.480
930.514, 5320.938
930.996, 5311.108
931.478, 5310.046
931.960, 5290.871
932.443, 5216.438
932.925, 5134.246
933.407, 5085.311
933.889, 5075.528
934.371, 5058.616
934.853, 5033.054
935.335, 5005.200
935.817, 4978.948
936.299, 4953.493
936.782, 4924.434
937.264, 4892.979
937.746, 4867.243
938.228, 4861.616
938.710, 4853.628
939.192, 4826.339
939.674, 4785.117
940.156, 4756.621
940.638, 4741.448
941.121, 4738.898
941.603, 4756.663
942.085, 4776.188
942.567, 4752.083
943.049, 4700.134
943.531, 4662.250
944.013, 4661.263
944.495, 4667.858
944.978, 4675.975
945.460, 4682.099
945.942, 4680.706
946.424, 4668.413
946.906, 4663.353
947.388, 4669.888
947.870, 4674.139
948.352, 4679.000
948.834, 4687.522
949.317, 4695.157
949.799, 4701.950
950.281, 4705.381
950.763, 4713.152
951.245, 4719.586
951.727, 4713.593
952.209, 4741.397
952.692, 4760.996
953.174, 4772.832
953.656, 4753.656
954.138, 4774.526
954.620, 4779.346
955.102, 4783.512
955.584, 4810.018
956.066, 4795.352
956.548, 4821.504
957.031, 4831.362
957.513, 4837.443
957.995, 4838.836
958.477, 4858.051
958.959, 4872.938
959.441, 4883.731
959.923, 4878.169
960.405, 4893.726
960.888, 4900.822
961.370, 4907.569
961.852, 4926.099
962.334, 4930.771
962.816, 4949.717
963.298, 4961.001
963.780, 4968.650
964.262, 4974.480
964.744, 4978.238
965.227, 4987.609
965.709, 5003.362
966.191, 5017.815
966.673, 5024.666
967.155, 5026.859
967.637, 5022.821
968.119, 5013.280
968.601, 5018.941
969.083, 5058.647
969.566, 5093.023
970.048, 5109.339
970.530, 5110.392
971.012, 5103.582
971.494, 5089.770
971.976, 5076.636
972.458, 5076.665
972.940, 5091.937
973.422, 5103.507
973.905, 5111.576
974.387, 5105.656
974.869, 5117.799
975.351, 5122.706
975.833, 5127.314
976.315, 5142.000
976.797, 5144.833
977.279, 5122.903
977.761, 5111.873
978.244, 5116.734
978.726, 5125.991
979.208, 5140.108
979.690, 5149.315
980.172, 5139.336
980.654, 5106.963
981.136, 5104.258
981.619, 5137.673
982.101, 5179.206
982.583, 5222.324
983.065, 5259.480
983.547, 5264.554
984.029, 5247.263
984.511, 5241.573
984.993, 5276.829
985.475, 5311.165
985.958, 5327.745
986.440, 5334.241
986.922, 5340.779
987.404, 5346.327
987.886, 5360.854
988.368, 5387.164
988.850, 5418.223
989.332, 5443.236
989.815, 5468.935
990.297, 5507.563
990.779, 5566.280
991.261, 5613.848
991.743, 5634.417
992.225, 5651.842
992.707, 5676.838
993.189, 5709.217
993.671, 5758.536
994.154, 5823.474
994.636, 5876.405
995.118, 5879.795
995.600, 5881.383
996.082, 5928.864
996.564, 6009.234
997.046, 6075.708
997.528, 6112.884
998.010, 6157.221
998.493, 6215.902
998.975, 6281.018
999.457, 6340.348
999.939, 6394.707
1000.421, 6444.444
1000.903, 6486.142
1001.385, 6541.452
1001.867, 6636.821
1002.349, 6742.347
1002.832, 6835.887
1003.314, 6916.636
1003.796, 6979.257
1004.278, 7019.109
1004.760, 7059.621
1005.242, 7112.868
1005.724, 7177.907
1006.206, 7254.979
1006.689, 7342.593
1007.171, 7431.819
1007.653, 7527.775
1008.135, 7615.636
1008.617, 7691.020
1009.099, 7758.548
1009.581, 7826.114
1010.063, 7893.378
1010.545, 7955.849
1011.028, 8012.619
1011.510, 8063.062
1011.992, 8110.332
1012.474, 8150.224
1012.956, 8174.049
1013.438, 8169.986
1013.920, 8193.460
1014.402, 8262.068
1014.885, 8325.607
1015.367, 8346.856
1015.849, 8339.354
1016.331, 8360.939
1016.813, 8404.490
1017.295, 8431.816
1017.777, 8407.068
1018.259, 8377.545
1018.741, 8367.781
1019.224, 8369.380
1019.706, 8365.210
1020.188, 8356.592
1020.670, 8332.477
1021.152, 8287.060
1021.634, 8241.682
1022.116, 8231.601
1022.598, 8233.984
1023.081, 8211.575
1023.563, 8152.553
1024.045, 8103.928
1024.527, 8088.525
1025.009, 8070.746
1025.491, 8033.424
1025.973, 7978.590
1026.455, 7913.166
1026.938, 7840.682
1027.420, 7784.647
1027.902, 7777.996
1028.384, 7772.725
1028.866, 7734.420
1029.348, 7673.995
1029.830, 7614.132
1030.312, 7559.969
1030.794, 7497.633
1031.276, 7424.437
1031.759, 7349.533
1032.241, 7278.650
1032.723, 7215.750
1033.205, 7176.464
1033.687, 7163.684
1034.169, 7137.389
1034.651, 7072.517
1035.133, 6997.549
1035.616, 6920.573
1036.098, 6844.669
1036.580, 6796.968
1037.062, 6776.564
1037.544, 6748.145
1038.026, 6696.216
1038.508, 6631.375
1038.990, 6553.829
1039.473, 6473.321
1039.955, 6407.688
1040.437, 6370.688
1040.919, 6327.075
1041.401, 6277.064
1041.883, 6218.673
1042.365, 6135.809
1042.847, 6045.890
1043.329, 6006.959
1043.812, 6017.921
1044.294, 6015.659
1044.776, 5951.336
1045.258, 5885.122
1045.740, 5842.195
1046.222, 5816.818
1046.704, 5793.411
1047.186, 5772.048
1047.668, 5733.866
1048.151, 5665.128
1048.633, 5599.936
1049.115, 5581.856
1049.597, 5582.625
1050.079, 5565.217
1050.561, 5510.553
1051.043, 5471.394
1051.525, 5456.112
1052.008, 5438.705
1052.490, 5393.858
1052.972, 5333.989
1053.454, 5280.533
1053.936, 5238.439
1054.418, 5242.380
1054.900, 5235.143
1055.382, 5217.338
1055.865, 5157.246
1056.347, 5151.740
1056.829, 5124.381
1057.311, 5096.120
1057.793, 5098.296
1058.275, 5044.391
1058.757, 5043.101
1059.239, 5039.179
1059.721, 5025.775
1060.203, 4981.802
1060.686, 4900.643
1061.168, 4835.859
1061.650, 4787.433
1062.132, 4760.779
1062.614, 4766.315
1063.096, 4788.036
1063.578, 4793.933
1064.060, 4784.519
1064.543, 4759.834
1065.025, 4704.751
1065.507, 4656.590
1065.989, 4633.869
1066.471, 4616.064
1066.953, 4579.565
1067.435, 4524.749
1067.917, 4501.729
1068.400, 4457.956
1068.882, 4455.419
1069.364, 4442.880
1069.846, 4420.888
1070.328, 4361.101
1070.810, 4350.111
1071.292, 4319.571
1071.774, 4288.224
1072.256, 4284.108
1072.739, 4229.766
1073.221, 4225.218
1073.703, 4200.810
1074.185, 4171.800
1074.667, 4163.471
1075.149, 4146.214
1075.631, 4125.694
1076.113, 4101.339
1076.596, 4076.916
1077.078, 4055.604
1077.560, 4035.966
1078.042, 4003.668
1078.524, 3961.905
1079.006, 3928.610
1079.488, 3920.714
1079.970, 3914.838
1080.453, 3893.926
1080.935, 3868.956
1081.417, 3825.674
1081.899, 3824.623
1082.381, 3813.326
1082.863, 3792.322
1083.345, 3732.564
1083.827, 3722.849
1084.309, 3693.084
1084.792, 3673.194
1085.274, 3677.031
1085.756, 3670.641
1086.238, 3634.819
1086.720, 3611.735
1087.202, 3615.466
1087.684, 3631.246
1088.166, 3634.237
1088.648, 3626.336
1089.131, 3611.426
1089.613, 3589.034
1090.095, 3566.188
1090.577, 3540.395
1091.059, 3521.094
1091.541, 3519.887
1092.023, 3487.501
1092.505, 3497.922
1092.988, 3497.924
1093.470, 3488.123
1093.952, 3439.035
1094.434, 3440.678
1094.916, 3426.678
1095.398, 3395.043
1095.880, 3404.836
1096.362, 3404.571
1096.844, 3394.793
1097.327, 3346.963
1097.809, 3348.260
1098.291, 3329.878
1098.773, 3321.239
1099.255, 3293.625
1099.737, 3309.049
1100.219, 3314.028
1100.701, 3309.118
1101.183, 3279.057
1101.666, 3257.536
1102.148, 3209.510
1102.630, 3197.838
1103.112, 3209.926
1103.594, 3206.160
1104.076, 3174.084
1104.558, 3150.651
1105.040, 3151.552
1105.523, 3146.522
1106.005, 3135.926
1106.487, 3102.995
1106.969, 3098.907
1107.451, 3083.259
1107.933, 3067.139
1108.415, 3067.107
1108.897, 3037.428
1109.380, 3037.115
1109.862, 3022.945
1110.344, 3005.862
1110.826, 3002.229
1111.308, 2997.117
1111.790, 2990.253
1112.272, 2983.208
1112.754, 2979.500
1113.236, 2974.773
1113.719, 2961.647
1114.201, 2942.394
1114.683, 2926.825
1115.165, 2921.060
1115.647, 2910.465
1116.129, 2890.940
1116.611, 2869.738
1117.093, 2855.451
1117.575, 2847.409
1118.058, 2848.185
1118.540, 2858.765
1119.022, 2857.993
1119.504, 2818.399
1119.986, 2789.382
1120.468, 2795.126
1120.950, 2820.390
1121.432, 2814.651
1121.915, 2783.426
1122.397, 2756.105
1122.879, 2741.824
1123.361, 2732.626
1123.843, 2708.865
1124.325, 2701.128
1124.807, 2690.780
1125.289, 2694.153
1125.771, 2694.194
1126.254, 2691.076
1126.736, 2675.376
1127.218, 2675.934
1127.700, 2669.977
1128.182, 2663.752
1128.664, 2666.599
1129.146, 2652.730
1129.628, 2655.432
1130.110, 2651.520
1130.593, 2646.065
1131.075, 2648.676
1131.557, 2657.786
1132.039, 2662.552
1132.521, 2639.580
1133.003, 2594.996
1133.485, 2571.143
1133.967, 2586.415
1134.450, 2604.315
1134.932, 2620.779
1135.414, 2633.375
1135.896, 2637.776
1136.378, 2615.974
1136.860, 2633.601
1137.342, 2641.657
1137.824, 2640.657
1138.307, 2603.466
1138.789, 2613.005
1139.271, 2603.820
1139.753, 2593.867
1140.235, 2609.983
1140.717, 2578.062
1141.199, 2593.764
1141.681, 2590.456
1142.163, 2595.849
1142.646, 2578.501
1143.128, 2576.659
1143.610, 2555.125
1144.092, 2515.736
1144.574, 2509.375
1145.056, 2533.930
1145.538, 2561.354
1146.020, 2585.682
1146.502, 2597.426
1146.985, 2583.859
1147.467, 2556.890
1147.949, 2532.628
1148.431, 2508.438
1148.913, 2506.896
1149.395, 2530.054
1149.877, 2556.119
1150.359, 2567.751
1150.842, 2574.125
1151.324, 2590.112
1151.806, 2608.362
1152.288, 2597.524
1152.770, 2542.065
1153.252, 2509.755
1153.734, 2513.552
1154.216, 2526.933
1154.698, 2517.567
1155.181, 2501.261
1155.663, 2498.921
1156.145, 2512.229
1156.627, 2531.140
1157.109, 2563.898
1157.591, 2578.563
1158.073, 2562.691
1158.555, 2531.671
1159.037, 2503.835
1159.520, 2482.370
1160.002, 2475.681
1160.484, 2489.265
1160.966, 2497.678
1161.448, 2492.078
1161.930, 2487.502
1162.412, 2490.319
1162.894, 2499.259
1163.377, 2516.535
1163.859, 2536.543
1164.341, 2542.757
1164.823, 2523.208
1165.305, 2502.142
1165.787, 2482.724
1166.269, 2467.804
1166.751, 2459.973
1167.234, 2458.569
1167.716, 2461.586
1168.198, 2467.980
1168.680, 2472.137
1169.162, 2472.278
1169.644, 2468.313
1170.126, 2454.954
1170.608, 2441.421
1171.090, 2439.582
1171.573, 2448.203
1172.055, 2446.381
1172.537, 2433.896
1173.019, 2426.351
1173.501, 2438.284
1173.983, 2453.329
1174.465, 2469.517
1174.947, 2479.818
1175.430, 2462.859
1175.912, 2418.674
1176.394, 2411.585
1176.876, 2452.873
1177.358, 2489.822
1177.840, 2472.905
1178.322, 2443.278
1178.804, 2427.884
1179.286, 2399.470
1179.769, 2432.872
1180.251, 2451.271
1180.733, 2455.469
1181.215, 2402.941
1181.697, 2423.664
1182.179, 2415.031
1182.661, 2405.195
1183.143, 2436.228
1183.625, 2391.950
1184.108, 2422.333
1184.590, 2422.914
1185.072, 2437.136
1185.554, 2421.820
1186.036, 2415.627
1186.518, 2438.981
1187.000, 2445.975
1187.482, 2427.259
1187.965, 2442.346
1188.447, 2397.036
1188.929, 2404.727
1189.411, 2408.767
1189.893, 2400.220
1190.375, 2397.900
1190.857, 2427.753
1191.339, 2467.166
1191.822, 2474.717
1192.304, 2424.315
1192.786, 2395.912
1193.268, 2392.371
1193.750, 2397.402
1194.232, 2401.472
1194.714, 2405.762
1195.196, 2410.272
1195.678, 2416.389
1196.161, 2428.433
1196.643, 2455.616
1197.125, 2466.999
1197.607, 2457.175
1198.089, 2445.687
1198.571, 2454.072
1199.053, 2469.903
1199.535, 2476.429
1200.017, 2474.333
1200.500, 2468.878
1200.982, 2455.692
1201.464, 2451.455
1201.946, 2459.267
1202.428, 2473.225
1202.910, 2498.670
1203.392, 2518.791
1203.874, 2497.708
1204.357, 2438.633
1204.839, 2404.013
1205.321, 2411.875
1205.803, 2424.918
1206.285, 2438.406
1206.767, 2447.289
1207.249, 2433.985
1207.731, 2415.845
1208.214, 2428.568
1208.696, 2478.217
1209.178, 2497.614
1209.660, 2464.535
1210.142, 2434.480
1210.624, 2421.807
1211.106, 2423.938
1211.588, 2449.055
1212.070, 2481.253
1212.552, 2489.002
1213.035, 2460.195
1213.517, 2452.018
1213.999, 2479.785
1214.481, 2504.170
1214.963, 2507.297
1215.445, 2501.851
1215.927, 2485.198
1216.409, 2512.381
1216.892, 2528.927
1217.374, 2535.400
1217.856, 2501.646
1218.338, 2519.837
1218.820, 2522.010
1219.302, 2504.606
1219.784, 2522.795
1220.266, 2532.345
1220.749, 2533.716
1221.231, 2502.428
1221.713, 2513.316
1222.195, 2507.302
1222.677, 2500.595
1223.159, 2517.419
1223.641, 2490.882
1224.123, 2505.025
1224.605, 2498.208
1225.088, 2494.543
1225.570, 2498.441
1226.052, 2523.795
1226.534, 2534.198
1227.016, 2523.756
1227.498, 2514.718
1227.980, 2501.231
1228.462, 2522.158
1228.944, 2534.731
1229.427, 2539.404
1229.909, 2512.491
1230.391, 2526.359
1230.873, 2523.884
1231.355, 2520.739
1231.837, 2540.346
1232.319, 2518.027
1232.801, 2537.274
1233.284, 2536.893
1233.766, 2531.607
1234.248, 2530.346
1234.730, 2535.246
1235.212, 2534.242
1235.694, 2524.038
1236.176, 2516.217
1236.658, 2523.319
1237.141, 2538.795
1237.623, 2543.842
1238.105, 2546.451
1238.587, 2531.706
1239.069, 2561.464
1239.551, 2580.420
1240.033, 2589.153
1240.515, 2557.048
1240.997, 2577.677
1241.479, 2577.173
1241.962, 2575.813
1242.444, 2603.864
1242.926, 2577.699
1243.408, 2605.283
1243.890, 2611.413
1244.372, 2627.361
1244.854, 2622.046
1245.336, 2623.299
1245.819, 2627.834
1246.301, 2616.091
1246.783, 2635.314
1247.265, 2647.021
1247.747, 2651.614
1248.229, 2627.790
1248.711, 2640.662
1249.193, 2638.827
1249.676, 2636.394
1250.158, 2654.429
1250.640, 2634.739
1251.122, 2652.450
1251.604, 2655.231
1252.086, 2664.846
1252.568, 2659.663
1253.050, 2659.051
1253.532, 2673.240
1254.015, 2679.238
1254.497, 2664.830
1254.979, 2655.122
1255.461, 2632.366
1255.943, 2641.280
1256.425, 2679.850
1256.907, 2711.142
1257.389, 2723.499
1257.871, 2728.629
1258.354, 2737.357
1258.836, 2737.949
1259.318, 2720.009
1259.800, 2688.082
1260.282, 2660.776
1260.764, 2640.484
1261.246, 2649.047
1261.728, 2707.650
1262.211, 2746.874
1262.693, 2705.648
1263.175, 2659.022
1263.657, 2650.880
1264.139, 2672.201
1264.621, 2688.154
1265.103, 2698.505
1265.585, 2703.314
1266.068, 2703.235
1266.550, 2695.295
1267.032, 2658.391
1267.514, 2640.717
1267.996, 2680.870
1268.478, 2751.077
1268.960, 2754.623
1269.442, 2714.133
1269.924, 2689.523
1270.407, 2703.490
1270.889, 2723.985
1271.371, 2751.169
1271.853, 2772.590
1272.335, 2782.355
1272.817, 2779.933
1273.299, 2753.145
1273.781, 2715.455
1274.264, 2694.704
1274.746, 2705.045
1275.228, 2718.976
1275.710, 2736.644
1276.192, 2754.255
1276.674, 2775.638
1277.156, 2789.441
1277.638, 2763.745
1278.120, 2723.108
1278.603, 2713.651
1279.085, 2758.333
1279.567, 2770.708
1280.049, 2742.710
1280.531, 2687.207
1281.013, 2760.699
1281.495, 2802.879
1281.977, 2815.429
1282.459, 2709.604
1282.942, 2756.640
1283.424, 2742.413
1283.906, 2725.675
1284.388, 2794.220
1284.870, 2705.613
1285.352, 2772.806
1285.834, 2766.416
1286.316, 2777.363
1286.799, 2783.532
1287.281, 2773.775
1287.763, 2747.888
1288.245, 2759.943
1288.727, 2804.491
1289.209, 2836.415
1289.691, 2820.918
1290.173, 2802.228
1290.656, 2791.158
##END=



