##NAMES=Parisite-(Ce)
##RRUFFID=R050308
##IDEAL CHEMISTRY=CaCe_2_(CO_3_)_3_F_2_
##LOCALITY=Muzo, Bogota, Colombia
##OWNER=RRUFF
##SOURCE=Eugene Schlepp
##DESCRIPTION=Green hexagonal prism
##STATUS=The identification of this mineral has been confirmed by X-ray diffraction and chemical analysis
##URL=rruff.info/R050308
##MEASURED CHEMISTRY=Ca_1.00_(Ce_1.03_La_0.49_Nd_0.42_Y_0.06_)_Σ=2_(CO_3_)_3_F_2.00_ ; = lighter phase. Ca_1.00_(Ce_0.96_La_0.51_Nd_0.48_Y_0.05_)_Σ=2_(CO_3_)_3_(F_1.82_(OH)_0.18_)_Σ=2_ = darker phase
140.0195, 4193.516
140.5016, 4168.233
140.9837, 4155.092
141.4658, 4159.716
141.9480, 4167.434
142.4301, 4168.617
142.9122, 4161.954
143.3943, 4150.792
143.8764, 4129.350
144.3585, 4098.414
144.8407, 4090.784
145.3228, 4118.404
145.8049, 4160.368
146.2870, 4196.800
146.7691, 4216.551
147.2512, 4244.647
147.7334, 4284.280
148.2155, 4335.534
148.6976, 4399.997
149.1797, 4481.837
149.6618, 4575.973
150.1439, 4674.782
150.6261, 4780.661
151.1082, 4887.928
151.5903, 4993.748
152.0724, 5094.695
152.5545, 5201.209
153.0366, 5319.592
153.5188, 5443.340
154.0009, 5559.167
154.4830, 5674.635
154.9651, 5775.964
155.4472, 5857.715
155.9293, 5911.566
156.4115, 5956.786
156.8936, 5993.275
157.3757, 6023.200
157.8578, 6054.658
158.3399, 6095.252
158.8221, 6135.025
159.3042, 6167.869
159.7863, 6185.852
160.2684, 6202.985
160.7505, 6219.672
161.2326, 6237.259
161.7148, 6265.127
162.1969, 6311.910
162.6790, 6369.322
163.1611, 6428.701
163.6432, 6498.047
164.1253, 6560.620
164.6075, 6609.383
165.0896, 6644.150
165.5717, 6663.579
166.0538, 6667.154
166.5359, 6654.738
167.0180, 6626.474
167.5002, 6593.195
167.9823, 6537.344
168.4644, 6441.038
168.9465, 6299.780
169.4286, 6140.241
169.9107, 5973.608
170.3929, 5803.389
170.8750, 5632.538
171.3571, 5460.152
171.8392, 5290.992
172.3213, 5131.943
172.8034, 4987.607
173.2856, 4846.489
173.7677, 4697.237
174.2498, 4541.701
174.7319, 4389.047
175.2140, 4246.157
175.6961, 4109.121
176.1783, 3970.000
176.6604, 3823.117
177.1425, 3684.344
177.6246, 3575.694
178.1067, 3495.663
178.5888, 3427.272
179.0710, 3362.717
179.5531, 3301.927
180.0352, 3245.724
180.5173, 3194.359
180.9994, 3148.242
181.4815, 3108.855
181.9637, 3075.871
182.4458, 3049.928
182.9279, 3035.063
183.4100, 3028.477
183.8921, 3019.001
184.3742, 3000.738
184.8564, 2978.699
185.3385, 2964.976
185.8206, 2959.708
186.3027, 2959.641
186.7848, 2962.552
187.2669, 2968.230
187.7491, 2975.177
188.2312, 2983.893
188.7133, 2993.483
189.1954, 2999.275
189.6775, 3000.084
190.1596, 3002.288
190.6418, 3017.345
191.1239, 3044.755
191.6060, 3066.971
192.0881, 3072.843
192.5702, 3064.898
193.0524, 3064.833
193.5345, 3072.706
194.0166, 3088.197
194.4987, 3115.503
194.9808, 3155.850
195.4629, 3189.618
195.9451, 3204.320
196.4272, 3200.574
196.9093, 3201.284
197.3914, 3209.867
197.8735, 3218.667
198.3556, 3210.523
198.8378, 3182.889
199.3199, 3154.815
199.8020, 3137.708
200.2841, 3132.607
200.7662, 3124.698
201.2483, 3111.826
201.7305, 3096.890
202.2126, 3086.961
202.6947, 3082.518
203.1768, 3081.298
203.6589, 3082.354
204.1410, 3085.856
204.6232, 3090.335
205.1053, 3095.596
205.5874, 3101.782
206.0695, 3110.806
206.5516, 3125.092
207.0337, 3135.855
207.5159, 3133.469
207.9980, 3112.774
208.4801, 3105.212
208.9622, 3120.983
209.4443, 3152.703
209.9264, 3161.671
210.4086, 3139.771
210.8907, 3111.329
211.3728, 3096.069
211.8549, 3098.384
212.3370, 3097.850
212.8191, 3088.566
213.3013, 3072.816
213.7834, 3070.518
214.2655, 3086.451
214.7476, 3108.233
215.2297, 3125.248
215.7118, 3136.276
216.1940, 3145.884
216.6761, 3152.315
217.1582, 3156.190
217.6403, 3172.534
218.1224, 3205.726
218.6045, 3245.246
219.0867, 3280.445
219.5688, 3307.124
220.0509, 3339.229
220.5330, 3381.469
221.0151, 3434.782
221.4972, 3478.147
221.9794, 3505.571
222.4615, 3530.152
222.9436, 3566.180
223.4257, 3616.352
223.9078, 3673.068
224.3899, 3732.637
224.8721, 3795.079
225.3542, 3871.623
225.8363, 3970.974
226.3184, 4076.782
226.8005, 4169.915
227.2827, 4239.850
227.7648, 4315.738
228.2469, 4402.599
228.7290, 4498.918
229.2111, 4615.569
229.6932, 4757.963
230.1754, 4914.873
230.6575, 5075.198
231.1396, 5242.050
231.6217, 5404.479
232.1038, 5554.933
232.5859, 5686.766
233.0681, 5843.667
233.5502, 6035.110
234.0323, 6243.977
234.5144, 6447.526
234.9965, 6635.736
235.4786, 6833.428
235.9608, 7051.049
236.4429, 7290.532
236.9250, 7527.979
237.4071, 7761.822
237.8892, 7992.946
238.3713, 8221.950
238.8535, 8445.081
239.3356, 8672.414
239.8177, 8907.846
240.2998, 9154.585
240.7819, 9398.637
241.2640, 9640.575
241.7462, 9883.396
242.2283, 10135.41
242.7104, 10404.96
243.1925, 10669.98
243.6746, 10922.87
244.1567, 11161.95
244.6389, 11397.98
245.1210, 11630.42
245.6031, 11859.56
246.0852, 12083.47
246.5673, 12298.85
247.0494, 12514.92
247.5316, 12740.39
248.0137, 12989.56
248.4958, 13199.50
248.9779, 13360.04
249.4600, 13485.87
249.9421, 13598.78
250.4243, 13695.49
250.9064, 13786.70
251.3885, 13879.33
251.8706, 13982.13
252.3527, 14055.67
252.8348, 14087.60
253.3170, 14097.92
253.7991, 14127.26
254.2812, 14191.37
254.7633, 14243.69
255.2454, 14263.97
255.7275, 14242.25
256.2097, 14223.87
256.6918, 14206.92
257.1739, 14194.79
257.6560, 14193.73
258.1381, 14204.72
258.6202, 14224.96
259.1024, 14256.55
259.5845, 14304.33
260.0666, 14340.33
260.5487, 14356.32
261.0308, 14366.75
261.5129, 14398.40
261.9951, 14452.64
262.4772, 14524.64
262.9593, 14622.34
263.4414, 14762.07
263.9235, 14849.97
264.4056, 14872.13
264.8878, 14856.19
265.3699, 14854.85
265.8520, 14879.99
266.3341, 14885.62
266.8162, 14849.30
267.2983, 14764.46
267.7805, 14683.68
268.2626, 14613.76
268.7447, 14540.96
269.2268, 14442.64
269.7089, 14317.83
270.1910, 14171.52
270.6732, 13999.44
271.1553, 13799.54
271.6374, 13599.78
272.1195, 13398.96
272.6016, 13199.58
273.0837, 13017.83
273.5659, 12858.77
274.0480, 12687.71
274.5301, 12488.39
275.0122, 12260.96
275.4943, 12023.82
275.9764, 11777.46
276.4586, 11520.50
276.9407, 11251.68
277.4228, 10975.43
277.9049, 10679.08
278.3870, 10348.64
278.8691, 9986.787
279.3513, 9655.395
279.8334, 9356.305
280.3155, 9082.958
280.7976, 8831.241
281.2798, 8604.093
281.7619, 8380.512
282.2440, 8152.182
282.7261, 7920.464
283.2082, 7693.492
283.6903, 7469.600
284.1725, 7256.586
284.6546, 7063.550
285.1367, 6891.868
285.6188, 6734.178
286.1009, 6586.425
286.5830, 6450.632
287.0652, 6337.668
287.5473, 6250.166
288.0294, 6175.857
288.5115, 6099.785
288.9936, 6023.408
289.4757, 5961.916
289.9579, 5925.627
290.4400, 5906.196
290.9221, 5874.486
291.4042, 5828.705
291.8863, 5793.037
292.3684, 5797.126
292.8506, 5834.172
293.3327, 5874.827
293.8148, 5912.734
294.2969, 5947.149
294.7790, 5974.982
295.2611, 5996.338
295.7433, 6019.330
296.2254, 6055.804
296.7075, 6100.567
297.1896, 6137.622
297.6717, 6161.653
298.1538, 6177.248
298.6360, 6196.741
299.1181, 6218.589
299.6002, 6222.553
300.0823, 6181.499
300.5644, 6112.859
301.0465, 6050.709
301.5287, 6012.085
302.0108, 5973.424
302.4929, 5906.946
302.9750, 5815.377
303.4571, 5718.180
303.9392, 5624.108
304.4214, 5532.995
304.9035, 5442.335
305.3856, 5353.083
305.8677, 5265.013
306.3498, 5176.042
306.8319, 5088.675
307.3141, 5009.869
307.7962, 4955.044
308.2783, 4906.714
308.7604, 4844.667
309.2425, 4758.928
309.7246, 4674.915
310.2068, 4606.795
310.6889, 4552.629
311.1710, 4506.435
311.6531, 4473.029
312.1352, 4441.710
312.6173, 4404.117
313.0995, 4357.081
313.5816, 4310.400
314.0637, 4264.690
314.5458, 4222.555
315.0279, 4188.448
315.5100, 4166.083
315.9922, 4150.685
316.4743, 4141.187
316.9564, 4139.083
317.4385, 4136.123
317.9206, 4127.088
318.4027, 4116.131
318.8849, 4109.060
319.3670, 4104.062
319.8491, 4106.173
320.3312, 4121.857
320.8133, 4155.644
321.2954, 4177.964
321.7776, 4171.215
322.2597, 4154.932
322.7418, 4149.936
323.2239, 4174.249
323.7060, 4195.110
324.1881, 4203.731
324.6703, 4198.867
325.1524, 4194.268
325.6345, 4189.079
326.1166, 4185.498
326.5987, 4185.217
327.0808, 4186.696
327.5630, 4193.380
328.0451, 4209.244
328.5272, 4233.545
329.0093, 4250.184
329.4914, 4256.904
329.9735, 4257.703
330.4557, 4254.228
330.9378, 4240.343
331.4199, 4233.213
331.9020, 4237.287
332.3841, 4249.629
332.8662, 4255.389
333.3484, 4250.649
333.8305, 4245.181
334.3126, 4243.520
334.7947, 4244.772
335.2768, 4253.508
335.7589, 4273.625
336.2411, 4299.308
336.7232, 4313.881
337.2053, 4311.523
337.6874, 4314.798
338.1695, 4334.702
338.6516, 4372.124
339.1338, 4418.864
339.6159, 4477.942
340.0980, 4540.690
340.5801, 4586.591
341.0622, 4613.340
341.5443, 4650.106
342.0265, 4711.377
342.5086, 4794.730
342.9907, 4884.052
343.4728, 4979.024
343.9549, 5078.292
344.4370, 5178.677
344.9192, 5279.944
345.4013, 5385.283
345.8834, 5492.818
346.3655, 5604.683
346.8476, 5726.362
347.3297, 5857.825
347.8119, 5986.128
348.2940, 6103.039
348.7761, 6206.827
349.2582, 6288.637
349.7403, 6339.697
350.2225, 6376.453
350.7046, 6426.367
351.1867, 6487.075
351.6688, 6536.829
352.1509, 6558.429
352.6331, 6559.636
353.1152, 6553.150
353.5973, 6545.557
354.0794, 6523.812
354.5615, 6474.785
355.0436, 6401.704
355.5258, 6314.395
356.0079, 6205.371
356.4900, 6091.621
356.9721, 5990.843
357.4542, 5911.463
357.9363, 5825.698
358.4185, 5717.992
358.9006, 5593.358
359.3827, 5460.473
359.8648, 5314.187
360.3469, 5167.280
360.8290, 5026.791
361.3112, 4893.508
361.7933, 4761.630
362.2754, 4619.685
362.7575, 4480.653
363.2396, 4358.138
363.7217, 4276.244
364.2039, 4191.816
364.6860, 4088.878
365.1681, 3966.498
365.6502, 3857.137
366.1323, 3771.819
366.6144, 3695.332
367.0966, 3616.865
367.5787, 3522.058
368.0608, 3443.669
368.5429, 3391.928
369.0250, 3360.641
369.5071, 3318.795
369.9893, 3256.574
370.4714, 3195.436
370.9535, 3145.058
371.4356, 3106.251
371.9177, 3077.939
372.3998, 3062.666
372.8820, 3056.562
373.3641, 3052.125
373.8462, 3050.615
374.3283, 3047.521
374.8104, 3040.516
375.2925, 3029.088
375.7747, 3018.301
376.2568, 3006.898
376.7389, 2998.427
377.2210, 2998.879
377.7031, 3008.784
378.1852, 3019.676
378.6674, 3027.178
379.1495, 3033.675
379.6316, 3050.139
380.1137, 3076.790
380.5958, 3110.179
381.0779, 3149.670
381.5601, 3194.247
382.0422, 3235.876
382.5243, 3273.499
383.0064, 3307.646
383.4885, 3337.481
383.9706, 3363.945
384.4528, 3391.888
384.9349, 3423.060
385.4170, 3458.502
385.8991, 3502.111
386.3812, 3557.152
386.8633, 3612.999
387.3455, 3657.002
387.8276, 3694.019
388.3097, 3735.984
388.7918, 3802.010
389.2739, 3866.511
389.7560, 3905.343
390.2382, 3914.700
390.7203, 3922.155
391.2024, 3945.893
391.6845, 3974.713
392.1666, 3995.989
392.6487, 3997.209
393.1309, 3997.723
393.6130, 4010.607
394.0951, 4033.793
394.5772, 4041.815
395.0593, 4018.793
395.5414, 3984.534
396.0236, 3951.585
396.5057, 3925.496
396.9878, 3896.088
397.4699, 3865.559
397.9520, 3831.531
398.4341, 3787.052
398.9163, 3727.921
399.3984, 3662.639
399.8805, 3592.408
400.3626, 3512.314
400.8447, 3442.199
401.3268, 3385.033
401.8090, 3335.740
402.2911, 3288.922
402.7732, 3251.638
403.2553, 3198.606
403.7374, 3115.899
404.2195, 3006.261
404.7017, 2920.571
405.1838, 2861.821
405.6659, 2818.405
406.1480, 2786.043
406.6301, 2764.972
407.1122, 2729.728
407.5944, 2671.350
408.0765, 2600.487
408.5586, 2541.945
409.0407, 2495.346
409.5228, 2456.162
410.0049, 2425.729
410.4871, 2400.893
410.9692, 2372.125
411.4513, 2337.945
411.9334, 2301.545
412.4155, 2264.477
412.8976, 2227.205
413.3798, 2192.500
413.8619, 2162.035
414.3440, 2133.814
414.8261, 2103.557
415.3082, 2071.151
415.7903, 2044.485
416.2725, 2038.026
416.7546, 2036.431
417.2367, 2021.732
417.7188, 1975.169
418.2009, 1929.232
418.6830, 1899.390
419.1652, 1882.620
419.6473, 1869.019
420.1294, 1857.641
420.6115, 1846.622
421.0937, 1834.841
421.5758, 1822.492
422.0579, 1809.143
422.5400, 1791.914
423.0221, 1774.204
423.5042, 1761.283
423.9864, 1756.697
424.4685, 1753.293
424.9506, 1750.823
425.4327, 1749.823
425.9148, 1742.952
426.3969, 1728.147
426.8791, 1709.844
427.3612, 1691.001
427.8433, 1669.881
428.3254, 1654.210
428.8075, 1646.822
429.2896, 1645.019
429.7718, 1640.263
430.2539, 1632.535
430.7360, 1622.088
431.2181, 1607.547
431.7002, 1589.381
432.1823, 1574.484
432.6645, 1563.389
433.1466, 1554.886
433.6287, 1548.039
434.1108, 1542.651
434.5929, 1537.756
435.0750, 1533.568
435.5572, 1529.415
436.0393, 1524.348
436.5214, 1518.350
437.0035, 1511.054
437.4856, 1500.828
437.9677, 1489.588
438.4499, 1480.170
438.9320, 1473.966
439.4141, 1468.602
439.8962, 1462.112
440.3783, 1455.149
440.8604, 1449.209
441.3426, 1444.748
441.8247, 1441.736
442.3068, 1441.483
442.7889, 1445.605
443.2710, 1445.281
443.7531, 1432.206
444.2353, 1415.818
444.7174, 1406.326
445.1995, 1416.830
445.6816, 1421.670
446.1637, 1411.779
446.6458, 1389.378
447.1280, 1378.163
447.6101, 1387.262
448.0922, 1397.488
448.5743, 1397.850
449.0564, 1384.010
449.5385, 1371.168
450.0207, 1357.987
450.5028, 1347.563
450.9849, 1348.747
451.4670, 1364.825
451.9491, 1375.523
452.4312, 1369.443
452.9134, 1349.769
453.3955, 1343.436
453.8776, 1352.124
454.3597, 1362.226
454.8418, 1359.171
455.3239, 1345.760
455.8061, 1333.142
456.2882, 1322.293
456.7703, 1315.552
457.2524, 1320.329
457.7345, 1333.509
458.2166, 1342.440
458.6988, 1334.679
459.1809, 1321.114
459.6630, 1313.574
460.1451, 1313.676
460.6272, 1316.243
461.1093, 1321.305
461.5915, 1325.906
462.0736, 1326.235
462.5557, 1315.614
463.0378, 1305.833
463.5199, 1302.409
464.0020, 1304.465
464.4842, 1304.862
464.9663, 1298.085
465.4484, 1292.282
465.9305, 1292.390
466.4126, 1307.165
466.8947, 1312.400
467.3769, 1301.364
467.8590, 1283.751
468.3411, 1276.337
468.8232, 1286.586
469.3053, 1291.924
469.7874, 1283.948
470.2696, 1263.783
470.7517, 1252.969
471.2338, 1253.264
471.7159, 1257.520
472.1980, 1260.597
472.6801, 1262.491
473.1623, 1262.604
473.6444, 1260.416
474.1265, 1257.290
474.6086, 1254.956
475.0907, 1253.528
475.5728, 1253.735
476.0550, 1259.688
476.5371, 1266.230
477.0192, 1262.617
477.5013, 1248.343
477.9834, 1235.390
478.4655, 1234.131
478.9477, 1239.399
479.4298, 1244.711
479.9119, 1250.842
480.3940, 1253.223
480.8761, 1246.789
481.3582, 1234.341
481.8404, 1223.994
482.3225, 1216.378
482.8046, 1213.136
483.2867, 1216.504
483.7688, 1229.894
484.2509, 1238.650
484.7331, 1237.154
485.2152, 1232.715
485.6973, 1232.566
486.1794, 1242.556
486.6615, 1246.641
487.1436, 1241.046
487.6258, 1227.786
488.1079, 1214.793
488.5900, 1199.744
489.0721, 1191.706
489.5542, 1200.817
490.0363, 1227.377
490.5185, 1237.693
491.0006, 1228.050
491.4827, 1211.401
491.9648, 1203.980
492.4470, 1204.421
492.9291, 1205.708
493.4112, 1206.553
493.8933, 1205.999
494.3754, 1200.578
494.8575, 1191.285
495.3397, 1184.690
495.8218, 1188.958
496.3039, 1196.256
496.7860, 1196.296
497.2681, 1184.638
497.7502, 1177.339
498.2324, 1188.726
498.7145, 1207.942
499.1966, 1220.446
499.6787, 1219.034
500.1608, 1213.074
500.6429, 1201.930
501.1251, 1186.437
501.6072, 1178.114
502.0893, 1186.034
502.5714, 1193.838
503.0535, 1193.275
503.5356, 1178.832
504.0178, 1169.140
504.4999, 1164.735
504.9820, 1164.722
505.4641, 1169.136
505.9462, 1179.407
506.4283, 1186.305
506.9105, 1185.516
507.3926, 1179.663
507.8747, 1180.727
508.3568, 1189.178
508.8389, 1195.865
509.3210, 1192.833
509.8032, 1182.845
510.2853, 1172.394
510.7674, 1161.396
511.2495, 1153.804
511.7316, 1156.107
512.2137, 1164.710
512.6959, 1172.235
513.1780, 1175.805
513.6601, 1177.166
514.1422, 1176.755
514.6243, 1174.818
515.1064, 1172.900
515.5886, 1170.804
516.0707, 1169.468
516.5528, 1169.740
517.0349, 1173.250
517.5170, 1175.171
517.9991, 1172.744
518.4813, 1169.370
518.9634, 1169.983
519.4455, 1180.455
519.9276, 1184.373
520.4097, 1175.001
520.8918, 1155.569
521.3740, 1147.551
521.8561, 1153.675
522.3382, 1162.172
522.8203, 1165.136
523.3024, 1162.952
523.7845, 1163.319
524.2667, 1167.370
524.7488, 1171.244
525.2309, 1169.745
525.7130, 1164.019
526.1951, 1157.913
526.6772, 1151.014
527.1594, 1145.987
527.6415, 1147.753
528.1236, 1154.832
528.6057, 1160.774
529.0878, 1161.327
529.5699, 1159.657
530.0521, 1157.739
530.5342, 1155.553
531.0163, 1154.332
531.4984, 1154.986
531.9805, 1156.568
532.4626, 1158.072
532.9448, 1158.529
533.4269, 1159.969
533.9090, 1163.679
534.3911, 1168.652
534.8732, 1170.646
535.3553, 1168.323
535.8375, 1165.560
536.3196, 1164.321
536.8017, 1164.735
537.2838, 1162.782
537.7659, 1157.425
538.2480, 1153.069
538.7302, 1156.125
539.2123, 1165.330
539.6944, 1171.290
540.1765, 1170.648
540.6586, 1168.320
541.1407, 1172.594
541.6229, 1181.506
542.1050, 1188.054
542.5871, 1185.255
543.0692, 1180.526
543.5513, 1182.175
544.0334, 1190.524
544.5156, 1195.285
544.9977, 1185.994
545.4798, 1174.377
545.9619, 1170.089
546.4440, 1182.299
546.9261, 1190.929
547.4083, 1189.785
547.8904, 1184.054
548.3725, 1183.258
548.8546, 1190.834
549.3367, 1197.670
549.8188, 1201.323
550.3010, 1202.099
550.7831, 1204.025
551.2652, 1207.862
551.7473, 1210.305
552.2294, 1206.115
552.7115, 1196.634
553.1937, 1197.429
553.6758, 1211.558
554.1579, 1228.376
554.6400, 1234.823
555.1221, 1233.279
555.6042, 1230.287
556.0864, 1225.991
556.5685, 1223.466
557.0506, 1226.790
557.5327, 1234.724
558.0148, 1242.643
558.4969, 1249.011
558.9791, 1254.152
559.4612, 1257.983
559.9433, 1260.244
560.4254, 1262.486
560.9075, 1265.098
561.3896, 1267.738
561.8718, 1270.003
562.3539, 1270.215
562.8360, 1273.265
563.3181, 1281.633
563.8002, 1292.010
564.2823, 1295.730
564.7645, 1291.286
565.2466, 1286.593
565.7287, 1282.882
566.2108, 1281.331
566.6929, 1290.174
567.1750, 1309.754
567.6572, 1330.367
568.1393, 1343.886
568.6214, 1352.331
569.1035, 1359.144
569.5856, 1364.925
570.0677, 1369.181
570.5499, 1369.501
571.0320, 1368.498
571.5141, 1370.301
571.9962, 1376.495
572.4783, 1385.696
572.9604, 1399.715
573.4426, 1417.081
573.9247, 1430.765
574.4068, 1437.927
574.8889, 1442.496
575.3710, 1444.604
575.8531, 1442.513
576.3353, 1447.209
576.8174, 1460.702
577.2995, 1477.937
577.7816, 1495.435
578.2637, 1513.449
578.7458, 1527.210
579.2280, 1534.392
579.7101, 1540.030
580.1922, 1554.598
580.6743, 1576.504
581.1564, 1596.760
581.6385, 1607.070
582.1207, 1615.618
582.6028, 1635.270
583.0849, 1664.359
583.5670, 1691.146
584.0491, 1711.053
584.5313, 1724.333
585.0134, 1729.005
585.4955, 1720.317
585.9776, 1717.738
586.4597, 1730.661
586.9418, 1750.424
587.4240, 1767.078
587.9061, 1777.859
588.3882, 1789.375
588.8703, 1802.166
589.3524, 1816.186
589.8345, 1832.753
590.3167, 1853.974
590.7988, 1869.511
591.2809, 1872.045
591.7630, 1864.683
592.2451, 1863.606
592.7272, 1869.017
593.2094, 1875.751
593.6915, 1879.754
594.1736, 1881.975
594.6557, 1883.854
595.1378, 1885.220
595.6199, 1887.831
596.1021, 1895.728
596.5842, 1904.976
597.0663, 1909.983
597.5485, 1902.225
598.0306, 1896.897
598.5127, 1901.827
598.9948, 1914.007
599.4769, 1920.200
599.9590, 1915.929
600.4412, 1910.140
600.9233, 1905.037
601.4054, 1900.461
601.8875, 1899.395
602.3696, 1903.405
602.8517, 1907.096
603.3339, 1904.243
603.8160, 1895.588
604.2981, 1892.616
604.7802, 1898.244
605.2623, 1904.035
605.7444, 1900.059
606.2266, 1887.476
606.7087, 1869.488
607.1908, 1842.219
607.6729, 1814.971
608.1550, 1795.778
608.6371, 1782.772
609.1193, 1769.222
609.6014, 1751.784
610.0835, 1733.833
610.5656, 1718.588
611.0477, 1707.322
611.5298, 1689.390
612.0120, 1658.348
612.4941, 1626.891
612.9762, 1605.178
613.4583, 1598.444
613.9404, 1581.236
614.4225, 1548.550
614.9047, 1512.379
615.3868, 1490.388
615.8689, 1481.489
616.3510, 1473.977
616.8331, 1465.165
617.3152, 1455.042
617.7974, 1444.139
618.2795, 1432.057
618.7616, 1416.765
619.2437, 1391.399
619.7258, 1366.770
620.2079, 1351.893
620.6901, 1347.246
621.1722, 1343.066
621.6543, 1332.036
622.1364, 1323.110
622.6185, 1324.188
623.1006, 1348.808
623.5828, 1352.861
624.0649, 1324.349
624.5470, 1286.276
625.0291, 1266.847
625.5112, 1269.346
625.9933, 1273.581
626.4755, 1277.326
626.9576, 1278.944
627.4397, 1274.713
627.9218, 1264.951
628.4039, 1252.105
628.8860, 1233.406
629.3682, 1214.343
629.8503, 1202.515
630.3324, 1197.469
630.8145, 1196.074
631.2966, 1199.114
631.7787, 1203.357
632.2609, 1207.057
632.7430, 1210.591
633.2251, 1211.143
633.7072, 1203.901
634.1893, 1196.071
634.6714, 1194.155
635.1536, 1203.172
635.6357, 1206.591
636.1178, 1201.233
636.5999, 1191.823
637.0820, 1188.766
637.5641, 1192.551
638.0463, 1189.717
638.5284, 1170.912
639.0105, 1147.137
639.4926, 1143.409
639.9747, 1156.419
640.4568, 1167.035
640.9390, 1159.090
641.4211, 1146.451
641.9032, 1142.744
642.3853, 1148.925
642.8674, 1154.689
643.3495, 1155.911
643.8317, 1155.279
644.3138, 1154.657
644.7959, 1154.607
645.2780, 1153.925
645.7601, 1153.351
646.2422, 1151.517
646.7244, 1145.210
647.2065, 1132.400
647.6886, 1126.705
648.1707, 1132.726
648.6528, 1143.974
649.1349, 1147.316
649.6171, 1143.648
650.0992, 1139.462
650.5813, 1135.372
651.0634, 1133.915
651.5455, 1140.164
652.0276, 1152.774
652.5098, 1164.230
652.9919, 1171.303
653.4740, 1175.387
653.9561, 1175.455
654.4382, 1169.714
654.9203, 1170.682
655.4025, 1185.747
655.8846, 1203.197
656.3667, 1215.300
656.8488, 1220.796
657.3309, 1223.736
657.8130, 1222.045
658.2952, 1221.891
658.7773, 1234.328
659.2594, 1258.249
659.7415, 1278.567
660.2236, 1289.361
660.7057, 1298.167
661.1879, 1315.948
661.6700, 1340.509
662.1521, 1365.566
662.6342, 1391.107
663.1163, 1413.548
663.5984, 1431.844
664.0806, 1445.584
664.5627, 1452.180
665.0448, 1447.543
665.5269, 1438.509
666.0090, 1428.651
666.4911, 1418.878
666.9733, 1400.449
667.4554, 1367.928
667.9375, 1337.529
668.4196, 1326.616
668.9017, 1334.231
669.3839, 1329.710
669.8660, 1308.388
670.3481, 1284.066
670.8302, 1271.793
671.3123, 1268.759
671.7944, 1269.478
672.2766, 1275.301
672.7587, 1279.484
673.2408, 1275.035
673.7229, 1266.102
674.2050, 1260.717
674.6871, 1265.677
675.1693, 1269.459
675.6514, 1265.672
676.1335, 1257.139
676.6156, 1259.501
677.0977, 1276.344
677.5798, 1295.991
678.0620, 1314.381
678.5441, 1331.443
679.0262, 1342.902
679.5083, 1348.334
679.9904, 1356.748
680.4725, 1376.024
680.9547, 1402.917
681.4368, 1432.956
681.9189, 1465.646
682.4010, 1498.826
682.8831, 1536.408
683.3652, 1570.821
683.8474, 1594.715
684.3295, 1614.772
684.8116, 1610.965
685.2937, 1571.660
685.7758, 1510.712
686.2579, 1442.079
686.7401, 1356.485
687.2222, 1290.284
687.7043, 1254.970
688.1864, 1238.710
688.6685, 1211.124
689.1506, 1173.388
689.6328, 1144.665
690.1149, 1137.999
690.5970, 1142.166
691.0791, 1142.545
691.5612, 1139.200
692.0433, 1132.586
692.5255, 1114.944
693.0076, 1100.401
693.4897, 1101.685
693.9718, 1121.685
694.4539, 1131.690
694.9360, 1119.672
695.4182, 1104.270
695.9003, 1094.841
696.3824, 1092.555
696.8645, 1091.984
697.3466, 1093.141
697.8287, 1095.976
698.3109, 1103.221
698.7930, 1113.019
699.2751, 1113.917
699.7572, 1101.819
700.2393, 1088.274
700.7214, 1086.025
701.2036, 1090.470
701.6857, 1093.867
702.1678, 1088.979
702.6499, 1087.810
703.1320, 1099.478
703.6141, 1118.066
704.0963, 1128.467
704.5784, 1124.732
705.0605, 1121.121
705.5426, 1121.555
706.0247, 1124.352
706.5068, 1120.759
706.9890, 1109.782
707.4711, 1100.615
707.9532, 1099.513
708.4353, 1103.410
708.9174, 1103.032
709.3995, 1099.101
709.8817, 1098.844
710.3638, 1112.096
710.8459, 1128.067
711.3280, 1136.140
711.8101, 1134.247
712.2922, 1133.962
712.7744, 1139.724
713.2565, 1147.375
713.7386, 1154.256
714.2207, 1160.597
714.7028, 1165.465
715.1849, 1168.503
715.6671, 1170.767
716.1492, 1172.581
716.6313, 1174.208
717.1134, 1179.155
717.5955, 1188.190
718.0776, 1200.013
718.5598, 1212.139
719.0419, 1225.905
719.5240, 1243.932
720.0061, 1270.344
720.4882, 1297.527
720.9703, 1323.501
721.4525, 1347.788
721.9346, 1369.268
722.4167, 1377.448
722.8988, 1397.071
723.3809, 1436.097
723.8630, 1489.689
724.3452, 1537.810
724.8273, 1579.120
725.3094, 1623.204
725.7915, 1672.575
726.2736, 1728.220
726.7557, 1792.327
727.2379, 1864.936
727.7200, 1946.357
728.2021, 2030.147
728.6842, 2127.118
729.1663, 2250.704
729.6484, 2402.044
730.1306, 2558.947
730.6127, 2718.966
731.0948, 2879.843
731.5769, 3045.728
732.0590, 3228.405
732.5411, 3369.785
733.0233, 3461.242
733.5054, 3530.758
733.9875, 3607.789
734.4696, 3688.511
734.9517, 3734.062
735.4338, 3734.335
735.9160, 3736.417
736.3981, 3789.314
736.8802, 3874.549
737.3623, 3966.960
737.8444, 4068.737
738.3266, 4159.782
738.8087, 4262.787
739.2908, 4341.081
739.7729, 4337.870
740.2551, 4221.212
740.7372, 4081.332
741.2193, 3921.858
741.7014, 3750.044
742.1835, 3580.625
742.6656, 3414.346
743.1478, 3243.086
743.6299, 3056.087
744.1120, 2870.969
744.5941, 2709.478
745.0762, 2573.232
745.5583, 2462.024
746.0405, 2377.077
746.5226, 2317.654
747.0047, 2291.505
747.4868, 2293.983
747.9689, 2300.593
748.4510, 2299.180
748.9332, 2313.094
749.4153, 2352.091
749.8974, 2414.356
750.3795, 2483.505
750.8616, 2561.102
751.3438, 2631.538
751.8259, 2690.286
752.3080, 2733.165
752.7901, 2755.759
753.2722, 2756.966
753.7543, 2724.422
754.2365, 2641.474
754.7186, 2527.171
755.2007, 2391.967
755.6828, 2231.562
756.1649, 2077.941
756.6470, 1924.287
757.1292, 1787.649
757.6113, 1679.014
758.0934, 1601.686
758.5755, 1540.070
759.0576, 1496.262
759.5397, 1459.282
760.0219, 1413.213
760.5040, 1363.983
760.9861, 1334.294
761.4682, 1330.630
761.9503, 1331.586
762.4324, 1324.056
762.9146, 1309.875
763.3967, 1290.449
763.8788, 1256.908
764.3609, 1233.284
764.8430, 1231.998
765.3251, 1237.944
765.8073, 1233.704
766.2894, 1216.392
766.7715, 1199.736
767.2536, 1184.584
767.7357, 1172.999
768.2178, 1171.310
768.7000, 1176.947
769.1821, 1178.875
769.6642, 1171.204
770.1463, 1162.353
770.6284, 1160.332
771.1105, 1162.262
771.5927, 1162.579
772.0748, 1156.836
772.5569, 1152.479
773.0390, 1151.518
773.5211, 1153.075
774.0032, 1155.625
774.4854, 1160.058
774.9675, 1162.048
775.4496, 1159.864
775.9317, 1154.791
776.4138, 1147.487
776.8959, 1139.241
777.3781, 1136.699
777.8602, 1152.221
778.3423, 1167.791
778.8244, 1165.219
779.3065, 1148.670
779.7886, 1136.395
780.2708, 1133.512
780.7529, 1136.682
781.2350, 1147.777
781.7171, 1165.107
782.1992, 1171.406
782.6813, 1163.996
783.1635, 1156.013
783.6456, 1155.026
784.1277, 1158.488
784.6098, 1157.675
785.0919, 1152.958
785.5740, 1148.020
786.0562, 1143.071
786.5383, 1140.450
787.0204, 1143.424
787.5025, 1152.104
787.9846, 1159.323
788.4667, 1162.427
788.9489, 1164.583
789.4310, 1167.447
789.9131, 1171.180
790.3952, 1171.830
790.8773, 1168.925
791.3594, 1165.114
791.8416, 1161.283
792.3237, 1158.223
792.8058, 1158.784
793.2879, 1163.044
793.7700, 1167.293
794.2521, 1166.909
794.7343, 1166.806
795.2164, 1172.377
795.6985, 1186.761
796.1806, 1195.090
796.6627, 1192.407
797.1448, 1187.358
797.6270, 1184.864
798.1091, 1184.926
798.5912, 1189.000
799.0733, 1198.284
799.5554, 1205.302
800.0375, 1198.795
800.5197, 1185.895
801.0018, 1180.813
801.4839, 1186.163
801.9660, 1193.732
802.4481, 1201.311
802.9302, 1207.220
803.4124, 1209.274
803.8945, 1202.149
804.3766, 1203.338
804.8587, 1217.564
805.3408, 1233.873
805.8229, 1243.277
806.3051, 1245.781
806.7872, 1239.523
807.2693, 1222.446
807.7514, 1208.180
808.2335, 1217.077
808.7156, 1235.643
809.1978, 1241.883
809.6799, 1226.842
810.1620, 1214.210
810.6441, 1215.673
811.1262, 1223.207
811.6083, 1228.857
812.0905, 1230.687
812.5726, 1234.760
813.0547, 1241.968
813.5368, 1249.848
814.0189, 1256.821
814.5010, 1262.314
814.9832, 1261.065
815.4653, 1250.367
815.9474, 1242.052
816.4295, 1249.609
816.9116, 1264.856
817.3937, 1278.258
817.8759, 1289.950
818.3580, 1294.519
818.8401, 1279.970
819.3222, 1264.946
819.8043, 1269.652
820.2864, 1300.706
820.7686, 1320.810
821.2507, 1325.665
821.7328, 1321.609
822.2149, 1311.933
822.6970, 1300.063
823.1791, 1295.104
823.6613, 1300.452
824.1434, 1308.626
824.6255, 1317.351
825.1076, 1324.964
825.5897, 1329.463
826.0718, 1322.932
826.5540, 1324.693
827.0361, 1337.612
827.5182, 1355.581
828.0003, 1374.357
828.4824, 1393.678
828.9645, 1401.111
829.4467, 1392.453
829.9288, 1381.242
830.4109, 1383.239
830.8930, 1392.769
831.3751, 1400.967
831.8572, 1404.104
832.3394, 1408.931
832.8215, 1420.602
833.3036, 1433.665
833.7857, 1441.705
834.2678, 1441.523
834.7499, 1446.041
835.2321, 1457.593
835.7142, 1470.267
836.1963, 1476.489
836.6784, 1477.547
837.1605, 1478.269
837.6426, 1480.024
838.1248, 1479.440
838.6069, 1467.615
839.0890, 1455.010
839.5711, 1453.892
840.0532, 1475.197
840.5353, 1492.686
841.0175, 1503.099
841.4996, 1510.857
841.9817, 1519.978
842.4638, 1530.517
842.9459, 1543.205
843.4280, 1559.193
843.9102, 1571.676
844.3923, 1568.983
844.8744, 1559.136
845.3565, 1554.749
845.8386, 1558.526
846.3207, 1566.960
846.8029, 1582.596
847.2850, 1599.777
847.7671, 1613.596
848.2492, 1623.128
848.7313, 1631.241
849.2134, 1637.113
849.6956, 1643.524
850.1777, 1655.297
850.6598, 1670.110
851.1419, 1678.811
851.6240, 1679.785
852.1061, 1680.444
852.5883, 1683.332
853.0704, 1690.466
853.5525, 1705.195
854.0346, 1732.265
854.5167, 1752.767
854.9988, 1762.532
855.4810, 1769.716
855.9631, 1780.681
856.4452, 1795.569
856.9273, 1804.594
857.4094, 1806.612
857.8915, 1814.572
858.3737, 1844.771
858.8558, 1884.968
859.3379, 1921.603
859.8200, 1953.004
860.3021, 1977.030
860.7842, 1980.688
861.2664, 1986.836
861.7485, 2009.276
862.2306, 2050.314
862.7127, 2085.875
863.1948, 2115.364
863.6769, 2143.233
864.1591, 2172.702
864.6412, 2203.148
865.1233, 2234.101
865.6054, 2265.746
866.0875, 2297.295
866.5696, 2331.675
867.0518, 2363.469
867.5339, 2391.317
868.0160, 2415.118
868.4981, 2425.627
868.9802, 2421.053
869.4623, 2406.707
869.9445, 2379.244
870.4266, 2344.411
870.9087, 2332.375
871.3908, 2341.070
871.8729, 2350.004
872.3550, 2341.885
872.8372, 2332.577
873.3193, 2338.597
873.8014, 2356.894
874.2835, 2368.296
874.7656, 2362.661
875.2477, 2356.105
875.7299, 2350.429
876.2120, 2347.299
876.6941, 2354.395
877.1762, 2371.643
877.6583, 2391.581
878.1404, 2415.458
878.6226, 2435.392
879.1047, 2434.025
879.5869, 2420.171
880.0690, 2416.467
880.5511, 2438.772
881.0332, 2464.156
881.5153, 2489.340
881.9974, 2512.151
882.4796, 2526.757
882.9617, 2530.802
883.4438, 2541.244
883.9259, 2564.923
884.4080, 2590.699
884.8901, 2597.466
885.3723, 2592.607
885.8544, 2593.885
886.3365, 2612.990
886.8186, 2630.189
887.3007, 2630.824
887.7828, 2626.864
888.2650, 2636.544
888.7471, 2670.116
889.2292, 2688.490
889.7113, 2684.518
890.1934, 2673.615
890.6755, 2674.414
891.1577, 2684.838
891.6398, 2700.180
892.1219, 2721.021
892.6040, 2738.364
893.0861, 2742.783
893.5682, 2742.387
894.0504, 2744.532
894.5325, 2750.358
895.0146, 2759.339
895.4967, 2774.490
895.9788, 2787.208
896.4609, 2788.415
896.9431, 2780.073
897.4252, 2772.962
897.9073, 2767.623
898.3894, 2766.567
898.8715, 2775.715
899.3536, 2787.011
899.8358, 2792.274
900.3179, 2789.853
900.8000, 2793.538
901.2821, 2809.157
901.7642, 2824.342
902.2463, 2834.588
902.7285, 2839.712
903.2106, 2837.451
903.6927, 2828.120
904.1748, 2819.912
904.6569, 2821.187
905.1390, 2823.448
905.6212, 2813.411
906.1033, 2795.534
906.5854, 2789.059
907.0675, 2813.395
907.5496, 2833.268
908.0317, 2840.658
908.5139, 2837.794
908.9960, 2827.119
909.4781, 2808.627
909.9602, 2801.396
910.4423, 2816.074
910.9244, 2838.798
911.4066, 2856.062
911.8887, 2868.542
912.3708, 2877.690
912.8529, 2885.637
913.3350, 2887.526
913.8171, 2877.607
914.2993, 2864.957
914.7814, 2862.836
915.2635, 2872.254
915.7456, 2877.995
916.2277, 2876.948
916.7098, 2876.048
917.1920, 2884.687
917.6741, 2898.119
918.1562, 2909.215
918.6383, 2915.593
919.1204, 2922.599
919.6025, 2930.260
920.0847, 2940.493
920.5668, 2956.455
921.0489, 2980.462
921.5310, 2991.215
922.0131, 2986.928
922.4952, 2983.966
922.9774, 2995.727
923.4595, 3017.149
923.9416, 3043.765
924.4237, 3074.470
924.9058, 3100.708
925.3879, 3115.313
925.8701, 3128.760
926.3522, 3146.316
926.8343, 3167.173
927.3164, 3183.876
927.7985, 3196.179
928.2806, 3207.290
928.7628, 3217.533
929.2449, 3228.347
929.7270, 3244.811
930.2091, 3263.847
930.6912, 3277.593
931.1733, 3273.194
931.6555, 3274.106
932.1376, 3288.041
932.6197, 3311.281
933.1018, 3341.728
933.5839, 3382.437
934.0660, 3406.256
934.5482, 3403.850
935.0303, 3397.668
935.5124, 3420.524
935.9945, 3459.201
936.4766, 3490.490
936.9587, 3508.427
937.4409, 3521.527
937.9230, 3529.707
938.4051, 3536.319
938.8872, 3541.721
939.3693, 3543.137
939.8514, 3564.529
940.3336, 3608.707
940.8157, 3650.690
941.2978, 3661.449
941.7799, 3661.305
942.2620, 3685.666
942.7441, 3734.433
943.2263, 3770.310
943.7084, 3764.136
944.1905, 3756.649
944.6726, 3765.654
945.1547, 3787.733
945.6368, 3801.069
946.1190, 3805.337
946.6011, 3807.755
947.0832, 3808.693
947.5653, 3812.684
948.0474, 3828.840
948.5295, 3852.671
949.0117, 3873.740
949.4938, 3892.183
949.9759, 3902.075
950.4580, 3898.258
950.9401, 3888.991
951.4222, 3886.656
951.9044, 3891.329
952.3865, 3896.437
952.8686, 3900.438
953.3507, 3907.092
953.8328, 3929.374
954.3149, 3952.433
954.7971, 3953.197
955.2792, 3916.953
955.7613, 3899.226
956.2434, 3923.719
956.7255, 3950.056
957.2076, 3952.049
957.6898, 3930.562
958.1719, 3918.704
958.6540, 3916.237
959.1361, 3913.503
959.6182, 3902.384
960.1003, 3889.027
960.5825, 3878.252
961.0646, 3870.130
961.5467, 3863.831
962.0288, 3860.374
962.5109, 3857.221
962.9930, 3854.915
963.4752, 3851.702
963.9573, 3841.374
964.4394, 3825.385
964.9215, 3812.371
965.4036, 3806.247
965.8857, 3801.789
966.3679, 3797.633
966.8500, 3791.436
967.3321, 3779.641
967.8142, 3755.411
968.2963, 3738.403
968.7784, 3732.340
969.2606, 3726.417
969.7427, 3705.678
970.2248, 3675.907
970.7069, 3659.875
971.1890, 3659.197
971.6711, 3659.392
972.1533, 3653.941
972.6354, 3643.755
973.1175, 3627.701
973.5996, 3606.077
974.0817, 3587.130
974.5638, 3571.232
975.0460, 3556.704
975.5281, 3542.364
976.0102, 3529.209
976.4923, 3521.026
976.9744, 3515.843
977.4565, 3507.876
977.9387, 3494.048
978.4208, 3477.656
978.9029, 3454.595
979.3850, 3432.275
979.8671, 3423.298
980.3492, 3432.017
980.8314, 3427.540
981.3135, 3404.852
981.7956, 3375.908
982.2777, 3350.274
982.7598, 3328.105
983.2419, 3310.541
983.7241, 3298.350
984.2062, 3285.481
984.6883, 3265.637
985.1704, 3249.796
985.6525, 3246.487
986.1346, 3253.183
986.6168, 3241.488
987.0989, 3211.807
987.5810, 3176.924
988.0631, 3139.620
988.5452, 3104.167
989.0273, 3074.687
989.5095, 3050.491
989.9916, 3030.360
990.4737, 3018.030
990.9558, 3003.063
991.4379, 2982.937
991.9200, 2961.816
992.4022, 2950.852
992.8843, 2945.586
993.3664, 2922.561
993.8485, 2874.398
994.3306, 2829.356
994.8127, 2813.873
995.2949, 2805.368
995.7770, 2781.898
996.2591, 2738.751
996.7412, 2709.889
997.2233, 2698.866
997.7054, 2690.113
998.1876, 2676.542
998.6697, 2657.767
999.1518, 2630.177
999.6339, 2595.766
1000.116, 2562.258
1000.598, 2528.408
1001.080, 2501.217
1001.562, 2484.018
1002.044, 2474.204
1002.527, 2471.091
1003.009, 2476.160
1003.491, 2463.927
1003.973, 2426.329
1004.455, 2386.121
1004.937, 2373.186
1005.419, 2370.776
1005.901, 2355.705
1006.384, 2317.917
1006.866, 2294.639
1007.348, 2299.944
1007.830, 2304.874
1008.312, 2288.623
1008.794, 2257.368
1009.276, 2255.752
1009.758, 2278.940
1010.240, 2286.827
1010.723, 2238.006
1011.205, 2184.255
1011.687, 2156.135
1012.169, 2148.771
1012.651, 2147.083
1013.133, 2154.559
1013.615, 2155.594
1014.097, 2147.599
1014.580, 2133.134
1015.062, 2112.449
1015.544, 2089.014
1016.026, 2069.835
1016.508, 2057.072
1016.990, 2044.079
1017.472, 2019.255
1017.954, 2002.604
1018.436, 2010.722
1018.919, 2041.487
1019.401, 2046.359
1019.883, 2025.279
1020.365, 1999.945
1020.847, 1980.227
1021.329, 1964.414
1021.811, 1948.597
1022.293, 1935.551
1022.776, 1932.259
1023.258, 1952.720
1023.740, 1961.471
1024.222, 1952.730
1024.704, 1935.015
1025.186, 1916.816
1025.668, 1899.440
1026.150, 1887.162
1026.632, 1880.276
1027.115, 1881.408
1027.597, 1904.361
1028.079, 1925.464
1028.561, 1926.789
1029.043, 1909.341
1029.525, 1893.683
1030.007, 1879.744
1030.489, 1870.388
1030.972, 1868.610
1031.454, 1870.354
1031.936, 1870.873
1032.418, 1870.380
1032.900, 1869.331
1033.382, 1868.582
1033.864, 1865.694
1034.346, 1857.438
1034.828, 1850.985
1035.311, 1857.046
1035.793, 1873.226
1036.275, 1884.140
1036.757, 1888.632
1037.239, 1887.114
1037.721, 1870.683
1038.203, 1856.274
1038.685, 1860.740
1039.167, 1881.343
1039.650, 1886.042
1040.132, 1870.326
1040.614, 1858.407
1041.096, 1859.667
1041.578, 1867.084
1042.060, 1869.382
1042.542, 1869.688
1043.024, 1874.517
1043.507, 1891.083
1043.989, 1901.405
1044.471, 1900.160
1044.953, 1894.458
1045.435, 1885.793
1045.917, 1875.452
1046.399, 1885.945
1046.881, 1916.463
1047.364, 1942.615
1047.846, 1942.621
1048.328, 1937.508
1048.810, 1940.076
1049.292, 1949.975
1049.774, 1961.750
1050.256, 1974.907
1050.738, 1991.717
1051.220, 2013.091
1051.703, 2036.989
1052.185, 2062.901
1052.667, 2087.839
1053.149, 2104.291
1053.631, 2107.226
1054.113, 2118.776
1054.595, 2142.815
1055.077, 2179.910
1055.559, 2236.969
1056.042, 2308.526
1056.524, 2355.831
1057.006, 2381.978
1057.488, 2412.284
1057.970, 2466.609
1058.452, 2523.168
1058.934, 2563.704
1059.416, 2599.280
1059.899, 2651.284
1060.381, 2726.851
1060.863, 2796.562
1061.345, 2859.333
1061.827, 2911.264
1062.309, 2936.322
1062.791, 2954.947
1063.273, 3000.103
1063.755, 3074.351
1064.238, 3147.389
1064.720, 3198.598
1065.202, 3264.310
1065.684, 3351.242
1066.166, 3461.989
1066.648, 3609.988
1067.130, 3788.222
1067.612, 3974.119
1068.094, 4153.917
1068.577, 4356.005
1069.059, 4598.842
1069.541, 4874.460
1070.023, 5171.230
1070.505, 5483.193
1070.987, 5863.023
1071.469, 6318.134
1071.951, 6811.494
1072.434, 7287.208
1072.916, 7814.532
1073.398, 8484.688
1073.880, 9286.749
1074.362, 10165.89
1074.844, 11096.08
1075.326, 12147.95
1075.808, 13331.73
1076.291, 14660.76
1076.773, 16165.36
1077.255, 17839.50
1077.737, 19658.23
1078.219, 21601.83
1078.701, 23579.21
1079.183, 25819.06
1079.665, 27761.03
1080.147, 29320.46
1080.630, 30397.34
1081.112, 30393.05
1081.594, 29322.74
1082.076, 27600.31
1082.558, 25146.39
1083.040, 22550.92
1083.522, 20059.26
1084.004, 17872.54
1084.486, 16297.79
1084.969, 15384.76
1085.451, 14917.48
1085.933, 14916.69
1086.415, 15295.52
1086.897, 16083.76
1087.379, 17160.87
1087.861, 18357.45
1088.343, 19659.23
1088.826, 21034.51
1089.308, 22620.53
1089.790, 24070.88
1090.272, 25405.28
1090.754, 26481.94
1091.236, 27145.36
1091.718, 27366.46
1092.200, 26933.10
1092.682, 25789.61
1093.165, 24393.66
1093.647, 22672.30
1094.129, 21122.62
1094.611, 20002.87
1095.093, 19300.53
1095.575, 19019.47
1096.057, 19164.66
1096.539, 19641.20
1097.022, 20509.61
1097.504, 21482.77
1097.986, 22642.79
1098.468, 23557.06
1098.950, 23608.31
1099.432, 22632.88
1099.914, 20861.80
1100.396, 18142.67
1100.879, 15229.75
1101.361, 12489.06
1101.843, 10028.43
1102.325, 8007.054
1102.807, 6400.515
1103.289, 5147.383
1103.771, 4350.110
1104.253, 3739.934
1104.735, 3279.675
1105.218, 2931.154
1105.700, 2662.162
1106.182, 2462.931
1106.664, 2303.454
1107.146, 2178.705
1107.628, 2076.768
1108.110, 1995.445
1108.592, 1928.043
1109.074, 1873.292
1109.557, 1829.053
1110.039, 1793.235
1110.521, 1765.699
1111.003, 1735.116
1111.485, 1697.692
1111.967, 1658.838
1112.449, 1619.118
1112.931, 1584.221
1113.414, 1562.149
1113.896, 1557.185
1114.378, 1546.181
1114.860, 1528.510
1115.342, 1507.335
1115.824, 1481.054
1116.306, 1455.206
1116.788, 1438.675
1117.271, 1429.541
1117.753, 1423.318
1118.235, 1422.767
1118.717, 1419.063
1119.199, 1411.190
1119.681, 1401.006
1120.163, 1389.604
1120.645, 1377.478
1121.127, 1365.212
1121.609, 1353.114
1122.092, 1344.213
1122.574, 1344.001
1123.056, 1342.576
1123.538, 1336.694
1124.020, 1327.754
1124.502, 1316.743
1124.984, 1304.430
1125.466, 1298.450
1125.949, 1301.016
1126.431, 1303.431
1126.913, 1298.389
1127.395, 1292.036
1127.877, 1290.035
1128.359, 1291.409
1128.841, 1286.109
1129.323, 1273.636
1129.806, 1263.172
1130.288, 1258.897
1130.770, 1256.169
1131.252, 1250.489
1131.734, 1243.425
1132.216, 1237.152
1132.698, 1232.266
1133.180, 1226.430
1133.662, 1219.195
1134.145, 1213.058
1134.627, 1210.230
1135.109, 1209.001
1135.591, 1207.212
1136.073, 1204.820
1136.555, 1201.756
1137.037, 1191.818
1137.519, 1192.234
1138.001, 1208.430
1138.484, 1225.672
1138.966, 1225.674
1139.448, 1215.541
1139.930, 1213.873
1140.412, 1220.422
1140.894, 1223.282
1141.376, 1217.315
1141.858, 1206.489
1142.341, 1188.926
1142.823, 1170.527
1143.305, 1161.918
1143.787, 1161.913
1144.269, 1165.298
1144.751, 1171.311
1145.233, 1179.449
1145.715, 1195.991
1146.198, 1207.685
1146.680, 1206.146
1147.162, 1194.395
1147.644, 1186.175
1148.126, 1181.248
1148.608, 1176.597
1149.090, 1170.557
1149.572, 1166.156
1150.054, 1168.396
1150.536, 1171.406
1151.019, 1168.410
1151.501, 1158.478
1151.983, 1156.283
1152.465, 1162.200
1152.947, 1166.316
1153.429, 1163.573
1153.911, 1156.320
1154.393, 1141.279
1154.876, 1125.017
1155.358, 1120.155
1155.840, 1131.388
1156.322, 1140.619
1156.804, 1147.309
1157.286, 1153.163
1157.768, 1164.009
1158.250, 1171.691
1158.733, 1161.914
1159.215, 1139.411
1159.697, 1122.427
1160.179, 1112.449
1160.661, 1112.053
1161.143, 1124.751
1161.625, 1137.998
1162.107, 1134.123
1162.589, 1122.472
1163.072, 1120.038
1163.554, 1127.398
1164.036, 1130.799
1164.518, 1123.577
1165.000, 1117.708
1165.482, 1116.294
1165.964, 1117.130
1166.446, 1116.486
1166.928, 1114.942
1167.411, 1113.485
1167.893, 1112.100
1168.375, 1112.361
1168.857, 1116.578
1169.339, 1120.514
1169.821, 1123.671
1170.303, 1124.588
1170.785, 1116.144
1171.268, 1101.619
1171.750, 1091.620
1172.232, 1090.437
1172.714, 1091.898
1173.196, 1098.748
1173.678, 1102.269
1174.160, 1095.551
1174.642, 1080.563
1175.125, 1069.360
1175.607, 1062.041
1176.089, 1059.794
1176.571, 1068.025
1177.053, 1074.925
1177.535, 1074.018
1178.017, 1070.267
1178.499, 1068.527
1178.981, 1068.721
1179.464, 1063.565
1179.946, 1053.610
1180.428, 1048.740
1180.910, 1063.412
1181.392, 1075.811
1181.874, 1071.934
1182.356, 1059.493
1182.838, 1049.592
1183.320, 1042.173
1183.803, 1036.992
1184.285, 1034.040
1184.767, 1032.458
1185.249, 1029.862
1185.731, 1030.001
1186.213, 1040.569
1186.695, 1055.160
1187.177, 1054.322
1187.660, 1036.762
1188.142, 1023.814
1188.624, 1019.323
1189.106, 1017.349
1189.588, 1012.998
1190.070, 1008.766
1190.552, 1007.205
1191.034, 1007.894
1191.516, 1007.457
1191.999, 1005.931
1192.481, 1002.339
1192.963, 995.8465
1193.445, 989.3453
1193.927, 985.0944
1194.409, 982.7245
1194.891, 984.0317
1195.373, 989.1564
1195.855, 981.9893
1196.338, 960.3673
1196.820, 945.4454
1197.302, 948.1710
1197.784, 955.5251
1198.266, 954.2032
1198.748, 948.5967
1199.230, 943.4763
1199.712, 938.8290
1200.195, 939.6488
1200.677, 947.0037
1201.159, 952.3221
1201.641, 950.4752
1202.123, 944.9571
1202.605, 936.2970
1203.087, 927.9725
1203.569, 926.5240
1204.052, 937.7270
1204.534, 938.3169
1205.016, 926.3549
1205.498, 915.4215
1205.980, 918.5886
1206.462, 924.7605
1206.944, 918.4568
1207.426, 905.6132
1207.908, 900.7048
1208.391, 908.1097
1208.873, 913.9091
1209.355, 917.4558
1209.837, 920.0740
1210.319, 924.7924
1210.801, 927.7314
1211.283, 921.8493
1211.765, 910.1096
1212.247, 903.7357
1212.730, 905.6097
1213.212, 905.9081
1213.694, 903.4111
1214.176, 900.3013
1214.658, 898.4750
1215.140, 897.3064
1215.622, 897.2881
1216.104, 897.5630
1216.587, 892.8457
1217.069, 879.7494
1217.551, 873.3326
1218.033, 877.0249
1218.515, 883.6178
1218.997, 884.6160
1219.479, 884.4015
1219.961, 890.1436
1220.443, 901.2081
1220.926, 902.6302
1221.408, 891.0263
1221.890, 881.4598
1222.372, 877.4074
1222.854, 876.5888
1223.336, 878.4985
1223.818, 880.6988
1224.300, 880.1630
1224.782, 876.3813
1225.265, 872.1353
1225.747, 866.3920
1226.229, 866.6095
1226.711, 878.3207
1227.193, 887.9315
1227.675, 871.1382
1228.157, 847.4162
1228.639, 842.4144
1229.122, 861.0895
1229.604, 870.3643
1230.086, 869.3505
1230.568, 864.6713
1231.050, 856.8925
1231.532, 850.7262
1232.014, 856.0129
1232.496, 863.6199
1232.979, 860.0764
1233.461, 842.4003
1233.943, 835.2991
1234.425, 839.7415
1234.907, 846.0573
1235.389, 852.6655
1235.871, 854.3728
1236.353, 837.7881
1236.835, 817.7333
1237.318, 816.9108
1237.800, 839.9002
1238.282, 847.2231
1238.764, 838.1146
1239.246, 827.9420
1239.728, 825.2394
1240.210, 825.0358
1240.692, 822.6899
1241.175, 820.7551
1241.657, 823.1321
1242.139, 830.9561
1242.621, 835.7542
1243.103, 837.5567
1243.585, 837.7900
1244.067, 838.8077
1244.549, 837.0402
1245.031, 826.8824
1245.514, 814.1652
1245.996, 807.0785
1246.478, 806.0201
1246.960, 804.4803
1247.442, 802.4735
1247.924, 803.0284
1248.406, 812.9708
1248.888, 820.6132
1249.370, 816.1115
1249.853, 807.4219
1250.335, 806.0765
1250.817, 811.6823
1251.299, 810.9518
1251.781, 803.5511
1252.263, 793.5183
1252.745, 778.9782
1253.227, 767.5568
1253.710, 763.7982
1254.192, 764.0562
1254.674, 766.1541
1255.156, 769.0048
1255.638, 761.1895
1256.120, 743.5285
1256.602, 733.1599
1257.084, 748.6365
1257.567, 761.3009
1258.049, 760.7365
1258.531, 754.5909
1259.013, 753.3745
1259.495, 755.5734
1259.977, 756.4850
1260.459, 755.5381
1260.941, 751.2206
1261.423, 738.2429
1261.906, 728.1972
1262.388, 724.0767
1262.870, 723.1629
1263.352, 723.3410
1263.834, 723.2010
1264.316, 717.2874
1264.798, 706.0735
1265.280, 700.7660
1265.762, 710.6108
1266.245, 717.0825
1266.727, 716.5993
1267.209, 712.3593
1267.691, 707.2037
1268.173, 702.0176
1268.655, 698.8248
1269.137, 697.5571
1269.619, 694.3896
1270.102, 687.8884
1270.584, 681.9298
1271.066, 676.7419
1271.548, 674.4194
1272.030, 683.8066
1272.512, 693.5291
1272.994, 686.6133
1273.476, 663.3825
1273.958, 650.4644
1274.441, 650.6544
1274.923, 650.9221
1275.405, 648.1149
1275.887, 646.1919
1276.369, 653.4352
1276.851, 660.3204
1277.333, 654.2638
1277.815, 638.2388
1278.297, 633.8525
1278.780, 641.7310
1279.262, 648.9786
1279.744, 652.9387
1280.226, 653.8979
1280.708, 650.8404
1281.190, 645.9144
1281.672, 639.7791
1282.154, 633.2632
1282.637, 629.5759
1283.119, 628.4680
1283.601, 627.4171
1284.083, 625.6274
1284.565, 625.6240
1285.047, 632.6899
1285.529, 637.5748
1286.011, 635.4711
1286.494, 628.4804
1286.976, 620.5945
1287.458, 613.0228
1287.940, 610.9575
1288.422, 616.2662
1288.904, 620.1959
1289.386, 620.4863
1289.868, 616.8294
1290.350, 607.2587
1290.833, 596.2403
1291.315, 593.5162
1291.797, 595.8507
1292.279, 596.7028
1292.761, 594.5355
1293.243, 594.5607
1293.725, 598.9046
1294.207, 601.1340
1294.689, 598.7657
1295.172, 594.2437
1295.654, 589.4925
1296.136, 585.6949
1296.618, 585.3750
1297.100, 589.3218
1297.582, 588.3832
1298.064, 581.2620
1298.546, 578.0576
1299.029, 583.2595
1299.511, 589.0991
1299.993, 586.1631
1300.475, 580.7808
1300.957, 579.6494
1301.439, 582.1283
1301.921, 582.8614
1302.403, 581.8494
1302.885, 578.8565
1303.368, 573.1371
1303.850, 568.3755
1304.332, 566.1951
1304.814, 567.1759
1305.296, 572.2815
1305.778, 579.9667
1306.260, 585.9367
1306.742, 589.7894
1307.224, 589.5530
1307.707, 584.0385
1308.189, 578.3745
1308.671, 573.8273
1309.153, 570.9147
1309.635, 570.6876
1310.117, 571.2103
1310.599, 566.1426
1311.081, 559.4222
1311.564, 560.3315
1312.046, 572.0163
1312.528, 579.2419
1313.010, 579.6198
1313.492, 578.4380
1313.974, 577.2357
1314.456, 575.8093
1314.938, 573.1125
1315.421, 570.5028
1315.903, 569.5073
##END=



