##NAMES=Paulingite-Na
##RRUFFID=R060457
##IDEAL CHEMISTRY=(Na_2_,K_2_,Ca,Ba)_5_Al_10_Si_35_O_90_&#183;45H_2_O
##LOCALITY=near Ritter, Grant County, Oregon, USA
##OWNER=RRUFF
##SOURCE=Michael Scott
##DESCRIPTION=Druse of colorless dodecahedral crystals coating vesicles in basalt
##STATUS=The identification of this mineral has been confirmed only by single crystal X-ray diffraction.
##URL=rruff.info/R060457
198.179, 7864.558
198.661, 7842.616
199.143, 7817.113
199.625, 7796.758
200.107, 7782.862
200.589, 7773.413
201.071, 7765.849
201.553, 7762.135
202.036, 7751.801
202.518, 7723.689
203.000, 7674.365
203.482, 7637.484
203.964, 7616.551
204.446, 7609.246
204.928, 7612.879
205.410, 7632.867
205.893, 7646.771
206.375, 7633.533
206.857, 7584.835
207.339, 7553.951
207.821, 7553.530
208.303, 7574.480
208.785, 7576.178
209.267, 7553.558
209.749, 7522.434
210.232, 7492.396
210.714, 7461.536
211.196, 7440.126
211.678, 7433.161
212.160, 7438.108
212.642, 7436.853
213.124, 7430.790
213.606, 7416.947
214.089, 7391.904
214.571, 7352.516
215.053, 7310.618
215.535, 7263.594
216.017, 7212.773
216.499, 7183.175
216.981, 7182.718
217.463, 7191.295
217.945, 7189.814
218.428, 7173.216
218.910, 7159.092
219.392, 7154.069
219.874, 7157.921
220.356, 7142.344
220.838, 7092.770
221.320, 7040.562
221.802, 7022.598
222.285, 7058.435
222.767, 7084.925
223.249, 7086.666
223.731, 7062.235
224.213, 7038.835
224.695, 7015.597
225.177, 6994.501
225.659, 6978.132
226.141, 6970.225
226.624, 6960.301
227.106, 6944.332
227.588, 6921.082
228.070, 6905.791
228.552, 6902.722
229.034, 6903.958
229.516, 6899.649
229.998, 6887.200
230.480, 6873.500
230.963, 6860.542
231.445, 6848.904
231.927, 6832.918
232.409, 6807.764
232.891, 6781.970
233.373, 6767.425
233.855, 6771.104
234.337, 6774.661
234.820, 6774.763
235.302, 6772.682
235.784, 6759.637
236.266, 6729.266
236.748, 6692.478
237.230, 6665.384
237.712, 6653.644
238.194, 6642.009
238.676, 6626.002
239.159, 6604.261
239.641, 6583.641
240.123, 6560.141
240.605, 6540.466
241.087, 6535.946
241.569, 6555.735
242.051, 6576.319
242.533, 6592.281
243.016, 6605.695
243.498, 6605.212
243.980, 6582.403
244.462, 6550.711
244.944, 6531.797
245.426, 6531.266
245.908, 6534.076
246.390, 6535.671
246.872, 6535.511
247.355, 6535.915
247.837, 6540.268
248.319, 6542.625
248.801, 6530.538
249.283, 6488.892
249.765, 6458.535
250.247, 6458.292
250.729, 6501.838
251.212, 6518.819
251.694, 6498.037
252.176, 6458.451
252.658, 6431.831
253.140, 6426.257
253.622, 6419.693
254.104, 6402.654
254.586, 6369.960
255.068, 6352.175
255.551, 6355.383
256.033, 6369.575
256.515, 6378.394
256.997, 6379.993
257.479, 6380.136
257.961, 6381.127
258.443, 6383.944
258.925, 6382.666
259.408, 6375.514
259.890, 6365.459
260.372, 6356.036
260.854, 6344.257
261.336, 6339.037
261.818, 6345.056
262.300, 6365.006
262.782, 6381.915
263.264, 6400.043
263.746, 6410.624
264.229, 6394.450
264.711, 6336.403
265.193, 6289.465
265.675, 6274.679
266.157, 6297.750
266.639, 6312.656
267.121, 6318.176
267.603, 6317.011
268.086, 6313.163
268.568, 6307.269
269.050, 6296.845
269.532, 6277.629
270.014, 6248.008
270.496, 6235.581
270.978, 6247.588
271.460, 6266.713
271.943, 6267.643
272.425, 6245.885
272.907, 6224.268
273.389, 6210.052
273.871, 6203.534
274.353, 6198.104
274.835, 6193.760
275.317, 6190.766
275.799, 6189.327
276.282, 6189.381
276.764, 6191.722
277.246, 6199.897
277.728, 6212.949
278.210, 6208.726
278.692, 6181.603
279.174, 6150.763
279.656, 6143.890
280.138, 6163.736
280.621, 6175.263
281.103, 6161.524
281.585, 6127.542
282.067, 6116.463
282.549, 6132.966
283.031, 6155.909
283.513, 6159.385
283.995, 6143.235
284.478, 6133.313
284.960, 6143.044
285.442, 6165.169
285.924, 6163.256
286.406, 6133.854
286.888, 6099.373
287.370, 6083.944
287.852, 6086.040
288.335, 6085.415
288.817, 6074.087
289.299, 6057.049
289.781, 6048.075
290.263, 6047.325
290.745, 6052.910
291.227, 6070.465
291.709, 6096.016
292.191, 6102.958
292.674, 6066.866
293.156, 6023.255
293.638, 6065.143
294.120, 6086.276
294.602, 6087.771
295.084, 6010.805
295.566, 6035.154
296.048, 6018.901
296.530, 6000.983
297.013, 6039.592
297.495, 5974.038
297.977, 6011.751
298.459, 6008.240
298.941, 6023.598
299.423, 5989.662
299.905, 6001.647
300.387, 5996.200
300.870, 5985.111
301.352, 5981.487
301.834, 5984.844
302.316, 5992.590
302.798, 6003.766
303.280, 6017.681
303.762, 6034.750
304.244, 6057.051
304.727, 6076.842
305.209, 6084.625
305.691, 6082.468
306.173, 6077.586
306.655, 6068.448
307.137, 6061.101
307.619, 6064.994
308.101, 6085.336
308.583, 6104.142
309.065, 6103.173
309.548, 6089.827
310.030, 6080.685
310.512, 6091.355
310.994, 6105.696
311.476, 6108.661
311.958, 6096.131
312.440, 6085.254
312.922, 6088.982
313.405, 6100.737
313.887, 6109.533
314.369, 6103.569
314.851, 6098.707
315.333, 6109.074
315.815, 6138.699
316.297, 6157.872
316.779, 6144.689
317.262, 6116.518
317.744, 6094.147
318.226, 6086.214
318.708, 6084.098
319.190, 6085.128
319.672, 6089.264
320.154, 6095.008
320.636, 6103.612
321.118, 6113.002
321.601, 6121.284
322.083, 6131.570
322.565, 6137.228
323.047, 6131.414
323.529, 6114.861
324.011, 6108.930
324.493, 6131.605
324.975, 6157.174
325.457, 6168.239
325.940, 6148.571
326.422, 6130.231
326.904, 6117.874
327.386, 6110.466
327.868, 6101.447
328.350, 6083.647
328.832, 6069.429
329.314, 6065.345
329.797, 6087.392
330.279, 6096.776
330.761, 6086.643
331.243, 6063.173
331.725, 6046.243
332.207, 6039.279
332.689, 6034.828
333.171, 6030.966
333.654, 6031.989
334.136, 6021.553
334.618, 5988.805
335.100, 5950.640
335.582, 5944.148
336.064, 5987.383
336.546, 6023.347
337.028, 6024.703
337.510, 5982.515
337.992, 5971.093
338.475, 6005.658
338.957, 6050.619
339.439, 6050.873
339.921, 5995.518
340.403, 5947.278
340.885, 5927.340
341.367, 5933.646
341.849, 5943.143
342.332, 5957.155
342.814, 5970.266
343.296, 5977.274
343.778, 5978.237
344.260, 5974.099
344.742, 5964.431
345.224, 5950.301
345.706, 5932.673
346.189, 5910.912
346.671, 5894.159
347.153, 5890.906
347.635, 5899.737
348.117, 5915.619
348.599, 5940.624
349.081, 5967.740
349.563, 5982.208
350.045, 5985.337
350.528, 5989.306
351.010, 6007.037
351.492, 6030.444
351.974, 6043.065
352.456, 6040.721
352.938, 6031.650
353.420, 6020.544
353.902, 6009.278
354.384, 6003.433
354.867, 5993.650
355.349, 5997.146
355.831, 5977.130
356.313, 6013.455
356.795, 6036.104
357.277, 6045.811
357.759, 6003.816
358.241, 6028.583
358.724, 6026.595
359.206, 6023.511
359.688, 6057.675
360.170, 6023.200
360.652, 6056.773
361.134, 6063.183
361.616, 6082.025
362.098, 6073.947
362.581, 6074.183
363.063, 6101.348
363.545, 6083.651
364.027, 6073.508
364.509, 6071.423
364.991, 6088.533
365.473, 6106.190
365.955, 6112.445
366.437, 6087.899
366.919, 6074.651
367.402, 6081.522
367.884, 6103.530
368.366, 6125.414
368.848, 6152.791
369.330, 6174.574
369.812, 6185.936
370.294, 6180.043
370.776, 6179.671
371.259, 6184.642
371.741, 6195.213
372.223, 6213.390
372.705, 6248.756
373.187, 6275.081
373.669, 6280.465
374.151, 6261.436
374.633, 6262.312
375.116, 6288.960
375.598, 6326.388
376.080, 6361.408
376.562, 6396.458
377.044, 6416.761
377.526, 6412.021
378.008, 6390.026
378.490, 6395.027
378.973, 6432.344
379.455, 6471.266
379.937, 6486.307
380.419, 6478.861
380.901, 6471.803
381.383, 6466.542
381.865, 6466.514
382.347, 6480.094
382.829, 6506.817
383.311, 6537.845
383.794, 6574.341
384.276, 6611.215
384.758, 6631.957
385.240, 6631.751
385.722, 6632.321
386.204, 6659.201
386.686, 6706.194
387.168, 6757.048
387.651, 6813.617
388.133, 6865.486
388.615, 6896.743
389.097, 6907.524
389.579, 6917.667
390.061, 6941.638
390.543, 6972.604
391.025, 7002.990
391.508, 7028.818
391.990, 7054.505
392.472, 7082.659
392.954, 7113.111
393.436, 7143.775
393.918, 7171.182
394.400, 7200.602
394.882, 7237.082
395.364, 7289.141
395.847, 7334.257
396.329, 7361.242
396.811, 7378.583
397.293, 7403.237
397.775, 7442.050
398.257, 7485.181
398.739, 7525.678
399.221, 7556.776
399.703, 7582.219
400.186, 7665.581
400.668, 7734.881
401.150, 7790.882
401.632, 7793.744
402.114, 7864.296
402.596, 7902.031
403.078, 7981.958
403.560, 8048.691
404.043, 8099.002
404.525, 8141.890
405.007, 8179.918
405.489, 8208.430
405.971, 8257.533
406.453, 8337.191
406.935, 8432.200
407.417, 8507.775
407.900, 8561.077
408.382, 8614.244
408.864, 8676.744
409.346, 8748.650
409.828, 8827.401
410.310, 8913.444
410.792, 9006.787
411.274, 9116.602
411.756, 9237.049
412.238, 9346.060
412.721, 9427.484
413.203, 9496.896
413.685, 9578.627
414.167, 9672.471
414.649, 9778.304
415.131, 9904.004
415.613, 10040.700
416.095, 10175.300
416.578, 10310.840
417.060, 10434.530
417.542, 10531.450
418.024, 10608.850
418.506, 10687.930
418.988, 10778.930
419.470, 10874.520
419.952, 10969.900
420.435, 11066.190
420.917, 11158.110
421.399, 11243.330
421.881, 11324.310
422.363, 11404.510
422.845, 11492.680
423.327, 11572.480
423.809, 11641.660
424.291, 11700.040
424.774, 11742.570
425.256, 11771.150
425.738, 11782.400
426.220, 11773.000
426.702, 11729.040
427.184, 11689.810
427.666, 11661.500
428.148, 11637.400
428.630, 11598.350
429.113, 11539.430
429.595, 11476.740
430.077, 11418.170
430.559, 11365.050
431.041, 11301.600
431.523, 11224.230
432.005, 11142.690
432.487, 11068.330
432.970, 11001.100
433.452, 10936.250
433.934, 10872.050
434.416, 10809.730
434.898, 10748.290
435.380, 10687.440
435.862, 10636.610
436.344, 10613.720
436.827, 10605.440
437.309, 10576.170
437.791, 10511.340
438.273, 10450.270
438.755, 10437.070
439.237, 10459.750
439.719, 10488.230
440.201, 10507.300
440.683, 10526.040
441.165, 10556.570
441.648, 10600.310
442.130, 10632.780
442.612, 10617.670
443.094, 10595.390
443.576, 10605.150
444.058, 10676.370
444.540, 10760.870
445.022, 10848.140
445.505, 10939.430
445.987, 11035.700
446.469, 11136.100
446.951, 11243.980
447.433, 11363.420
447.915, 11502.530
448.397, 11630.770
448.879, 11735.350
449.362, 11837.010
449.844, 11965.610
450.326, 12133.020
450.808, 12300.370
451.290, 12452.080
451.772, 12591.830
452.254, 12759.860
452.736, 12959.570
453.218, 13171.990
453.701, 13383.380
454.183, 13590.210
454.665, 13803.570
455.147, 14021.690
455.629, 14247.480
456.111, 14488.960
456.593, 14742.610
457.075, 14997.940
457.557, 15228.670
458.040, 15460.500
458.522, 15748.040
459.004, 16096.510
459.486, 16462.930
459.968, 16862.689
460.450, 17247.340
460.932, 17528.920
461.414, 17602.211
461.897, 17663.471
462.379, 17848.430
462.861, 18131.859
463.343, 18422.631
463.825, 18696.650
464.307, 18959.980
464.789, 19212.000
465.271, 19448.430
465.754, 19697.570
466.236, 19975.430
466.718, 20266.061
467.200, 20553.730
467.682, 20854.721
468.164, 21129.400
468.646, 21361.330
469.128, 21556.090
469.610, 21764.330
470.093, 21988.039
470.575, 22218.170
471.057, 22446.820
471.539, 22670.189
472.021, 22912.660
472.503, 23191.211
472.985, 23469.609
473.467, 23680.619
473.949, 23820.170
474.432, 23946.680
474.914, 24075.770
475.396, 24209.449
475.878, 24359.520
476.360, 24526.520
476.842, 24691.131
477.324, 24841.051
477.806, 24975.680
478.289, 25090.471
478.771, 25181.561
479.253, 25261.740
479.735, 25355.689
480.217, 25449.650
480.699, 25509.430
481.181, 25497.561
481.663, 25462.189
482.146, 25433.840
482.628, 25415.391
483.110, 25388.330
483.592, 25353.561
484.074, 25301.900
484.556, 25225.920
485.038, 25144.439
485.520, 25011.730
486.002, 24794.510
486.484, 24519.230
486.967, 24246.850
487.449, 23897.350
487.931, 23663.289
488.413, 23348.006
488.895, 23032.697
489.377, 22717.410
489.859, 22402.102
490.341, 22086.754
490.824, 21771.445
491.306, 21456.150
491.788, 20754.811
492.270, 20222.529
492.752, 19797.961
493.234, 19344.381
493.716, 18871.869
494.198, 18413.461
494.681, 18016.551
495.163, 17646.029
495.645, 17232.750
496.127, 16762.631
496.609, 16301.230
497.091, 15912.620
497.573, 15567.720
498.055, 15217.900
498.537, 14836.770
499.020, 14460.500
499.502, 14106.590
499.984, 13773.870
500.466, 13443.410
500.948, 13088.530
501.430, 12755.710
501.912, 12465.530
502.394, 12236.650
502.876, 12011.820
503.359, 11783.970
503.841, 11557.650
504.323, 11336.400
504.805, 11110.970
505.287, 10902.330
505.769, 10713.610
506.251, 10542.600
506.733, 10380.370
507.216, 10224.970
507.698, 10078.840
508.180, 9943.523
508.662, 9818.309
509.144, 9701.875
509.626, 9595.178
510.108, 9491.580
510.590, 9381.929
511.073, 9269.321
511.555, 9166.506
512.037, 9086.055
512.519, 9008.228
513.001, 8895.453
513.483, 8758.908
513.965, 8647.683
514.447, 8610.659
514.929, 8598.889
515.412, 8573.465
515.894, 8528.324
516.376, 8474.090
516.858, 8402.240
517.340, 8328.896
517.822, 8271.940
518.304, 8242.983
518.786, 8221.311
519.268, 8212.662
519.751, 8210.973
520.233, 8187.355
520.715, 8126.512
521.197, 8064.488
521.679, 8016.093
522.161, 7983.604
522.643, 7949.313
523.125, 7910.893
523.607, 7875.137
524.090, 7850.295
524.572, 7836.572
525.054, 7830.078
525.536, 7837.474
526.018, 7842.108
526.500, 7794.564
526.982, 7704.733
527.464, 7637.047
527.947, 7652.379
528.429, 7702.990
528.911, 7713.517
529.393, 7676.286
529.875, 7639.025
530.357, 7649.113
530.839, 7647.707
531.321, 7635.426
531.804, 7579.701
532.286, 7580.078
532.768, 7557.966
533.250, 7534.938
533.732, 7543.208
534.214, 7493.803
534.696, 7498.507
535.178, 7469.726
535.661, 7472.169
536.143, 7473.246
536.625, 7475.135
537.107, 7472.939
537.589, 7461.255
538.071, 7438.335
538.553, 7417.333
539.035, 7399.500
539.517, 7384.054
540.000, 7370.552
540.482, 7358.715
540.964, 7344.870
541.446, 7329.100
541.928, 7309.398
542.410, 7276.588
542.892, 7232.075
543.374, 7195.958
543.856, 7185.886
544.339, 7190.253
544.821, 7198.890
545.303, 7215.479
545.785, 7218.934
546.267, 7182.507
546.749, 7130.775
547.231, 7099.018
547.713, 7126.526
548.195, 7142.804
548.678, 7119.695
549.160, 7063.527
549.642, 7031.303
550.124, 7037.249
550.606, 7048.980
551.088, 7053.130
551.570, 7049.967
552.052, 7035.378
552.534, 7004.542
553.017, 6972.644
553.499, 6963.130
553.981, 6974.780
554.463, 6975.270
554.945, 6954.211
555.427, 6921.932
555.909, 6891.767
556.391, 6865.042
556.874, 6848.891
557.356, 6861.236
557.838, 6878.502
558.320, 6871.372
558.802, 6838.106
559.284, 6806.817
559.766, 6792.807
560.248, 6788.275
560.731, 6787.147
561.213, 6793.493
561.695, 6795.260
562.177, 6786.798
562.659, 6772.770
563.141, 6762.181
563.623, 6753.173
564.105, 6750.571
564.588, 6758.524
565.070, 6775.315
565.552, 6781.023
566.034, 6772.384
566.516, 6762.206
566.998, 6758.569
567.480, 6761.173
567.962, 6767.463
568.444, 6778.400
568.927, 6787.426
569.409, 6784.448
569.891, 6773.153
570.373, 6763.409
570.855, 6758.726
571.337, 6756.369
571.819, 6755.338
572.301, 6754.760
572.783, 6751.937
573.266, 6747.945
573.748, 6739.488
574.230, 6719.850
574.712, 6685.730
575.194, 6667.185
575.676, 6682.731
576.158, 6706.528
576.640, 6721.459
577.122, 6722.579
577.605, 6725.428
578.087, 6732.530
578.569, 6739.989
579.051, 6739.889
579.533, 6731.153
580.015, 6723.541
580.497, 6720.837
580.979, 6721.162
581.461, 6718.825
581.944, 6713.975
582.426, 6708.843
582.908, 6706.327
583.390, 6703.909
583.872, 6694.334
584.354, 6675.436
584.836, 6664.691
585.318, 6681.746
585.801, 6709.774
586.283, 6730.747
586.765, 6739.608
587.247, 6740.301
587.729, 6722.353
588.211, 6696.940
588.693, 6693.259
589.175, 6733.711
589.657, 6767.167
590.140, 6778.411
590.622, 6768.510
591.104, 6765.829
591.586, 6773.490
592.068, 6779.338
592.550, 6773.844
593.032, 6757.779
593.515, 6739.911
593.997, 6719.160
594.479, 6704.628
594.961, 6716.310
595.443, 6742.467
595.925, 6753.220
596.407, 6726.205
596.889, 6698.959
597.371, 6709.827
597.854, 6745.419
598.336, 6770.612
598.818, 6762.167
599.300, 6747.766
599.782, 6738.524
600.264, 6735.278
600.746, 6734.342
601.228, 6732.726
601.710, 6735.668
602.193, 6746.351
602.675, 6766.691
603.157, 6791.278
603.639, 6824.603
604.121, 6854.338
604.603, 6860.095
605.085, 6842.315
605.567, 6825.438
606.049, 6814.772
606.532, 6809.611
607.014, 6799.769
607.496, 6791.461
607.978, 6762.225
608.460, 6808.281
608.942, 6836.061
609.424, 6846.546
609.906, 6787.936
610.388, 6818.547
610.871, 6813.404
611.353, 6806.793
611.835, 6849.963
612.317, 6801.402
612.799, 6843.782
613.281, 6849.861
613.763, 6847.526
614.245, 6846.715
614.728, 6885.300
615.210, 6912.673
615.692, 6918.745
616.174, 6910.203
616.656, 6902.998
617.138, 6897.191
617.620, 6888.635
618.102, 6868.618
618.584, 6846.659
619.067, 6843.426
619.549, 6857.831
620.031, 6877.291
620.513, 6903.375
620.995, 6924.570
621.477, 6926.060
621.959, 6899.088
622.442, 6877.956
622.924, 6877.345
623.406, 6886.806
623.888, 6895.807
624.370, 6910.314
624.852, 6913.738
625.334, 6899.858
625.816, 6876.243
626.298, 6859.533
626.781, 6849.330
627.263, 6847.809
627.745, 6859.534
628.227, 6879.459
628.709, 6889.718
629.191, 6890.474
629.673, 6885.500
630.155, 6875.448
630.638, 6862.252
631.120, 6846.430
631.602, 6827.565
632.084, 6815.490
632.566, 6823.472
633.048, 6837.957
633.530, 6845.670
634.012, 6838.527
634.494, 6832.569
634.977, 6834.290
635.459, 6837.833
635.941, 6833.539
636.423, 6815.661
636.905, 6801.253
637.387, 6795.577
637.869, 6795.203
638.351, 6785.338
638.833, 6764.675
639.316, 6749.005
639.798, 6750.567
640.280, 6763.022
640.762, 6769.299
641.244, 6769.316
641.726, 6766.331
642.208, 6756.896
642.690, 6748.816
643.172, 6755.526
643.655, 6787.920
644.137, 6802.704
644.619, 6757.404
645.101, 6696.444
645.583, 6668.074
646.065, 6720.728
646.547, 6750.631
647.029, 6740.594
647.511, 6708.481
647.994, 6693.048
648.476, 6696.464
648.958, 6708.340
649.440, 6730.457
649.922, 6755.952
650.404, 6755.903
650.886, 6731.889
651.369, 6711.554
651.851, 6715.319
652.333, 6732.633
652.815, 6752.850
653.297, 6775.224
653.779, 6789.382
654.261, 6785.491
654.743, 6773.281
655.225, 6760.805
655.708, 6751.258
656.190, 6738.228
656.672, 6713.794
657.154, 6689.579
657.636, 6678.300
658.118, 6684.026
658.600, 6692.406
659.082, 6702.810
659.565, 6713.342
660.047, 6719.380
660.529, 6720.901
661.011, 6719.764
661.493, 6717.202
661.975, 6712.107
662.457, 6697.872
662.939, 6677.341
663.421, 6665.825
663.904, 6686.396
664.386, 6709.738
664.868, 6710.978
665.350, 6686.018
665.832, 6665.354
666.314, 6657.999
666.796, 6656.700
667.278, 6656.626
667.760, 6658.214
668.243, 6659.707
668.725, 6660.328
669.207, 6661.448
669.689, 6664.547
670.171, 6669.379
670.653, 6677.053
671.135, 6690.414
671.617, 6700.363
672.099, 6685.605
672.582, 6655.191
673.064, 6635.435
673.546, 6651.891
674.028, 6672.137
674.510, 6672.777
674.992, 6657.733
675.474, 6643.818
675.956, 6638.396
676.439, 6633.661
676.921, 6629.693
677.403, 6627.547
677.885, 6608.081
678.367, 6558.396
678.849, 6515.998
679.331, 6510.219
679.813, 6541.357
680.295, 6566.562
680.778, 6584.857
681.260, 6596.294
681.742, 6591.597
682.224, 6580.732
682.706, 6588.851
683.188, 6629.409
683.670, 6667.717
684.153, 6678.071
684.635, 6670.898
685.117, 6661.170
685.599, 6644.363
686.081, 6635.223
686.563, 6641.001
687.045, 6656.499
687.527, 6670.785
688.009, 6687.757
688.492, 6693.139
688.974, 6673.114
689.456, 6639.766
689.938, 6660.768
690.420, 6736.558
690.902, 6800.526
691.384, 6803.803
691.866, 6770.539
692.348, 6731.740
692.831, 6689.695
693.313, 6662.457
693.795, 6668.467
694.277, 6689.668
694.759, 6714.060
695.241, 6744.117
695.723, 6763.892
696.205, 6767.915
696.688, 6763.425
697.170, 6754.729
697.652, 6738.610
698.134, 6729.290
698.616, 6729.370
699.098, 6734.126
699.580, 6738.033
700.062, 6740.854
700.544, 6739.356
701.027, 6730.332
701.509, 6720.671
701.991, 6720.153
702.473, 6725.676
702.955, 6729.438
703.437, 6724.343
703.919, 6720.346
704.401, 6722.214
704.883, 6729.414
705.366, 6733.179
705.848, 6708.601
706.330, 6740.291
706.812, 6758.323
707.294, 6763.430
707.776, 6716.901
708.258, 6737.049
708.740, 6730.476
709.222, 6722.808
709.705, 6752.340
710.187, 6713.322
710.669, 6742.264
711.151, 6744.078
711.633, 6739.604
712.115, 6731.222
712.597, 6740.325
713.080, 6781.625
713.562, 6806.313
714.044, 6780.564
714.526, 6741.871
715.008, 6731.547
715.490, 6767.622
715.972, 6792.943
716.454, 6801.374
716.936, 6799.553
717.419, 6797.000
717.901, 6793.737
718.383, 6793.298
718.865, 6797.799
719.347, 6803.723
719.829, 6805.051
720.311, 6803.671
720.793, 6804.808
721.276, 6808.467
721.758, 6817.731
722.240, 6842.167
722.722, 6876.536
723.204, 6893.614
723.686, 6873.303
724.168, 6853.758
724.650, 6846.710
725.132, 6851.526
725.615, 6854.642
726.097, 6855.363
726.579, 6857.585
727.061, 6846.687
727.543, 6839.551
728.025, 6810.677
728.507, 6842.953
728.989, 6860.384
729.471, 6863.771
729.954, 6811.043
730.436, 6830.775
730.918, 6821.468
731.400, 6810.971
731.882, 6840.901
732.364, 6796.335
732.846, 6825.625
733.328, 6820.033
733.810, 6839.941
734.293, 6836.603
734.775, 6829.443
735.257, 6849.972
735.739, 6894.221
736.221, 6922.838
736.703, 6924.357
737.185, 6915.157
737.667, 6910.527
738.149, 6910.125
738.632, 6913.441
739.114, 6927.919
739.596, 6937.971
740.078, 6934.075
740.560, 6921.544
741.042, 6913.771
741.524, 6910.982
742.006, 6914.888
742.489, 6929.724
742.971, 6950.571
743.453, 6957.067
743.935, 6948.386
744.417, 6940.727
744.899, 6941.114
745.381, 6947.705
745.863, 6958.304
746.346, 6972.373
746.828, 6987.526
747.310, 7001.086
747.792, 7016.021
748.274, 7038.001
748.756, 7067.508
749.238, 7083.563
749.720, 7070.858
750.203, 7058.892
750.685, 7064.275
751.167, 7089.534
751.649, 7095.449
752.131, 7078.177
752.613, 7061.109
753.095, 7071.995
753.577, 7097.759
754.059, 7096.446
754.542, 7061.847
755.024, 7038.617
755.506, 7070.069
755.988, 7124.466
756.470, 7170.899
756.952, 7201.071
757.434, 7228.187
757.916, 7265.740
758.398, 7292.711
758.881, 7281.631
759.363, 7210.445
759.845, 7193.084
760.327, 7253.633
760.809, 7334.928
761.291, 7351.540
761.773, 7320.590
762.255, 7307.689
762.737, 7338.542
763.220, 7372.159
763.702, 7364.002
764.184, 7336.275
764.666, 7324.224
765.148, 7345.682
765.630, 7375.487
766.112, 7419.969
766.594, 7466.071
767.076, 7485.767
767.559, 7468.167
768.041, 7459.660
768.523, 7473.057
769.005, 7499.527
769.487, 7521.965
769.969, 7540.090
770.451, 7553.510
770.933, 7562.042
771.416, 7565.373
771.898, 7556.500
772.380, 7541.129
772.862, 7537.653
773.344, 7570.896
773.826, 7597.801
774.308, 7603.697
774.790, 7590.943
775.273, 7568.113
775.755, 7528.498
776.237, 7501.668
776.719, 7507.915
777.201, 7535.602
777.683, 7540.290
778.165, 7523.816
778.647, 7503.973
779.130, 7496.160
779.612, 7487.940
780.094, 7460.264
780.576, 7414.413
781.058, 7386.363
781.540, 7405.103
782.022, 7428.143
782.504, 7435.258
782.986, 7425.102
783.469, 7412.247
783.951, 7391.984
784.433, 7383.855
784.915, 7343.909
785.397, 7344.134
785.879, 7334.606
786.361, 7315.853
786.843, 7260.242
787.325, 7252.229
787.808, 7229.530
788.290, 7229.610
788.772, 7247.293
789.254, 7259.522
789.736, 7264.686
790.218, 7259.429
790.700, 7237.500
791.182, 7189.738
791.664, 7168.460
792.147, 7179.597
792.629, 7196.451
793.111, 7188.432
793.593, 7164.762
794.075, 7156.232
794.557, 7168.228
795.039, 7181.389
795.521, 7181.704
796.003, 7175.260
796.486, 7168.479
796.968, 7164.197
797.450, 7155.505
797.932, 7136.810
798.414, 7117.995
798.896, 7110.465
799.378, 7117.066
799.860, 7115.182
800.343, 7102.191
800.825, 7083.867
801.307, 7066.367
801.789, 7049.046
802.271, 7028.660
802.753, 7001.229
803.235, 6981.223
803.717, 6980.419
804.200, 6990.658
804.682, 7002.802
805.164, 7021.478
805.646, 7033.315
806.128, 7040.181
806.610, 7037.963
807.092, 7015.958
807.574, 6973.637
808.057, 6944.048
808.539, 6933.954
809.021, 6934.187
809.503, 6937.753
809.985, 6942.540
810.467, 6944.504
810.949, 6940.669
811.431, 6936.944
811.913, 6937.180
812.396, 6938.450
812.878, 6936.264
813.360, 6927.847
813.842, 6921.612
814.324, 6919.256
814.806, 6917.922
815.288, 6908.821
815.770, 6894.374
816.252, 6895.729
816.735, 6926.016
817.217, 6955.449
817.699, 6948.044
818.181, 6920.059
818.663, 6897.204
819.145, 6888.173
819.627, 6884.781
820.109, 6893.666
820.591, 6903.861
821.074, 6898.071
821.556, 6872.944
822.038, 6843.424
822.520, 6806.004
823.002, 6778.187
823.484, 6808.491
823.966, 6875.147
824.448, 6906.603
824.930, 6856.291
825.413, 6802.022
825.895, 6798.992
826.377, 6826.205
826.859, 6850.512
827.341, 6861.230
827.823, 6873.556
828.305, 6890.321
828.787, 6907.655
829.270, 6918.587
829.752, 6922.971
830.234, 6925.480
830.716, 6928.092
831.198, 6927.245
831.680, 6915.092
832.162, 6896.455
832.644, 6880.732
833.127, 6873.496
833.609, 6867.038
834.091, 6856.858
834.573, 6846.592
835.055, 6841.750
835.537, 6842.240
836.019, 6849.755
836.501, 6867.649
836.984, 6887.585
837.466, 6895.689
837.948, 6893.613
838.430, 6888.721
838.912, 6881.794
839.394, 6875.577
839.876, 6873.912
840.358, 6873.940
840.841, 6871.271
841.323, 6855.207
841.805, 6849.805
842.287, 6862.432
842.769, 6882.445
843.251, 6893.079
843.733, 6893.358
844.215, 6898.859
844.697, 6914.584
845.180, 6929.426
845.662, 6925.534
846.144, 6910.662
846.626, 6900.099
847.108, 6902.058
847.590, 6901.956
848.072, 6884.532
848.554, 6865.885
849.036, 6868.061
849.519, 6904.335
850.001, 6929.003
850.483, 6937.613
850.965, 6936.009
851.447, 6930.769
851.929, 6922.176
852.411, 6908.226
852.893, 6885.038
853.375, 6870.992
853.858, 6897.113
854.340, 6933.909
854.822, 6946.121
855.304, 6899.982
855.786, 6876.646
856.268, 6892.155
856.750, 6919.464
857.232, 6929.321
857.714, 6920.951
858.197, 6922.846
858.679, 6939.728
859.161, 6955.341
859.643, 6945.119
860.125, 6925.201
860.607, 6921.665
861.089, 6944.611
861.571, 6962.613
862.054, 6961.288
862.536, 6951.425
863.018, 6939.846
863.500, 6920.371
863.982, 6924.892
864.464, 6960.922
864.946, 6995.881
865.428, 6990.764
865.911, 6961.965
866.393, 6955.672
866.875, 6977.295
867.357, 7001.268
867.839, 7016.946
868.321, 7024.560
868.803, 7023.279
869.285, 7010.950
869.768, 6997.346
870.250, 6976.880
870.732, 6965.490
871.214, 6981.784
871.696, 7020.617
872.178, 7032.168
872.660, 7016.391
873.142, 6993.701
873.624, 6974.657
874.107, 6959.227
874.589, 6944.304
875.071, 6930.000
875.553, 6928.542
876.035, 6952.101
876.517, 6979.489
876.999, 7007.154
877.481, 7033.354
877.963, 7036.151
878.446, 7014.088
878.928, 6991.371
879.410, 6981.080
879.892, 6979.404
880.374, 6984.684
880.856, 6994.825
881.338, 7000.648
881.820, 6988.154
882.302, 6981.426
882.785, 6997.755
883.267, 7028.305
883.749, 7031.794
884.231, 6998.119
884.713, 6985.521
885.195, 7024.520
885.677, 7085.574
886.159, 7109.835
886.641, 7104.986
887.124, 7094.011
887.606, 7085.742
888.088, 7075.726
888.570, 7058.634
889.052, 7038.710
889.534, 7025.392
890.016, 7017.857
890.498, 7020.098
890.981, 7034.811
891.463, 7056.633
891.945, 7082.243
892.427, 7107.675
892.909, 7113.004
893.391, 7080.684
893.873, 7054.744
894.355, 7080.887
894.838, 7126.353
895.320, 7149.008
895.802, 7114.575
896.284, 7099.764
896.766, 7112.752
897.248, 7134.828
897.730, 7147.510
898.212, 7150.875
898.695, 7143.912
899.177, 7125.221
899.659, 7107.772
900.141, 7104.386
900.623, 7108.085
901.105, 7112.036
901.587, 7115.360
902.069, 7118.955
902.551, 7118.707
903.034, 7124.504
903.516, 7149.958
903.998, 7195.252
904.480, 7204.380
904.962, 7176.427
905.444, 7142.247
905.926, 7117.852
906.408, 7104.151
906.890, 7104.783
907.373, 7119.066
907.855, 7134.753
908.337, 7156.627
908.819, 7169.258
909.301, 7165.377
909.783, 7147.173
910.265, 7126.648
910.747, 7103.320
911.229, 7091.034
911.712, 7104.548
912.194, 7126.477
912.676, 7133.012
913.158, 7128.879
913.640, 7128.089
914.122, 7140.722
914.604, 7151.670
915.086, 7156.813
915.568, 7157.474
916.051, 7156.461
916.533, 7153.834
917.015, 7148.025
917.497, 7137.060
917.979, 7126.901
918.461, 7125.645
918.943, 7131.373
919.425, 7141.519
919.908, 7163.900
920.390, 7175.440
920.872, 7153.525
921.354, 7127.880
921.836, 7129.283
922.318, 7163.777
922.800, 7195.560
923.282, 7223.605
923.765, 7242.416
924.247, 7238.890
924.729, 7224.922
925.211, 7219.764
925.693, 7225.985
926.175, 7238.831
926.657, 7267.981
927.139, 7292.464
927.622, 7299.302
928.104, 7287.752
928.586, 7274.434
929.068, 7258.498
929.550, 7247.175
930.032, 7244.883
930.514, 7250.633
930.996, 7268.163
931.478, 7293.875
931.961, 7311.080
932.443, 7305.653
932.925, 7296.963
933.407, 7291.774
933.889, 7289.525
934.371, 7288.055
934.853, 7286.890
935.335, 7289.279
935.817, 7296.768
936.300, 7307.087
936.782, 7321.777
937.264, 7335.986
937.746, 7339.228
938.228, 7320.476
938.710, 7300.851
939.192, 7275.518
939.674, 7259.371
940.156, 7274.992
940.639, 7333.668
941.121, 7363.307
941.603, 7354.279
942.085, 7334.174
942.567, 7329.671
943.049, 7335.382
943.531, 7347.333
944.013, 7367.317
944.495, 7370.288
944.978, 7318.573
945.460, 7272.192
945.942, 7269.235
946.424, 7310.883
946.906, 7336.546
947.388, 7345.502
947.870, 7345.758
948.352, 7337.131
948.835, 7325.834
949.317, 7323.042
949.799, 7326.521
950.281, 7327.043
950.763, 7307.702
951.245, 7301.059
951.727, 7320.136
952.209, 7356.317
952.692, 7394.011
953.174, 7434.055
953.656, 7448.559
954.138, 7422.846
954.620, 7385.718
955.102, 7371.766
955.584, 7371.354
956.066, 7368.451
956.549, 7350.305
957.031, 7345.796
957.513, 7369.285
957.995, 7397.731
958.477, 7408.232
958.959, 7400.125
959.441, 7408.577
959.923, 7436.609
960.405, 7462.049
960.888, 7461.297
961.370, 7451.496
961.852, 7450.667
962.334, 7460.328
962.816, 7470.181
963.298, 7477.908
963.780, 7485.912
964.262, 7496.538
964.744, 7507.634
965.227, 7505.074
965.709, 7490.948
966.191, 7487.848
966.673, 7521.184
967.155, 7554.572
967.637, 7554.536
968.119, 7532.921
968.601, 7514.737
969.083, 7499.733
969.566, 7497.755
970.048, 7515.436
970.530, 7537.816
971.012, 7540.170
971.494, 7527.590
971.976, 7523.767
972.458, 7533.591
972.940, 7544.514
973.422, 7539.165
973.905, 7536.686
974.387, 7560.743
974.869, 7623.040
975.351, 7646.699
975.833, 7619.672
976.315, 7587.540
976.797, 7576.211
977.279, 7581.217
977.762, 7595.739
978.244, 7616.550
978.726, 7628.669
979.208, 7607.275
979.690, 7592.493
980.172, 7616.397
980.654, 7658.583
981.136, 7661.573
981.619, 7612.966
982.101, 7589.600
982.583, 7613.731
983.065, 7654.082
983.547, 7672.252
984.029, 7674.597
984.511, 7670.156
984.993, 7655.649
985.476, 7650.211
985.958, 7670.665
986.440, 7693.508
986.922, 7703.491
987.404, 7700.298
987.886, 7687.988
988.368, 7665.907
988.850, 7647.680
989.332, 7641.380
989.815, 7645.241
990.297, 7662.682
990.779, 7690.699
991.261, 7710.967
991.743, 7717.604
992.225, 7718.228
992.707, 7711.126
993.189, 7702.001
993.672, 7707.122
994.154, 7723.702
994.636, 7735.586
995.118, 7735.751
995.600, 7735.040
996.082, 7745.820
996.564, 7758.283
997.046, 7758.751
997.528, 7735.386
998.011, 7728.732
998.493, 7741.949
998.975, 7762.488
999.457, 7780.328
999.939, 7797.026
1000.421, 7822.118
1000.903, 7854.110
1001.385, 7871.016
1001.867, 7834.337
1002.350, 7808.506
1002.832, 7838.032
1003.314, 7902.576
1003.796, 7922.503
1004.278, 7891.818
1004.760, 7872.336
1005.242, 7886.123
1005.724, 7914.101
1006.207, 7941.368
1006.689, 7962.388
1007.171, 7966.172
1007.653, 7934.396
1008.135, 7914.969
1008.617, 7914.263
1009.099, 7926.209
1009.581, 7953.235
1010.063, 7992.474
1010.546, 8005.414
1011.028, 7991.016
1011.510, 7973.948
1011.992, 7967.404
1012.474, 7968.871
1012.956, 7979.102
1013.438, 7996.719
1013.920, 8011.563
1014.403, 8023.602
1014.885, 8031.380
1015.367, 8033.546
1015.849, 8032.554
1016.331, 8031.083
1016.813, 8030.418
1017.295, 8033.704
1017.777, 8041.554
1018.259, 8054.431
1018.742, 8080.594
1019.224, 8106.082
1019.706, 8120.504
1020.188, 8124.201
1020.670, 8107.688
1021.152, 8068.544
1021.634, 8040.826
1022.116, 8064.001
1022.599, 8103.696
1023.081, 8123.271
1023.563, 8123.209
1024.045, 8117.270
1024.527, 8097.349
1025.009, 8087.983
1025.491, 8093.716
1025.973, 8113.410
1026.455, 8157.493
1026.938, 8216.091
1027.420, 8242.471
1027.902, 8214.644
1028.384, 8184.788
1028.866, 8190.264
1029.348, 8207.445
1029.830, 8211.372
1030.312, 8194.981
1030.794, 8202.880
1031.277, 8240.450
1031.759, 8273.716
1032.241, 8274.028
1032.723, 8257.810
1033.205, 8246.441
1033.687, 8241.652
1034.169, 8248.191
1034.651, 8291.756
1035.134, 8314.221
1035.616, 8288.739
1036.098, 8248.835
1036.580, 8266.763
1037.062, 8334.060
1037.544, 8369.119
1038.026, 8349.844
1038.508, 8329.941
1038.990, 8359.532
1039.473, 8404.043
1039.955, 8434.445
1040.437, 8448.348
1040.919, 8440.560
1041.401, 8403.163
1041.883, 8370.568
1042.365, 8363.870
1042.847, 8372.863
1043.329, 8384.444
1043.812, 8395.035
1044.294, 8394.008
1044.776, 8363.888
1045.258, 8338.948
1045.740, 8327.321
1046.222, 8324.502
1046.704, 8325.010
1047.186, 8328.945
1047.669, 8339.525
1048.151, 8357.666
1048.633, 8373.237
1049.115, 8372.047
1049.597, 8368.974
1050.079, 8382.142
1050.561, 8412.696
1051.043, 8416.227
1051.526, 8379.244
1052.008, 8355.893
1052.490, 8370.712
1052.972, 8404.937
1053.454, 8423.612
1053.936, 8431.945
1054.418, 8441.354
1054.900, 8455.292
1055.382, 8471.057
1055.865, 8494.679
1056.347, 8513.237
1056.829, 8511.693
1057.311, 8490.188
1057.793, 8484.705
1058.275, 8495.684
1058.757, 8507.289
1059.239, 8511.754
1059.721, 8509.267
1060.204, 8494.682
1060.686, 8472.512
1061.168, 8461.511
1061.650, 8464.281
1062.132, 8473.301
1062.614, 8489.286
1063.096, 8506.214
1063.578, 8516.550
1064.061, 8520.937
1064.543, 8521.250
1065.025, 8519.403
1065.507, 8505.777
1065.989, 8450.185
1066.471, 8413.129
1066.953, 8431.945
1067.435, 8496.840
1067.917, 8544.088
1068.400, 8574.313
1068.882, 8594.707
1069.364, 8599.544
1069.846, 8606.179
1070.328, 8627.540
1070.810, 8657.347
1071.292, 8685.894
1071.774, 8717.293
1072.256, 8726.396
1072.739, 8706.913
1073.221, 8687.425
1073.703, 8693.072
1074.185, 8717.078
1074.667, 8757.113
1075.149, 8810.994
1075.631, 8853.623
1076.114, 8890.919
1076.596, 8894.501
1077.078, 8839.406
1077.560, 8763.418
1078.042, 8763.497
1078.524, 8821.353
1079.006, 8864.296
1079.488, 8869.474
1079.970, 8868.783
1080.453, 8878.416
1080.935, 8890.347
1081.417, 8893.436
1081.899, 8885.368
1082.381, 8919.377
1082.863, 8998.832
1083.345, 9056.337
1083.827, 9020.984
1084.309, 8968.874
1084.792, 8978.405
1085.274, 9029.067
1085.756, 9068.828
1086.238, 9082.037
1086.720, 9101.899
1087.202, 9132.975
1087.684, 9166.619
1088.166, 9198.138
1088.649, 9223.115
1089.131, 9224.694
1089.613, 9202.230
1090.095, 9197.147
1090.577, 9236.458
1091.059, 9286.235
1091.541, 9345.740
1092.023, 9401.454
1092.505, 9402.684
1092.988, 9357.610
1093.470, 9317.617
1093.952, 9295.185
1094.434, 9291.006
1094.916, 9322.911
1095.398, 9361.588
1095.880, 9365.808
1096.362, 9320.015
1096.844, 9293.956
1097.327, 9356.601
1097.809, 9397.689
1098.291, 9418.415
1098.773, 9357.765
1099.255, 9402.192
1099.737, 9404.511
1100.219, 9405.100
1100.701, 9464.316
1101.184, 9415.528
1101.666, 9468.065
1102.148, 9467.234
1102.630, 9473.672
1103.112, 9489.447
1103.594, 9526.906
1104.076, 9585.378
1104.558, 9627.946
1105.041, 9629.685
1105.523, 9621.370
1106.005, 9608.861
1106.487, 9596.984
1106.969, 9600.780
1107.451, 9618.400
1107.933, 9639.455
1108.415, 9664.249
1108.897, 9680.237
1109.380, 9673.165
1109.862, 9657.888
1110.344, 9645.865
1110.826, 9637.462
1111.308, 9635.804
1111.790, 9641.007
1112.272, 9655.162
1112.754, 9695.900
1113.236, 9728.021
1113.719, 9696.726
1114.201, 9633.054
1114.683, 9595.060
1115.165, 9603.497
1115.647, 9616.248
1116.129, 9634.067
1116.611, 9649.737
1117.093, 9651.935
1117.576, 9649.130
1118.058, 9663.368
1118.540, 9690.833
1119.022, 9701.895
1119.504, 9665.934
1119.986, 9637.021
1120.468, 9622.920
1120.950, 9625.614
1121.432, 9661.565
1121.915, 9718.727
1122.397, 9747.769
1122.879, 9738.663
1123.361, 9718.479
1123.843, 9689.396
1124.325, 9667.256
1124.807, 9664.751
1125.289, 9676.691
1125.771, 9667.888
1126.254, 9639.899
1126.736, 9624.667
1127.218, 9636.053
1127.700, 9658.511
1128.182, 9690.684
1128.664, 9720.011
1129.146, 9728.872
1129.628, 9710.655
1130.111, 9707.331
1130.593, 9720.619
1131.075, 9733.048
1131.557, 9728.885
1132.039, 9720.298
1132.521, 9730.283
1133.003, 9746.358
1133.485, 9734.333
1133.968, 9654.195
1134.450, 9622.722
1134.932, 9662.223
1135.414, 9709.874
1135.896, 9689.297
1136.378, 9636.813
1136.860, 9622.797
1137.342, 9647.770
1137.824, 9668.427
1138.307, 9669.021
1138.789, 9665.355
1139.271, 9659.960
1139.753, 9652.792
1140.235, 9639.751
1140.717, 9624.748
1141.199, 9620.507
1141.681, 9629.885
1142.163, 9644.780
1142.646, 9674.154
1143.128, 9693.386
1143.610, 9689.946
1144.092, 9666.770
1144.574, 9630.601
1145.056, 9584.591
1145.538, 9552.111
1146.020, 9549.835
1146.503, 9545.763
1146.985, 9508.315
1147.467, 9469.134
1147.949, 9460.212
1148.431, 9485.088
1148.913, 9504.713
1149.395, 9519.408
1149.877, 9520.462
1150.359, 9489.438
1150.842, 9454.809
1151.324, 9434.647
1151.806, 9428.634
1152.288, 9438.945
1152.770, 9473.838
1153.252, 9488.443
1153.734, 9478.448
1154.216, 9458.444
1154.698, 9429.819
1155.181, 9405.888
1155.663, 9410.337
1156.145, 9436.362
1156.627, 9441.716
1157.109, 9415.066
1157.591, 9389.306
1158.073, 9368.520
1158.555, 9354.637
1159.038, 9354.074
1159.520, 9360.434
1160.002, 9364.710
1160.484, 9365.922
1160.966, 9361.397
1161.448, 9336.224
1161.930, 9326.148
1162.412, 9258.588
1162.895, 9294.480
1163.377, 9305.297
1163.859, 9292.335
1164.341, 9184.397
1164.823, 9199.102
1165.305, 9164.654
1165.787, 9128.197
1166.269, 9160.164
1166.751, 9066.041
1167.234, 9096.879
1167.716, 9068.725
1168.198, 9080.905
1168.680, 9085.746
1169.162, 9056.313
1169.644, 9026.359
1170.126, 9010.166
1170.608, 8994.530
1171.090, 8965.185
1171.573, 8924.559
1172.055, 8905.362
1172.537, 8906.461
1173.019, 8918.690
1173.501, 8950.503
1173.983, 8976.134
1174.465, 8978.916
1174.947, 8971.121
1175.430, 8966.756
1175.912, 8965.636
1176.394, 8933.854
1176.876, 8871.108
1177.358, 8807.696
1177.840, 8844.689
1178.322, 8857.306
1178.804, 8846.865
1179.286, 8744.284
1179.769, 8760.640
1180.251, 8729.358
1180.733, 8696.117
1181.215, 8729.260
1181.697, 8684.329
1182.179, 8731.641
1182.661, 8782.469
1183.143, 8756.620
1183.625, 8670.723
1184.108, 8642.407
1184.590, 8677.363
1185.072, 8699.966
1185.554, 8687.263
1186.036, 8665.558
1186.518, 8653.377
1187.000, 8650.201
1187.482, 8665.290
1187.965, 8700.375
1188.447, 8684.845
1188.929, 8611.709
1189.411, 8537.870
1189.893, 8477.643
1190.375, 8442.171
1190.857, 8466.686
1191.339, 8514.152
1191.822, 8533.274
1192.304, 8511.270
1192.786, 8489.663
1193.268, 8466.992
1193.750, 8453.104
1194.232, 8461.663
1194.714, 8474.152
1195.196, 8460.357
1195.678, 8434.781
1196.161, 8426.176
1196.643, 8448.658
1197.125, 8464.850
1197.607, 8475.755
1198.089, 8474.334
1198.571, 8446.708
1199.053, 8409.348
1199.535, 8378.210
1200.017, 8355.729
1200.500, 8348.635
1200.982, 8369.709
1201.464, 8376.831
1201.946, 8364.122
1202.428, 8348.438
1202.910, 8348.977
1203.392, 8355.456
1203.874, 8350.404
1204.357, 8336.632
1204.839, 8335.306
1205.321, 8359.565
1205.803, 8370.643
1206.285, 8359.629
1206.767, 8343.813
1207.249, 8342.621
1207.731, 8351.687
1208.214, 8370.197
1208.696, 8396.827
1209.178, 8406.681
1209.660, 8389.860
1210.142, 8375.463
1210.624, 8371.258
1211.106, 8369.391
1211.588, 8355.615
1212.070, 8337.672
1212.552, 8327.078
1213.035, 8325.590
1213.517, 8329.612
1213.999, 8340.479
1214.481, 8352.086
1214.963, 8364.968
1215.445, 8372.805
1215.927, 8356.322
1216.409, 8330.864
1216.892, 8322.411
1217.374, 8340.539
1217.856, 8356.928
1218.338, 8373.628
1218.820, 8376.257
1219.302, 8352.343
1219.784, 8318.856
1220.266, 8305.769
1220.749, 8305.210
1221.231, 8303.505
1221.713, 8297.715
1222.195, 8289.167
1222.677, 8275.678
1223.159, 8265.826
1223.641, 8262.896
1224.123, 8268.021
1224.605, 8291.056
1225.088, 8321.867
1225.570, 8340.607
1226.052, 8337.145
1226.534, 8328.184
1227.016, 8312.695
1227.498, 8294.868
1227.980, 8271.750
1228.462, 8251.831
1228.944, 8247.223
1229.427, 8257.563
1229.909, 8283.618
1230.391, 8351.849
1230.873, 8379.547
1231.355, 8353.767
1231.837, 8325.492
1232.319, 8352.887
1232.801, 8393.405
1233.284, 8374.252
1233.766, 8316.271
1234.248, 8290.377
1234.730, 8322.369
1235.212, 8348.347
1235.694, 8363.968
1236.176, 8370.651
1236.658, 8361.104
1237.141, 8349.361
1237.623, 8360.491
1238.105, 8386.512
1238.587, 8386.720
1239.069, 8341.485
1239.551, 8330.151
1240.033, 8369.112
1240.515, 8408.953
1240.997, 8392.629
1241.480, 8356.164
1241.962, 8334.711
1242.444, 8330.075
1242.926, 8334.541
1243.408, 8351.569
1243.890, 8358.170
1244.372, 8348.312
1244.854, 8340.474
1245.337, 8364.885
1245.819, 8392.024
1246.301, 8387.771
1246.783, 8355.029
1247.265, 8337.504
1247.747, 8334.959
1248.229, 8351.146
1248.711, 8391.211
1249.193, 8426.281
1249.676, 8422.329
1250.158, 8405.250
1250.640, 8396.648
1251.122, 8396.754
1251.604, 8401.790
1252.086, 8412.441
1252.568, 8419.480
1253.050, 8422.896
1253.532, 8412.978
1254.015, 8353.028
1254.497, 8301.380
1254.979, 8317.512
1255.461, 8386.067
1255.943, 8425.372
1256.425, 8436.184
1256.907, 8430.459
1257.389, 8405.646
1257.872, 8386.929
1258.354, 8400.786
1258.836, 8417.641
1259.318, 8414.069
1259.800, 8395.665
1260.282, 8396.770
1260.764, 8413.951
1261.246, 8425.876
1261.729, 8426.909
1262.211, 8419.263
1262.693, 8361.500
1263.175, 8344.786
1263.657, 8296.086
1264.139, 8356.366
1264.621, 8390.193
1265.103, 8398.987
1265.585, 8307.774
1266.068, 8345.699
1266.550, 8331.872
1267.032, 8315.922
1267.514, 8343.527
1267.996, 8344.482
1268.478, 8369.490
1268.960, 8363.332
1269.442, 8338.982
1269.924, 8332.985
1270.407, 8365.880
1270.889, 8396.603
1271.371, 8420.411
1271.853, 8437.295
1272.335, 8442.810
1272.817, 8443.893
1273.299, 8457.409
1273.781, 8478.425
1274.264, 8497.229
1274.746, 8513.895
1275.228, 8518.780
1275.710, 8507.405
1276.192, 8498.630
1276.674, 8513.998
1277.156, 8530.561
1277.638, 8501.797
1278.120, 8451.375
1278.603, 8424.578
1279.085, 8437.533
1279.567, 8449.689
1280.049, 8461.366
1280.531, 8471.789
1281.013, 8483.109
1281.495, 8490.297
1281.977, 8480.414
1282.459, 8465.902
1282.942, 8468.655
1283.424, 8494.517
1283.906, 8510.240
1284.388, 8515.621
1284.870, 8513.641
1285.352, 8502.327
1285.834, 8488.108
1286.316, 8478.001
1286.799, 8465.429
1287.281, 8435.134
1287.763, 8385.251
1288.245, 8387.717
1288.727, 8438.280
1289.209, 8484.393
1289.691, 8493.943
1290.173, 8495.128
1290.656, 8491.809
1291.138, 8492.982
1291.620, 8512.615
1292.102, 8545.795
1292.584, 8560.712
1293.066, 8558.503
1293.548, 8546.081
1294.030, 8521.110
1294.512, 8494.454
1294.995, 8456.853
1295.477, 8433.687
1295.959, 8463.873
1296.441, 8520.216
1296.923, 8530.356
1297.405, 8503.450
##END=



