##NAMES=Pavonite
##RRUFFID=R070566
##IDEAL CHEMISTRY=AgBi_3_S_5_
##LOCALITY=near Charcas, San Luis Potosi, Mexico
##OWNER=RRUFF
##SOURCE=James Shigley
##DESCRIPTION=Steel-gray metallic massive
##STATUS=The identification of this mineral has been confirmed only by single crystal X-ray diffraction.
##URL=rruff.info/R070566
138.9388, 1313.007
139.4209, 1339.458
139.9030, 1358.605
140.3851, 1374.326
140.8673, 1385.902
141.3494, 1394.969
141.8315, 1404.571
142.3136, 1415.761
142.7957, 1423.880
143.2778, 1425.052
143.7600, 1415.206
144.2421, 1413.589
144.7242, 1423.388
145.2063, 1441.413
145.6884, 1452.541
146.1705, 1447.300
146.6527, 1438.981
147.1348, 1426.221
147.6169, 1400.323
148.0990, 1385.834
148.5811, 1389.705
149.0633, 1413.859
149.5454, 1428.357
150.0275, 1428.620
150.5096, 1422.436
150.9917, 1419.032
151.4738, 1422.001
151.9560, 1423.865
152.4381, 1422.466
152.9202, 1414.990
153.4023, 1409.585
153.8844, 1409.431
154.3665, 1411.665
154.8487, 1408.498
155.3308, 1391.355
155.8129, 1374.730
156.2950, 1365.526
156.7771, 1373.637
157.2592, 1378.831
157.7414, 1376.968
158.2235, 1368.336
158.7056, 1360.840
159.1877, 1353.259
159.6698, 1348.373
160.1519, 1348.757
160.6341, 1358.231
161.1162, 1370.105
161.5983, 1385.150
162.0804, 1407.838
162.5625, 1417.511
163.0446, 1394.225
163.5268, 1354.388
164.0089, 1328.947
164.4910, 1346.980
164.9731, 1371.080
165.4552, 1377.100
165.9373, 1342.148
166.4195, 1312.342
166.9016, 1314.974
167.3837, 1343.732
167.8658, 1366.453
168.3479, 1362.899
168.8300, 1346.863
169.3122, 1332.485
169.7943, 1320.992
170.2764, 1315.631
170.7585, 1321.851
171.2406, 1340.628
171.7227, 1357.670
172.2049, 1362.997
172.6870, 1360.116
173.1691, 1355.451
173.6512, 1348.591
174.1333, 1343.119
174.6154, 1343.115
175.0976, 1350.497
175.5797, 1359.662
176.0618, 1367.466
176.5439, 1373.462
177.0260, 1376.162
177.5081, 1372.375
177.9903, 1365.088
178.4724, 1358.527
178.9545, 1351.454
179.4366, 1347.557
179.9187, 1354.207
180.4008, 1370.927
180.8830, 1387.228
181.3651, 1393.444
181.8472, 1392.015
182.3293, 1389.062
182.8114, 1384.720
183.2935, 1380.832
183.7757, 1381.676
184.2578, 1387.929
184.7399, 1395.585
185.2220, 1399.743
185.7041, 1400.982
186.1862, 1402.163
186.6684, 1404.387
187.1505, 1407.740
187.6326, 1413.617
188.1147, 1424.014
188.5968, 1433.787
189.0790, 1430.905
189.5611, 1415.637
190.0432, 1402.022
190.5253, 1404.606
191.0074, 1419.981
191.4895, 1428.234
191.9717, 1421.474
192.4538, 1406.317
192.9359, 1402.319
193.4180, 1410.715
193.9001, 1422.597
194.3822, 1429.723
194.8644, 1432.097
195.3465, 1431.852
195.8286, 1428.668
196.3107, 1423.032
196.7928, 1418.185
197.2749, 1413.714
197.7571, 1411.051
198.2392, 1412.543
198.7213, 1418.255
199.2034, 1426.836
199.6855, 1439.764
200.1676, 1457.170
200.6498, 1468.659
201.1319, 1472.200
201.6140, 1470.718
202.0961, 1472.879
202.5782, 1480.318
203.0603, 1483.922
203.5425, 1472.807
204.0246, 1444.170
204.5067, 1428.306
204.9888, 1433.610
205.4709, 1455.687
205.9530, 1470.519
206.4352, 1477.224
206.9173, 1478.841
207.3994, 1477.021
207.8815, 1470.651
208.3636, 1466.444
208.8457, 1466.327
209.3279, 1470.331
209.8100, 1475.585
210.2921, 1481.949
210.7742, 1489.876
211.2563, 1502.305
211.7384, 1522.991
212.2206, 1536.367
212.7027, 1533.855
213.1848, 1510.864
213.6669, 1494.336
214.1490, 1484.881
214.6311, 1481.535
215.1133, 1482.289
215.5954, 1487.925
216.0775, 1495.851
216.5596, 1506.408
217.0417, 1522.647
217.5238, 1530.002
218.0060, 1523.242
218.4881, 1506.204
218.9702, 1499.994
219.4523, 1507.771
219.9344, 1520.781
220.4165, 1533.975
220.8987, 1550.973
221.3808, 1558.183
221.8629, 1549.366
222.3450, 1524.823
222.8271, 1511.796
223.3092, 1514.598
223.7914, 1523.961
224.2735, 1529.822
224.7556, 1530.763
225.2377, 1531.474
225.7198, 1533.391
226.2020, 1536.956
226.6841, 1539.374
227.1662, 1541.489
227.6483, 1541.878
228.1304, 1537.062
228.6125, 1521.843
229.0947, 1510.480
229.5768, 1509.081
230.0589, 1522.768
230.5410, 1532.137
231.0231, 1535.570
231.5052, 1535.000
231.9874, 1536.006
232.4695, 1541.494
232.9516, 1544.240
233.4337, 1539.159
233.9158, 1518.684
234.3979, 1507.313
234.8801, 1510.102
235.3622, 1523.842
235.8443, 1531.171
236.3264, 1529.895
236.8085, 1524.943
237.2906, 1519.243
237.7728, 1511.707
238.2549, 1505.541
238.7370, 1501.053
239.2191, 1498.264
239.7012, 1497.581
240.1833, 1500.810
240.6655, 1504.325
241.1476, 1504.466
241.6297, 1499.483
242.1118, 1494.303
242.5939, 1490.137
243.0760, 1487.267
243.5582, 1482.972
244.0403, 1477.024
244.5224, 1469.871
245.0045, 1461.990
245.4866, 1453.096
245.9688, 1444.030
246.4509, 1434.515
246.9330, 1423.348
247.4151, 1416.655
247.8972, 1417.324
248.3793, 1420.905
248.8615, 1418.263
249.3436, 1403.092
249.8257, 1391.673
250.3078, 1392.467
250.7899, 1416.527
251.2720, 1425.098
251.7542, 1410.679
252.2363, 1382.409
252.7184, 1366.893
253.2005, 1372.324
253.6826, 1378.415
254.1647, 1373.471
254.6469, 1349.252
255.1290, 1333.082
255.6111, 1328.873
256.0932, 1334.203
256.5753, 1339.151
257.0574, 1346.479
257.5396, 1349.506
258.0217, 1341.979
258.5038, 1316.242
258.9859, 1298.503
259.4680, 1295.766
259.9501, 1305.739
260.4323, 1304.528
260.9144, 1284.910
261.3965, 1264.090
261.8786, 1258.071
262.3607, 1273.333
262.8428, 1287.618
263.3250, 1297.583
263.8071, 1303.246
264.2892, 1303.735
264.7713, 1297.476
265.2534, 1288.096
265.7355, 1280.092
266.2177, 1275.141
266.6998, 1266.510
267.1819, 1249.398
267.6640, 1222.830
268.1461, 1209.010
268.6282, 1211.911
269.1104, 1222.782
269.5925, 1230.392
270.0746, 1233.812
270.5567, 1236.417
271.0388, 1239.137
271.5209, 1241.979
272.0031, 1245.501
272.4852, 1251.119
272.9673, 1255.811
273.4494, 1253.290
273.9315, 1241.160
274.4136, 1230.123
274.8958, 1227.056
275.3779, 1234.742
275.8600, 1229.787
276.3421, 1206.367
276.8242, 1176.455
277.3063, 1166.235
277.7885, 1180.044
278.2706, 1195.468
278.7527, 1201.243
279.2348, 1196.496
279.7169, 1190.109
280.1990, 1182.296
280.6812, 1173.354
281.1633, 1163.211
281.6454, 1151.108
282.1275, 1141.081
282.6096, 1136.286
283.0917, 1136.873
283.5739, 1137.510
284.0560, 1137.834
284.5381, 1137.724
285.0202, 1137.708
285.5023, 1138.222
285.9844, 1135.849
286.4666, 1126.149
286.9487, 1109.541
287.4308, 1096.003
287.9129, 1086.981
288.3950, 1082.201
288.8771, 1085.011
289.3593, 1096.651
289.8414, 1102.363
290.3235, 1082.148
290.8056, 1040.377
291.2877, 1014.244
291.7699, 1016.255
292.2520, 1034.874
292.7341, 1042.446
293.2162, 1038.569
293.6983, 1031.372
294.1805, 1028.066
294.6626, 1027.696
295.1447, 1025.696
295.6268, 1020.755
296.1089, 1013.519
296.5910, 1003.408
297.0732, 990.2983
297.5553, 979.6838
298.0374, 980.2782
298.5195, 988.3641
299.0016, 991.2614
299.4837, 981.7806
299.9659, 966.5515
300.4480, 957.0385
300.9301, 953.3565
301.4122, 951.6112
301.8943, 948.2856
302.3764, 944.2235
302.8586, 941.5384
303.3407, 941.6460
303.8228, 943.2839
304.3049, 944.7999
304.7870, 946.2142
305.2691, 947.7097
305.7513, 950.0607
306.2334, 952.5985
306.7155, 954.0554
307.1976, 953.3388
307.6797, 951.5562
308.1618, 950.2328
308.6440, 949.3909
309.1261, 947.4834
309.6082, 942.1270
310.0903, 934.9996
310.5724, 928.9960
311.0545, 926.7565
311.5367, 925.0922
312.0188, 919.6646
312.5009, 909.9607
312.9830, 903.9873
313.4651, 912.2638
313.9472, 926.5408
314.4294, 934.6815
314.9115, 925.4960
315.3936, 913.2109
315.8757, 906.1834
316.3578, 905.0577
316.8399, 907.6763
317.3221, 918.5223
317.8042, 931.0875
318.2863, 937.0932
318.7684, 929.5911
319.2505, 917.8777
319.7326, 904.8963
320.2148, 890.4213
320.6969, 879.1821
321.1790, 874.3127
321.6611, 873.0819
322.1432, 871.9857
322.6253, 870.4977
323.1075, 868.4902
323.5896, 865.0583
324.0717, 859.4177
324.5538, 856.6008
325.0359, 860.4136
325.5180, 866.7806
326.0002, 870.7598
326.4823, 868.2766
326.9644, 866.3715
327.4465, 867.5012
327.9286, 872.7711
328.4107, 877.0464
328.8929, 882.9816
329.3750, 886.8094
329.8571, 883.9898
330.3392, 862.6156
330.8213, 846.2792
331.3034, 841.5505
331.7856, 852.4073
332.2677, 858.8265
332.7498, 858.0259
333.2319, 854.1924
333.7140, 852.5372
334.1961, 855.4215
334.6783, 857.1555
335.1604, 855.9846
335.6425, 851.1904
336.1246, 847.5048
336.6067, 845.0965
337.0888, 843.6275
337.5710, 842.6117
338.0531, 841.6908
338.5352, 841.9962
339.0173, 843.9887
339.4994, 847.7842
339.9815, 851.9164
340.4637, 856.5110
340.9458, 861.2303
341.4279, 867.3317
341.9100, 876.8287
342.3921, 878.7211
342.8742, 865.5353
343.3564, 838.7588
343.8385, 827.1006
344.3206, 833.9977
344.8027, 847.2917
345.2848, 851.9349
345.7669, 847.5726
346.2491, 845.7916
346.7312, 852.7220
347.2133, 865.5675
347.6954, 869.8413
348.1775, 864.6395
348.6596, 855.8643
349.1418, 848.9312
349.6239, 843.6987
350.1060, 839.0545
350.5881, 834.9281
351.0702, 830.9742
351.5523, 825.3438
352.0345, 817.7626
352.5166, 812.1722
352.9987, 813.0641
353.4808, 818.8751
353.9629, 825.4871
354.4450, 833.4874
354.9272, 840.2684
355.4093, 840.8682
355.8914, 835.4600
356.3735, 830.4124
356.8556, 832.5661
357.3377, 837.9304
357.8199, 840.3292
358.3020, 836.4639
358.7841, 829.8015
359.2662, 821.3921
359.7483, 811.6528
360.2304, 805.0308
360.7126, 806.2822
361.1947, 811.0820
361.6768, 815.0394
362.1589, 817.3018
362.6410, 817.8709
363.1231, 815.0988
363.6053, 809.7127
364.0874, 806.8057
364.5695, 811.4447
365.0516, 817.6364
365.5337, 820.8799
366.0158, 817.4376
366.4980, 813.7264
366.9801, 810.2188
367.4622, 807.3138
367.9443, 807.1841
368.4264, 816.0096
368.9085, 823.7747
369.3907, 825.0784
369.8728, 808.7241
370.3549, 798.5076
370.8370, 798.1511
371.3191, 805.6507
371.8012, 813.6580
372.2834, 828.6779
372.7655, 838.1542
373.2476, 835.3307
373.7297, 805.1097
374.2119, 790.0126
374.6940, 798.2687
375.1761, 820.1106
375.6582, 829.1984
376.1403, 818.9312
376.6224, 807.2037
377.1046, 801.6840
377.5867, 788.4728
378.0688, 807.7059
378.5509, 818.6266
379.0330, 821.6817
379.5151, 793.3125
379.9973, 805.5212
380.4794, 801.4681
380.9615, 796.7482
381.4436, 814.6682
381.9257, 790.8695
382.4078, 808.4304
382.8900, 809.4813
383.3721, 818.0884
383.8542, 810.3332
384.3363, 807.6318
384.8184, 821.2979
385.3005, 825.9012
385.7827, 816.2626
386.2648, 825.3500
386.7469, 800.9797
387.2290, 805.9691
387.7111, 823.6257
388.1932, 814.8096
388.6754, 824.1962
389.1575, 826.6503
389.6396, 797.5988
390.1217, 823.3385
390.6038, 825.3828
391.0859, 803.0971
391.5681, 826.9595
392.0502, 808.0280
392.5323, 804.3712
393.0144, 818.6005
393.4965, 820.7567
393.9786, 818.7220
394.4608, 818.3677
394.9429, 825.5508
395.4250, 834.5305
395.9071, 840.0950
396.3892, 837.0563
396.8713, 834.3226
397.3535, 838.2350
397.8356, 846.3161
398.3177, 846.4823
398.7998, 823.4249
399.2819, 799.6955
399.7640, 788.2326
400.2462, 801.3890
400.7283, 812.8549
401.2104, 819.6877
401.6925, 823.0228
402.1746, 826.7197
402.6567, 833.0446
403.1389, 837.5710
403.6210, 838.5583
404.1031, 835.0947
404.5852, 829.6586
405.0673, 819.1472
405.5494, 808.1833
406.0316, 806.9882
406.5137, 819.9055
406.9958, 832.6210
407.4779, 839.8179
407.9600, 840.9482
408.4421, 841.2942
408.9243, 839.7445
409.4064, 839.4448
409.8885, 848.2254
410.3706, 867.2962
410.8527, 877.5227
411.3348, 868.4238
411.8170, 844.7178
412.2991, 827.5820
412.7812, 817.4408
413.2633, 811.6302
413.7454, 806.8856
414.2275, 804.0712
414.7097, 807.2639
415.1918, 821.9383
415.6739, 840.0571
416.1560, 849.3817
416.6381, 850.2916
417.1202, 846.8175
417.6024, 839.4281
418.0845, 830.1715
418.5666, 821.3431
419.0487, 811.1832
419.5308, 805.0819
420.0129, 811.5529
420.4951, 826.6068
420.9772, 836.7471
421.4593, 829.1934
421.9414, 817.8361
422.4235, 812.6930
422.9056, 817.0145
423.3878, 824.1437
423.8699, 837.7169
424.3520, 852.1798
424.8341, 856.8716
425.3162, 835.7066
425.7983, 816.5906
426.2805, 810.8205
426.7626, 824.8873
427.2447, 834.8388
427.7268, 840.1757
428.2089, 840.9141
428.6910, 836.6072
429.1732, 821.3116
429.6553, 809.7834
430.1374, 806.1837
430.6195, 810.8028
431.1016, 813.3398
431.5837, 812.5149
432.0659, 811.5499
432.5480, 813.9550
433.0301, 820.6364
433.5122, 826.2004
433.9943, 830.2372
434.4764, 832.2435
434.9586, 827.8966
435.4407, 815.8435
435.9228, 807.6631
436.4049, 818.0657
436.8870, 842.2408
437.3691, 852.0116
437.8513, 839.4828
438.3334, 819.4664
438.8155, 813.4483
439.2976, 819.6158
439.7797, 828.6702
440.2618, 839.0341
440.7440, 847.6711
441.2261, 849.9053
441.7082, 844.8149
442.1903, 835.9997
442.6724, 819.6707
443.1545, 802.2448
443.6367, 795.1656
444.1188, 815.0892
444.6009, 837.1334
445.0830, 845.3724
445.5651, 838.7043
446.0472, 833.7728
446.5294, 840.2067
447.0115, 849.4398
447.4936, 853.7453
447.9757, 843.0424
448.4578, 836.6059
448.9399, 839.8721
449.4221, 851.8315
449.9042, 862.0084
450.3863, 871.8921
450.8684, 878.5090
451.3505, 879.7458
451.8326, 870.7176
452.3148, 866.3008
452.7969, 868.8043
453.2790, 875.1409
453.7611, 877.9348
454.2432, 876.3663
454.7253, 873.7993
455.2075, 872.1955
455.6896, 871.6802
456.1717, 866.6141
456.6538, 855.1326
457.1360, 844.3845
457.6181, 844.7380
458.1002, 855.4312
458.5823, 867.9640
459.0644, 881.6954
459.5465, 894.3764
460.0287, 900.8033
460.5108, 900.9335
460.9929, 898.3824
461.4750, 893.2990
461.9571, 888.0153
462.4392, 887.1039
462.9214, 894.8693
463.4035, 902.7525
463.8856, 901.0967
464.3677, 893.0669
464.8498, 889.0526
465.3319, 902.8701
465.8141, 916.5875
466.2962, 915.7882
466.7783, 890.8046
467.2604, 872.0797
467.7425, 873.7512
468.2246, 886.0643
468.7068, 894.4705
469.1889, 889.2087
469.6710, 887.2988
470.1531, 895.6996
470.6352, 916.4851
471.1173, 928.9938
471.5995, 930.8991
472.0816, 926.7552
472.5637, 919.8096
473.0458, 908.9127
473.5279, 897.9991
474.0100, 886.0417
474.4922, 874.8246
474.9743, 873.4651
475.4564, 884.3103
475.9385, 894.2251
476.4206, 893.2774
476.9027, 882.5421
477.3849, 873.9818
477.8670, 869.1216
478.3491, 865.2115
478.8312, 855.1642
479.3133, 841.2439
479.7954, 834.4981
480.2776, 847.2906
480.7597, 867.2149
481.2418, 877.0945
481.7239, 876.3087
482.2060, 871.6177
482.6881, 866.2208
483.1703, 860.3802
483.6524, 854.3976
484.1345, 845.3198
484.6166, 839.0891
485.0987, 840.8253
485.5808, 848.6232
486.0630, 853.3820
486.5451, 850.8276
487.0272, 845.6168
487.5093, 839.6230
487.9914, 828.7452
488.4735, 824.8835
488.9557, 834.9560
489.4378, 850.0554
489.9199, 854.3804
490.4020, 840.1588
490.8841, 828.3766
491.3662, 826.1926
491.8484, 833.9610
492.3305, 837.0579
492.8126, 833.7679
493.2947, 829.7535
493.7768, 831.3004
494.2589, 838.5538
494.7411, 844.4089
495.2232, 847.7952
495.7053, 848.6738
496.1874, 845.4183
496.6695, 838.5215
497.1516, 833.3569
497.6338, 834.1392
498.1159, 838.8774
498.5980, 845.2717
499.0801, 854.0323
499.5622, 859.9877
500.0443, 855.5097
500.5265, 845.7861
501.0086, 839.8484
501.4907, 848.7420
501.9728, 856.3767
502.4549, 850.9755
502.9370, 832.3506
503.4192, 819.3824
503.9013, 822.4586
504.3834, 830.2773
504.8655, 834.8894
505.3476, 833.7602
505.8297, 831.2054
506.3119, 825.9272
506.7940, 819.4296
507.2761, 815.9962
507.7582, 816.5473
508.2403, 818.6838
508.7224, 822.2319
509.2046, 827.6993
509.6867, 829.2008
510.1688, 824.7654
510.6509, 820.8022
511.1330, 829.0034
511.6151, 848.6097
512.0973, 859.0548
512.5794, 850.3577
513.0615, 832.0559
513.5436, 824.8973
514.0258, 828.1160
514.5079, 831.2203
514.9900, 822.6198
515.4721, 810.4258
515.9542, 807.5505
516.4363, 818.9411
516.9185, 831.1796
517.4006, 835.5369
517.8827, 834.1288
518.3648, 830.7853
518.8469, 823.4469
519.3290, 817.6650
519.8112, 817.3244
520.2933, 823.0873
520.7754, 825.6440
521.2575, 819.6827
521.7396, 812.4141
522.2217, 809.1859
522.7039, 814.4036
523.1860, 816.2935
523.6681, 811.6572
524.1502, 803.8505
524.6323, 804.1236
525.1144, 816.0478
525.5966, 825.1948
526.0787, 820.6741
526.5608, 802.9326
527.0429, 804.7900
527.5250, 830.5969
528.0071, 857.3298
528.4893, 851.9860
528.9714, 822.8320
529.4535, 804.0766
529.9356, 812.2484
530.4177, 829.7874
530.8998, 834.5448
531.3820, 828.2208
531.8641, 818.9090
532.3462, 807.5603
532.8283, 797.7900
533.3104, 793.0427
533.7925, 794.7707
534.2747, 798.6638
534.7568, 803.9811
535.2389, 810.2174
535.7210, 816.6471
536.2031, 827.1479
536.6852, 833.5891
537.1674, 831.9518
537.6495, 822.8331
538.1316, 818.4197
538.6137, 821.5771
539.0958, 825.7297
539.5779, 827.3420
540.0601, 826.6455
540.5422, 821.2430
541.0243, 808.6536
541.5064, 794.8328
541.9885, 790.7361
542.4706, 796.3478
542.9528, 804.2529
543.4349, 815.2390
543.9170, 825.4355
544.3991, 822.3630
544.8812, 806.3295
545.3633, 792.6602
545.8455, 798.8248
546.3276, 813.1991
546.8097, 819.1360
547.2918, 808.4459
547.7739, 796.5676
548.2560, 788.6101
548.7382, 786.0026
549.2203, 791.8459
549.7024, 823.6168
550.1845, 849.3439
550.6666, 851.6025
551.1487, 823.7492
551.6309, 808.7758
552.1130, 816.3062
552.5951, 829.6138
553.0772, 835.7241
553.5593, 831.9544
554.0414, 828.0445
554.5236, 825.1229
555.0057, 822.5824
555.4878, 817.9584
555.9699, 810.8647
556.4520, 806.0280
556.9341, 807.6292
557.4163, 813.6336
557.8984, 815.6429
558.3805, 813.2271
558.8626, 811.2852
559.3447, 815.8805
559.8268, 823.8462
560.3090, 829.7202
560.7911, 833.0694
561.2732, 832.4379
561.7553, 822.3732
562.2374, 806.9059
562.7195, 797.7794
563.2017, 805.0983
563.6838, 814.8682
564.1659, 821.0002
564.6480, 822.4677
565.1301, 822.5337
565.6122, 820.6306
566.0944, 817.9854
566.5765, 815.3101
567.0586, 811.1270
567.5407, 810.8365
568.0228, 817.0330
568.5049, 826.5298
568.9871, 828.6552
569.4692, 822.3588
569.9513, 817.0188
570.4334, 820.2120
570.9155, 828.7825
571.3976, 829.6708
571.8798, 821.9477
572.3619, 813.4815
572.8440, 812.2297
573.3261, 815.4030
573.8082, 818.3289
574.2903, 820.7532
574.7725, 820.9990
575.2546, 815.7902
575.7367, 807.3316
576.2188, 801.6920
576.7009, 803.0983
577.1830, 806.1057
577.6652, 809.1153
578.1473, 812.6800
578.6294, 812.7739
579.1115, 806.9501
579.5936, 799.6920
580.0757, 794.6457
580.5579, 792.2354
581.0400, 790.7592
581.5221, 789.5009
582.0042, 789.4767
582.4863, 795.1050
582.9684, 806.7139
583.4506, 815.1323
583.9327, 812.2368
584.4148, 802.9576
584.8969, 801.1272
585.3790, 807.0645
585.8611, 815.7524
586.3433, 828.7500
586.8254, 840.2387
587.3075, 841.2031
587.7896, 822.0539
588.2717, 804.3710
588.7538, 798.6045
589.2360, 802.1742
589.7181, 809.5767
590.2002, 828.6146
590.6823, 842.2797
591.1644, 842.0668
591.6465, 827.0035
592.1287, 818.1810
592.6108, 818.8480
593.0929, 821.5718
593.5750, 820.3917
594.0571, 814.2433
594.5392, 812.0535
595.0214, 816.0674
595.5035, 821.5145
595.9856, 820.0596
596.4677, 812.3190
596.9498, 803.1067
597.4319, 789.6543
597.9141, 778.5809
598.3962, 784.3329
598.8783, 804.7598
599.3604, 822.0532
599.8425, 822.2937
600.3246, 815.7485
600.8068, 811.3118
601.2889, 811.1400
601.7710, 811.3570
602.2531, 812.8116
602.7352, 813.3715
603.2173, 809.7643
603.6995, 792.4987
604.1816, 783.9919
604.6637, 791.3130
605.1458, 811.0064
605.6279, 823.8586
606.1100, 829.7207
606.5922, 829.3068
607.0743, 819.7719
607.5564, 802.3483
608.0385, 791.1105
608.5206, 786.6611
609.0027, 787.5845
609.4849, 797.2002
609.9670, 810.9026
610.4491, 817.3120
610.9312, 808.4324
611.4133, 797.9031
611.8954, 795.9406
612.3776, 800.8395
612.8597, 807.8989
613.3418, 820.0682
613.8239, 829.6678
614.3060, 831.3438
614.7881, 822.8704
615.2703, 819.8891
615.7524, 828.9384
616.2345, 838.1007
616.7166, 836.9595
617.1987, 819.1570
617.6808, 814.4553
618.1630, 830.2694
618.6451, 852.7031
619.1272, 853.8029
619.6093, 834.4445
620.0914, 817.9842
620.5735, 815.7537
621.0557, 820.9397
621.5378, 821.5773
622.0199, 818.1688
622.5020, 814.9379
622.9841, 816.6890
623.4662, 818.7404
623.9484, 815.8597
624.4305, 805.2458
624.9126, 797.1238
625.3947, 796.7031
625.8768, 799.8543
626.3589, 801.7448
626.8411, 797.9408
627.3232, 798.5481
627.8053, 807.0461
628.2874, 820.3338
628.7695, 827.4774
629.2516, 826.8790
629.7338, 825.9286
630.2159, 829.1373
630.6980, 835.2913
631.1801, 835.6349
631.6622, 829.8836
632.1443, 823.0174
632.6265, 818.4218
633.1086, 816.0663
633.5907, 816.4613
634.0728, 820.8726
634.5549, 824.9850
635.0370, 827.5435
635.5192, 827.5792
636.0013, 823.4764
636.4834, 806.5319
636.9655, 793.7563
637.4476, 791.7348
637.9297, 799.3727
638.4119, 806.9648
638.8940, 814.9807
639.3761, 822.2561
639.8582, 828.1754
640.3403, 832.6131
640.8224, 837.7391
641.3046, 844.4330
641.7867, 848.6232
642.2688, 843.7106
642.7509, 831.9296
643.2330, 821.6993
643.7151, 814.3258
644.1973, 810.7177
644.6794, 814.4637
645.1615, 822.7626
645.6436, 829.0135
646.1257, 825.8010
646.6078, 823.7164
647.0900, 830.8244
647.5721, 847.0528
648.0542, 856.3424
648.5363, 853.6076
649.0184, 845.7153
649.5005, 834.0903
649.9827, 815.0951
650.4648, 806.2486
650.9469, 811.1954
651.4290, 820.0587
651.9111, 818.1278
652.3932, 806.3586
652.8754, 802.0420
653.3575, 811.7281
653.8396, 826.8046
654.3217, 834.3618
654.8038, 836.2323
655.2859, 839.0624
655.7681, 851.3398
656.2502, 862.0171
656.7323, 860.4114
657.2144, 846.6420
657.6965, 836.7466
658.1786, 840.0016
658.6608, 845.5464
659.1429, 846.3295
659.6250, 838.3495
660.1071, 835.3182
660.5892, 840.4340
661.0714, 846.7979
661.5535, 844.5333
662.0356, 832.7349
662.5178, 824.1339
662.9999, 822.1239
663.4820, 823.7242
663.9641, 822.7149
664.4462, 819.9107
664.9283, 819.1259
665.4105, 825.6617
665.8926, 833.0068
666.3747, 834.2675
666.8568, 829.5320
667.3389, 824.8259
667.8210, 821.4990
668.3032, 819.9668
668.7853, 820.6600
669.2674, 824.7422
669.7495, 828.8190
670.2316, 833.4734
670.7137, 837.5779
671.1959, 839.2334
671.6780, 837.6168
672.1601, 838.5292
672.6422, 844.4267
673.1243, 851.4264
673.6064, 850.2294
674.0886, 842.1111
674.5707, 834.6967
675.0528, 831.6120
675.5349, 831.4186
676.0170, 833.1111
676.4991, 836.4868
676.9813, 840.0494
677.4634, 845.5353
677.9455, 849.1259
678.4276, 848.1094
678.9097, 840.7136
679.3918, 832.4261
679.8740, 819.3541
680.3561, 809.0333
680.8382, 810.5285
681.3203, 828.0048
681.8024, 838.0521
682.2845, 835.8755
682.7667, 828.0975
683.2488, 827.3325
683.7309, 832.4546
684.2130, 836.1863
684.6951, 833.9921
685.1772, 829.8709
685.6594, 827.9654
686.1415, 828.1585
686.6236, 829.9780
687.1057, 836.6509
687.5878, 842.0892
688.0699, 840.8549
688.5521, 829.7400
689.0342, 826.7468
689.5163, 840.8964
689.9984, 855.5289
690.4805, 857.5782
690.9626, 843.1602
691.4448, 832.0983
691.9269, 825.2284
692.4090, 822.7864
692.8911, 829.1915
693.3732, 841.9318
693.8553, 846.9514
694.3375, 834.1311
694.8196, 819.0344
695.3017, 820.3478
695.7838, 833.6119
696.2659, 846.2245
696.7480, 853.4231
697.2302, 857.6478
697.7123, 860.1067
698.1944, 860.8414
698.6765, 858.2646
699.1586, 848.7373
699.6407, 840.3497
700.1229, 838.6912
700.6050, 845.8511
701.0871, 845.7477
701.5692, 836.5942
702.0513, 826.1287
702.5334, 823.5298
703.0156, 826.9218
703.4977, 829.8506
703.9798, 831.4148
704.4619, 831.0005
704.9440, 824.5717
705.4261, 816.2744
705.9083, 813.5809
706.3904, 824.1584
706.8725, 835.6672
707.3546, 846.2492
707.8367, 854.8586
708.3188, 857.1025
708.8010, 848.7592
709.2831, 840.8282
709.7652, 837.1880
710.2473, 837.6902
710.7294, 840.2867
711.2115, 845.5063
711.6937, 848.4737
712.1758, 841.4960
712.6579, 829.9986
713.1400, 828.2543
713.6221, 839.3463
714.1042, 848.0915
714.5864, 836.9945
715.0685, 820.3215
715.5506, 814.3998
716.0327, 836.7759
716.5148, 851.3835
716.9969, 844.3691
717.4791, 827.9250
717.9612, 820.9391
718.4433, 826.7776
718.9254, 833.6074
719.4075, 840.2802
719.8896, 845.2613
720.3718, 841.3233
720.8539, 829.0453
721.3360, 819.8672
721.8181, 822.1984
722.3002, 830.0970
722.7823, 836.7842
723.2645, 841.9987
723.7466, 844.9694
724.2287, 845.0704
724.7108, 842.9315
725.1929, 838.2540
725.6750, 829.6171
726.1572, 823.5103
726.6393, 819.1162
727.1214, 818.3596
727.6035, 824.7472
728.0856, 840.5716
728.5677, 848.1687
729.0499, 843.7167
729.5320, 836.5491
730.0141, 844.0640
730.4962, 860.8479
730.9783, 868.2861
731.4604, 854.0878
731.9426, 837.0245
732.4247, 834.2335
732.9068, 840.8813
733.3889, 845.4611
733.8710, 839.4086
734.3531, 835.5197
734.8353, 841.3431
735.3174, 854.5334
735.7995, 858.1874
736.2816, 847.5002
736.7637, 837.8903
737.2458, 838.7653
737.7280, 848.4434
738.2101, 850.0609
738.6922, 843.3264
739.1743, 835.0985
739.6564, 827.6113
740.1385, 823.5602
740.6207, 829.1790
741.1028, 847.6136
741.5849, 862.9016
742.0670, 864.6960
742.5491, 860.4723
743.0313, 857.5043
743.5134, 856.4816
743.9955, 857.4517
744.4776, 862.2879
744.9597, 867.5513
745.4418, 866.7443
745.9240, 858.9361
746.4061, 854.8932
746.8882, 858.3687
747.3703, 865.2998
747.8524, 870.0412
748.3345, 872.3470
748.8167, 871.2603
749.2988, 865.0356
749.7809, 856.4500
750.2630, 843.5742
750.7451, 828.4382
751.2272, 822.4476
751.7094, 838.0098
752.1915, 853.8057
752.6736, 862.2698
753.1557, 863.2852
753.6378, 862.0424
754.1199, 857.5719
754.6021, 854.1770
755.0842, 855.8886
755.5663, 861.4442
756.0484, 866.7171
756.5305, 871.7831
757.0126, 872.2530
757.4948, 858.9346
757.9769, 841.5111
758.4590, 831.2618
758.9411, 833.1552
759.4232, 836.9279
759.9053, 841.0887
760.3875, 845.0168
760.8696, 847.7937
761.3517, 847.8759
761.8338, 851.2195
762.3159, 860.6992
762.7980, 870.8885
763.2802, 870.3458
763.7623, 860.0377
764.2444, 849.2070
764.7265, 838.3121
765.2086, 831.8307
765.6907, 839.7849
766.1729, 857.0781
766.6550, 868.7591
767.1371, 863.5432
767.6192, 856.1259
768.1013, 851.6840
768.5834, 850.5026
769.0656, 852.4196
769.5477, 859.5740
770.0298, 865.9467
770.5119, 869.6151
770.9940, 870.4406
771.4761, 864.3784
771.9583, 851.0219
772.4404, 841.3658
772.9225, 849.8234
773.4046, 864.9288
773.8867, 868.6443
774.3688, 858.0048
774.8510, 848.2202
775.3331, 846.2936
775.8152, 848.7874
776.2973, 853.5156
776.7794, 864.4725
777.2615, 868.4529
777.7437, 862.9777
778.2258, 853.6518
778.7079, 845.8571
779.1900, 839.5762
779.6721, 836.4720
780.1542, 837.3135
780.6364, 839.7506
781.1185, 837.8489
781.6006, 835.6085
782.0827, 841.6083
782.5648, 869.7614
783.0469, 893.3862
783.5291, 898.5092
784.0112, 890.4336
784.4933, 880.6481
784.9754, 865.0563
785.4575, 856.4778
785.9396, 860.5415
786.4218, 872.1082
786.9039, 873.6965
787.3860, 865.1198
787.8681, 855.9121
788.3502, 849.8687
788.8323, 846.2370
789.3145, 843.1940
789.7966, 841.2393
790.2787, 842.9639
790.7608, 855.5916
791.2429, 867.2123
791.7250, 870.1002
792.2072, 863.2235
792.6893, 858.8004
793.1714, 857.4960
793.6535, 857.9645
794.1356, 861.0408
794.6177, 866.5731
795.0999, 863.9843
795.5820, 852.5513
796.0641, 841.9847
796.5462, 842.8792
797.0283, 849.2596
797.5104, 851.7039
797.9926, 848.4902
798.4747, 845.3687
798.9568, 845.8351
799.4389, 847.1841
799.9210, 846.9496
800.4031, 842.8196
800.8853, 842.1895
801.3674, 847.0532
801.8495, 852.6026
802.3316, 850.7691
802.8137, 842.5331
803.2958, 845.8538
803.7780, 867.0973
804.2601, 887.5475
804.7422, 881.0851
805.2243, 860.5410
805.7064, 847.5190
806.1885, 856.1288
806.6707, 863.4272
807.1528, 858.6537
807.6349, 848.6568
808.1170, 846.0106
808.5991, 854.9230
809.0812, 861.2683
809.5634, 861.1766
810.0455, 858.7171
810.5276, 865.4395
811.0097, 879.5620
811.4918, 888.0086
811.9739, 883.6089
812.4561, 873.1572
812.9382, 859.0717
813.4203, 844.2181
813.9024, 836.8990
814.3845, 848.3106
814.8666, 858.7239
815.3488, 860.2407
815.8309, 855.1977
816.3130, 854.9070
816.7951, 861.0244
817.2772, 865.8577
817.7593, 864.5894
818.2415, 860.1949
818.7236, 864.5884
819.2057, 875.9735
819.6878, 881.4498
820.1699, 863.3287
820.6520, 843.4856
821.1342, 843.0370
821.6163, 862.1123
822.0984, 872.8265
822.5805, 862.2417
823.0626, 849.3697
823.5447, 840.3073
824.0269, 835.0367
824.5090, 834.4659
824.9911, 839.0090
825.4732, 845.5622
825.9553, 853.6386
826.4375, 861.6002
826.9196, 866.6660
827.4017, 868.6933
827.8839, 865.9164
828.3660, 850.4470
828.8481, 834.4768
829.3302, 827.2439
829.8123, 831.2267
830.2944, 840.3820
830.7766, 860.0032
831.2587, 877.0469
831.7408, 880.1137
832.2229, 869.6375
832.7050, 860.0840
833.1871, 852.1128
833.6693, 846.7554
834.1514, 845.9947
834.6335, 848.0070
835.1156, 850.6037
835.5977, 853.8085
836.0798, 856.0481
836.5620, 854.2692
837.0441, 852.9138
837.5262, 856.5485
838.0083, 869.1339
838.4904, 874.4123
838.9725, 869.6749
839.4547, 862.6804
839.9368, 865.3025
840.4189, 874.0654
840.9010, 873.6439
841.3831, 858.2863
841.8652, 829.4696
842.3474, 849.0897
842.8295, 860.3973
843.3116, 863.8392
843.7937, 835.8569
844.2758, 848.4525
844.7579, 844.7862
845.2401, 840.4533
845.7222, 858.7601
846.2043, 835.3483
846.6864, 853.2960
847.1685, 854.7338
847.6506, 863.7277
848.1328, 856.3596
848.6149, 854.0451
849.0970, 868.0980
849.5791, 873.0883
850.0612, 863.8364
850.5433, 873.3107
851.0255, 849.3275
851.5076, 854.7037
851.9897, 872.7471
852.4718, 864.3181
852.9539, 874.0915
853.4360, 876.9323
853.9182, 848.2679
854.4003, 874.3945
854.8824, 876.8257
855.3645, 854.9269
855.8466, 879.1761
856.3287, 860.6314
856.8109, 857.3618
857.2930, 865.5872
857.7751, 861.8292
858.2572, 876.9645
858.7393, 873.8985
859.2214, 869.2063
859.7036, 871.6111
860.1857, 853.9056
860.6678, 873.5084
861.1499, 867.6265
861.6320, 879.2574
862.1141, 882.5585
862.5963, 880.1425
863.0784, 871.7537
863.5605, 844.1548
864.0426, 825.1333
864.5247, 832.2690
865.0068, 854.6586
865.4890, 866.4419
865.9711, 863.8726
866.4532, 860.0014
866.9353, 856.3112
867.4174, 853.9684
867.8995, 856.2184
868.3817, 862.1526
868.8638, 867.7841
869.3459, 873.0280
869.8280, 875.6130
870.3101, 870.0622
870.7922, 860.9457
871.2744, 857.9208
871.7565, 870.0491
872.2386, 879.5477
872.7207, 883.8012
873.2028, 884.1062
873.6849, 882.9272
874.1671, 880.2568
874.6492, 876.8681
875.1313, 871.3491
875.6134, 867.8765
876.0955, 875.2629
876.5776, 888.5211
877.0598, 896.9014
877.5419, 895.6773
878.0240, 890.0284
878.5061, 878.0566
878.9882, 863.6899
879.4703, 854.1646
879.9525, 850.1496
880.4346, 847.8181
880.9167, 845.7682
881.3988, 845.8707
881.8809, 854.6492
882.3630, 868.5172
882.8452, 877.2034
883.3273, 872.8062
883.8094, 866.7590
884.2915, 864.2794
884.7736, 864.2837
885.2557, 864.4576
885.7379, 864.7813
886.2200, 864.8239
886.7021, 864.1686
887.1842, 863.6104
887.6663, 864.5589
888.1484, 866.9520
888.6306, 871.2305
889.1127, 880.9846
889.5948, 886.5364
890.0769, 873.7935
890.5590, 852.9565
891.0411, 840.8978
891.5233, 846.0763
892.0054, 855.4916
892.4875, 872.0926
892.9696, 888.6177
893.4517, 889.9072
893.9338, 876.3105
894.4160, 869.6232
894.8981, 877.0012
895.3802, 886.9534
895.8623, 886.5804
896.3444, 879.5299
896.8265, 871.7407
897.3087, 861.6255
897.7908, 855.8853
898.2729, 859.2323
898.7550, 865.7339
899.2371, 867.3682
899.7192, 862.4385
900.2014, 865.3349
900.6835, 880.7115
901.1656, 895.7595
901.6477, 889.5877
902.1298, 871.8160
902.6119, 860.6006
903.0941, 862.1130
903.5762, 867.3636
904.0583, 876.4415
904.5404, 885.2523
905.0225, 889.0413
905.5046, 886.1146
905.9868, 883.7238
906.4689, 882.6981
906.9510, 880.9634
907.4331, 873.3557
907.9152, 863.2925
908.3973, 861.3903
908.8795, 871.2004
909.3616, 879.5341
909.8437, 871.8016
910.3258, 862.7883
910.8079, 867.7303
911.2900, 897.7426
911.7722, 913.4729
912.2543, 912.2268
912.7364, 902.2925
913.2185, 884.8363
913.7006, 864.1392
914.1827, 862.7524
914.6649, 883.2592
915.1470, 901.8691
915.6291, 897.2009
916.1112, 885.5399
916.5933, 880.5031
917.0754, 885.6532
917.5576, 888.7654
918.0397, 889.6295
918.5218, 888.1036
919.0039, 882.4781
919.4860, 873.5538
919.9681, 869.4159
920.4503, 870.0851
920.9324, 873.6873
921.4145, 880.7745
921.8966, 888.7501
922.3787, 897.3986
922.8608, 906.5663
923.3430, 907.1152
923.8251, 890.3538
924.3072, 875.7566
924.7893, 871.2974
925.2714, 875.6985
925.7535, 882.0726
926.2357, 890.2271
926.7178, 895.8984
927.1999, 891.0599
927.6820, 886.6565
928.1641, 899.1835
928.6462, 923.3298
929.1284, 934.3434
929.6105, 908.6777
930.0926, 889.4150
930.5747, 889.9756
931.0568, 903.0479
931.5389, 902.2575
932.0211, 887.9933
932.5032, 875.0377
932.9853, 867.7088
933.4674, 866.2543
933.9495, 873.7880
934.4316, 887.1576
934.9138, 899.1659
935.3959, 910.6653
935.8780, 916.3137
936.3601, 914.4495
936.8422, 907.3087
937.3243, 897.2983
937.8065, 884.4160
938.2886, 875.2741
938.7707, 871.6563
939.2528, 871.7248
939.7349, 873.9151
940.2170, 878.1532
940.6992, 884.8583
941.1813, 900.3480
941.6634, 907.3224
942.1455, 897.0132
942.6276, 882.7587
943.1097, 878.1740
943.5919, 883.7000
944.0740, 889.2128
944.5561, 893.9575
945.0382, 897.7386
945.5203, 898.9897
946.0024, 899.7554
946.4846, 903.5646
946.9667, 912.4829
947.4488, 917.3946
947.9309, 913.4092
948.4130, 907.2851
948.8951, 902.0535
949.3773, 897.6412
949.8594, 896.1948
950.3415, 897.7977
950.8236, 901.3292
951.3057, 909.3372
951.7878, 916.7103
952.2700, 914.9725
952.7521, 904.5120
953.2342, 899.0668
953.7163, 912.7863
954.1984, 920.6257
954.6805, 910.3522
955.1627, 886.6824
955.6448, 879.7043
956.1269, 889.3358
956.6090, 901.1923
957.0911, 910.2868
957.5732, 915.8455
958.0554, 914.5736
958.5375, 908.9818
959.0196, 906.3824
959.5017, 914.4470
959.9838, 918.1584
960.4659, 912.0731
960.9481, 902.0723
961.4302, 902.8777
961.9123, 913.6428
962.3944, 918.3600
962.8765, 911.2574
963.3586, 900.5573
963.8408, 891.3779
964.3229, 885.3239
964.8050, 884.9383
965.2871, 898.5518
965.7692, 905.2665
966.2513, 899.3090
966.7335, 892.3128
967.2156, 900.3406
967.6977, 921.1805
968.1798, 926.5654
968.6619, 912.6194
969.1440, 897.4296
969.6262, 896.0603
970.1083, 900.6158
970.5904, 903.3881
971.0725, 902.4426
971.5546, 906.2106
972.0367, 919.9523
972.5189, 930.0955
973.0010, 927.2193
973.4831, 913.8931
973.9652, 903.3779
974.4473, 895.6650
974.9294, 891.5061
975.4116, 893.0536
975.8937, 896.7627
976.3758, 901.4726
976.8579, 906.5029
977.3400, 908.1697
977.8221, 904.6442
978.3043, 901.6517
978.7864, 900.6474
979.2685, 901.1683
979.7506, 902.4880
980.2327, 904.4863
980.7148, 906.8770
981.1970, 910.2657
981.6791, 912.9598
982.1612, 915.7841
982.6433, 916.5841
983.1254, 910.8671
983.6075, 892.4641
984.0897, 888.5958
984.5718, 905.7078
985.0539, 924.9132
985.5360, 918.7501
986.0181, 898.8649
986.5002, 891.0107
986.9824, 901.1724
987.4645, 910.6318
987.9466, 909.1234
988.4287, 905.3309
988.9108, 905.3759
989.3929, 909.7548
989.8751, 910.9269
990.3572, 908.4235
990.8393, 906.1729
991.3215, 905.4532
991.8036, 907.4283
992.2857, 917.3215
992.7678, 932.8433
993.2499, 941.4105
993.7321, 931.5788
994.2142, 921.7758
994.6963, 917.4160
995.1784, 917.0504
995.6605, 916.5938
996.1426, 916.0640
996.6248, 915.8439
997.1069, 915.9390
997.5890, 916.6899
998.0711, 919.2705
998.5532, 922.5621
999.0353, 924.7000
999.5175, 926.1114
999.9996, 924.4656
1000.482, 916.6376
1000.964, 910.1826
1001.446, 917.3516
1001.928, 934.6357
1002.410, 937.8839
1002.892, 923.6882
1003.374, 910.4718
1003.857, 913.9431
1004.339, 922.2318
1004.821, 925.4353
1005.303, 921.8888
1005.785, 922.2847
1006.267, 928.9990
1006.749, 932.7260
1007.231, 924.4626
1007.713, 911.7808
1008.196, 918.9550
1008.678, 940.4092
1009.160, 952.7174
1009.642, 934.0903
1010.124, 915.6393
1010.606, 909.0704
1011.088, 911.5688
1011.570, 919.6995
1012.052, 934.8494
1012.535, 946.1143
1013.017, 951.4069
1013.499, 951.8921
1013.981, 943.2563
1014.463, 932.9342
1014.945, 934.2411
1015.427, 959.7776
1015.909, 970.1047
1016.392, 946.9208
1016.874, 920.5229
1017.356, 915.0734
1017.838, 929.3777
1018.320, 932.0274
1018.802, 922.9158
1019.284, 913.5199
1019.766, 912.1993
1020.248, 913.7576
1020.731, 913.7205
1021.213, 912.3327
1021.695, 913.7820
1022.177, 918.2574
1022.659, 926.0360
1023.141, 939.7059
1023.623, 953.6360
1024.105, 953.2686
1024.588, 942.7277
1025.070, 934.7814
1025.552, 935.4222
1026.034, 936.9794
1026.516, 938.9203
1026.998, 938.3036
1027.480, 930.5991
1027.962, 913.0374
1028.444, 903.0130
1028.927, 901.7864
1029.409, 905.3071
1029.891, 911.6035
1030.373, 919.4105
1030.855, 928.0019
1031.337, 937.2448
1031.819, 943.6343
1032.301, 947.1484
1032.783, 946.3359
1033.266, 939.4402
1033.748, 928.1275
1034.230, 917.3175
1034.712, 907.6333
1035.194, 904.1036
1035.676, 912.9474
1036.158, 924.0796
1036.640, 930.7471
1037.123, 934.9664
1037.605, 941.0177
1038.087, 952.3088
1038.569, 955.3178
1039.051, 946.4141
1039.533, 936.2903
1040.015, 941.5720
1040.497, 953.8657
1040.979, 955.9052
1041.462, 944.6708
1041.944, 932.9933
1042.426, 923.6647
1042.908, 917.7155
1043.390, 916.0279
1043.872, 918.2426
1044.354, 921.7222
1044.836, 926.3827
1045.318, 927.4740
1045.801, 914.1186
1046.283, 903.8849
1046.765, 921.6229
1047.247, 954.0432
1047.729, 968.3981
1048.211, 947.9603
1048.693, 933.4543
1049.175, 930.3718
1049.658, 931.5190
1050.140, 922.9692
1050.622, 911.1274
1051.104, 919.5161
1051.586, 955.4704
1052.068, 978.7474
1052.550, 952.6407
1053.032, 921.7903
1053.515, 916.1619
1053.997, 935.1355
1054.479, 945.5854
1054.961, 947.2646
1055.443, 944.5112
1055.925, 933.8481
1056.407, 924.7836
1056.889, 932.5653
1057.371, 950.1947
1057.854, 959.8580
1058.336, 951.3906
1058.818, 943.6044
1059.300, 937.7847
1059.782, 933.9702
1060.264, 931.9619
1060.746, 931.9908
1061.228, 935.8604
1061.710, 944.3993
1062.193, 951.4769
1062.675, 953.9407
1063.157, 953.5100
1063.639, 951.4500
1064.121, 947.8394
1064.603, 939.4515
1065.085, 925.3277
1065.567, 919.0833
1066.050, 937.1475
1066.532, 958.1858
1067.014, 952.7416
1067.496, 931.2131
1067.978, 918.0538
1068.460, 925.6530
1068.942, 932.4774
1069.424, 936.3326
1069.906, 939.6754
1070.389, 948.0284
1070.871, 958.4207
1071.353, 960.2575
1071.835, 951.6035
1072.317, 942.8506
1072.799, 938.0494
1073.281, 936.7590
1073.763, 939.7984
1074.246, 946.4440
1074.728, 948.7574
1075.210, 946.5696
1075.692, 944.8055
1076.174, 947.1935
1076.656, 949.3033
1077.138, 944.0422
1077.620, 935.4465
1078.103, 931.1589
1078.585, 935.3098
1079.067, 939.5660
1079.549, 944.2361
1080.031, 947.5285
1080.513, 946.7894
1080.995, 943.2392
1081.477, 938.5765
1081.959, 933.1009
1082.442, 932.5990
1082.924, 948.3645
1083.406, 960.7593
1083.888, 959.5881
1084.370, 948.4139
1084.852, 942.1000
1085.334, 940.5963
1085.816, 942.3125
1086.298, 947.8896
1086.781, 954.2571
1087.263, 960.8550
1087.745, 965.6039
1088.227, 964.7264
1088.709, 952.6060
1089.191, 948.8792
1089.673, 956.0653
1090.155, 963.3408
1090.638, 959.0565
1091.120, 949.2806
1091.602, 945.6977
1092.084, 948.0935
1092.566, 951.0259
1093.048, 954.7922
1093.530, 955.5580
1094.012, 950.6556
1094.495, 943.5607
1094.977, 943.1172
1095.459, 948.2529
1095.941, 951.6074
1096.423, 950.2491
1096.905, 950.7661
1097.387, 963.6649
1097.869, 976.2283
1098.351, 975.0178
1098.833, 957.1931
1099.316, 950.2373
1099.798, 955.4335
1100.280, 959.7780
1100.762, 949.7619
1101.244, 938.2489
1101.726, 945.3544
1102.208, 964.1002
1102.690, 972.7441
1103.173, 956.1456
1103.655, 948.3392
1104.137, 956.5949
1104.619, 967.8430
1105.101, 960.3254
1105.583, 942.5416
1106.065, 938.2659
1106.547, 951.9437
1107.030, 961.9095
1107.512, 955.4765
1107.994, 945.6928
1108.476, 937.0141
1108.958, 930.3827
1109.440, 933.4357
1109.922, 945.0690
1110.404, 951.2807
1110.886, 939.6784
1111.369, 931.0729
1111.851, 949.6223
1112.333, 976.4673
1112.815, 984.0323
1113.297, 963.5404
1113.779, 951.3102
1114.261, 948.8696
1114.743, 949.9995
1115.225, 949.9426
1115.708, 950.0582
1116.190, 953.2215
1116.672, 958.7601
1117.154, 961.3275
1117.636, 958.6558
1118.118, 954.6193
1118.600, 948.4173
1119.082, 943.6946
1119.565, 950.5638
1120.047, 963.9865
1120.529, 970.1732
1121.011, 964.5427
1121.493, 958.4418
1121.975, 954.5604
1122.457, 953.7363
1122.939, 957.4067
1123.422, 964.8909
1123.904, 970.5350
1124.386, 974.1647
1124.868, 973.8901
1125.350, 964.2705
1125.832, 955.1908
1126.314, 952.5921
1126.796, 954.8494
1127.278, 958.9170
1127.760, 965.1996
1128.243, 972.2123
1128.725, 980.6494
1129.207, 984.7538
1129.689, 975.8800
1130.171, 962.4309
1130.653, 953.0371
1131.135, 948.1480
1131.617, 943.8051
1132.100, 938.3511
1132.582, 936.4064
1133.064, 939.8167
1133.546, 946.2012
1134.028, 954.1411
1134.510, 961.3836
1134.992, 962.4611
1135.474, 952.9139
1135.957, 947.4146
1136.439, 951.0114
1136.921, 956.6607
1137.403, 960.7589
1137.885, 963.4583
1138.367, 966.0151
1138.849, 968.0066
1139.331, 967.3668
1139.813, 960.2361
1140.296, 953.5107
1140.778, 949.6553
1141.260, 947.9991
1141.742, 947.7520
1142.224, 936.2103
1142.706, 955.7669
1143.188, 967.0110
1143.670, 970.3896
1144.152, 942.3438
1144.635, 954.8773
1145.117, 951.1476
1145.599, 946.7512
1146.081, 964.9947
1146.563, 941.5195
1147.045, 959.4039
1147.527, 960.7781
1148.009, 969.7088
1148.492, 962.2783
1148.974, 959.9005
1149.456, 973.8901
1149.938, 978.8168
1150.420, 969.5017
1150.902, 978.9126
1151.384, 954.8660
1151.866, 960.1786
1152.349, 978.1600
1152.831, 969.6676
1153.313, 979.3776
1153.795, 982.1552
1154.277, 953.4272
1154.759, 979.4905
1155.241, 981.8583
1155.723, 959.8962
1156.205, 984.0820
1156.688, 971.7637
1157.170, 971.4020
1157.652, 964.3868
1158.134, 959.1832
1158.616, 965.1935
1159.098, 967.1695
1159.580, 957.0533
1160.062, 941.6729
1160.544, 936.6711
1161.027, 941.0423
1161.509, 948.9777
1161.991, 960.4150
1162.473, 968.7356
1162.955, 963.5987
1163.437, 959.0818
1163.919, 967.8223
1164.401, 988.3307
1164.884, 995.4507
1165.366, 989.4637
1165.848, 982.6456
1166.330, 981.5532
1166.812, 979.8600
1167.294, 968.5838
1167.776, 955.3656
1168.258, 951.4446
1168.740, 959.8531
1169.223, 967.7357
1169.705, 975.5369
1170.187, 979.1020
1170.669, 970.4886
1171.151, 959.9188
1171.633, 958.1588
1172.115, 963.7830
1172.597, 971.2380
1173.079, 983.4109
1173.562, 986.2922
1174.044, 976.0483
1174.526, 963.1553
1175.008, 958.6815
1175.490, 959.7142
1175.972, 963.0490
1176.454, 968.3102
1176.936, 973.2198
1177.419, 980.3470
1177.901, 980.2529
1178.383, 966.3322
1178.865, 949.8203
1179.347, 955.3483
1179.829, 972.7445
1180.311, 981.4232
1180.793, 973.9393
1181.276, 965.6625
1181.758, 956.4779
1182.240, 951.9413
1182.722, 956.3025
1183.204, 967.2854
1183.686, 980.5233
1184.168, 993.8696
1184.650, 999.6016
1185.132, 984.7059
1185.615, 975.2842
1186.097, 980.8323
1186.579, 989.0807
1187.061, 986.7742
1187.543, 976.5925
1188.025, 973.9775
1188.507, 979.0060
1188.989, 986.6489
1189.471, 996.9742
1189.954, 1006.295
1190.436, 1016.619
1190.918, 1022.669
1191.400, 1009.852
1191.882, 981.7305
1192.364, 968.1564
1192.846, 973.7899
1193.328, 984.9877
1193.811, 998.1462
1194.293, 1008.890
1194.775, 1016.094
1195.257, 1018.713
1195.739, 1007.760
1196.221, 984.6968
1196.703, 971.8998
1197.185, 978.4258
1197.667, 988.1393
1198.150, 992.6063
1198.632, 992.0527
1199.114, 986.2479
1199.596, 975.3964
1200.078, 963.3748
1200.560, 950.1935
1201.042, 942.1100
1201.524, 943.7598
1202.006, 949.2942
1202.489, 956.0510
1202.971, 963.1036
1203.453, 969.2634
1203.935, 974.7186
1204.417, 978.3709
1204.899, 980.1498
1205.381, 980.7149
1205.863, 981.5258
1206.346, 980.4164
1206.828, 972.2726
1207.310, 961.3210
1207.792, 958.6550
1208.274, 965.7350
1208.756, 975.8154
1209.238, 989.1758
1209.720, 998.1977
1210.203, 990.4606
1210.685, 979.1557
1211.167, 977.4268
1211.649, 984.8552
1212.131, 989.8179
1212.613, 991.9235
1213.095, 993.1157
1213.577, 993.9715
1214.059, 993.5981
1214.542, 991.5789
1215.024, 987.4377
1215.506, 978.3502
1215.988, 963.2699
1216.470, 960.0661
1216.952, 971.2780
1217.434, 982.4256
1217.916, 989.4146
1218.398, 991.3797
1218.881, 983.5070
1219.363, 971.5273
1219.845, 962.8098
1220.327, 958.3026
1220.809, 959.3928
1221.291, 966.9241
1221.773, 975.8149
1222.255, 982.9380
1222.738, 990.1689
1223.220, 1005.251
1223.702, 1021.113
1224.184, 1022.252
1224.666, 997.5778
1225.148, 979.9477
1225.630, 969.4114
1226.112, 968.3013
1226.594, 990.4365
1227.077, 1014.597
1227.559, 1005.188
1228.041, 973.8727
1228.523, 963.4678
1229.005, 986.8253
1229.487, 1006.742
1229.969, 1020.505
1230.451, 1026.339
1230.933, 1015.396
1231.416, 1000.122
1231.898, 995.9863
1232.380, 1002.743
1232.862, 1010.029
1233.344, 1019.061
1233.826, 1021.315
1234.308, 1013.779
1234.790, 1003.616
1235.273, 997.0199
1235.755, 994.7072
1236.237, 1000.151
1236.719, 1013.893
1237.201, 1018.148
1237.683, 1009.773
1238.165, 1002.111
1238.647, 999.1428
1239.130, 999.1050
1239.612, 1000.409
1240.094, 1002.892
1240.576, 1007.189
1241.058, 1014.400
1241.540, 1015.441
1242.022, 1008.410
1242.504, 1004.738
1242.986, 1013.421
1243.469, 1022.037
1243.951, 1009.694
1244.433, 989.0803
1244.915, 980.1171
1245.397, 989.4438
1245.879, 994.8215
1246.361, 995.8857
1246.843, 995.3113
1247.326, 993.2906
1247.808, 991.8298
1248.290, 994.1453
1248.772, 998.4082
1249.254, 1000.923
1249.736, 1001.190
1250.218, 1000.782
1250.700, 999.6702
1251.182, 998.4481
1251.665, 993.2701
1252.147, 991.9578
1252.629, 1010.752
1253.111, 1037.541
1253.593, 1039.493
1254.075, 1008.721
1254.557, 992.7466
1255.039, 996.2282
1255.521, 1004.628
1256.004, 1006.313
1256.486, 1006.784
1256.968, 1012.366
1257.450, 1020.443
1257.932, 1021.187
1258.414, 1013.558
1258.896, 1010.116
1259.378, 1013.280
1259.861, 1015.577
1260.343, 1005.982
1260.825, 996.9659
1261.307, 1000.851
1261.789, 1013.528
1262.271, 1022.220
1262.753, 1026.904
1263.235, 1019.873
1263.718, 996.7733
1264.200, 977.9211
1264.682, 984.1033
1265.164, 995.6143
1265.646, 997.7731
1266.128, 992.8950
1266.610, 994.7239
1267.092, 1002.110
1267.574, 1002.879
1268.057, 991.4643
1268.539, 980.2711
1269.021, 973.7800
1269.503, 973.8865
1269.985, 983.9120
1270.467, 1000.820
1270.949, 1005.877
1271.431, 1001.196
1271.913, 997.7880
1272.396, 999.0483
1272.878, 1003.334
1273.360, 1014.770
1273.842, 1024.019
1274.324, 1024.109
1274.806, 1017.463
1275.288, 1016.947
1275.770, 1019.957
1276.253, 1016.339
1276.735, 992.9783
1277.217, 978.6024
1277.699, 981.1811
1278.181, 990.9310
1278.663, 1004.118
1279.145, 1018.075
1279.627, 1023.609
1280.109, 1022.209
1280.592, 1019.114
1281.074, 1015.121
1281.556, 1011.222
1282.038, 1007.973
1282.520, 1003.766
1283.002, 990.2979
1283.484, 978.1481
1283.966, 997.0238
1284.448, 1036.895
1284.931, 1059.058
1285.413, 1039.889
1285.895, 1030.653
1286.377, 1037.618
1286.859, 1045.280
1287.341, 1036.480
1287.823, 1021.086
1288.305, 1011.396
1288.788, 1006.865
1289.270, 1002.336
1289.752, 995.6554
1290.234, 996.3037
1290.716, 1006.882
1291.198, 1015.621
1291.680, 1005.509
1292.162, 993.0021
1292.645, 996.0414
1293.127, 1011.005
1293.609, 1018.092
##END=



