##NAMES=Pearceite
##RRUFFID=R060689
##IDEAL CHEMISTRY=Cu(Ag,Cu)_6_Ag_9_As_2_S_11_
##LOCALITY=Clara mine, Rankach Valley, Oberwolfach, Wolfach, Black Forest, Baden-Württemberg, Germany
##OWNER=RRUFF
##SOURCE=Michael Scott
##DESCRIPTION=Black tabular hexagonal prism in quartz. X-ray diffraction shows that this is pearceite-Tac. 
##STATUS=The identification of this mineral is confirmed by single-crystal X-ray diffraction and chemical analysis.
##URL=rruff.info/R060689
##MEASURED CHEMISTRY=Cu_1.00_(Ag_3.28_Cu_2.72_)_Σ=6.00_Ag_9.61_(As_1.63_Sb_0.37_)_Σ=2.00_S_11_  (Dark material is chalcopyrite)
207.344, 9188.504
207.826, 9169.275
208.308, 9137.766
208.790, 9118.695
209.273, 9136.485
209.755, 9170.278
210.237, 9193.230
210.719, 9196.337
211.201, 9192.416
211.683, 9194.472
212.165, 9202.789
212.648, 9213.679
213.130, 9233.960
213.612, 9251.644
214.094, 9246.887
214.576, 9203.288
215.058, 9163.090
215.540, 9174.938
216.022, 9239.349
216.504, 9296.293
216.986, 9318.960
217.469, 9323.231
217.951, 9332.479
218.433, 9353.107
218.915, 9367.490
219.397, 9353.793
219.879, 9314.551
220.361, 9286.852
220.844, 9287.479
221.326, 9304.092
221.808, 9318.751
222.290, 9330.850
222.772, 9341.894
223.254, 9352.477
223.736, 9362.668
224.218, 9373.805
224.700, 9389.431
225.182, 9402.092
225.665, 9398.595
226.147, 9374.403
226.629, 9359.144
227.111, 9381.745
227.593, 9429.088
228.075, 9453.235
228.557, 9433.915
229.039, 9398.768
229.522, 9381.303
230.004, 9381.268
230.486, 9389.262
230.968, 9406.966
231.450, 9429.525
231.932, 9444.524
232.414, 9447.174
232.896, 9447.025
233.378, 9457.796
233.861, 9478.933
234.343, 9494.620
234.825, 9494.081
235.307, 9486.609
235.789, 9488.497
236.271, 9503.804
236.753, 9521.504
237.235, 9526.237
237.717, 9519.473
238.200, 9523.912
238.682, 9566.266
239.164, 9611.420
239.646, 9609.941
240.128, 9554.463
240.610, 9493.760
241.092, 9472.482
241.574, 9488.858
242.057, 9498.118
242.539, 9488.810
243.021, 9476.827
243.503, 9475.637
243.985, 9485.579
244.467, 9500.051
244.949, 9516.833
245.431, 9534.577
245.913, 9542.312
246.396, 9531.879
246.878, 9519.042
247.360, 9511.849
247.842, 9510.226
248.324, 9512.692
248.806, 9519.122
249.288, 9528.711
249.770, 9536.563
250.253, 9538.207
250.735, 9542.798
251.217, 9556.285
251.699, 9575.226
252.181, 9591.196
252.663, 9599.121
253.145, 9602.325
253.627, 9613.028
254.109, 9638.146
254.592, 9661.021
255.074, 9680.612
255.556, 9695.529
256.038, 9701.674
256.520, 9697.035
257.002, 9687.986
257.484, 9688.325
257.966, 9711.667
258.449, 9724.870
258.931, 9723.318
259.413, 9713.250
259.895, 9695.148
260.377, 9670.628
260.859, 9652.146
261.341, 9659.472
261.823, 9710.944
262.306, 9748.284
262.788, 9774.275
263.270, 9786.277
263.752, 9773.300
264.234, 9739.451
264.716, 9707.288
265.198, 9703.245
265.680, 9735.761
266.162, 9756.766
266.645, 9762.825
267.127, 9762.422
267.609, 9755.121
268.091, 9743.938
268.573, 9735.327
269.055, 9734.983
269.537, 9742.850
270.019, 9749.094
270.501, 9753.693
270.984, 9756.484
271.466, 9760.033
271.948, 9761.377
272.430, 9755.195
272.912, 9737.639
273.394, 9711.241
273.876, 9684.648
274.358, 9650.912
274.841, 9628.874
275.323, 9625.304
275.805, 9632.842
276.287, 9645.328
276.769, 9660.850
277.251, 9675.696
277.733, 9681.795
278.215, 9675.348
278.698, 9670.842
279.180, 9673.221
279.662, 9677.450
280.144, 9681.424
280.626, 9684.575
281.108, 9683.373
281.590, 9671.532
282.072, 9648.007
282.554, 9627.905
283.036, 9609.244
283.519, 9599.586
284.001, 9609.210
284.483, 9636.247
284.965, 9659.646
285.447, 9666.318
285.929, 9657.420
286.411, 9635.713
286.893, 9592.898
287.376, 9552.404
287.858, 9533.021
288.340, 9530.322
288.822, 9530.653
289.304, 9530.752
289.786, 9530.004
290.268, 9525.612
290.750, 9516.321
291.233, 9511.271
291.715, 9523.499
292.197, 9544.396
292.679, 9551.186
293.161, 9535.933
293.643, 9509.536
294.125, 9470.983
294.607, 9423.777
295.089, 9394.519
295.572, 9399.253
296.054, 9429.789
296.536, 9460.763
297.018, 9493.022
297.500, 9524.160
297.982, 9554.748
298.464, 9582.962
298.946, 9603.119
299.428, 9611.602
299.911, 9617.487
300.393, 9638.408
300.875, 9682.217
301.357, 9720.674
301.839, 9745.198
302.321, 9766.155
302.803, 9792.330
303.285, 9825.845
303.767, 9866.334
304.250, 9915.445
304.732, 9977.805
305.214, 10026.260
305.696, 10043.460
306.178, 10064.580
306.660, 10111.640
307.142, 10179.960
307.625, 10251.910
308.107, 10315.170
308.589, 10369.830
309.071, 10416.670
309.553, 10441.340
310.035, 10473.530
310.517, 10525.680
310.999, 10586.680
311.481, 10641.000
311.964, 10680.880
312.446, 10711.200
312.928, 10744.310
313.410, 10783.310
313.892, 10818.740
314.374, 10848.770
314.856, 10875.760
315.338, 10903.870
315.820, 10933.410
316.303, 10956.710
316.785, 10965.590
317.267, 10959.770
317.749, 10941.570
318.231, 10905.410
318.713, 10861.400
319.195, 10814.950
319.677, 10766.040
320.159, 10711.920
320.642, 10644.320
321.124, 10569.360
321.606, 10511.790
322.088, 10477.880
322.570, 10446.170
323.052, 10406.170
323.534, 10358.240
324.016, 10300.650
324.499, 10221.380
324.981, 10141.940
325.463, 10091.460
325.945, 10068.760
326.427, 10040.270
326.909, 9985.130
327.391, 9918.168
327.873, 9872.355
328.355, 9854.395
328.838, 9842.400
329.320, 9836.675
329.802, 9828.980
330.284, 9796.232
330.766, 9727.751
331.248, 9653.644
331.730, 9619.307
332.212, 9639.799
332.694, 9646.963
333.177, 9628.318
333.659, 9600.435
334.141, 9575.993
334.623, 9556.274
335.105, 9537.124
335.587, 9515.886
336.069, 9493.062
336.552, 9457.718
337.034, 9392.028
337.516, 9335.037
337.998, 9303.411
338.480, 9288.116
338.962, 9271.630
339.444, 9244.483
339.926, 9211.918
340.408, 9190.795
340.891, 9193.098
341.373, 9186.190
341.855, 9160.551
342.337, 9129.283
342.819, 9099.266
343.301, 9073.281
343.783, 9056.995
344.265, 9063.584
344.747, 9097.733
345.230, 9111.939
345.712, 9085.823
346.194, 9056.268
346.676, 9038.813
347.158, 9033.514
347.640, 9038.063
348.122, 9059.618
348.604, 9088.313
349.086, 9096.398
349.569, 9078.351
350.051, 9059.063
350.533, 9053.151
351.015, 9054.419
351.497, 9053.776
351.979, 9049.240
352.461, 9043.344
352.944, 9035.235
353.426, 9026.579
353.908, 9025.804
354.390, 9037.941
354.872, 9055.845
355.354, 9067.121
355.836, 9070.796
356.318, 9074.834
356.800, 9084.066
357.283, 9092.966
357.765, 9090.331
358.247, 9076.172
358.729, 9069.257
359.211, 9089.112
359.693, 9138.585
360.175, 9178.529
360.657, 9182.212
361.139, 9205.124
361.622, 9290.693
362.104, 9409.811
362.586, 9501.908
363.068, 9532.882
363.550, 9526.757
364.032, 9557.481
364.514, 9662.453
364.996, 9744.178
365.478, 9778.252
365.961, 9799.327
366.443, 9834.886
366.925, 9889.869
367.407, 9950.701
367.889, 10004.930
368.371, 10052.970
368.853, 10089.740
369.335, 10114.400
369.818, 10127.230
370.300, 10122.800
370.782, 10107.500
371.264, 10097.530
371.746, 10111.710
372.228, 10127.780
372.710, 10106.210
373.192, 10044.190
373.674, 9966.951
374.157, 9881.441
374.639, 9788.926
375.121, 9691.370
375.603, 9586.726
376.085, 9482.807
376.567, 9383.464
377.049, 9287.391
377.531, 9189.635
378.013, 9087.888
378.496, 8992.113
378.978, 8915.751
379.460, 8864.349
379.942, 8808.369
380.424, 8754.056
380.906, 8689.539
381.388, 8594.391
381.871, 8480.187
382.353, 8382.226
382.835, 8324.841
383.317, 8301.539
383.799, 8279.376
384.281, 8261.808
384.763, 8240.994
385.245, 8211.182
385.727, 8180.576
386.210, 8157.282
386.692, 8143.460
387.174, 8135.679
387.656, 8132.776
388.138, 8137.369
388.620, 8129.275
389.102, 8094.537
389.584, 8060.046
390.066, 8036.033
390.549, 8022.214
391.031, 8016.814
391.513, 8020.557
391.995, 8030.902
392.477, 8046.137
392.959, 8067.885
393.441, 8081.718
393.923, 8078.072
394.405, 8063.617
394.888, 8049.621
395.370, 8035.799
395.852, 8024.242
396.334, 8016.976
396.816, 8012.613
397.298, 8009.488
397.780, 8007.465
398.262, 8003.290
398.745, 7991.526
399.227, 7969.588
399.709, 7959.555
400.191, 7974.944
400.673, 7988.869
401.155, 7987.229
401.637, 7972.587
402.119, 7951.114
402.602, 7925.294
403.084, 7899.922
403.566, 7892.514
404.048, 7931.044
404.530, 7907.418
405.012, 7931.533
405.494, 7944.059
405.976, 7945.619
406.458, 7903.370
406.940, 7917.692
407.423, 7909.342
407.905, 7900.063
408.387, 7922.347
408.869, 7886.469
409.351, 7908.252
409.833, 7907.019
410.315, 7916.319
410.797, 7902.809
411.280, 7896.344
411.762, 7912.697
412.244, 7916.416
412.726, 7900.280
413.208, 7910.250
413.690, 7873.575
414.172, 7877.832
414.654, 7899.749
415.137, 7884.760
415.619, 7874.563
416.101, 7885.870
416.583, 7886.870
417.065, 7887.167
417.547, 7887.199
418.029, 7881.529
418.511, 7864.472
418.993, 7838.429
419.476, 7825.485
419.958, 7843.304
420.440, 7853.432
420.922, 7844.280
421.404, 7828.142
421.886, 7817.616
422.368, 7816.411
422.850, 7820.912
423.332, 7829.115
423.815, 7842.633
424.297, 7845.918
424.779, 7829.008
425.261, 7812.502
425.743, 7808.925
426.225, 7813.471
426.707, 7814.530
427.189, 7806.665
427.672, 7793.346
428.154, 7769.570
428.636, 7736.124
429.118, 7738.734
429.600, 7694.812
430.082, 7741.925
430.564, 7766.940
431.046, 7771.045
431.529, 7721.945
432.011, 7709.640
432.493, 7732.040
432.975, 7752.118
433.457, 7763.860
433.939, 7769.118
434.421, 7769.335
434.903, 7764.437
435.385, 7752.612
435.867, 7723.092
436.350, 7699.745
436.832, 7687.251
437.314, 7682.595
437.796, 7683.657
438.278, 7689.383
438.760, 7696.656
439.242, 7701.351
439.724, 7703.164
440.207, 7705.706
440.689, 7711.949
441.171, 7715.175
441.653, 7711.843
442.135, 7703.216
442.617, 7691.332
443.099, 7671.173
443.581, 7654.741
444.064, 7660.237
444.546, 7685.407
445.028, 7709.134
445.510, 7725.946
445.992, 7734.779
446.474, 7729.594
446.956, 7706.550
447.438, 7692.737
447.920, 7703.875
448.403, 7717.777
448.885, 7711.878
449.367, 7689.134
449.849, 7671.117
450.331, 7673.956
450.813, 7691.595
451.295, 7691.938
451.777, 7651.392
452.259, 7627.100
452.742, 7635.336
453.224, 7654.469
453.706, 7669.737
454.188, 7677.029
454.670, 7675.691
455.152, 7660.328
455.634, 7633.143
456.116, 7615.024
456.599, 7606.859
457.081, 7606.033
457.563, 7616.604
458.045, 7632.173
458.527, 7643.720
459.009, 7651.468
459.491, 7651.145
459.973, 7626.965
460.456, 7593.104
460.938, 7590.326
461.420, 7631.544
461.902, 7680.223
462.384, 7692.568
462.866, 7660.879
463.348, 7641.032
463.830, 7648.468
464.312, 7651.200
464.795, 7620.712
465.277, 7578.243
465.759, 7566.717
466.241, 7606.283
466.723, 7668.885
467.205, 7700.287
467.687, 7692.142
468.169, 7682.344
468.651, 7674.624
469.134, 7665.431
469.616, 7651.141
470.098, 7633.410
470.580, 7617.728
471.062, 7606.271
471.544, 7598.771
472.026, 7595.615
472.508, 7596.664
472.991, 7598.150
473.473, 7597.428
473.955, 7597.549
474.437, 7608.097
474.919, 7636.039
475.401, 7646.019
475.883, 7611.431
476.365, 7571.062
476.848, 7563.334
477.330, 7584.118
477.812, 7600.681
478.294, 7589.732
478.776, 7558.198
479.258, 7537.684
479.740, 7535.560
480.222, 7532.797
480.704, 7529.665
481.186, 7523.435
481.669, 7506.948
482.151, 7482.225
482.633, 7465.601
483.115, 7477.705
483.597, 7508.433
484.079, 7521.543
484.561, 7512.988
485.043, 7504.981
485.526, 7515.371
486.008, 7530.893
486.490, 7520.906
486.972, 7467.434
487.454, 7428.936
487.936, 7439.679
488.418, 7472.386
488.900, 7492.513
489.383, 7495.176
489.865, 7494.799
490.347, 7504.547
490.829, 7523.506
491.311, 7533.839
491.793, 7520.861
492.275, 7516.947
492.757, 7543.943
493.239, 7572.747
493.722, 7567.553
494.204, 7522.623
494.686, 7473.239
495.168, 7454.630
495.650, 7462.999
496.132, 7473.333
496.614, 7486.427
497.096, 7496.696
497.578, 7499.621
498.061, 7497.485
498.543, 7495.386
499.025, 7496.578
499.507, 7492.848
499.989, 7470.598
500.471, 7444.118
500.953, 7440.457
501.435, 7463.776
501.918, 7490.545
502.400, 7497.901
502.882, 7485.657
503.364, 7471.172
503.846, 7450.995
504.328, 7432.642
504.810, 7416.708
505.292, 7403.875
505.775, 7393.715
506.257, 7386.386
506.739, 7385.490
507.221, 7401.609
507.703, 7430.788
508.185, 7439.139
508.667, 7416.607
509.149, 7394.552
509.631, 7392.350
510.113, 7405.016
510.596, 7421.845
511.078, 7448.903
511.560, 7468.732
512.042, 7473.370
512.524, 7465.608
513.006, 7442.689
513.488, 7406.462
513.971, 7378.731
514.453, 7384.523
514.935, 7423.597
515.417, 7438.465
515.899, 7398.167
516.381, 7370.873
516.863, 7375.534
517.345, 7395.403
517.827, 7417.712
518.310, 7438.113
518.792, 7447.042
519.274, 7424.301
519.756, 7380.412
520.238, 7363.727
520.720, 7382.561
521.202, 7404.412
521.684, 7409.549
522.166, 7403.340
522.649, 7403.052
523.131, 7413.275
523.613, 7421.162
524.095, 7424.250
524.577, 7421.909
525.059, 7410.624
525.541, 7391.622
526.023, 7373.361
526.505, 7362.989
526.988, 7359.774
527.470, 7357.222
527.952, 7358.300
528.434, 7355.069
528.916, 7341.311
529.398, 7326.328
529.880, 7319.594
530.362, 7321.645
530.844, 7322.645
531.327, 7316.269
531.809, 7304.255
532.291, 7284.982
532.773, 7258.310
533.255, 7247.433
533.737, 7270.646
534.219, 7310.798
534.701, 7323.777
535.184, 7295.291
535.666, 7273.086
536.148, 7256.453
536.630, 7251.817
537.112, 7274.146
537.594, 7314.266
538.076, 7343.959
538.558, 7344.783
539.041, 7325.629
539.523, 7307.878
540.005, 7289.396
540.487, 7280.839
540.969, 7292.860
541.451, 7307.432
541.933, 7309.107
542.415, 7300.119
542.898, 7294.985
543.380, 7308.295
543.862, 7320.302
544.344, 7308.703
544.826, 7279.880
545.308, 7254.838
545.790, 7241.114
546.272, 7236.256
546.754, 7238.474
547.237, 7253.701
547.719, 7253.124
548.201, 7216.774
548.683, 7187.653
549.165, 7183.399
549.647, 7196.021
550.129, 7215.523
550.611, 7239.182
551.093, 7256.199
551.576, 7243.398
552.058, 7207.884
552.540, 7206.434
553.022, 7257.915
553.504, 7303.857
553.986, 7296.554
554.468, 7247.144
554.950, 7215.179
555.432, 7203.715
555.915, 7206.092
556.397, 7238.150
556.879, 7273.306
557.361, 7275.769
557.843, 7244.227
558.325, 7208.475
558.807, 7192.335
559.289, 7195.449
559.771, 7220.194
560.254, 7285.912
560.736, 7330.535
561.218, 7325.832
561.700, 7299.959
562.182, 7265.428
562.664, 7224.775
563.146, 7201.310
563.628, 7227.080
564.111, 7262.469
564.593, 7247.618
565.075, 7193.583
565.557, 7169.096
566.039, 7209.187
566.521, 7276.373
567.003, 7299.531
567.485, 7258.705
567.968, 7225.411
568.450, 7200.498
568.932, 7181.286
569.414, 7158.255
569.896, 7141.988
570.378, 7158.167
570.860, 7222.660
571.342, 7289.220
571.825, 7296.084
572.307, 7253.421
572.789, 7219.697
573.271, 7205.147
573.753, 7192.471
574.235, 7166.154
574.717, 7129.817
575.199, 7105.993
575.681, 7090.160
576.164, 7091.647
576.646, 7133.672
577.128, 7180.845
577.610, 7192.184
578.092, 7167.791
578.574, 7143.079
579.056, 7147.454
579.538, 7173.355
580.020, 7194.121
580.503, 7211.602
580.985, 7215.823
581.467, 7192.279
581.949, 7164.744
582.431, 7159.305
582.913, 7175.060
583.395, 7189.014
583.877, 7192.324
584.359, 7193.618
584.842, 7202.400
585.324, 7214.143
585.806, 7215.675
586.288, 7202.277
586.770, 7185.787
587.252, 7185.777
587.734, 7207.075
588.216, 7207.834
588.698, 7165.487
589.181, 7132.415
589.663, 7133.971
590.145, 7150.904
590.627, 7156.872
591.109, 7144.601
591.591, 7136.552
592.073, 7159.335
592.555, 7190.983
593.038, 7191.267
593.520, 7159.564
594.002, 7125.576
594.484, 7106.345
594.966, 7098.066
595.448, 7090.366
595.930, 7079.875
596.412, 7075.972
596.894, 7081.783
597.377, 7090.386
597.859, 7099.059
598.341, 7107.476
598.823, 7116.073
599.305, 7125.880
599.787, 7133.579
600.269, 7135.127
600.752, 7131.203
601.234, 7123.013
601.716, 7109.742
602.198, 7099.542
602.680, 7099.977
603.162, 7109.896
603.644, 7118.138
604.126, 7127.573
604.608, 7131.811
605.091, 7128.855
605.573, 7121.079
606.055, 7107.282
606.537, 7089.816
607.019, 7076.238
607.501, 7072.320
607.983, 7075.135
608.465, 7080.127
608.947, 7087.307
609.430, 7090.349
609.912, 7085.467
610.394, 7079.697
610.876, 7081.429
611.358, 7091.045
611.840, 7098.057
612.322, 7107.481
612.804, 7108.226
613.286, 7088.275
613.769, 7060.929
614.251, 7042.581
614.733, 7036.929
615.215, 7037.356
615.697, 7035.601
616.179, 7034.698
616.661, 7055.445
617.143, 7105.814
617.625, 7136.961
618.108, 7123.359
618.590, 7089.432
619.072, 7066.207
619.554, 7052.899
620.036, 7051.708
620.518, 7080.847
621.000, 7104.536
621.482, 7093.146
621.965, 7062.693
622.447, 7044.015
622.929, 7047.105
623.411, 7056.911
623.893, 7053.389
624.375, 7037.246
624.857, 7031.508
625.339, 7040.123
625.821, 7048.387
626.304, 7048.581
626.786, 7045.546
627.268, 7048.248
627.750, 7059.102
628.232, 7063.336
628.714, 7045.266
629.196, 7029.428
629.679, 7041.190
630.161, 7070.424
630.643, 7090.089
631.125, 7088.853
631.607, 7078.583
632.089, 7079.985
632.571, 7094.629
633.053, 7090.670
633.535, 7057.461
634.018, 7026.388
634.500, 7015.792
634.982, 7016.244
635.464, 7012.809
635.946, 7002.907
636.428, 6995.719
636.910, 6994.326
637.392, 6996.765
637.875, 7001.180
638.357, 7007.824
638.839, 7019.988
639.321, 7039.533
639.803, 7058.308
640.285, 7060.233
640.767, 7043.344
641.249, 7031.326
641.731, 7027.127
642.214, 7023.862
642.696, 7015.200
643.178, 7005.937
643.660, 7004.928
644.142, 7015.315
644.624, 7026.396
645.106, 7041.742
645.588, 7050.907
646.070, 7037.783
646.553, 7009.556
647.035, 6990.047
647.517, 6991.815
647.999, 7002.196
648.481, 6994.968
648.963, 6967.137
649.445, 6964.479
649.927, 7005.118
650.409, 7039.855
650.892, 7034.307
651.374, 7005.234
651.856, 6986.449
652.338, 6984.525
652.820, 6979.062
653.302, 6960.164
653.784, 6938.241
654.266, 6912.743
654.748, 6892.185
655.231, 6901.920
655.713, 6955.889
656.195, 7021.440
656.677, 7042.274
657.159, 7017.523
657.641, 7000.114
658.123, 6994.443
658.606, 6993.931
659.088, 7001.805
659.570, 7009.708
660.052, 6996.589
660.534, 6951.453
661.016, 6914.755
661.498, 6901.443
661.980, 6893.643
662.462, 6871.549
662.945, 6844.871
663.427, 6842.057
663.909, 6876.286
664.391, 6918.748
664.873, 6926.119
665.355, 6902.596
665.837, 6888.337
666.319, 6887.209
666.802, 6888.907
667.284, 6889.796
667.766, 6888.640
668.248, 6880.133
668.730, 6854.647
669.212, 6848.547
669.694, 6882.052
670.176, 6918.731
670.658, 6945.768
671.141, 6958.585
671.623, 6947.444
672.105, 6908.911
672.587, 6867.731
673.069, 6848.218
673.551, 6847.734
674.033, 6863.516
674.515, 6896.363
674.997, 6918.527
675.480, 6914.369
675.962, 6896.089
676.444, 6886.563
676.926, 6891.780
677.408, 6886.705
677.890, 6853.964
678.372, 6831.353
678.854, 6842.211
679.336, 6867.240
679.819, 6881.620
680.301, 6879.346
680.783, 6869.043
681.265, 6850.814
681.747, 6831.799
682.229, 6826.861
682.711, 6834.044
683.193, 6837.887
683.675, 6831.933
684.158, 6823.792
684.640, 6825.037
685.122, 6837.570
685.604, 6841.809
686.086, 6826.151
686.568, 6818.619
687.050, 6826.561
687.532, 6806.725
688.015, 6837.651
688.497, 6856.256
688.979, 6863.200
689.461, 6823.562
689.943, 6844.076
690.425, 6840.483
690.907, 6835.902
691.389, 6864.882
691.872, 6832.019
692.354, 6860.466
692.836, 6859.958
693.318, 6850.008
693.800, 6841.959
694.282, 6835.984
694.764, 6831.304
695.246, 6829.071
695.729, 6826.597
696.211, 6819.626
696.693, 6809.409
697.175, 6804.290
697.657, 6810.960
698.139, 6816.456
698.621, 6809.504
699.103, 6802.099
699.585, 6814.319
700.068, 6842.537
700.550, 6860.138
701.032, 6847.126
701.514, 6818.094
701.996, 6800.302
702.478, 6793.669
702.960, 6793.980
703.442, 6803.359
703.924, 6809.071
704.407, 6799.693
704.889, 6779.371
705.371, 6766.231
705.853, 6767.246
706.335, 6764.981
706.817, 6754.314
707.299, 6744.400
707.781, 6740.531
708.263, 6741.902
708.746, 6746.154
709.228, 6752.698
709.710, 6760.287
710.192, 6772.642
710.674, 6783.606
711.156, 6777.446
711.638, 6755.084
712.120, 6732.775
712.602, 6718.261
713.085, 6711.222
713.567, 6712.256
714.049, 6723.758
714.531, 6731.900
715.013, 6741.078
715.495, 6740.062
715.977, 6708.534
716.459, 6673.967
716.942, 6674.250
717.424, 6715.007
717.906, 6742.592
718.388, 6731.937
718.870, 6707.769
719.352, 6672.818
719.834, 6642.121
720.316, 6648.260
720.799, 6695.312
721.281, 6744.624
721.763, 6758.556
722.245, 6745.558
722.727, 6734.027
723.209, 6723.475
723.691, 6722.298
724.173, 6737.309
724.656, 6751.697
725.138, 6748.223
725.620, 6727.843
726.102, 6708.480
726.584, 6684.421
727.066, 6669.296
727.548, 6671.617
728.030, 6678.429
728.512, 6681.662
728.995, 6680.665
729.477, 6676.527
729.959, 6668.772
730.441, 6660.861
730.923, 6658.588
731.405, 6657.799
731.887, 6641.459
732.369, 6612.358
732.851, 6612.371
733.334, 6670.661
733.816, 6746.544
734.298, 6746.197
734.780, 6644.778
735.262, 6582.226
735.744, 6564.007
736.226, 6577.354
736.708, 6653.605
737.190, 6740.201
737.673, 6758.163
738.155, 6693.975
738.637, 6638.374
739.119, 6609.664
739.601, 6597.843
740.083, 6602.435
740.565, 6617.718
741.047, 6641.305
741.529, 6669.826
742.012, 6688.058
742.494, 6678.885
742.976, 6654.051
743.458, 6636.449
743.940, 6626.045
744.422, 6626.247
744.904, 6640.287
745.386, 6645.674
745.869, 6615.708
746.351, 6559.817
746.833, 6547.788
747.315, 6617.299
747.797, 6662.536
748.279, 6658.284
748.761, 6642.891
749.243, 6632.622
749.726, 6627.487
750.208, 6625.846
750.690, 6629.066
751.172, 6630.750
751.654, 6620.256
752.136, 6612.344
752.618, 6634.923
753.100, 6672.927
753.583, 6676.874
754.065, 6627.107
754.547, 6570.571
755.029, 6577.998
755.511, 6635.234
755.993, 6656.065
756.475, 6637.253
756.957, 6613.205
757.439, 6595.250
757.922, 6580.195
758.404, 6563.357
758.886, 6544.146
759.368, 6532.552
759.850, 6531.249
760.332, 6534.530
760.814, 6545.240
761.296, 6557.347
761.778, 6569.152
762.261, 6578.472
762.743, 6578.820
763.225, 6563.997
763.707, 6546.166
764.189, 6531.037
764.671, 6518.914
765.153, 6506.919
765.635, 6497.605
766.117, 6505.750
766.600, 6541.071
767.082, 6576.818
767.564, 6560.026
768.046, 6496.078
768.528, 6455.795
769.010, 6443.327
769.492, 6450.981
769.974, 6481.172
770.456, 6520.575
770.939, 6549.514
771.421, 6568.793
771.903, 6573.688
772.385, 6551.922
772.867, 6531.842
773.349, 6516.560
773.831, 6508.067
774.313, 6515.114
774.796, 6533.206
775.278, 6536.202
775.760, 6503.731
776.242, 6466.023
776.724, 6434.900
777.206, 6416.301
777.688, 6428.075
778.170, 6463.630
778.653, 6489.119
779.135, 6483.716
779.617, 6464.833
780.099, 6465.407
780.581, 6482.060
781.063, 6478.662
781.545, 6449.832
782.027, 6425.054
782.510, 6418.467
782.992, 6423.901
783.474, 6432.864
783.956, 6448.058
784.438, 6452.126
784.920, 6429.949
785.402, 6416.160
785.884, 6424.626
786.366, 6440.048
786.849, 6450.101
787.331, 6453.847
787.813, 6453.745
788.295, 6446.987
788.777, 6440.813
789.259, 6440.416
789.741, 6441.963
790.223, 6440.909
790.705, 6437.372
791.188, 6433.788
791.670, 6431.382
792.152, 6430.338
792.634, 6431.857
793.116, 6435.041
793.598, 6434.642
794.080, 6430.618
794.562, 6434.164
795.044, 6452.598
795.527, 6470.304
796.009, 6462.176
796.491, 6425.855
796.973, 6400.471
797.455, 6389.182
797.937, 6382.557
798.419, 6380.251
798.901, 6379.900
799.383, 6381.841
799.866, 6384.636
800.348, 6380.169
800.830, 6364.151
801.312, 6345.041
801.794, 6312.303
802.276, 6288.245
802.758, 6303.288
803.240, 6340.559
803.723, 6355.874
804.205, 6330.104
804.687, 6302.437
805.169, 6308.904
805.651, 6334.804
806.133, 6360.953
806.615, 6384.956
807.097, 6397.197
807.580, 6395.271
808.062, 6347.066
808.544, 6387.237
809.026, 6405.958
809.508, 6404.378
809.990, 6321.696
810.472, 6342.320
810.954, 6334.093
811.437, 6352.208
811.919, 6352.409
812.401, 6340.610
812.883, 6341.996
813.365, 6377.442
813.847, 6390.022
814.329, 6354.520
814.811, 6324.508
815.293, 6327.764
815.776, 6349.499
816.258, 6372.646
816.740, 6395.008
817.222, 6399.740
817.704, 6361.966
818.186, 6322.927
818.668, 6313.848
819.150, 6321.316
819.632, 6330.697
820.115, 6335.403
820.597, 6322.321
821.079, 6275.712
821.561, 6224.193
822.043, 6213.202
822.525, 6233.871
823.007, 6261.681
823.489, 6292.565
823.972, 6311.746
824.454, 6310.746
824.936, 6297.301
825.418, 6282.463
825.900, 6265.360
826.382, 6261.446
826.864, 6278.274
827.346, 6284.299
827.828, 6259.847
828.311, 6233.069
828.793, 6239.913
829.275, 6278.502
829.757, 6294.379
830.239, 6260.446
830.721, 6243.363
831.203, 6260.112
831.685, 6287.802
832.167, 6322.993
832.650, 6355.008
833.132, 6362.114
833.614, 6334.959
834.096, 6305.632
834.578, 6289.405
835.060, 6278.657
835.542, 6266.307
836.024, 6254.694
836.507, 6249.684
836.989, 6251.975
837.471, 6256.279
837.953, 6260.985
838.435, 6261.803
838.917, 6243.391
839.399, 6214.207
839.881, 6211.445
840.364, 6238.971
840.846, 6263.164
841.328, 6262.919
841.810, 6247.963
842.292, 6237.443
842.774, 6232.059
843.256, 6222.529
843.738, 6205.344
844.221, 6196.862
844.703, 6206.067
845.185, 6222.314
845.667, 6235.384
846.149, 6245.176
846.631, 6244.015
847.113, 6217.144
847.595, 6200.060
848.077, 6202.172
848.560, 6208.711
849.042, 6212.605
849.524, 6213.430
850.006, 6210.226
850.488, 6200.487
850.970, 6195.995
851.452, 6205.353
851.934, 6216.925
852.416, 6225.454
852.899, 6229.646
853.381, 6226.005
853.863, 6215.518
854.345, 6207.544
854.827, 6211.157
855.309, 6215.841
855.791, 6208.299
856.273, 6193.149
856.755, 6175.247
857.238, 6158.138
857.720, 6155.671
858.202, 6175.788
858.684, 6203.317
859.166, 6218.199
859.648, 6220.444
860.130, 6206.428
860.612, 6175.574
861.094, 6149.792
861.577, 6135.886
862.059, 6129.833
862.541, 6128.099
863.023, 6130.373
863.505, 6135.996
863.987, 6149.816
864.469, 6150.966
864.951, 6126.236
865.434, 6106.982
865.916, 6114.271
866.398, 6136.977
866.880, 6156.528
867.362, 6177.448
867.844, 6176.440
868.326, 6122.160
868.808, 6084.309
869.291, 6100.754
869.773, 6130.026
870.255, 6115.872
870.737, 6074.981
871.219, 6096.242
871.701, 6054.886
872.183, 6094.779
872.665, 6114.951
873.148, 6116.458
873.630, 6043.407
874.112, 6065.327
874.594, 6057.136
875.076, 6072.688
875.558, 6096.722
876.040, 6125.723
876.522, 6149.686
877.004, 6154.166
877.487, 6143.963
877.969, 6126.113
878.451, 6104.339
878.933, 6089.163
879.415, 6087.429
879.897, 6093.142
880.379, 6098.609
880.861, 6103.126
881.343, 6098.756
881.826, 6085.806
882.308, 6088.738
882.790, 6118.625
883.272, 6151.206
883.754, 6160.263
884.236, 6148.340
884.718, 6129.089
885.200, 6099.837
885.682, 6075.222
886.165, 6053.330
886.647, 6047.232
887.129, 6073.360
887.611, 6112.954
888.093, 6125.314
888.575, 6102.184
889.057, 6086.773
889.539, 6086.812
890.021, 6083.640
890.504, 6062.957
890.986, 6045.596
891.468, 6057.524
891.950, 6089.456
892.432, 6099.006
892.914, 6064.224
893.396, 6037.652
893.878, 6030.297
894.361, 6034.210
894.843, 6058.083
895.325, 6083.695
895.807, 6081.440
896.289, 6048.146
896.771, 6017.862
897.253, 6007.048
897.735, 6003.834
898.218, 5999.386
898.700, 5998.859
899.182, 6014.999
899.664, 6040.763
900.146, 6051.117
900.628, 6034.448
901.110, 6018.207
901.592, 6036.846
902.075, 6065.697
902.557, 6068.112
903.039, 6049.708
903.521, 6023.398
904.003, 5994.932
904.485, 5975.306
904.967, 5972.980
905.449, 5983.611
905.931, 6005.416
906.414, 6033.799
906.896, 6044.806
907.378, 6038.228
907.860, 6041.885
908.342, 6068.273
908.824, 6089.682
909.306, 6067.454
909.788, 6012.841
910.270, 5996.631
910.753, 6023.055
911.235, 6033.462
911.717, 6015.484
912.199, 5993.850
912.681, 5983.051
913.163, 5979.794
913.645, 5976.765
914.127, 5972.790
914.609, 5978.763
915.092, 6001.439
915.574, 6018.399
916.056, 6026.355
916.538, 6022.693
917.020, 5997.154
917.502, 5957.690
917.984, 5943.566
918.466, 5972.399
918.948, 5994.328
919.431, 6018.463
919.913, 6024.952
920.395, 5986.369
920.877, 5939.401
921.359, 5931.774
921.841, 5962.663
922.323, 5979.304
922.805, 5963.109
923.288, 5947.967
923.770, 5934.173
924.252, 5931.032
924.734, 5955.969
925.216, 5991.847
925.698, 6007.526
926.180, 5996.320
926.662, 5980.702
927.144, 5965.024
927.627, 5952.273
928.109, 5931.510
928.591, 5923.474
929.073, 5970.517
929.555, 6050.032
930.037, 6087.753
930.519, 6051.306
931.002, 6000.408
931.484, 5963.954
931.966, 5942.835
932.448, 5943.933
932.930, 5958.442
933.412, 5974.396
933.894, 5988.016
934.376, 5997.479
934.858, 6002.718
935.341, 6000.614
935.823, 5980.614
936.305, 5955.085
936.787, 5948.599
937.269, 5955.228
937.751, 5951.023
938.233, 5929.415
938.715, 5904.500
939.197, 5885.495
939.680, 5875.726
940.162, 5890.596
940.644, 5918.688
941.126, 5918.465
941.608, 5890.453
942.090, 5870.376
942.572, 5874.383
943.054, 5891.540
943.536, 5911.613
944.019, 5932.238
944.501, 5945.897
944.983, 5952.439
945.465, 5945.958
945.947, 5925.540
946.429, 5908.941
946.911, 5877.335
947.393, 5914.921
947.875, 5935.711
948.358, 5940.608
948.840, 5882.011
949.322, 5905.403
949.804, 5895.938
950.286, 5885.125
950.768, 5920.058
951.250, 5870.695
951.732, 5904.902
952.215, 5899.640
952.697, 5915.474
953.179, 5923.536
953.661, 5921.535
954.143, 5921.069
954.625, 5928.365
955.107, 5931.626
955.589, 5916.418
956.071, 5888.440
956.554, 5876.550
957.036, 5885.622
957.518, 5895.193
958.000, 5906.397
958.482, 5913.848
958.964, 5915.693
959.446, 5912.065
959.929, 5900.606
960.411, 5882.345
960.893, 5875.512
961.375, 5886.413
961.857, 5895.650
962.339, 5905.006
962.821, 5907.470
963.303, 5897.861
963.785, 5880.555
964.268, 5859.536
964.750, 5833.927
965.232, 5818.063
965.714, 5813.009
966.196, 5816.026
966.678, 5841.726
967.160, 5859.713
967.642, 5841.805
968.125, 5809.341
968.607, 5801.544
969.089, 5823.456
969.571, 5842.970
970.053, 5865.875
970.535, 5876.164
971.017, 5868.652
971.499, 5849.392
971.981, 5810.585
972.464, 5766.040
972.946, 5745.806
973.428, 5755.319
973.910, 5776.073
974.392, 5821.346
974.874, 5857.054
975.356, 5871.807
975.838, 5873.265
976.320, 5863.754
976.803, 5846.864
977.285, 5830.028
977.767, 5812.785
978.249, 5801.374
978.731, 5796.756
979.213, 5798.517
979.695, 5813.413
980.177, 5829.188
980.659, 5822.992
981.142, 5806.550
981.624, 5777.014
982.106, 5812.566
982.588, 5832.318
983.070, 5837.120
983.552, 5782.193
984.034, 5804.393
984.516, 5795.685
984.998, 5802.279
985.481, 5798.250
985.963, 5790.267
986.445, 5769.937
986.927, 5753.211
987.409, 5747.958
987.891, 5745.494
988.373, 5737.642
988.856, 5731.189
989.338, 5739.179
989.820, 5758.703
990.302, 5768.087
990.784, 5754.357
991.266, 5742.405
991.748, 5747.586
992.230, 5752.750
992.712, 5743.239
993.195, 5727.851
993.677, 5715.966
994.159, 5710.673
994.641, 5719.329
995.123, 5758.109
995.605, 5785.248
996.087, 5771.894
996.569, 5749.655
997.052, 5734.444
997.534, 5729.901
998.016, 5744.439
998.498, 5775.156
998.980, 5795.955
999.462, 5785.728
999.944, 5782.669
1000.426, 5749.299
1000.908, 5791.546
1001.391, 5815.438
1001.873, 5821.961
1002.355, 5784.288
1002.837, 5781.109
1003.319, 5775.346
1003.801, 5750.983
1004.283, 5733.486
1004.765, 5736.251
1005.247, 5749.395
1005.730, 5779.088
1006.212, 5806.826
1006.694, 5795.931
1007.176, 5747.060
1007.658, 5717.866
1008.140, 5747.929
1008.622, 5777.154
1009.104, 5777.518
1009.586, 5766.322
1010.069, 5751.859
1010.551, 5737.767
1011.033, 5723.876
1011.515, 5712.131
1011.997, 5717.429
1012.479, 5683.119
1012.961, 5736.279
1013.443, 5768.206
1013.926, 5780.051
1014.408, 5711.619
1014.890, 5746.836
1015.372, 5740.515
1015.854, 5732.491
1016.336, 5759.425
1016.818, 5758.934
1017.300, 5770.614
1017.782, 5780.759
1018.265, 5787.583
1018.747, 5794.236
1019.229, 5794.418
1019.711, 5773.605
1020.193, 5733.285
1020.675, 5703.450
1021.157, 5697.734
1021.639, 5697.035
1022.122, 5696.467
1022.604, 5697.488
1023.086, 5704.822
1023.568, 5712.230
1024.050, 5709.297
1024.532, 5696.339
1025.014, 5686.546
1025.496, 5681.544
1025.978, 5682.935
1026.461, 5695.812
1026.943, 5710.123
1027.425, 5724.643
1027.907, 5734.242
1028.389, 5725.932
1028.871, 5703.287
1029.353, 5701.181
1029.835, 5751.824
1030.318, 5779.093
1030.800, 5746.429
1031.282, 5713.947
1031.764, 5720.959
1032.246, 5737.023
1032.728, 5715.890
1033.210, 5664.665
1033.692, 5649.190
1034.174, 5709.239
1034.656, 5745.852
1035.139, 5725.243
1035.621, 5709.119
1036.103, 5730.897
1036.585, 5761.893
1037.067, 5772.520
1037.549, 5765.332
1038.031, 5758.750
1038.513, 5758.534
1038.996, 5748.303
1039.478, 5711.963
1039.960, 5687.478
1040.442, 5692.845
1040.924, 5707.951
1041.406, 5716.519
1041.888, 5719.861
1042.370, 5723.142
1042.853, 5726.575
1043.335, 5729.662
1043.817, 5737.632
1044.299, 5734.306
1044.781, 5704.672
1045.263, 5678.303
1045.745, 5681.903
1046.227, 5705.135
1046.709, 5719.052
1047.192, 5722.325
1047.674, 5723.301
1048.156, 5723.188
1048.638, 5717.275
1049.120, 5703.206
1049.602, 5685.243
1050.084, 5662.425
1050.566, 5643.599
1051.048, 5650.881
1051.531, 5686.572
1052.013, 5701.857
1052.495, 5693.780
1052.977, 5678.450
1053.459, 5655.019
1053.941, 5644.343
1054.423, 5661.148
1054.905, 5690.420
1055.388, 5708.203
1055.870, 5715.359
1056.352, 5721.406
1056.834, 5726.313
1057.316, 5728.536
1057.798, 5727.935
1058.280, 5720.114
1058.762, 5702.205
1059.245, 5682.625
1059.727, 5670.118
1060.209, 5666.196
1060.691, 5682.259
1061.173, 5713.511
1061.655, 5730.290
1062.137, 5729.200
1062.619, 5703.651
1063.101, 5652.129
1063.583, 5613.429
1064.066, 5628.792
1064.548, 5671.696
1065.030, 5697.422
1065.512, 5706.437
1065.994, 5691.645
1066.476, 5660.838
1066.958, 5644.517
1067.440, 5649.927
1067.923, 5656.321
1068.405, 5646.777
1068.887, 5638.476
1069.369, 5659.446
1069.851, 5691.250
1070.333, 5709.602
1070.815, 5713.405
1071.297, 5695.635
1071.780, 5662.694
1072.262, 5647.923
1072.744, 5671.817
1073.226, 5697.208
1073.708, 5684.614
1074.190, 5668.700
1074.672, 5692.154
1075.154, 5727.497
1075.636, 5733.482
1076.119, 5713.577
1076.601, 5697.504
1077.083, 5695.771
1077.565, 5689.879
1078.047, 5659.183
1078.529, 5636.036
1079.011, 5644.456
1079.493, 5663.467
1079.976, 5673.477
1080.458, 5678.547
1080.940, 5694.314
1081.422, 5724.240
1081.904, 5737.055
1082.386, 5708.319
1082.868, 5686.298
1083.350, 5689.530
1083.833, 5695.658
1084.315, 5695.471
1084.797, 5687.991
1085.279, 5667.840
1085.761, 5635.886
1086.243, 5618.162
1086.725, 5616.505
1087.207, 5627.340
1087.689, 5671.067
1088.172, 5693.114
1088.654, 5663.187
1089.136, 5617.704
1089.618, 5587.979
1090.100, 5573.680
1090.582, 5576.253
1091.064, 5601.642
1091.546, 5615.512
1092.028, 5613.630
1092.511, 5619.300
1092.993, 5641.392
1093.475, 5658.918
1093.957, 5655.280
1094.439, 5642.376
1094.921, 5643.789
1095.403, 5657.816
1095.885, 5666.087
1096.368, 5668.692
1096.850, 5666.203
1097.332, 5658.837
1097.814, 5646.938
1098.296, 5630.307
1098.778, 5621.267
1099.260, 5640.344
1099.742, 5669.141
1100.224, 5660.562
1100.707, 5628.620
1101.189, 5612.598
1101.671, 5611.986
1102.153, 5609.146
1102.635, 5599.134
1103.117, 5590.422
1103.599, 5588.366
1104.081, 5591.641
1104.563, 5605.704
1105.046, 5618.630
1105.528, 5610.784
1106.010, 5593.098
1106.492, 5584.706
1106.974, 5587.656
1107.456, 5593.862
1107.938, 5599.888
1108.420, 5610.329
1108.903, 5641.349
1109.385, 5660.855
1109.867, 5629.348
1110.349, 5594.688
1110.831, 5612.709
1111.313, 5661.643
1111.795, 5685.726
1112.277, 5675.432
1112.760, 5660.721
1113.242, 5628.280
1113.724, 5618.492
1114.206, 5664.069
1114.688, 5704.183
1115.170, 5703.690
1115.652, 5687.173
1116.134, 5685.820
1116.616, 5696.439
1117.099, 5691.734
1117.581, 5664.733
1118.063, 5644.543
1118.545, 5630.980
1119.027, 5629.040
1119.509, 5643.806
1119.991, 5658.451
1120.473, 5659.631
1120.955, 5651.967
1121.438, 5645.266
1121.920, 5639.259
1122.402, 5627.878
1122.884, 5612.089
1123.366, 5611.177
1123.848, 5626.868
1124.330, 5630.542
1124.812, 5608.093
1125.295, 5600.796
1125.777, 5573.773
1126.259, 5610.186
1126.741, 5631.200
1127.223, 5637.644
1127.705, 5585.875
1128.187, 5609.275
1128.669, 5602.551
1129.151, 5594.592
1129.634, 5628.575
1130.116, 5585.273
1130.598, 5618.588
1131.080, 5621.318
1131.562, 5638.047
1132.044, 5624.465
1132.526, 5620.245
1133.008, 5620.691
1133.490, 5633.886
1133.973, 5640.532
1134.455, 5640.723
1134.937, 5642.027
1135.419, 5648.773
1135.901, 5653.266
1136.383, 5652.386
1136.865, 5649.783
1137.347, 5644.564
1137.830, 5641.008
1138.312, 5647.513
1138.794, 5662.164
1139.276, 5662.773
1139.758, 5638.778
1140.240, 5637.940
1140.722, 5672.692
1141.204, 5689.140
1141.687, 5666.713
1142.169, 5638.114
1142.651, 5629.345
1143.133, 5629.283
1143.615, 5609.660
1144.097, 5577.150
1144.579, 5585.672
1145.061, 5627.884
1145.543, 5657.725
1146.026, 5667.902
1146.508, 5657.109
1146.990, 5626.146
1147.472, 5602.802
1147.954, 5618.678
1148.436, 5643.494
1148.918, 5633.909
1149.400, 5611.055
1149.882, 5605.426
1150.365, 5610.361
1150.847, 5605.223
1151.329, 5591.144
1151.811, 5592.621
1152.293, 5624.065
1152.775, 5649.106
1153.257, 5654.790
1153.739, 5645.144
1154.222, 5606.472
1154.704, 5568.221
1155.186, 5553.078
1155.668, 5556.505
1156.150, 5569.977
1156.632, 5593.606
1157.114, 5613.951
1157.596, 5637.865
1158.078, 5641.523
1158.561, 5611.552
1159.043, 5590.437
1159.525, 5597.339
1160.007, 5607.046
1160.489, 5595.381
1160.971, 5573.289
1161.453, 5570.860
1161.935, 5586.256
1162.417, 5584.691
1162.900, 5568.517
1163.382, 5566.259
1163.864, 5580.341
1164.346, 5581.781
1164.828, 5558.122
1165.310, 5541.050
1165.792, 5565.006
1166.274, 5605.153
1166.757, 5641.292
1167.239, 5662.532
1167.721, 5640.144
1168.203, 5596.393
1168.685, 5575.784
1169.167, 5580.676
1169.649, 5582.275
1170.131, 5568.829
1170.614, 5557.942
1171.096, 5561.478
1171.578, 5562.776
1172.060, 5541.908
1172.542, 5529.046
1173.024, 5562.824
1173.506, 5611.672
1173.988, 5616.647
1174.470, 5580.463
1174.953, 5562.182
1175.435, 5569.629
1175.917, 5571.103
1176.399, 5563.970
1176.881, 5556.494
1177.363, 5551.931
1177.845, 5542.134
1178.327, 5519.132
1178.809, 5495.332
1179.292, 5499.178
1179.774, 5519.375
1180.256, 5501.874
1180.738, 5461.613
1181.220, 5459.067
1181.702, 5491.455
1182.184, 5516.461
1182.666, 5520.307
1183.149, 5515.279
1183.631, 5506.773
1184.113, 5499.938
1184.595, 5499.182
1185.077, 5501.853
1185.559, 5513.366
1186.041, 5521.103
1186.523, 5500.922
1187.005, 5465.670
1187.488, 5454.493
1187.970, 5476.390
1188.452, 5495.884
1188.934, 5511.808
1189.416, 5518.668
1189.898, 5505.688
1190.380, 5502.603
1190.862, 5530.935
1191.344, 5555.158
1191.827, 5536.347
1192.309, 5493.124
1192.791, 5478.976
1193.273, 5493.408
1193.755, 5515.606
1194.237, 5544.018
1194.719, 5557.792
1195.201, 5554.716
1195.684, 5547.597
1196.166, 5542.142
1196.648, 5537.805
1197.130, 5533.843
1197.612, 5531.340
1198.094, 5534.457
1198.576, 5537.185
1199.058, 5530.061
1199.541, 5518.628
1200.023, 5510.455
1200.505, 5507.048
1200.987, 5509.515
1201.469, 5519.104
1201.951, 5527.136
1202.433, 5533.049
1202.915, 5534.916
1203.397, 5534.558
1203.880, 5526.443
1204.362, 5500.512
1204.844, 5475.788
1205.326, 5473.399
1205.808, 5487.715
1206.290, 5499.969
1206.772, 5509.999
1207.254, 5524.912
1207.736, 5544.306
1208.219, 5542.626
1208.701, 5519.181
1209.183, 5522.926
1209.665, 5500.115
1210.147, 5529.707
1210.629, 5546.579
1211.111, 5551.413
1211.593, 5508.160
1212.076, 5527.004
1212.558, 5520.961
1213.040, 5527.239
1213.522, 5544.548
1214.004, 5580.656
1214.486, 5591.783
1214.968, 5564.136
1215.450, 5544.288
1215.932, 5546.916
1216.415, 5552.725
1216.897, 5566.718
1217.379, 5570.281
1217.861, 5547.880
1218.343, 5524.829
1218.825, 5526.194
1219.307, 5544.181
1219.789, 5559.310
1220.271, 5571.484
1220.754, 5577.773
1221.236, 5579.175
1221.718, 5589.502
1222.200, 5608.025
1222.682, 5613.626
1223.164, 5599.231
1223.646, 5580.430
1224.128, 5568.058
1224.611, 5558.057
1225.093, 5549.551
1225.575, 5538.219
1226.057, 5511.699
1226.539, 5486.301
1227.021, 5484.529
1227.503, 5500.017
1227.985, 5513.924
1228.468, 5523.542
1228.950, 5534.736
1229.432, 5555.537
1229.914, 5563.118
1230.396, 5552.887
1230.878, 5537.248
1231.360, 5517.216
1231.842, 5501.019
1232.324, 5494.514
1232.807, 5495.845
1233.289, 5502.150
1233.771, 5513.499
1234.253, 5541.008
1234.735, 5571.202
1235.217, 5545.269
1235.699, 5482.605
1236.181, 5463.480
1236.663, 5499.317
1237.146, 5534.554
1237.628, 5542.853
1238.110, 5547.569
1238.592, 5564.437
1239.074, 5578.225
1239.556, 5583.021
1240.038, 5579.739
1240.520, 5546.695
1241.003, 5522.838
1241.485, 5494.476
1241.967, 5555.458
1242.449, 5594.751
1242.931, 5613.525
1243.413, 5580.078
1243.895, 5578.155
1244.377, 5574.937
1244.859, 5562.459
1245.342, 5544.885
1245.824, 5524.422
1246.306, 5522.897
1246.788, 5569.413
1247.270, 5618.933
1247.752, 5602.146
1248.234, 5562.816
1248.716, 5552.020
1249.198, 5558.216
1249.681, 5569.279
1250.163, 5577.174
1250.645, 5563.406
1251.127, 5524.458
1251.609, 5507.451
1252.091, 5538.847
1252.573, 5560.600
1253.055, 5568.148
1253.538, 5570.407
1254.020, 5570.087
1254.502, 5563.693
1254.984, 5547.532
1255.466, 5528.858
1255.948, 5516.160
1256.430, 5512.532
1256.912, 5535.564
1257.395, 5572.637
1257.877, 5585.959
1258.359, 5580.776
1258.841, 5579.379
1259.323, 5584.342
1259.805, 5577.191
1260.287, 5547.271
1260.769, 5511.635
1261.251, 5558.035
1261.734, 5584.523
1262.216, 5592.166
1262.698, 5524.527
1263.180, 5552.780
1263.662, 5599.479
1264.144, 5578.711
1264.626, 5522.314
1265.108, 5507.420
1265.590, 5531.072
1266.073, 5543.214
1266.555, 5545.241
1267.037, 5556.074
1267.519, 5574.297
1268.001, 5577.333
1268.483, 5561.729
1268.965, 5551.144
1269.447, 5559.927
##END=



