##NAMES=Pectolite
##RRUFFID=R120024
##IDEAL CHEMISTRY=NaCa_2_Si_3_O_8_(OH)
##LOCALITY=Eveslogchorr Mt., Khibiny Massif, Kola Peninsula, Murmanskaja Oblast', Russia
##OWNER=RRUFF
##SOURCE=Dr. JÃ¼rgen Wachsmuth 
##DESCRIPTION=Colorless elongated platy crystals
##STATUS=The identification of this mineral has been confirmed by single-crystal X-ray diffraction.
##URL=rruff.info/R120024
9.112140e+001, 0.000000e+000
9.160352e+001, 6.420742e+002
9.208563e+001, 6.302370e+002
9.256775e+001, 6.289210e+002
9.304987e+001, 6.439319e+002
9.353198e+001, 6.618166e+002
9.401410e+001, 6.707584e+002
9.449622e+001, 6.715628e+002
9.497833e+001, 6.682320e+002
9.546045e+001, 6.639029e+002
9.594257e+001, 6.585458e+002
9.642468e+001, 6.526281e+002
9.690680e+001, 6.461987e+002
9.738892e+001, 6.400948e+002
9.787103e+001, 6.350141e+002
9.835315e+001, 6.299641e+002
9.883527e+001, 6.236422e+002
9.931738e+001, 6.163734e+002
9.979950e+001, 6.078381e+002
1.002816e+002, 6.002010e+002
1.007637e+002, 5.932004e+002
1.012458e+002, 5.868279e+002
1.017280e+002, 5.809359e+002
1.022101e+002, 5.753214e+002
1.026922e+002, 5.705752e+002
1.031743e+002, 5.680532e+002
1.036564e+002, 5.676211e+002
1.041385e+002, 5.674397e+002
1.046207e+002, 5.664920e+002
1.051028e+002, 5.651525e+002
1.055849e+002, 5.648943e+002
1.060670e+002, 5.668849e+002
1.065491e+002, 5.692545e+002
1.070313e+002, 5.698710e+002
1.075134e+002, 5.684169e+002
1.079955e+002, 5.664207e+002
1.084776e+002, 5.652430e+002
1.089597e+002, 5.648549e+002
1.094418e+002, 5.653506e+002
1.099240e+002, 5.682159e+002
1.104061e+002, 5.711719e+002
1.108882e+002, 5.724988e+002
1.113703e+002, 5.715261e+002
1.118524e+002, 5.686895e+002
1.123345e+002, 5.650273e+002
1.128167e+002, 5.593303e+002
1.132988e+002, 5.544152e+002
1.137809e+002, 5.503864e+002
1.142630e+002, 5.473868e+002
1.147451e+002, 5.457029e+002
1.152272e+002, 5.456207e+002
1.157094e+002, 5.470204e+002
1.161915e+002, 5.476470e+002
1.166736e+002, 5.468394e+002
1.171557e+002, 5.460368e+002
1.176378e+002, 5.460184e+002
1.181199e+002, 5.465319e+002
1.186021e+002, 5.465588e+002
1.190842e+002, 5.450273e+002
1.195663e+002, 5.418078e+002
1.200484e+002, 5.398598e+002
1.205305e+002, 5.395173e+002
1.210126e+002, 5.401737e+002
1.214948e+002, 5.417114e+002
1.219769e+002, 5.442402e+002
1.224590e+002, 5.465641e+002
1.229411e+002, 5.474355e+002
1.234232e+002, 5.471218e+002
1.239053e+002, 5.459246e+002
1.243875e+002, 5.434991e+002
1.248696e+002, 5.402220e+002
1.253517e+002, 5.371053e+002
1.258338e+002, 5.341179e+002
1.263159e+002, 5.315574e+002
1.267980e+002, 5.294167e+002
1.272802e+002, 5.277283e+002
1.277623e+002, 5.266511e+002
1.282444e+002, 5.266933e+002
1.287265e+002, 5.280426e+002
1.292086e+002, 5.285301e+002
1.296907e+002, 5.267138e+002
1.301729e+002, 5.248967e+002
1.306550e+002, 5.243160e+002
1.311371e+002, 5.250357e+002
1.316192e+002, 5.261221e+002
1.321013e+002, 5.261969e+002
1.325834e+002, 5.243778e+002
1.330656e+002, 5.232881e+002
1.335477e+002, 5.232195e+002
1.340298e+002, 5.236071e+002
1.345119e+002, 5.241735e+002
1.349940e+002, 5.247913e+002
1.354761e+002, 5.253108e+002
1.359583e+002, 5.253708e+002
1.364404e+002, 5.242720e+002
1.369225e+002, 5.235727e+002
1.374046e+002, 5.233758e+002
1.378867e+002, 5.236212e+002
1.383688e+002, 5.243612e+002
1.388510e+002, 5.257245e+002
1.393331e+002, 5.273799e+002
1.398152e+002, 5.282045e+002
1.402973e+002, 5.277626e+002
1.407794e+002, 5.273246e+002
1.412615e+002, 5.275146e+002
1.417437e+002, 5.282000e+002
1.422258e+002, 5.287934e+002
1.427079e+002, 5.289883e+002
1.431900e+002, 5.288676e+002
1.436721e+002, 5.286360e+002
1.441542e+002, 5.280696e+002
1.446364e+002, 5.276790e+002
1.451185e+002, 5.282449e+002
1.456006e+002, 5.299977e+002
1.460827e+002, 5.313009e+002
1.465648e+002, 5.306676e+002
1.470469e+002, 5.293286e+002
1.475291e+002, 5.285196e+002
1.480112e+002, 5.287576e+002
1.484933e+002, 5.296908e+002
1.489754e+002, 5.305793e+002
1.494575e+002, 5.315245e+002
1.499396e+002, 5.322305e+002
1.504218e+002, 5.326852e+002
1.509039e+002, 5.328846e+002
1.513860e+002, 5.328196e+002
1.518681e+002, 5.324830e+002
1.523502e+002, 5.318764e+002
1.528323e+002, 5.310483e+002
1.533145e+002, 5.300646e+002
1.537966e+002, 5.287386e+002
1.542787e+002, 5.271568e+002
1.547608e+002, 5.251909e+002
1.552429e+002, 5.225283e+002
1.557250e+002, 5.187941e+002
1.562072e+002, 5.138618e+002
1.566893e+002, 5.098838e+002
1.571714e+002, 5.069801e+002
1.576535e+002, 5.046709e+002
1.581356e+002, 5.029179e+002
1.586177e+002, 5.016270e+002
1.590999e+002, 5.005815e+002
1.595820e+002, 4.996436e+002
1.600641e+002, 4.988498e+002
1.605462e+002, 4.976815e+002
1.610283e+002, 4.954471e+002
1.615104e+002, 4.933249e+002
1.619926e+002, 4.923728e+002
1.624747e+002, 4.927192e+002
1.629568e+002, 4.934452e+002
1.634389e+002, 4.937054e+002
1.639210e+002, 4.935130e+002
1.644031e+002, 4.929641e+002
1.648853e+002, 4.916777e+002
1.653674e+002, 4.901564e+002
1.658495e+002, 4.891745e+002
1.663316e+002, 4.889086e+002
1.668137e+002, 4.890060e+002
1.672958e+002, 4.889333e+002
1.677780e+002, 4.888162e+002
1.682601e+002, 4.893696e+002
1.687422e+002, 4.919191e+002
1.692243e+002, 4.956773e+002
1.697064e+002, 4.972560e+002
1.701885e+002, 4.951144e+002
1.706707e+002, 4.920972e+002
1.711528e+002, 4.898351e+002
1.716349e+002, 4.883271e+002
1.721170e+002, 4.873738e+002
1.725991e+002, 4.870617e+002
1.730812e+002, 4.874384e+002
1.735634e+002, 4.874330e+002
1.740455e+002, 4.862525e+002
1.745276e+002, 4.852643e+002
1.750097e+002, 4.851371e+002
1.754918e+002, 4.858189e+002
1.759739e+002, 4.867996e+002
1.764561e+002, 4.874947e+002
1.769382e+002, 4.877343e+002
1.774203e+002, 4.882895e+002
1.779024e+002, 4.898606e+002
1.783845e+002, 4.911740e+002
1.788666e+002, 4.912299e+002
1.793488e+002, 4.900763e+002
1.798309e+002, 4.887130e+002
1.803130e+002, 4.885814e+002
1.807951e+002, 4.905990e+002
1.812772e+002, 4.917940e+002
1.817593e+002, 4.917144e+002
1.822415e+002, 4.912227e+002
1.827236e+002, 4.908074e+002
1.832057e+002, 4.906290e+002
1.836878e+002, 4.907544e+002
1.841699e+002, 4.913376e+002
1.846520e+002, 4.928999e+002
1.851342e+002, 4.938574e+002
1.856163e+002, 4.937588e+002
1.860984e+002, 4.932242e+002
1.865805e+002, 4.928635e+002
1.870626e+002, 4.928528e+002
1.875447e+002, 4.931014e+002
1.880269e+002, 4.935833e+002
1.885090e+002, 4.944702e+002
1.889911e+002, 4.949180e+002
1.894732e+002, 4.944616e+002
1.899553e+002, 4.934817e+002
1.904374e+002, 4.924156e+002
1.909196e+002, 4.910869e+002
1.914017e+002, 4.903921e+002
1.918838e+002, 4.923052e+002
1.923659e+002, 4.971024e+002
1.928480e+002, 5.006285e+002
1.933301e+002, 5.000337e+002
1.938123e+002, 4.963794e+002
1.942944e+002, 4.935631e+002
1.947765e+002, 4.926108e+002
1.952586e+002, 4.928556e+002
1.957407e+002, 4.936226e+002
1.962228e+002, 4.949224e+002
1.967050e+002, 4.960357e+002
1.971871e+002, 4.962582e+002
1.976692e+002, 4.956405e+002
1.981513e+002, 4.952758e+002
1.986334e+002, 4.949821e+002
1.991155e+002, 4.954393e+002
1.995977e+002, 4.976472e+002
2.000798e+002, 5.015179e+002
2.005619e+002, 5.051367e+002
2.010440e+002, 5.064389e+002
2.015261e+002, 5.050652e+002
2.020082e+002, 5.038076e+002
2.024904e+002, 5.029802e+002
2.029725e+002, 5.023799e+002
2.034546e+002, 5.018943e+002
2.039367e+002, 5.015219e+002
2.044188e+002, 5.013644e+002
2.049009e+002, 5.016359e+002
2.053831e+002, 5.025692e+002
2.058652e+002, 5.032084e+002
2.063473e+002, 5.035495e+002
2.068294e+002, 5.036011e+002
2.073115e+002, 5.032566e+002
2.077936e+002, 5.025490e+002
2.082758e+002, 5.016866e+002
2.087579e+002, 5.009462e+002
2.092400e+002, 5.003135e+002
2.097221e+002, 4.998637e+002
2.102042e+002, 4.992868e+002
2.106863e+002, 4.990585e+002
2.111685e+002, 4.998101e+002
2.116506e+002, 5.015277e+002
2.121327e+002, 5.033550e+002
2.126148e+002, 5.040075e+002
2.130969e+002, 5.026129e+002
2.135790e+002, 5.018022e+002
2.140612e+002, 5.018205e+002
2.145433e+002, 5.022194e+002
2.150254e+002, 5.024175e+002
2.155075e+002, 5.023419e+002
2.159896e+002, 5.027667e+002
2.164717e+002, 5.049969e+002
2.169539e+002, 5.106333e+002
2.174360e+002, 5.141063e+002
2.179181e+002, 5.136440e+002
2.184002e+002, 5.118192e+002
2.188823e+002, 5.112047e+002
2.193644e+002, 5.124291e+002
2.198466e+002, 5.143065e+002
2.203287e+002, 5.152631e+002
2.208108e+002, 5.151713e+002
2.212929e+002, 5.149412e+002
2.217750e+002, 5.144346e+002
2.222571e+002, 5.139501e+002
2.227393e+002, 5.141193e+002
2.232214e+002, 5.152122e+002
2.237035e+002, 5.161349e+002
2.241856e+002, 5.151923e+002
2.246677e+002, 5.125550e+002
2.251498e+002, 5.100245e+002
2.256320e+002, 5.081264e+002
2.261141e+002, 5.066024e+002
2.265962e+002, 5.050310e+002
2.270783e+002, 5.033254e+002
2.275604e+002, 5.016286e+002
2.280425e+002, 5.000509e+002
2.285247e+002, 4.985870e+002
2.290068e+002, 4.972223e+002
2.294889e+002, 4.958150e+002
2.299710e+002, 4.945260e+002
2.304531e+002, 4.938921e+002
2.309352e+002, 4.943978e+002
2.314174e+002, 4.946349e+002
2.318995e+002, 4.931765e+002
2.323816e+002, 4.905647e+002
2.328637e+002, 4.882653e+002
2.333458e+002, 4.872665e+002
2.338279e+002, 4.871532e+002
2.343101e+002, 4.864501e+002
2.347922e+002, 4.846268e+002
2.352743e+002, 4.830860e+002
2.357564e+002, 4.828590e+002
2.362385e+002, 4.834543e+002
2.367206e+002, 4.838586e+002
2.372028e+002, 4.832227e+002
2.376849e+002, 4.819207e+002
2.381670e+002, 4.817414e+002
2.386491e+002, 4.839790e+002
2.391312e+002, 4.853630e+002
2.396133e+002, 4.839862e+002
2.400955e+002, 4.810475e+002
2.405776e+002, 4.785464e+002
2.410597e+002, 4.777023e+002
2.415418e+002, 4.782273e+002
2.420239e+002, 4.787862e+002
2.425060e+002, 4.795487e+002
2.429882e+002, 4.800924e+002
2.434703e+002, 4.802199e+002
2.439524e+002, 4.800917e+002
2.444345e+002, 4.799312e+002
2.449166e+002, 4.798595e+002
2.453987e+002, 4.798615e+002
2.458809e+002, 4.798833e+002
2.463630e+002, 4.801035e+002
2.468451e+002, 4.800878e+002
2.473272e+002, 4.794262e+002
2.478093e+002, 4.785774e+002
2.482914e+002, 4.782446e+002
2.487736e+002, 4.788614e+002
2.492557e+002, 4.800608e+002
2.497378e+002, 4.802947e+002
2.502199e+002, 4.779299e+002
2.507020e+002, 4.766396e+002
2.511841e+002, 4.775866e+002
2.516663e+002, 4.796153e+002
2.521484e+002, 4.814210e+002
2.526305e+002, 4.823852e+002
2.531126e+002, 4.826635e+002
2.535947e+002, 4.827483e+002
2.540768e+002, 4.821736e+002
2.545590e+002, 4.819833e+002
2.550411e+002, 4.824319e+002
2.555232e+002, 4.832181e+002
2.560053e+002, 4.840767e+002
2.564874e+002, 4.848905e+002
2.569695e+002, 4.856064e+002
2.574517e+002, 4.860943e+002
2.579338e+002, 4.859667e+002
2.584159e+002, 4.860705e+002
2.588980e+002, 4.864950e+002
2.593801e+002, 4.871155e+002
2.598622e+002, 4.879558e+002
2.603444e+002, 4.890059e+002
2.608265e+002, 4.899248e+002
2.613086e+002, 4.900365e+002
2.617907e+002, 4.883661e+002
2.622728e+002, 4.874124e+002
2.627549e+002, 4.875238e+002
2.632371e+002, 4.882060e+002
2.637192e+002, 4.890931e+002
2.642013e+002, 4.900693e+002
2.646834e+002, 4.910016e+002
2.651655e+002, 4.917039e+002
2.656476e+002, 4.921574e+002
2.661298e+002, 4.923410e+002
2.666119e+002, 4.918330e+002
2.670940e+002, 4.912900e+002
2.675761e+002, 4.913308e+002
2.680582e+002, 4.920759e+002
2.685403e+002, 4.932391e+002
2.690225e+002, 4.945336e+002
2.695046e+002, 4.959991e+002
2.699867e+002, 4.974508e+002
2.704688e+002, 4.996266e+002
2.709509e+002, 5.013249e+002
2.714330e+002, 5.011876e+002
2.719152e+002, 4.991373e+002
2.723973e+002, 4.966203e+002
2.728794e+002, 4.949172e+002
2.733615e+002, 4.941208e+002
2.738436e+002, 4.935677e+002
2.743257e+002, 4.932626e+002
2.748079e+002, 4.931803e+002
2.752900e+002, 4.934962e+002
2.757721e+002, 4.941642e+002
2.762542e+002, 4.945832e+002
2.767363e+002, 4.941886e+002
2.772184e+002, 4.930735e+002
2.777006e+002, 4.923221e+002
2.781827e+002, 4.921778e+002
2.786648e+002, 4.922097e+002
2.791469e+002, 4.921991e+002
2.796290e+002, 4.921301e+002
2.801111e+002, 4.918947e+002
2.805933e+002, 4.912556e+002
2.810754e+002, 4.904730e+002
2.815575e+002, 4.903802e+002
2.820396e+002, 4.918147e+002
2.825217e+002, 4.929278e+002
2.830038e+002, 4.922433e+002
2.834860e+002, 4.900881e+002
2.839681e+002, 4.881728e+002
2.844502e+002, 4.872949e+002
2.849323e+002, 4.871284e+002
2.854144e+002, 4.869026e+002
2.858965e+002, 4.866048e+002
2.863787e+002, 4.862847e+002
2.868608e+002, 4.857791e+002
2.873429e+002, 4.852281e+002
2.878250e+002, 4.852106e+002
2.883071e+002, 4.861271e+002
2.887892e+002, 4.873781e+002
2.892714e+002, 4.880949e+002
2.897535e+002, 4.882466e+002
2.902356e+002, 4.882474e+002
2.907177e+002, 4.882908e+002
2.911998e+002, 4.883290e+002
2.916819e+002, 4.881767e+002
2.921641e+002, 4.876696e+002
2.926462e+002, 4.872096e+002
2.931283e+002, 4.873258e+002
2.936104e+002, 4.879444e+002
2.940925e+002, 4.885228e+002
2.945746e+002, 4.886706e+002
2.950568e+002, 4.886611e+002
2.955389e+002, 4.891057e+002
2.960210e+002, 4.901930e+002
2.965031e+002, 4.913830e+002
2.969852e+002, 4.921656e+002
2.974673e+002, 4.926734e+002
2.979495e+002, 4.932625e+002
2.984316e+002, 4.940724e+002
2.989137e+002, 4.950174e+002
2.993958e+002, 4.959870e+002
2.998779e+002, 4.969869e+002
3.003600e+002, 4.979707e+002
3.008422e+002, 4.987821e+002
3.013243e+002, 4.995742e+002
3.018064e+002, 5.005887e+002
3.022885e+002, 5.016847e+002
3.027706e+002, 5.032273e+002
3.032527e+002, 5.060394e+002
3.037349e+002, 5.102645e+002
3.042170e+002, 5.138453e+002
3.046991e+002, 5.152197e+002
3.051812e+002, 5.156466e+002
3.056633e+002, 5.167786e+002
3.061454e+002, 5.188429e+002
3.066276e+002, 5.215536e+002
3.071097e+002, 5.247635e+002
3.075918e+002, 5.284536e+002
3.080739e+002, 5.324539e+002
3.085560e+002, 5.368492e+002
3.090381e+002, 5.413831e+002
3.095203e+002, 5.458459e+002
3.100024e+002, 5.502789e+002
3.104845e+002, 5.543365e+002
3.109666e+002, 5.570926e+002
3.114487e+002, 5.590222e+002
3.119308e+002, 5.627787e+002
3.124130e+002, 5.700420e+002
3.128951e+002, 5.775208e+002
3.133772e+002, 5.819213e+002
3.138593e+002, 5.836600e+002
3.143414e+002, 5.852038e+002
3.148235e+002, 5.880901e+002
3.153057e+002, 5.916799e+002
3.157878e+002, 5.944396e+002
3.162699e+002, 5.962956e+002
3.167520e+002, 5.971321e+002
3.172341e+002, 5.966658e+002
3.177162e+002, 5.951747e+002
3.181984e+002, 5.930648e+002
3.186805e+002, 5.898923e+002
3.191626e+002, 5.864613e+002
3.196447e+002, 5.842386e+002
3.201268e+002, 5.834854e+002
3.206089e+002, 5.826473e+002
3.210911e+002, 5.805392e+002
3.215732e+002, 5.778746e+002
3.220553e+002, 5.756879e+002
3.225374e+002, 5.744277e+002
3.230195e+002, 5.732871e+002
3.235016e+002, 5.715036e+002
3.239838e+002, 5.690657e+002
3.244659e+002, 5.662150e+002
3.249480e+002, 5.629047e+002
3.254301e+002, 5.592955e+002
3.259122e+002, 5.555999e+002
3.263943e+002, 5.517670e+002
3.268765e+002, 5.480023e+002
3.273586e+002, 5.445980e+002
3.278407e+002, 5.414360e+002
3.283228e+002, 5.378544e+002
3.288049e+002, 5.333802e+002
3.292870e+002, 5.288997e+002
3.297692e+002, 5.254333e+002
3.302513e+002, 5.228990e+002
3.307334e+002, 5.203427e+002
3.312155e+002, 5.170842e+002
3.316976e+002, 5.135047e+002
3.321797e+002, 5.105435e+002
3.326619e+002, 5.084189e+002
3.331440e+002, 5.065760e+002
3.336261e+002, 5.044476e+002
3.341082e+002, 5.022304e+002
3.345903e+002, 5.004531e+002
3.350724e+002, 4.993279e+002
3.355546e+002, 4.987159e+002
3.360367e+002, 4.986882e+002
3.365188e+002, 4.993304e+002
3.370009e+002, 4.996206e+002
3.374830e+002, 4.986246e+002
3.379651e+002, 4.969843e+002
3.384473e+002, 4.959261e+002
3.389294e+002, 4.957655e+002
3.394115e+002, 4.959203e+002
3.398936e+002, 4.960740e+002
3.403757e+002, 4.962024e+002
3.408578e+002, 4.960136e+002
3.413400e+002, 4.950109e+002
3.418221e+002, 4.940663e+002
3.423042e+002, 4.946346e+002
3.427863e+002, 4.970139e+002
3.432684e+002, 4.991591e+002
3.437505e+002, 4.998486e+002
3.442327e+002, 4.995720e+002
3.447148e+002, 4.994767e+002
3.451969e+002, 4.997969e+002
3.456790e+002, 5.003596e+002
3.461611e+002, 5.008649e+002
3.466432e+002, 5.013434e+002
3.471254e+002, 5.023728e+002
3.476075e+002, 5.042120e+002
3.480896e+002, 5.066292e+002
3.485717e+002, 5.097061e+002
3.490538e+002, 5.135126e+002
3.495359e+002, 5.166010e+002
3.500181e+002, 5.174935e+002
3.505002e+002, 5.166955e+002
3.509823e+002, 5.167353e+002
3.514644e+002, 5.182443e+002
3.519465e+002, 5.202021e+002
3.524286e+002, 5.220593e+002
3.529108e+002, 5.238120e+002
3.533929e+002, 5.254595e+002
3.538750e+002, 5.269288e+002
3.543571e+002, 5.283548e+002
3.548392e+002, 5.301428e+002
3.553214e+002, 5.326134e+002
3.558035e+002, 5.346928e+002
3.562856e+002, 5.361818e+002
3.567677e+002, 5.369814e+002
3.572498e+002, 5.368142e+002
3.577319e+002, 5.355409e+002
3.582141e+002, 5.335965e+002
3.586962e+002, 5.313788e+002
3.591783e+002, 5.287721e+002
3.596604e+002, 5.266324e+002
3.601425e+002, 5.253474e+002
3.606246e+002, 5.243845e+002
3.611068e+002, 5.234333e+002
3.615889e+002, 5.224025e+002
3.620710e+002, 5.209772e+002
3.625531e+002, 5.187893e+002
3.630352e+002, 5.158447e+002
3.635173e+002, 5.133107e+002
3.639995e+002, 5.108176e+002
3.644816e+002, 5.090311e+002
3.649637e+002, 5.087028e+002
3.654458e+002, 5.093708e+002
3.659279e+002, 5.098341e+002
3.664100e+002, 5.094280e+002
3.668922e+002, 5.084865e+002
3.673743e+002, 5.081132e+002
3.678564e+002, 5.086405e+002
3.683385e+002, 5.092154e+002
3.688206e+002, 5.097102e+002
3.693027e+002, 5.102045e+002
3.697849e+002, 5.107695e+002
3.702670e+002, 5.114260e+002
3.707491e+002, 5.121961e+002
3.712312e+002, 5.131276e+002
3.717133e+002, 5.142983e+002
3.721954e+002, 5.153782e+002
3.726776e+002, 5.160599e+002
3.731597e+002, 5.169055e+002
3.736418e+002, 5.184071e+002
3.741239e+002, 5.204529e+002
3.746060e+002, 5.225457e+002
3.750881e+002, 5.243530e+002
3.755703e+002, 5.258615e+002
3.760524e+002, 5.268491e+002
3.765345e+002, 5.270916e+002
3.770166e+002, 5.270975e+002
3.774987e+002, 5.272012e+002
3.779808e+002, 5.270800e+002
3.784630e+002, 5.261919e+002
3.789451e+002, 5.242838e+002
3.794272e+002, 5.216952e+002
3.799093e+002, 5.192400e+002
3.803914e+002, 5.171493e+002
3.808735e+002, 5.147693e+002
3.813557e+002, 5.117770e+002
3.818378e+002, 5.087297e+002
3.823199e+002, 5.059230e+002
3.828020e+002, 5.034447e+002
3.832841e+002, 5.013610e+002
3.837662e+002, 4.998340e+002
3.842484e+002, 4.989669e+002
3.847305e+002, 4.978825e+002
3.852126e+002, 4.962895e+002
3.856947e+002, 4.947403e+002
3.861768e+002, 4.932215e+002
3.866589e+002, 4.918910e+002
3.871411e+002, 4.911011e+002
3.876232e+002, 4.911884e+002
3.881053e+002, 4.917677e+002
3.885874e+002, 4.913475e+002
3.890695e+002, 4.891312e+002
3.895516e+002, 4.874203e+002
3.900338e+002, 4.869053e+002
3.905159e+002, 4.869610e+002
3.909980e+002, 4.870911e+002
3.914801e+002, 4.871535e+002
3.919622e+002, 4.871838e+002
3.924443e+002, 4.871784e+002
3.929265e+002, 4.871148e+002
3.934086e+002, 4.872516e+002
3.938907e+002, 4.877489e+002
3.943728e+002, 4.883521e+002
3.948549e+002, 4.891436e+002
3.953370e+002, 4.899742e+002
3.958192e+002, 4.903289e+002
3.963013e+002, 4.895159e+002
3.967834e+002, 4.879830e+002
3.972655e+002, 4.872957e+002
3.977476e+002, 4.877458e+002
3.982297e+002, 4.882906e+002
3.987119e+002, 4.879562e+002
3.991940e+002, 4.875116e+002
3.996761e+002, 4.881124e+002
4.001582e+002, 4.903787e+002
4.006403e+002, 4.930211e+002
4.011224e+002, 4.945960e+002
4.016046e+002, 4.951891e+002
4.020867e+002, 4.961125e+002
4.025688e+002, 4.979038e+002
4.030509e+002, 5.000363e+002
4.035330e+002, 5.018241e+002
4.040151e+002, 5.032554e+002
4.044973e+002, 5.048161e+002
4.049794e+002, 5.067231e+002
4.054615e+002, 5.088961e+002
4.059436e+002, 5.111789e+002
4.064257e+002, 5.135261e+002
4.069078e+002, 5.161064e+002
4.073900e+002, 5.191913e+002
4.078721e+002, 5.226521e+002
4.083542e+002, 5.258429e+002
4.088363e+002, 5.283386e+002
4.093184e+002, 5.308881e+002
4.098005e+002, 5.342699e+002
4.102827e+002, 5.381683e+002
4.107648e+002, 5.413283e+002
4.112469e+002, 5.430476e+002
4.117290e+002, 5.440142e+002
4.122111e+002, 5.458762e+002
4.126932e+002, 5.492060e+002
4.131754e+002, 5.518676e+002
4.136575e+002, 5.536039e+002
4.141396e+002, 5.544351e+002
4.146217e+002, 5.543593e+002
4.151038e+002, 5.533810e+002
4.155859e+002, 5.515417e+002
4.160681e+002, 5.488226e+002
4.165502e+002, 5.451557e+002
4.170323e+002, 5.411804e+002
4.175144e+002, 5.365049e+002
4.179965e+002, 5.319797e+002
4.184786e+002, 5.278093e+002
4.189608e+002, 5.240646e+002
4.194429e+002, 5.208707e+002
4.199250e+002, 5.183191e+002
4.204071e+002, 5.161653e+002
4.208892e+002, 5.137231e+002
4.213713e+002, 5.107602e+002
4.218535e+002, 5.078656e+002
4.223356e+002, 5.049478e+002
4.228177e+002, 5.021635e+002
4.232998e+002, 4.995914e+002
4.237819e+002, 4.972632e+002
4.242640e+002, 4.952836e+002
4.247462e+002, 4.938816e+002
4.252283e+002, 4.931296e+002
4.257104e+002, 4.917719e+002
4.261925e+002, 4.887206e+002
4.266746e+002, 4.862445e+002
4.271567e+002, 4.851284e+002
4.276389e+002, 4.849729e+002
4.281210e+002, 4.852275e+002
4.286031e+002, 4.856935e+002
4.290852e+002, 4.861751e+002
4.295673e+002, 4.863015e+002
4.300494e+002, 4.860737e+002
4.305316e+002, 4.854987e+002
4.310137e+002, 4.840168e+002
4.314958e+002, 4.825705e+002
4.319779e+002, 4.818896e+002
4.324600e+002, 4.819718e+002
4.329421e+002, 4.821134e+002
4.334243e+002, 4.816548e+002
4.339064e+002, 4.807859e+002
4.343885e+002, 4.804290e+002
4.348706e+002, 4.809032e+002
4.353527e+002, 4.812409e+002
4.358348e+002, 4.804364e+002
4.363170e+002, 4.791323e+002
4.367991e+002, 4.784503e+002
4.372812e+002, 4.789450e+002
4.377633e+002, 4.797497e+002
4.382454e+002, 4.801635e+002
4.387275e+002, 4.802009e+002
4.392097e+002, 4.799048e+002
4.396918e+002, 4.791582e+002
4.401739e+002, 4.782768e+002
4.406560e+002, 4.773826e+002
4.411381e+002, 4.762539e+002
4.416202e+002, 4.767063e+002
4.421024e+002, 4.811877e+002
4.425845e+002, 4.864532e+002
4.430666e+002, 4.885575e+002
4.435487e+002, 4.872498e+002
4.440308e+002, 4.849281e+002
4.445129e+002, 4.832568e+002
4.449951e+002, 4.821644e+002
4.454772e+002, 4.808412e+002
4.459593e+002, 4.786304e+002
4.464414e+002, 4.769875e+002
4.469235e+002, 4.766822e+002
4.474056e+002, 4.771307e+002
4.478878e+002, 4.774282e+002
4.483699e+002, 4.772693e+002
4.488520e+002, 4.770244e+002
4.493341e+002, 4.772969e+002
4.498162e+002, 4.783956e+002
4.502983e+002, 4.791346e+002
4.507805e+002, 4.792551e+002
4.512626e+002, 4.793106e+002
4.517447e+002, 4.797287e+002
4.522268e+002, 4.803389e+002
4.527089e+002, 4.805942e+002
4.531910e+002, 4.800685e+002
4.536732e+002, 4.790240e+002
4.541553e+002, 4.785655e+002
4.546374e+002, 4.788504e+002
4.551195e+002, 4.795089e+002
4.556016e+002, 4.806024e+002
4.560837e+002, 4.819018e+002
4.565659e+002, 4.833127e+002
4.570480e+002, 4.847857e+002
4.575301e+002, 4.860954e+002
4.580122e+002, 4.869958e+002
4.584943e+002, 4.874943e+002
4.589764e+002, 4.877900e+002
4.594586e+002, 4.875917e+002
4.599407e+002, 4.876491e+002
4.604228e+002, 4.883681e+002
4.609049e+002, 4.895703e+002
4.613870e+002, 4.910419e+002
4.618691e+002, 4.930041e+002
4.623513e+002, 4.947163e+002
4.628334e+002, 4.950922e+002
4.633155e+002, 4.941784e+002
4.637976e+002, 4.932243e+002
4.642797e+002, 4.927104e+002
4.647618e+002, 4.921939e+002
4.652440e+002, 4.910997e+002
4.657261e+002, 4.894311e+002
4.662082e+002, 4.876339e+002
4.666903e+002, 4.853625e+002
4.671724e+002, 4.833001e+002
4.676545e+002, 4.827087e+002
4.681367e+002, 4.835648e+002
4.686188e+002, 4.839318e+002
4.691009e+002, 4.823123e+002
4.695830e+002, 4.792057e+002
4.700651e+002, 4.771219e+002
4.705472e+002, 4.763999e+002
4.710294e+002, 4.761199e+002
4.715115e+002, 4.764497e+002
4.719936e+002, 4.769279e+002
4.724757e+002, 4.767269e+002
4.729578e+002, 4.757114e+002
4.734399e+002, 4.748930e+002
4.739221e+002, 4.756583e+002
4.744042e+002, 4.785303e+002
4.748863e+002, 4.799162e+002
4.753684e+002, 4.790437e+002
4.758505e+002, 4.777049e+002
4.763326e+002, 4.762654e+002
4.768148e+002, 4.748706e+002
4.772969e+002, 4.735952e+002
4.777790e+002, 4.724738e+002
4.782611e+002, 4.716260e+002
4.787432e+002, 4.713756e+002
4.792253e+002, 4.719160e+002
4.797075e+002, 4.725191e+002
4.801896e+002, 4.730277e+002
4.806717e+002, 4.736458e+002
4.811538e+002, 4.747734e+002
4.816359e+002, 4.762018e+002
4.821180e+002, 4.771212e+002
4.826002e+002, 4.767851e+002
4.830823e+002, 4.756087e+002
4.835644e+002, 4.747310e+002
4.840465e+002, 4.741955e+002
4.845286e+002, 4.738371e+002
4.850107e+002, 4.739720e+002
4.854929e+002, 4.740367e+002
4.859750e+002, 4.731218e+002
4.864571e+002, 4.708727e+002
4.869392e+002, 4.690398e+002
4.874213e+002, 4.687579e+002
4.879034e+002, 4.696479e+002
4.883856e+002, 4.711094e+002
4.888677e+002, 4.731626e+002
4.893498e+002, 4.749412e+002
4.898319e+002, 4.756036e+002
4.903140e+002, 4.751996e+002
4.907961e+002, 4.749828e+002
4.912783e+002, 4.752387e+002
4.917604e+002, 4.753778e+002
4.922425e+002, 4.746317e+002
4.927246e+002, 4.736711e+002
4.932067e+002, 4.739615e+002
4.936888e+002, 4.760167e+002
4.941710e+002, 4.787053e+002
4.946531e+002, 4.802631e+002
4.951352e+002, 4.803434e+002
4.956173e+002, 4.803081e+002
4.960994e+002, 4.800975e+002
4.965815e+002, 4.798471e+002
4.970637e+002, 4.795003e+002
4.975458e+002, 4.791741e+002
4.980279e+002, 4.792023e+002
4.985100e+002, 4.798330e+002
4.989921e+002, 4.806126e+002
4.994742e+002, 4.801996e+002
4.999564e+002, 4.777668e+002
5.004385e+002, 4.762464e+002
5.009206e+002, 4.768960e+002
5.014027e+002, 4.778981e+002
5.018848e+002, 4.782763e+002
5.023669e+002, 4.779698e+002
5.028491e+002, 4.773026e+002
5.033312e+002, 4.762754e+002
5.038133e+002, 4.751006e+002
5.042954e+002, 4.744734e+002
5.047775e+002, 4.745536e+002
5.052596e+002, 4.744250e+002
5.057418e+002, 4.733722e+002
5.062239e+002, 4.720363e+002
5.067060e+002, 4.713130e+002
5.071881e+002, 4.713122e+002
5.076702e+002, 4.716702e+002
5.081523e+002, 4.726494e+002
5.086345e+002, 4.737274e+002
5.091166e+002, 4.738864e+002
5.095987e+002, 4.729730e+002
5.100808e+002, 4.718584e+002
5.105629e+002, 4.711892e+002
5.110450e+002, 4.709558e+002
5.115272e+002, 4.709229e+002
5.120093e+002, 4.713964e+002
5.124914e+002, 4.716776e+002
5.129735e+002, 4.714194e+002
5.134556e+002, 4.709095e+002
5.139377e+002, 4.705207e+002
5.144199e+002, 4.703573e+002
5.149020e+002, 4.702727e+002
5.153841e+002, 4.700571e+002
5.158662e+002, 4.696462e+002
5.163483e+002, 4.695536e+002
5.168304e+002, 4.705338e+002
5.173126e+002, 4.710274e+002
5.177947e+002, 4.701137e+002
5.182768e+002, 4.685801e+002
5.187589e+002, 4.676706e+002
5.192410e+002, 4.679053e+002
5.197231e+002, 4.684825e+002
5.202053e+002, 4.680439e+002
5.206874e+002, 4.664672e+002
5.211695e+002, 4.657458e+002
5.216516e+002, 4.668397e+002
5.221337e+002, 4.679461e+002
5.226158e+002, 4.676493e+002
5.230980e+002, 4.663784e+002
5.235801e+002, 4.653822e+002
5.240622e+002, 4.654055e+002
5.245443e+002, 4.655930e+002
5.250264e+002, 4.648448e+002
5.255085e+002, 4.633551e+002
5.259907e+002, 4.623121e+002
5.264728e+002, 4.621516e+002
5.269549e+002, 4.625678e+002
5.274370e+002, 4.632856e+002
5.279191e+002, 4.644593e+002
5.284012e+002, 4.650064e+002
5.288834e+002, 4.642501e+002
5.293655e+002, 4.633238e+002
5.298476e+002, 4.629884e+002
5.303297e+002, 4.631585e+002
5.308118e+002, 4.634681e+002
5.312939e+002, 4.637344e+002
5.317761e+002, 4.639187e+002
5.322582e+002, 4.639032e+002
5.327403e+002, 4.634522e+002
5.332224e+002, 4.632277e+002
5.337045e+002, 4.635726e+002
5.341866e+002, 4.638197e+002
5.346688e+002, 4.635291e+002
5.351509e+002, 4.627740e+002
5.356330e+002, 4.618642e+002
5.361151e+002, 4.609327e+002
5.365972e+002, 4.600742e+002
5.370793e+002, 4.595458e+002
5.375615e+002, 4.593906e+002
5.380436e+002, 4.594245e+002
5.385257e+002, 4.599701e+002
5.390078e+002, 4.603926e+002
5.394899e+002, 4.598362e+002
5.399720e+002, 4.583697e+002
5.404542e+002, 4.575128e+002
5.409363e+002, 4.587258e+002
5.414184e+002, 4.606337e+002
5.419005e+002, 4.611295e+002
5.423826e+002, 4.602046e+002
5.428647e+002, 4.592622e+002
5.433469e+002, 4.590865e+002
5.438290e+002, 4.592998e+002
5.443111e+002, 4.588312e+002
5.447932e+002, 4.571510e+002
5.452753e+002, 4.561196e+002
5.457574e+002, 4.565399e+002
5.462396e+002, 4.573178e+002
5.467217e+002, 4.574819e+002
5.472038e+002, 4.570529e+002
5.476859e+002, 4.566467e+002
5.481680e+002, 4.567202e+002
5.486501e+002, 4.571148e+002
5.491323e+002, 4.571080e+002
5.496144e+002, 4.564155e+002
5.500965e+002, 4.558041e+002
5.505786e+002, 4.551210e+002
5.510607e+002, 4.547140e+002
5.515428e+002, 4.551442e+002
5.520250e+002, 4.562290e+002
5.525071e+002, 4.569406e+002
5.529892e+002, 4.561635e+002
5.534713e+002, 4.545824e+002
5.539534e+002, 4.544969e+002
5.544355e+002, 4.563433e+002
5.549177e+002, 4.574151e+002
5.553998e+002, 4.559055e+002
5.558819e+002, 4.535890e+002
5.563640e+002, 4.529574e+002
5.568461e+002, 4.542409e+002
5.573282e+002, 4.555914e+002
5.578104e+002, 4.565388e+002
5.582925e+002, 4.570356e+002
5.587746e+002, 4.566855e+002
5.592567e+002, 4.556406e+002
5.597388e+002, 4.551283e+002
5.602209e+002, 4.560401e+002
5.607031e+002, 4.577662e+002
5.611852e+002, 4.583590e+002
5.616673e+002, 4.569909e+002
5.621494e+002, 4.555923e+002
5.626315e+002, 4.538167e+002
5.631136e+002, 4.523089e+002
5.635958e+002, 4.516489e+002
5.640779e+002, 4.517257e+002
5.645600e+002, 4.520149e+002
5.650421e+002, 4.521553e+002
5.655242e+002, 4.522123e+002
5.660063e+002, 4.523652e+002
5.664885e+002, 4.525245e+002
5.669706e+002, 4.530377e+002
5.674527e+002, 4.547111e+002
5.679348e+002, 4.562147e+002
5.684169e+002, 4.564528e+002
5.688990e+002, 4.555232e+002
5.693812e+002, 4.545302e+002
5.698633e+002, 4.540143e+002
5.703454e+002, 4.537940e+002
5.708275e+002, 4.536740e+002
5.713096e+002, 4.536432e+002
5.717917e+002, 4.535776e+002
5.722739e+002, 4.534471e+002
5.727560e+002, 4.532155e+002
5.732381e+002, 4.527046e+002
5.737202e+002, 4.516715e+002
5.742023e+002, 4.513172e+002
5.746844e+002, 4.523468e+002
5.751666e+002, 4.535778e+002
5.756487e+002, 4.542287e+002
5.761308e+002, 4.543936e+002
5.766129e+002, 4.545126e+002
5.770950e+002, 4.548210e+002
5.775771e+002, 4.551461e+002
5.780593e+002, 4.550327e+002
5.785414e+002, 4.541597e+002
5.790235e+002, 4.537211e+002
5.795056e+002, 4.541328e+002
5.799877e+002, 4.546591e+002
5.804698e+002, 4.551336e+002
5.809520e+002, 4.554536e+002
5.814341e+002, 4.553861e+002
5.819162e+002, 4.546333e+002
5.823983e+002, 4.538524e+002
5.828804e+002, 4.541582e+002
5.833625e+002, 4.554172e+002
5.838447e+002, 4.560518e+002
5.843268e+002, 4.554000e+002
5.848089e+002, 4.547261e+002
5.852910e+002, 4.559008e+002
5.857731e+002, 4.586116e+002
5.862552e+002, 4.594694e+002
5.867374e+002, 4.562482e+002
5.872195e+002, 4.531288e+002
5.877016e+002, 4.523730e+002
5.881837e+002, 4.531786e+002
5.886658e+002, 4.542380e+002
5.891479e+002, 4.551184e+002
5.896301e+002, 4.558353e+002
5.901122e+002, 4.564289e+002
5.905943e+002, 4.569188e+002
5.910764e+002, 4.570694e+002
5.915585e+002, 4.566263e+002
5.920406e+002, 4.561181e+002
5.925228e+002, 4.553021e+002
5.930049e+002, 4.546584e+002
5.934870e+002, 4.549801e+002
5.939691e+002, 4.564318e+002
5.944512e+002, 4.578120e+002
5.949333e+002, 4.578818e+002
5.954155e+002, 4.568990e+002
5.958976e+002, 4.557653e+002
5.963797e+002, 4.543020e+002
5.968618e+002, 4.537947e+002
5.973439e+002, 4.557877e+002
5.978260e+002, 4.589610e+002
5.983082e+002, 4.600118e+002
5.987903e+002, 4.580741e+002
5.992724e+002, 4.562148e+002
5.997545e+002, 4.554579e+002
6.002366e+002, 4.552437e+002
6.007188e+002, 4.550602e+002
6.012009e+002, 4.548336e+002
6.016830e+002, 4.546060e+002
6.021651e+002, 4.543824e+002
6.026472e+002, 4.542316e+002
6.031293e+002, 4.544497e+002
6.036115e+002, 4.554356e+002
6.040936e+002, 4.560475e+002
6.045757e+002, 4.559026e+002
6.050578e+002, 4.556678e+002
6.055399e+002, 4.558273e+002
6.060220e+002, 4.562693e+002
6.065042e+002, 4.565304e+002
6.069863e+002, 4.563018e+002
6.074684e+002, 4.558307e+002
6.079505e+002, 4.554136e+002
6.084326e+002, 4.550577e+002
6.089147e+002, 4.551006e+002
6.093969e+002, 4.557989e+002
6.098790e+002, 4.566153e+002
6.103611e+002, 4.568966e+002
6.108432e+002, 4.566984e+002
6.113253e+002, 4.566883e+002
6.118074e+002, 4.572403e+002
6.122896e+002, 4.576803e+002
6.127717e+002, 4.572788e+002
6.132538e+002, 4.566289e+002
6.137359e+002, 4.569222e+002
6.142180e+002, 4.584507e+002
6.147001e+002, 4.602028e+002
6.151823e+002, 4.609414e+002
6.156644e+002, 4.605996e+002
6.161465e+002, 4.606101e+002
6.166286e+002, 4.613684e+002
6.171107e+002, 4.619317e+002
6.175928e+002, 4.618293e+002
6.180750e+002, 4.615557e+002
6.185571e+002, 4.617821e+002
6.190392e+002, 4.625970e+002
6.195213e+002, 4.631161e+002
6.200034e+002, 4.619673e+002
6.204855e+002, 4.602160e+002
6.209677e+002, 4.606786e+002
6.214498e+002, 4.635513e+002
6.219319e+002, 4.660147e+002
6.224140e+002, 4.665551e+002
6.228961e+002, 4.659825e+002
6.233782e+002, 4.660713e+002
6.238604e+002, 4.672116e+002
6.243425e+002, 4.677093e+002
6.248246e+002, 4.660850e+002
6.253067e+002, 4.648959e+002
6.257888e+002, 4.664093e+002
6.262709e+002, 4.697635e+002
6.267531e+002, 4.726998e+002
6.272352e+002, 4.740942e+002
6.277173e+002, 4.745500e+002
6.281994e+002, 4.750904e+002
6.286815e+002, 4.757378e+002
6.291636e+002, 4.763175e+002
6.296458e+002, 4.765821e+002
6.301279e+002, 4.770900e+002
6.306100e+002, 4.778123e+002
6.310921e+002, 4.790059e+002
6.315742e+002, 4.813464e+002
6.320563e+002, 4.854810e+002
6.325385e+002, 4.893220e+002
6.330206e+002, 4.908216e+002
6.335027e+002, 4.910961e+002
6.339848e+002, 4.924203e+002
6.344669e+002, 4.951179e+002
6.349490e+002, 4.981743e+002
6.354312e+002, 5.008224e+002
6.359133e+002, 5.032577e+002
6.363954e+002, 5.064523e+002
6.368775e+002, 5.111803e+002
6.373596e+002, 5.156321e+002
6.378417e+002, 5.192304e+002
6.383239e+002, 5.229415e+002
6.388060e+002, 5.273537e+002
6.392881e+002, 5.325125e+002
6.397702e+002, 5.381457e+002
6.402523e+002, 5.439654e+002
6.407344e+002, 5.504828e+002
6.412166e+002, 5.589500e+002
6.416987e+002, 5.694952e+002
6.421808e+002, 5.796779e+002
6.426629e+002, 5.887246e+002
6.431450e+002, 5.978607e+002
6.436271e+002, 6.079266e+002
6.441093e+002, 6.189691e+002
6.445914e+002, 6.312902e+002
6.450735e+002, 6.449814e+002
6.455556e+002, 6.598328e+002
6.460377e+002, 6.758434e+002
6.465198e+002, 6.929232e+002
6.470020e+002, 7.110984e+002
6.474841e+002, 7.301884e+002
6.479662e+002, 7.496552e+002
6.484483e+002, 7.691248e+002
6.489304e+002, 7.884026e+002
6.494125e+002, 8.071735e+002
6.498947e+002, 8.266185e+002
6.503768e+002, 8.429811e+002
6.508589e+002, 8.557313e+002
6.513410e+002, 8.651977e+002
6.518231e+002, 8.722266e+002
6.523052e+002, 8.762982e+002
6.527874e+002, 8.751657e+002
6.532695e+002, 8.669850e+002
6.537516e+002, 8.537273e+002
6.542337e+002, 8.371188e+002
6.547158e+002, 8.174152e+002
6.551979e+002, 7.954525e+002
6.556801e+002, 7.712365e+002
6.561622e+002, 7.461414e+002
6.566443e+002, 7.212020e+002
6.571264e+002, 6.963824e+002
6.576085e+002, 6.737004e+002
6.580906e+002, 6.536606e+002
6.585728e+002, 6.348448e+002
6.590549e+002, 6.165549e+002
6.595370e+002, 5.993908e+002
6.600191e+002, 5.837458e+002
6.605012e+002, 5.697159e+002
6.609833e+002, 5.573661e+002
6.614655e+002, 5.468600e+002
6.619476e+002, 5.379605e+002
6.624297e+002, 5.304003e+002
6.629118e+002, 5.243088e+002
6.633939e+002, 5.186749e+002
6.638760e+002, 5.134451e+002
6.643582e+002, 5.082833e+002
6.648403e+002, 5.025062e+002
6.653224e+002, 4.961987e+002
6.658045e+002, 4.909614e+002
6.662866e+002, 4.873177e+002
6.667687e+002, 4.845221e+002
6.672509e+002, 4.824290e+002
6.677330e+002, 4.808388e+002
6.682151e+002, 4.796026e+002
6.686972e+002, 4.786182e+002
6.691793e+002, 4.774992e+002
6.696614e+002, 4.756762e+002
6.701436e+002, 4.732693e+002
6.706257e+002, 4.721342e+002
6.711078e+002, 4.731485e+002
6.715899e+002, 4.736152e+002
6.720720e+002, 4.724234e+002
6.725541e+002, 4.706353e+002
6.730363e+002, 4.687546e+002
6.735184e+002, 4.669157e+002
6.740005e+002, 4.657593e+002
6.744826e+002, 4.658462e+002
6.749647e+002, 4.664961e+002
6.754468e+002, 4.674184e+002
6.759290e+002, 4.683484e+002
6.764111e+002, 4.682200e+002
6.768932e+002, 4.666734e+002
6.773753e+002, 4.652059e+002
6.778574e+002, 4.656682e+002
6.783395e+002, 4.681515e+002
6.788217e+002, 4.702612e+002
6.793038e+002, 4.722730e+002
6.797859e+002, 4.735120e+002
6.802680e+002, 4.733248e+002
6.807501e+002, 4.726801e+002
6.812322e+002, 4.724679e+002
6.817144e+002, 4.727435e+002
6.821965e+002, 4.729401e+002
6.826786e+002, 4.724552e+002
6.831607e+002, 4.718315e+002
6.836428e+002, 4.720599e+002
6.841249e+002, 4.730512e+002
6.846071e+002, 4.740171e+002
6.850892e+002, 4.747011e+002
6.855713e+002, 4.753608e+002
6.860534e+002, 4.763172e+002
6.865355e+002, 4.775882e+002
6.870176e+002, 4.787365e+002
6.874998e+002, 4.802309e+002
6.879819e+002, 4.810235e+002
6.884640e+002, 4.807560e+002
6.889461e+002, 4.797195e+002
6.894282e+002, 4.778189e+002
6.899103e+002, 4.753208e+002
6.903925e+002, 4.732833e+002
6.908746e+002, 4.728428e+002
6.913567e+002, 4.731097e+002
6.918388e+002, 4.718185e+002
6.923209e+002, 4.689120e+002
6.928030e+002, 4.658946e+002
6.932852e+002, 4.629455e+002
6.937673e+002, 4.604176e+002
6.942494e+002, 4.588360e+002
6.947315e+002, 4.581370e+002
6.952136e+002, 4.572179e+002
6.956957e+002, 4.556732e+002
6.961779e+002, 4.543411e+002
6.966600e+002, 4.536434e+002
6.971421e+002, 4.532284e+002
6.976242e+002, 4.527274e+002
6.981063e+002, 4.520841e+002
6.985884e+002, 4.513981e+002
6.990706e+002, 4.507035e+002
6.995527e+002, 4.500915e+002
7.000348e+002, 4.498895e+002
7.005169e+002, 4.501772e+002
7.009990e+002, 4.503498e+002
7.014811e+002, 4.502115e+002
7.019633e+002, 4.500344e+002
7.024454e+002, 4.502311e+002
7.029275e+002, 4.506061e+002
7.034096e+002, 4.504425e+002
7.038917e+002, 4.490660e+002
7.043738e+002, 4.479326e+002
7.048560e+002, 4.478806e+002
7.053381e+002, 4.482615e+002
7.058202e+002, 4.483338e+002
7.063023e+002, 4.480154e+002
7.067844e+002, 4.475484e+002
7.072665e+002, 4.470759e+002
7.077487e+002, 4.466554e+002
7.082308e+002, 4.464557e+002
7.087129e+002, 4.464911e+002
7.091950e+002, 4.467492e+002
7.096771e+002, 4.478243e+002
7.101592e+002, 4.483199e+002
7.106414e+002, 4.465860e+002
7.111235e+002, 4.437672e+002
7.116056e+002, 4.424248e+002
7.120877e+002, 4.435883e+002
7.125698e+002, 4.448241e+002
7.130519e+002, 4.448495e+002
7.135341e+002, 4.443706e+002
7.140162e+002, 4.442461e+002
7.144983e+002, 4.444669e+002
7.149804e+002, 4.445455e+002
7.154625e+002, 4.441998e+002
7.159446e+002, 4.435728e+002
7.164268e+002, 4.428472e+002
7.169089e+002, 4.418327e+002
7.173910e+002, 4.416556e+002
7.178731e+002, 4.433957e+002
7.183552e+002, 4.445161e+002
7.188373e+002, 4.430882e+002
7.193195e+002, 4.406471e+002
7.198016e+002, 4.394401e+002
7.202837e+002, 4.399297e+002
7.207658e+002, 4.407820e+002
7.212479e+002, 4.415809e+002
7.217300e+002, 4.422640e+002
7.222122e+002, 4.427851e+002
7.226943e+002, 4.431317e+002
7.231764e+002, 4.432512e+002
7.236585e+002, 4.431178e+002
7.241406e+002, 4.428749e+002
7.246227e+002, 4.427664e+002
7.251049e+002, 4.428291e+002
7.255870e+002, 4.426561e+002
7.260691e+002, 4.421224e+002
7.265512e+002, 4.415518e+002
7.270333e+002, 4.409530e+002
7.275154e+002, 4.404325e+002
7.279976e+002, 4.401193e+002
7.284797e+002, 4.400218e+002
7.289618e+002, 4.400159e+002
7.294439e+002, 4.399917e+002
7.299260e+002, 4.400861e+002
7.304081e+002, 4.405436e+002
7.308903e+002, 4.412035e+002
7.313724e+002, 4.417307e+002
7.318545e+002, 4.420174e+002
7.323366e+002, 4.419837e+002
7.328187e+002, 4.414035e+002
7.333008e+002, 4.404016e+002
7.337830e+002, 4.406648e+002
7.342651e+002, 4.433874e+002
7.347472e+002, 4.447932e+002
7.352293e+002, 4.427045e+002
7.357114e+002, 4.401073e+002
7.361935e+002, 4.390905e+002
7.366757e+002, 4.394508e+002
7.371578e+002, 4.398906e+002
7.376399e+002, 4.399999e+002
7.381220e+002, 4.400992e+002
7.386041e+002, 4.406275e+002
7.390862e+002, 4.411937e+002
7.395684e+002, 4.408270e+002
7.400505e+002, 4.396106e+002
7.405326e+002, 4.389366e+002
7.410147e+002, 4.398341e+002
7.414968e+002, 4.419557e+002
7.419789e+002, 4.444694e+002
7.424611e+002, 4.477925e+002
7.429432e+002, 4.499088e+002
7.434253e+002, 4.499485e+002
7.439074e+002, 4.495732e+002
7.443895e+002, 4.490918e+002
7.448716e+002, 4.490235e+002
7.453538e+002, 4.506231e+002
7.458359e+002, 4.547570e+002
7.463180e+002, 4.583509e+002
7.468001e+002, 4.599727e+002
7.472822e+002, 4.604003e+002
7.477643e+002, 4.604616e+002
7.482465e+002, 4.600642e+002
7.487286e+002, 4.586032e+002
7.492107e+002, 4.558043e+002
7.496928e+002, 4.521918e+002
7.501749e+002, 4.481927e+002
7.506570e+002, 4.437092e+002
7.511392e+002, 4.409432e+002
7.516213e+002, 4.404048e+002
7.521034e+002, 4.404087e+002
7.525855e+002, 4.405323e+002
7.530676e+002, 4.407067e+002
7.535497e+002, 4.408546e+002
7.540319e+002, 4.409733e+002
7.545140e+002, 4.410615e+002
7.549961e+002, 4.414657e+002
7.554782e+002, 4.414726e+002
7.559603e+002, 4.399573e+002
7.564424e+002, 4.380406e+002
7.569246e+002, 4.377793e+002
7.574067e+002, 4.393660e+002
7.578888e+002, 4.408352e+002
7.583709e+002, 4.404013e+002
7.588530e+002, 4.386634e+002
7.593351e+002, 4.375616e+002
7.598173e+002, 4.371045e+002
7.602994e+002, 4.373311e+002
7.607815e+002, 4.386681e+002
7.612636e+002, 4.399552e+002
7.617457e+002, 4.401786e+002
7.622278e+002, 4.394920e+002
7.627100e+002, 4.387079e+002
7.631921e+002, 4.372643e+002
7.636742e+002, 4.366310e+002
7.641563e+002, 4.380854e+002
7.646384e+002, 4.397221e+002
7.651205e+002, 4.397569e+002
7.656027e+002, 4.386121e+002
7.660848e+002, 4.378124e+002
7.665669e+002, 4.380759e+002
7.670490e+002, 4.387319e+002
7.675311e+002, 4.380366e+002
7.680132e+002, 4.367157e+002
7.684954e+002, 4.402925e+002
7.689775e+002, 4.500571e+002
7.694596e+002, 4.559680e+002
7.699417e+002, 4.519710e+002
7.704238e+002, 4.431832e+002
7.709059e+002, 4.383778e+002
7.713881e+002, 4.385244e+002
7.718702e+002, 4.391150e+002
7.723523e+002, 4.411201e+002
7.728344e+002, 4.424046e+002
7.733165e+002, 4.415389e+002
7.737986e+002, 4.399705e+002
7.742808e+002, 4.391841e+002
7.747629e+002, 4.394534e+002
7.752450e+002, 4.404414e+002
7.757271e+002, 4.426647e+002
7.762092e+002, 4.447625e+002
7.766913e+002, 4.442173e+002
7.771735e+002, 4.416765e+002
7.776556e+002, 4.398185e+002
7.781377e+002, 4.392594e+002
7.786198e+002, 4.391888e+002
7.791019e+002, 4.389222e+002
7.795840e+002, 4.385534e+002
7.800662e+002, 4.385776e+002
7.805483e+002, 4.391852e+002
7.810304e+002, 4.398290e+002
7.815125e+002, 4.408607e+002
7.819946e+002, 4.415286e+002
7.824767e+002, 4.413054e+002
7.829589e+002, 4.404934e+002
7.834410e+002, 4.396943e+002
7.839231e+002, 4.390845e+002
7.844052e+002, 4.383256e+002
7.848873e+002, 4.368200e+002
7.853694e+002, 4.353156e+002
7.858516e+002, 4.348839e+002
7.863337e+002, 4.353202e+002
7.868158e+002, 4.357764e+002
7.872979e+002, 4.359111e+002
7.877800e+002, 4.358242e+002
7.882621e+002, 4.355220e+002
7.887443e+002, 4.350373e+002
7.892264e+002, 4.354268e+002
7.897085e+002, 4.370823e+002
7.901906e+002, 4.385287e+002
7.906727e+002, 4.393006e+002
7.911548e+002, 4.397373e+002
7.916370e+002, 4.403863e+002
7.921191e+002, 4.411211e+002
7.926012e+002, 4.409550e+002
7.930833e+002, 4.384317e+002
7.935654e+002, 4.366125e+002
7.940475e+002, 4.372320e+002
7.945297e+002, 4.387159e+002
7.950118e+002, 4.395799e+002
7.954939e+002, 4.397239e+002
7.959760e+002, 4.396792e+002
7.964581e+002, 4.397464e+002
7.969402e+002, 4.397047e+002
7.974224e+002, 4.389470e+002
7.979045e+002, 4.376744e+002
7.983866e+002, 4.374507e+002
7.988687e+002, 4.385291e+002
7.993508e+002, 4.395112e+002
7.998329e+002, 4.396935e+002
8.003151e+002, 4.393413e+002
8.007972e+002, 4.388878e+002
8.012793e+002, 4.382266e+002
8.017614e+002, 4.378869e+002
8.022435e+002, 4.384411e+002
8.027256e+002, 4.385887e+002
8.032078e+002, 4.371461e+002
8.036899e+002, 4.356367e+002
8.041720e+002, 4.359524e+002
8.046541e+002, 4.380211e+002
8.051362e+002, 4.398588e+002
8.056183e+002, 4.404044e+002
8.061005e+002, 4.402469e+002
8.065826e+002, 4.395305e+002
8.070647e+002, 4.386748e+002
8.075468e+002, 4.389047e+002
8.080289e+002, 4.402911e+002
8.085110e+002, 4.414176e+002
8.089932e+002, 4.412611e+002
8.094753e+002, 4.402282e+002
8.099574e+002, 4.392402e+002
8.104395e+002, 4.380862e+002
8.109216e+002, 4.380364e+002
8.114037e+002, 4.400701e+002
8.118859e+002, 4.416835e+002
8.123680e+002, 4.411777e+002
8.128501e+002, 4.396972e+002
8.133322e+002, 4.387928e+002
8.138143e+002, 4.385457e+002
8.142964e+002, 4.387514e+002
8.147786e+002, 4.397348e+002
8.152607e+002, 4.407619e+002
8.157428e+002, 4.415781e+002
8.162249e+002, 4.420844e+002
8.167070e+002, 4.420039e+002
8.171891e+002, 4.414081e+002
8.176713e+002, 4.408881e+002
8.181534e+002, 4.408839e+002
8.186355e+002, 4.412496e+002
8.191176e+002, 4.418185e+002
8.195997e+002, 4.425430e+002
8.200818e+002, 4.431016e+002
8.205640e+002, 4.434537e+002
8.210461e+002, 4.434406e+002
8.215282e+002, 4.428687e+002
8.220103e+002, 4.419333e+002
8.224924e+002, 4.412271e+002
8.229745e+002, 4.407437e+002
8.234567e+002, 4.404950e+002
8.239388e+002, 4.403791e+002
8.244209e+002, 4.406140e+002
8.249030e+002, 4.419240e+002
8.253851e+002, 4.433025e+002
8.258672e+002, 4.431484e+002
8.263494e+002, 4.412875e+002
8.268315e+002, 4.399721e+002
8.273136e+002, 4.408088e+002
8.277957e+002, 4.421004e+002
8.282778e+002, 4.422724e+002
8.287599e+002, 4.419141e+002
8.292421e+002, 4.414979e+002
8.297242e+002, 4.415123e+002
8.302063e+002, 4.441102e+002
8.306884e+002, 4.515656e+002
8.311705e+002, 4.610066e+002
8.316526e+002, 4.647882e+002
8.321348e+002, 4.626874e+002
8.326169e+002, 4.614711e+002
8.330990e+002, 4.624649e+002
8.335811e+002, 4.625030e+002
8.340632e+002, 4.593453e+002
8.345453e+002, 4.542664e+002
8.350275e+002, 4.498543e+002
8.355096e+002, 4.459518e+002
8.359917e+002, 4.433573e+002
8.364738e+002, 4.429181e+002
8.369559e+002, 4.427773e+002
8.374380e+002, 4.422027e+002
8.379202e+002, 4.415930e+002
8.384023e+002, 4.415619e+002
8.388844e+002, 4.420830e+002
8.393665e+002, 4.424025e+002
8.398486e+002, 4.418650e+002
8.403307e+002, 4.412712e+002
8.408129e+002, 4.415943e+002
8.412950e+002, 4.424130e+002
8.417771e+002, 4.430179e+002
8.422592e+002, 4.432448e+002
8.427413e+002, 4.427722e+002
8.432234e+002, 4.412952e+002
8.437056e+002, 4.396744e+002
8.441877e+002, 4.400637e+002
8.446698e+002, 4.427517e+002
8.451519e+002, 4.436588e+002
8.456340e+002, 4.420331e+002
8.461161e+002, 4.404001e+002
8.465983e+002, 4.397029e+002
8.470804e+002, 4.396404e+002
8.475625e+002, 4.399528e+002
8.480446e+002, 4.406830e+002
8.485267e+002, 4.410290e+002
8.490089e+002, 4.402437e+002
8.494910e+002, 4.399871e+002
8.499731e+002, 4.412211e+002
8.504552e+002, 4.427961e+002
8.509373e+002, 4.438863e+002
8.514194e+002, 4.443589e+002
8.519016e+002, 4.441740e+002
8.523837e+002, 4.431640e+002
8.528658e+002, 4.420493e+002
8.533479e+002, 4.414865e+002
8.538300e+002, 4.412625e+002
8.543121e+002, 4.409698e+002
8.547943e+002, 4.406343e+002
8.552764e+002, 4.406458e+002
8.557585e+002, 4.411784e+002
8.562406e+002, 4.416415e+002
8.567227e+002, 4.410996e+002
8.572048e+002, 4.396924e+002
8.576870e+002, 4.393456e+002
8.581691e+002, 4.403169e+002
8.586512e+002, 4.414033e+002
8.591333e+002, 4.426053e+002
8.596154e+002, 4.433470e+002
8.600975e+002, 4.428022e+002
8.605797e+002, 4.412828e+002
8.610618e+002, 4.405959e+002
8.615439e+002, 4.417144e+002
8.620260e+002, 4.420273e+002
8.625081e+002, 4.403560e+002
8.629902e+002, 4.387218e+002
8.634724e+002, 4.381463e+002
8.639545e+002, 4.385041e+002
8.644366e+002, 4.397328e+002
8.649187e+002, 4.417763e+002
8.654008e+002, 4.433981e+002
8.658829e+002, 4.437013e+002
8.663651e+002, 4.432319e+002
8.668472e+002, 4.424663e+002
8.673293e+002, 4.414647e+002
8.678114e+002, 4.400669e+002
8.682935e+002, 4.383770e+002
8.687756e+002, 4.373709e+002
8.692578e+002, 4.378765e+002
8.697399e+002, 4.392952e+002
8.702220e+002, 4.402007e+002
8.707041e+002, 4.405746e+002
8.711862e+002, 4.406091e+002
8.716683e+002, 4.401258e+002
8.721505e+002, 4.400464e+002
8.726326e+002, 4.410616e+002
8.731147e+002, 4.425004e+002
8.735968e+002, 4.432146e+002
8.740789e+002, 4.430418e+002
8.745610e+002, 4.430001e+002
8.750432e+002, 4.432193e+002
8.755253e+002, 4.433911e+002
8.760074e+002, 4.433262e+002
8.764895e+002, 4.432820e+002
8.769716e+002, 4.429312e+002
8.774537e+002, 4.427576e+002
8.779359e+002, 4.447814e+002
8.784180e+002, 4.516632e+002
8.789001e+002, 4.559606e+002
8.793822e+002, 4.501613e+002
8.798643e+002, 4.414997e+002
8.803464e+002, 4.384831e+002
8.808286e+002, 4.399118e+002
8.813107e+002, 4.403677e+002
8.817928e+002, 4.379566e+002
8.822749e+002, 4.354680e+002
8.827570e+002, 4.361552e+002
8.832391e+002, 4.390151e+002
8.837213e+002, 4.410142e+002
8.842034e+002, 4.421791e+002
8.846855e+002, 4.428501e+002
8.851676e+002, 4.430667e+002
8.856497e+002, 4.430305e+002
8.861318e+002, 4.428574e+002
8.866140e+002, 4.426009e+002
8.870961e+002, 4.424488e+002
8.875782e+002, 4.424481e+002
8.880603e+002, 4.424092e+002
8.885424e+002, 4.420323e+002
8.890245e+002, 4.420274e+002
8.895067e+002, 4.433224e+002
8.899888e+002, 4.447467e+002
8.904709e+002, 4.444721e+002
8.909530e+002, 4.424672e+002
8.914351e+002, 4.419405e+002
8.919172e+002, 4.454237e+002
8.923994e+002, 4.481723e+002
8.928815e+002, 4.477650e+002
8.933636e+002, 4.460946e+002
8.938457e+002, 4.444497e+002
8.943278e+002, 4.433112e+002
8.948099e+002, 4.433617e+002
8.952921e+002, 4.450067e+002
8.957742e+002, 4.469262e+002
8.962563e+002, 4.478954e+002
8.967384e+002, 4.482964e+002
8.972205e+002, 4.488297e+002
8.977026e+002, 4.494044e+002
8.981848e+002, 4.492552e+002
8.986669e+002, 4.482081e+002
8.991490e+002, 4.476440e+002
8.996311e+002, 4.490807e+002
9.001132e+002, 4.518489e+002
9.005953e+002, 4.532512e+002
9.010775e+002, 4.531274e+002
9.015596e+002, 4.535162e+002
9.020417e+002, 4.548952e+002
9.025238e+002, 4.561257e+002
9.030059e+002, 4.564755e+002
9.034880e+002, 4.562846e+002
9.039702e+002, 4.561211e+002
9.044523e+002, 4.556783e+002
9.049344e+002, 4.565042e+002
9.054165e+002, 4.604788e+002
9.058986e+002, 4.632785e+002
9.063807e+002, 4.634542e+002
9.068629e+002, 4.624760e+002
9.073450e+002, 4.609865e+002
9.078271e+002, 4.594234e+002
9.083092e+002, 4.592157e+002
9.087913e+002, 4.617820e+002
9.092734e+002, 4.635579e+002
9.097556e+002, 4.618502e+002
9.102377e+002, 4.596300e+002
9.107198e+002, 4.598492e+002
9.112019e+002, 4.615597e+002
9.116840e+002, 4.626783e+002
9.121661e+002, 4.625312e+002
9.126483e+002, 4.613942e+002
9.131304e+002, 4.587202e+002
9.136125e+002, 4.558843e+002
9.140946e+002, 4.557051e+002
9.145767e+002, 4.572682e+002
9.150588e+002, 4.575992e+002
9.155410e+002, 4.562477e+002
9.160231e+002, 4.542453e+002
9.165052e+002, 4.521198e+002
9.169873e+002, 4.503983e+002
9.174694e+002, 4.503006e+002
9.179515e+002, 4.519013e+002
9.184337e+002, 4.532618e+002
9.189158e+002, 4.545919e+002
9.193979e+002, 4.544839e+002
9.198800e+002, 4.518054e+002
9.203621e+002, 4.488232e+002
9.208442e+002, 4.481198e+002
9.213264e+002, 4.494198e+002
9.218085e+002, 4.498072e+002
9.222906e+002, 4.484061e+002
9.227727e+002, 4.475269e+002
9.232548e+002, 4.465515e+002
9.237369e+002, 4.468741e+002
9.242191e+002, 4.499630e+002
9.247012e+002, 4.544113e+002
9.251833e+002, 4.584863e+002
9.256654e+002, 4.620430e+002
9.261475e+002, 4.638883e+002
9.266296e+002, 4.630483e+002
9.271118e+002, 4.611179e+002
9.275939e+002, 4.581839e+002
9.280760e+002, 4.550850e+002
9.285581e+002, 4.525152e+002
9.290402e+002, 4.506211e+002
9.295223e+002, 4.494662e+002
9.300045e+002, 4.491042e+002
9.304866e+002, 4.492501e+002
9.309687e+002, 4.500033e+002
9.314508e+002, 4.508785e+002
9.319329e+002, 4.511408e+002
9.324150e+002, 4.508413e+002
9.328972e+002, 4.500240e+002
9.333793e+002, 4.488111e+002
9.338614e+002, 4.481052e+002
9.343435e+002, 4.488276e+002
9.348256e+002, 4.503048e+002
9.353077e+002, 4.507773e+002
9.357899e+002, 4.503309e+002
9.362720e+002, 4.502985e+002
9.367541e+002, 4.508652e+002
9.372362e+002, 4.513662e+002
9.377183e+002, 4.515184e+002
9.382004e+002, 4.512591e+002
9.386826e+002, 4.502936e+002
9.391647e+002, 4.485754e+002
9.396468e+002, 4.485856e+002
9.401289e+002, 4.516508e+002
9.406110e+002, 4.531442e+002
9.410931e+002, 4.510580e+002
9.415753e+002, 4.486660e+002
9.420574e+002, 4.482878e+002
9.425395e+002, 4.493380e+002
9.430216e+002, 4.501754e+002
9.435037e+002, 4.506398e+002
9.439858e+002, 4.513807e+002
9.444680e+002, 4.520543e+002
9.449501e+002, 4.534951e+002
9.454322e+002, 4.572365e+002
9.459143e+002, 4.610343e+002
9.463964e+002, 4.625790e+002
9.468785e+002, 4.619503e+002
9.473607e+002, 4.605636e+002
9.478428e+002, 4.583964e+002
9.483249e+002, 4.566018e+002
9.488070e+002, 4.558277e+002
9.492891e+002, 4.556872e+002
9.497712e+002, 4.560941e+002
9.502534e+002, 4.567640e+002
9.507355e+002, 4.570811e+002
9.512176e+002, 4.569717e+002
9.516997e+002, 4.572731e+002
9.521818e+002, 4.589046e+002
9.526639e+002, 4.609091e+002
9.531461e+002, 4.619278e+002
9.536282e+002, 4.623089e+002
9.541103e+002, 4.628687e+002
9.545924e+002, 4.636624e+002
9.550745e+002, 4.641826e+002
9.555566e+002, 4.641695e+002
9.560388e+002, 4.643600e+002
9.565209e+002, 4.660201e+002
9.570030e+002, 4.687478e+002
9.574851e+002, 4.704537e+002
9.579672e+002, 4.711508e+002
9.584493e+002, 4.714105e+002
9.589315e+002, 4.712646e+002
9.594136e+002, 4.715273e+002
9.598957e+002, 4.728645e+002
9.603778e+002, 4.749030e+002
9.608599e+002, 4.767299e+002
9.613420e+002, 4.783511e+002
9.618242e+002, 4.796583e+002
9.623063e+002, 4.805056e+002
9.627884e+002, 4.814046e+002
9.632705e+002, 4.827042e+002
9.637526e+002, 4.838405e+002
9.642347e+002, 4.837904e+002
9.647169e+002, 4.829153e+002
9.651990e+002, 4.839125e+002
9.656811e+002, 4.882645e+002
9.661632e+002, 4.922392e+002
9.666453e+002, 4.962995e+002
9.671274e+002, 4.994408e+002
9.676096e+002, 5.006193e+002
9.680917e+002, 5.010219e+002
9.685738e+002, 5.021920e+002
9.690559e+002, 5.041993e+002
9.695380e+002, 5.058872e+002
9.700201e+002, 5.067048e+002
9.705023e+002, 5.075403e+002
9.709844e+002, 5.088294e+002
9.714665e+002, 5.101547e+002
9.719486e+002, 5.110710e+002
9.724307e+002, 5.118018e+002
9.729128e+002, 5.130732e+002
9.733950e+002, 5.150422e+002
9.738771e+002, 5.162843e+002
9.743592e+002, 5.154515e+002
9.748413e+002, 5.140468e+002
9.753234e+002, 5.132535e+002
9.758055e+002, 5.128171e+002
9.762877e+002, 5.123894e+002
9.767698e+002, 5.119151e+002
9.772519e+002, 5.115603e+002
9.777340e+002, 5.114222e+002
9.782161e+002, 5.108610e+002
9.786982e+002, 5.086352e+002
9.791804e+002, 5.058038e+002
9.796625e+002, 5.045260e+002
9.801446e+002, 5.044616e+002
9.806267e+002, 5.044354e+002
9.811088e+002, 5.041473e+002
9.815909e+002, 5.035648e+002
9.820731e+002, 5.026425e+002
9.825552e+002, 5.015378e+002
9.830373e+002, 5.005801e+002
9.835194e+002, 4.997155e+002
9.840015e+002, 4.985738e+002
9.844836e+002, 4.971379e+002
9.849658e+002, 4.951424e+002
9.854479e+002, 4.923905e+002
9.859300e+002, 4.901461e+002
9.864121e+002, 4.896987e+002
9.868942e+002, 4.904946e+002
9.873763e+002, 4.904656e+002
9.878585e+002, 4.894056e+002
9.883406e+002, 4.889520e+002
9.888227e+002, 4.894186e+002
9.893048e+002, 4.896772e+002
9.897869e+002, 4.891986e+002
9.902690e+002, 4.884083e+002
9.907512e+002, 4.876705e+002
9.912333e+002, 4.870398e+002
9.917154e+002, 4.872710e+002
9.921975e+002, 4.887466e+002
9.926796e+002, 4.902935e+002
9.931617e+002, 4.920111e+002
9.936439e+002, 4.935458e+002
9.941260e+002, 4.950001e+002
9.946081e+002, 4.960273e+002
9.950902e+002, 4.959389e+002
9.955723e+002, 4.946862e+002
9.960544e+002, 4.938404e+002
9.965366e+002, 4.941421e+002
9.970187e+002, 4.938767e+002
9.975008e+002, 4.919930e+002
9.979829e+002, 4.902596e+002
9.984650e+002, 4.895088e+002
9.989471e+002, 4.897389e+002
9.994293e+002, 4.913713e+002
9.999114e+002, 4.945868e+002
1.000393e+003, 4.962436e+002
1.000876e+003, 4.938860e+002
1.001358e+003, 4.918181e+002
1.001840e+003, 4.920119e+002
1.002322e+003, 4.931235e+002
1.002804e+003, 4.942892e+002
1.003286e+003, 4.952667e+002
1.003768e+003, 4.958932e+002
1.004250e+003, 4.961262e+002
1.004733e+003, 4.959224e+002
1.005215e+003, 4.944951e+002
1.005697e+003, 4.934424e+002
1.006179e+003, 4.944308e+002
1.006661e+003, 4.962175e+002
1.007143e+003, 4.972438e+002
1.007625e+003, 4.974678e+002
1.008107e+003, 4.974945e+002
1.008589e+003, 4.975418e+002
1.009072e+003, 4.978515e+002
1.009554e+003, 4.992092e+002
1.010036e+003, 5.004538e+002
1.010518e+003, 4.991874e+002
1.011000e+003, 4.970969e+002
1.011482e+003, 4.981090e+002
1.011964e+003, 5.021690e+002
1.012446e+003, 5.055688e+002
1.012929e+003, 5.062071e+002
1.013411e+003, 5.064039e+002
1.013893e+003, 5.090640e+002
1.014375e+003, 5.132367e+002
1.014857e+003, 5.169705e+002
1.015339e+003, 5.204781e+002
1.015821e+003, 5.248500e+002
1.016303e+003, 5.302558e+002
1.016785e+003, 5.359950e+002
1.017268e+003, 5.416329e+002
1.017750e+003, 5.471257e+002
1.018232e+003, 5.524494e+002
1.018714e+003, 5.576258e+002
1.019196e+003, 5.623148e+002
1.019678e+003, 5.667377e+002
1.020160e+003, 5.734223e+002
1.020642e+003, 5.830771e+002
1.021125e+003, 5.926058e+002
1.021607e+003, 5.995432e+002
1.022089e+003, 6.048814e+002
1.022571e+003, 6.110779e+002
1.023053e+003, 6.180604e+002
1.023535e+003, 6.234002e+002
1.024017e+003, 6.269514e+002
1.024499e+003, 6.305922e+002
1.024981e+003, 6.350587e+002
1.025464e+003, 6.389343e+002
1.025946e+003, 6.411800e+002
1.026428e+003, 6.413780e+002
1.026910e+003, 6.375475e+002
1.027392e+003, 6.290922e+002
1.027874e+003, 6.227830e+002
1.028356e+003, 6.196797e+002
1.028838e+003, 6.144517e+002
1.029321e+003, 6.047650e+002
1.029803e+003, 5.937122e+002
1.030285e+003, 5.841260e+002
1.030767e+003, 5.756934e+002
1.031249e+003, 5.669578e+002
1.031731e+003, 5.575477e+002
1.032213e+003, 5.491853e+002
1.032695e+003, 5.421727e+002
1.033177e+003, 5.354370e+002
1.033660e+003, 5.283792e+002
1.034142e+003, 5.218435e+002
1.034624e+003, 5.168655e+002
1.035106e+003, 5.131722e+002
1.035588e+003, 5.092637e+002
1.036070e+003, 5.047792e+002
1.036552e+003, 5.009879e+002
1.037034e+003, 4.983756e+002
1.037516e+003, 4.956260e+002
1.037999e+003, 4.917031e+002
1.038481e+003, 4.880539e+002
1.038963e+003, 4.867220e+002
1.039445e+003, 4.872564e+002
1.039927e+003, 4.861178e+002
1.040409e+003, 4.819967e+002
1.040891e+003, 4.785082e+002
1.041373e+003, 4.757116e+002
1.041855e+003, 4.735137e+002
1.042338e+003, 4.717231e+002
1.042820e+003, 4.706584e+002
1.043302e+003, 4.711428e+002
1.043784e+003, 4.728726e+002
1.044266e+003, 4.735023e+002
1.044748e+003, 4.722729e+002
1.045230e+003, 4.711086e+002
1.045712e+003, 4.703848e+002
1.046195e+003, 4.694135e+002
1.046677e+003, 4.673400e+002
1.047159e+003, 4.652900e+002
1.047641e+003, 4.646201e+002
1.048123e+003, 4.651818e+002
1.048605e+003, 4.656634e+002
1.049087e+003, 4.665266e+002
1.049569e+003, 4.662026e+002
1.050052e+003, 4.631231e+002
1.050534e+003, 4.603908e+002
1.051016e+003, 4.596322e+002
1.051498e+003, 4.598087e+002
1.051980e+003, 4.597831e+002
1.052462e+003, 4.595422e+002
1.052944e+003, 4.595858e+002
1.053426e+003, 4.601540e+002
1.053908e+003, 4.606974e+002
1.054391e+003, 4.608338e+002
1.054873e+003, 4.612120e+002
1.055355e+003, 4.626995e+002
1.055837e+003, 4.642339e+002
1.056319e+003, 4.646867e+002
1.056801e+003, 4.640302e+002
1.057283e+003, 4.625976e+002
1.057765e+003, 4.595714e+002
1.058248e+003, 4.579282e+002
1.058730e+003, 4.599399e+002
1.059212e+003, 4.619648e+002
1.059694e+003, 4.619134e+002
1.060176e+003, 4.608147e+002
1.060658e+003, 4.597437e+002
1.061140e+003, 4.588593e+002
1.061622e+003, 4.581264e+002
1.062104e+003, 4.575251e+002
1.062587e+003, 4.571163e+002
1.063069e+003, 4.566734e+002
1.063551e+003, 4.567145e+002
1.064033e+003, 4.581318e+002
1.064515e+003, 4.597855e+002
1.064997e+003, 4.601288e+002
1.065479e+003, 4.594503e+002
1.065961e+003, 4.595104e+002
1.066443e+003, 4.613101e+002
1.066926e+003, 4.620575e+002
1.067408e+003, 4.594212e+002
1.067890e+003, 4.567635e+002
1.068372e+003, 4.559959e+002
1.068854e+003, 4.563622e+002
1.069336e+003, 4.576036e+002
1.069818e+003, 4.590481e+002
1.070300e+003, 4.587928e+002
1.070782e+003, 4.557399e+002
1.071265e+003, 4.537196e+002
1.071747e+003, 4.554664e+002
1.072229e+003, 4.575284e+002
1.072711e+003, 4.578330e+002
1.073193e+003, 4.573491e+002
1.073675e+003, 4.570747e+002
1.074157e+003, 4.570504e+002
1.074639e+003, 4.569579e+002
1.075122e+003, 4.566884e+002
1.075604e+003, 4.565184e+002
1.076086e+003, 4.563907e+002
1.076568e+003, 4.566198e+002
1.077050e+003, 4.579350e+002
1.077532e+003, 4.592675e+002
1.078014e+003, 4.593962e+002
1.078496e+003, 4.586128e+002
1.078979e+003, 4.578372e+002
1.079461e+003, 4.572967e+002
1.079943e+003, 4.569515e+002
1.080425e+003, 4.561823e+002
1.080907e+003, 4.563493e+002
1.081389e+003, 4.594409e+002
1.081871e+003, 4.627633e+002
1.082353e+003, 4.636888e+002
1.082835e+003, 4.627918e+002
1.083318e+003, 4.616286e+002
1.083800e+003, 4.605667e+002
1.084282e+003, 4.596079e+002
1.084764e+003, 4.582603e+002
1.085246e+003, 4.576505e+002
1.085728e+003, 4.590660e+002
1.086210e+003, 4.607924e+002
1.086692e+003, 4.612364e+002
1.087175e+003, 4.609307e+002
1.087657e+003, 4.611693e+002
1.088139e+003, 4.621126e+002
1.088621e+003, 4.624526e+002
1.089103e+003, 4.612382e+002
1.089585e+003, 4.599191e+002
1.090067e+003, 4.587497e+002
1.090549e+003, 4.580758e+002
1.091031e+003, 4.586949e+002
1.091514e+003, 4.597059e+002
1.091996e+003, 4.593668e+002
1.092478e+003, 4.577571e+002
1.092960e+003, 4.573812e+002
1.093442e+003, 4.599139e+002
1.093924e+003, 4.622182e+002
1.094406e+003, 4.631257e+002
1.094888e+003, 4.634453e+002
1.095370e+003, 4.636486e+002
1.095853e+003, 4.636251e+002
1.096335e+003, 4.630988e+002
1.096817e+003, 4.621441e+002
1.097299e+003, 4.612323e+002
1.097781e+003, 4.605703e+002
1.098263e+003, 4.597584e+002
1.098745e+003, 4.579701e+002
1.099227e+003, 4.568346e+002
1.099709e+003, 4.576329e+002
1.100192e+003, 4.592003e+002
1.100674e+003, 4.605294e+002
1.101156e+003, 4.614839e+002
1.101638e+003, 4.619991e+002
1.102120e+003, 4.619577e+002
1.102602e+003, 4.618664e+002
1.103084e+003, 4.620038e+002
1.103566e+003, 4.619024e+002
1.104049e+003, 4.609747e+002
1.104531e+003, 4.600801e+002
1.105013e+003, 4.599970e+002
1.105495e+003, 4.605087e+002
1.105977e+003, 4.610243e+002
1.106459e+003, 4.614632e+002
1.106941e+003, 4.619651e+002
1.107423e+003, 4.626637e+002
1.107906e+003, 4.632753e+002
1.108388e+003, 4.638514e+002
1.108870e+003, 4.641914e+002
1.109352e+003, 4.640540e+002
1.109834e+003, 4.636436e+002
1.110316e+003, 4.634777e+002
1.110798e+003, 4.636353e+002
1.111280e+003, 4.628633e+002
1.111762e+003, 4.594448e+002
1.112245e+003, 4.575430e+002
1.112727e+003, 4.585268e+002
1.113209e+003, 4.601422e+002
1.113691e+003, 4.619337e+002
1.114173e+003, 4.633496e+002
1.114655e+003, 4.635067e+002
1.115137e+003, 4.625070e+002
1.115619e+003, 4.617668e+002
1.116102e+003, 4.613522e+002
1.116584e+003, 4.610749e+002
1.117066e+003, 4.608799e+002
1.117548e+003, 4.608985e+002
1.118030e+003, 4.613355e+002
1.118512e+003, 4.618246e+002
1.118994e+003, 4.619396e+002
1.119476e+003, 4.618285e+002
1.119958e+003, 4.621455e+002
1.120441e+003, 4.632314e+002
1.120923e+003, 4.636236e+002
1.121405e+003, 4.629975e+002
1.121887e+003, 4.623658e+002
1.122369e+003, 4.618587e+002
1.122851e+003, 4.616591e+002
1.123333e+003, 4.619613e+002
1.123815e+003, 4.626294e+002
1.124297e+003, 4.635160e+002
1.124780e+003, 4.647499e+002
1.125262e+003, 4.642932e+002
1.125744e+003, 4.612793e+002
1.126226e+003, 4.599445e+002
1.126708e+003, 4.614107e+002
1.127190e+003, 4.632986e+002
1.127672e+003, 4.643183e+002
1.128154e+003, 4.650255e+002
1.128636e+003, 4.663156e+002
1.129119e+003, 4.680352e+002
1.129601e+003, 4.688188e+002
1.130083e+003, 4.685874e+002
1.130565e+003, 4.682970e+002
1.131047e+003, 4.680419e+002
1.131529e+003, 4.676649e+002
1.132011e+003, 4.670666e+002
1.132493e+003, 4.665744e+002
1.132976e+003, 4.665057e+002
1.133458e+003, 4.668314e+002
1.133940e+003, 4.676723e+002
1.134422e+003, 4.689400e+002
1.134904e+003, 4.692895e+002
1.135386e+003, 4.687258e+002
1.135868e+003, 4.686544e+002
1.136350e+003, 4.694481e+002
1.136833e+003, 4.702881e+002
1.137315e+003, 4.705773e+002
1.137797e+003, 4.707275e+002
1.138279e+003, 4.713523e+002
1.138761e+003, 4.724282e+002
1.139243e+003, 4.740372e+002
1.139725e+003, 4.760300e+002
1.140207e+003, 4.780317e+002
1.140689e+003, 4.798223e+002
1.141172e+003, 4.803601e+002
1.141654e+003, 4.791757e+002
1.142136e+003, 4.779318e+002
1.142618e+003, 4.789066e+002
1.143100e+003, 4.803816e+002
1.143582e+003, 4.790171e+002
1.144064e+003, 4.761210e+002
1.144546e+003, 4.741748e+002
1.145029e+003, 4.733306e+002
1.145511e+003, 4.732164e+002
1.145993e+003, 4.736207e+002
1.146475e+003, 4.740355e+002
1.146957e+003, 4.740979e+002
1.147439e+003, 4.740741e+002
1.147921e+003, 4.742604e+002
1.148403e+003, 4.744791e+002
1.148885e+003, 4.743803e+002
1.149368e+003, 4.742184e+002
1.149850e+003, 4.745828e+002
1.150332e+003, 4.753852e+002
1.150814e+003, 4.758224e+002
1.151296e+003, 4.754350e+002
1.151778e+003, 4.754452e+002
1.152260e+003, 4.776220e+002
1.152742e+003, 4.792467e+002
1.153224e+003, 4.777762e+002
1.153707e+003, 4.753661e+002
1.154189e+003, 4.741920e+002
1.154671e+003, 4.740816e+002
1.155153e+003, 4.740356e+002
1.155635e+003, 4.738477e+002
1.156117e+003, 4.742334e+002
1.156599e+003, 4.765000e+002
1.157081e+003, 4.778321e+002
1.157563e+003, 4.757521e+002
1.158046e+003, 4.742267e+002
1.158528e+003, 4.764129e+002
1.159010e+003, 4.801813e+002
1.159492e+003, 4.833583e+002
1.159974e+003, 4.855525e+002
1.160456e+003, 4.851436e+002
1.160938e+003, 4.795039e+002
1.161420e+003, 4.760865e+002
1.161903e+003, 4.763923e+002
1.162385e+003, 4.772435e+002
1.162867e+003, 4.785675e+002
1.163349e+003, 4.791805e+002
1.163831e+003, 4.774797e+002
1.164313e+003, 4.747770e+002
1.164795e+003, 4.743779e+002
1.165277e+003, 4.765711e+002
1.165760e+003, 4.787599e+002
1.166242e+003, 4.812753e+002
1.166724e+003, 4.826166e+002
1.167206e+003, 4.822165e+002
1.167688e+003, 4.816591e+002
1.168170e+003, 4.816708e+002
1.168652e+003, 4.822200e+002
1.169134e+003, 4.834838e+002
1.169616e+003, 4.850575e+002
1.170099e+003, 4.846235e+002
1.170581e+003, 4.821420e+002
1.171063e+003, 4.811295e+002
1.171545e+003, 4.818059e+002
1.172027e+003, 4.831045e+002
1.172509e+003, 4.847246e+002
1.172991e+003, 4.855367e+002
1.173473e+003, 4.845511e+002
1.173956e+003, 4.830343e+002
1.174438e+003, 4.834048e+002
1.174920e+003, 4.849727e+002
1.175402e+003, 4.857076e+002
1.175884e+003, 4.856107e+002
1.176366e+003, 4.842224e+002
1.176848e+003, 4.819617e+002
1.177330e+003, 4.812636e+002
1.177813e+003, 4.830944e+002
1.178295e+003, 4.850825e+002
1.178777e+003, 4.851297e+002
1.179259e+003, 4.842328e+002
1.179741e+003, 4.827351e+002
1.180223e+003, 4.817350e+002
1.180705e+003, 4.826419e+002
1.181187e+003, 4.854193e+002
1.181669e+003, 4.901775e+002
1.182151e+003, 4.965018e+002
1.182634e+003, 5.033086e+002
1.183116e+003, 5.113810e+002
1.183598e+003, 5.148875e+002
1.184080e+003, 5.067860e+002
1.184562e+003, 4.971297e+002
1.185044e+003, 4.913522e+002
1.185526e+003, 4.885319e+002
1.186008e+003, 4.883925e+002
1.186490e+003, 4.898701e+002
1.186973e+003, 4.910064e+002
1.187455e+003, 4.914695e+002
1.187937e+003, 4.917786e+002
1.188419e+003, 4.919585e+002
1.188901e+003, 4.921086e+002
1.189383e+003, 4.916447e+002
1.189865e+003, 4.918611e+002
1.190347e+003, 4.948487e+002
1.190830e+003, 4.976954e+002
1.191312e+003, 4.966463e+002
1.191794e+003, 4.926804e+002
1.192276e+003, 4.907313e+002
1.192758e+003, 4.915938e+002
1.193240e+003, 4.916705e+002
1.193722e+003, 4.904539e+002
1.194204e+003, 4.900506e+002
1.194687e+003, 4.911819e+002
1.195169e+003, 4.925199e+002
1.195651e+003, 4.933654e+002
1.196133e+003, 4.934955e+002
1.196615e+003, 4.922186e+002
1.197097e+003, 4.900425e+002
1.197579e+003, 4.906119e+002
1.198061e+003, 4.937072e+002
1.198543e+003, 4.947468e+002
1.199026e+003, 4.934358e+002
1.199508e+003, 4.920014e+002
1.199990e+003, 4.912404e+002
1.200472e+003, 4.913164e+002
1.200954e+003, 4.924550e+002
1.201436e+003, 4.940618e+002
1.201918e+003, 4.954563e+002
1.202400e+003, 4.965506e+002
1.202883e+003, 4.969265e+002
1.203365e+003, 4.969370e+002
1.203847e+003, 4.974789e+002
1.204329e+003, 4.984903e+002
1.204811e+003, 4.993714e+002
1.205293e+003, 4.998767e+002
1.205775e+003, 4.997491e+002
1.206257e+003, 4.982077e+002
1.206740e+003, 4.968155e+002
1.207222e+003, 4.971647e+002
1.207704e+003, 4.977304e+002
1.208186e+003, 4.967806e+002
1.208668e+003, 4.953249e+002
1.209150e+003, 4.947300e+002
1.209632e+003, 4.952084e+002
1.210114e+003, 4.968418e+002
1.210596e+003, 5.002466e+002
1.211078e+003, 5.028027e+002
1.211561e+003, 5.039587e+002
1.212043e+003, 5.042707e+002
1.212525e+003, 5.027565e+002
1.213007e+003, 5.016991e+002
1.213489e+003, 5.031197e+002
1.213971e+003, 5.054477e+002
1.214453e+003, 5.061937e+002
1.214935e+003, 5.054513e+002
1.215417e+003, 5.050049e+002
1.215900e+003, 5.048947e+002
1.216382e+003, 5.049883e+002
1.216864e+003, 5.054174e+002
1.217346e+003, 5.053848e+002
1.217828e+003, 5.045719e+002
1.218310e+003, 5.035253e+002
1.218792e+003, 5.025493e+002
1.219274e+003, 5.020257e+002
1.219757e+003, 5.028925e+002
1.220239e+003, 5.047817e+002
1.220721e+003, 5.061428e+002
1.221203e+003, 5.069109e+002
1.221685e+003, 5.063671e+002
1.222167e+003, 5.047575e+002
1.222649e+003, 5.036066e+002
1.223131e+003, 5.034977e+002
1.223614e+003, 5.045483e+002
1.224096e+003, 5.073311e+002
1.224578e+003, 5.098073e+002
1.225060e+003, 5.088033e+002
1.225542e+003, 5.070576e+002
1.226024e+003, 5.082135e+002
1.226506e+003, 5.106911e+002
1.226988e+003, 5.120497e+002
1.227470e+003, 5.121524e+002
1.227953e+003, 5.116711e+002
1.228435e+003, 5.107647e+002
1.228917e+003, 5.099739e+002
1.229399e+003, 5.092145e+002
1.229881e+003, 5.090254e+002
1.230363e+003, 5.102572e+002
1.230845e+003, 5.113341e+002
1.231327e+003, 5.106329e+002
1.231810e+003, 5.097890e+002
1.232292e+003, 5.114503e+002
1.232774e+003, 5.146720e+002
1.233256e+003, 5.154291e+002
1.233738e+003, 5.127278e+002
1.234220e+003, 5.118451e+002
1.234702e+003, 5.130986e+002
1.235184e+003, 5.154875e+002
1.235667e+003, 5.195388e+002
1.236149e+003, 5.216998e+002
1.236631e+003, 5.197896e+002
1.237113e+003, 5.167546e+002
1.237595e+003, 5.161620e+002
1.238077e+003, 5.171041e+002
1.238559e+003, 5.168154e+002
1.239041e+003, 5.155633e+002
1.239523e+003, 5.145453e+002
1.240005e+003, 5.138746e+002
1.240488e+003, 5.137606e+002
1.240970e+003, 5.142331e+002
1.241452e+003, 5.154446e+002
1.241934e+003, 5.174935e+002
1.242416e+003, 5.188303e+002
1.242898e+003, 5.168561e+002
1.243380e+003, 5.148319e+002
1.243862e+003, 5.166981e+002
1.244344e+003, 5.197267e+002
1.244827e+003, 5.213314e+002
1.245309e+003, 5.215399e+002
1.245791e+003, 5.202500e+002
1.246273e+003, 5.179968e+002
1.246755e+003, 5.170432e+002
1.247237e+003, 5.184834e+002
1.247719e+003, 5.194182e+002
1.248201e+003, 5.184601e+002
1.248684e+003, 5.179481e+002
1.249166e+003, 5.186234e+002
1.249648e+003, 5.199089e+002
1.250130e+003, 5.219590e+002
1.250612e+003, 5.239378e+002
1.251094e+003, 5.245670e+002
1.251576e+003, 5.241307e+002
1.252058e+003, 5.244634e+002
1.252541e+003, 5.256540e+002
1.253023e+003, 5.272147e+002
1.253505e+003, 5.292654e+002
1.253987e+003, 5.298841e+002
1.254469e+003, 5.285952e+002
1.254951e+003, 5.273137e+002
1.255433e+003, 5.271346e+002
1.255915e+003, 5.275577e+002
1.256397e+003, 5.281038e+002
1.256880e+003, 5.286620e+002
1.257362e+003, 5.289996e+002
1.257844e+003, 5.291935e+002
1.258326e+003, 5.292027e+002
1.258808e+003, 5.292644e+002
1.259290e+003, 5.301379e+002
1.259772e+003, 5.316691e+002
1.260254e+003, 5.325842e+002
1.260737e+003, 5.322863e+002
1.261219e+003, 5.319973e+002
1.261701e+003, 5.321921e+002
1.262183e+003, 5.327834e+002
1.262665e+003, 5.339896e+002
1.263147e+003, 5.353054e+002
1.263629e+003, 5.364794e+002
1.264111e+003, 5.374645e+002
1.264594e+003, 5.382087e+002
1.265076e+003, 5.387225e+002
1.265558e+003, 5.390969e+002
1.266040e+003, 5.393863e+002
1.266522e+003, 5.392540e+002
1.267004e+003, 5.384557e+002
1.267486e+003, 5.381262e+002
1.267968e+003, 5.385622e+002
1.268450e+003, 5.389867e+002
1.268932e+003, 5.389100e+002
1.269415e+003, 5.394383e+002
1.269897e+003, 5.422495e+002
1.270379e+003, 5.456012e+002
1.270861e+003, 5.443849e+002
1.271343e+003, 5.405211e+002
1.271825e+003, 5.390359e+002
1.272307e+003, 5.403171e+002
1.272789e+003, 5.468037e+002
1.273271e+003, 5.565582e+002
1.273754e+003, 5.609040e+002
1.274236e+003, 5.567343e+002
1.274718e+003, 5.509852e+002
1.275200e+003, 5.466979e+002
1.275682e+003, 5.443980e+002
1.276164e+003, 5.454729e+002
1.276646e+003, 5.474581e+002
1.277128e+003, 5.494529e+002
1.277611e+003, 5.506984e+002
1.278093e+003, 5.498760e+002
1.278575e+003, 5.477292e+002
1.279057e+003, 5.467476e+002
1.279539e+003, 5.471481e+002
1.280021e+003, 5.477786e+002
1.280503e+003, 5.487255e+002
1.280985e+003, 5.492272e+002
1.281468e+003, 5.490637e+002
1.281950e+003, 5.498261e+002
1.282432e+003, 5.523064e+002
1.282914e+003, 5.545937e+002
1.283396e+003, 5.550906e+002
1.283878e+003, 5.545334e+002
1.284360e+003, 5.538812e+002
1.284842e+003, 5.531712e+002
1.285324e+003, 5.526027e+002
##END=



