##NAMES=Penfieldite
##RRUFFID=R050163
##IDEAL CHEMISTRY=Pb^2+^_2_Cl_3_(OH)
##LOCALITY=Margarita mine, Sierra Gorda, Antofagasta, Chile
##OWNER=RRUFF
##SOURCE=Jim McGlasson
##DESCRIPTION=Colorless pyramidal crystals, associated with blue pseudobol√©ite, R050162
##STATUS=The identification of this mineral has been confirmed by single-crystal X-ray diffraction.
##URL=rruff.info/R050163
93.46680, 963.4186
93.94891, 946.9996
94.43103, 949.4885
94.91315, 964.0876
95.39526, 978.5231
95.87738, 990.5788
96.35950, 1001.880
96.84161, 1011.638
97.32373, 1019.960
97.80585, 1027.197
98.28796, 1034.371
98.77008, 1041.860
99.25220, 1049.690
99.73431, 1057.735
100.2164, 1065.874
100.6985, 1072.315
101.1807, 1079.619
101.6628, 1088.207
102.1449, 1098.180
102.6270, 1109.667
103.1091, 1122.265
103.5912, 1133.842
104.0734, 1143.426
104.5555, 1152.906
105.0376, 1162.660
105.5197, 1172.542
106.0018, 1182.028
106.4839, 1190.539
106.9661, 1197.807
107.4482, 1206.410
107.9303, 1216.985
108.4124, 1227.742
108.8945, 1237.730
109.3766, 1246.787
109.8588, 1255.263
110.3409, 1263.435
110.8230, 1271.276
111.3051, 1278.833
111.7872, 1286.363
112.2693, 1293.529
112.7515, 1300.054
113.2336, 1306.089
113.7157, 1310.752
114.1978, 1312.656
114.6799, 1311.849
115.1620, 1310.972
115.6442, 1311.723
116.1263, 1314.034
116.6084, 1316.340
117.0905, 1317.928
117.5726, 1319.630
118.0547, 1322.423
118.5369, 1326.474
119.0190, 1330.373
119.5011, 1332.096
119.9832, 1330.879
120.4653, 1329.064
120.9474, 1327.886
121.4296, 1325.969
121.9117, 1321.740
122.3938, 1314.499
122.8759, 1305.336
123.3580, 1297.767
123.8401, 1295.101
124.3223, 1290.561
124.8044, 1282.061
125.2865, 1271.448
125.7686, 1261.547
126.2507, 1254.021
126.7328, 1248.748
127.2150, 1243.833
127.6971, 1239.259
128.1792, 1234.939
128.6613, 1231.118
129.1434, 1227.652
129.6255, 1223.951
130.1077, 1219.709
130.5898, 1214.751
131.0719, 1208.675
131.5540, 1202.203
132.0361, 1194.189
132.5182, 1183.319
133.0004, 1169.357
133.4825, 1153.203
133.9646, 1135.080
134.4467, 1115.293
134.9288, 1094.400
135.4109, 1072.167
135.8931, 1048.964
136.3752, 1025.613
136.8573, 1001.712
137.3394, 978.3376
137.8215, 955.8518
138.3036, 934.2785
138.7858, 913.8399
139.2679, 894.6331
139.7500, 876.6891
140.2321, 859.7737
140.7142, 843.4485
141.1963, 828.5555
141.6785, 815.6645
142.1606, 804.7389
142.6427, 795.0964
143.1248, 786.0176
143.6069, 777.7927
144.0890, 769.4802
144.5712, 760.4780
145.0533, 751.8127
145.5354, 744.3875
146.0175, 738.4156
146.4996, 732.9949
146.9817, 726.5103
147.4639, 718.0891
147.9460, 709.9209
148.4281, 701.6852
148.9102, 693.8320
149.3923, 687.0575
149.8744, 681.7185
150.3566, 677.2475
150.8387, 672.2131
151.3208, 666.2119
151.8029, 660.6537
152.2850, 656.2394
152.7671, 652.7218
153.2493, 649.3997
153.7314, 646.0384
154.2135, 642.6658
154.6956, 639.3502
155.1777, 636.1746
155.6598, 632.8907
156.1420, 629.0656
156.6241, 624.6556
157.1062, 620.7811
157.5883, 618.2141
158.0704, 616.3430
158.5525, 614.7606
159.0347, 613.4217
159.5168, 612.1940
159.9989, 610.7394
160.4810, 608.7032
160.9631, 607.3810
161.4452, 607.1774
161.9274, 607.7225
162.4095, 609.0047
162.8916, 611.1741
163.3737, 613.5728
163.8558, 613.9699
164.3379, 610.7626
164.8201, 607.4738
165.3022, 605.0839
165.7843, 602.9069
166.2664, 600.0745
166.7485, 596.0525
167.2306, 590.9230
167.7128, 585.1669
168.1949, 578.4383
168.6770, 571.4548
169.1591, 564.1693
169.6412, 556.7205
170.1233, 549.2750
170.6055, 541.9400
171.0876, 534.6790
171.5697, 527.9289
172.0518, 521.8670
172.5339, 516.0284
173.0160, 510.0592
173.4982, 504.0591
173.9803, 498.4914
174.4624, 493.8180
174.9445, 490.0698
175.4266, 486.2236
175.9087, 481.7490
176.3909, 477.5049
176.8730, 474.3710
177.3551, 472.4150
177.8372, 470.7173
178.3193, 468.5455
178.8014, 466.0520
179.2836, 463.7528
179.7657, 461.8192
180.2478, 460.1136
180.7299, 458.4604
181.2120, 456.9140
181.6941, 455.2622
182.1763, 453.1723
182.6584, 450.8800
183.1405, 448.8560
183.6226, 447.4074
184.1047, 446.3935
184.5868, 445.3639
185.0690, 444.3868
185.5511, 443.2725
186.0332, 441.8358
186.5153, 440.2228
186.9974, 438.7150
187.4795, 437.5907
187.9617, 436.8013
188.4438, 435.6788
188.9259, 433.9596
189.4080, 432.1381
189.8901, 430.3314
190.3722, 428.5499
190.8544, 426.7861
191.3365, 425.0662
191.8186, 423.3996
192.3007, 421.5617
192.7828, 419.6609
193.2649, 417.4879
193.7471, 414.8827
194.2292, 411.9265
194.7113, 408.7982
195.1934, 405.6528
195.6755, 402.4317
196.1576, 399.5138
196.6398, 397.2847
197.1219, 394.9465
197.6040, 391.8921
198.0861, 388.2492
198.5682, 384.7184
199.0503, 382.0576
199.5325, 380.4877
200.0146, 378.5149
200.4967, 376.1583
200.9788, 373.4301
201.4609, 370.2506
201.9430, 366.6314
202.4252, 362.8038
202.9073, 358.9359
203.3894, 355.0179
203.8715, 351.1391
204.3536, 347.6971
204.8357, 344.0732
205.3179, 339.5829
205.8000, 334.0973
206.2821, 328.2517
206.7642, 322.4202
207.2463, 316.6334
207.7284, 311.2802
208.2106, 306.6852
208.6927, 302.4786
209.1748, 298.2052
209.6569, 293.8234
210.1390, 289.3115
210.6211, 284.4634
211.1033, 279.4338
211.5854, 274.6434
212.0675, 270.3231
212.5496, 266.3251
213.0317, 262.2492
213.5138, 257.9673
213.9960, 253.9042
214.4781, 250.2428
214.9602, 246.9585
215.4423, 244.0562
215.9244, 241.7624
216.4065, 239.8782
216.8886, 237.6431
217.3708, 234.7742
217.8529, 231.9642
218.3350, 229.3770
218.8171, 227.0686
219.2992, 225.1443
219.7813, 223.7588
220.2635, 222.8300
220.7456, 221.8132
221.2277, 220.5855
221.7098, 219.4254
222.1919, 218.4614
222.6740, 217.6243
223.1562, 216.7905
223.6383, 215.8892
224.1204, 214.9213
224.6025, 213.8872
225.0846, 212.7328
225.5667, 211.5717
226.0489, 210.6396
226.5310, 209.7038
227.0131, 208.3305
227.4952, 206.1551
227.9773, 203.2560
228.4594, 200.6866
228.9416, 199.0138
229.4237, 197.1106
229.9058, 194.7233
230.3879, 191.9149
230.8700, 188.8268
231.3521, 185.5100
231.8343, 181.9849
232.3164, 178.7063
232.7985, 175.9345
233.2806, 173.1092
233.7627, 170.0608
234.2448, 166.8404
234.7270, 163.5336
235.2091, 160.1733
235.6912, 156.7851
236.1733, 153.6389
236.6554, 150.7213
237.1375, 147.9805
237.6197, 145.4042
238.1018, 142.9978
238.5839, 140.7693
239.0660, 138.7496
239.5481, 136.8988
240.0302, 134.9804
240.5124, 132.9059
240.9945, 130.8815
241.4766, 128.9324
241.9587, 127.0880
242.4408, 125.4507
242.9229, 124.1045
243.4051, 122.9771
243.8872, 121.7951
244.3693, 120.4708
244.8514, 119.2224
245.3335, 118.1404
245.8156, 117.2142
246.2978, 116.4245
246.7799, 115.7879
247.2620, 115.2640
247.7441, 114.7374
248.2262, 114.1730
248.7083, 113.6828
249.1905, 113.4610
249.6726, 113.3969
250.1547, 113.0257
250.6368, 111.9958
251.1189, 110.7895
251.6010, 110.1708
252.0832, 110.2155
252.5653, 110.3979
253.0474, 110.3999
253.5295, 110.2821
254.0116, 110.3262
254.4937, 110.6591
254.9759, 111.1338
255.4580, 111.5331
255.9401, 111.8497
256.4222, 112.2696
256.9043, 112.9729
257.3864, 113.9025
257.8686, 114.7406
258.3507, 115.3101
258.8328, 115.9312
259.3149, 116.9073
259.7970, 118.2017
260.2791, 119.5074
260.7613, 120.5594
261.2434, 121.4231
261.7255, 122.4840
262.2076, 123.7902
262.6897, 125.3148
263.1718, 127.0613
263.6540, 128.9893
264.1361, 130.9605
264.6182, 132.8902
265.1003, 134.7825
265.5824, 136.7191
266.0645, 138.7227
266.5467, 140.7271
267.0288, 142.6172
267.5109, 144.4802
267.9930, 146.5051
268.4751, 148.9077
268.9572, 151.5655
269.4394, 153.9051
269.9215, 155.6555
270.4036, 157.4973
270.8857, 159.7699
271.3678, 162.2807
271.8499, 164.7323
272.3321, 166.9584
272.8142, 169.0188
273.2963, 171.0945
273.7784, 173.2379
274.2605, 175.2807
274.7426, 177.1489
275.2248, 178.9203
275.7069, 180.6325
276.1890, 182.2915
276.6711, 183.9756
277.1532, 185.9180
277.6353, 188.3969
278.1175, 190.6147
278.5996, 192.5764
279.0817, 194.1859
279.5638, 195.2207
280.0459, 195.6026
280.5280, 195.7296
281.0102, 196.4524
281.4923, 198.2698
281.9744, 199.6158
282.4565, 200.1689
282.9386, 200.3620
283.4207, 200.5711
283.9029, 200.8751
284.3850, 200.9964
284.8671, 200.4223
285.3492, 198.7277
285.8313, 197.3852
286.3134, 196.8521
286.7956, 196.3313
287.2777, 195.3425
287.7598, 193.8302
288.2419, 192.0324
288.7240, 190.1757
289.2061, 188.2196
289.6883, 186.4006
290.1704, 184.7366
290.6525, 183.1842
291.1346, 181.8026
291.6167, 180.5361
292.0988, 179.2295
292.5810, 177.7101
293.0631, 175.9434
293.5452, 174.3636
294.0273, 173.2176
294.5094, 172.0076
294.9915, 170.3423
295.4737, 168.4688
295.9558, 166.9691
296.4379, 166.3201
296.9200, 166.4482
297.4021, 166.1999
297.8842, 165.2114
298.3664, 164.2115
298.8485, 163.2247
299.3306, 162.3422
299.8127, 161.7143
300.2948, 161.4387
300.7769, 161.4266
301.2591, 161.3242
301.7412, 161.2747
302.2233, 160.9309
302.7054, 159.9525
303.1875, 158.7926
303.6696, 158.0250
304.1518, 157.8756
304.6339, 157.9882
305.1160, 157.5842
305.5981, 156.3738
306.0802, 155.0182
306.5623, 153.3893
307.0445, 151.7231
307.5266, 150.2458
308.0087, 148.9978
308.4908, 147.7971
308.9729, 146.4076
309.4550, 144.8920
309.9372, 142.9771
310.4193, 140.2883
310.9014, 137.5557
311.3835, 135.2666
311.8656, 133.4195
312.3477, 131.6997
312.8299, 129.8132
313.3120, 127.7251
313.7941, 125.5924
314.2762, 123.3059
314.7583, 121.0765
315.2404, 118.9277
315.7226, 116.8955
316.2047, 115.0602
316.6868, 113.5158
317.1689, 112.2326
317.6510, 110.7454
318.1331, 108.7740
318.6153, 106.8968
319.0974, 105.2375
319.5795, 103.7551
320.0616, 102.3860
320.5437, 101.0996
321.0258, 99.88493
321.5080, 98.69414
321.9901, 97.69437
322.4722, 96.50988
322.9543, 94.80013
323.4364, 93.05568
323.9185, 91.83409
324.4007, 91.30906
324.8828, 91.09341
325.3649, 90.51497
325.8470, 89.32760
326.3291, 88.22484
326.8112, 87.30849
327.2934, 86.38487
327.7755, 85.25136
328.2576, 83.92313
328.7397, 82.62627
329.2218, 81.62823
329.7039, 81.02271
330.1861, 80.25094
330.6682, 79.13551
331.1503, 78.04431
331.6324, 77.21045
332.1145, 76.54276
332.5966, 75.77818
333.0788, 74.69815
333.5609, 73.32761
334.0430, 72.09950
334.5251, 71.13871
335.0072, 70.18240
335.4893, 69.13503
335.9715, 68.07496
336.4536, 67.13451
336.9357, 66.39028
337.4178, 65.76643
337.8999, 65.05240
338.3820, 64.13240
338.8642, 63.28997
339.3463, 62.58546
339.8284, 61.93615
340.3105, 61.30276
340.7926, 60.66015
341.2747, 59.96294
341.7568, 59.11771
342.2390, 58.02201
342.7211, 57.04082
343.2032, 56.30874
343.6853, 55.56982
344.1674, 54.59234
344.6495, 53.43465
345.1317, 52.39257
345.6138, 51.79158
346.0959, 51.67096
346.5780, 51.32796
347.0601, 50.44693
347.5422, 49.64057
348.0244, 49.03724
348.5065, 48.63121
348.9886, 48.45657
349.4707, 48.60285
349.9528, 48.87653
350.4349, 48.44363
350.9171, 46.69642
351.3992, 45.15495
351.8813, 44.13080
352.3634, 43.41430
352.8455, 42.83734
353.3276, 42.33600
353.8098, 41.87623
354.2919, 41.40615
354.7740, 40.92212
355.2561, 40.43880
355.7382, 39.91793
356.2203, 39.42756
356.7025, 39.01079
357.1846, 38.67037
357.6667, 38.38346
358.1488, 38.16613
358.6309, 38.02686
359.1130, 37.76003
359.5952, 37.23980
360.0773, 36.72684
360.5594, 36.38047
361.0415, 36.12164
361.5236, 35.77000
362.0057, 35.16536
362.4879, 34.43377
362.9700, 33.97949
363.4521, 33.93357
363.9342, 33.88457
364.4163, 33.69625
364.8984, 33.42825
365.3806, 33.13655
365.8627, 32.83673
366.3448, 32.51462
366.8269, 32.10493
367.3090, 31.57959
367.7911, 31.22022
368.2733, 31.26157
368.7554, 31.35531
369.2375, 31.23739
369.7196, 30.90495
370.2017, 30.53659
370.6838, 30.25044
371.1660, 30.03509
371.6481, 29.84869
372.1302, 29.71512
372.6123, 29.56005
373.0944, 29.30003
373.5765, 28.98301
374.0587, 28.71283
374.5408, 28.53329
375.0229, 28.41988
375.5050, 28.37830
375.9871, 28.42779
376.4692, 28.37880
376.9514, 28.04792
377.4335, 27.60550
377.9156, 27.30758
378.3977, 27.21310
378.8798, 27.16504
379.3619, 27.08239
379.8441, 26.95915
380.3262, 26.74833
380.8083, 26.38497
381.2904, 26.01615
381.7725, 25.84599
382.2546, 25.86504
382.7368, 25.88330
383.2189, 25.85624
383.7010, 25.78671
384.1831, 25.67177
384.6652, 25.50939
385.1473, 25.32527
385.6295, 25.11674
386.1116, 24.89932
386.5937, 24.74935
387.0758, 24.73608
387.5579, 24.73072
388.0400, 24.65089
388.5222, 24.51295
389.0043, 24.37837
389.4864, 24.28267
389.9685, 24.19651
390.4506, 24.03038
390.9327, 23.71081
391.4149, 23.48456
391.8970, 23.50537
392.3791, 23.60042
392.8612, 23.52968
393.3433, 23.24785
393.8254, 22.94478
394.3076, 22.85400
394.7897, 23.03920
395.2718, 23.08937
395.7539, 22.89163
396.2360, 22.67425
396.7181, 22.59847
397.2003, 22.61658
397.6824, 22.55356
398.1645, 22.28231
398.6466, 21.86714
399.1287, 21.62904
399.6108, 21.76123
400.0930, 21.84277
400.5751, 21.81896
401.0572, 21.72975
401.5393, 21.58728
402.0214, 21.40632
402.5035, 21.25784
402.9857, 21.26200
403.4678, 21.50298
403.9499, 21.65345
404.4320, 21.63287
404.9141, 21.60869
405.3962, 21.72311
405.8784, 21.91526
406.3605, 21.99010
406.8426, 21.77669
407.3247, 21.32807
407.8068, 21.03855
408.2889, 21.01427
408.7711, 21.00768
409.2532, 20.94710
409.7353, 20.88038
410.2174, 20.87187
410.6995, 20.94417
411.1816, 21.03763
411.6638, 21.06932
412.1459, 21.03384
412.6280, 20.96348
413.1101, 20.79769
413.5922, 20.65379
414.0743, 20.60280
414.5565, 20.63613
415.0386, 20.69984
415.5207, 20.78586
416.0028, 20.87460
416.4849, 20.88074
416.9670, 20.76703
417.4492, 20.66415
417.9313, 20.65399
418.4134, 20.69099
418.8955, 20.71730
419.3776, 20.70963
419.8597, 20.71096
420.3419, 20.76435
420.8240, 20.86643
421.3061, 20.98986
421.7882, 21.13892
422.2703, 21.28983
422.7524, 21.43075
423.2346, 21.56456
423.7167, 21.62974
424.1988, 21.52629
424.6809, 21.37698
425.1630, 21.36859
425.6451, 21.51954
426.1273, 21.68064
426.6094, 21.73843
427.0915, 21.71318
427.5736, 21.73377
428.0557, 21.79588
428.5378, 21.90600
429.0200, 22.11710
429.5021, 22.37384
429.9842, 22.55195
430.4663, 22.60286
430.9484, 22.59318
431.4305, 22.63161
431.9127, 22.74426
432.3948, 22.84568
432.8769, 22.92010
433.3590, 22.99429
433.8411, 23.10972
434.3232, 23.25043
434.8054, 23.34530
435.2875, 23.33149
435.7696, 23.22280
436.2517, 23.16499
436.7338, 23.27252
437.2159, 23.29570
437.6981, 23.12049
438.1802, 22.87667
438.6623, 22.72811
439.1444, 22.72282
439.6265, 22.75045
440.1086, 22.63226
440.5908, 22.30825
441.0729, 22.03603
441.5550, 21.82002
442.0371, 21.65137
442.5192, 21.56873
443.0013, 21.53409
443.4835, 21.45472
443.9656, 21.25313
444.4477, 20.98241
444.9298, 20.83109
445.4119, 20.85939
445.8940, 20.85187
446.3762, 20.67977
446.8583, 20.47387
447.3404, 20.36556
447.8225, 20.38197
448.3046, 20.39219
448.7867, 20.26104
449.2689, 20.01745
449.7510, 19.82645
450.2331, 19.73832
450.7152, 19.64708
451.1973, 19.43115
451.6794, 19.14186
452.1616, 18.91537
452.6437, 18.86639
453.1258, 18.83278
453.6079, 18.61776
454.0900, 18.25483
454.5721, 17.97097
455.0543, 17.87635
455.5364, 17.89606
456.0185, 17.88692
456.5006, 17.84725
456.9827, 17.79648
457.4648, 17.75053
457.9470, 17.68922
458.4291, 17.56928
458.9112, 17.39501
459.3933, 17.24590
459.8754, 17.19831
460.3575, 17.24748
460.8397, 17.21631
461.3218, 16.98828
461.8039, 16.82991
462.2860, 16.78400
462.7681, 16.85813
463.2502, 17.14757
463.7324, 17.66510
464.2145, 18.14990
464.6966, 18.14634
465.1787, 17.41988
465.6608, 16.91344
466.1429, 16.70052
466.6251, 16.62171
467.1072, 16.67942
467.5893, 16.81356
468.0714, 16.91975
468.5535, 16.93636
469.0356, 16.87660
469.5178, 16.76560
469.9999, 16.56830
470.4820, 16.41216
470.9641, 16.35787
471.4462, 16.33825
471.9283, 16.30931
472.4105, 16.26491
472.8926, 16.21786
473.3747, 16.17295
473.8568, 16.13266
474.3389, 16.11086
474.8210, 16.11575
475.3032, 16.11793
475.7853, 16.11368
476.2674, 16.09008
476.7495, 16.00955
477.2316, 15.80995
477.7137, 15.63952
478.1959, 15.66087
478.6780, 15.79739
479.1601, 15.79429
479.6422, 15.54486
480.1243, 15.26167
480.6064, 15.24949
481.0886, 15.56477
481.5707, 15.77129
482.0528, 15.77717
482.5349, 15.72717
483.0170, 15.71401
483.4991, 15.72703
483.9813, 15.70387
484.4634, 15.60372
484.9455, 15.46757
485.4276, 15.41901
485.9097, 15.55701
486.3918, 15.64043
486.8740, 15.67886
487.3561, 15.65547
487.8382, 15.50286
488.3203, 15.25644
488.8024, 15.06737
489.2845, 15.08116
489.7667, 15.27186
490.2488, 15.36963
490.7309, 15.31120
491.2130, 15.26140
491.6951, 15.29841
492.1772, 15.34865
492.6594, 15.31716
493.1415, 15.17994
493.6236, 15.04508
494.1057, 15.04806
494.5878, 15.16761
495.0699, 15.21719
495.5521, 15.15570
496.0342, 15.06378
496.5163, 14.99894
496.9984, 14.94887
497.4805, 14.88521
497.9626, 14.78169
498.4448, 14.68471
498.9269, 14.62652
499.4090, 14.60590
499.8911, 14.63143
500.3732, 14.71933
500.8553, 14.81347
501.3375, 14.82997
501.8196, 14.75409
502.3017, 14.67339
502.7838, 14.58109
503.2659, 14.49572
503.7480, 14.42371
504.2302, 14.36880
504.7123, 14.34140
505.1944, 14.34987
505.6765, 14.37948
506.1586, 14.38505
506.6407, 14.33129
507.1228, 14.31169
507.6049, 14.36077
508.0871, 14.41616
508.5692, 14.42942
509.0513, 14.40495
509.5334, 14.38277
510.0155, 14.39659
510.4977, 14.43718
510.9798, 14.45954
511.4619, 14.46120
511.9440, 14.45005
512.4261, 14.40205
512.9083, 14.35814
513.3904, 14.37814
513.8725, 14.47172
514.3546, 14.52531
514.8367, 14.41197
515.3188, 14.19600
515.8010, 14.05779
516.2831, 14.01820
516.7652, 14.03546
517.2473, 14.11875
517.7294, 14.23312
518.2115, 14.26642
518.6937, 14.17277
519.1758, 14.06009
519.6579, 13.91626
520.1400, 13.80263
520.6221, 13.86728
521.1042, 14.13970
521.5864, 14.41400
522.0685, 14.45660
522.5506, 14.23836
523.0327, 14.09467
523.5148, 14.03951
523.9969, 14.02816
524.4791, 14.08014
524.9612, 14.15574
525.4433, 14.19963
525.9254, 14.19287
526.4075, 14.16666
526.8896, 14.17315
527.3718, 14.22525
527.8539, 14.24196
528.3360, 14.20169
528.8181, 14.14628
529.3002, 14.04235
529.7823, 13.94455
530.2645, 13.96868
530.7466, 14.19898
531.2287, 14.46997
531.7108, 14.56107
532.1929, 14.48270
532.6750, 14.39704
533.1572, 14.35395
533.6393, 14.29513
534.1214, 14.10050
534.6035, 13.80292
535.0856, 13.64138
535.5677, 13.77128
536.0499, 13.96089
536.5320, 14.04702
537.0141, 14.04792
537.4962, 14.03289
537.9783, 14.02912
538.4604, 14.03359
538.9426, 14.04161
539.4247, 14.05615
539.9068, 14.06664
540.3889, 14.06039
540.8710, 14.06222
541.3531, 14.10043
541.8353, 14.15637
542.3174, 14.18789
542.7995, 14.17132
543.2816, 14.12245
543.7637, 14.06933
544.2458, 13.99912
544.7280, 13.96705
545.2101, 14.01157
545.6922, 14.07044
546.1743, 14.12711
546.6564, 14.17187
547.1385, 14.17844
547.6207, 14.11676
548.1028, 14.02533
548.5849, 13.94438
549.0670, 13.87543
549.5491, 13.87534
550.0313, 13.99106
550.5134, 14.14747
550.9955, 14.22376
551.4776, 14.21707
551.9597, 14.23223
552.4418, 14.33299
552.9240, 14.42620
553.4061, 14.42647
553.8882, 14.35328
554.3703, 14.27437
554.8524, 14.22153
555.3345, 14.19713
555.8167, 14.21064
556.2988, 14.30469
556.7809, 14.35156
557.2630, 14.31493
557.7451, 14.27124
558.2272, 14.25561
558.7094, 14.26822
559.1915, 14.30581
559.6736, 14.37581
560.1557, 14.44288
560.6378, 14.40469
561.1199, 14.23042
561.6021, 14.15524
562.0842, 14.30050
562.5663, 14.48759
563.0484, 14.57224
563.5305, 14.56709
564.0126, 14.54580
564.4948, 14.53074
564.9769, 14.51554
565.4590, 14.49981
565.9411, 14.48018
566.4232, 14.42575
566.9053, 14.30965
567.3875, 14.20695
567.8696, 14.24230
568.3517, 14.47065
568.8338, 14.66251
569.3159, 14.86181
569.7980, 14.98121
570.2802, 14.92258
570.7623, 14.75713
571.2444, 14.61154
571.7265, 14.54433
572.2086, 14.55162
572.6907, 14.65079
573.1729, 14.88765
573.6550, 15.03327
574.1371, 15.01496
574.6192, 14.96582
575.1013, 14.90241
575.5834, 14.85868
576.0656, 14.91393
576.5477, 15.14145
577.0298, 15.37464
577.5119, 15.40392
577.9940, 15.26718
578.4761, 15.16092
578.9583, 15.12749
579.4404, 15.13293
579.9225, 15.12697
580.4046, 15.11992
580.8867, 15.23133
581.3688, 15.68897
581.8510, 16.01856
582.3331, 15.88495
582.8152, 15.54009
583.2973, 15.36403
583.7794, 15.46121
584.2615, 15.67954
584.7437, 15.84677
585.2258, 15.95922
585.7079, 16.08742
586.1900, 16.29542
586.6721, 16.43650
587.1542, 16.41339
587.6363, 16.33977
588.1184, 16.34471
588.6005, 16.45712
589.0826, 16.60109
589.5648, 16.71831
590.0469, 16.81182
590.5290, 16.88932
591.0111, 16.94849
591.4932, 17.00515
591.9753, 17.05499
592.4575, 17.11579
592.9396, 17.22423
593.4217, 17.38724
593.9038, 17.57918
594.3859, 17.86913
594.8680, 18.13546
595.3502, 18.22613
595.8323, 18.15168
596.3144, 18.02374
596.7965, 17.90596
597.2786, 17.82430
597.7607, 17.88163
598.2429, 18.17210
598.7250, 18.43423
599.2071, 18.64747
599.6892, 18.83372
600.1713, 19.01936
600.6534, 19.19158
601.1356, 19.30252
601.6177, 19.29635
602.0998, 19.25379
602.5819, 19.33149
603.0640, 19.52948
603.5461, 19.70068
604.0283, 19.80325
604.5104, 19.87077
604.9925, 19.92319
605.4746, 19.96442
605.9567, 20.03868
606.4388, 20.17929
606.9210, 20.32789
607.4031, 20.46534
607.8852, 20.58372
608.3673, 20.66983
608.8494, 20.71974
609.3315, 20.73970
609.8137, 20.72519
610.2958, 20.66442
610.7779, 20.69535
611.2600, 20.95396
611.7421, 21.13793
612.2242, 21.07848
612.7064, 20.95680
613.1885, 20.99895
613.6706, 21.24913
614.1527, 21.52458
614.6348, 21.65487
615.1169, 21.68541
615.5991, 21.77242
616.0812, 21.93509
616.5633, 22.04872
617.0454, 22.02288
617.5275, 21.92444
618.0096, 21.91273
618.4918, 22.02387
618.9739, 22.09287
619.4560, 22.03911
619.9381, 21.96854
620.4202, 21.95450
620.9023, 22.00203
621.3845, 22.11741
621.8666, 22.30990
622.3487, 22.51176
622.8308, 22.56485
623.3129, 22.43022
623.7950, 22.26819
624.2772, 22.00018
624.7593, 21.79531
625.2414, 21.78329
625.7235, 21.88141
626.2056, 21.92589
626.6877, 21.85583
627.1699, 21.73022
627.6520, 21.57755
628.1341, 21.41420
628.6162, 21.29719
629.0983, 21.23733
629.5804, 21.21370
630.0626, 21.23059
630.5447, 21.27241
631.0268, 21.21481
631.5089, 20.95893
631.9910, 20.75225
632.4731, 20.67665
632.9553, 20.63596
633.4374, 20.53149
633.9195, 20.36763
634.4016, 20.22391
634.8837, 20.16558
635.3658, 20.15729
635.8480, 20.09414
636.3301, 19.96906
636.8122, 19.81450
637.2943, 19.58245
637.7764, 19.38285
638.2585, 19.32497
638.7407, 19.37982
639.2228, 19.41305
639.7049, 19.36854
640.1870, 19.30340
640.6691, 19.26876
641.1512, 19.24636
641.6334, 19.19986
642.1155, 19.11952
642.5976, 18.99281
643.0797, 18.79177
643.5618, 18.51651
644.0439, 18.34342
644.5261, 18.34051
645.0082, 18.36090
645.4903, 18.44134
645.9724, 18.49906
646.4545, 18.44236
646.9366, 18.27514
647.4188, 18.09263
647.9009, 17.95928
648.3830, 17.86341
648.8651, 17.78064
649.3472, 17.71119
649.8293, 17.66210
650.3115, 17.64444
650.7936, 17.63435
651.2757, 17.60290
651.7578, 17.54993
652.2399, 17.48291
652.7220, 17.39981
653.2042, 17.30510
653.6863, 17.15184
654.1684, 17.00608
654.6505, 16.99554
655.1326, 17.14149
655.6147, 17.30955
656.0969, 17.34368
656.5790, 17.25288
657.0611, 17.20227
657.5432, 17.22024
658.0253, 17.21821
658.5074, 17.11457
658.9896, 17.01020
659.4717, 17.01660
659.9538, 17.13629
660.4359, 17.22145
660.9180, 17.19808
661.4001, 17.11587
661.8823, 16.98864
662.3644, 16.84342
662.8465, 16.78223
663.3286, 16.84902
663.8107, 16.94332
664.2928, 16.92047
664.7750, 16.75688
665.2571, 16.63466
665.7392, 16.54806
666.2213, 16.51057
666.7034, 16.57849
667.1855, 16.66852
667.6677, 16.68748
668.1498, 16.62033
668.6319, 16.52627
669.1140, 16.42829
669.5961, 16.34406
670.0782, 16.34099
670.5604, 16.41957
671.0425, 16.43171
671.5246, 16.30162
672.0067, 16.10754
672.4888, 15.96694
672.9709, 15.89388
673.4531, 15.80065
673.9352, 15.64019
674.4173, 15.50918
674.8994, 15.50190
675.3815, 15.53019
675.8636, 15.43498
676.3458, 15.19008
676.8279, 14.96912
677.3100, 14.98552
677.7921, 15.19407
678.2742, 15.28103
678.7563, 15.20571
679.2385, 15.16911
679.7206, 15.31686
680.2027, 15.47688
680.6848, 15.38683
681.1669, 15.04176
681.6490, 14.82281
682.1312, 14.92132
682.6133, 15.08059
683.0954, 15.16537
683.5775, 15.17392
684.0596, 15.09351
684.5417, 14.92853
685.0239, 14.76266
685.5060, 14.69762
685.9881, 14.72959
686.4702, 14.72697
686.9523, 14.67744
687.4344, 14.61682
687.9166, 14.55929
688.3987, 14.49231
688.8808, 14.37401
689.3629, 14.21500
689.8450, 14.13809
690.3271, 14.27106
690.8093, 14.44779
691.2914, 14.50025
691.7735, 14.46395
692.2556, 14.44144
692.7377, 14.46365
693.2198, 14.49648
693.7020, 14.49945
694.1841, 14.47301
694.6662, 14.48336
695.1483, 14.61770
695.6304, 14.65797
696.1125, 14.46954
696.5947, 14.25407
697.0768, 14.19845
697.5589, 14.28818
698.0410, 14.34630
698.5231, 14.22351
699.0052, 14.07970
699.4874, 14.16229
699.9695, 14.40780
700.4516, 14.53716
700.9337, 14.47174
701.4158, 14.36762
701.8979, 14.37681
702.3801, 14.49115
702.8622, 14.57431
703.3443, 14.65709
703.8264, 14.66432
704.3085, 14.52130
704.7906, 14.35306
705.2728, 14.24108
705.7549, 14.19263
706.2370, 14.18912
706.7191, 14.23056
707.2012, 14.29214
707.6833, 14.33518
708.1655, 14.36532
708.6476, 14.42599
709.1297, 14.53446
709.6118, 14.61657
710.0939, 14.60245
710.5760, 14.51358
711.0582, 14.46759
711.5403, 14.45064
712.0224, 14.49324
712.5045, 14.62863
712.9866, 14.79783
713.4688, 15.01066
713.9509, 15.21814
714.4330, 15.29607
714.9151, 15.16790
715.3972, 14.99959
715.8793, 15.05665
716.3615, 15.28945
716.8436, 15.37206
717.3257, 15.24536
717.8078, 15.10049
718.2899, 15.03441
718.7720, 15.04337
719.2542, 15.13210
719.7363, 15.35186
720.2184, 15.51746
720.7005, 15.58650
721.1826, 15.62331
721.6647, 15.63787
722.1469, 15.65558
722.6290, 15.72305
723.1111, 15.85560
723.5932, 15.99948
724.0753, 16.10384
724.5574, 16.16845
725.0396, 16.16001
725.5217, 16.05549
726.0038, 16.05026
726.4859, 16.27692
726.9680, 16.59110
727.4501, 16.75338
727.9323, 16.74175
728.4144, 16.72856
728.8965, 16.71792
729.3786, 16.71321
729.8607, 16.67552
730.3428, 16.66408
730.8250, 16.77531
731.3071, 17.01613
731.7892, 17.28782
732.2713, 17.52130
732.7534, 17.70927
733.2355, 17.81618
733.7177, 17.83816
734.1998, 17.86289
734.6819, 17.92109
735.1640, 17.97299
735.6461, 17.93536
736.1282, 17.82145
736.6104, 17.90880
737.0925, 18.42228
737.5746, 18.84305
738.0567, 19.01321
738.5388, 19.05494
739.0209, 19.02526
739.5031, 18.97454
739.9852, 19.00850
740.4673, 19.20525
740.9494, 19.47129
741.4315, 19.51849
741.9136, 19.40487
742.3958, 19.97344
742.8779, 21.56250
743.3600, 22.90575
743.8421, 23.07008
744.3242, 22.37126
744.8063, 21.84820
745.2885, 21.50616
745.7706, 21.31262
746.2527, 21.32514
746.7348, 21.42756
747.2169, 21.58114
747.6990, 21.76482
748.1812, 21.97196
748.6633, 22.19755
749.1454, 22.38936
749.6275, 22.45002
750.1096, 22.43160
750.5917, 22.52719
751.0739, 22.74737
751.5560, 22.93244
752.0381, 22.99310
752.5202, 23.04109
753.0023, 23.25873
753.4844, 23.68962
753.9666, 24.00831
754.4487, 24.15701
754.9308, 24.27668
755.4129, 24.39673
755.8950, 24.51300
756.3771, 24.61436
756.8593, 24.70331
757.3414, 24.79563
757.8235, 24.88616
758.3056, 25.00464
758.7877, 25.22833
759.2698, 25.52681
759.7520, 25.75069
760.2341, 25.86551
760.7162, 25.94322
761.1983, 26.03969
761.6804, 26.14979
762.1625, 26.25088
762.6447, 26.36361
763.1268, 26.43213
763.6089, 26.40328
764.0910, 26.38477
764.5731, 26.44338
765.0552, 26.55171
765.5374, 26.66994
766.0195, 26.79724
766.5016, 26.84947
766.9837, 26.67528
767.4658, 26.42536
767.9479, 26.38330
768.4301, 26.52801
768.9122, 26.63197
769.3943, 26.59550
769.8764, 26.48004
770.3585, 26.37073
770.8406, 26.26377
771.3228, 26.20292
771.8049, 26.23769
772.2870, 26.23980
772.7691, 26.16417
773.2512, 26.05161
773.7333, 25.93882
774.2155, 25.82521
774.6976, 25.68397
775.1797, 25.46482
775.6618, 25.25822
776.1439, 25.14615
776.6260, 25.08182
777.1082, 25.00171
777.5903, 24.88952
778.0724, 24.73261
778.5545, 24.51699
779.0366, 24.26668
779.5187, 24.03911
780.0009, 23.82720
780.4830, 23.68981
780.9651, 23.71993
781.4472, 23.66727
781.9293, 23.31982
782.4114, 22.80977
782.8936, 22.37595
783.3757, 22.00696
783.8578, 21.78111
784.3399, 21.83920
784.8220, 21.92763
785.3041, 21.91807
785.7863, 21.80274
786.2684, 21.54797
786.7505, 21.16416
787.2326, 20.81122
787.7147, 20.68739
788.1968, 20.69815
788.6790, 20.49544
789.1611, 20.07455
789.6432, 19.79724
790.1253, 19.80778
790.6074, 19.86298
791.0895, 19.73603
791.5717, 19.43844
792.0538, 19.10287
792.5359, 18.62400
793.0180, 18.25796
793.5001, 18.05720
793.9822, 17.94790
794.4644, 17.93671
794.9465, 17.96647
795.4286, 17.91696
795.9107, 17.73308
796.3928, 17.53729
796.8749, 17.47231
797.3571, 17.45549
797.8392, 17.30766
798.3213, 17.03797
798.8034, 16.79292
799.2855, 16.63590
799.7676, 16.51647
800.2498, 16.36764
800.7319, 16.18887
801.2140, 15.97490
801.6961, 15.64970
802.1782, 15.42514
802.6603, 15.48681
803.1425, 15.56921
803.6246, 15.43148
804.1067, 15.11900
804.5888, 14.89221
805.0709, 14.88687
805.5530, 14.88842
806.0352, 14.77063
806.5173, 14.60875
806.9994, 14.46958
807.4815, 14.37208
807.9636, 14.35403
808.4457, 14.44259
808.9279, 14.52888
809.4100, 14.41109
809.8921, 14.10600
810.3742, 13.83216
810.8563, 13.56540
811.3384, 13.53806
811.8206, 14.00085
812.3027, 14.55042
812.7848, 14.54440
813.2669, 13.87843
813.7490, 13.37233
814.2311, 13.07364
814.7133, 12.87266
815.1954, 12.77533
815.6775, 12.74059
816.1596, 12.76682
816.6417, 12.82568
817.1238, 12.83319
817.6060, 12.72632
818.0881, 12.60271
818.5702, 12.58330
819.0523, 12.61801
819.5344, 12.60499
820.0165, 12.53147
820.4987, 12.39779
820.9808, 12.19734
821.4629, 11.98524
821.9450, 11.86602
822.4271, 11.85028
822.9092, 11.85194
823.3914, 11.89446
823.8735, 11.90923
824.3556, 11.87474
824.8377, 11.79847
825.3198, 11.66485
825.8019, 11.48187
826.2841, 11.35326
826.7662, 11.33307
827.2483, 11.33081
827.7304, 11.32570
828.2125, 11.30775
828.6946, 11.25733
829.1768, 11.18357
829.6589, 11.11577
830.1410, 11.06834
830.6231, 11.04388
831.1052, 11.05517
831.5873, 11.09319
832.0695, 11.12260
832.5516, 11.14085
833.0337, 11.15391
833.5158, 11.16702
833.9979, 11.16842
834.4800, 11.14271
834.9622, 11.09076
835.4443, 10.99687
835.9264, 10.77197
836.4085, 10.63976
836.8906, 10.73921
837.3727, 10.85908
837.8549, 10.81903
838.3370, 10.65437
838.8191, 10.52908
839.3012, 10.50547
839.7833, 10.49523
840.2654, 10.43212
840.7476, 10.36981
841.2297, 10.38856
841.7118, 10.46271
842.1939, 10.50218
842.6760, 10.46915
843.1581, 10.40524
843.6403, 10.35937
844.1224, 10.32803
844.6045, 10.27068
845.0866, 10.18021
845.5687, 10.21649
846.0508, 10.47554
846.5330, 10.73229
847.0151, 10.74543
847.4972, 10.53858
847.9793, 10.37794
848.4614, 10.28942
848.9435, 10.20927
849.4257, 10.11222
849.9078, 10.04385
850.3899, 10.06216
850.8720, 10.11715
851.3541, 10.10924
851.8362, 10.00832
852.3184, 9.915939
852.8005, 9.883114
853.2826, 9.887271
853.7647, 9.918788
854.2468, 9.966869
854.7289, 10.03180
855.2111, 10.10261
855.6932, 10.11121
856.1753, 9.982664
856.6574, 9.777578
857.1395, 9.648180
857.6216, 9.594310
858.1038, 9.608775
858.5859, 9.707567
859.0680, 9.795717
859.5501, 9.815943
860.0322, 9.781295
860.5143, 9.717276
860.9965, 9.601199
861.4786, 9.525986
861.9607, 9.508257
862.4428, 9.509049
862.9249, 9.530427
863.4070, 9.556170
863.8892, 9.567517
864.3713, 9.565904
864.8534, 9.572738
865.3355, 9.619428
865.8176, 9.644979
866.2997, 9.600787
866.7819, 9.517602
867.2640, 9.411329
867.7461, 9.303355
868.2282, 9.255036
868.7103, 9.296888
869.1924, 9.361254
869.6746, 9.335691
870.1567, 9.249116
870.6388, 9.279113
871.1209, 9.432087
871.6030, 9.502005
872.0851, 9.409600
872.5673, 9.255610
873.0494, 9.138963
873.5315, 9.058522
874.0136, 9.005438
874.4957, 8.973927
874.9778, 8.980373
875.4600, 9.076549
875.9421, 9.159231
876.4242, 9.171854
876.9063, 9.140627
877.3884, 9.104745
877.8705, 9.065503
878.3527, 9.052039
878.8348, 9.141215
879.3169, 9.189877
879.7990, 9.044003
880.2811, 8.825650
880.7632, 8.707214
881.2454, 8.713287
881.7275, 8.779359
882.2096, 8.882463
882.6917, 8.973178
883.1738, 8.951904
883.6559, 8.859165
884.1381, 8.846272
884.6202, 8.921624
885.1023, 8.963290
885.5844, 8.908146
886.0665, 8.810804
886.5486, 8.754442
887.0308, 8.739873
887.5129, 8.718126
887.9950, 8.679642
888.4771, 8.661628
888.9592, 8.696605
889.4413, 8.725667
889.9235, 8.682175
890.4056, 8.589223
890.8877, 8.539971
891.3698, 8.566448
891.8519, 8.577616
892.3340, 8.538675
892.8162, 8.503713
893.2983, 8.502357
893.7804, 8.525206
894.2625, 8.574603
894.7446, 8.642491
895.2267, 8.659992
895.7089, 8.518055
896.1910, 8.375671
896.6731, 8.439967
897.1552, 8.596180
897.6373, 8.616058
898.1194, 8.495751
898.6016, 8.406245
899.0837, 8.447322
899.5658, 8.533559
900.0479, 8.509359
900.5300, 8.395358
901.0121, 8.393285
901.4943, 8.521497
901.9764, 8.537672
902.4585, 8.326055
902.9406, 8.095250
903.4227, 8.080909
903.9048, 8.249495
904.3870, 8.300298
904.8691, 8.146843
905.3512, 8.050778
905.8333, 8.078947
906.3154, 8.113925
906.7975, 8.085889
907.2797, 8.035548
907.7618, 8.033428
908.2439, 8.091928
908.7260, 8.124617
909.2081, 8.050572
909.6902, 8.016517
910.1724, 8.164529
910.6545, 8.339667
911.1366, 8.363633
911.6187, 8.248315
912.1008, 8.111321
912.5829, 7.995053
913.0651, 7.929776
913.5472, 7.964808
914.0293, 8.057596
914.5114, 8.170721
914.9935, 8.277188
915.4756, 8.290405
915.9578, 8.187148
916.4398, 8.049356
916.9219, 7.952209
917.4041, 7.892218
917.8862, 7.871491
918.3683, 7.890870
918.8504, 7.854177
919.3325, 7.732008
919.8146, 7.642900
920.2968, 7.664683
920.7789, 7.743605
921.2610, 7.779906
921.7431, 7.767504
922.2252, 7.748743
922.7073, 7.699761
923.1895, 7.682997
923.6716, 7.713275
924.1537, 7.780790
924.6358, 7.926824
925.1179, 8.105941
925.6000, 8.163238
926.0822, 8.020282
926.5643, 7.900174
927.0464, 7.895350
927.5285, 7.890105
928.0106, 7.779092
928.4927, 7.640532
928.9749, 7.601526
929.4570, 7.671085
929.9391, 7.740889
930.4212, 7.737539
930.9033, 7.730349
931.3854, 7.806059
931.8676, 7.909071
932.3497, 7.946702
932.8318, 7.923642
933.3139, 7.896585
933.7960, 7.890338
934.2781, 7.884090
934.7603, 7.853506
935.2424, 7.803109
935.7245, 7.743689
936.2066, 7.676362
936.6887, 7.614343
937.1708, 7.560957
937.6530, 7.502137
938.1351, 7.417959
938.6172, 7.344745
939.0993, 7.386719
939.5814, 7.575454
940.0635, 7.708838
940.5457, 7.791880
941.0278, 7.801882
941.5099, 7.673326
941.9920, 7.540955
942.4741, 7.563923
942.9562, 7.722171
943.4384, 7.813366
943.9205, 7.784445
944.4026, 7.772366
944.8847, 7.828811
945.3668, 7.853583
945.8489, 7.741706
946.3311, 7.597661
946.8132, 7.582508
947.2953, 7.709303
947.7774, 7.812700
948.2595, 7.811777
948.7416, 7.802925
949.2238, 7.828688
949.7059, 7.875491
950.1880, 7.940483
950.6701, 8.012368
951.1522, 8.067677
951.6343, 8.098114
952.1165, 8.124773
952.5986, 8.166508
953.0807, 8.214114
953.5628, 8.242019
954.0449, 8.268703
954.5270, 8.347562
955.0092, 8.479991
955.4913, 8.617472
955.9734, 8.730761
956.4555, 8.816608
956.9376, 8.827946
957.4197, 8.800039
957.9019, 8.954844
958.3840, 9.293497
958.8661, 9.584014
959.3482, 9.752925
959.8303, 9.856938
960.3124, 9.930131
960.7946, 10.00818
961.2767, 10.25020
961.7588, 10.70116
962.2409, 11.07851
962.7230, 11.31586
963.2051, 11.61850
963.6873, 12.10098
964.1694, 12.65935
964.6515, 13.15984
965.1336, 13.60423
965.6157, 14.06549
966.0978, 14.56885
966.5800, 15.04907
967.0621, 15.52226
967.5442, 15.94901
968.0263, 16.28151
968.5084, 16.56506
968.9905, 16.86403
969.4727, 17.18385
969.9548, 17.52262
970.4369, 17.84813
970.9190, 18.23026
971.4011, 18.81510
971.8832, 19.36496
972.3654, 19.64780
972.8475, 19.72350
973.3296, 19.78818
973.8117, 19.90411
974.2938, 19.95117
974.7759, 19.79599
975.2581, 19.60633
975.7402, 19.57430
976.2223, 19.57899
976.7044, 19.44993
977.1865, 19.16112
977.6686, 18.73657
978.1508, 18.17542
978.6329, 17.58610
979.1150, 17.11154
979.5971, 16.67233
980.0792, 16.10339
980.5613, 15.43271
981.0435, 14.76244
981.5256, 14.12360
982.0077, 13.53143
982.4898, 12.99537
982.9719, 12.53429
983.4540, 12.24452
983.9362, 12.08125
984.4183, 11.73426
984.9004, 11.19445
985.3825, 10.72781
985.8646, 10.42909
986.3467, 10.22592
986.8289, 10.05310
987.3110, 9.903614
987.7931, 9.741977
988.2752, 9.560913
988.7573, 9.437881
989.2394, 9.406610
989.7216, 9.313712
990.2037, 9.060443
990.6858, 8.777117
991.1679, 8.633083
991.6500, 8.621186
992.1321, 8.605927
992.6143, 8.588735
993.0964, 8.564541
993.5785, 8.526524
994.0606, 8.490485
994.5427, 8.460688
995.0248, 8.440034
995.5070, 8.433230
995.9891, 8.440562
996.4712, 8.457864
996.9533, 8.536564
997.4354, 8.551436
997.9175, 8.396863
998.3997, 8.262197
998.8818, 8.289448
999.3639, 8.402336
999.8460, 8.458490
1000.328, 8.436216
1000.810, 8.440557
1001.292, 8.501788
1001.774, 8.588388
1002.257, 8.717431
1002.739, 8.840955
1003.221, 8.891683
1003.703, 8.910147
1004.185, 8.985038
1004.667, 9.139623
1005.149, 9.340548
1005.631, 9.572126
1006.114, 9.842551
1006.596, 10.20266
1007.078, 10.57430
1007.560, 10.92940
1008.042, 11.20434
1008.524, 11.24767
1009.006, 10.99446
1009.488, 10.64151
1009.970, 10.34605
1010.453, 10.03279
1010.935, 9.562343
1011.417, 9.034443
1011.899, 8.605892
1012.381, 8.307614
1012.863, 8.147456
1013.345, 8.137295
1013.827, 8.122695
1014.310, 7.874477
1014.792, 7.534872
1015.274, 7.375288
1015.756, 7.357125
1016.238, 7.360367
1016.720, 7.357415
1017.202, 7.351855
1017.684, 7.344319
1018.166, 7.352583
1018.649, 7.437239
1019.131, 7.556045
1019.613, 7.541411
1020.095, 7.407614
1020.577, 7.242899
1021.059, 7.071868
1021.541, 6.995416
1022.023, 7.093451
1022.505, 7.267889
1022.988, 7.337442
1023.470, 7.308725
1023.952, 7.252063
1024.434, 7.166914
1024.916, 7.108005
1025.398, 7.089746
1025.880, 7.097437
1026.362, 7.123948
1026.845, 7.157220
1027.327, 7.161335
1027.809, 7.131422
1028.291, 7.151131
1028.773, 7.232179
1029.255, 7.292909
1029.737, 7.304330
1030.219, 7.317872
1030.702, 7.387772
1031.184, 7.473427
1031.666, 7.450564
1032.148, 7.288156
1032.630, 7.182502
1033.112, 7.126992
1033.594, 7.160623
1034.076, 7.354211
1034.558, 7.520662
1035.041, 7.476662
1035.523, 7.304885
1036.005, 7.267825
1036.487, 7.420566
1036.969, 7.507685
1037.451, 7.500844
1037.933, 7.482221
1038.415, 7.467749
1038.897, 7.455940
1039.380, 7.445390
1039.862, 7.436751
1040.344, 7.436975
1040.826, 7.470280
1041.308, 7.438113
1041.790, 7.213199
1042.272, 7.107377
1042.754, 7.324955
1043.237, 7.572723
1043.719, 7.610609
1044.201, 7.498774
1044.683, 7.399685
1045.165, 7.289331
1045.647, 7.274627
1046.129, 7.482169
1046.611, 7.622785
1047.094, 7.556849
1047.576, 7.453429
1048.058, 7.438996
1048.540, 7.494647
1049.022, 7.556808
1049.504, 7.616028
1049.986, 7.700163
1050.468, 7.891945
1050.950, 8.005281
1051.432, 7.916173
1051.915, 7.785306
1052.397, 7.746198
1052.879, 7.768250
1053.361, 7.755773
1053.843, 7.686661
1054.325, 7.637443
1054.807, 7.648402
1055.289, 7.651083
1055.772, 7.592122
1056.254, 7.540860
1056.736, 7.572383
1057.218, 7.651479
1057.700, 7.681352
1058.182, 7.635065
1058.664, 7.647730
1059.146, 7.851199
1059.629, 7.998181
1060.111, 7.956451
1060.593, 7.848831
1061.075, 7.755635
1061.557, 7.683598
1062.039, 7.624107
1062.521, 7.574630
1063.003, 7.559144
1063.485, 7.643332
1063.968, 7.687698
1064.450, 7.587698
1064.932, 7.464677
1065.414, 7.421164
1065.896, 7.430388
1066.378, 7.440860
1066.860, 7.440652
1067.342, 7.396005
1067.824, 7.229632
1068.307, 7.101691
1068.789, 7.111782
1069.271, 7.159836
1069.753, 7.167182
1070.235, 7.152005
1070.717, 7.160204
1071.199, 7.196782
1071.681, 7.221390
1072.164, 7.207360
1072.646, 7.194501
1073.128, 7.201335
1073.610, 7.215920
1074.092, 7.256190
1074.574, 7.283526
1075.056, 7.230207
1075.538, 7.098046
1076.021, 6.960182
1076.503, 6.793241
1076.985, 6.731317
1077.467, 6.931115
1077.949, 7.163818
1078.431, 7.285446
1078.913, 7.314537
1079.395, 7.241137
1079.877, 7.108636
1080.359, 7.094415
1080.842, 7.329329
1081.324, 7.491144
1081.806, 7.352146
1082.288, 7.172449
1082.770, 7.117766
1083.252, 7.131719
1083.734, 7.143851
1084.216, 7.145582
1084.698, 7.151465
1085.181, 7.168839
1085.663, 7.177016
1086.145, 7.138365
1086.627, 7.120536
1087.109, 7.209750
1087.591, 7.306187
1088.073, 7.279701
1088.555, 7.168865
1089.038, 7.108623
1089.520, 7.138954
1090.002, 7.163109
1090.484, 7.141187
1090.966, 7.102916
1091.448, 7.017988
1091.930, 6.963723
1092.412, 7.049120
1092.895, 7.207956
1093.377, 7.296449
1093.859, 7.286170
1094.341, 7.254086
1094.823, 7.200453
1095.305, 7.167578
1095.787, 7.165849
1096.269, 7.198586
1096.751, 7.310155
1097.234, 7.437178
1097.716, 7.472427
1098.198, 7.408554
1098.680, 7.345015
1099.162, 7.322029
1099.644, 7.285946
1100.126, 7.195014
1100.608, 7.113710
1101.090, 7.064243
1101.573, 7.058435
1102.055, 7.130785
1102.537, 7.263785
1103.019, 7.361528
1103.501, 7.402128
1103.983, 7.409431
1104.465, 7.335635
1104.947, 7.294974
1105.430, 7.385162
1105.912, 7.496415
1106.394, 7.519545
1106.876, 7.470842
1107.358, 7.416295
1107.840, 7.353862
1108.322, 7.327323
1108.804, 7.358886
1109.286, 7.406119
1109.769, 7.460751
1110.251, 7.522574
1110.733, 7.631410
1111.215, 7.734183
1111.697, 7.700942
1112.179, 7.498360
1112.661, 7.379387
1113.143, 7.440303
1113.625, 7.470350
1114.108, 7.371490
1114.590, 7.309493
1115.072, 7.443558
1115.554, 7.624078
1116.036, 7.610311
1116.518, 7.410503
1117.000, 7.341986
1117.482, 7.520398
1117.965, 7.619863
1118.447, 7.578660
1118.929, 7.532945
1119.411, 7.501090
1119.893, 7.523754
1120.375, 7.685554
1120.857, 7.931633
1121.339, 8.014857
1121.822, 7.865054
1122.304, 7.773021
1122.786, 7.758173
1123.268, 7.756291
1123.750, 7.750061
1124.232, 7.753121
1124.714, 7.768504
1125.196, 7.809365
1125.678, 7.917539
1126.161, 8.103281
1126.643, 8.192610
1127.125, 8.165137
1127.607, 8.117261
1128.089, 8.048490
1128.571, 8.022748
1129.053, 8.084756
1129.535, 8.176864
1130.017, 8.220515
1130.500, 8.222628
1130.982, 8.229630
1131.464, 8.243049
1131.946, 8.225244
1132.428, 8.166114
1132.910, 8.166803
1133.392, 8.269903
1133.874, 8.400381
1134.357, 8.491932
1134.839, 8.550386
1135.321, 8.597340
1135.803, 8.628175
1136.285, 8.557236
1136.767, 8.398794
1137.249, 8.418344
1137.731, 8.665602
1138.214, 8.808340
1138.696, 8.635118
1139.178, 8.332796
1139.660, 8.128789
1140.142, 8.026691
1140.624, 8.079657
1141.106, 8.244485
1141.588, 8.360632
1142.070, 8.419207
1142.552, 8.515265
1143.035, 8.681083
1143.517, 8.801116
1143.999, 8.747077
1144.481, 8.638896
1144.963, 8.681266
1145.445, 8.781371
1145.927, 8.751528
1146.409, 8.632411
1146.892, 8.553889
1147.374, 8.545550
1147.856, 8.570121
1148.338, 8.609468
1148.820, 8.662133
1149.302, 8.757513
1149.784, 8.836623
1150.266, 8.815420
1150.749, 8.751458
1151.231, 8.732065
1151.713, 8.751546
1152.195, 8.754211
1152.677, 8.722660
1153.159, 8.705501
1153.641, 8.730317
1154.123, 8.774962
1154.605, 8.864819
1155.088, 8.932708
1155.570, 8.883768
1156.052, 8.792913
1156.534, 8.800502
1157.016, 8.905674
1157.498, 8.947252
1157.980, 8.812558
1158.462, 8.761106
1158.944, 8.978626
1159.427, 9.139682
1159.909, 9.008281
1160.391, 8.831423
1160.873, 8.864767
1161.355, 9.042252
1161.837, 9.158524
1162.319, 9.209500
1162.801, 9.173329
1163.284, 8.949634
1163.766, 8.805814
1164.248, 8.809557
1164.730, 8.857533
1165.212, 8.911530
1165.694, 8.963138
1166.176, 8.999342
1166.658, 9.021641
1167.141, 9.049302
1167.623, 9.098228
1168.105, 9.076903
1168.587, 8.956903
1169.069, 8.866491
1169.551, 8.848938
1170.033, 8.860430
1170.515, 8.866129
1170.997, 8.877961
1171.479, 8.937827
1171.962, 9.035403
1172.444, 9.004543
1172.926, 8.855574
1173.408, 8.838480
1173.890, 8.987145
1174.372, 9.154210
1174.854, 9.271639
1175.336, 9.311075
1175.819, 9.217788
1176.301, 9.073904
1176.783, 9.044271
1177.265, 9.099132
1177.747, 9.169135
1178.229, 9.250362
1178.711, 9.381709
1179.193, 9.546153
1179.676, 9.602413
1180.158, 9.459202
1180.640, 9.283736
1181.122, 9.207145
1181.604, 9.208649
1182.086, 9.296597
1182.568, 9.426063
1183.050, 9.555128
1183.532, 9.665693
1184.015, 9.746589
1184.497, 9.791562
1184.979, 9.762343
1185.461, 9.540415
1185.943, 9.409461
1186.425, 9.575598
1186.907, 9.789744
1187.389, 9.940806
1187.871, 10.00827
1188.354, 9.931890
1188.836, 9.761484
1189.318, 9.672852
1189.800, 9.709630
1190.282, 9.746832
1190.764, 9.722011
1191.246, 9.772303
1191.728, 9.979945
1192.211, 10.19562
1192.693, 10.37323
1193.175, 10.47728
1193.657, 10.43607
1194.139, 10.27039
1194.621, 10.17073
1195.103, 10.13890
1195.585, 10.17672
1196.068, 10.30440
1196.550, 10.40518
1197.032, 10.44312
1197.514, 10.44835
1197.996, 10.43441
1198.478, 10.43572
1198.960, 10.51590
1199.442, 10.66494
1199.924, 10.87041
1200.406, 11.10581
1200.889, 11.16765
1201.371, 11.06626
1201.853, 11.05710
1202.335, 11.22462
1202.817, 11.40013
1203.299, 11.45166
1203.781, 11.44382
1204.263, 11.42373
1204.746, 11.42918
1205.228, 11.57832
1205.710, 11.76696
1206.192, 11.73706
1206.674, 11.55225
1207.156, 11.55543
1207.638, 11.86233
1208.120, 12.12034
1208.603, 12.05785
1209.085, 11.98768
1209.567, 12.07445
1210.049, 12.22036
1210.531, 12.40764
1211.013, 12.56821
1211.495, 12.58169
1211.977, 12.48300
1212.459, 12.47995
1212.942, 12.62952
1213.424, 12.78427
1213.906, 12.96032
1214.388, 13.09987
1214.870, 13.20360
1215.352, 13.24829
1215.834, 13.18497
1216.316, 13.09980
1216.798, 13.11187
1217.281, 13.21425
1217.763, 13.36594
1218.245, 13.57854
1218.727, 13.75328
1219.209, 13.88913
1219.691, 13.90190
1220.173, 13.75968
1220.655, 13.68963
1221.138, 13.84853
1221.620, 14.10442
1222.102, 14.28976
1222.584, 14.41198
1223.066, 14.49554
1223.548, 14.53348
1224.030, 14.46384
1224.512, 14.33282
1224.995, 14.30270
1225.477, 14.40799
1225.959, 14.56025
1226.441, 14.72200
1226.923, 14.86058
1227.405, 14.92275
1227.887, 14.97960
1228.369, 15.10817
1228.851, 15.24934
1229.333, 15.33958
1229.816, 15.38524
1230.298, 15.40851
1230.780, 15.41434
1231.262, 15.42745
1231.744, 15.43609
1232.226, 15.48004
1232.708, 15.66439
1233.190, 15.74671
1233.673, 15.53245
1234.155, 15.33116
1234.637, 15.42390
1235.119, 15.65917
1235.601, 15.70501
1236.083, 15.56166
1236.565, 15.54374
1237.047, 15.68044
1237.530, 15.67512
1238.012, 15.47934
1238.494, 15.43913
1238.976, 15.68506
1239.458, 15.90808
1239.940, 15.84970
1240.422, 15.68616
1240.904, 15.72631
1241.386, 15.87601
1241.869, 15.91370
1242.351, 15.86633
1242.833, 15.80109
1243.315, 15.72190
1243.797, 15.58177
1244.279, 15.38301
1244.761, 15.25856
1245.243, 15.30555
1245.725, 15.38404
1246.208, 15.41615
1246.690, 15.43327
1247.172, 15.43084
1247.654, 15.44738
1248.136, 15.58897
1248.618, 15.75833
1249.100, 15.69578
1249.582, 15.35860
1250.065, 15.17454
1250.547, 15.19497
1251.029, 15.32925
1251.511, 15.70026
1251.993, 15.90834
1252.475, 15.76246
1252.957, 15.57251
1253.439, 15.59106
1253.922, 15.68764
1254.404, 15.59882
1254.886, 15.36361
1255.368, 15.26591
1255.850, 15.28816
1256.332, 15.26635
1256.814, 15.19443
1257.296, 15.17340
1257.778, 15.22173
1258.260, 15.20493
1258.743, 15.02316
1259.225, 14.85013
1259.707, 14.89678
1260.189, 15.02291
1260.671, 15.09132
1261.153, 15.13192
1261.635, 15.17957
1262.117, 15.23597
1262.600, 15.29253
1263.082, 15.34982
1263.564, 15.43120
1264.046, 15.59953
1264.528, 15.64565
1265.010, 15.37939
1265.492, 15.19726
1265.974, 15.23757
1266.457, 15.36334
1266.939, 15.54719
1267.421, 15.70912
1267.903, 15.73257
1268.385, 15.63673
1268.867, 15.49486
1269.349, 15.29426
1269.831, 15.33554
1270.313, 15.62305
1270.796, 15.90881
1271.278, 16.13251
1271.760, 16.18064
1272.242, 15.99782
1272.724, 15.94107
1273.206, 16.44547
1273.688, 17.13165
1274.170, 17.67349
1274.652, 17.90360
1275.135, 17.33895
1275.617, 16.43320
1276.099, 15.93424
1276.581, 15.85587
1277.063, 15.86084
1277.545, 15.86359
1278.027, 15.92407
1278.509, 16.12600
1278.992, 16.28844
1279.474, 16.34501
1279.956, 16.38643
1280.438, 16.46802
1280.920, 16.52682
1281.402, 16.49355
1281.884, 16.41473
1282.366, 16.38721
1282.849, 16.41139
1283.331, 16.52959
1283.813, 16.74418
1284.295, 16.81468
1284.777, 16.72906
1285.259, 16.68406
1285.741, 16.73939
1286.223, 16.83685
1286.705, 16.94185
1287.188, 17.05508
##END=



