##NAMES=Penikisite
##RRUFFID=R060270
##IDEAL CHEMISTRY=BaMg_2_Al_2_(PO_4_)_3_(OH)_3_
##LOCALITY=16 miles north of Hess River, Yukon Territory, Canada
##OWNER=RRUFF
##SOURCE=Michael Scott
##DESCRIPTION=Pale bluish green massive associated with quartz
##STATUS=The identification of this mineral is confirmed by single-crystal X-ray diffraction and chemical analysis.
##URL=rruff.info/R060270
##MEASURED CHEMISTRY=Ba_1.00_(Mg_1.90_Mn_0.05_Sr_0.02_[box]_0.02_Ca_0.01_)_Σ=2_(Al_1.97_Ti_0.03_)_Σ=2_(P_1.00_O_4_)_3_(OH)_3_ ; H not measured but estimated by difference and charge balance
90.01007, 0.0000000E+00
90.49219, 25.49421
90.97430, 28.02376
91.45642, 28.92415
91.93854, 26.91290
92.42065, 23.64242
92.90277, 21.61518
93.38489, 21.12532
93.86700, 21.16777
94.34912, 20.53229
94.83124, 19.32933
95.31335, 18.20892
95.79547, 17.60086
96.27759, 17.41842
96.75970, 17.18410
97.24182, 16.64036
97.72394, 16.25410
98.20605, 17.52833
98.68817, 20.71336
99.17029, 23.55355
99.65240, 23.64923
100.1345, 20.72590
100.6166, 19.26214
101.0988, 20.60549
101.5809, 24.32855
102.0630, 26.93735
102.5451, 28.46815
103.0272, 28.86504
103.5093, 27.66218
103.9915, 23.89766
104.4736, 21.10069
104.9557, 20.73512
105.4378, 23.60296
105.9199, 24.29782
106.4020, 21.79770
106.8842, 17.63334
107.3663, 14.24751
107.8484, 10.62609
108.3305, 9.008803
108.8126, 10.47714
109.2947, 18.22704
109.7769, 23.75051
110.2590, 26.29992
110.7411, 26.50028
111.2232, 26.22739
111.7053, 24.02521
112.1874, 22.39890
112.6696, 22.49364
113.1517, 27.61444
113.6338, 31.01985
114.1159, 30.70829
114.5980, 27.26898
115.0801, 24.93878
115.5623, 26.57897
116.0444, 28.81597
116.5265, 29.04196
117.0086, 23.25608
117.4907, 18.25504
117.9728, 17.39675
118.4550, 20.90045
118.9371, 23.79690
119.4192, 23.46914
119.9013, 21.35204
120.3834, 19.27571
120.8655, 16.81603
121.3477, 15.40163
121.8298, 16.64517
122.3119, 21.14424
122.7940, 25.60461
123.2761, 27.65701
123.7582, 27.91699
124.2404, 27.75557
124.7225, 27.59683
125.2046, 27.52879
125.6867, 27.72582
126.1688, 28.32465
126.6509, 28.91889
127.1331, 28.86739
127.6152, 28.31876
128.0973, 28.01159
128.5794, 27.68885
129.0615, 27.96067
129.5436, 30.72651
130.0258, 37.80786
130.5079, 46.02848
130.9900, 49.06767
131.4721, 46.90387
131.9542, 44.24116
132.4363, 44.99153
132.9185, 48.84572
133.4006, 53.71346
133.8827, 59.27618
134.3648, 65.35715
134.8469, 71.56805
135.3290, 77.79471
135.8112, 84.68599
136.2933, 93.08961
136.7754, 103.1201
137.2575, 113.3485
137.7396, 122.6320
138.2217, 130.9234
138.7039, 143.2441
139.1860, 160.6741
139.6681, 180.4788
140.1502, 199.0303
140.6323, 215.9689
141.1144, 232.2548
141.5966, 248.4680
142.0787, 264.8636
142.5608, 279.5244
143.0429, 291.9303
143.5250, 302.8715
144.0071, 313.7726
144.4893, 323.6391
144.9714, 334.9342
145.4535, 348.9960
145.9356, 368.5442
146.4177, 385.8051
146.8998, 401.2468
147.3820, 414.4678
147.8641, 424.1319
148.3462, 426.6663
148.8283, 428.8836
149.3104, 434.4410
149.7925, 445.0063
150.2747, 456.7504
150.7568, 469.7542
151.2389, 483.9000
151.7210, 497.8053
152.2031, 510.5312
152.6852, 523.4392
153.1674, 537.5215
153.6495, 554.3779
154.1316, 570.6564
154.6137, 586.7275
155.0958, 602.6271
155.5779, 615.2117
156.0601, 619.9594
156.5422, 623.1234
157.0243, 629.9980
157.5064, 645.6115
157.9885, 661.2315
158.4706, 674.0897
158.9528, 683.6852
159.4349, 693.7108
159.9170, 705.2828
160.3991, 717.7341
160.8812, 730.2938
161.3633, 741.5792
161.8455, 753.8561
162.3276, 768.6784
162.8097, 786.5648
163.2918, 804.1052
163.7739, 819.4608
164.2560, 832.6264
164.7382, 839.7822
165.2203, 846.9875
165.7024, 853.7344
166.1845, 858.5722
166.6666, 861.2083
167.1487, 862.5494
167.6309, 861.5954
168.1130, 859.6924
168.5951, 859.7087
169.0772, 863.6705
169.5593, 869.6768
170.0414, 876.5731
170.5236, 885.0745
171.0057, 892.3290
171.4878, 895.4339
171.9699, 895.4889
172.4520, 895.7540
172.9341, 898.7579
173.4163, 902.7446
173.8984, 905.5657
174.3805, 906.3358
174.8626, 906.5258
175.3447, 907.4138
175.8268, 908.9145
176.3090, 910.6912
176.7911, 911.4771
177.2732, 912.5236
177.7553, 916.2072
178.2374, 924.7596
178.7195, 934.3489
179.2017, 939.8757
179.6838, 941.6900
180.1659, 942.5178
180.6480, 942.7661
181.1301, 943.5734
181.6122, 947.9059
182.0944, 958.3849
182.5765, 971.4969
183.0586, 982.3949
183.5407, 990.9166
184.0228, 996.5873
184.5049, 997.1750
184.9871, 994.0126
185.4692, 991.9246
185.9513, 993.1984
186.4334, 996.2292
186.9155, 997.0070
187.3976, 995.3749
187.8798, 993.3020
188.3619, 992.9207
188.8440, 993.9837
189.3261, 994.9267
189.8082, 995.1248
190.2903, 994.8027
190.7725, 994.8865
191.2546, 995.4719
191.7367, 995.9619
192.2188, 994.9410
192.7009, 992.5530
193.1830, 991.8913
193.6652, 994.9607
194.1473, 1001.042
194.6294, 1005.266
195.1115, 1007.291
195.5936, 1008.607
196.0757, 1010.780
196.5579, 1013.783
197.0400, 1018.210
197.5221, 1025.354
198.0042, 1034.865
198.4863, 1041.432
198.9684, 1044.516
199.4506, 1045.793
199.9327, 1046.895
200.4148, 1047.558
200.8969, 1050.325
201.3790, 1057.227
201.8611, 1068.432
202.3433, 1077.594
202.8254, 1084.284
203.3075, 1089.619
203.7896, 1095.354
204.2717, 1101.596
204.7538, 1107.730
205.2360, 1113.702
205.7181, 1119.611
206.2002, 1123.789
206.6823, 1124.965
207.1644, 1125.909
207.6465, 1132.431
208.1287, 1145.828
208.6108, 1159.990
209.0929, 1171.867
209.5750, 1180.716
210.0571, 1192.237
210.5392, 1208.319
211.0214, 1225.544
211.5035, 1236.839
211.9856, 1241.414
212.4677, 1242.150
212.9498, 1239.676
213.4319, 1233.225
213.9140, 1226.958
214.3962, 1220.964
214.8783, 1215.102
215.3604, 1208.535
215.8425, 1199.597
216.3246, 1193.488
216.8067, 1192.601
217.2889, 1197.600
217.7710, 1205.816
218.2531, 1218.850
218.7352, 1234.177
219.2173, 1245.660
219.6994, 1251.368
220.1816, 1256.956
220.6637, 1266.429
221.1458, 1284.328
221.6279, 1292.893
222.1100, 1290.373
222.5921, 1279.119
223.0743, 1264.898
223.5564, 1248.085
224.0385, 1227.860
224.5206, 1203.167
225.0027, 1169.829
225.4848, 1142.432
225.9670, 1122.121
226.4491, 1107.793
226.9312, 1096.742
227.4133, 1090.463
227.8954, 1085.141
228.3775, 1079.130
228.8597, 1071.774
229.3418, 1064.912
229.8239, 1057.986
230.3060, 1051.642
230.7881, 1048.220
231.2702, 1049.534
231.7524, 1050.885
232.2345, 1049.885
232.7166, 1044.687
233.1987, 1041.398
233.6808, 1040.551
234.1629, 1041.491
234.6451, 1042.631
235.1272, 1044.482
235.6093, 1045.807
236.0914, 1045.996
236.5735, 1044.513
237.0556, 1043.222
237.5378, 1042.287
238.0199, 1041.545
238.5020, 1040.347
238.9841, 1037.508
239.4662, 1035.985
239.9483, 1037.391
240.4305, 1043.685
240.9126, 1048.198
241.3947, 1050.227
241.8768, 1050.678
242.3589, 1051.792
242.8410, 1053.946
243.3232, 1056.131
243.8053, 1057.824
244.2874, 1058.554
244.7695, 1059.966
245.2516, 1062.521
245.7337, 1065.582
246.2159, 1067.582
246.6980, 1067.535
247.1801, 1068.002
247.6622, 1070.224
248.1443, 1075.294
248.6264, 1079.000
249.1086, 1080.579
249.5907, 1081.210
250.0728, 1083.376
250.5549, 1087.753
251.0370, 1092.516
251.5191, 1096.855
252.0013, 1100.220
252.4834, 1105.042
252.9655, 1112.456
253.4476, 1120.574
253.9297, 1125.529
254.4118, 1125.367
254.8940, 1125.571
255.3761, 1128.365
255.8582, 1134.739
256.3403, 1139.864
256.8224, 1143.875
257.3046, 1146.563
257.7867, 1147.771
258.2688, 1148.317
258.7509, 1145.682
259.2330, 1138.172
259.7151, 1124.517
260.1973, 1113.341
260.6794, 1105.191
261.1615, 1099.235
261.6436, 1094.555
262.1257, 1091.198
262.6078, 1088.953
263.0900, 1088.215
263.5721, 1089.267
264.0542, 1088.618
264.5363, 1085.254
265.0184, 1081.362
265.5005, 1079.891
265.9827, 1081.715
266.4648, 1083.426
266.9469, 1084.116
267.4290, 1083.766
267.9111, 1082.808
268.3932, 1080.738
268.8754, 1078.841
269.3575, 1079.045
269.8396, 1082.286
270.3217, 1084.072
270.8038, 1082.474
271.2859, 1077.803
271.7681, 1076.730
272.2502, 1080.320
272.7323, 1085.305
273.2144, 1088.248
273.6965, 1088.814
274.1786, 1089.162
274.6608, 1089.290
275.1429, 1089.491
275.6250, 1092.458
276.1071, 1099.088
276.5892, 1105.915
277.0714, 1109.157
277.5535, 1108.349
278.0356, 1108.524
278.5177, 1110.833
278.9998, 1114.782
279.4819, 1118.614
279.9641, 1122.552
280.4462, 1125.643
280.9283, 1127.075
281.4104, 1126.822
281.8925, 1125.503
282.3746, 1122.566
282.8568, 1119.112
283.3389, 1118.986
283.8210, 1122.651
284.3031, 1125.991
284.7852, 1124.916
285.2673, 1119.811
285.7495, 1117.941
286.2316, 1120.848
286.7137, 1126.416
287.1958, 1130.291
287.6779, 1132.407
288.1600, 1134.426
288.6422, 1137.892
289.1243, 1142.450
289.6064, 1144.981
290.0885, 1144.674
290.5706, 1143.763
291.0527, 1146.170
291.5349, 1151.712
292.0170, 1157.597
292.4991, 1162.176
292.9812, 1165.858
293.4633, 1170.140
293.9454, 1175.343
294.4276, 1180.301
294.9097, 1183.753
295.3918, 1185.708
295.8739, 1186.045
296.3560, 1183.749
296.8381, 1179.870
297.3203, 1177.203
297.8024, 1175.960
298.2845, 1174.487
298.7666, 1170.303
299.2487, 1164.331
299.7308, 1159.300
300.2130, 1157.386
300.6951, 1156.707
301.1772, 1153.861
301.6593, 1148.879
302.1414, 1143.823
302.6235, 1140.592
303.1057, 1138.632
303.5878, 1136.842
304.0699, 1134.137
304.5520, 1131.991
305.0341, 1132.873
305.5162, 1136.421
305.9984, 1139.567
306.4805, 1139.502
306.9626, 1137.801
307.4447, 1136.650
307.9268, 1136.789
308.4089, 1137.417
308.8911, 1137.869
309.3732, 1138.198
309.8553, 1138.661
310.3374, 1138.365
310.8195, 1138.742
311.3016, 1141.734
311.7838, 1149.291
312.2659, 1156.183
312.7480, 1157.892
313.2301, 1156.162
313.7122, 1155.353
314.1943, 1158.747
314.6765, 1163.013
315.1586, 1165.934
315.6407, 1167.160
316.1228, 1167.177
316.6049, 1164.746
317.0870, 1161.428
317.5692, 1159.820
318.0513, 1162.230
318.5334, 1165.390
319.0155, 1167.891
319.4976, 1169.615
319.9797, 1170.637
320.4619, 1169.734
320.9440, 1168.544
321.4261, 1168.908
321.9082, 1172.935
322.3903, 1176.941
322.8724, 1179.341
323.3546, 1180.048
323.8367, 1182.043
324.3188, 1186.810
324.8009, 1192.620
325.2830, 1198.100
325.7651, 1202.541
326.2473, 1207.349
326.7294, 1213.651
327.2115, 1221.039
327.6936, 1226.203
328.1757, 1228.557
328.6578, 1228.897
329.1400, 1227.528
329.6221, 1220.925
330.1042, 1217.448
330.5863, 1219.146
331.0684, 1224.048
331.5505, 1226.295
332.0327, 1224.017
332.5148, 1221.263
332.9969, 1219.523
333.4790, 1219.066
333.9611, 1218.934
334.4432, 1219.275
334.9254, 1219.843
335.4075, 1220.151
335.8896, 1219.885
336.3717, 1220.008
336.8538, 1220.802
337.3359, 1222.300
337.8180, 1224.614
338.3001, 1228.565
338.7823, 1232.107
339.2644, 1232.350
339.7465, 1228.375
340.2286, 1225.279
340.7107, 1224.834
341.1928, 1226.410
341.6750, 1224.992
342.1571, 1219.617
342.6392, 1214.711
343.1213, 1215.493
343.6034, 1222.090
344.0855, 1224.104
344.5677, 1218.424
345.0498, 1208.591
345.5319, 1203.470
346.0140, 1203.185
346.4961, 1204.103
346.9782, 1204.282
347.4604, 1203.782
347.9425, 1202.250
348.4246, 1198.983
348.9067, 1196.729
349.3888, 1201.032
349.8709, 1210.694
350.3531, 1218.986
350.8352, 1221.822
351.3173, 1221.156
351.7994, 1220.456
352.2815, 1219.815
352.7636, 1219.437
353.2458, 1219.870
353.7279, 1220.706
354.2100, 1221.083
354.6921, 1221.009
355.1742, 1220.070
355.6563, 1217.560
356.1385, 1213.568
356.6206, 1209.075
357.1027, 1203.314
357.5848, 1197.957
358.0669, 1195.183
358.5490, 1197.485
359.0312, 1199.630
359.5133, 1197.677
359.9954, 1192.724
360.4775, 1188.193
360.9596, 1185.277
361.4417, 1183.634
361.9239, 1183.245
362.4060, 1184.614
362.8881, 1185.731
363.3702, 1185.679
363.8523, 1184.932
364.3344, 1184.216
364.8166, 1183.104
365.2987, 1182.628
365.7808, 1183.652
366.2629, 1186.512
366.7450, 1188.302
367.2271, 1188.310
367.7093, 1187.206
368.1914, 1185.580
368.6735, 1180.518
369.1556, 1178.270
369.6377, 1181.625
370.1198, 1189.677
370.6020, 1194.248
371.0841, 1193.155
371.5662, 1190.608
372.0483, 1188.833
372.5304, 1188.298
373.0125, 1187.606
373.4947, 1186.652
373.9768, 1185.554
374.4589, 1184.573
374.9410, 1183.721
375.4231, 1182.956
375.9052, 1182.280
376.3874, 1181.712
376.8695, 1181.045
377.3516, 1180.168
377.8337, 1179.379
378.3158, 1178.686
378.7979, 1177.896
379.2801, 1178.955
379.7622, 1183.576
380.2443, 1190.335
380.7264, 1192.430
381.2085, 1189.353
381.6906, 1185.036
382.1728, 1182.626
382.6549, 1181.862
383.1370, 1181.078
383.6191, 1179.609
384.1012, 1178.649
384.5833, 1181.574
385.0655, 1187.691
385.5476, 1191.833
386.0297, 1188.821
386.5118, 1182.393
386.9939, 1179.442
387.4760, 1180.792
387.9582, 1183.874
388.4403, 1187.338
388.9224, 1190.745
389.4045, 1193.174
389.8866, 1193.944
390.3687, 1193.822
390.8509, 1193.059
391.3330, 1191.750
391.8151, 1190.822
392.2972, 1190.687
392.7793, 1191.264
393.2614, 1192.564
393.7436, 1195.325
394.2257, 1197.728
394.7078, 1198.626
395.1899, 1198.532
395.6720, 1198.791
396.1541, 1200.011
396.6363, 1201.551
397.1184, 1203.101
397.6005, 1204.565
398.0826, 1206.275
398.5647, 1208.987
399.0468, 1211.742
399.5290, 1213.380
400.0111, 1211.710
400.4932, 1211.230
400.9753, 1213.591
401.4574, 1218.781
401.9395, 1221.335
402.4217, 1219.089
402.9038, 1216.495
403.3859, 1216.543
403.8680, 1220.096
404.3501, 1224.427
404.8322, 1230.096
405.3144, 1236.052
405.7965, 1238.849
406.2786, 1237.423
406.7607, 1236.435
407.2428, 1238.717
407.7249, 1244.452
408.2071, 1246.928
408.6892, 1245.419
409.1713, 1242.827
409.6534, 1243.513
410.1355, 1247.230
410.6176, 1248.816
411.0998, 1245.550
411.5819, 1239.971
412.0640, 1238.278
412.5461, 1240.390
413.0282, 1243.822
413.5103, 1247.462
413.9925, 1250.930
414.4746, 1253.346
414.9567, 1254.348
415.4388, 1254.923
415.9209, 1256.177
416.4030, 1257.825
416.8852, 1259.191
417.3673, 1258.750
417.8494, 1258.643
418.3315, 1260.923
418.8136, 1265.706
419.2957, 1271.044
419.7779, 1276.255
420.2600, 1281.278
420.7421, 1285.971
421.2242, 1291.037
421.7063, 1295.063
422.1884, 1297.272
422.6706, 1298.033
423.1527, 1298.810
423.6348, 1299.305
424.1169, 1300.405
424.5990, 1302.807
425.0811, 1307.838
425.5633, 1311.200
426.0454, 1311.331
426.5275, 1310.336
427.0096, 1311.017
427.4917, 1315.412
427.9738, 1318.322
428.4560, 1317.998
428.9381, 1314.652
429.4202, 1313.655
429.9023, 1316.396
430.3844, 1318.920
430.8665, 1317.705
431.3487, 1311.807
431.8308, 1308.160
432.3129, 1308.063
432.7950, 1309.544
433.2771, 1307.614
433.7592, 1302.059
434.2414, 1298.661
434.7235, 1301.059
435.2056, 1307.913
435.6877, 1314.197
436.1698, 1319.900
436.6519, 1324.794
437.1341, 1328.139
437.6162, 1330.399
438.0983, 1332.914
438.5804, 1336.264
439.0625, 1339.718
439.5446, 1341.684
440.0268, 1342.820
440.5089, 1345.509
440.9910, 1351.792
441.4731, 1359.874
441.9552, 1368.495
442.4373, 1377.533
442.9195, 1386.496
443.4016, 1395.352
443.8837, 1403.913
444.3658, 1411.949
444.8479, 1418.921
445.3300, 1425.841
445.8122, 1432.656
446.2943, 1439.474
446.7764, 1447.622
447.2585, 1458.278
447.7406, 1469.541
448.2227, 1480.636
448.7049, 1492.007
449.1870, 1502.087
449.6691, 1510.028
450.1512, 1517.058
450.6333, 1525.050
451.1154, 1534.759
451.5976, 1543.945
452.0797, 1551.926
452.5618, 1558.785
453.0439, 1564.992
453.5260, 1570.115
454.0081, 1575.553
454.4903, 1582.871
454.9724, 1591.967
455.4545, 1600.034
455.9366, 1606.653
456.4187, 1612.134
456.9008, 1617.112
457.3830, 1621.511
457.8651, 1624.248
458.3472, 1624.770
458.8293, 1623.384
459.3114, 1621.175
459.7935, 1618.142
460.2757, 1612.226
460.7578, 1600.262
461.2399, 1584.882
461.7220, 1569.599
462.2041, 1554.545
462.6862, 1540.825
463.1684, 1530.026
463.6505, 1521.043
464.1326, 1511.586
464.6147, 1500.729
465.0968, 1489.083
465.5789, 1476.629
466.0611, 1463.055
466.5432, 1451.031
467.0253, 1441.491
467.5074, 1433.589
467.9895, 1426.680
468.4716, 1422.435
468.9538, 1416.782
469.4359, 1408.638
469.9180, 1398.997
470.4001, 1390.992
470.8822, 1385.143
471.3643, 1380.185
471.8465, 1376.002
472.3286, 1372.819
472.8107, 1367.879
473.2928, 1360.635
473.7749, 1353.188
474.2570, 1348.336
474.7392, 1346.066
475.2213, 1343.286
475.7034, 1339.019
476.1855, 1334.235
476.6676, 1330.655
477.1497, 1328.274
477.6319, 1327.180
478.1140, 1328.604
478.5961, 1330.937
479.0782, 1331.226
479.5603, 1329.147
480.0424, 1326.709
480.5246, 1325.119
481.0067, 1324.301
481.4888, 1324.182
481.9709, 1325.635
482.4530, 1326.729
482.9352, 1326.092
483.4173, 1324.221
483.8994, 1322.686
484.3815, 1321.236
484.8636, 1320.882
485.3457, 1322.621
485.8279, 1327.506
486.3100, 1330.695
486.7921, 1329.846
487.2742, 1328.190
487.7563, 1328.644
488.2384, 1332.890
488.7206, 1336.362
489.2027, 1338.272
489.6848, 1339.098
490.1669, 1340.649
490.6490, 1343.323
491.1311, 1345.502
491.6133, 1345.936
492.0954, 1344.684
492.5775, 1345.207
493.0596, 1347.822
493.5417, 1350.899
494.0238, 1352.079
494.5060, 1351.974
494.9881, 1353.547
495.4702, 1357.948
495.9523, 1363.676
496.4344, 1369.365
496.9165, 1374.710
497.3987, 1378.563
497.8808, 1378.499
498.3629, 1377.739
498.8450, 1380.008
499.3271, 1385.752
499.8092, 1390.545
500.2914, 1390.880
500.7735, 1389.699
501.2556, 1389.823
501.7377, 1393.522
502.2198, 1396.661
502.7019, 1398.820
503.1841, 1399.801
503.6662, 1399.117
504.1483, 1395.749
504.6304, 1391.742
505.1125, 1387.865
505.5946, 1384.259
506.0768, 1379.004
506.5589, 1371.252
507.0410, 1363.198
507.5231, 1356.325
508.0052, 1350.536
508.4873, 1346.957
508.9695, 1346.287
509.4516, 1347.111
509.9337, 1346.788
510.4158, 1345.382
510.8979, 1344.148
511.3800, 1343.812
511.8622, 1343.943
512.3443, 1343.099
512.8264, 1341.382
513.3085, 1340.698
513.7906, 1343.748
514.2728, 1348.225
514.7549, 1351.021
515.2370, 1351.177
515.7191, 1350.741
516.2012, 1350.351
516.6833, 1350.346
517.1655, 1351.238
517.6476, 1354.176
518.1297, 1357.079
518.6118, 1359.219
519.0939, 1360.641
519.5760, 1361.998
520.0582, 1362.810
520.5403, 1364.056
521.0224, 1366.224
521.5045, 1369.742
521.9866, 1372.997
522.4688, 1376.151
522.9509, 1378.841
523.4330, 1380.564
523.9151, 1381.174
524.3972, 1381.501
524.8793, 1381.472
525.3615, 1381.464
525.8436, 1383.024
526.3257, 1386.118
526.8078, 1388.317
527.2899, 1387.327
527.7720, 1384.592
528.2542, 1383.861
528.7363, 1385.382
529.2184, 1386.404
529.7005, 1384.013
530.1826, 1379.897
530.6647, 1376.378
531.1469, 1374.575
531.6290, 1372.753
532.1111, 1369.452
532.5932, 1365.487
533.0753, 1362.525
533.5574, 1360.389
534.0396, 1359.923
534.5217, 1362.858
535.0038, 1369.539
535.4859, 1371.944
535.9680, 1366.859
536.4501, 1360.420
536.9323, 1356.098
537.4144, 1354.541
537.8965, 1353.158
538.3786, 1351.814
538.8607, 1350.768
539.3428, 1350.838
539.8250, 1352.192
540.3071, 1352.380
540.7892, 1350.259
541.2713, 1346.913
541.7534, 1344.897
542.2355, 1344.167
542.7177, 1344.196
543.1998, 1345.125
543.6819, 1346.431
544.1640, 1346.955
544.6461, 1346.534
545.1282, 1346.964
545.6104, 1350.202
546.0925, 1354.693
546.5746, 1358.714
547.0567, 1361.825
547.5388, 1364.339
548.0209, 1366.231
548.5031, 1367.566
548.9852, 1368.542
549.4673, 1367.367
549.9494, 1367.798
550.4315, 1371.489
550.9136, 1378.420
551.3958, 1383.371
551.8779, 1385.325
552.3600, 1387.032
552.8421, 1390.535
553.3242, 1396.139
553.8063, 1400.373
554.2885, 1402.664
554.7706, 1404.763
555.2527, 1408.923
555.7348, 1414.990
556.2169, 1422.149
556.6990, 1430.582
557.1812, 1439.310
557.6633, 1446.836
558.1454, 1453.388
558.6275, 1459.848
559.1096, 1465.842
559.5917, 1472.509
560.0739, 1481.010
560.5560, 1491.484
561.0381, 1502.018
561.5202, 1514.458
562.0023, 1524.950
562.4844, 1530.474
562.9666, 1527.415
563.4487, 1524.087
563.9308, 1520.641
564.4129, 1517.348
564.8950, 1514.827
565.3771, 1513.948
565.8593, 1511.684
566.3414, 1506.242
566.8235, 1499.028
567.3056, 1496.707
567.7877, 1499.781
568.2698, 1504.174
568.7520, 1507.101
569.2341, 1509.303
569.7162, 1513.981
570.1983, 1521.273
570.6804, 1529.737
571.1625, 1539.015
571.6447, 1548.249
572.1268, 1555.885
572.6089, 1561.106
573.0910, 1565.828
573.5731, 1571.150
574.0552, 1576.890
574.5374, 1582.843
575.0195, 1591.012
575.5016, 1597.262
575.9837, 1600.509
576.4658, 1600.690
576.9479, 1597.872
577.4301, 1591.171
577.9122, 1582.650
578.3943, 1572.585
578.8764, 1560.417
579.3585, 1550.279
579.8406, 1542.603
580.3228, 1535.979
580.8049, 1529.119
581.2870, 1522.048
581.7691, 1514.288
582.2512, 1504.954
582.7333, 1496.900
583.2155, 1496.139
583.6975, 1500.536
584.1796, 1503.377
584.6617, 1498.756
585.1439, 1493.188
585.6260, 1492.489
586.1081, 1496.108
586.5902, 1501.211
587.0723, 1507.964
587.5544, 1514.624
588.0366, 1520.025
588.5187, 1523.476
589.0008, 1528.069
589.4829, 1535.491
589.9650, 1543.332
590.4471, 1549.723
590.9293, 1553.776
591.4114, 1558.584
591.8935, 1564.711
592.3756, 1571.358
592.8577, 1577.703
593.3398, 1583.838
593.8220, 1587.420
594.3041, 1587.768
594.7862, 1585.011
595.2683, 1579.374
595.7504, 1570.911
596.2325, 1559.635
596.7147, 1543.852
597.1968, 1526.217
597.6789, 1509.165
598.1610, 1492.878
598.6431, 1477.745
599.1252, 1463.722
599.6074, 1451.309
600.0895, 1440.797
600.5716, 1432.157
601.0537, 1425.568
601.5358, 1421.848
602.0179, 1419.970
602.5001, 1418.868
602.9822, 1419.420
603.4643, 1418.822
603.9464, 1415.763
604.4285, 1411.541
604.9106, 1411.041
605.3928, 1414.732
605.8749, 1417.727
606.3570, 1416.332
606.8391, 1412.453
607.3212, 1412.596
607.8033, 1416.635
608.2855, 1421.986
608.7676, 1427.397
609.2497, 1432.603
609.7318, 1437.392
610.2139, 1441.984
610.6960, 1445.120
611.1782, 1443.766
611.6603, 1441.635
612.1424, 1442.671
612.6245, 1451.275
613.1066, 1458.850
613.5887, 1464.085
614.0709, 1467.649
614.5530, 1470.840
615.0351, 1473.283
615.5172, 1475.959
615.9993, 1478.707
616.4814, 1481.924
616.9636, 1488.544
617.4457, 1498.884
617.9278, 1508.846
618.4099, 1514.376
618.8920, 1517.575
619.3741, 1525.050
619.8563, 1537.159
620.3384, 1549.352
620.8205, 1557.447
621.3026, 1563.695
621.7847, 1570.817
622.2668, 1579.765
622.7490, 1588.805
623.2311, 1597.924
623.7132, 1606.514
624.1953, 1613.803
624.6774, 1620.473
625.1595, 1624.717
625.6417, 1625.493
626.1238, 1623.874
626.6059, 1623.394
627.0880, 1625.516
627.5701, 1624.229
628.0522, 1615.956
628.5344, 1602.582
629.0165, 1593.953
629.4986, 1590.162
629.9807, 1587.084
630.4628, 1581.874
630.9449, 1575.323
631.4271, 1568.709
631.9092, 1562.118
632.3913, 1555.504
632.8734, 1547.865
633.3555, 1540.656
633.8376, 1535.509
634.3198, 1534.333
634.8019, 1532.230
635.2840, 1527.103
635.7661, 1520.590
636.2482, 1514.933
636.7303, 1510.747
637.2125, 1506.540
637.6946, 1502.467
638.1767, 1498.094
638.6588, 1491.582
639.1409, 1482.392
639.6230, 1474.585
640.1052, 1470.015
640.5873, 1467.880
641.0694, 1466.441
641.5515, 1465.588
642.0336, 1463.951
642.5157, 1458.657
642.9979, 1453.131
643.4800, 1452.308
643.9621, 1456.823
644.4442, 1460.449
644.9263, 1459.534
645.4084, 1456.801
645.8906, 1454.343
646.3727, 1452.238
646.8548, 1450.786
647.3369, 1449.235
647.8190, 1448.748
648.3011, 1451.389
648.7833, 1459.010
649.2654, 1463.261
649.7475, 1462.055
650.2296, 1457.821
650.7117, 1455.055
651.1938, 1453.733
651.6760, 1453.949
652.1581, 1456.501
652.6402, 1460.024
653.1223, 1462.593
653.6044, 1464.333
654.0865, 1465.885
654.5687, 1468.612
655.0508, 1470.471
655.5329, 1469.588
656.0150, 1465.754
656.4971, 1462.619
656.9792, 1460.877
657.4614, 1460.184
657.9435, 1460.363
658.4256, 1461.505
658.9077, 1463.171
659.3898, 1465.376
659.8719, 1468.044
660.3541, 1471.772
660.8362, 1476.450
661.3183, 1478.461
661.8004, 1476.658
662.2825, 1473.922
662.7646, 1473.839
663.2468, 1475.801
663.7289, 1478.375
664.2110, 1481.566
664.6931, 1484.571
665.1752, 1487.697
665.6573, 1490.213
666.1395, 1490.439
666.6216, 1484.411
667.1037, 1479.596
667.5858, 1478.863
668.0679, 1481.682
668.5500, 1484.587
669.0322, 1487.511
669.5143, 1490.740
669.9964, 1495.052
670.4785, 1500.206
670.9606, 1501.857
671.4427, 1499.717
671.9249, 1496.777
672.4070, 1494.631
672.8891, 1493.570
673.3712, 1494.927
673.8533, 1499.082
674.3354, 1502.562
674.8176, 1502.350
675.2997, 1500.425
675.7818, 1498.762
676.2639, 1497.407
676.7460, 1497.076
677.2281, 1498.775
677.7103, 1501.261
678.1924, 1503.199
678.6745, 1505.318
679.1566, 1505.020
679.6387, 1500.860
680.1208, 1495.114
680.6030, 1493.064
681.0851, 1494.713
681.5672, 1496.115
682.0493, 1495.289
682.5314, 1493.894
683.0135, 1495.561
683.4957, 1499.425
683.9778, 1502.051
684.4599, 1500.967
684.9420, 1498.478
685.4241, 1495.707
685.9063, 1492.812
686.3884, 1490.503
686.8705, 1488.393
687.3526, 1487.537
687.8347, 1488.462
688.3168, 1491.371
688.7990, 1495.252
689.2811, 1501.105
689.7632, 1505.908
690.2453, 1506.724
690.7274, 1503.898
691.2095, 1501.443
691.6917, 1499.506
692.1738, 1498.768
692.6559, 1501.282
693.1380, 1505.159
693.6201, 1506.866
694.1022, 1504.653
694.5844, 1502.756
695.0665, 1504.208
695.5486, 1507.166
696.0307, 1509.281
696.5128, 1509.396
696.9949, 1509.391
697.4771, 1509.078
697.9592, 1508.917
698.4413, 1510.072
698.9234, 1513.046
699.4055, 1515.346
699.8876, 1516.236
700.3698, 1516.133
700.8519, 1516.036
701.3340, 1515.915
701.8161, 1515.500
702.2982, 1513.703
702.7803, 1512.200
703.2625, 1513.590
703.7446, 1517.249
704.2267, 1519.915
704.7088, 1519.670
705.1909, 1518.520
705.6730, 1517.219
706.1552, 1515.779
706.6373, 1514.849
707.1194, 1513.970
707.6015, 1514.241
708.0836, 1516.684
708.5657, 1521.429
709.0479, 1525.186
709.5300, 1527.983
710.0121, 1529.396
710.4942, 1527.664
710.9763, 1524.406
711.4584, 1523.925
711.9406, 1527.127
712.4227, 1530.109
712.9048, 1528.895
713.3869, 1526.522
713.8690, 1526.142
714.3511, 1528.768
714.8333, 1532.918
715.3154, 1542.158
715.7975, 1550.778
716.2796, 1551.995
716.7617, 1542.684
717.2438, 1535.196
717.7260, 1530.965
718.2081, 1529.377
718.6902, 1529.873
719.1723, 1532.312
719.6544, 1535.637
720.1365, 1540.187
720.6187, 1544.408
721.1008, 1546.725
721.5829, 1547.277
722.0650, 1546.465
722.5471, 1541.287
723.0292, 1537.912
723.5114, 1540.960
723.9935, 1548.525
724.4756, 1552.128
724.9577, 1548.382
725.4398, 1545.485
725.9219, 1546.130
726.4041, 1549.615
726.8862, 1551.917
727.3683, 1552.999
727.8504, 1553.694
728.3325, 1554.742
728.8146, 1555.697
729.2968, 1554.951
729.7789, 1552.793
730.2610, 1551.731
730.7431, 1554.460
731.2252, 1558.059
731.7073, 1560.192
732.1895, 1560.485
732.6716, 1561.530
733.1537, 1565.592
733.6358, 1568.801
734.1179, 1568.538
734.6000, 1563.533
735.0822, 1563.210
735.5643, 1568.980
736.0464, 1574.539
736.5285, 1572.533
737.0106, 1565.336
737.4927, 1562.495
737.9749, 1565.307
738.4570, 1569.083
738.9391, 1569.899
739.4212, 1569.330
739.9033, 1569.037
740.3854, 1569.182
740.8676, 1570.207
741.3497, 1573.179
741.8318, 1576.616
742.3139, 1579.196
742.7960, 1581.384
743.2781, 1581.018
743.7603, 1576.652
744.2424, 1571.811
744.7245, 1572.425
745.2066, 1577.752
745.6887, 1581.730
746.1708, 1582.606
746.6530, 1582.455
747.1351, 1583.317
747.6172, 1584.901
748.0993, 1586.732
748.5814, 1589.447
749.0635, 1591.426
749.5457, 1591.737
750.0278, 1591.015
750.5099, 1590.530
750.9920, 1589.810
751.4741, 1590.607
751.9562, 1594.307
752.4384, 1598.944
752.9205, 1598.277
753.4026, 1592.509
753.8847, 1588.804
754.3668, 1590.988
754.8489, 1595.565
755.3311, 1598.121
755.8132, 1598.914
756.2953, 1598.606
756.7774, 1595.939
757.2595, 1593.789
757.7416, 1593.784
758.2238, 1595.615
758.7059, 1597.232
759.1880, 1597.480
759.6701, 1599.279
760.1522, 1604.645
760.6343, 1612.253
761.1165, 1614.514
761.5986, 1611.168
762.0807, 1607.509
762.5628, 1606.373
763.0449, 1606.822
763.5270, 1607.570
764.0092, 1608.529
764.4913, 1609.292
764.9734, 1609.055
765.4555, 1609.044
765.9376, 1610.030
766.4197, 1612.065
766.9019, 1614.454
767.3840, 1617.782
767.8661, 1620.557
768.3482, 1622.021
768.8303, 1622.243
769.3124, 1622.489
769.7946, 1622.763
770.2767, 1623.044
770.7588, 1623.550
771.2409, 1623.967
771.7230, 1623.036
772.2051, 1620.868
772.6873, 1620.314
773.1694, 1625.030
773.6515, 1630.406
774.1336, 1633.227
774.6157, 1632.709
775.0978, 1632.425
775.5800, 1632.531
776.0621, 1632.846
776.5442, 1633.177
777.0263, 1633.491
777.5084, 1634.524
777.9905, 1636.317
778.4727, 1638.421
778.9548, 1640.884
779.4369, 1643.256
779.9190, 1644.833
780.4011, 1645.540
780.8832, 1645.386
781.3654, 1643.600
781.8475, 1641.526
782.3296, 1639.894
782.8117, 1638.301
783.2938, 1639.348
783.7759, 1644.840
784.2581, 1650.512
784.7402, 1652.752
785.2223, 1651.562
785.7044, 1651.214
786.1865, 1651.920
786.6686, 1653.034
787.1508, 1654.736
787.6329, 1656.125
788.1150, 1655.081
788.5971, 1650.641
789.0792, 1648.048
789.5613, 1651.391
790.0435, 1656.513
790.5256, 1660.235
791.0077, 1662.420
791.4898, 1662.609
791.9719, 1659.664
792.4540, 1656.594
792.9362, 1656.177
793.4183, 1658.269
793.9004, 1661.939
794.3825, 1667.454
794.8646, 1671.912
795.3467, 1671.600
795.8289, 1669.006
796.3110, 1667.550
796.7931, 1668.082
797.2752, 1668.653
797.7573, 1668.034
798.2394, 1667.561
798.7216, 1668.411
799.2037, 1671.348
799.6858, 1673.603
800.1679, 1675.058
800.6500, 1676.078
801.1321, 1677.431
801.6143, 1678.771
802.0964, 1677.885
802.5785, 1674.229
803.0606, 1671.093
803.5427, 1671.854
804.0248, 1674.482
804.5070, 1676.668
804.9891, 1677.546
805.4712, 1679.328
805.9533, 1684.982
806.4354, 1689.860
806.9175, 1689.957
807.3997, 1683.462
807.8818, 1680.480
808.3639, 1681.930
808.8460, 1684.505
809.3281, 1684.505
809.8102, 1682.995
810.2924, 1682.811
810.7745, 1684.451
811.2566, 1686.344
811.7387, 1687.143
812.2208, 1687.817
812.7029, 1689.338
813.1851, 1692.410
813.6672, 1694.633
814.1493, 1694.785
814.6314, 1695.375
815.1135, 1699.105
815.5956, 1706.237
816.0778, 1710.313
816.5599, 1710.892
817.0420, 1710.048
817.5241, 1708.842
818.0062, 1707.876
818.4883, 1708.432
818.9705, 1710.917
819.4526, 1712.799
819.9347, 1711.849
820.4168, 1710.594
820.8989, 1711.187
821.3810, 1714.480
821.8632, 1715.944
822.3453, 1714.683
822.8274, 1713.578
823.3095, 1715.898
823.7916, 1720.693
824.2737, 1722.054
824.7559, 1719.688
825.2380, 1717.102
825.7201, 1716.907
826.2022, 1718.060
826.6843, 1719.574
827.1664, 1721.305
827.6486, 1723.696
828.1307, 1727.301
828.6128, 1731.230
829.0949, 1735.332
829.5770, 1739.660
830.0591, 1742.779
830.5413, 1744.596
831.0234, 1745.651
831.5055, 1746.066
831.9876, 1746.085
832.4697, 1745.680
832.9518, 1744.988
833.4340, 1745.743
833.9161, 1751.192
834.3982, 1756.530
834.8803, 1758.660
835.3624, 1757.117
835.8445, 1754.782
836.3267, 1750.546
836.8088, 1747.728
837.2909, 1748.403
837.7730, 1751.957
838.2551, 1754.979
838.7372, 1757.483
839.2194, 1759.447
839.7015, 1760.555
840.1836, 1761.373
840.6657, 1762.415
841.1478, 1763.697
841.6299, 1765.064
842.1121, 1767.403
842.5942, 1768.740
843.0763, 1767.921
843.5584, 1765.491
844.0405, 1764.519
844.5226, 1765.049
845.0048, 1766.622
845.4869, 1769.832
845.9690, 1773.257
846.4511, 1773.709
846.9332, 1771.885
847.4153, 1770.109
847.8975, 1768.318
848.3796, 1768.042
848.8617, 1771.534
849.3438, 1777.254
849.8259, 1779.817
850.3080, 1777.043
850.7902, 1776.009
851.2723, 1779.067
851.7544, 1783.882
852.2365, 1784.582
852.7186, 1781.961
853.2007, 1780.742
853.6829, 1783.735
854.1650, 1786.959
854.6471, 1786.093
855.1292, 1783.255
855.6113, 1782.005
856.0934, 1784.607
856.5756, 1787.242
857.0577, 1790.174
857.5398, 1792.341
858.0219, 1791.430
858.5040, 1787.119
858.9861, 1785.558
859.4683, 1788.104
859.9504, 1792.308
860.4325, 1796.519
860.9146, 1799.864
861.3967, 1800.344
861.8788, 1796.025
862.3610, 1792.792
862.8431, 1792.839
863.3252, 1795.078
863.8073, 1798.808
864.2894, 1805.812
864.7715, 1808.401
865.2537, 1805.504
865.7358, 1801.342
866.2179, 1799.977
866.7000, 1800.696
867.1821, 1801.334
867.6642, 1801.651
868.1464, 1803.037
868.6285, 1808.465
869.1106, 1813.884
869.5927, 1815.886
870.0748, 1813.261
870.5569, 1811.656
871.0391, 1810.894
871.5212, 1811.520
872.0033, 1814.768
872.4854, 1819.979
872.9675, 1821.159
873.4496, 1818.635
873.9318, 1817.659
874.4139, 1824.799
874.8960, 1832.740
875.3781, 1834.185
875.8602, 1829.762
876.3423, 1826.370
876.8245, 1825.482
877.3066, 1826.256
877.7887, 1829.489
878.2708, 1834.091
878.7529, 1834.880
879.2350, 1831.877
879.7172, 1829.320
880.1993, 1828.684
880.6814, 1829.913
881.1635, 1834.871
881.6456, 1841.579
882.1277, 1845.394
882.6099, 1839.872
883.0920, 1836.912
883.5741, 1843.018
884.0562, 1852.099
884.5383, 1853.685
885.0204, 1846.195
885.5026, 1841.354
885.9847, 1841.534
886.4668, 1844.138
886.9489, 1846.427
887.4310, 1848.325
887.9131, 1849.246
888.3953, 1847.945
888.8774, 1848.819
889.3595, 1857.067
889.8416, 1866.359
890.3237, 1870.395
890.8058, 1866.586
891.2880, 1864.867
891.7701, 1865.653
892.2522, 1867.256
892.7343, 1868.239
893.2164, 1868.826
893.6985, 1869.220
894.1807, 1869.457
894.6628, 1871.093
895.1449, 1877.885
895.6270, 1884.153
896.1091, 1885.518
896.5912, 1881.294
897.0734, 1878.083
897.5555, 1875.684
898.0376, 1874.865
898.5197, 1876.407
899.0018, 1879.696
899.4839, 1882.692
899.9661, 1885.430
900.4482, 1888.102
900.9303, 1891.613
901.4124, 1894.398
901.8945, 1895.174
902.3766, 1894.398
902.8588, 1893.536
903.3409, 1892.256
903.8230, 1891.917
904.3051, 1892.987
904.7872, 1894.878
905.2693, 1896.513
905.7515, 1897.925
906.2336, 1899.431
906.7157, 1901.285
907.1978, 1902.731
907.6799, 1902.580
908.1620, 1901.861
908.6442, 1901.857
909.1263, 1903.490
909.6084, 1904.551
910.0905, 1904.147
910.5726, 1904.336
911.0547, 1907.869
911.5369, 1914.299
912.0190, 1918.294
912.5011, 1919.528
912.9832, 1919.196
913.4653, 1916.140
913.9474, 1913.448
914.4296, 1914.481
914.9117, 1919.681
915.3938, 1924.811
915.8759, 1929.992
916.3580, 1933.817
916.8401, 1934.941
917.3223, 1934.157
917.8044, 1936.866
918.2865, 1942.787
918.7686, 1947.908
919.2507, 1949.404
919.7328, 1949.688
920.2150, 1950.785
920.6971, 1952.553
921.1792, 1954.650
921.6613, 1957.712
922.1434, 1960.170
922.6255, 1961.656
923.1077, 1962.643
923.5898, 1963.891
924.0719, 1965.387
924.5540, 1966.697
925.0361, 1967.370
925.5182, 1969.372
926.0004, 1975.882
926.4825, 1984.256
926.9646, 1991.222
927.4467, 1995.292
927.9288, 2000.498
928.4109, 2008.901
928.8931, 2016.562
929.3752, 2020.009
929.8573, 2019.351
930.3394, 2021.859
930.8215, 2027.526
931.3036, 2032.057
931.7858, 2028.878
932.2679, 2025.592
932.7500, 2031.661
933.2321, 2045.798
933.7142, 2056.327
934.1964, 2058.472
934.6785, 2059.556
935.1606, 2061.155
935.6427, 2063.004
936.1248, 2063.710
936.6069, 2063.481
937.0891, 2065.184
937.5712, 2071.025
938.0533, 2076.742
938.5354, 2077.878
939.0175, 2076.300
939.4996, 2074.734
939.9818, 2074.731
940.4639, 2073.167
940.9460, 2069.215
941.4281, 2064.717
941.9102, 2061.838
942.3923, 2060.338
942.8745, 2057.720
943.3566, 2053.750
943.8387, 2049.931
944.3208, 2046.795
944.8029, 2044.913
945.2850, 2045.976
945.7672, 2050.239
946.2493, 2050.140
946.7314, 2041.064
947.2135, 2035.355
947.6956, 2039.143
948.1777, 2049.290
948.6599, 2054.597
949.1420, 2055.602
949.6241, 2055.034
950.1062, 2051.906
950.5883, 2050.338
951.0704, 2055.181
951.5526, 2063.160
952.0347, 2067.752
952.5168, 2065.738
952.9989, 2066.049
953.4810, 2069.823
953.9631, 2075.130
954.4453, 2079.874
954.9274, 2084.137
955.4095, 2087.888
955.8916, 2090.990
956.3737, 2095.039
956.8558, 2102.187
957.3380, 2109.801
957.8201, 2115.892
958.3022, 2120.256
958.7843, 2124.497
959.2664, 2128.155
959.7485, 2133.225
960.2307, 2141.421
960.7128, 2151.195
961.1949, 2158.284
961.6770, 2163.612
962.1591, 2170.258
962.6412, 2181.356
963.1234, 2192.283
963.6055, 2201.299
964.0876, 2209.010
964.5697, 2217.218
965.0518, 2226.995
965.5339, 2231.776
966.0161, 2230.232
966.4982, 2225.602
966.9803, 2220.788
967.4624, 2215.893
967.9445, 2211.760
968.4266, 2208.825
968.9088, 2203.370
969.3909, 2190.875
969.8730, 2178.385
970.3551, 2169.894
970.8372, 2165.173
971.3193, 2156.940
971.8015, 2145.037
972.2836, 2135.422
972.7657, 2132.789
973.2478, 2133.075
973.7299, 2132.304
974.2120, 2130.552
974.6942, 2128.016
975.1763, 2122.865
975.6584, 2119.570
976.1405, 2118.835
976.6226, 2119.981
977.1047, 2122.723
977.5869, 2126.835
978.0690, 2129.547
978.5511, 2130.439
979.0332, 2130.141
979.5153, 2126.862
979.9974, 2124.213
980.4796, 2126.437
980.9617, 2134.908
981.4438, 2140.261
981.9259, 2141.464
982.4080, 2141.198
982.8901, 2140.139
983.3723, 2138.821
983.8544, 2138.764
984.3365, 2139.911
984.8186, 2142.037
985.3007, 2144.896
985.7828, 2148.828
986.2650, 2155.279
986.7471, 2162.420
987.2292, 2167.321
987.7113, 2169.665
988.1934, 2170.261
988.6755, 2168.557
989.1577, 2167.443
989.6398, 2171.091
990.1219, 2177.141
990.6040, 2181.871
991.0861, 2184.856
991.5682, 2186.443
992.0504, 2184.876
992.5325, 2184.001
993.0146, 2185.989
993.4967, 2190.158
993.9788, 2192.382
994.4609, 2192.703
994.9431, 2194.049
995.4252, 2198.196
995.9073, 2203.116
996.3894, 2206.211
996.8715, 2208.726
997.3536, 2212.753
997.8358, 2220.863
998.3179, 2227.095
998.8000, 2229.515
999.2821, 2232.808
999.7642, 2242.575
1000.246, 2257.597
1000.728, 2270.691
1001.211, 2281.659
1001.693, 2292.122
1002.175, 2303.503
1002.657, 2314.566
1003.139, 2324.204
1003.621, 2332.620
1004.103, 2341.363
1004.585, 2351.047
1005.068, 2358.375
1005.550, 2361.689
1006.032, 2363.846
1006.514, 2368.859
1006.996, 2376.382
1007.478, 2385.938
1007.960, 2397.754
1008.442, 2410.621
1008.924, 2422.601
1009.407, 2437.222
1009.889, 2457.329
1010.371, 2482.980
1010.853, 2510.832
1011.335, 2541.230
1011.817, 2572.175
1012.299, 2601.952
1012.781, 2632.345
1013.263, 2668.638
1013.746, 2707.505
1014.228, 2737.552
1014.710, 2753.901
1015.192, 2768.198
1015.674, 2783.486
1016.156, 2794.817
1016.638, 2792.312
1017.120, 2779.817
1017.603, 2768.573
1018.085, 2760.160
1018.567, 2755.080
1019.049, 2751.041
1019.531, 2752.796
1020.013, 2764.824
1020.495, 2786.527
1020.977, 2807.508
1021.459, 2827.478
1021.942, 2848.996
1022.424, 2872.074
1022.906, 2898.770
1023.388, 2933.201
1023.870, 2973.501
1024.352, 3016.007
1024.834, 3057.134
1025.316, 3104.464
1025.799, 3159.484
1026.281, 3219.215
1026.763, 3283.565
1027.245, 3350.198
1027.727, 3412.795
1028.209, 3470.680
1028.691, 3516.881
1029.173, 3549.104
1029.656, 3565.824
1030.138, 3566.945
1030.620, 3550.825
1031.102, 3512.405
1031.584, 3448.881
1032.066, 3371.821
1032.548, 3281.065
1033.030, 3183.776
1033.512, 3087.578
1033.995, 2994.013
1034.477, 2906.995
1034.959, 2827.001
1035.441, 2756.041
1035.923, 2695.824
1036.405, 2643.495
1036.887, 2597.356
1037.369, 2557.744
1037.851, 2525.313
1038.334, 2500.065
1038.816, 2476.809
1039.298, 2450.370
1039.780, 2427.470
1040.262, 2414.148
1040.744, 2407.050
1041.226, 2399.141
1041.708, 2389.223
1042.191, 2380.501
1042.673, 2372.791
1043.155, 2367.422
1043.637, 2367.431
1044.119, 2369.919
1044.601, 2369.875
1045.083, 2366.961
1045.565, 2363.596
1046.047, 2358.604
1046.530, 2355.852
1047.012, 2357.257
1047.494, 2361.245
1047.976, 2363.865
1048.458, 2365.152
1048.940, 2364.921
1049.422, 2362.559
1049.904, 2360.552
1050.386, 2361.954
1050.869, 2363.910
1051.351, 2362.771
1051.833, 2357.232
1052.315, 2356.425
1052.797, 2361.383
1053.279, 2366.348
1053.761, 2368.584
1054.243, 2368.289
1054.726, 2363.908
1055.208, 2357.318
1055.690, 2353.508
1056.172, 2358.391
1056.654, 2360.245
1057.136, 2356.012
1057.618, 2350.217
1058.100, 2348.505
1058.583, 2350.174
1059.065, 2349.913
1059.547, 2347.414
1060.029, 2346.824
1060.511, 2352.259
1060.993, 2359.356
1061.475, 2365.967
1061.957, 2371.994
1062.439, 2377.421
1062.922, 2382.289
1063.404, 2386.477
1063.886, 2390.086
1064.368, 2392.486
1064.850, 2392.431
1065.332, 2390.918
1065.814, 2389.283
1066.296, 2387.861
1066.778, 2385.928
1067.261, 2383.522
1067.743, 2380.413
1068.225, 2376.019
1068.707, 2371.040
1069.189, 2367.831
1069.671, 2366.194
1070.153, 2365.494
1070.635, 2365.946
1071.118, 2366.654
1071.600, 2367.332
1072.082, 2368.055
1072.564, 2368.998
1073.046, 2370.216
1073.528, 2370.403
1074.010, 2369.449
1074.492, 2369.393
1074.974, 2373.551
1075.457, 2377.805
1075.939, 2377.319
1076.421, 2379.737
1076.903, 2381.027
1077.385, 2378.866
1077.867, 2381.072
1078.349, 2376.928
1078.831, 2372.285
1079.313, 2377.319
1079.796, 2386.443
1080.278, 2388.460
1080.760, 2381.412
1081.242, 2376.824
1081.724, 2379.925
1082.206, 2384.879
1082.688, 2390.761
1083.170, 2396.411
1083.652, 2396.838
1084.135, 2393.182
1084.617, 2391.394
1085.099, 2394.171
1085.581, 2397.300
1086.063, 2397.901
1086.545, 2397.947
1087.027, 2399.643
1087.509, 2403.428
1087.992, 2404.029
1088.474, 2401.158
1088.956, 2399.984
1089.438, 2405.031
1089.920, 2412.154
1090.402, 2417.384
1090.884, 2421.320
1091.366, 2425.306
1091.849, 2430.925
1092.331, 2433.108
1092.813, 2430.170
1093.295, 2427.439
1093.777, 2430.734
1094.259, 2437.859
1094.741, 2445.781
1095.223, 2453.781
1095.705, 2458.621
1096.188, 2456.123
1096.670, 2453.810
1097.152, 2453.592
1097.634, 2454.726
1098.116, 2455.914
1098.598, 2457.263
1099.080, 2458.869
1099.562, 2460.685
1100.044, 2463.999
1100.527, 2473.057
1101.009, 2480.830
1101.491, 2481.657
1101.973, 2476.860
1102.455, 2473.745
1102.937, 2472.278
1103.419, 2472.413
1103.901, 2474.596
1104.384, 2477.119
1104.866, 2478.332
1105.348, 2478.741
1105.830, 2478.946
1106.312, 2479.039
1106.794, 2478.485
1107.276, 2476.844
1107.758, 2476.046
1108.240, 2477.364
1108.723, 2480.062
1109.205, 2483.510
1109.687, 2487.276
1110.169, 2490.378
1110.651, 2490.828
1111.133, 2493.491
1111.615, 2500.283
1112.097, 2506.812
1112.579, 2507.473
1113.062, 2504.633
1113.544, 2507.550
1114.026, 2515.789
1114.508, 2524.478
1114.990, 2531.726
1115.472, 2538.228
1115.954, 2543.164
1116.436, 2548.175
1116.919, 2556.424
1117.401, 2567.643
1117.883, 2575.698
1118.365, 2579.733
1118.847, 2585.437
1119.329, 2598.124
1119.811, 2612.994
1120.293, 2626.520
1120.776, 2639.302
1121.258, 2654.277
1121.740, 2671.511
1122.222, 2690.534
1122.704, 2711.806
1123.186, 2732.698
1123.668, 2751.695
1124.150, 2768.626
1124.632, 2783.778
1125.115, 2797.194
1125.597, 2806.448
1126.079, 2811.564
1126.561, 2812.470
1127.043, 2808.571
1127.525, 2801.372
1128.007, 2793.427
1128.489, 2783.970
1128.971, 2770.733
1129.454, 2749.122
1129.936, 2736.149
1130.418, 2737.155
1130.900, 2738.922
1131.382, 2732.861
1131.864, 2721.958
1132.346, 2715.525
1132.828, 2711.844
1133.311, 2705.501
1133.793, 2691.639
1134.275, 2678.392
1134.757, 2667.018
1135.239, 2657.220
1135.721, 2649.181
1136.203, 2642.719
1136.685, 2635.851
1137.167, 2628.565
1137.650, 2621.348
1138.132, 2611.849
1138.614, 2605.468
1139.096, 2607.399
1139.578, 2612.506
1140.060, 2613.749
1140.542, 2611.086
1141.024, 2608.550
1141.506, 2606.444
1141.989, 2606.199
1142.471, 2610.739
1142.953, 2615.812
1143.435, 2618.193
1143.917, 2618.616
1144.399, 2619.835
1144.881, 2621.805
1145.363, 2625.105
1145.846, 2629.922
1146.328, 2635.259
1146.810, 2642.593
1147.292, 2648.058
1147.774, 2645.525
1148.256, 2635.175
1148.738, 2633.099
1149.220, 2641.816
1149.703, 2649.836
1150.185, 2654.202
1150.667, 2656.075
1151.149, 2655.831
1151.631, 2654.648
1152.113, 2654.000
1152.595, 2654.082
1153.077, 2655.151
1153.559, 2657.406
1154.042, 2660.011
1154.524, 2662.946
1155.006, 2665.528
1155.488, 2666.075
1155.970, 2665.438
1156.452, 2665.409
1156.934, 2667.063
1157.416, 2667.188
1157.898, 2664.688
1158.381, 2662.127
1158.863, 2660.617
1159.345, 2660.280
1159.827, 2661.311
1160.309, 2663.824
1160.791, 2668.339
1161.273, 2678.124
1161.755, 2684.293
1162.238, 2683.249
1162.720, 2680.900
1163.202, 2681.771
1163.684, 2685.114
1164.166, 2687.344
1164.648, 2688.401
1165.130, 2687.898
1165.612, 2683.255
1166.094, 2680.026
1166.577, 2679.985
1167.059, 2681.930
1167.541, 2685.907
1168.023, 2691.312
1168.505, 2691.613
1168.987, 2687.269
1169.469, 2684.232
1169.951, 2687.926
1170.433, 2691.392
1170.916, 2690.985
1171.398, 2688.889
1171.880, 2687.563
1172.362, 2687.037
1172.844, 2688.109
1173.326, 2690.807
1173.808, 2692.814
1174.290, 2690.989
1174.773, 2689.642
1175.255, 2691.994
1175.737, 2696.407
1176.219, 2700.156
1176.701, 2703.294
1177.183, 2704.487
1177.665, 2703.487
1178.147, 2702.216
1178.630, 2702.489
1179.112, 2702.755
1179.594, 2701.093
1180.076, 2698.555
1180.558, 2698.512
1181.040, 2700.995
1181.522, 2705.869
1182.004, 2713.648
1182.486, 2719.825
1182.969, 2718.327
1183.451, 2715.163
1183.933, 2715.337
1184.415, 2718.554
1184.897, 2721.598
1185.379, 2724.569
1185.861, 2726.122
1186.343, 2725.613
1186.825, 2724.853
1187.308, 2725.449
1187.790, 2726.823
1188.272, 2729.077
1188.754, 2732.078
1189.236, 2732.150
1189.718, 2728.948
1190.200, 2726.404
1190.682, 2725.606
1191.165, 2726.526
1191.647, 2730.258
1192.129, 2734.966
1192.611, 2738.278
1193.093, 2739.742
1193.575, 2744.254
1194.057, 2752.433
1194.539, 2758.900
1195.021, 2761.100
1195.504, 2761.611
1195.986, 2763.389
1196.468, 2765.153
1196.950, 2765.022
1197.432, 2762.479
1197.914, 2759.812
1198.396, 2756.555
1198.878, 2756.498
1199.360, 2763.323
1199.843, 2771.318
1200.325, 2773.637
1200.807, 2772.871
1201.289, 2772.323
1201.771, 2772.056
1202.253, 2774.491
1202.735, 2780.360
1203.217, 2784.355
1203.700, 2781.814
1204.182, 2777.953
1204.664, 2778.844
1205.146, 2782.509
1205.628, 2785.888
1206.110, 2788.792
1206.592, 2790.516
1207.074, 2790.782
1207.557, 2791.502
1208.039, 2794.114
1208.521, 2797.531
1209.003, 2801.112
1209.485, 2804.466
1209.967, 2806.561
1210.449, 2805.725
1210.931, 2809.117
1211.413, 2817.608
1211.896, 2824.985
1212.378, 2826.094
1212.860, 2824.715
1213.342, 2824.042
1213.824, 2824.094
1214.306, 2824.953
1214.788, 2826.760
1215.270, 2829.302
1215.752, 2832.924
1216.235, 2834.478
1216.717, 2828.910
1217.199, 2822.526
1217.681, 2821.940
1218.163, 2825.362
1218.645, 2828.550
1219.127, 2830.962
1219.609, 2834.563
1220.092, 2839.682
1220.574, 2843.931
1221.056, 2845.485
1221.538, 2845.265
1222.020, 2843.042
1222.502, 2839.935
1222.984, 2838.028
1223.466, 2836.878
1223.948, 2840.093
1224.431, 2848.237
1224.913, 2856.008
1225.395, 2859.996
1225.877, 2861.014
1226.359, 2857.222
1226.841, 2851.631
1227.323, 2851.427
1227.805, 2857.503
1228.287, 2863.244
1228.770, 2868.204
1229.252, 2872.392
1229.734, 2875.185
1230.216, 2877.734
1230.698, 2881.492
1231.180, 2885.396
1231.662, 2886.923
1232.144, 2885.865
1232.627, 2884.645
1233.109, 2883.405
1233.591, 2883.987
1234.073, 2889.587
1234.555, 2895.645
1235.037, 2899.963
1235.519, 2902.337
1236.001, 2901.254
1236.484, 2896.743
1236.966, 2898.365
1237.448, 2906.938
1237.930, 2913.640
1238.412, 2909.171
1238.894, 2904.669
1239.376, 2907.336
1239.858, 2913.561
1240.340, 2918.458
1240.823, 2921.847
1241.305, 2921.422
1241.787, 2917.150
1242.269, 2914.697
1242.751, 2918.797
1243.233, 2924.309
1243.715, 2930.274
1244.197, 2935.169
1244.679, 2935.832
1245.162, 2933.144
1245.644, 2930.688
1246.126, 2929.008
1246.608, 2931.118
1247.090, 2944.560
1247.572, 2954.087
1248.054, 2953.015
1248.536, 2948.531
1249.019, 2953.449
1249.501, 2963.789
1249.983, 2964.899
1250.465, 2956.549
1250.947, 2952.290
1251.429, 2961.294
1251.911, 2970.790
1252.393, 2979.009
1252.875, 2984.926
1253.358, 2986.347
1253.840, 2984.731
1254.322, 2982.771
1254.804, 2980.874
1255.286, 2980.204
1255.768, 2981.034
1256.250, 2983.716
1256.732, 2989.235
1257.214, 2994.360
1257.697, 2993.810
1258.179, 2990.988
1258.661, 2991.016
1259.143, 2994.057
1259.625, 2998.917
1260.107, 3007.117
1260.589, 3012.296
1261.071, 3013.287
1261.554, 3012.238
1262.036, 3009.851
1262.518, 3007.855
1263.000, 3009.120
1263.482, 3008.161
1263.964, 3008.189
1264.446, 3010.462
1264.928, 3010.212
1265.411, 3014.032
1265.893, 3019.101
1266.375, 3023.741
1266.857, 3027.761
1267.339, 3031.123
1267.821, 3033.623
1268.303, 3034.205
1268.785, 3032.438
1269.267, 3035.556
1269.750, 3044.537
1270.232, 3051.175
1270.714, 3045.652
1271.196, 3039.686
1271.678, 3041.479
1272.160, 3047.562
1272.642, 3053.890
1273.124, 3060.120
1273.606, 3060.211
1274.089, 3054.124
1274.571, 3049.291
1275.053, 3051.319
1275.535, 3054.188
1276.017, 3056.385
1276.499, 3057.442
1276.981, 3055.370
1277.463, 3051.658
1277.946, 3052.480
1278.428, 3057.719
1278.910, 3063.652
1279.392, 3071.567
1279.874, 3074.946
1280.356, 3070.425
1280.838, 3065.745
1281.320, 3072.887
1281.802, 3084.557
1282.285, 3082.413
1282.767, 3069.844
1283.249, 3065.052
1283.731, 3079.229
1284.213, 3088.407
1284.695, 3090.052
1285.177, 3089.324
1285.659, 3090.801
1286.141, 3092.806
1286.624, 3092.573
1287.106, 3091.176
1287.588, 3091.964
1288.070, 3095.868
1288.552, 3098.740
1289.034, 3100.300
1289.516, 3101.714
1289.998, 3103.415
1290.481, 3105.771
1290.963, 3109.366
1291.445, 3113.680
1291.927, 3117.796
1292.409, 3121.653
1292.891, 3126.369
1293.373, 3131.809
1293.855, 3135.512
1294.338, 3134.294
1294.820, 3133.008
1295.302, 3133.926
1295.784, 3135.891
1296.266, 3138.002
1296.748, 3140.365
1297.230, 3143.064
1297.712, 3146.523
1298.194, 3151.941
1298.677, 3163.058
1299.159, 3169.198
1299.641, 3166.623
1300.123, 3163.378
1300.605, 3165.834
1301.087, 3171.638
1301.569, 3175.647
1302.051, 3177.603
1302.533, 3177.337
1303.016, 3172.208
##END=



