##NAMES=Penikisite
##RRUFFID=R060160
##IDEAL CHEMISTRY=BaMg_2_Al_2_(PO_4_)_3_(OH)_3_
##LOCALITY=16 miles north of the Hess River, Mayo Mining District, Yukon Territory, Canada
##OWNER=RRUFF
##SOURCE=Mark Mauthner
##DESCRIPTION=Aggregate of green crystals in quartz associated with purple gorceixite, R060158. Crystal used in the Bowman et al (2013) study.
##STATUS=The identification of this mineral is confirmed by single-crystal X-ray diffraction and chemical analysis.
##URL=rruff.info/R060160
##MEASURED CHEMISTRY=Ba_1.00_(Mg_1.97_Mn_0.03_)_Î£=2_Al_2.00_(P_1.00_O_4_)_3_(OH)_3_
90.26367, 13.15995
90.74579, 13.22214
91.22791, 13.22796
91.71002, 13.17764
92.19214, 13.06909
92.67426, 12.70236
93.15637, 12.24903
93.63850, 12.20045
94.12061, 13.12020
94.60273, 14.44847
95.08485, 14.63447
95.56696, 13.52658
96.04908, 12.28988
96.53120, 12.67370
97.01331, 14.57095
97.49543, 15.94850
97.97755, 15.56955
98.45966, 13.55891
98.94178, 12.22029
99.42390, 11.66290
99.90602, 11.64706
100.3881, 11.77996
100.8703, 12.11123
101.3524, 12.41798
101.8345, 12.55734
102.3166, 12.46247
102.7987, 12.50953
103.2808, 12.83780
103.7630, 13.32338
104.2451, 13.36950
104.7272, 12.73140
105.2093, 11.97765
105.6914, 11.41125
106.1735, 10.77023
106.6557, 10.78469
107.1378, 11.66734
107.6199, 13.45000
108.1020, 15.36142
108.5841, 18.54358
109.0662, 21.26310
109.5484, 22.00775
110.0305, 18.31256
110.5126, 15.09993
110.9947, 13.32263
111.4768, 13.26079
111.9590, 13.31433
112.4411, 13.39507
112.9232, 13.50146
113.4053, 13.62902
113.8874, 13.71719
114.3695, 13.87528
114.8517, 14.16896
115.3338, 14.67633
115.8159, 15.13655
116.2980, 15.28901
116.7801, 15.33616
117.2622, 15.71277
117.7444, 16.76980
118.2265, 18.10035
118.7086, 19.43371
119.1907, 20.70402
119.6728, 22.00478
120.1549, 23.26628
120.6371, 24.55756
121.1192, 26.16581
121.6013, 28.35677
122.0834, 30.90458
122.5655, 33.53531
123.0477, 35.95558
123.5298, 38.61024
124.0119, 42.08192
124.4940, 46.31923
124.9761, 50.61463
125.4582, 54.34314
125.9404, 57.70069
126.4225, 61.03881
126.9046, 64.71420
127.3867, 68.38649
127.8688, 71.43236
128.3509, 73.81231
128.8331, 75.95003
129.3152, 78.00687
129.7973, 80.10513
130.2794, 82.78968
130.7615, 86.65228
131.2436, 91.35338
131.7258, 95.65739
132.2079, 99.45936
132.6900, 103.0367
133.1721, 106.8589
133.6542, 110.9134
134.1364, 114.8752
134.6185, 118.4414
135.1006, 121.6577
135.5827, 125.2374
136.0648, 129.1885
136.5469, 133.6091
137.0291, 138.8052
137.5112, 144.8186
137.9933, 151.3058
138.4754, 158.2845
138.9575, 165.8119
139.4396, 173.0680
139.9218, 179.7645
140.4039, 186.0880
140.8860, 192.8031
141.3681, 199.8244
141.8502, 207.3218
142.3323, 215.3491
142.8145, 224.3461
143.2966, 233.1833
143.7787, 242.5722
144.2608, 252.4983
144.7429, 257.6352
145.2251, 257.9172
145.7072, 253.4969
146.1893, 244.0960
146.6714, 226.1667
147.1535, 208.5389
147.6356, 192.4590
148.1178, 177.7744
148.5999, 165.9645
149.0820, 157.5818
149.5641, 151.9032
150.0462, 148.2045
150.5283, 147.6423
151.0105, 147.9501
151.4926, 147.3444
151.9747, 146.9149
152.4568, 147.1254
152.9389, 148.7154
153.4210, 150.7606
153.9032, 151.9872
154.3853, 151.5726
154.8674, 150.9490
155.3495, 150.4710
155.8316, 149.9299
156.3138, 150.0497
156.7959, 151.1454
157.2780, 152.9388
157.7601, 154.9064
158.2422, 156.7868
158.7243, 158.9288
159.2065, 161.5666
159.6886, 165.0502
160.1707, 168.4579
160.6528, 171.9026
161.1349, 175.1293
161.6170, 177.4477
162.0992, 178.8109
162.5813, 179.0933
163.0634, 178.1596
163.5455, 175.4836
164.0276, 172.2939
164.5097, 168.7571
164.9919, 165.0369
165.4740, 161.7819
165.9561, 159.4448
166.4382, 157.6528
166.9203, 156.0229
167.4025, 154.1207
167.8846, 152.6830
168.3667, 152.3636
168.8488, 153.0249
169.3309, 153.7934
169.8130, 154.3586
170.2952, 154.6682
170.7773, 154.6500
171.2594, 154.1741
171.7415, 153.4469
172.2236, 152.6824
172.7057, 151.8661
173.1879, 150.7812
173.6700, 148.9945
174.1521, 146.8564
174.6342, 144.9555
175.1163, 143.4939
175.5984, 142.3643
176.0806, 141.4762
176.5627, 140.8220
177.0448, 140.3798
177.5269, 139.9866
178.0090, 139.7774
178.4911, 140.0690
178.9733, 141.3968
179.4554, 143.1789
179.9375, 144.3728
180.4196, 144.8900
180.9017, 145.4827
181.3839, 147.3621
181.8660, 150.0961
182.3481, 152.2085
182.8302, 152.9220
183.3123, 152.5378
183.7944, 151.6299
184.2766, 150.1618
184.7587, 148.4372
185.2408, 146.6392
185.7229, 144.8257
186.2050, 143.2463
186.6871, 142.1882
187.1693, 141.4902
187.6514, 140.5384
188.1335, 139.1937
188.6156, 137.9180
189.0977, 137.4295
189.5798, 137.6992
190.0620, 138.1456
190.5441, 138.4301
191.0262, 138.6070
191.5083, 139.0640
191.9904, 139.8685
192.4725, 140.8613
192.9547, 141.7517
193.4368, 142.5412
193.9189, 143.4369
194.4010, 144.6204
194.8831, 146.0699
195.3652, 147.3993
195.8474, 148.5369
196.3295, 149.6217
196.8116, 150.8677
197.2937, 152.2542
197.7758, 153.9309
198.2579, 155.9220
198.7401, 158.2221
199.2222, 161.0605
199.7043, 164.5175
200.1864, 168.3857
200.6685, 172.3719
201.1507, 176.5482
201.6328, 180.3936
202.1149, 183.5010
202.5970, 185.8001
203.0791, 188.0556
203.5612, 190.2320
204.0434, 192.4490
204.5255, 195.0234
205.0076, 197.9957
205.4897, 201.1860
205.9718, 204.4285
206.4539, 207.6584
206.9361, 211.3858
207.4182, 215.8455
207.9003, 220.7383
208.3824, 225.4242
208.8645, 230.1795
209.3466, 234.0439
209.8288, 236.3223
210.3109, 236.7198
210.7930, 236.8560
211.2751, 236.9635
211.7572, 236.8887
212.2393, 235.8489
212.7215, 233.3483
213.2036, 230.9912
213.6857, 229.6010
214.1678, 228.9688
214.6499, 230.1207
215.1321, 233.6186
215.6142, 238.9451
216.0963, 243.8009
216.5784, 248.0587
217.0605, 252.0536
217.5426, 256.2195
218.0248, 261.1059
218.5069, 264.5582
218.9890, 266.9218
219.4711, 267.7195
219.9532, 264.5394
220.4353, 256.2675
220.9175, 245.8350
221.3996, 234.5508
221.8817, 221.6649
222.3638, 210.1412
222.8459, 200.4480
223.3280, 192.3166
223.8102, 185.1294
224.2923, 178.8437
224.7744, 173.3609
225.2565, 168.7153
225.7386, 165.1133
226.2208, 161.8677
226.7029, 158.9874
227.1850, 156.4262
227.6671, 154.0870
228.1492, 151.9668
228.6313, 150.0710
229.1135, 148.3937
229.5956, 146.8571
230.0777, 145.6911
230.5598, 144.9807
231.0419, 144.6612
231.5240, 144.3782
232.0062, 144.0297
232.4883, 143.8586
232.9704, 144.0825
233.4525, 145.0637
233.9346, 145.6037
234.4167, 145.2948
234.8989, 144.4350
235.3810, 144.4674
235.8631, 145.8144
236.3452, 147.5000
236.8273, 148.9965
237.3095, 150.2297
237.7916, 151.4279
238.2737, 152.6483
238.7558, 153.8479
239.2379, 154.8672
239.7200, 155.6488
240.2022, 156.3251
240.6843, 156.9285
241.1664, 157.2678
241.6485, 157.9821
242.1306, 159.3144
242.6127, 161.0470
243.0949, 162.2297
243.5770, 162.3511
244.0591, 162.6426
244.5412, 163.8238
245.0233, 166.5535
245.5054, 168.6872
245.9876, 169.8512
246.4697, 170.4129
246.9518, 171.5982
247.4339, 173.7032
247.9160, 175.9983
248.3981, 178.0722
248.8803, 179.6653
249.3624, 181.6939
249.8445, 184.2821
250.3266, 187.2843
250.8087, 190.3288
251.2909, 193.3824
251.7730, 196.4826
252.2551, 199.6451
252.7372, 203.0247
253.2193, 206.1696
253.7014, 209.2629
254.1836, 212.0176
254.6657, 213.8561
255.1478, 215.1371
255.6299, 214.8663
256.1120, 212.4254
256.5941, 207.1902
257.0763, 201.7385
257.5584, 195.7353
258.0405, 189.6687
258.5226, 184.6611
259.0047, 181.0276
259.4868, 177.7106
259.9690, 174.2356
260.4511, 170.3745
260.9332, 167.4425
261.4153, 165.6102
261.8974, 164.5205
262.3795, 163.6887
262.8617, 163.2857
263.3438, 162.6977
263.8259, 161.5400
264.3080, 159.6294
264.7901, 158.5353
265.2722, 158.4202
265.7544, 158.9227
266.2365, 159.6312
266.7186, 160.6794
267.2007, 161.5085
267.6829, 161.8480
268.1650, 161.6591
268.6471, 161.7497
269.1292, 162.1540
269.6113, 162.7856
270.0934, 163.5775
270.5756, 164.5871
271.0577, 165.5634
271.5398, 166.4028
272.0219, 167.1202
272.5040, 168.0007
272.9861, 169.0738
273.4683, 170.2213
273.9504, 171.3105
274.4325, 172.3080
274.9146, 173.4295
275.3967, 174.8562
275.8788, 176.4983
276.3610, 177.4324
276.8431, 177.4767
277.3252, 177.3411
277.8073, 177.8023
278.2894, 178.9471
278.7715, 179.6927
279.2537, 179.7776
279.7358, 179.3168
280.2179, 178.6817
280.7000, 177.7973
281.1821, 177.0779
281.6642, 176.9074
282.1464, 177.2887
282.6285, 177.7554
283.1106, 178.2805
283.5927, 178.8033
284.0748, 179.1220
284.5569, 179.2154
285.0391, 179.2906
285.5212, 179.3542
286.0033, 179.4416
286.4854, 180.0612
286.9675, 181.4016
287.4496, 183.1050
287.9318, 184.4487
288.4139, 185.4369
288.8960, 186.3865
289.3781, 187.5830
289.8602, 188.9503
290.3424, 190.0862
290.8245, 190.9309
291.3066, 191.6109
291.7887, 192.3715
292.2708, 193.1889
292.7530, 193.7873
293.2351, 194.0270
293.7172, 193.9313
294.1993, 193.5146
294.6814, 192.7458
295.1635, 191.8067
295.6457, 190.9811
296.1278, 190.2073
296.6099, 189.2272
297.0920, 187.7313
297.5741, 186.0014
298.0562, 184.6078
298.5384, 183.5792
299.0205, 182.7635
299.5026, 181.9248
299.9847, 181.1782
300.4668, 180.8150
300.9489, 181.2885
301.4311, 182.0460
301.9132, 182.2007
302.3953, 181.7811
302.8774, 181.4265
303.3595, 181.5221
303.8416, 182.0523
304.3238, 183.0471
304.8059, 184.9270
305.2880, 186.8504
305.7701, 187.6652
306.2522, 187.5687
306.7343, 187.7155
307.2165, 189.0411
307.6986, 190.9997
308.1807, 192.8879
308.6628, 194.4381
309.1449, 196.0705
309.6270, 198.2970
310.1092, 200.9451
310.5913, 203.3940
311.0734, 205.2471
311.5555, 206.7880
312.0376, 208.2521
312.5197, 209.7332
313.0019, 211.0029
313.4840, 211.7837
313.9661, 212.2810
314.4482, 212.9223
314.9304, 213.8119
315.4125, 214.9607
315.8946, 216.4793
316.3767, 218.4958
316.8588, 220.3285
317.3409, 221.3559
317.8231, 222.1404
318.3052, 223.4171
318.7873, 225.7250
319.2694, 228.3136
319.7515, 230.8064
320.2336, 233.1492
320.7158, 235.9190
321.1979, 239.4968
321.6800, 243.4465
322.1621, 247.3618
322.6442, 251.3047
323.1263, 255.0562
323.6085, 258.5206
324.0906, 261.7104
324.5727, 264.8510
325.0548, 268.3798
325.5369, 271.5802
326.0190, 274.0096
326.5012, 276.0463
326.9833, 276.8384
327.4654, 275.9775
327.9475, 273.7253
328.4296, 271.1356
328.9117, 268.1187
329.3939, 264.8447
329.8760, 261.3391
330.3581, 257.4566
330.8402, 253.5623
331.3223, 249.3418
331.8044, 245.1663
332.2866, 241.7749
332.7687, 239.2900
333.2508, 237.4631
333.7329, 236.3895
334.2150, 236.3451
334.6971, 235.6602
335.1793, 234.1055
335.6614, 232.1241
336.1435, 230.2647
336.6256, 228.4773
337.1077, 226.9378
337.5899, 225.8501
338.0720, 225.1635
338.5541, 224.0349
339.0362, 222.3856
339.5183, 220.4705
340.0005, 218.3938
340.4826, 216.0441
340.9647, 214.2421
341.4468, 213.2460
341.9289, 212.8296
342.4110, 212.1599
342.8932, 211.1634
343.3753, 210.4137
343.8574, 210.4400
344.3395, 211.1867
344.8216, 211.8078
345.3037, 212.1711
345.7859, 212.4606
346.2680, 213.1044
346.7501, 214.0728
347.2322, 214.8357
347.7143, 214.7654
348.1964, 214.2456
348.6786, 214.7366
349.1607, 216.4569
349.6428, 218.2380
350.1249, 218.8031
350.6070, 218.3647
351.0891, 217.5842
351.5713, 216.6883
352.0534, 215.6389
352.5355, 214.3049
353.0176, 212.7114
353.4997, 211.0465
353.9818, 209.5078
354.4640, 207.9954
354.9461, 206.3159
355.4282, 204.3254
355.9103, 202.2882
356.3924, 200.2850
356.8745, 198.3784
357.3567, 196.8572
357.8388, 196.1508
358.3209, 195.7362
358.8030, 195.0929
359.2851, 193.9683
359.7672, 193.0654
360.2494, 193.0051
360.7315, 193.4095
361.2136, 193.5823
361.6957, 192.9180
362.1779, 192.2369
362.6600, 191.9576
363.1421, 192.1485
363.6242, 192.4628
364.1063, 192.8416
364.5884, 193.2739
365.0706, 193.7451
365.5527, 194.3729
366.0348, 194.9082
366.5169, 195.2128
366.9990, 195.3068
367.4811, 195.5536
367.9633, 196.3470
368.4454, 197.0553
368.9275, 197.3032
369.4096, 196.4884
369.8917, 196.0470
370.3738, 196.2327
370.8560, 196.7998
371.3381, 197.0645
371.8202, 196.9462
372.3023, 196.6389
372.7844, 196.2094
373.2665, 195.6594
373.7487, 194.9615
374.2308, 193.9694
374.7129, 192.9786
375.1950, 192.3845
375.6771, 192.2549
376.1592, 192.3161
376.6414, 192.5402
377.1235, 192.9105
377.6056, 193.2867
378.0877, 193.7047
378.5698, 194.0275
379.0519, 194.1064
379.5341, 193.9404
380.0162, 193.7308
380.4983, 193.4437
380.9804, 193.2142
381.4625, 193.5182
381.9446, 194.3443
382.4268, 194.9704
382.9089, 194.6581
383.3910, 193.7689
383.8731, 193.5748
384.3553, 194.2729
384.8374, 195.1884
385.3195, 195.4774
385.8016, 195.3244
386.2837, 195.2807
386.7658, 195.6019
387.2480, 196.1590
387.7301, 196.9081
388.2122, 197.8311
388.6943, 198.6145
389.1764, 198.7306
389.6585, 198.6625
390.1407, 199.0714
390.6228, 200.5376
391.1049, 201.9537
391.5870, 202.3646
392.0691, 202.0841
392.5512, 202.0581
393.0334, 202.9636
393.5155, 204.0931
393.9976, 204.9780
394.4797, 205.4700
394.9618, 206.0082
395.4439, 206.8698
395.9261, 207.8200
396.4082, 208.5436
396.8903, 208.4313
397.3724, 208.6351
397.8545, 209.6868
398.3366, 211.6400
398.8188, 213.1863
399.3009, 213.8151
399.7830, 214.2903
400.2651, 215.1011
400.7472, 216.6236
401.2293, 217.9164
401.7115, 218.8766
402.1936, 219.5867
402.6757, 220.2980
403.1578, 221.0424
403.6399, 221.7334
404.1220, 222.3326
404.6042, 222.8426
405.0863, 223.2336
405.5684, 223.4381
406.0505, 223.6232
406.5326, 224.1018
407.0147, 224.9533
407.4969, 225.4837
407.9790, 225.4000
408.4611, 224.8828
408.9432, 224.6434
409.4254, 224.6970
409.9075, 224.9053
410.3896, 225.0779
410.8717, 225.2901
411.3538, 225.9370
411.8359, 227.1610
412.3181, 228.6049
412.8002, 229.7432
413.2823, 230.6386
413.7644, 231.6283
414.2465, 232.9099
414.7286, 234.3702
415.2108, 235.9514
415.6929, 237.6418
416.1750, 239.2378
416.6571, 240.3691
417.1392, 241.3590
417.6213, 242.6994
418.1035, 244.8816
418.5856, 247.0875
419.0677, 248.6728
419.5498, 249.8354
420.0319, 251.2523
420.5140, 253.4316
420.9962, 255.8056
421.4783, 258.0496
421.9604, 260.0930
422.4425, 262.0594
422.9246, 264.3202
423.4067, 266.4017
423.8889, 267.6808
424.3710, 267.5572
424.8531, 267.1494
425.3352, 266.6229
425.8173, 265.9795
426.2994, 265.3715
426.7816, 265.1064
427.2637, 264.5684
427.7458, 263.2717
428.2279, 260.7155
428.7100, 258.5561
429.1921, 256.8843
429.6743, 255.6865
430.1564, 255.1313
430.6385, 255.4119
431.1206, 255.5826
431.6028, 255.1262
432.0849, 254.0827
432.5670, 253.4781
433.0491, 253.3265
433.5312, 253.5576
434.0133, 254.1635
434.4955, 255.1162
434.9776, 256.2029
435.4597, 257.3062
435.9418, 258.5998
436.4239, 260.4522
436.9060, 262.7937
437.3882, 265.2786
437.8703, 267.5768
438.3524, 269.9163
438.8345, 272.5760
439.3166, 275.5654
439.7987, 278.9988
440.2809, 283.2716
440.7630, 288.0060
441.2451, 292.5685
441.7272, 296.5033
442.2093, 300.3756
442.6914, 304.5758
443.1736, 309.0298
443.6557, 313.2313
444.1378, 316.4893
444.6199, 319.8002
445.1020, 323.8444
445.5841, 329.3004
446.0663, 334.3372
446.5484, 338.4148
447.0305, 341.9938
447.5126, 345.8543
447.9947, 349.9901
448.4768, 354.3860
448.9590, 359.2069
449.4411, 364.4483
449.9232, 369.1534
450.4053, 373.0504
450.8874, 376.8596
451.3695, 381.0976
451.8517, 385.9015
452.3338, 390.7078
452.8159, 395.6612
453.2980, 400.2924
453.7801, 403.5874
454.2622, 405.4574
454.7444, 406.8828
455.2265, 408.3452
455.7086, 409.7245
456.1907, 410.4934
456.6729, 410.6640
457.1550, 410.1761
457.6371, 409.1261
458.1192, 407.3848
458.6013, 404.5428
459.0834, 400.3635
459.5656, 395.3535
460.0477, 389.6250
460.5298, 383.4245
461.0119, 377.7820
461.4940, 373.2553
461.9761, 369.3330
462.4583, 365.5802
462.9404, 361.9057
463.4225, 358.7125
463.9046, 356.4555
464.3867, 354.6196
464.8688, 352.7721
465.3510, 351.2895
465.8331, 349.2328
466.3152, 346.3095
466.7973, 342.6523
467.2794, 338.7514
467.7615, 334.6245
468.2437, 330.2182
468.7258, 325.4629
469.2079, 320.3758
469.6900, 315.0701
470.1721, 309.2174
470.6542, 303.5493
471.1364, 298.8914
471.6185, 295.4341
472.1006, 292.2539
472.5827, 289.2627
473.0648, 286.3993
473.5469, 283.3687
474.0291, 280.1289
474.5112, 277.2233
474.9933, 274.9734
475.4754, 273.3226
475.9575, 272.1413
476.4396, 271.4758
476.9218, 270.8854
477.4039, 269.7603
477.8860, 268.3565
478.3681, 267.2931
478.8503, 266.8753
479.3324, 266.7391
479.8145, 266.5419
480.2966, 266.3204
480.7787, 266.2203
481.2608, 266.1354
481.7430, 266.3156
482.2251, 267.0520
482.7072, 268.4904
483.1893, 269.7977
483.6714, 270.5672
484.1535, 271.1189
484.6357, 271.7777
485.1178, 272.5839
485.5999, 273.5266
486.0820, 274.7306
486.5641, 276.0957
487.0462, 277.2675
487.5284, 278.1048
488.0105, 278.9534
488.4926, 280.0453
488.9747, 281.4907
489.4568, 282.3446
489.9389, 282.3656
490.4211, 282.2183
490.9032, 282.6059
491.3853, 283.5424
491.8674, 284.8340
492.3495, 286.6452
492.8316, 288.5298
493.3138, 289.3941
493.7959, 289.3120
494.2780, 289.0753
494.7601, 289.0199
495.2422, 289.1548
495.7243, 289.5251
496.2065, 290.1413
496.6886, 290.8807
497.1707, 291.9078
497.6528, 292.9291
498.1349, 293.5314
498.6170, 293.4277
499.0992, 293.1386
499.5813, 293.1432
500.0634, 293.1859
500.5455, 292.6448
501.0276, 291.0837
501.5097, 289.1153
501.9919, 286.9029
502.4740, 284.4399
502.9561, 281.9570
503.4382, 279.3865
503.9203, 276.8358
504.4025, 274.3364
504.8846, 271.7796
505.3667, 269.5658
505.8488, 267.7779
506.3309, 266.3282
506.8130, 264.9704
507.2952, 263.6276
507.7773, 262.7442
508.2594, 262.5921
508.7415, 263.0625
509.2236, 263.6892
509.7057, 264.5118
510.1879, 265.0031
510.6700, 264.2838
511.1521, 262.8653
511.6342, 262.3596
512.1163, 263.1781
512.5984, 264.3745
513.0806, 264.9046
513.5627, 265.0734
514.0448, 265.5182
514.5269, 266.7565
515.0090, 268.1667
515.4911, 269.4868
515.9733, 270.6744
516.4554, 271.4755
516.9375, 271.2511
517.4196, 271.0132
517.9017, 271.3988
518.3839, 272.7505
518.8660, 274.0633
519.3481, 275.3440
519.8302, 276.4756
520.3123, 277.3003
520.7944, 277.7264
521.2766, 278.0053
521.7587, 278.0350
522.2408, 277.9675
522.7229, 278.5883
523.2050, 280.2090
523.6871, 281.3879
524.1693, 281.1195
524.6514, 279.5511
525.1335, 278.5201
525.6156, 278.0811
526.0977, 277.8144
526.5798, 277.1021
527.0620, 276.1923
527.5441, 275.9579
528.0262, 276.9481
528.5083, 277.9612
528.9904, 277.4772
529.4725, 275.9835
529.9547, 274.6688
530.4368, 274.4146
530.9189, 274.2955
531.4010, 273.5565
531.8831, 272.1838
532.3652, 271.2511
532.8474, 271.6219
533.3295, 272.1721
533.8116, 272.1461
534.2937, 270.7438
534.7758, 270.0112
535.2579, 270.4259
535.7401, 271.3258
536.2222, 271.7340
536.7043, 271.4430
537.1865, 271.1647
537.6686, 271.0119
538.1507, 270.9985
538.6328, 271.1870
539.1149, 271.5884
539.5970, 272.1577
540.0792, 272.8967
540.5613, 273.7897
541.0434, 274.7289
541.5255, 275.7126
542.0076, 276.7055
542.4897, 277.5988
542.9719, 278.4899
543.4540, 279.6027
543.9361, 281.0575
544.4182, 282.6100
544.9003, 283.8454
545.3824, 285.0162
545.8646, 286.6877
546.3467, 289.5526
546.8288, 292.5476
547.3109, 295.2455
547.7930, 297.5961
548.2751, 299.6821
548.7573, 301.1324
549.2394, 302.6187
549.7215, 304.5292
550.2036, 307.1653
550.6857, 309.5170
551.1678, 311.3756
551.6500, 313.1789
552.1321, 315.4395
552.6142, 318.1526
553.0963, 321.4677
553.5784, 325.5728
554.0605, 330.1752
554.5427, 334.5685
555.0248, 338.7578
555.5069, 342.8228
555.9890, 346.5870
556.4711, 350.2928
556.9532, 354.5316
557.4354, 359.3188
557.9175, 363.8111
558.3996, 367.2145
558.8817, 370.0043
559.3638, 372.7652
559.8459, 375.9663
560.3281, 378.4057
560.8102, 380.0070
561.2923, 380.4354
561.7744, 379.1366
562.2565, 374.4684
562.7386, 369.7399
563.2208, 365.3986
563.7029, 361.5051
564.1850, 358.2439
564.6671, 355.8616
565.1492, 353.7308
565.6313, 351.3990
566.1135, 348.7973
566.5956, 347.1918
567.0777, 346.6379
567.5598, 346.9259
568.0419, 348.1931
568.5240, 350.2216
569.0062, 351.8979
569.4883, 352.8517
569.9704, 353.7030
570.4525, 355.3264
570.9346, 357.4836
571.4167, 359.4799
571.8989, 360.8996
572.3810, 362.1738
572.8631, 363.8898
573.3452, 365.8774
573.8273, 367.0996
574.3094, 366.7900
574.7916, 365.8906
575.2737, 364.8785
575.7558, 363.8184
576.2379, 362.5784
576.7200, 361.2423
577.2021, 359.6741
577.6843, 357.6605
578.1664, 354.9779
578.6485, 352.5291
579.1306, 350.3354
579.6127, 348.4629
580.0948, 346.9092
580.5770, 345.6754
581.0591, 345.0545
581.5412, 345.3783
582.0233, 346.2808
582.5054, 346.9197
582.9875, 347.3423
583.4697, 347.9820
583.9518, 349.0677
584.4340, 350.5523
584.9161, 352.4473
585.3982, 354.7824
585.8803, 357.2610
586.3624, 359.7184
586.8445, 362.2610
587.3267, 364.9857
587.8088, 367.8494
588.2909, 370.9828
588.7730, 374.9322
589.2551, 379.0257
589.7372, 382.0827
590.2194, 383.7072
590.7015, 385.1071
591.1836, 386.7379
591.6657, 388.3682
592.1478, 388.9925
592.6299, 388.7071
593.1121, 386.6599
593.5942, 381.7891
594.0763, 374.6840
594.5584, 367.2047
595.0405, 359.4441
595.5226, 351.9665
596.0048, 345.1942
596.4869, 339.0938
596.9690, 333.4816
597.4511, 328.2550
597.9332, 323.7025
598.4153, 319.9305
598.8975, 316.9861
599.3796, 314.8053
599.8617, 313.7845
600.3438, 313.0861
600.8259, 312.6404
601.3080, 312.3885
601.7902, 312.0889
602.2723, 311.4667
602.7544, 311.2752
603.2365, 311.9899
603.7186, 313.5746
604.2007, 314.2939
604.6829, 313.9253
605.1650, 313.6884
605.6471, 314.7133
606.1292, 316.7419
606.6113, 318.8486
607.0934, 320.9409
607.5756, 322.8196
608.0577, 323.8510
608.5398, 324.5867
609.0219, 325.9795
609.5040, 328.8467
609.9861, 331.7612
610.4683, 333.8473
610.9504, 335.4144
611.4325, 337.1587
611.9146, 339.2322
612.3967, 341.5230
612.8788, 344.1373
613.3610, 347.0181
613.8431, 349.7108
614.3252, 351.9867
614.8073, 354.4373
615.2894, 357.3914
615.7715, 360.8461
616.2537, 364.7556
616.7358, 369.1980
617.2179, 373.6416
617.7000, 377.2615
618.1821, 380.3675
618.6642, 384.0738
619.1464, 388.7783
619.6285, 393.5438
620.1106, 397.4914
620.5927, 400.8389
621.0748, 403.9531
621.5569, 407.1403
622.0391, 409.9996
622.5212, 412.5591
623.0033, 414.7042
623.4854, 416.0831
623.9675, 416.7506
624.4496, 416.5019
624.9318, 415.2610
625.4139, 413.0388
625.8960, 409.9870
626.3781, 405.8311
626.8602, 401.5670
627.3423, 397.8034
627.8245, 394.5291
628.3066, 391.2464
628.7887, 387.8781
629.2708, 384.8992
629.7529, 383.0602
630.2350, 381.9661
630.7172, 380.7014
631.1993, 379.0783
631.6815, 377.1987
632.1636, 375.1506
632.6457, 372.9013
633.1278, 370.3684
633.6099, 366.9143
634.0920, 363.8290
634.5742, 361.9531
635.0563, 360.8526
635.5384, 358.7266
636.0205, 354.6008
636.5026, 350.8012
636.9847, 348.0052
637.4669, 346.1927
637.9490, 344.8634
638.4311, 344.0881
638.9132, 343.4482
639.3953, 342.6631
639.8774, 341.7660
640.3596, 340.9057
640.8417, 340.0816
641.3238, 339.3273
641.8059, 338.6359
642.2880, 338.0570
642.7701, 337.6861
643.2523, 337.5620
643.7344, 337.5774
644.2165, 337.8105
644.6986, 338.1039
645.1807, 338.2469
645.6628, 337.8452
646.1450, 337.7224
646.6271, 338.0389
647.1092, 338.6877
647.5913, 339.4865
648.0734, 340.6761
648.5555, 341.3159
649.0377, 340.8506
649.5198, 339.6445
650.0019, 339.4537
650.4840, 340.2662
650.9661, 341.1178
651.4482, 341.2320
651.9304, 341.0370
652.4125, 341.2880
652.8946, 342.0151
653.3767, 342.9145
653.8588, 344.0620
654.3409, 345.1248
654.8231, 345.7736
655.3052, 345.7576
655.7873, 345.8810
656.2694, 346.3516
656.7515, 347.0234
657.2336, 347.7456
657.7158, 348.4615
658.1979, 349.3413
658.6800, 350.4023
659.1621, 351.6158
659.6442, 353.0370
660.1263, 354.6611
660.6085, 356.0146
661.0906, 356.8746
661.5727, 357.4510
662.0548, 358.1081
662.5369, 358.8184
663.0190, 359.4819
663.5012, 359.8626
663.9833, 360.3250
664.4654, 361.2330
664.9475, 362.5374
665.4296, 363.8165
665.9117, 365.3106
666.3939, 366.4374
666.8760, 366.6819
667.3581, 365.8202
667.8402, 365.7382
668.3223, 366.6947
668.8044, 368.0291
669.2866, 369.4807
669.7687, 371.0982
670.2508, 371.5424
670.7329, 370.5074
671.2150, 369.3199
671.6971, 369.7853
672.1793, 371.2630
672.6614, 372.0408
673.1435, 371.5379
673.6256, 370.7344
674.1077, 370.4088
674.5898, 370.2940
675.0720, 369.9841
675.5541, 369.4140
676.0362, 368.5609
676.5183, 367.2776
677.0004, 365.7165
677.4825, 364.2245
677.9647, 362.6096
678.4468, 361.5064
678.9290, 361.2629
679.4111, 361.6627
679.8932, 361.6064
680.3753, 361.0709
680.8574, 360.5009
681.3395, 360.1261
681.8217, 359.9005
682.3038, 359.7177
682.7859, 359.5797
683.2680, 359.5781
683.7501, 360.0244
684.2322, 360.4605
684.7144, 360.4535
685.1965, 359.8725
685.6786, 359.3259
686.1607, 358.7314
686.6428, 358.4034
687.1249, 358.5806
687.6071, 359.5442
688.0892, 360.3872
688.5713, 361.1192
689.0534, 361.7235
689.5355, 362.2448
690.0176, 362.6783
690.4998, 362.6410
690.9819, 361.9282
691.4640, 361.1270
691.9461, 361.1210
692.4282, 361.6411
692.9103, 362.0638
693.3925, 361.4485
693.8746, 361.4962
694.3567, 364.0405
694.8388, 367.9649
695.3209, 370.6483
695.8030, 370.9147
696.2852, 370.4486
696.7673, 369.2564
697.2494, 367.5928
697.7315, 366.8710
698.2136, 367.2520
698.6957, 368.0623
699.1779, 369.2084
699.6600, 370.5432
700.1421, 371.4059
700.6242, 371.8104
701.1063, 371.8775
701.5884, 371.2080
702.0706, 370.5094
702.5527, 370.9541
703.0348, 372.6125
703.5169, 373.7819
703.9990, 372.8788
704.4811, 371.7006
704.9633, 371.5988
705.4454, 373.3387
705.9275, 374.3280
706.4096, 374.1217
706.8917, 373.6491
707.3738, 373.7431
707.8560, 374.4793
708.3381, 374.9920
708.8202, 375.1295
709.3023, 375.3462
709.7844, 376.3712
710.2665, 377.9404
710.7487, 379.3942
711.2308, 380.6626
711.7129, 381.5028
712.1950, 381.2453
712.6771, 380.5694
713.1592, 380.5014
713.6414, 382.2328
714.1235, 383.5848
714.6056, 383.7269
715.0877, 383.2285
715.5698, 383.2014
716.0519, 383.8013
716.5341, 384.4619
717.0162, 385.0714
717.4983, 385.6250
717.9804, 386.0543
718.4625, 386.3727
718.9446, 386.7399
719.4268, 387.3228
719.9089, 387.9361
720.3910, 388.3563
720.8731, 388.5977
721.3552, 388.7379
721.8373, 388.3407
722.3195, 388.2732
722.8016, 389.2106
723.2837, 391.1794
723.7658, 392.8026
724.2479, 394.0081
724.7300, 394.8754
725.2122, 395.4171
725.6943, 395.6335
726.1765, 395.5132
726.6586, 394.9966
727.1407, 394.5095
727.6228, 394.3404
728.1049, 394.4520
728.5870, 394.8109
729.0692, 395.4183
729.5513, 396.0887
730.0334, 396.6200
730.5155, 397.1933
730.9976, 398.0063
731.4797, 399.2237
731.9619, 400.2815
732.4440, 401.0994
732.9261, 401.7056
733.4082, 402.0836
733.8903, 402.1330
734.3724, 402.2412
734.8546, 402.3399
735.3367, 402.7061
735.8188, 403.9702
736.3009, 405.8864
736.7830, 407.2930
737.2651, 407.8804
737.7473, 408.1305
738.2294, 408.3562
738.7115, 408.5980
739.1936, 408.9176
739.6757, 409.4367
740.1578, 409.8988
740.6400, 409.9077
741.1221, 409.9089
741.6042, 410.7558
742.0863, 413.1893
742.5684, 414.7381
743.0505, 414.7071
743.5327, 413.8922
744.0148, 414.2299
744.4969, 415.6123
744.9790, 416.6270
745.4611, 416.4078
745.9432, 415.9946
746.4254, 417.0587
746.9075, 419.0457
747.3896, 420.5077
747.8717, 420.4603
748.3538, 420.1113
748.8359, 419.8945
749.3181, 419.8145
749.8002, 419.7651
750.2823, 419.5112
750.7644, 419.7322
751.2465, 420.8673
751.7286, 422.6234
752.2108, 423.3720
752.6929, 423.0972
753.1750, 422.9188
753.6571, 423.7027
754.1392, 424.8686
754.6213, 425.3624
755.1035, 425.2987
755.5856, 425.3394
756.0677, 425.2682
756.5498, 425.8922
757.0319, 428.3958
757.5140, 432.8730
757.9962, 435.1640
758.4783, 433.7197
758.9604, 431.9986
759.4425, 431.5781
759.9246, 432.4184
760.4067, 432.7332
760.8889, 432.4355
761.3710, 432.3976
761.8531, 433.4201
762.3352, 435.1051
762.8173, 436.9452
763.2994, 438.8781
763.7816, 440.2216
764.2637, 440.4616
764.7458, 440.0038
765.2279, 438.8813
765.7100, 436.7749
766.1921, 435.7343
766.6743, 436.3080
767.1564, 437.4017
767.6385, 438.4250
768.1206, 439.4056
768.6027, 440.0338
769.0848, 440.2333
769.5670, 440.5172
770.0491, 441.6711
770.5312, 443.1720
771.0133, 443.8077
771.4954, 443.3473
771.9775, 443.0456
772.4597, 443.9890
772.9418, 445.2506
773.4240, 446.0396
773.9061, 446.0306
774.3882, 446.0658
774.8703, 446.1588
775.3524, 446.3328
775.8345, 446.6219
776.3167, 447.0375
776.7988, 447.4561
777.2809, 447.8462
777.7630, 448.3614
778.2451, 449.3154
778.7272, 450.4839
779.2094, 451.4034
779.6915, 451.9362
780.1736, 452.4038
780.6557, 452.9763
781.1378, 453.5784
781.6199, 454.1288
782.1021, 454.4289
782.5842, 454.9976
783.0663, 455.9830
783.5484, 457.0649
784.0305, 457.8196
784.5126, 458.2326
784.9948, 458.9572
785.4769, 460.1359
785.9590, 461.3178
786.4411, 462.0586
786.9232, 462.4063
787.4053, 462.3415
787.8875, 461.5590
788.3696, 461.2107
788.8517, 462.3670
789.3338, 464.0106
789.8159, 464.9744
790.2980, 464.5894
790.7802, 464.5370
791.2623, 464.8698
791.7444, 465.5361
792.2265, 466.5468
792.7086, 467.8896
793.1907, 469.1730
793.6729, 470.3712
794.1550, 471.3882
794.6371, 472.0101
795.1192, 472.4243
795.6013, 472.9557
796.0834, 473.8113
796.5656, 474.5599
797.0477, 474.8861
797.5298, 475.1106
798.0119, 475.6349
798.4940, 476.6267
798.9761, 477.5692
799.4583, 478.4635
799.9404, 479.2332
800.4225, 479.6835
800.9046, 479.8885
801.3867, 480.3409
801.8688, 481.1856
802.3510, 482.1104
802.8331, 482.6093
803.3152, 483.0577
803.7973, 484.0101
804.2794, 486.1534
804.7615, 487.9023
805.2437, 488.8825
805.7258, 489.3373
806.2079, 489.3488
806.6900, 488.6065
807.1721, 488.7336
807.6542, 490.0521
808.1364, 491.8324
808.6185, 493.2435
809.1006, 494.3190
809.5827, 495.0800
810.0648, 495.4016
810.5469, 495.8528
811.0291, 497.1063
811.5112, 498.6096
811.9933, 499.7286
812.4754, 500.0049
812.9575, 500.3808
813.4396, 500.7922
813.9218, 501.4275
814.4039, 502.5384
814.8860, 504.1617
815.3681, 505.9506
815.8502, 507.9704
816.3323, 509.7501
816.8145, 510.4212
817.2966, 510.5454
817.7787, 511.1748
818.2608, 512.6841
818.7429, 514.2586
819.2251, 515.4684
819.7072, 516.5795
820.1893, 517.8563
820.6714, 519.3145
821.1536, 520.8616
821.6357, 522.4250
822.1178, 524.2097
822.5999, 526.6895
823.0820, 529.6804
823.5641, 531.7492
824.0463, 532.6168
824.5284, 533.6042
825.0105, 536.3479
825.4926, 539.6727
825.9747, 542.1022
826.4568, 543.0296
826.9390, 544.1898
827.4211, 545.9944
827.9032, 548.1643
828.3853, 550.6569
828.8674, 553.6170
829.3495, 556.0740
829.8317, 557.9573
830.3138, 559.5436
830.7959, 560.9222
831.2780, 562.1986
831.7601, 563.6501
832.2422, 565.3057
832.7244, 566.9050
833.2065, 568.2170
833.6886, 569.4470
834.1707, 570.8544
834.6528, 572.6635
835.1349, 573.6840
835.6171, 573.4911
836.0992, 573.2361
836.5813, 573.9506
837.0634, 575.4989
837.5455, 575.5810
838.0276, 574.1616
838.5098, 572.7144
838.9919, 572.4036
839.4740, 572.6163
839.9561, 572.8947
840.4382, 573.1778
840.9203, 572.8951
841.4025, 571.4055
841.8846, 569.7255
842.3667, 568.3466
842.8488, 567.2577
843.3309, 565.7325
843.8130, 563.6644
844.2952, 561.7846
844.7773, 560.8308
845.2594, 560.2802
845.7415, 558.7541
846.2236, 556.4423
846.7057, 554.3747
847.1879, 553.1867
847.6700, 552.3547
848.1521, 551.5270
848.6342, 550.7595
849.1163, 550.5873
849.5984, 551.5066
850.0806, 552.0036
850.5627, 551.4080
851.0448, 550.1248
851.5269, 549.6277
852.0090, 549.7978
852.4911, 549.6578
852.9733, 548.0848
853.4554, 546.6121
853.9375, 546.9737
854.4196, 548.5206
854.9017, 549.6589
855.3839, 549.8998
855.8660, 549.6341
856.3481, 548.5188
856.8302, 547.1761
857.3123, 547.1531
857.7944, 548.5696
858.2766, 549.7463
858.7587, 550.2592
859.2408, 550.3756
859.7229, 550.3787
860.2050, 550.2931
860.6871, 550.1526
861.1693, 549.8494
861.6514, 549.6982
862.1335, 549.7263
862.6156, 550.0375
863.0977, 550.7873
863.5798, 552.2521
864.0620, 553.3636
864.5441, 553.9991
865.0262, 554.3635
865.5083, 554.7717
865.9904, 555.1349
866.4726, 555.0812
866.9547, 554.4348
867.4368, 553.9791
867.9189, 554.2050
868.4011, 554.9118
868.8832, 555.9970
869.3653, 557.8414
869.8474, 559.0369
870.3295, 559.4982
870.8116, 559.4453
871.2938, 558.7081
871.7759, 557.4235
872.2580, 557.3599
872.7401, 558.5790
873.2222, 559.8508
873.7043, 559.8964
874.1865, 559.7162
874.6686, 560.6034
875.1507, 562.6747
875.6328, 563.7897
876.1149, 562.0265
876.5970, 560.7256
877.0792, 561.3533
877.5613, 563.6652
878.0434, 565.0823
878.5255, 565.5648
879.0076, 566.0910
879.4897, 567.3434
879.9719, 568.8768
880.4540, 570.1975
880.9361, 571.2770
881.4182, 572.0105
881.9003, 571.8658
882.3824, 571.9066
882.8646, 572.5926
883.3467, 573.7155
883.8288, 574.8543
884.3109, 576.0797
884.7930, 576.8712
885.2751, 576.9199
885.7573, 576.7734
886.2394, 577.5051
886.7215, 578.7645
887.2036, 579.6639
887.6857, 579.6137
888.1678, 579.6177
888.6500, 580.0588
889.1321, 580.8395
889.6142, 581.8401
890.0963, 583.1339
890.5784, 584.5176
891.0605, 586.1856
891.5427, 587.4611
892.0248, 587.0436
892.5069, 585.6439
892.9890, 585.5613
893.4711, 587.2491
893.9532, 588.9769
894.4354, 589.3860
894.9175, 589.4563
895.3996, 589.9893
895.8817, 591.1653
896.3638, 592.3692
896.8459, 593.6271
897.3281, 594.8263
897.8102, 595.7590
898.2923, 596.5333
898.7744, 597.8964
899.2565, 599.7687
899.7386, 601.3560
900.2208, 601.7549
900.7029, 602.0106
901.1850, 602.9733
901.6671, 604.5560
902.1492, 605.9971
902.6313, 607.2459
903.1135, 608.2241
903.5956, 608.7418
904.0777, 609.1085
904.5598, 610.4280
905.0419, 612.5540
905.5240, 614.3307
906.0062, 615.3431
906.4883, 615.8380
906.9704, 615.3578
907.4525, 614.6993
907.9346, 615.1462
908.4167, 618.2910
908.8989, 620.7872
909.3810, 622.2313
909.8631, 623.1629
910.3452, 624.0844
910.8273, 625.0228
911.3094, 626.5350
911.7916, 628.7448
912.2737, 631.0265
912.7558, 632.6766
913.2380, 634.1544
913.7201, 636.0605
914.2022, 638.6389
914.6843, 640.7372
915.1664, 641.8808
915.6486, 642.8986
916.1307, 644.1318
916.6128, 645.5957
917.0949, 647.6110
917.5770, 650.1859
918.0591, 652.8393
918.5413, 655.2457
919.0234, 657.6149
919.5055, 659.9913
919.9876, 662.4715
920.4697, 665.5129
920.9518, 670.4828
921.4340, 674.3828
921.9161, 675.8925
922.3982, 676.3336
922.8803, 679.4630
923.3624, 685.1515
923.8445, 689.9893
924.3267, 692.6447
924.8088, 694.9604
925.2909, 699.2689
925.7730, 704.4981
926.2551, 709.0912
926.7372, 711.9539
927.2194, 715.4647
927.7015, 720.2843
928.1836, 725.4633
928.6657, 730.3455
929.1478, 734.9258
929.6299, 738.0330
930.1121, 739.4875
930.5942, 741.2680
931.0763, 745.3268
931.5584, 750.4403
932.0405, 755.8021
932.5226, 761.2176
933.0048, 765.4240
933.4869, 767.9929
933.9690, 769.3069
934.4511, 769.0433
934.9332, 767.6076
935.4153, 767.4438
935.8975, 768.4435
936.3796, 768.5285
936.8617, 766.5586
937.3438, 763.4245
937.8259, 759.6803
938.3080, 755.4818
938.7902, 751.2350
939.2723, 746.6927
939.7544, 742.5355
940.2365, 739.0165
940.7186, 735.7523
941.2007, 732.4222
941.6829, 729.0007
942.1650, 724.9252
942.6471, 719.9618
943.1292, 715.3785
943.6113, 712.1541
944.0934, 709.9995
944.5756, 708.8543
945.0577, 709.0257
945.5398, 708.2838
946.0219, 705.8531
946.5040, 703.5310
946.9861, 702.2213
947.4683, 701.8037
947.9504, 701.9152
948.4325, 702.4608
948.9146, 702.6226
949.3967, 701.3115
949.8788, 699.9996
950.3610, 699.4700
950.8431, 699.8055
951.3252, 701.3380
951.8073, 705.0554
952.2894, 707.9528
952.7715, 709.3529
953.2537, 710.1342
953.7358, 711.9389
954.2179, 714.4231
954.7000, 715.9148
955.1821, 715.7081
955.6642, 716.2382
956.1464, 719.9190
956.6285, 724.6554
957.1106, 728.6296
957.5927, 731.5839
958.0748, 734.1862
958.5569, 736.2249
959.0391, 738.4876
959.5212, 741.6035
960.0033, 745.3155
960.4855, 749.0282
960.9676, 752.6862
961.4497, 755.9186
961.9318, 758.6491
962.4139, 760.8300
962.8961, 762.2333
963.3782, 763.0541
963.8603, 764.0403
964.3424, 765.6007
964.8245, 765.4577
965.3066, 762.8538
965.7888, 759.1942
966.2709, 756.2265
966.7530, 753.7444
967.2351, 751.4824
967.7172, 749.4786
968.1993, 747.2650
968.6815, 743.9980
969.1636, 741.0117
969.6457, 739.3871
970.1278, 739.3060
970.6099, 738.0240
971.0920, 735.4418
971.5742, 732.9219
972.0563, 731.3353
972.5384, 730.4109
973.0205, 729.8701
973.5026, 729.6851
973.9847, 729.7838
974.4669, 730.3844
974.9490, 730.9455
975.4311, 731.2176
975.9132, 731.4991
976.3953, 732.6270
976.8774, 734.5234
977.3596, 735.6570
977.8417, 735.5018
978.3238, 735.3321
978.8059, 736.8596
979.2880, 738.7130
979.7701, 739.1846
980.2523, 737.2045
980.7344, 736.6907
981.2165, 738.2230
981.6986, 740.3528
982.1807, 742.2438
982.6628, 743.9933
983.1450, 746.3215
983.6271, 749.0529
984.1092, 751.1204
984.5913, 751.0526
985.0734, 751.0156
985.5555, 752.6419
986.0377, 755.1654
986.5198, 756.4140
987.0019, 755.8193
987.4840, 755.8807
987.9661, 757.1097
988.4482, 758.7604
988.9304, 759.8549
989.4125, 760.6239
989.8946, 761.4742
990.3767, 762.4883
990.8588, 763.5869
991.3409, 764.6525
991.8231, 765.8956
992.3052, 767.3465
992.7873, 769.0013
993.2694, 771.6149
993.7515, 775.2276
994.2336, 778.5459
994.7158, 780.4540
995.1979, 782.0414
995.6800, 784.3273
996.1621, 787.3239
996.6442, 791.0377
997.1263, 796.0751
997.6085, 800.9338
998.0906, 805.3086
998.5727, 809.6422
999.0548, 814.4134
999.5369, 819.6901
1000.019, 826.0615
1000.501, 833.6752
1000.983, 840.8837
1001.465, 845.8656
1001.948, 850.5661
1002.430, 856.7410
1002.912, 864.5491
1003.394, 870.7917
1003.876, 874.8759
1004.358, 879.5595
1004.840, 886.0697
1005.322, 893.7708
1005.804, 901.3226
1006.287, 909.1385
1006.769, 918.4515
1007.251, 929.9541
1007.733, 942.5101
1008.215, 955.6628
1008.697, 970.0284
1009.179, 986.4983
1009.661, 1005.098
1010.144, 1025.139
1010.626, 1046.970
1011.108, 1068.188
1011.590, 1087.778
1012.072, 1105.425
1012.554, 1121.728
1013.036, 1136.252
1013.518, 1146.155
1014.000, 1149.633
1014.483, 1150.913
1014.965, 1150.085
1015.447, 1148.606
1015.929, 1149.656
1016.411, 1152.660
1016.893, 1155.169
1017.375, 1155.941
1017.857, 1158.478
1018.340, 1165.144
1018.822, 1174.428
1019.304, 1184.970
1019.786, 1196.490
1020.268, 1210.715
1020.750, 1227.900
1021.232, 1246.081
1021.714, 1263.159
1022.196, 1281.048
1022.679, 1303.307
1023.161, 1328.737
1023.643, 1353.689
1024.125, 1376.287
1024.607, 1399.343
1025.089, 1424.899
1025.571, 1449.433
1026.053, 1469.207
1026.536, 1483.682
1027.018, 1491.654
1027.500, 1493.143
1027.982, 1485.148
1028.464, 1464.301
1028.946, 1433.786
1029.428, 1394.306
1029.910, 1345.703
1030.392, 1296.826
1030.875, 1246.616
1031.357, 1198.331
1031.839, 1152.112
1032.321, 1109.033
1032.803, 1071.430
1033.285, 1038.713
1033.767, 1010.539
1034.249, 987.5786
1034.732, 967.7547
1035.214, 951.4465
1035.696, 937.2745
1036.178, 924.0416
1036.660, 911.8636
1037.142, 902.1066
1037.624, 894.8622
1038.106, 888.3008
1038.589, 880.8383
1039.071, 873.9940
1039.553, 868.7792
1040.035, 865.1231
1040.517, 862.5486
1040.999, 861.3367
1041.481, 860.1981
1041.963, 858.9721
1042.445, 857.6115
1042.927, 855.4424
1043.410, 853.2519
1043.892, 852.9168
1044.374, 854.8954
1044.856, 856.3082
1045.338, 855.7699
1045.820, 854.6639
1046.302, 853.3260
1046.784, 851.9313
1047.267, 851.5912
1047.749, 852.2103
1048.231, 852.7902
1048.713, 853.0426
1049.195, 852.9123
1049.677, 852.0574
1050.159, 850.9315
1050.641, 850.1472
1051.124, 849.7589
1051.606, 849.7810
1052.088, 850.3510
1052.570, 850.8812
1053.052, 850.7384
1053.534, 850.3394
1054.016, 850.4158
1054.498, 850.9500
1054.980, 851.7480
1055.463, 853.5455
1055.945, 854.4509
1056.427, 853.4463
1056.909, 851.9395
1057.391, 852.4888
1057.873, 854.8185
1058.355, 856.7156
1058.837, 857.8235
1059.319, 858.7181
1059.802, 859.4328
1060.284, 860.4149
1060.766, 862.4315
1061.248, 865.3524
1061.730, 866.5881
1062.212, 865.7687
1062.694, 865.2651
1063.176, 866.1714
1063.659, 867.4456
1064.141, 867.6649
1064.623, 867.1570
1065.105, 866.4420
1065.587, 865.5032
1066.069, 864.6694
1066.551, 863.8602
1067.033, 863.2800
1067.516, 863.2444
1067.998, 863.5683
1068.480, 863.0569
1068.962, 861.9112
1069.444, 861.3137
1069.926, 862.7425
1070.408, 863.9530
1070.890, 863.5292
1071.372, 862.3883
1071.854, 861.9080
1072.337, 862.1720
1072.819, 862.4348
1073.301, 862.6272
1073.783, 862.9024
1074.265, 863.4872
1074.747, 864.1787
1075.229, 865.0281
1075.711, 865.9453
1076.194, 865.7195
1076.676, 863.5020
1077.158, 862.1655
1077.640, 862.5997
1078.122, 864.0499
1078.604, 865.7051
1079.086, 867.2634
1079.568, 867.9854
1080.051, 867.5035
1080.533, 867.0792
1081.015, 867.0383
1081.497, 867.2984
1081.979, 867.9612
1082.461, 868.9186
1082.943, 869.3109
1083.425, 869.2559
1083.907, 869.5709
1084.390, 870.6741
1084.872, 872.2214
1085.354, 874.4576
1085.836, 876.7593
1086.318, 878.2966
1086.800, 878.7223
1087.282, 879.8060
1087.764, 881.6406
1088.247, 883.5419
1088.729, 884.9437
1089.211, 886.1190
1089.693, 887.3089
1090.175, 888.5513
1090.657, 889.9680
1091.139, 891.5942
1091.621, 893.4049
1092.104, 895.5219
1092.586, 897.5661
1093.068, 898.9290
1093.550, 899.8489
1094.032, 900.9077
1094.514, 902.1774
1094.996, 903.4138
1095.478, 904.2024
1095.960, 905.3205
1096.443, 907.2340
1096.925, 909.5728
1097.407, 911.4005
1097.889, 912.7172
1098.371, 913.3586
1098.853, 913.0678
1099.335, 912.9045
1099.817, 914.1357
1100.299, 915.4357
1100.782, 915.4749
1101.264, 914.2031
1101.746, 913.4465
1102.228, 913.2199
1102.710, 913.2294
1103.192, 913.3671
1103.674, 913.6241
1104.156, 914.0675
1104.639, 914.6014
1105.121, 915.0779
1105.603, 915.5117
1106.085, 915.7935
1106.567, 915.8716
1107.049, 915.9809
1107.531, 916.0341
1108.013, 916.3809
1108.495, 918.0137
1108.978, 920.6397
1109.460, 923.0607
1109.942, 923.7233
1110.424, 925.8206
1110.906, 930.4850
1111.388, 935.9457
1111.870, 939.8918
1112.352, 942.6076
1112.834, 945.1586
1113.317, 947.6747
1113.799, 950.5493
1114.281, 953.9666
1114.763, 957.8822
1115.245, 962.3594
1115.727, 967.2082
1116.209, 971.7686
1116.691, 976.1171
1117.174, 981.3010
1117.656, 987.5836
1118.138, 994.6130
1118.620, 1002.534
1119.102, 1010.751
1119.584, 1018.573
1120.066, 1026.026
1120.548, 1034.551
1121.031, 1044.302
1121.513, 1054.234
1121.995, 1064.591
1122.477, 1073.662
1122.959, 1079.164
1123.441, 1082.347
1123.923, 1085.140
1124.405, 1088.479
1124.887, 1089.038
1125.370, 1085.929
1125.852, 1082.419
1126.334, 1080.434
1126.816, 1079.334
1127.298, 1078.240
1127.780, 1076.884
1128.262, 1074.624
1128.744, 1070.352
1129.227, 1066.500
1129.709, 1063.734
1130.191, 1060.770
1130.673, 1056.521
1131.155, 1051.122
1131.637, 1044.804
1132.119, 1037.647
1132.601, 1030.088
1133.083, 1021.113
1133.566, 1013.287
1134.048, 1007.770
1134.530, 1003.506
1135.012, 999.1345
1135.494, 994.7689
1135.976, 991.0809
1136.458, 988.1318
1136.940, 986.4783
1137.422, 987.9039
1137.905, 989.3566
1138.387, 988.8118
1138.869, 986.9422
1139.351, 985.1852
1139.833, 983.5012
1140.315, 982.7188
1140.797, 983.0138
1141.279, 984.0321
1141.762, 985.8564
1142.244, 987.9543
1142.726, 989.9835
1143.208, 991.8754
1143.690, 993.4286
1144.172, 994.5719
1144.654, 995.6659
1145.136, 996.7510
1145.619, 997.9244
1146.101, 999.4267
1146.583, 1000.979
1147.065, 1002.212
1147.547, 1002.958
1148.029, 1003.926
1148.511, 1005.261
1148.993, 1006.353
1149.475, 1006.952
1149.958, 1007.144
1150.440, 1006.896
1150.922, 1006.410
1151.404, 1006.054
1151.886, 1006.018
1152.368, 1005.895
1152.850, 1005.532
1153.332, 1005.405
1153.814, 1005.995
1154.297, 1006.947
1154.779, 1007.243
1155.261, 1007.132
1155.743, 1007.289
1156.225, 1007.905
1156.707, 1008.952
1157.189, 1010.659
1157.671, 1012.342
1158.154, 1013.164
1158.636, 1013.465
1159.118, 1014.857
1159.600, 1017.129
1160.082, 1019.188
1160.564, 1019.901
1161.046, 1021.171
1161.528, 1024.094
1162.010, 1027.194
1162.493, 1028.735
1162.975, 1028.889
1163.457, 1028.807
1163.939, 1028.563
1164.421, 1028.146
1164.903, 1027.311
1165.385, 1026.572
1165.867, 1026.249
1166.349, 1026.091
1166.832, 1025.825
1167.314, 1025.411
1167.796, 1024.296
1168.278, 1022.403
1168.760, 1020.567
1169.242, 1018.905
1169.724, 1017.942
1170.206, 1018.298
1170.689, 1019.516
1171.171, 1020.667
1171.653, 1021.757
1172.135, 1022.557
1172.617, 1022.995
1173.099, 1023.352
1173.581, 1023.947
1174.063, 1024.475
1174.546, 1024.606
1175.028, 1024.449
1175.510, 1024.444
1175.992, 1024.584
1176.474, 1025.057
1176.956, 1025.993
1177.438, 1026.937
1177.920, 1027.449
1178.402, 1027.780
1178.885, 1028.109
1179.367, 1028.454
1179.849, 1029.013
1180.331, 1029.823
1180.813, 1030.488
1181.295, 1030.722
1181.777, 1031.174
1182.259, 1032.813
1182.742, 1034.868
1183.224, 1036.516
1183.706, 1037.668
1184.188, 1038.644
1184.670, 1039.459
1185.152, 1039.969
1185.634, 1039.706
1186.116, 1039.798
1186.599, 1042.012
1187.081, 1045.148
1187.563, 1047.690
1188.045, 1049.635
1188.527, 1049.555
1189.009, 1046.864
1189.491, 1045.654
1189.973, 1049.350
1190.455, 1054.266
1190.938, 1055.930
1191.420, 1055.633
1191.902, 1055.446
1192.384, 1055.803
1192.866, 1055.916
1193.348, 1055.703
1193.830, 1055.710
1194.312, 1056.234
1194.794, 1057.240
1195.277, 1059.046
1195.759, 1061.227
1196.241, 1062.846
1196.723, 1063.453
1197.205, 1064.255
1197.687, 1065.280
1198.169, 1066.406
1198.651, 1067.310
1199.134, 1068.405
1199.616, 1070.861
1200.098, 1073.871
1200.580, 1075.285
1201.062, 1073.872
1201.544, 1072.950
1202.026, 1072.603
1202.508, 1072.984
1202.990, 1074.655
1203.473, 1076.822
1203.955, 1078.783
1204.437, 1080.354
1204.919, 1080.989
1205.401, 1080.004
1205.883, 1079.681
1206.365, 1080.261
1206.847, 1081.250
1207.329, 1082.097
1207.812, 1083.132
1208.294, 1085.511
1208.776, 1088.609
1209.258, 1089.475
1209.740, 1086.650
1210.222, 1084.836
1210.704, 1084.551
1211.186, 1085.322
1211.669, 1087.060
1212.151, 1089.290
1212.633, 1091.710
1213.115, 1094.142
1213.597, 1095.571
1214.079, 1095.473
1214.561, 1095.834
1215.043, 1096.960
1215.526, 1098.445
1216.008, 1100.037
1216.490, 1101.627
1216.972, 1102.950
1217.454, 1104.099
1217.936, 1105.818
1218.418, 1108.608
1218.900, 1110.291
1219.382, 1110.428
1219.865, 1109.768
1220.347, 1108.098
1220.829, 1106.839
1221.311, 1108.242
1221.793, 1112.002
1222.275, 1114.109
1222.757, 1113.934
1223.239, 1114.236
1223.722, 1115.665
1224.204, 1117.167
1224.686, 1117.698
1225.168, 1117.627
1225.650, 1116.778
1226.132, 1115.461
1226.614, 1116.392
1227.096, 1120.206
1227.578, 1122.749
1228.061, 1122.914
1228.543, 1122.653
1229.025, 1123.816
1229.507, 1125.699
1229.989, 1127.928
1230.471, 1130.329
1230.953, 1131.900
1231.435, 1132.589
1231.917, 1132.854
1232.400, 1132.722
1232.882, 1132.573
1233.364, 1132.268
1233.846, 1132.510
1234.328, 1134.563
1234.810, 1137.935
1235.292, 1139.274
1235.774, 1138.459
1236.257, 1138.591
1236.739, 1140.661
1237.221, 1142.585
1237.703, 1142.229
1238.185, 1141.336
1238.667, 1141.263
1239.149, 1141.912
1239.631, 1142.815
1240.114, 1143.956
1240.596, 1145.377
1241.078, 1147.203
1241.560, 1148.538
1242.042, 1147.489
1242.524, 1146.895
1243.006, 1149.084
1243.488, 1153.146
1243.970, 1155.756
1244.453, 1157.035
1244.935, 1157.675
1245.417, 1157.669
1245.899, 1158.114
1246.381, 1160.395
1246.863, 1162.569
1247.345, 1163.474
1247.827, 1163.533
1248.309, 1163.955
1248.792, 1164.714
1249.274, 1165.803
1249.756, 1167.326
1250.238, 1168.486
1250.720, 1168.542
1251.202, 1168.525
1251.684, 1168.686
1252.166, 1169.218
1252.649, 1170.980
1253.131, 1173.511
1253.613, 1175.493
1254.095, 1176.615
1254.577, 1177.338
1255.059, 1177.393
1255.541, 1177.710
1256.023, 1178.725
1256.505, 1180.035
1256.988, 1180.905
1257.470, 1181.413
1257.952, 1181.464
1258.434, 1180.865
1258.916, 1181.614
1259.398, 1184.676
1259.880, 1187.482
1260.362, 1189.143
1260.844, 1190.225
1261.327, 1191.781
1261.809, 1193.320
1262.291, 1193.852
1262.773, 1193.077
1263.255, 1193.431
1263.737, 1195.362
1264.219, 1197.097
1264.701, 1197.895
1265.184, 1198.683
1265.666, 1200.757
1266.148, 1203.408
1266.630, 1205.957
1267.112, 1208.297
1267.594, 1210.011
1268.076, 1211.044
1268.558, 1211.755
1269.041, 1212.061
1269.523, 1212.794
1270.005, 1215.599
1270.487, 1218.597
1270.969, 1219.659
1271.451, 1219.200
1271.933, 1219.720
1272.415, 1221.209
1272.897, 1222.176
1273.380, 1222.193
1273.862, 1222.074
1274.344, 1222.275
1274.826, 1222.700
1275.308, 1223.512
1275.790, 1224.393
1276.272, 1223.520
1276.754, 1221.563
1277.237, 1222.803
1277.719, 1228.545
1278.201, 1233.313
1278.683, 1233.650
1279.165, 1232.879
1279.647, 1232.013
1280.129, 1231.315
1280.611, 1231.181
1281.094, 1231.678
1281.576, 1233.396
1282.058, 1236.533
1282.540, 1238.369
1283.022, 1236.779
1283.504, 1236.087
1283.986, 1237.600
1284.468, 1240.041
1284.950, 1241.361
1285.432, 1242.282
1285.915, 1244.215
1286.397, 1247.251
1286.879, 1249.193
1287.361, 1249.615
1287.843, 1249.710
1288.325, 1249.555
1288.807, 1249.866
1289.289, 1252.156
1289.772, 1254.827
1290.254, 1256.039
1290.736, 1255.880
1291.218, 1255.999
1291.700, 1256.322
1292.182, 1257.765
1292.664, 1260.615
1293.146, 1263.207
1293.629, 1263.969
1294.111, 1264.105
1294.593, 1264.483
1295.075, 1264.854
1295.557, 1264.245
1296.039, 1262.859
1296.521, 1263.208
1297.003, 1265.651
1297.485, 1268.312
1297.968, 1269.761
1298.450, 1271.207
1298.932, 1273.237
1299.414, 1275.370
1299.896, 1276.848
1300.378, 1277.824
1300.860, 1278.274
1301.342, 1278.348
1301.824, 1279.281
1302.307, 1280.283
##END=



