##NAMES=Penikisite
##RRUFFID=R060160
##IDEAL CHEMISTRY=BaMg_2_Al_2_(PO_4_)_3_(OH)_3_
##LOCALITY=16 miles north of the Hess River, Mayo Mining District, Yukon Territory, Canada
##OWNER=RRUFF
##SOURCE=Mark Mauthner
##DESCRIPTION=Aggregate of green crystals in quartz associated with purple gorceixite, R060158. Crystal used in the Bowman et al (2013) study.
##STATUS=The identification of this mineral is confirmed by single-crystal X-ray diffraction and chemical analysis.
##URL=rruff.info/R060160
##MEASURED CHEMISTRY=Ba_1.00_(Mg_1.97_Mn_0.03_)_Î£=2_Al_2.00_(P_1.00_O_4_)_3_(OH)_3_
92.02539, 110.7591
92.50751, 115.1787
92.98962, 118.0714
93.47174, 116.7969
93.95386, 113.4493
94.43597, 108.9001
94.91809, 103.3992
95.40021, 97.42290
95.88232, 92.15298
96.36444, 87.69820
96.84656, 83.81326
97.32867, 80.48074
97.81078, 77.62920
98.29290, 75.20489
98.77502, 73.18496
99.25713, 71.54670
99.73925, 69.51327
100.2214, 66.58476
100.7035, 63.80379
101.1856, 61.56179
101.6677, 59.90051
102.1498, 58.70856
102.6320, 57.88684
103.1141, 57.59985
103.5962, 57.31135
104.0783, 56.91711
104.5604, 56.55095
105.0425, 56.45742
105.5247, 56.77352
106.0068, 57.12671
106.4889, 56.79942
106.9710, 55.75073
107.4531, 54.60606
107.9352, 53.51373
108.4173, 52.50249
108.8995, 51.74133
109.3816, 51.39002
109.8637, 51.26461
110.3458, 51.15516
110.8279, 51.03307
111.3100, 50.95118
111.7922, 50.97806
112.2743, 51.13225
112.7564, 51.33936
113.2385, 51.56744
113.7206, 51.83527
114.2027, 52.19025
114.6849, 52.66624
115.1670, 53.19963
115.6491, 53.55186
116.1312, 53.50848
116.6133, 53.52331
117.0954, 53.73303
117.5776, 54.04250
118.0597, 54.26650
118.5418, 54.24697
119.0239, 53.97444
119.5060, 54.18431
119.9881, 55.02086
120.4703, 56.08626
120.9524, 57.31422
121.4345, 58.65483
121.9166, 60.00614
122.3987, 61.25613
122.8808, 62.38210
123.3630, 63.59591
123.8451, 65.08790
124.3272, 66.57401
124.8093, 67.78449
125.2914, 68.68256
125.7735, 69.30432
126.2557, 69.66074
126.7378, 69.79135
127.2199, 69.62132
127.7020, 68.93672
128.1841, 67.89678
128.6662, 66.99797
129.1483, 66.25459
129.6305, 65.78395
130.1126, 65.67469
130.5947, 65.90142
131.0768, 66.23969
131.5589, 66.52655
132.0410, 66.76220
132.5232, 66.94503
133.0053, 67.02778
133.4874, 67.08944
133.9695, 67.19549
134.4516, 67.34917
134.9337, 67.47191
135.4159, 67.41418
135.8980, 66.97034
136.3801, 66.74343
136.8622, 66.64291
137.3443, 66.78732
137.8264, 67.30203
138.3086, 68.22880
138.7907, 69.48875
139.2728, 70.84863
139.7549, 72.34959
140.2370, 73.91983
140.7191, 75.62484
141.2013, 77.38938
141.6834, 79.07784
142.1655, 80.58681
142.6476, 82.00541
143.1297, 83.70627
143.6118, 86.05286
144.0939, 88.24329
144.5761, 90.48294
145.0582, 92.51524
145.5403, 93.18344
146.0224, 91.72228
146.5045, 88.17590
146.9866, 83.49644
147.4688, 76.84241
147.9509, 69.79209
148.4330, 63.68327
148.9151, 58.51561
149.3972, 54.25990
149.8793, 51.16836
150.3615, 48.90211
150.8436, 47.21284
151.3257, 46.15015
151.8078, 45.54969
152.2899, 45.07295
152.7720, 44.74238
153.2542, 44.50480
153.7363, 44.37126
154.2184, 44.29134
154.7005, 44.17886
155.1826, 43.95629
155.6647, 43.64496
156.1469, 43.47171
156.6290, 43.45654
157.1111, 43.58769
157.5932, 43.82970
158.0753, 44.21318
158.5574, 44.81533
159.0396, 45.73790
159.5217, 47.03753
160.0038, 48.13192
160.4859, 48.83535
160.9680, 49.53207
161.4501, 50.53670
161.9323, 51.75352
162.4144, 52.76690
162.8965, 53.13912
163.3786, 52.72578
163.8607, 52.11603
164.3428, 51.41253
164.8250, 50.47219
165.3071, 49.05806
165.7892, 47.16069
166.2713, 45.19759
166.7534, 43.66327
167.2355, 42.60970
167.7177, 41.68300
168.1998, 40.84435
168.6819, 40.11046
169.1640, 39.49537
169.6461, 38.99403
170.1282, 38.64502
170.6104, 38.59201
171.0925, 38.79701
171.5746, 38.94491
172.0567, 38.90968
172.5388, 38.72266
173.0209, 38.47408
173.5031, 38.17938
173.9852, 37.81696
174.4673, 37.33785
174.9494, 36.75737
175.4315, 36.21266
175.9136, 35.83325
176.3958, 35.61164
176.8779, 35.33952
177.3600, 34.82707
177.8421, 34.40237
178.3242, 34.34480
178.8063, 34.62560
179.2885, 34.91247
179.7706, 34.76609
180.2527, 34.00367
180.7348, 33.61520
181.2169, 33.96126
181.6990, 34.46999
182.1812, 34.87867
182.6633, 35.13502
183.1454, 35.31856
183.6275, 35.57649
184.1096, 36.10515
184.5917, 36.25811
185.0738, 35.87258
185.5560, 35.29781
186.0381, 34.73104
186.5202, 34.23913
187.0023, 33.81451
187.4844, 33.44433
187.9665, 33.08860
188.4487, 32.87352
188.9308, 33.01578
189.4129, 33.18834
189.8950, 33.01816
190.3771, 32.38884
190.8592, 31.57566
191.3414, 31.11220
191.8235, 31.08967
192.3056, 31.25293
192.7877, 31.75586
193.2698, 32.38221
193.7519, 32.84357
194.2341, 33.03222
194.7162, 33.04129
195.1983, 33.02654
195.6804, 32.96599
196.1625, 32.95127
196.6446, 33.05494
197.1268, 33.22496
197.6089, 33.30463
198.0910, 33.16151
198.5731, 33.04158
199.0552, 33.38055
199.5373, 34.25948
200.0195, 35.08968
200.5016, 35.46269
200.9837, 35.47794
201.4658, 35.64585
201.9479, 36.16925
202.4300, 36.86862
202.9122, 37.57420
203.3943, 38.29904
203.8764, 38.88501
204.3585, 39.10477
204.8406, 38.96196
205.3227, 38.98222
205.8048, 39.42444
206.2870, 39.98365
206.7691, 40.40107
207.2512, 40.65113
207.7333, 40.96267
208.2154, 41.60891
208.6975, 42.64616
209.1797, 43.68483
209.6618, 44.85822
210.1439, 45.87867
210.6260, 46.59104
211.1081, 46.96244
211.5902, 47.02375
212.0724, 46.71778
212.5545, 45.83367
213.0366, 45.23645
213.5187, 45.06293
214.0008, 45.10909
214.4829, 45.29680
214.9651, 45.59347
215.4472, 45.96812
215.9293, 46.33068
216.4114, 46.44437
216.8935, 47.09229
217.3756, 48.81736
217.8578, 50.60514
218.3399, 51.81366
218.8220, 52.28032
219.3041, 52.22943
219.7862, 52.00275
220.2683, 51.71898
220.7505, 50.94708
221.2326, 49.41116
221.7147, 47.61563
222.1968, 45.90983
222.6789, 44.38801
223.1610, 42.97065
223.6432, 41.53679
224.1253, 40.02545
224.6074, 38.64532
225.0895, 37.35187
225.5716, 36.20756
226.0537, 35.35161
226.5358, 34.80116
227.0180, 34.32079
227.5001, 33.54327
227.9822, 32.28997
228.4643, 31.33808
228.9464, 30.71545
229.4285, 30.42632
229.9107, 30.67040
230.3928, 31.51420
230.8749, 32.36156
231.3570, 32.31077
231.8391, 31.25748
232.3212, 30.50595
232.8034, 30.41370
233.2855, 30.67269
233.7676, 30.93307
234.2497, 31.14198
234.7318, 31.29570
235.2139, 31.26624
235.6961, 31.08783
236.1782, 31.23231
236.6603, 32.16722
237.1424, 33.39177
237.6245, 34.11925
238.1066, 34.18657
238.5888, 33.98774
239.0709, 33.80085
239.5530, 33.62941
240.0351, 33.49690
240.5172, 33.36127
240.9993, 33.27946
241.4815, 33.38245
241.9636, 33.72507
242.4457, 34.13416
242.9278, 34.48280
243.4099, 34.80015
243.8920, 35.14857
244.3742, 35.54650
244.8563, 35.99326
245.3384, 36.51891
245.8205, 37.19660
246.3026, 37.78115
246.7847, 38.08996
247.2668, 38.22973
247.7490, 38.35087
248.2311, 38.46504
248.7132, 38.63115
249.1953, 39.04417
249.6774, 39.86703
250.1595, 40.60243
250.6417, 40.84144
251.1238, 40.92981
251.6059, 41.33789
252.0880, 42.34205
252.5701, 43.71621
253.0522, 44.93713
253.5344, 46.02828
254.0165, 46.88115
254.4986, 47.56261
254.9807, 48.00064
255.4628, 48.14502
255.9449, 47.98947
256.4271, 47.46563
256.9092, 46.34920
257.3913, 44.34227
257.8734, 42.28023
258.3555, 40.18112
258.8376, 38.19255
259.3198, 36.42335
259.8019, 34.92220
260.2840, 33.69121
260.7661, 32.78505
261.2482, 32.47232
261.7303, 31.97343
262.2125, 30.88948
262.6946, 29.77984
263.1767, 29.19366
263.6588, 29.27953
264.1409, 29.65821
264.6230, 29.64272
265.1052, 28.96823
265.5873, 28.39935
266.0694, 27.99635
266.5515, 27.67736
267.0336, 27.34933
267.5157, 27.00696
267.9979, 26.75821
268.4800, 26.79333
268.9621, 27.31723
269.4442, 27.68330
269.9263, 27.82824
270.4084, 27.89601
270.8906, 27.93771
271.3727, 27.98194
271.8548, 28.07663
272.3369, 28.29836
272.8190, 28.72831
273.3011, 29.00352
273.7833, 28.97939
274.2654, 28.95197
274.7475, 29.06854
275.2296, 29.34335
275.7117, 29.73613
276.1938, 30.23486
276.6760, 30.89668
277.1581, 31.29629
277.6402, 31.45377
278.1223, 31.40325
278.6044, 30.97390
279.0865, 30.30667
279.5686, 29.81563
280.0508, 29.86828
280.5329, 30.48076
281.0150, 30.82975
281.4971, 30.79978
281.9792, 30.68386
282.4613, 30.54751
282.9435, 30.40940
283.4256, 30.27558
283.9077, 30.14050
284.3898, 30.01764
284.8719, 30.04356
285.3540, 30.32445
285.8362, 30.60874
286.3183, 30.88783
286.8004, 31.11957
287.2825, 31.19209
287.7646, 31.02250
288.2467, 30.73068
288.7289, 30.74862
289.2110, 31.38354
289.6931, 31.92233
290.1752, 32.22115
290.6573, 32.36804
291.1394, 32.48558
291.6216, 32.62246
292.1037, 32.73707
292.5858, 32.72784
293.0679, 32.45735
293.5500, 32.33026
294.0321, 32.54142
294.5143, 32.84860
294.9964, 33.01478
295.4785, 32.97548
295.9606, 32.72767
296.4427, 32.20854
296.9248, 31.21799
297.4070, 30.59950
297.8891, 30.75095
298.3712, 31.06589
298.8533, 30.91608
299.3354, 30.23687
299.8175, 29.55089
300.2997, 29.43696
300.7818, 30.02685
301.2639, 30.27188
301.7460, 29.77509
302.2281, 29.24949
302.7102, 29.26229
303.1924, 29.77800
303.6745, 30.28875
304.1566, 30.40077
304.6387, 30.12703
305.1208, 29.94299
305.6029, 29.74037
306.0851, 29.71577
306.5672, 30.08468
307.0493, 30.73906
307.5314, 31.32115
308.0135, 31.60103
308.4956, 31.67744
308.9778, 31.98445
309.4599, 32.71936
309.9420, 33.39632
310.4241, 33.84706
310.9062, 34.13291
311.3883, 34.35865
311.8705, 34.56233
312.3526, 34.73983
312.8347, 34.87593
313.3168, 34.97243
313.7989, 35.03583
314.2810, 34.99126
314.7632, 34.94024
315.2453, 35.01898
315.7274, 35.26561
316.2095, 35.62838
316.6916, 36.06249
317.1737, 36.59749
317.6559, 37.07482
318.1380, 37.40604
318.6201, 37.71951
319.1022, 38.14003
319.5843, 38.68304
320.0664, 39.27275
320.5485, 39.84975
321.0306, 40.40980
321.5128, 40.94536
321.9949, 41.26286
322.4770, 41.71899
322.9591, 42.63807
323.4412, 43.94505
323.9233, 45.28361
324.4055, 46.44353
324.8876, 47.42131
325.3697, 48.18081
325.8518, 48.63024
326.3339, 49.00310
326.8160, 49.48783
327.2982, 49.96035
327.7803, 50.14473
328.2624, 49.90007
328.7445, 49.32133
329.2266, 48.65820
329.7087, 48.11835
330.1909, 47.15646
330.6730, 45.28710
331.1551, 43.07525
331.6372, 41.24335
332.1193, 40.00224
332.6014, 39.13184
333.0836, 38.34741
333.5657, 37.70336
334.0478, 36.98205
334.5299, 36.03764
335.0120, 35.10871
335.4941, 34.40585
335.9763, 33.94860
336.4584, 33.58893
336.9405, 33.19801
337.4226, 32.76980
337.9047, 32.37902
338.3868, 32.00567
338.8690, 31.67874
339.3511, 31.48237
339.8332, 31.35616
340.3153, 31.11248
340.7974, 30.61074
341.2795, 29.90948
341.7617, 29.39551
342.2438, 29.10257
342.7259, 28.92482
343.2080, 28.93301
343.6901, 29.01976
344.1722, 28.99997
344.6544, 28.79361
345.1365, 28.52534
345.6186, 28.46042
346.1007, 28.87951
346.5828, 29.07337
347.0649, 28.83139
347.5471, 28.48225
348.0292, 28.33419
348.5113, 28.43566
348.9934, 28.59719
349.4755, 28.57759
349.9576, 28.29020
350.4398, 28.19101
350.9219, 28.44400
351.4040, 28.70530
351.8861, 28.83328
352.3682, 28.81339
352.8503, 28.66968
353.3325, 28.41744
353.8146, 28.05878
354.2967, 27.60799
354.7788, 26.95146
355.2609, 26.33421
355.7430, 25.80089
356.2252, 25.34066
356.7073, 24.93543
357.1894, 24.57824
357.6715, 24.26189
358.1536, 23.96387
358.6357, 23.67659
359.1179, 23.42428
359.5999, 23.20335
360.0821, 23.01671
360.5642, 22.86944
361.0463, 22.76097
361.5284, 22.68440
362.0105, 22.61795
362.4926, 22.52778
362.9748, 22.58691
363.4569, 23.12391
363.9390, 23.49627
364.4211, 23.27656
364.9032, 22.63149
365.3853, 22.04406
365.8675, 21.88525
366.3496, 22.11229
366.8317, 22.32590
367.3138, 22.63570
367.7959, 22.77665
368.2780, 22.52653
368.7602, 22.14167
369.2423, 21.96277
369.7244, 22.14427
370.2065, 22.49399
370.6886, 22.60899
371.1707, 22.34835
371.6529, 22.20940
372.1350, 22.45576
372.6171, 22.70047
373.0992, 22.64164
373.5813, 22.26225
374.0634, 21.82495
374.5456, 21.63449
375.0277, 21.70876
375.5098, 21.63330
375.9919, 21.18888
376.4740, 20.82703
376.9561, 20.80363
377.4383, 21.01867
377.9204, 21.23908
378.4025, 21.35186
378.8846, 21.36798
379.3667, 21.30775
379.8488, 21.14709
380.3310, 20.97146
380.8131, 20.77663
381.2952, 20.60151
381.7773, 20.50401
382.2594, 20.51275
382.7415, 20.53559
383.2237, 20.42850
383.7058, 20.19270
384.1879, 20.08758
384.6700, 20.19038
385.1521, 20.44354
385.6342, 20.89407
386.1164, 21.50868
386.5985, 21.89766
387.0806, 21.60443
387.5627, 20.95043
388.0448, 20.76742
388.5269, 21.24028
389.0091, 21.78452
389.4912, 21.99295
389.9733, 21.95053
390.4554, 21.80616
390.9375, 21.46328
391.4196, 21.14484
391.9018, 21.08016
392.3839, 21.24699
392.8660, 21.44779
393.3481, 21.60739
393.8302, 21.74211
394.3123, 21.90707
394.7945, 22.15097
395.2766, 22.27589
395.7587, 22.03327
396.2408, 21.66300
396.7229, 21.61578
397.2050, 22.01189
397.6872, 22.53931
398.1693, 22.85037
398.6514, 22.91887
399.1335, 23.08471
399.6156, 23.47915
400.0977, 23.88311
400.5798, 24.12167
401.0620, 24.21901
401.5441, 24.32142
402.0262, 24.52518
402.5083, 24.80132
402.9904, 24.99740
403.4725, 25.08251
403.9547, 25.13986
404.4368, 25.18672
404.9189, 25.21365
405.4010, 25.23239
405.8831, 25.24195
406.3652, 25.17214
406.8474, 24.89345
407.3295, 24.25455
407.8116, 23.86242
408.2937, 23.88159
408.7758, 23.97091
409.2579, 23.93123
409.7401, 23.78437
410.2222, 23.67314
410.7043, 23.71301
411.1864, 23.87694
411.6685, 23.92467
412.1506, 23.68842
412.6328, 23.54090
413.1149, 23.57066
413.5970, 23.69994
414.0791, 23.85217
414.5612, 23.99894
415.0433, 24.14095
415.5255, 24.25667
416.0076, 24.29973
416.4897, 24.48163
416.9718, 25.04952
417.4539, 25.55822
417.9360, 25.68397
418.4182, 25.53423
418.9003, 25.50506
419.3824, 25.91520
419.8645, 26.67165
420.3466, 27.38584
420.8287, 28.08068
421.3109, 28.67245
421.7930, 29.11728
422.2751, 29.45038
422.7572, 29.67924
423.2393, 29.78811
423.7214, 29.87714
424.2036, 30.11876
424.6857, 30.49922
425.1678, 30.64901
425.6499, 30.34935
426.1320, 29.96355
426.6141, 29.86512
427.0963, 30.01519
427.5784, 30.10680
428.0605, 30.00887
428.5426, 29.77589
429.0247, 29.43272
429.5068, 28.96565
429.9890, 28.61486
430.4711, 28.60943
430.9532, 28.82054
431.4353, 28.80877
431.9174, 28.38690
432.3995, 28.01811
432.8817, 27.98703
433.3638, 28.17151
433.8459, 28.29205
434.3280, 28.24888
434.8101, 28.20666
435.2922, 28.42389
435.7744, 29.00101
436.2565, 29.42309
436.7386, 29.36740
437.2207, 29.39531
437.7028, 30.01967
438.1849, 31.13059
438.6671, 32.18998
439.1492, 32.81890
439.6313, 33.11395
440.1134, 33.62717
440.5955, 34.65062
441.0776, 35.53536
441.5598, 36.09467
442.0418, 36.53945
442.5240, 37.08612
443.0061, 37.78648
443.4882, 38.54411
443.9703, 39.22457
444.4524, 39.80430
444.9345, 40.42741
445.4167, 41.06036
445.8988, 41.77024
446.3809, 42.58326
446.8630, 43.48736
447.3451, 44.50500
447.8272, 45.67955
448.3094, 46.87537
448.7915, 47.67828
449.2736, 47.87008
449.7557, 48.29191
450.2378, 49.50713
450.7199, 50.79133
451.2021, 51.55116
451.6842, 51.74781
452.1663, 51.92527
452.6484, 52.55865
453.1305, 53.54437
453.6126, 54.43804
454.0948, 55.24613
454.5769, 55.87017
455.0590, 56.10469
455.5411, 56.12517
456.0232, 56.23976
456.5053, 56.61360
456.9875, 56.96428
457.4696, 57.09610
457.9517, 57.01191
458.4338, 56.69876
458.9159, 56.10356
459.3980, 55.36985
459.8802, 54.68968
460.3623, 54.05822
460.8444, 53.48161
461.3265, 52.95134
461.8086, 52.48529
462.2907, 52.11637
462.7729, 51.83552
463.2550, 51.57726
463.7371, 51.28103
464.2192, 50.97856
464.7013, 50.85036
465.1834, 51.12115
465.6656, 51.26777
466.1477, 51.26917
466.6298, 51.08416
467.1119, 50.69069
467.5940, 50.07436
468.0761, 49.20095
468.5583, 48.01585
469.0404, 46.47469
469.5225, 44.84007
470.0046, 42.90944
470.4867, 41.09461
470.9688, 39.55241
471.4510, 38.20845
471.9331, 36.93083
472.4152, 35.64921
472.8973, 34.44548
473.3794, 33.56310
473.8615, 33.15026
474.3437, 32.42371
474.8258, 30.73310
475.3079, 29.10551
475.7900, 28.25925
476.2721, 28.12351
476.7542, 28.07384
477.2364, 27.65834
477.7185, 27.08031
478.2006, 26.87245
478.6827, 27.11505
479.1648, 27.25097
479.6469, 26.86222
480.1291, 26.24744
480.6112, 25.97638
481.0933, 26.20767
481.5754, 26.40451
482.0575, 26.14601
482.5396, 25.70347
483.0217, 25.64264
483.5038, 26.08974
483.9860, 26.61736
484.4681, 26.80837
484.9502, 26.64477
485.4323, 26.59900
485.9144, 26.71332
486.3965, 26.89155
486.8787, 27.16389
487.3608, 27.45923
487.8429, 27.62717
488.3250, 27.60850
488.8071, 27.53151
489.2892, 27.63546
489.7714, 28.04474
490.2535, 28.33127
490.7356, 28.44462
491.2177, 28.50361
491.6998, 28.51973
492.1819, 28.53124
492.6641, 28.62142
493.1462, 28.86258
493.6283, 29.17389
494.1104, 29.32680
494.5925, 29.31678
495.0746, 29.15919
495.5568, 28.69759
496.0389, 28.20053
496.5210, 27.83560
497.0031, 27.62171
497.4852, 27.51276
497.9673, 27.49079
498.4495, 27.54969
498.9316, 27.71909
499.4137, 28.04583
499.8958, 28.27067
500.3779, 28.26874
500.8600, 28.04531
501.3422, 27.61583
501.8243, 26.88363
502.3064, 26.15729
502.7885, 25.65800
503.2706, 25.24780
503.7527, 24.62620
504.2349, 23.72686
504.7170, 22.81241
505.1991, 22.15820
505.6812, 21.77880
506.1633, 21.28938
506.6454, 20.47733
507.1276, 19.80266
507.6097, 19.44715
508.0918, 19.33380
508.5739, 19.39019
509.0560, 19.57943
509.5381, 19.78371
510.0203, 19.80783
510.5024, 19.59991
510.9845, 19.38938
511.4666, 19.07904
511.9487, 18.86355
512.4308, 18.85462
512.9130, 18.99350
513.3951, 19.17653
513.8772, 19.37020
514.3593, 19.52604
514.8414, 19.52732
515.3235, 19.34754
515.8057, 19.21581
516.2878, 19.20370
516.7699, 19.23804
517.2520, 19.27797
517.7341, 19.31564
518.2162, 19.30419
518.6984, 19.10641
519.1805, 18.91560
519.6626, 19.05880
520.1447, 19.50974
520.6268, 19.85956
521.1089, 19.89968
521.5911, 19.73884
522.0732, 19.59662
522.5553, 19.42591
523.0374, 19.39266
523.5195, 19.64696
524.0016, 19.96481
524.4838, 20.17544
524.9659, 20.25759
525.4480, 20.24124
525.9301, 20.14215
526.4122, 19.97017
526.8943, 19.76614
527.3765, 19.43163
527.8586, 19.21483
528.3407, 19.27383
528.8228, 19.35606
529.3049, 19.20882
529.7870, 18.83862
530.2692, 18.49248
530.7513, 18.41948
531.2334, 18.56157
531.7155, 18.55427
532.1976, 18.31968
532.6797, 18.11770
533.1619, 18.21437
533.6440, 18.32187
534.1261, 18.05205
534.6082, 17.28662
535.0903, 16.64565
535.5724, 16.59919
536.0546, 16.94903
536.5367, 17.30054
537.0188, 17.60891
537.5009, 17.88410
537.9830, 18.13116
538.4651, 18.34904
538.9473, 18.53603
539.4294, 18.74495
539.9115, 18.86125
540.3936, 18.74362
540.8757, 18.56754
541.3578, 18.54776
541.8400, 18.72528
542.3221, 19.00502
542.8042, 19.28195
543.2863, 19.55347
543.7684, 19.98713
544.2505, 20.89213
544.7326, 21.57976
545.2147, 21.67677
545.6968, 21.61307
546.1790, 21.92375
546.6611, 22.72256
547.1432, 23.57171
547.6253, 23.95019
548.1074, 23.90503
548.5895, 23.94374
549.0717, 24.05285
549.5538, 24.31719
550.0359, 24.87796
550.5180, 25.60542
551.0001, 26.32196
551.4822, 26.98145
551.9644, 27.66470
552.4465, 28.44094
552.9286, 29.27588
553.4107, 30.06535
553.8928, 30.78564
554.3749, 31.60416
554.8571, 32.66740
555.3392, 33.97767
555.8213, 35.41625
556.3034, 37.18033
556.7855, 38.81287
557.2676, 39.44942
557.7498, 40.25755
558.2319, 43.02809
558.7140, 44.28773
559.1961, 45.35190
559.6782, 46.23110
560.1603, 46.37120
560.6425, 47.46591
561.1246, 48.17789
561.6067, 48.29372
562.0888, 47.37999
562.5709, 45.93941
563.0530, 44.33706
563.5352, 42.65630
564.0173, 40.98531
564.4994, 39.40662
564.9815, 37.89853
565.4636, 36.29281
565.9457, 34.47882
566.4279, 33.04758
566.9100, 32.50625
567.3921, 32.66532
567.8742, 32.73873
568.3563, 32.70538
568.8384, 32.62321
569.3206, 32.34599
569.8027, 32.11398
570.2848, 32.31668
570.7669, 32.95450
571.2490, 33.60050
571.7311, 33.86365
572.2133, 33.79004
572.6954, 33.88144
573.1775, 34.41509
573.6596, 34.72802
574.1417, 34.62773
574.6238, 34.35688
575.1060, 34.09017
575.5881, 33.86744
576.0702, 33.68953
576.5523, 33.65124
577.0344, 33.65079
577.5165, 33.26931
577.9987, 32.43791
578.4808, 31.52198
578.9629, 30.59373
579.4450, 29.72782
579.9271, 28.99885
580.4092, 28.40112
580.8914, 27.99056
581.3735, 27.98768
581.8556, 28.05844
582.3377, 27.66648
582.8198, 26.90805
583.3019, 26.51862
583.7841, 26.98173
584.2662, 27.94992
584.7483, 28.45118
585.2304, 27.89353
585.7125, 27.85089
586.1946, 28.69294
586.6768, 29.68887
587.1589, 30.40720
587.6410, 30.88843
588.1231, 31.36300
588.6052, 31.95662
589.0873, 32.64006
589.5695, 33.39427
590.0516, 34.25460
590.5337, 34.93293
591.0158, 35.34261
591.4979, 35.58584
591.9800, 35.85539
592.4622, 36.07301
592.9443, 35.89327
593.4264, 35.09979
593.9085, 33.97218
594.3906, 32.67178
594.8727, 31.22730
595.3549, 29.68589
595.8370, 28.06157
596.3191, 26.40118
596.8012, 24.71440
597.2833, 22.94102
597.7654, 21.57378
598.2476, 20.83701
598.7297, 20.18192
599.2118, 19.31210
599.6939, 18.47773
600.1760, 18.06944
600.6581, 18.17444
601.1403, 18.43648
601.6224, 18.43362
602.1045, 18.18165
602.5866, 18.05385
603.0687, 18.07158
603.5508, 18.16794
604.0330, 18.29783
604.5151, 18.49630
604.9972, 18.84668
605.4793, 19.40219
605.9614, 19.89642
606.4435, 20.13263
606.9257, 20.26186
607.4078, 20.49925
607.8899, 20.85484
608.3720, 21.20531
608.8541, 21.45204
609.3362, 21.66935
609.8184, 22.10150
610.3005, 22.95730
610.7826, 23.72043
611.2647, 24.38665
611.7468, 24.96794
612.2289, 25.45862
612.7111, 25.87102
613.1932, 26.18533
613.6753, 26.33929
614.1574, 26.55456
614.6395, 27.36431
615.1216, 28.83573
615.6038, 30.04011
616.0859, 30.68360
616.5680, 31.20360
617.0501, 31.89649
617.5322, 32.76078
618.0143, 33.82741
618.4965, 35.27446
618.9786, 36.73071
619.4607, 37.98070
619.9428, 39.08196
620.4249, 40.14843
620.9070, 41.20665
621.3892, 42.20981
621.8713, 43.11679
622.3534, 43.93020
622.8355, 44.60283
623.3176, 45.22889
623.7997, 45.57141
624.2819, 45.66681
624.7640, 45.42395
625.2461, 44.64317
625.7282, 43.37319
626.2103, 42.01394
626.6924, 40.93518
627.1745, 39.96892
627.6566, 38.60946
628.1387, 36.81210
628.6208, 35.22928
629.1030, 34.15463
629.5851, 33.34218
630.0672, 32.40816
630.5493, 31.33749
631.0314, 30.41623
631.5135, 29.86248
631.9957, 29.29867
632.4778, 28.35381
632.9599, 27.23514
633.4420, 26.44053
633.9241, 26.14893
634.4063, 25.97736
634.8884, 25.33909
635.3705, 24.14030
635.8526, 23.24993
636.3347, 22.91599
636.8168, 22.55445
637.2990, 21.89866
637.7811, 21.13847
638.2632, 20.50655
638.7453, 20.05684
639.2274, 19.64602
639.7095, 19.16079
640.1917, 18.65861
640.6738, 18.21294
641.1559, 17.83523
641.6380, 17.58683
642.1201, 17.51476
642.6022, 17.57063
643.0844, 17.66222
643.5665, 17.92526
644.0486, 17.91957
644.5307, 17.36111
645.0128, 16.81048
645.4949, 16.59307
645.9771, 16.61610
646.4592, 16.65881
646.9413, 16.62518
647.4234, 16.55342
647.9055, 16.47087
648.3876, 16.37963
648.8698, 16.42662
649.3519, 16.73959
649.8340, 16.92044
650.3161, 16.55562
650.7982, 15.93265
651.2803, 15.65174
651.7625, 15.88410
652.2446, 16.11891
652.7267, 16.14834
653.2088, 16.08569
653.6909, 16.03223
654.1730, 15.62258
654.6552, 16.14662
655.1373, 16.47516
655.6194, 16.61870
656.1015, 16.02324
656.5836, 16.38206
657.0657, 16.35844
657.5479, 16.31917
658.0300, 16.81230
658.5121, 16.32432
658.9942, 16.80901
659.4763, 16.90543
659.9584, 17.17955
660.4406, 17.06889
660.9227, 17.07707
661.4048, 17.47016
661.8869, 17.65012
662.3690, 17.18879
662.8511, 17.19049
663.3333, 17.37301
663.8154, 17.68787
664.2975, 17.93014
664.7796, 18.20087
665.2617, 18.24886
665.7438, 17.69263
666.2260, 17.23687
666.7081, 17.50132
667.1902, 18.27252
667.6723, 18.91947
668.1544, 19.11750
668.6365, 19.04515
669.1187, 18.91616
669.6008, 18.73831
670.0829, 18.71049
670.5650, 18.90579
671.0471, 19.13651
671.5292, 19.30662
672.0114, 19.39649
672.4935, 19.35873
672.9756, 19.17926
673.4577, 18.89598
673.9398, 18.42333
674.4219, 17.91992
674.9041, 17.54574
675.3862, 17.29437
675.8683, 17.05898
676.3504, 16.77029
676.8325, 16.46651
677.3146, 16.23161
677.7968, 16.06562
678.2789, 15.97116
678.7610, 15.97363
679.2431, 16.01804
679.7252, 16.12641
680.2073, 16.24110
680.6895, 16.23606
681.1716, 16.05631
681.6537, 15.82767
682.1358, 15.63756
682.6179, 15.43545
683.1000, 15.09954
683.5822, 14.64923
684.0643, 14.26735
684.5464, 14.07195
685.0285, 14.02786
685.5106, 14.05496
685.9927, 14.25510
686.4749, 14.28691
686.9570, 13.90051
687.4391, 13.58090
687.9212, 13.63706
688.4033, 13.88850
688.8854, 13.97008
689.3676, 13.72870
689.8497, 13.46872
690.3318, 13.47816
690.8139, 13.64706
691.2960, 13.77105
691.7781, 13.82433
692.2603, 13.74010
692.7424, 13.43016
693.2245, 13.04060
693.7066, 12.97308
694.1887, 13.54740
694.6708, 13.79522
695.1530, 13.44699
695.6351, 13.07446
696.1172, 12.91806
696.5993, 12.93772
697.0814, 13.05712
697.5635, 13.25495
698.0457, 13.43944
698.5278, 13.49883
699.0099, 13.47103
699.4920, 13.49491
699.9741, 13.58552
700.4562, 13.62338
700.9384, 13.52851
701.4205, 13.36449
701.9026, 13.26066
702.3847, 13.22156
702.8668, 13.23921
703.3489, 13.43496
703.8311, 13.56163
704.3132, 13.43510
704.7953, 13.17958
705.2774, 12.96022
705.7595, 12.83898
706.2416, 12.85671
706.7238, 13.20927
707.2059, 13.75923
707.6880, 13.78371
708.1701, 13.17765
708.6522, 12.81044
709.1343, 13.17055
709.6164, 13.80458
710.0985, 13.97559
710.5806, 13.60804
711.0627, 13.36540
711.5449, 13.38974
712.0270, 13.44028
712.5091, 13.44960
712.9912, 13.39398
713.4733, 13.18044
713.9554, 12.82419
714.4376, 12.57983
714.9197, 12.77176
715.4018, 13.24481
715.8839, 13.33142
716.3660, 12.96120
716.8481, 12.73043
717.3303, 12.87274
717.8124, 13.15768
718.2945, 13.36029
718.7766, 13.48224
719.2587, 13.52080
719.7408, 13.37055
720.2230, 13.26021
720.7051, 13.33787
721.1872, 13.47087
721.6693, 13.47903
722.1514, 13.35925
722.6335, 13.28034
723.1157, 13.40809
723.5978, 13.20986
724.0799, 13.67277
724.5620, 13.94020
725.0441, 14.02265
725.5262, 13.36607
726.0084, 13.66380
726.4905, 13.57907
726.9726, 13.47867
727.4547, 13.91070
727.9368, 13.36162
728.4189, 13.78520
728.9011, 13.82052
729.3832, 14.03353
729.8653, 13.86175
730.3474, 13.80882
730.8295, 14.14081
731.3116, 14.25967
731.7938, 14.04359
732.2759, 14.26790
732.7580, 13.70537
733.2401, 13.83331
733.7222, 14.25915
734.2043, 14.06241
734.6865, 14.12226
735.1686, 14.06269
735.6507, 13.97323
736.1328, 13.84880
736.6149, 13.71421
737.0970, 13.51535
737.5792, 13.36231
738.0613, 13.34973
738.5434, 13.43567
739.0255, 13.53480
739.5076, 13.61702
739.9897, 13.70075
740.4719, 13.78783
740.9540, 13.88959
741.4361, 14.14937
741.9182, 14.63843
742.4003, 14.89408
742.8824, 14.61823
743.3646, 14.17453
743.8467, 14.07735
744.3288, 14.32972
744.8109, 14.47043
745.2930, 14.31881
745.7751, 14.21678
746.2573, 14.41480
746.7394, 14.67510
747.2215, 14.68514
747.7036, 14.42901
748.1857, 14.12836
748.6678, 13.92678
749.1500, 13.82551
749.6321, 13.88166
750.1142, 14.09506
750.5963, 14.15088
751.0784, 13.91496
751.5605, 13.72802
752.0427, 13.91680
752.5248, 14.39554
753.0069, 14.68539
753.4890, 14.72906
753.9711, 14.69155
754.4532, 14.53767
754.9354, 14.35840
755.4175, 14.15715
755.8996, 13.99335
756.3817, 13.98990
756.8638, 14.20504
757.3459, 14.50231
757.8281, 14.78213
758.3102, 15.01202
758.7923, 14.98562
759.2744, 14.67188
759.7565, 14.54300
760.2386, 14.90565
760.7208, 15.43152
761.2029, 15.53312
761.6850, 15.06533
762.1671, 14.76251
762.6492, 14.69168
763.1313, 14.69324
763.6135, 14.81462
764.0956, 14.92470
764.5777, 14.84935
765.0598, 14.58911
765.5419, 14.34144
766.0240, 14.18691
766.5062, 14.15943
766.9883, 14.40507
767.4704, 14.83899
767.9525, 15.11610
768.4346, 15.15572
768.9167, 14.96935
769.3989, 14.49174
769.8810, 13.83259
770.3631, 13.71455
770.8452, 14.63636
771.3273, 15.19134
771.8094, 15.04189
772.2916, 14.75332
772.7737, 14.53194
773.2558, 14.41119
773.7379, 14.43735
774.2200, 14.65242
774.7021, 14.88899
775.1843, 15.10130
775.6664, 15.23204
776.1485, 15.12243
776.6306, 14.83907
777.1127, 14.70106
777.5948, 14.85470
778.0770, 15.07286
778.5591, 14.99054
779.0412, 14.58723
779.5233, 14.31166
780.0054, 14.14654
780.4875, 14.14930
780.9697, 14.44652
781.4518, 14.84180
781.9339, 15.18658
782.4160, 15.47232
782.8981, 15.61761
783.3802, 15.54014
783.8624, 15.39023
784.3445, 15.19051
784.8266, 14.99184
785.3087, 14.87116
785.7908, 14.82440
786.2729, 14.76977
786.7551, 14.64230
787.2372, 14.51885
787.7193, 14.58837
788.2014, 14.84769
788.6835, 15.04028
789.1656, 15.13618
789.6478, 15.16117
790.1299, 15.06535
790.6120, 14.94812
791.0941, 15.07184
791.5762, 15.54040
792.0583, 15.92589
792.5404, 16.24648
793.0225, 16.43487
793.5046, 16.45008
793.9868, 16.32022
794.4689, 15.99111
794.9510, 15.49882
795.4331, 15.16627
795.9152, 15.35630
796.3973, 15.77133
796.8795, 15.89281
797.3616, 15.78410
797.8437, 15.78654
798.3258, 15.99168
798.8079, 15.82130
799.2900, 16.26190
799.7722, 16.50702
800.2543, 16.56715
800.7364, 15.88827
801.2185, 16.16367
801.7006, 16.05664
802.1827, 15.93393
802.6649, 16.34365
803.1470, 15.77225
803.6291, 16.17353
804.1112, 16.18653
804.5933, 16.37723
805.0754, 16.18314
805.5576, 16.10790
806.0397, 16.41758
806.5218, 16.51413
807.0039, 16.27574
807.4860, 16.47774
807.9681, 15.89290
808.4503, 15.99853
808.9324, 16.40205
809.4145, 15.80457
809.8966, 15.80496
810.3787, 15.97829
810.8608, 16.08888
811.3430, 16.59127
811.8251, 16.89816
812.3072, 17.02007
812.7893, 16.40297
813.2714, 16.74015
813.7535, 16.69490
814.2357, 16.63398
814.7178, 17.10547
815.1999, 16.59585
815.6820, 17.05891
816.1641, 17.13369
816.6462, 17.38617
817.1284, 17.25387
817.6105, 17.22996
818.0926, 16.87855
818.5747, 17.53509
819.0568, 17.99614
819.5389, 18.27218
820.0211, 17.80928
820.5032, 18.30058
820.9853, 18.40947
821.4674, 18.50267
821.9495, 19.12831
822.4316, 18.77279
822.9138, 19.39003
823.3959, 19.58721
823.8780, 19.60084
824.3601, 19.75942
824.8422, 20.02350
825.3243, 20.28368
825.8065, 20.51758
826.2886, 20.75497
826.7707, 21.05039
827.2528, 21.31941
827.7349, 21.47106
828.2170, 21.53720
828.6992, 21.58810
829.1813, 21.65184
829.6634, 21.73798
830.1455, 21.86163
830.6276, 22.01501
831.1097, 22.15440
831.5919, 22.28052
832.0740, 22.51337
832.5561, 22.91548
833.0382, 23.31862
833.5203, 23.58033
834.0024, 23.70078
834.4846, 23.70701
834.9667, 23.94806
835.4488, 24.10816
835.9309, 24.19165
836.4130, 23.96907
836.8951, 24.14171
837.3773, 24.15598
837.8594, 24.16374
838.3415, 24.39201
838.8236, 23.96791
839.3057, 23.87730
839.7878, 23.24337
840.2700, 23.15699
840.7521, 22.98975
841.2342, 22.74586
841.7163, 22.19590
842.1984, 22.04116
842.6805, 21.72807
843.1627, 21.40838
843.6448, 21.30930
844.1269, 20.80385
844.6090, 20.56677
845.0911, 20.52523
845.5732, 20.54888
846.0554, 20.18368
846.5375, 19.58016
847.0196, 19.17381
847.5017, 19.07058
847.9838, 18.92933
848.4659, 18.68971
848.9481, 18.48262
849.4302, 18.40306
849.9123, 18.35636
850.3944, 18.21333
850.8765, 17.96623
851.3586, 17.73726
851.8408, 17.53831
852.3229, 17.42990
852.8050, 17.60243
853.2871, 17.84311
853.7692, 17.70536
854.2513, 17.20469
854.7335, 16.77567
855.2156, 16.69709
855.6977, 16.82324
856.1798, 16.92035
856.6619, 16.98702
857.1440, 16.95380
857.6262, 16.79930
858.1083, 16.64448
858.5904, 16.55679
859.0725, 16.46964
859.5546, 16.27348
860.0367, 15.95225
860.5189, 15.35817
861.0010, 15.76033
861.4831, 15.96700
861.9652, 15.98870
862.4473, 15.27137
862.9294, 15.50834
863.4116, 15.36285
863.8937, 15.20170
864.3758, 15.57297
864.8579, 14.96313
865.3400, 15.32596
865.8221, 15.30053
866.3043, 15.45278
866.7864, 15.22024
867.2685, 15.10656
867.7506, 15.37779
868.2327, 15.43590
868.7148, 15.15907
869.1970, 15.32261
869.6791, 14.69934
870.1612, 14.76652
870.6433, 14.52532
871.1254, 14.53089
871.6075, 14.66331
872.0897, 14.80644
872.5718, 14.63991
873.0539, 15.04462
873.5360, 15.25384
874.0181, 15.27808
874.5002, 14.56331
874.9823, 14.80282
875.4644, 14.65989
875.9465, 14.50129
876.4286, 14.87511
876.9108, 14.26781
877.3929, 14.63319
877.8750, 14.61030
878.3571, 14.76511
878.8392, 14.53512
879.3214, 14.42398
879.8035, 14.69776
880.2856, 14.75841
880.7677, 14.48413
881.2498, 14.65023
881.7319, 14.02950
882.2141, 14.09922
882.6962, 14.46685
883.1783, 13.99022
883.6604, 14.49438
884.1425, 14.91240
884.6246, 15.00773
885.1068, 14.91164
885.5889, 14.74379
886.0710, 14.52138
886.5531, 14.38515
887.0352, 14.35423
887.5173, 14.34590
887.9995, 13.87248
888.4816, 14.33384
888.9637, 14.59971
889.4458, 14.68061
889.9279, 14.02248
890.4100, 14.31865
890.8922, 14.23238
891.3743, 14.13043
891.8564, 14.56090
892.3385, 14.01026
892.8206, 14.43230
893.3027, 14.46606
893.7849, 14.67752
894.2670, 14.50419
894.7491, 14.44970
895.2312, 14.78014
895.7133, 14.89744
896.1954, 14.67981
896.6776, 14.15518
897.1597, 13.86070
897.6418, 13.80054
898.1239, 14.03888
898.6060, 14.40104
899.0881, 14.71237
899.5703, 14.95335
900.0524, 15.01547
900.5345, 14.89366
901.0166, 14.64194
901.4987, 14.21116
901.9808, 13.89908
902.4630, 13.97359
902.9451, 14.33055
903.4272, 14.60383
903.9093, 14.74739
904.3914, 14.91847
904.8735, 15.22153
905.3557, 15.41954
905.8378, 15.35450
906.3199, 15.19438
906.8020, 15.08336
907.2841, 15.03810
907.7662, 15.12342
908.2484, 15.46011
908.7305, 15.79576
909.2126, 16.08373
909.6947, 16.27964
910.1768, 16.25477
910.6589, 16.11697
911.1411, 16.11565
911.6232, 16.34455
912.1053, 16.70168
912.5874, 17.29844
913.0695, 17.84530
913.5516, 17.71365
914.0338, 17.14957
914.5159, 16.96407
914.9980, 17.32358
915.4801, 17.77436
915.9622, 17.96477
916.4443, 18.00242
916.9265, 18.18241
917.4086, 18.50380
917.8907, 18.57340
918.3728, 18.29570
918.8549, 18.16538
919.3370, 18.41492
919.8192, 18.90268
920.3013, 19.47443
920.7834, 20.14072
921.2655, 20.60250
921.7476, 20.65645
922.2297, 20.85789
922.7119, 21.41898
923.1940, 22.01342
923.6761, 22.45655
924.1582, 22.79758
924.6403, 23.12747
925.1224, 23.43599
925.6046, 23.82183
926.0867, 24.27816
926.5688, 24.85235
927.0509, 25.69570
927.5330, 26.58772
928.0151, 27.22275
928.4973, 27.63005
928.9794, 28.10845
929.4615, 28.80287
929.9436, 29.60697
930.4257, 30.56886
930.9078, 31.50650
931.3900, 32.06288
931.8721, 32.35226
932.3542, 32.82208
932.8363, 33.60561
933.3184, 34.36889
933.8005, 34.75813
934.2827, 34.90220
934.7648, 35.23539
935.2469, 35.69960
935.7290, 35.61416
936.2111, 34.84203
936.6932, 34.23536
937.1754, 34.36240
937.6575, 34.71375
938.1396, 34.31601
938.6217, 33.09703
939.1038, 32.02735
939.5859, 31.17193
940.0681, 30.27684
940.5502, 29.20951
941.0323, 28.16468
941.5144, 27.32444
941.9965, 26.64278
942.4786, 25.91893
942.9608, 25.13460
943.4429, 24.34428
943.9250, 23.43819
944.4071, 22.65767
944.8892, 22.15967
945.3713, 21.79952
945.8535, 21.40033
946.3356, 20.96390
946.8177, 20.65253
947.2998, 20.69537
947.7819, 20.60047
948.2640, 19.96651
948.7462, 19.22918
949.2283, 18.71864
949.7104, 18.45626
950.1925, 18.46563
950.6746, 18.72665
951.1567, 18.92518
951.6389, 18.75120
952.1210, 18.44132
952.6031, 18.07280
953.0852, 18.36790
953.5673, 18.62171
954.0494, 18.83644
954.5316, 18.89521
955.0137, 19.15538
955.4958, 19.33483
955.9779, 19.51097
956.4600, 19.79952
956.9421, 19.88089
957.4242, 19.54205
957.9063, 20.10274
958.3884, 20.28101
958.8705, 20.44355
959.3527, 21.13863
959.8348, 20.85249
960.3169, 21.53906
960.7990, 22.67104
961.2811, 23.07351
961.7632, 22.96419
962.2454, 22.86039
962.7275, 22.94358
963.2096, 23.12663
963.6917, 23.36576
964.1738, 23.63942
964.6559, 23.70306
965.1381, 23.37527
965.6202, 23.13060
966.1023, 23.08958
966.5844, 23.01175
967.0665, 22.76645
967.5486, 22.43756
968.0308, 22.20475
968.5129, 22.07172
968.9950, 21.63694
969.4771, 20.41265
969.9592, 19.41051
970.4413, 19.10446
970.9235, 19.03566
971.4056, 18.93515
971.8877, 18.75187
972.3698, 18.40912
972.8519, 17.88553
973.3340, 17.50294
973.8162, 17.59044
974.2983, 17.73952
974.7804, 17.52334
975.2625, 17.21139
975.7446, 17.28769
976.2267, 17.66589
976.7089, 17.78569
977.1910, 17.36516
977.6731, 16.99623
978.1552, 17.50014
978.6373, 18.34078
979.1194, 18.60479
979.6016, 18.38836
980.0837, 17.92988
980.5658, 17.35009
981.0479, 17.06039
981.5300, 17.36882
982.0121, 17.92644
982.4943, 18.07258
982.9764, 17.90144
983.4585, 17.97750
983.9406, 18.30968
984.4227, 18.57491
984.9048, 18.66224
985.3870, 18.79962
985.8691, 19.23622
986.3512, 19.80648
986.8333, 19.90733
987.3154, 19.45477
987.7975, 19.23186
988.2797, 19.31253
988.7618, 19.49516
989.2439, 19.74286
989.7260, 19.97204
990.2081, 20.08443
990.6902, 20.08829
991.1724, 20.05597
991.6545, 19.92543
992.1366, 19.90072
992.6187, 19.97322
993.1008, 20.19210
993.5829, 20.74362
994.0651, 21.34113
994.5472, 21.50429
995.0293, 21.22135
995.5114, 21.22386
995.9935, 21.60625
996.4756, 22.15238
996.9578, 22.97593
997.4399, 23.80552
997.9220, 24.41856
998.4041, 24.97143
998.8862, 25.67854
999.3683, 26.56129
999.8505, 27.66967
1000.333, 29.14307
1000.815, 30.67121
1001.297, 32.23910
1001.779, 33.71530
1002.261, 34.94019
1002.743, 35.99837
1003.225, 37.01106
1003.707, 38.00305
1004.190, 39.20417
1004.672, 40.93137
1005.154, 42.67127
1005.636, 43.86007
1006.118, 45.04008
1006.600, 46.78518
1007.082, 49.14482
1007.564, 52.09045
1008.046, 55.62997
1008.529, 59.25248
1009.011, 62.18701
1009.493, 65.31236
1009.975, 69.89387
1010.457, 75.23405
1010.939, 80.16563
1011.421, 84.53394
1011.903, 88.78036
1012.385, 93.10680
1012.868, 97.06588
1013.350, 100.4040
1013.832, 102.8987
1014.314, 104.0282
1014.796, 103.9827
1015.278, 103.1227
1015.760, 101.6392
1016.242, 100.0757
1016.725, 98.74224
1017.207, 97.59547
1017.689, 96.49460
1018.171, 95.53538
1018.653, 95.07003
1019.135, 95.08981
1019.617, 95.39936
1020.099, 95.97609
1020.581, 97.35852
1021.064, 99.96032
1021.546, 103.3460
1022.028, 106.7343
1022.510, 110.1482
1022.992, 113.9815
1023.474, 118.2427
1023.956, 123.1123
1024.438, 128.7028
1024.921, 134.3157
1025.403, 139.5301
1025.885, 144.1882
1026.367, 147.9214
1026.849, 150.7163
1027.331, 152.8101
1027.813, 154.4838
1028.295, 153.7975
1028.777, 150.0368
1029.260, 144.4150
1029.742, 137.8733
1030.224, 130.2832
1030.706, 121.2781
1031.188, 110.4394
1031.670, 100.2327
1032.152, 90.61965
1032.634, 81.65864
1033.116, 73.26488
1033.599, 65.69284
1034.081, 59.11202
1034.563, 53.53294
1035.045, 49.00261
1035.527, 45.73772
1036.009, 42.77223
1036.491, 40.24439
1036.973, 37.74518
1037.456, 35.09701
1037.938, 32.54282
1038.420, 30.11960
1038.902, 27.98711
1039.384, 26.73618
1039.866, 26.79062
1040.348, 26.55631
1040.830, 25.87878
1041.313, 25.13505
1041.795, 24.29180
1042.277, 23.53369
1042.759, 23.07742
1043.241, 22.82418
1043.723, 22.44903
1044.205, 21.81171
1044.687, 21.42918
1045.169, 21.55170
1045.651, 21.62950
1046.134, 21.51907
1046.616, 21.29669
1047.098, 20.94635
1047.580, 20.54407
1048.062, 20.32919
1048.544, 20.44101
1049.026, 20.32399
1049.508, 19.66425
1049.991, 19.07891
1050.473, 18.78075
1050.955, 18.63150
1051.437, 18.52184
1051.919, 18.45796
1052.401, 18.51043
1052.883, 18.75590
1053.365, 18.81486
1053.848, 18.48076
1054.330, 18.10884
1054.812, 17.79508
1055.294, 17.53495
1055.776, 17.29833
1056.258, 17.11228
1056.740, 17.06354
1057.222, 17.19093
1057.704, 17.29521
1058.187, 17.32360
1058.669, 17.31361
1059.151, 17.30908
1059.633, 17.24777
1060.115, 16.98332
1060.597, 16.64213
1061.079, 16.53455
1061.561, 16.74637
1062.043, 16.89646
1062.526, 16.82009
1063.008, 16.69892
1063.490, 16.59841
1063.972, 16.50278
1064.454, 16.48129
1064.936, 16.42562
1065.418, 16.02435
1065.900, 15.20633
1066.383, 14.70019
1066.865, 15.12704
1067.347, 15.49062
1067.829, 15.25032
1068.311, 14.81976
1068.793, 14.45539
1069.275, 14.21675
1069.757, 14.19607
1070.240, 14.39534
1070.722, 14.50314
1071.204, 14.36262
1071.686, 14.13813
1072.168, 13.90546
1072.650, 13.62123
1073.132, 13.08178
1073.614, 12.53665
1074.096, 12.47353
1074.578, 12.92201
1075.061, 13.30725
1075.543, 13.39411
1076.025, 13.37270
1076.507, 13.24401
1076.989, 13.13234
1077.471, 13.18527
1077.953, 13.29576
1078.435, 13.30634
1078.918, 13.19349
1079.400, 12.97943
1079.882, 12.50963
1080.364, 12.28723
1080.846, 12.82217
1081.328, 13.40787
1081.810, 13.52212
1082.292, 13.37116
1082.774, 13.23572
1083.257, 13.15673
1083.739, 13.06666
1084.221, 12.89872
1084.703, 12.85130
1085.185, 13.09956
1085.667, 13.40514
1086.149, 13.69627
1086.631, 13.89581
1087.114, 13.86095
1087.596, 13.66215
1088.078, 13.55677
1088.560, 13.63359
1089.042, 13.73263
1089.524, 13.78352
1090.006, 13.84333
1090.488, 13.84366
1090.970, 13.95011
1091.453, 14.46082
1091.935, 15.19311
1092.417, 15.63098
1092.899, 15.62665
1093.381, 15.66906
1093.863, 15.96196
1094.345, 16.31197
1094.827, 16.66111
1095.309, 16.99977
1095.792, 17.41814
1096.274, 17.78532
1096.756, 17.79390
1097.238, 17.39471
1097.720, 17.12663
1098.202, 17.31584
1098.684, 17.44137
1099.166, 17.16650
1099.649, 16.93370
1100.131, 17.28457
1100.613, 17.75210
1101.095, 17.57651
1101.577, 16.72715
1102.059, 15.85895
1102.541, 14.91846
1103.023, 14.31820
1103.505, 14.35253
1103.988, 14.52071
1104.470, 14.65131
1104.952, 14.70292
1105.434, 14.65743
1105.916, 14.50716
1106.398, 14.19477
1106.880, 13.50304
1107.362, 13.14886
1107.844, 13.48109
1108.327, 13.86300
1108.809, 14.16145
1109.291, 14.32136
1109.773, 14.15550
1110.255, 13.83189
1110.737, 13.87689
1111.219, 14.47549
1111.701, 14.85783
1112.184, 14.57450
1112.666, 14.62163
1113.148, 15.55673
1113.630, 16.54268
1114.112, 16.87358
1114.594, 16.94275
1115.076, 17.57891
1115.558, 18.88152
1116.041, 19.72187
1116.523, 19.60565
1117.005, 19.87488
1117.487, 20.87126
1117.969, 21.98159
1118.451, 22.96298
1118.933, 23.85381
1119.415, 24.60829
1119.897, 25.27271
1120.380, 26.46801
1120.862, 28.58808
1121.344, 30.23055
1121.826, 31.09469
1122.308, 32.05301
1122.790, 33.52318
1123.272, 35.01908
1123.754, 36.10929
1124.236, 36.83441
1124.719, 37.34113
1125.201, 37.65957
1125.683, 37.56940
1126.165, 36.96752
1126.647, 36.36684
1127.129, 35.92688
1127.611, 35.35762
1128.093, 34.39370
1128.576, 33.34328
1129.058, 32.83577
1129.540, 32.83584
1130.022, 32.50958
1130.504, 31.84578
1130.986, 30.98401
1131.468, 29.93882
1131.950, 28.78778
1132.432, 27.56771
1132.915, 26.24830
1133.397, 24.75621
1133.879, 23.19606
1134.361, 21.95348
1134.843, 21.00366
1135.325, 20.19910
1135.807, 19.51623
1136.289, 18.72351
1136.771, 17.75261
1137.254, 16.91343
1137.736, 16.43064
1138.218, 16.18120
1138.700, 16.60275
1139.182, 16.82880
1139.664, 16.86987
1140.146, 16.17193
1140.628, 16.42827
1141.111, 16.30213
1141.593, 16.16035
1142.075, 16.55101
1142.557, 16.44705
1143.039, 16.56762
1143.521, 16.62990
1144.003, 16.86871
1144.485, 17.18146
1144.968, 17.33226
1145.450, 17.35481
1145.932, 17.48104
1146.414, 17.75980
1146.896, 17.89503
1147.378, 17.56129
1147.860, 17.24497
1148.342, 17.53975
1148.824, 18.00672
1149.307, 18.12366
1149.789, 18.02774
1150.271, 18.07675
1150.753, 18.25217
1151.235, 18.18618
1151.717, 17.69264
1152.199, 17.11680
1152.681, 16.55904
1153.163, 16.09757
1153.646, 15.77695
1154.128, 15.58610
1154.610, 15.59616
1155.092, 15.69943
1155.574, 15.60927
1156.056, 15.26096
1156.538, 15.15938
1157.020, 15.78764
1157.503, 16.19534
1157.985, 15.80657
1158.467, 15.45592
1158.949, 15.87631
1159.431, 16.47722
1159.913, 16.37862
1160.395, 15.65335
1160.877, 15.19796
1161.359, 15.08978
1161.842, 15.20590
1162.324, 15.91009
1162.806, 16.26358
1163.288, 15.73043
1163.770, 15.14583
1164.252, 15.21082
1164.734, 15.60086
1165.216, 15.57624
1165.698, 15.09519
1166.181, 14.76321
1166.663, 14.62564
1167.145, 14.48796
1167.627, 14.35084
1168.109, 14.09544
1168.591, 13.63583
1169.073, 13.12343
1169.555, 12.70964
1170.037, 12.41446
1170.520, 12.33935
1171.002, 12.47944
1171.484, 12.67753
1171.966, 12.91939
1172.448, 12.98899
1172.930, 12.82800
1173.412, 12.42811
1173.894, 11.75585
1174.377, 11.10145
1174.859, 10.95691
1175.341, 11.14107
1175.823, 11.11177
1176.305, 10.98767
1176.787, 11.22872
1177.269, 11.76294
1177.751, 12.02092
1178.234, 11.81995
1178.716, 11.53388
1179.198, 11.44772
1179.680, 11.41200
1180.162, 11.23978
1180.644, 11.04133
1181.126, 10.92229
1181.608, 10.89883
1182.090, 11.01060
1182.573, 11.23138
1183.055, 11.48617
1183.537, 11.77072
1184.019, 11.90854
1184.501, 11.65168
1184.983, 11.41703
1185.465, 11.52355
1185.947, 11.67062
1186.429, 11.52641
1186.912, 11.26202
1187.394, 11.22810
1187.876, 11.45171
1188.358, 11.64764
1188.840, 11.93684
1189.322, 11.93064
1189.804, 11.03867
1190.286, 10.57850
1190.769, 11.40911
1191.251, 12.40334
1191.733, 12.57880
1192.215, 12.21347
1192.697, 12.02388
1193.179, 12.03374
1193.661, 12.02257
1194.143, 11.98761
1194.625, 11.95043
1195.108, 11.93003
1195.590, 11.82224
1196.072, 11.54825
1196.554, 11.29247
1197.036, 11.27816
1197.518, 11.42766
1198.000, 11.47604
1198.482, 11.44996
1198.964, 11.64788
1199.447, 12.04055
1199.929, 12.23666
1200.411, 11.72441
1200.893, 12.16264
1201.375, 12.40538
1201.857, 12.46313
1202.339, 11.78188
1202.821, 12.05490
1203.304, 11.94548
1203.786, 11.82039
1204.268, 12.22773
1204.750, 11.65396
1205.232, 12.05286
1205.714, 12.06348
1206.196, 12.25181
1206.678, 12.05534
1207.161, 11.98095
1207.643, 12.03555
1208.125, 12.11262
1208.607, 12.16597
1209.089, 12.16605
1209.571, 12.02808
1210.053, 11.83216
1210.535, 11.73516
1211.017, 11.75567
1211.500, 11.96303
1211.982, 12.62035
1212.464, 13.07471
1212.946, 13.21505
1213.428, 13.16033
1213.910, 12.80426
1214.392, 12.45512
1214.874, 12.47505
1215.356, 12.68654
1215.839, 12.48308
1216.321, 11.76371
1216.803, 11.68896
1217.285, 12.39763
1217.767, 12.80087
1218.249, 12.69016
1218.731, 12.49898
1219.213, 12.42253
1219.696, 12.47995
1220.178, 12.73374
1220.660, 13.03638
1221.142, 12.92381
1221.624, 12.59653
1222.106, 12.85266
1222.588, 13.50890
1223.070, 13.79843
1223.552, 13.62425
1224.035, 13.34385
1224.517, 13.12371
1224.999, 12.94629
1225.481, 12.81493
1225.963, 12.69850
1226.445, 12.56084
1226.927, 12.43208
1227.409, 12.33968
1227.891, 12.28249
1228.374, 12.23892
1228.856, 12.21937
1229.338, 12.29850
1229.820, 12.55619
1230.302, 12.70776
1230.784, 12.58027
1231.266, 12.48665
1231.748, 12.49981
1232.231, 12.60812
1232.713, 12.90207
1233.195, 13.20250
1233.677, 13.26068
1234.159, 13.08824
1234.641, 12.74073
1235.123, 12.10454
1235.605, 11.86203
1236.088, 12.09649
1236.570, 12.37810
1237.052, 12.61796
1237.534, 12.63892
1238.016, 12.29559
1238.498, 11.92401
1238.980, 12.03770
1239.462, 12.44250
1239.944, 12.69466
1240.427, 12.77617
1240.909, 12.48848
1241.391, 11.99893
1241.873, 11.91287
1242.355, 12.30037
1242.837, 12.65664
1243.319, 12.72006
1243.801, 12.67277
1244.283, 12.69265
1244.766, 12.60925
1245.248, 11.98724
1245.730, 11.47550
1246.212, 11.92218
1246.694, 12.84664
1247.176, 13.44688
1247.658, 13.61606
1248.140, 13.41950
1248.622, 12.47178
1249.105, 12.00491
1249.587, 12.48314
1250.069, 12.79340
1250.551, 12.58232
1251.033, 12.33038
1251.515, 12.35884
1251.997, 12.46830
1252.479, 12.33735
1252.962, 12.03278
1253.444, 11.93725
1253.926, 12.04754
1254.408, 12.28688
1254.890, 12.62182
1255.372, 12.56680
1255.854, 12.04868
1256.336, 11.63956
1256.818, 11.67145
1257.301, 11.87181
1257.783, 11.98137
1258.265, 12.04374
1258.747, 12.16455
1259.229, 12.23773
1259.711, 12.05969
1260.193, 11.74521
1260.675, 11.43321
1261.157, 11.21644
1261.640, 11.36131
1262.122, 12.06523
1262.604, 12.54742
1263.086, 12.48325
1263.568, 12.27427
1264.050, 11.80302
1264.532, 11.50893
1265.014, 11.76559
1265.497, 12.22280
1265.979, 12.52158
1266.461, 12.66665
1266.943, 12.65522
1267.425, 12.45854
1267.907, 12.32450
1268.389, 12.25897
1268.871, 12.15019
1269.354, 11.97444
1269.836, 12.09543
1270.318, 12.68712
1270.800, 13.08381
1271.282, 12.54799
1271.764, 11.71721
1272.246, 11.64825
1272.728, 11.97449
1273.210, 12.06369
1273.693, 12.04207
1274.175, 12.25884
1274.657, 12.64163
1275.139, 12.81218
1275.621, 12.67912
1276.103, 12.60638
1276.585, 12.78549
1277.067, 12.98410
1277.549, 13.32965
1278.032, 13.42196
1278.514, 12.82671
1278.996, 12.12707
1279.478, 11.78866
1279.960, 11.72096
1280.442, 11.77628
1280.924, 11.94914
1281.406, 12.04924
1281.889, 12.05279
1282.371, 12.18721
1282.853, 12.47644
1283.335, 12.76999
1283.817, 13.02555
1284.299, 13.13272
1284.781, 13.01603
1285.263, 12.79199
1285.745, 12.57841
1286.228, 12.37483
##END=



