##NAMES=Pentahydrite
##RRUFFID=R060990
##IDEAL CHEMISTRY=MgS^6+^O_4_&#183;5H_2_O
##LOCALITY=Strassfurt, Prussia
##OWNER=RRUFF
##SOURCE=Michael Scott
##DESCRIPTION=Unconsolidated aggregate of colorless grains, mixed with starkeyite
##STATUS=The identification of this mineral has been made only by X-ray diffraction.
##URL=rruff.info/R060990
166.2601, 1319.215
166.7422, 1320.386
167.2243, 1320.336
167.7064, 1321.171
168.1885, 1325.079
168.6707, 1329.203
169.1528, 1330.946
169.6349, 1330.036
170.1170, 1329.727
170.5991, 1333.063
171.0812, 1338.475
171.5634, 1343.188
172.0455, 1345.816
172.5276, 1347.302
173.0097, 1348.412
173.4918, 1349.157
173.9739, 1349.907
174.4561, 1351.014
174.9382, 1352.387
175.4203, 1353.816
175.9024, 1356.010
176.3845, 1357.917
176.8666, 1357.814
177.3488, 1355.218
177.8309, 1351.799
178.3130, 1348.821
178.7951, 1346.367
179.2772, 1344.879
179.7593, 1345.639
180.2415, 1347.378
180.7236, 1347.327
181.2057, 1344.622
181.6878, 1341.368
182.1699, 1340.470
182.6520, 1341.680
183.1342, 1343.281
183.6163, 1343.496
184.0984, 1343.144
184.5805, 1344.991
185.0626, 1350.232
185.5447, 1356.506
186.0269, 1359.565
186.5090, 1359.501
186.9911, 1359.116
187.4732, 1360.382
187.9553, 1363.043
188.4374, 1365.799
188.9196, 1368.290
189.4017, 1370.950
189.8838, 1375.305
190.3659, 1381.531
190.8480, 1387.176
191.3301, 1389.552
191.8123, 1389.119
192.2944, 1390.352
192.7765, 1394.549
193.2586, 1400.725
193.7407, 1405.869
194.2228, 1409.900
194.7050, 1413.584
195.1871, 1417.135
195.6692, 1420.567
196.1513, 1425.562
196.6334, 1433.423
197.1155, 1442.841
197.5977, 1448.210
198.0798, 1448.704
198.5619, 1448.293
199.0440, 1450.814
199.5261, 1456.445
200.0082, 1462.133
200.4904, 1467.433
200.9725, 1472.257
201.4546, 1476.342
201.9367, 1479.789
202.4188, 1482.191
202.9009, 1482.544
203.3831, 1480.394
203.8652, 1479.327
204.3473, 1480.621
204.8294, 1483.982
205.3115, 1486.150
205.7936, 1487.024
206.2758, 1486.941
206.7579, 1486.088
207.2400, 1484.320
207.7221, 1482.455
208.2042, 1480.305
208.6863, 1477.924
209.1685, 1478.127
209.6506, 1482.197
210.1327, 1486.703
210.6148, 1487.183
211.0969, 1482.232
211.5790, 1478.114
212.0612, 1476.625
212.5433, 1477.832
213.0254, 1478.640
213.5075, 1478.302
213.9896, 1478.559
214.4717, 1482.241
214.9538, 1491.417
215.4360, 1498.347
215.9181, 1500.567
216.4002, 1497.725
216.8823, 1495.118
217.3644, 1492.271
217.8465, 1490.172
218.3287, 1490.357
218.8108, 1494.056
219.2929, 1497.197
219.7750, 1498.477
220.2571, 1497.582
220.7392, 1497.818
221.2214, 1499.827
221.7035, 1502.337
222.1856, 1503.659
222.6677, 1503.191
223.1498, 1502.798
223.6319, 1503.008
224.1141, 1503.897
224.5962, 1504.755
225.0783, 1505.515
225.5604, 1506.285
226.0425, 1507.274
226.5246, 1508.709
227.0068, 1509.890
227.4889, 1510.478
227.9710, 1510.313
228.4531, 1510.655
228.9352, 1511.641
229.4173, 1513.005
229.8995, 1514.501
230.3816, 1516.662
230.8637, 1517.993
231.3458, 1517.850
231.8279, 1515.914
232.3100, 1514.503
232.7922, 1513.325
233.2743, 1512.912
233.7564, 1514.195
234.2385, 1518.491
234.7206, 1522.140
235.2027, 1523.849
235.6849, 1523.125
236.1670, 1523.882
236.6491, 1527.197
237.1312, 1531.138
237.6133, 1533.223
238.0954, 1532.866
238.5776, 1531.694
239.0597, 1529.965
239.5418, 1527.609
240.0239, 1525.271
240.5060, 1522.905
240.9881, 1520.594
241.4703, 1518.449
241.9524, 1516.507
242.4345, 1514.664
242.9166, 1512.823
243.3987, 1510.905
243.8808, 1509.675
244.3630, 1509.591
244.8451, 1509.801
245.3272, 1509.199
245.8093, 1507.116
246.2914, 1505.502
246.7735, 1505.235
247.2557, 1506.634
247.7378, 1505.810
248.2199, 1501.342
248.7020, 1496.005
249.1841, 1493.017
249.6662, 1493.740
250.1484, 1494.059
250.6305, 1492.756
251.1126, 1489.670
251.5947, 1487.877
252.0768, 1488.095
252.5589, 1488.820
253.0411, 1488.523
253.5232, 1487.025
254.0053, 1484.860
254.4874, 1481.980
254.9695, 1478.361
255.4516, 1474.859
255.9338, 1471.338
256.4159, 1468.145
256.8980, 1465.702
257.3801, 1464.195
257.8622, 1463.087
258.3444, 1462.624
258.8265, 1462.760
259.3086, 1461.625
259.7907, 1458.715
260.2728, 1455.353
260.7549, 1452.611
261.2371, 1450.328
261.7192, 1449.169
262.2013, 1449.827
262.6834, 1451.985
263.1655, 1451.937
263.6476, 1448.206
264.1298, 1444.716
264.6119, 1445.137
265.0940, 1451.186
265.5761, 1455.168
266.0582, 1455.211
266.5403, 1452.159
267.0225, 1451.030
267.5046, 1452.430
267.9867, 1454.469
268.4688, 1455.814
268.9509, 1456.352
269.4330, 1456.728
269.9152, 1457.120
270.3973, 1457.383
270.8794, 1456.759
271.3615, 1454.927
271.8436, 1453.099
272.3257, 1452.293
272.8079, 1452.749
273.2900, 1452.599
273.7721, 1451.385
274.2542, 1449.659
274.7363, 1448.953
275.2184, 1449.340
275.7006, 1450.532
276.1827, 1452.740
276.6648, 1456.139
277.1469, 1458.619
277.6290, 1459.954
278.1111, 1460.395
278.5933, 1460.241
279.0754, 1459.338
279.5575, 1458.708
280.0396, 1459.048
280.5217, 1460.350
281.0038, 1461.403
281.4860, 1462.036
281.9681, 1462.555
282.4502, 1463.709
282.9323, 1465.556
283.4144, 1466.981
283.8965, 1467.055
284.3787, 1465.945
284.8608, 1465.690
285.3429, 1466.395
285.8250, 1467.767
286.3071, 1469.884
286.7892, 1472.719
287.2714, 1474.611
287.7535, 1473.995
288.2356, 1471.549
288.7177, 1471.371
289.1998, 1473.749
289.6819, 1476.842
290.1641, 1478.351
290.6462, 1478.479
291.1283, 1478.796
291.6104, 1479.975
292.0925, 1481.774
292.5746, 1483.550
293.0568, 1485.326
293.5389, 1486.908
294.0210, 1487.560
294.5031, 1487.681
294.9852, 1488.890
295.4673, 1492.043
295.9495, 1496.395
296.4316, 1501.140
296.9137, 1506.201
297.3958, 1509.848
297.8779, 1509.336
298.3600, 1506.201
298.8422, 1504.352
299.3243, 1505.360
299.8064, 1507.504
300.2885, 1508.261
300.7706, 1507.820
301.2527, 1507.513
301.7349, 1508.038
302.2170, 1509.389
302.6991, 1511.843
303.1812, 1516.233
303.6633, 1520.302
304.1454, 1521.156
304.6276, 1519.490
305.1097, 1517.792
305.5918, 1517.676
306.0739, 1518.333
306.5560, 1518.612
307.0381, 1517.997
307.5203, 1518.027
308.0024, 1520.595
308.4845, 1524.833
308.9666, 1528.704
309.4487, 1532.401
309.9308, 1534.588
310.4130, 1533.184
310.8951, 1527.306
311.3772, 1522.061
311.8593, 1521.307
312.3414, 1523.272
312.8235, 1525.115
313.3057, 1525.363
313.7878, 1525.398
314.2699, 1525.964
314.7520, 1527.101
315.2341, 1528.720
315.7162, 1530.712
316.1984, 1533.179
316.6805, 1536.207
317.1626, 1542.021
317.6447, 1546.389
318.1268, 1547.035
318.6089, 1544.145
319.0911, 1541.074
319.5732, 1537.547
320.0553, 1535.031
320.5374, 1534.683
321.0195, 1539.554
321.5016, 1543.613
321.9838, 1544.595
322.4659, 1543.297
322.9480, 1543.587
323.4301, 1548.346
323.9122, 1553.399
324.3943, 1556.374
324.8765, 1554.334
325.3586, 1554.127
325.8407, 1557.936
326.3228, 1564.068
326.8049, 1568.252
327.2870, 1569.015
327.7692, 1568.772
328.2513, 1568.019
328.7334, 1565.619
329.2155, 1565.381
329.6976, 1569.131
330.1797, 1574.447
330.6619, 1577.448
331.1440, 1576.344
331.6261, 1575.340
332.1082, 1575.491
332.5903, 1576.895
333.0724, 1578.788
333.5546, 1581.583
334.0367, 1584.507
334.5188, 1586.528
335.0009, 1586.860
335.4830, 1588.179
335.9651, 1591.474
336.4473, 1596.508
336.9294, 1599.785
337.4115, 1600.769
337.8936, 1601.064
338.3757, 1601.802
338.8578, 1602.996
339.3399, 1604.855
339.8221, 1607.965
340.3042, 1611.495
340.7863, 1611.932
341.2684, 1608.520
341.7505, 1605.890
342.2326, 1607.479
342.7148, 1613.238
343.1969, 1618.054
343.6790, 1621.436
344.1611, 1623.910
344.6432, 1626.244
345.1253, 1628.416
345.6075, 1630.268
346.0896, 1632.051
346.5717, 1633.483
347.0538, 1632.651
347.5359, 1629.039
348.0180, 1625.772
348.5002, 1627.603
348.9823, 1633.271
349.4644, 1637.598
349.9465, 1638.699
350.4286, 1637.326
350.9107, 1633.793
351.3929, 1628.236
351.8750, 1623.406
352.3571, 1621.815
352.8392, 1622.541
353.3213, 1624.128
353.8034, 1627.189
354.2856, 1629.620
354.7677, 1627.988
355.2498, 1623.429
355.7319, 1620.500
356.2140, 1623.260
356.6961, 1628.365
357.1783, 1632.555
357.6604, 1635.196
358.1425, 1636.974
358.6246, 1638.090
359.1067, 1638.623
359.5888, 1638.766
360.0710, 1638.096
360.5531, 1637.394
361.0352, 1636.949
361.5173, 1636.732
361.9994, 1637.228
362.4815, 1639.446
362.9637, 1642.167
363.4458, 1644.086
363.9279, 1645.008
364.4100, 1644.971
364.8921, 1643.676
365.3742, 1641.221
365.8564, 1638.784
366.3385, 1635.464
366.8206, 1632.943
367.3027, 1632.235
367.7848, 1636.525
368.2669, 1638.926
368.7491, 1637.410
369.2312, 1633.635
369.7133, 1632.509
370.1954, 1637.505
370.6775, 1641.422
371.1596, 1641.063
371.6418, 1633.941
372.1239, 1629.934
372.6060, 1630.681
373.0881, 1633.439
373.5702, 1634.020
374.0523, 1631.017
374.5345, 1629.089
375.0166, 1629.796
375.4987, 1633.080
375.9808, 1635.293
376.4629, 1635.889
376.9450, 1636.527
377.4272, 1639.307
377.9093, 1644.620
378.3914, 1648.053
378.8735, 1648.346
379.3556, 1646.635
379.8377, 1646.240
380.3199, 1647.263
380.8020, 1648.303
381.2841, 1648.383
381.7662, 1647.673
382.2483, 1646.935
382.7304, 1646.153
383.2126, 1645.704
383.6947, 1646.367
384.1768, 1647.958
384.6589, 1649.452
385.1410, 1649.784
385.6231, 1649.948
386.1053, 1652.260
386.5874, 1656.809
387.0695, 1660.768
387.5516, 1660.882
388.0337, 1658.928
388.5158, 1658.052
388.9980, 1660.175
389.4801, 1662.689
389.9622, 1662.849
390.4443, 1661.293
390.9264, 1660.694
391.4085, 1663.841
391.8907, 1667.801
392.3728, 1670.004
392.8549, 1669.188
393.3370, 1668.603
393.8191, 1669.666
394.3012, 1671.851
394.7834, 1674.274
395.2655, 1677.215
395.7476, 1679.842
396.2297, 1681.576
396.7118, 1682.207
397.1939, 1683.420
397.6761, 1686.310
398.1582, 1689.447
398.6403, 1691.636
399.1224, 1691.307
399.6045, 1691.783
400.0866, 1693.988
400.5688, 1697.504
401.0509, 1699.672
401.5330, 1699.350
402.0151, 1699.149
402.4972, 1700.373
402.9793, 1703.581
403.4615, 1706.979
403.9436, 1710.984
404.4257, 1714.817
404.9078, 1716.564
405.3899, 1715.365
405.8720, 1715.431
406.3542, 1718.727
406.8363, 1724.906
407.3184, 1729.243
407.8005, 1731.598
408.2826, 1732.716
408.7647, 1732.949
409.2469, 1732.359
409.7290, 1731.767
410.2111, 1730.911
410.6932, 1730.680
411.1753, 1733.613
411.6574, 1739.368
412.1396, 1744.802
412.6217, 1747.466
413.1038, 1748.495
413.5859, 1749.698
414.0680, 1751.094
414.5501, 1753.732
415.0323, 1760.200
415.5144, 1768.542
415.9965, 1775.080
416.4786, 1776.598
416.9607, 1776.790
417.4428, 1778.163
417.9250, 1780.686
418.4071, 1784.051
418.8892, 1789.279
419.3713, 1794.594
419.8534, 1798.266
420.3355, 1798.484
420.8177, 1799.455
421.2998, 1802.742
421.7819, 1807.773
422.2640, 1813.380
422.7461, 1820.785
423.2282, 1827.391
423.7104, 1832.191
424.1925, 1834.708
424.6746, 1837.124
425.1567, 1837.542
425.6388, 1839.091
426.1209, 1844.976
426.6031, 1859.935
427.0852, 1871.267
427.5673, 1875.675
428.0494, 1874.821
428.5315, 1877.982
429.0136, 1886.523
429.4958, 1895.959
429.9779, 1903.844
430.4600, 1909.982
430.9421, 1915.508
431.4242, 1920.076
431.9063, 1924.689
432.3885, 1931.253
432.8706, 1939.748
433.3527, 1947.709
433.8348, 1954.290
434.3169, 1959.723
434.7990, 1964.195
435.2812, 1967.699
435.7633, 1971.773
436.2454, 1978.170
436.7275, 1986.055
437.2096, 1993.937
437.6917, 2002.090
438.1739, 2008.796
438.6560, 2011.417
439.1381, 2011.026
439.6202, 2010.455
440.1023, 2009.902
440.5844, 2010.610
441.0666, 2014.716
441.5487, 2022.482
442.0308, 2028.607
442.5129, 2027.904
442.9950, 2025.410
443.4771, 2025.936
443.9593, 2035.804
444.4414, 2043.414
444.9235, 2044.740
445.4056, 2041.210
445.8877, 2038.014
446.3698, 2035.073
446.8520, 2033.259
447.3341, 2033.205
447.8162, 2035.771
448.2983, 2037.369
448.7804, 2038.219
449.2625, 2037.888
449.7447, 2035.609
450.2268, 2030.177
450.7089, 2025.577
451.1910, 2022.924
451.6731, 2021.753
452.1552, 2019.779
452.6374, 2017.112
453.1195, 2013.519
453.6016, 2008.518
454.0837, 2002.226
454.5658, 1996.024
455.0479, 1989.792
455.5301, 1984.551
456.0122, 1982.924
456.4943, 1984.189
456.9764, 1984.157
457.4585, 1981.223
457.9406, 1976.036
458.4228, 1968.839
458.9049, 1959.885
459.3870, 1951.073
459.8691, 1943.101
460.3512, 1936.409
460.8333, 1932.057
461.3155, 1931.217
461.7976, 1929.798
462.2797, 1925.151
462.7618, 1918.094
463.2439, 1910.136
463.7260, 1901.167
464.2082, 1891.979
464.6903, 1882.658
465.1724, 1873.230
465.6545, 1865.172
466.1366, 1859.676
466.6187, 1855.172
467.1009, 1850.670
467.5830, 1846.075
468.0651, 1841.467
468.5472, 1836.957
469.0293, 1832.463
469.5114, 1827.779
469.9936, 1822.912
470.4757, 1817.875
470.9578, 1812.487
471.4399, 1806.755
471.9220, 1801.905
472.4041, 1798.181
472.8863, 1794.749
473.3684, 1790.599
473.8505, 1785.770
474.3326, 1782.485
474.8147, 1781.610
475.2968, 1781.366
475.7790, 1777.929
476.2611, 1771.855
476.7432, 1766.975
477.2253, 1766.480
477.7074, 1767.889
478.1895, 1767.187
478.6717, 1764.313
479.1538, 1760.979
479.6359, 1757.904
480.1180, 1755.346
480.6001, 1753.782
481.0822, 1754.361
481.5644, 1754.257
482.0465, 1750.678
482.5286, 1745.383
483.0107, 1742.169
483.4928, 1744.707
483.9749, 1747.393
484.4571, 1747.908
484.9392, 1745.886
485.4213, 1743.499
485.9034, 1739.830
486.3855, 1736.554
486.8676, 1734.753
487.3498, 1734.637
487.8319, 1735.673
488.3140, 1738.508
488.7961, 1742.101
489.2782, 1743.862
489.7603, 1743.341
490.2425, 1742.405
490.7246, 1742.051
491.2067, 1742.098
491.6888, 1739.896
492.1709, 1735.050
492.6530, 1730.452
493.1352, 1729.411
493.6173, 1731.081
494.0994, 1731.780
494.5815, 1730.573
495.0636, 1728.862
495.5457, 1728.472
496.0279, 1729.117
496.5100, 1729.898
496.9921, 1730.150
497.4742, 1730.496
497.9563, 1731.965
498.4384, 1734.491
498.9206, 1736.005
499.4027, 1734.540
499.8848, 1732.113
500.3669, 1730.330
500.8490, 1729.740
501.3311, 1729.435
501.8133, 1729.028
502.2954, 1728.778
502.7775, 1729.182
503.2596, 1730.802
503.7417, 1732.498
504.2238, 1734.311
504.7060, 1736.218
505.1881, 1736.495
505.6702, 1733.819
506.1523, 1731.678
506.6344, 1733.211
507.1165, 1739.306
507.5987, 1742.204
508.0808, 1740.602
508.5629, 1737.315
509.0450, 1736.877
509.5271, 1739.078
510.0092, 1740.994
510.4914, 1741.415
510.9735, 1741.036
511.4556, 1741.207
511.9377, 1741.891
512.4199, 1742.723
512.9020, 1743.591
513.3841, 1744.404
513.8662, 1745.113
514.3483, 1745.765
514.8304, 1746.001
515.3126, 1745.209
515.7947, 1743.973
516.2768, 1743.027
516.7589, 1742.251
517.2410, 1742.120
517.7231, 1742.991
518.2053, 1744.691
518.6874, 1746.415
519.1695, 1747.901
519.6516, 1749.566
520.1337, 1751.841
520.6158, 1755.311
521.0980, 1756.754
521.5801, 1755.396
522.0622, 1753.050
522.5443, 1751.493
523.0264, 1750.867
523.5085, 1750.267
523.9907, 1749.550
524.4728, 1748.819
524.9549, 1747.879
525.4370, 1746.791
525.9191, 1746.963
526.4012, 1750.210
526.8834, 1754.984
527.3655, 1757.794
527.8476, 1758.635
528.3297, 1758.873
528.8118, 1759.093
529.2939, 1759.494
529.7761, 1760.359
530.2582, 1761.833
530.7403, 1763.524
531.2224, 1765.457
531.7045, 1767.388
532.1866, 1768.919
532.6688, 1770.113
533.1509, 1770.696
533.6330, 1769.856
534.1151, 1767.725
534.5972, 1767.583
535.0793, 1771.886
535.5615, 1775.610
536.0436, 1776.097
536.5257, 1772.165
537.0078, 1769.057
537.4899, 1766.456
537.9720, 1765.232
538.4542, 1767.456
538.9363, 1773.482
539.4184, 1777.501
539.9005, 1777.680
540.3826, 1775.735
540.8647, 1775.047
541.3469, 1775.522
541.8290, 1776.347
542.3111, 1777.685
542.7932, 1778.836
543.2753, 1778.090
543.7574, 1775.429
544.2396, 1773.806
544.7217, 1776.524
545.2038, 1780.658
545.6859, 1783.082
546.1680, 1781.707
546.6501, 1781.028
547.1323, 1783.041
547.6144, 1786.627
548.0965, 1789.873
548.5786, 1792.785
549.0607, 1794.988
549.5428, 1796.231
550.0250, 1796.605
550.5071, 1796.971
550.9892, 1797.138
551.4713, 1797.680
551.9534, 1799.386
552.4355, 1802.569
552.9177, 1803.381
553.3998, 1801.249
553.8819, 1798.547
554.3640, 1798.682
554.8461, 1801.011
555.3282, 1801.615
555.8104, 1798.616
556.2925, 1795.048
556.7746, 1795.079
557.2567, 1797.984
557.7388, 1801.517
558.2209, 1805.853
558.7031, 1809.336
559.1852, 1810.067
559.6673, 1808.149
560.1494, 1806.534
560.6315, 1807.461
561.1136, 1808.426
561.5958, 1807.467
562.0779, 1801.622
562.5600, 1799.176
563.0421, 1802.777
563.5242, 1808.695
564.0063, 1812.234
564.4885, 1812.228
564.9706, 1812.375
565.4527, 1813.069
565.9348, 1814.425
566.4169, 1817.222
566.8990, 1821.607
567.3812, 1825.867
567.8633, 1829.191
568.3454, 1831.660
568.8275, 1833.738
569.3096, 1835.411
569.7917, 1836.532
570.2739, 1836.623
570.7560, 1836.180
571.2381, 1835.901
571.7202, 1835.884
572.2023, 1836.246
572.6844, 1837.100
573.1666, 1838.396
573.6487, 1840.070
574.1308, 1842.987
574.6129, 1845.372
575.0950, 1846.640
575.5771, 1846.885
576.0593, 1846.714
576.5414, 1844.370
577.0235, 1843.852
577.5056, 1847.462
577.9877, 1855.895
578.4698, 1860.966
578.9520, 1861.644
579.4341, 1861.460
579.9162, 1864.022
580.3983, 1869.057
580.8804, 1872.428
581.3625, 1873.064
581.8447, 1873.325
582.3268, 1877.400
582.8089, 1883.843
583.2910, 1888.654
583.7731, 1888.586
584.2552, 1887.612
584.7373, 1889.090
585.2194, 1892.660
585.7015, 1896.960
586.1837, 1902.105
586.6658, 1907.189
587.1479, 1911.886
587.6300, 1916.143
588.1121, 1919.893
588.5942, 1922.195
589.0764, 1924.659
589.5585, 1928.450
590.0406, 1934.523
590.5227, 1939.502
591.0048, 1942.735
591.4869, 1945.533
591.9691, 1950.494
592.4512, 1957.743
592.9333, 1963.708
593.4154, 1967.165
593.8975, 1969.021
594.3796, 1970.768
594.8618, 1972.485
595.3439, 1974.679
595.8260, 1978.243
596.3081, 1982.095
596.7902, 1985.266
597.2723, 1987.692
597.7545, 1989.203
598.2366, 1989.547
598.7187, 1988.999
599.2008, 1987.613
599.6829, 1984.713
600.1650, 1982.434
600.6472, 1982.700
601.1293, 1982.988
601.6114, 1980.284
602.0935, 1972.840
602.5756, 1966.029
603.0577, 1960.386
603.5399, 1955.941
604.0220, 1953.098
604.5041, 1952.115
604.9862, 1950.419
605.4683, 1945.839
605.9504, 1939.984
606.4326, 1938.718
606.9147, 1941.631
607.3968, 1943.181
607.8789, 1937.018
608.3610, 1928.223
608.8431, 1923.182
609.3253, 1922.924
609.8074, 1924.135
610.2895, 1926.671
610.7716, 1928.940
611.2537, 1929.440
611.7358, 1926.835
612.2180, 1923.721
612.7001, 1919.279
613.1822, 1914.846
613.6643, 1912.791
614.1464, 1914.303
614.6285, 1915.835
615.1107, 1917.001
615.5928, 1917.509
616.0749, 1915.326
616.5570, 1910.188
617.0391, 1906.042
617.5212, 1905.859
618.0034, 1908.366
618.4855, 1910.541
618.9676, 1912.314
619.4497, 1913.137
619.9318, 1912.098
620.4139, 1910.068
620.8961, 1907.706
621.3782, 1904.533
621.8603, 1902.942
622.3424, 1905.357
622.8245, 1909.327
623.3066, 1912.037
623.7888, 1912.815
624.2709, 1912.502
624.7530, 1910.482
625.2351, 1907.626
625.7172, 1906.120
626.1993, 1906.375
626.6815, 1906.668
627.1636, 1906.584
627.6457, 1906.084
628.1278, 1904.514
628.6099, 1901.862
629.0920, 1900.177
629.5742, 1901.879
630.0563, 1905.127
630.5384, 1906.578
631.0205, 1906.053
631.5026, 1904.763
631.9847, 1903.784
632.4669, 1902.384
632.9490, 1899.494
633.4311, 1893.635
633.9132, 1889.465
634.3953, 1889.642
634.8774, 1891.623
635.3596, 1892.206
635.8417, 1890.271
636.3238, 1888.703
636.8059, 1887.755
637.2880, 1887.373
637.7701, 1887.991
638.2523, 1889.997
638.7344, 1889.901
639.2165, 1885.040
639.6986, 1877.810
640.1807, 1875.279
640.6628, 1877.063
641.1450, 1879.835
641.6271, 1882.659
642.1092, 1884.608
642.5913, 1883.870
643.0734, 1880.313
643.5555, 1877.670
644.0377, 1879.076
644.5198, 1881.273
645.0019, 1881.663
645.4840, 1878.449
645.9661, 1876.536
646.4482, 1876.552
646.9304, 1877.663
647.4125, 1879.216
647.8946, 1881.653
648.3767, 1882.940
648.8588, 1882.511
649.3409, 1881.223
649.8231, 1880.979
650.3052, 1881.606
650.7873, 1881.275
651.2694, 1878.253
651.7515, 1874.871
652.2336, 1875.214
652.7158, 1878.350
653.1979, 1880.898
653.6800, 1880.066
654.1621, 1878.821
654.6442, 1879.477
655.1263, 1882.134
655.6085, 1883.514
656.0906, 1881.923
656.5727, 1879.656
657.0548, 1877.632
657.5369, 1875.529
658.0190, 1875.355
658.5012, 1878.128
658.9833, 1880.941
659.4654, 1880.490
659.9475, 1876.924
660.4296, 1874.517
660.9117, 1874.047
661.3939, 1874.065
661.8760, 1872.369
662.3581, 1869.767
662.8402, 1868.218
663.3223, 1868.988
663.8044, 1870.124
664.2866, 1870.054
664.7687, 1869.364
665.2508, 1869.301
665.7329, 1870.953
666.2150, 1872.554
666.6971, 1873.814
667.1793, 1874.685
667.6614, 1874.593
668.1435, 1872.847
668.6256, 1871.611
669.1077, 1871.987
669.5898, 1873.792
670.0720, 1875.301
670.5541, 1876.581
671.0362, 1876.660
671.5183, 1873.578
672.0004, 1868.990
672.4825, 1866.696
672.9647, 1867.101
673.4468, 1867.746
673.9289, 1867.057
674.4110, 1865.578
674.8931, 1863.656
675.3752, 1860.365
675.8574, 1858.732
676.3395, 1861.311
676.8216, 1865.070
677.3037, 1866.489
677.7858, 1864.289
678.2679, 1862.721
678.7501, 1862.534
679.2322, 1863.010
679.7143, 1862.330
680.1964, 1860.548
680.6785, 1860.034
681.1606, 1862.408
681.6428, 1865.639
682.1249, 1865.944
682.6070, 1864.005
683.0891, 1862.304
683.5712, 1862.311
684.0533, 1862.852
684.5355, 1863.064
685.0176, 1862.977
685.4997, 1863.328
685.9818, 1863.811
686.4639, 1865.237
686.9460, 1868.494
687.4282, 1874.047
687.9103, 1876.871
688.3924, 1876.391
688.8745, 1874.566
689.3566, 1872.285
689.8387, 1869.660
690.3209, 1868.615
690.8030, 1869.377
691.2851, 1870.633
691.7672, 1871.097
692.2493, 1871.134
692.7314, 1871.291
693.2136, 1871.628
693.6957, 1872.338
694.1778, 1874.622
694.6599, 1876.956
695.1420, 1877.458
695.6241, 1873.515
696.1063, 1870.606
696.5884, 1869.643
697.0705, 1869.755
697.5526, 1869.063
698.0347, 1866.974
698.5168, 1866.689
698.9990, 1869.781
699.4811, 1874.330
699.9632, 1875.400
700.4453, 1873.459
700.9274, 1871.425
701.4095, 1870.302
701.8917, 1870.139
702.3738, 1872.047
702.8559, 1875.344
703.3380, 1876.854
703.8201, 1873.236
704.3022, 1869.270
704.7844, 1867.364
705.2665, 1867.775
705.7486, 1868.476
706.2307, 1869.770
706.7128, 1870.928
707.1949, 1871.500
707.6771, 1871.464
708.1592, 1871.346
708.6413, 1871.011
709.1234, 1871.415
709.6055, 1874.598
710.0876, 1878.953
710.5698, 1880.400
711.0519, 1878.133
711.5340, 1875.646
712.0161, 1875.145
712.4982, 1875.851
712.9803, 1877.010
713.4625, 1878.540
713.9446, 1880.282
714.4267, 1882.843
714.9088, 1885.207
715.3909, 1886.256
715.8730, 1885.525
716.3552, 1884.962
716.8373, 1885.026
717.3194, 1885.012
717.8015, 1883.340
718.2836, 1880.287
718.7657, 1877.960
719.2479, 1877.213
719.7300, 1877.177
720.2121, 1877.410
720.6942, 1877.562
721.1763, 1876.829
721.6584, 1872.769
722.1406, 1869.907
722.6227, 1871.426
723.1048, 1875.978
723.5869, 1878.132
724.0690, 1875.904
724.5511, 1874.094
725.0333, 1874.360
725.5154, 1876.160
725.9975, 1875.891
726.4796, 1873.258
726.9617, 1872.158
727.4438, 1876.647
727.9260, 1883.595
728.4081, 1886.172
728.8902, 1884.713
729.3723, 1882.107
729.8544, 1878.153
730.3365, 1875.218
730.8187, 1875.776
731.3008, 1880.308
731.7829, 1883.448
732.2650, 1882.515
732.7471, 1881.480
733.2292, 1882.438
733.7114, 1885.921
734.1935, 1888.023
734.6756, 1888.697
735.1577, 1888.171
735.6398, 1885.160
736.1219, 1880.961
736.6041, 1881.424
737.0862, 1887.570
737.5683, 1893.574
738.0504, 1893.958
738.5325, 1891.600
739.0146, 1889.752
739.4968, 1889.524
739.9789, 1888.686
740.4610, 1884.701
740.9431, 1880.932
741.4252, 1880.919
741.9073, 1886.854
742.3895, 1890.827
742.8716, 1891.822
743.3537, 1891.635
743.8358, 1893.104
744.3179, 1895.911
744.8000, 1897.499
745.2822, 1897.022
745.7643, 1895.849
746.2464, 1895.675
746.7285, 1895.897
747.2106, 1895.458
747.6927, 1893.161
748.1749, 1891.131
748.6570, 1890.003
749.1391, 1889.648
749.6212, 1889.671
750.1033, 1889.111
750.5854, 1891.045
751.0676, 1897.581
751.5497, 1905.675
752.0318, 1906.307
752.5139, 1899.733
752.9960, 1895.068
753.4781, 1897.057
753.9603, 1901.402
754.4424, 1901.785
754.9245, 1899.307
755.4066, 1897.170
755.8887, 1896.741
756.3708, 1897.132
756.8530, 1898.531
757.3351, 1900.571
757.8172, 1901.439
758.2993, 1899.890
758.7814, 1899.094
759.2635, 1900.479
759.7457, 1903.356
760.2278, 1903.635
760.7099, 1901.161
761.1920, 1899.151
761.6741, 1899.480
762.1563, 1901.362
762.6384, 1904.363
763.1205, 1908.032
763.6026, 1910.047
764.0847, 1907.825
764.5668, 1904.633
765.0490, 1902.301
765.5311, 1900.924
766.0132, 1899.711
766.4953, 1897.814
766.9774, 1897.297
767.4595, 1899.829
767.9417, 1905.208
768.4238, 1906.957
768.9059, 1904.759
769.3880, 1902.641
769.8701, 1904.353
770.3522, 1907.709
770.8344, 1908.201
771.3165, 1905.819
771.7986, 1904.395
772.2807, 1907.418
772.7628, 1911.185
773.2449, 1912.947
773.7271, 1911.911
774.2092, 1912.311
774.6913, 1916.071
775.1734, 1918.857
775.6555, 1917.631
776.1376, 1912.172
776.6198, 1908.160
777.1019, 1905.676
777.5840, 1903.983
778.0661, 1901.857
778.5482, 1900.337
779.0303, 1902.231
779.5125, 1908.018
779.9946, 1912.182
780.4767, 1909.567
780.9588, 1905.467
781.4409, 1903.933
781.9230, 1906.665
782.4052, 1908.100
782.8873, 1907.298
783.3694, 1906.396
783.8515, 1906.856
784.3336, 1908.640
784.8157, 1912.104
785.2979, 1917.517
785.7800, 1921.956
786.2621, 1922.380
786.7442, 1920.054
787.2263, 1916.149
787.7084, 1910.285
788.1906, 1906.685
788.6727, 1909.083
789.1548, 1913.435
789.6369, 1916.516
790.1190, 1917.845
790.6011, 1918.563
791.0833, 1918.374
791.5654, 1918.065
792.0475, 1918.476
792.5296, 1919.522
793.0117, 1920.211
793.4938, 1920.442
793.9760, 1920.389
794.4581, 1920.528
794.9402, 1920.337
795.4223, 1918.851
795.9044, 1915.418
796.3865, 1912.651
796.8687, 1911.086
797.3508, 1910.881
797.8329, 1912.416
798.3150, 1917.610
798.7971, 1919.196
799.2792, 1915.858
799.7614, 1911.961
800.2435, 1911.988
800.7256, 1915.380
801.2077, 1920.108
801.6898, 1926.304
802.1719, 1930.434
802.6541, 1927.190
803.1362, 1921.178
803.6183, 1917.530
804.1004, 1917.865
804.5825, 1918.590
805.0646, 1919.085
805.5468, 1919.543
806.0289, 1919.976
806.5110, 1920.128
806.9931, 1921.342
807.4752, 1923.761
807.9573, 1926.759
808.4395, 1930.673
808.9216, 1934.555
809.4037, 1935.674
809.8858, 1933.454
810.3679, 1930.169
810.8500, 1925.527
811.3322, 1921.737
811.8143, 1921.119
812.2964, 1925.723
812.7785, 1929.259
813.2606, 1931.280
813.7427, 1932.366
814.2249, 1933.136
814.7070, 1933.652
815.1891, 1931.806
815.6712, 1927.079
816.1533, 1923.257
816.6354, 1925.260
817.1176, 1930.189
817.5997, 1933.336
818.0818, 1933.748
818.5639, 1934.646
819.0460, 1938.650
819.5281, 1942.950
820.0103, 1945.327
820.4924, 1945.321
820.9745, 1944.922
821.4566, 1943.909
821.9387, 1942.915
822.4208, 1942.752
822.9030, 1943.138
823.3851, 1942.419
823.8672, 1940.477
824.3493, 1938.395
824.8314, 1936.964
825.3135, 1935.904
825.7957, 1934.912
826.2778, 1933.916
826.7599, 1933.405
827.2420, 1933.606
827.7241, 1934.305
828.2062, 1935.668
828.6884, 1937.852
829.1705, 1938.957
829.6526, 1938.910
830.1347, 1938.315
830.6168, 1936.809
831.0989, 1935.346
831.5811, 1936.322
832.0632, 1939.678
832.5453, 1942.762
833.0274, 1943.277
833.5095, 1943.532
833.9916, 1945.352
834.4738, 1949.084
834.9559, 1951.092
835.4380, 1951.000
835.9201, 1949.743
836.4022, 1946.645
836.8843, 1942.557
837.3665, 1944.202
837.8486, 1951.269
838.3307, 1957.740
838.8128, 1959.471
839.2949, 1958.814
839.7770, 1957.515
840.2592, 1955.803
840.7413, 1954.532
841.2234, 1954.092
841.7055, 1954.053
842.1876, 1954.338
842.6697, 1954.887
843.1519, 1955.167
843.6340, 1954.999
844.1161, 1955.787
844.5982, 1959.499
845.0803, 1963.531
845.5624, 1961.142
846.0446, 1954.204
846.5267, 1949.373
847.0088, 1952.402
847.4909, 1955.897
847.9730, 1955.948
848.4551, 1953.442
848.9373, 1952.081
849.4194, 1952.885
849.9015, 1952.657
850.3836, 1949.866
850.8657, 1946.456
851.3478, 1948.176
851.8300, 1954.050
852.3121, 1957.913
852.7942, 1956.171
853.2763, 1953.512
853.7584, 1954.524
854.2405, 1957.413
854.7227, 1959.033
855.2048, 1958.258
855.6869, 1956.291
856.1690, 1952.065
856.6511, 1947.719
857.1332, 1946.672
857.6154, 1949.115
858.0975, 1951.751
858.5796, 1954.071
859.0617, 1956.223
859.5438, 1958.468
860.0259, 1960.640
860.5081, 1962.521
860.9902, 1964.410
861.4723, 1965.104
861.9544, 1962.922
862.4365, 1960.023
862.9186, 1958.539
863.4008, 1958.703
863.8829, 1959.572
864.3650, 1961.191
864.8471, 1963.264
865.3292, 1966.193
865.8113, 1969.298
866.2935, 1970.189
866.7756, 1968.444
867.2577, 1967.289
867.7398, 1969.738
868.2219, 1973.081
868.7040, 1975.493
869.1862, 1976.966
869.6683, 1975.990
870.1504, 1970.805
870.6325, 1966.381
871.1146, 1966.853
871.5967, 1971.360
872.0789, 1971.731
872.5610, 1968.183
873.0431, 1964.832
873.5252, 1964.116
874.0073, 1965.236
874.4894, 1968.611
874.9716, 1973.803
875.4537, 1976.808
875.9358, 1974.972
876.4179, 1972.652
876.9000, 1970.671
877.3821, 1969.209
877.8643, 1969.547
878.3464, 1971.704
878.8285, 1973.339
879.3106, 1972.532
879.7927, 1971.458
880.2748, 1973.632
880.7570, 1977.856
881.2391, 1981.148
881.7212, 1982.125
882.2033, 1982.282
882.6854, 1981.703
883.1675, 1980.710
883.6497, 1979.437
884.1318, 1977.519
884.6139, 1978.014
885.0960, 1982.338
885.5781, 1987.108
886.0602, 1985.947
886.5424, 1981.758
887.0245, 1981.245
887.5066, 1988.427
887.9887, 1993.945
888.4708, 1992.555
888.9529, 1988.083
889.4351, 1984.203
889.9172, 1980.366
890.3993, 1979.294
890.8814, 1981.663
891.3635, 1984.877
891.8456, 1986.999
892.3278, 1987.948
892.8099, 1987.152
893.2920, 1984.575
893.7741, 1981.822
894.2562, 1978.992
894.7383, 1977.179
895.2205, 1977.602
895.7026, 1980.648
896.1847, 1982.528
896.6668, 1982.448
897.1489, 1983.180
897.6310, 1987.386
898.1132, 1993.330
898.5953, 1992.717
899.0774, 1986.583
899.5595, 1981.834
900.0416, 1983.448
900.5237, 1986.814
901.0059, 1989.269
901.4880, 1990.845
901.9701, 1992.093
902.4522, 1992.824
902.9343, 1993.696
903.4164, 1995.250
903.8986, 1996.560
904.3807, 1994.491
904.8628, 1989.845
905.3449, 1988.136
905.8270, 1992.181
906.3091, 1996.874
906.7913, 1997.553
907.2734, 1996.301
907.7555, 1995.808
908.2376, 1997.203
908.7197, 1998.674
909.2018, 2000.539
909.6840, 2002.004
910.1661, 2001.561
910.6482, 1999.546
911.1303, 2001.334
911.6124, 2007.633
912.0945, 2011.838
912.5767, 2003.897
913.0588, 1993.973
913.5409, 1993.503
914.0230, 2004.612
914.5051, 2011.843
914.9872, 2010.266
915.4694, 2007.971
915.9515, 2008.523
916.4336, 2011.403
916.9157, 2012.967
917.3978, 2013.210
917.8799, 2012.427
918.3621, 2009.499
918.8442, 2006.637
919.3263, 2006.966
919.8084, 2009.217
920.2905, 2009.719
920.7726, 2004.709
921.2548, 2001.486
921.7369, 2001.443
922.2190, 2003.589
922.7011, 2006.229
923.1832, 2009.342
923.6653, 2013.310
924.1475, 2018.986
924.6296, 2022.907
925.1117, 2019.835
925.5938, 2013.670
926.0759, 2009.370
926.5580, 2008.734
927.0402, 2008.090
927.5223, 2006.437
928.0044, 2005.291
928.4865, 2006.137
928.9686, 2008.943
929.4507, 2011.017
929.9329, 2012.312
930.4150, 2012.721
930.8971, 2010.793
931.3792, 2008.883
931.8613, 2009.418
932.3434, 2012.363
932.8256, 2016.092
933.3077, 2023.359
933.7898, 2026.951
934.2719, 2023.052
934.7540, 2014.627
935.2361, 2012.718
935.7183, 2016.885
936.2004, 2021.059
936.6825, 2023.108
937.1646, 2024.099
937.6467, 2025.098
938.1288, 2025.776
938.6110, 2025.605
939.0931, 2023.551
939.5752, 2021.877
940.0573, 2020.390
940.5394, 2019.799
941.0215, 2021.735
941.5037, 2025.793
941.9858, 2027.135
942.4679, 2025.162
942.9500, 2023.666
943.4321, 2026.571
943.9142, 2030.911
944.3964, 2034.143
944.8785, 2035.883
945.3606, 2037.794
945.8427, 2041.288
946.3248, 2042.494
946.8069, 2038.064
947.2891, 2030.424
947.7712, 2031.584
948.2533, 2040.115
948.7354, 2047.062
949.2175, 2046.946
949.6996, 2044.527
950.1818, 2041.579
950.6639, 2038.971
951.1460, 2038.836
951.6281, 2043.029
952.1102, 2046.319
952.5923, 2048.539
953.0745, 2049.136
953.5566, 2045.747
954.0387, 2039.977
954.5208, 2038.072
955.0029, 2041.351
955.4850, 2045.514
955.9672, 2049.178
956.4493, 2051.434
956.9314, 2050.914
957.4135, 2047.098
957.8956, 2045.276
958.3777, 2045.799
958.8599, 2047.361
959.3420, 2050.218
959.8241, 2053.173
960.3062, 2052.110
960.7883, 2048.061
961.2704, 2045.252
961.7526, 2047.233
962.2347, 2049.275
962.7168, 2048.247
963.1989, 2046.179
963.6810, 2047.539
964.1631, 2053.477
964.6453, 2057.488
965.1274, 2058.450
965.6095, 2057.604
966.0916, 2054.014
966.5737, 2050.530
967.0558, 2053.477
967.5380, 2065.427
968.0201, 2074.838
968.5022, 2076.155
968.9843, 2074.723
969.4664, 2073.525
969.9485, 2072.588
970.4307, 2070.169
970.9128, 2066.114
971.3949, 2064.477
971.8770, 2069.879
972.3591, 2077.508
972.8412, 2082.005
973.3234, 2083.928
973.8055, 2084.976
974.2876, 2083.894
974.7697, 2084.396
975.2518, 2087.451
975.7339, 2091.923
976.2161, 2095.811
976.6982, 2099.274
977.1803, 2104.182
977.6624, 2110.922
978.1445, 2118.219
978.6266, 2126.035
979.1088, 2133.250
979.5909, 2138.506
980.0730, 2141.133
980.5551, 2144.474
981.0372, 2148.781
981.5193, 2153.624
982.0015, 2159.070
982.4836, 2164.841
982.9657, 2170.017
983.4478, 2174.643
983.9299, 2178.935
984.4120, 2182.250
984.8942, 2186.053
985.3763, 2191.672
985.8584, 2198.149
986.3405, 2203.327
986.8226, 2206.248
987.3047, 2210.970
987.7869, 2217.762
988.2690, 2227.112
988.7511, 2239.186
989.2332, 2254.282
989.7153, 2273.164
990.1974, 2296.056
990.6796, 2321.134
991.1617, 2345.304
991.6438, 2374.180
992.1259, 2410.435
992.6080, 2453.247
993.0901, 2501.291
993.5723, 2554.591
994.0544, 2611.626
994.5365, 2672.275
995.0186, 2735.632
995.5007, 2803.023
995.9828, 2872.403
996.4650, 2941.541
996.9471, 3004.016
997.4292, 3072.777
997.9113, 3145.515
998.3934, 3228.790
998.8755, 3331.688
999.3577, 3453.602
999.8398, 3582.820
1000.322, 3720.122
1000.804, 3871.126
1001.286, 4047.962
1001.768, 4235.377
1002.250, 4425.271
1002.732, 4617.540
1003.215, 4804.609
1003.697, 4995.753
1004.179, 5151.393
1004.661, 5270.284
1005.143, 5331.081
1005.625, 5302.433
1006.107, 5188.061
1006.589, 4988.617
1007.072, 4669.109
1007.554, 4340.117
1008.036, 4004.124
1008.518, 3692.908
1009.000, 3426.846
1009.482, 3208.219
1009.964, 3024.563
1010.446, 2874.149
1010.928, 2749.459
1011.411, 2646.454
1011.893, 2562.874
1012.375, 2500.194
1012.857, 2455.551
1013.339, 2415.327
1013.821, 2376.819
1014.303, 2343.144
1014.785, 2315.130
1015.268, 2292.272
1015.750, 2274.739
1016.232, 2261.277
1016.714, 2247.558
1017.196, 2232.293
1017.678, 2218.567
1018.160, 2208.677
1018.642, 2200.738
1019.124, 2193.109
1019.607, 2185.686
1020.089, 2180.903
1020.571, 2179.293
1021.053, 2176.138
1021.535, 2167.084
1022.017, 2156.744
1022.499, 2151.856
1022.981, 2150.731
1023.464, 2149.552
1023.946, 2147.356
1024.428, 2144.483
1024.910, 2140.330
1025.392, 2136.306
1025.874, 2133.967
1026.356, 2133.238
1026.838, 2134.060
1027.320, 2136.412
1027.803, 2137.522
1028.285, 2134.656
1028.767, 2130.472
1029.249, 2126.193
1029.731, 2122.178
1030.213, 2120.459
1030.695, 2122.202
1031.177, 2121.489
1031.660, 2115.789
1032.142, 2108.637
1032.624, 2105.332
1033.106, 2104.786
1033.588, 2105.293
1034.070, 2107.118
1034.552, 2108.030
1035.034, 2105.621
1035.516, 2104.248
1035.999, 2107.350
1036.481, 2114.451
1036.963, 2119.540
1037.445, 2122.461
1037.927, 2122.433
1038.409, 2114.614
1038.891, 2107.795
1039.373, 2110.387
1039.855, 2118.226
1040.338, 2120.898
1040.820, 2115.443
1041.302, 2111.926
1041.784, 2111.295
1042.266, 2112.744
1042.748, 2117.321
1043.230, 2122.592
1043.712, 2123.653
1044.195, 2120.010
1044.677, 2116.493
1045.159, 2115.019
1045.641, 2113.898
1046.123, 2112.484
1046.605, 2111.042
1047.087, 2110.220
1047.569, 2110.083
1048.052, 2111.519
1048.534, 2115.833
1049.016, 2119.209
1049.498, 2117.621
1049.980, 2114.092
1050.462, 2111.836
1050.944, 2110.831
1051.426, 2112.309
1051.908, 2116.936
1052.391, 2121.214
1052.873, 2123.228
1053.355, 2123.241
1053.837, 2120.300
1054.319, 2115.669
1054.801, 2113.320
1055.283, 2118.683
1055.765, 2120.942
1056.247, 2116.870
1056.730, 2110.743
1057.212, 2108.175
1057.694, 2108.783
1058.176, 2110.225
1058.658, 2112.273
1059.140, 2113.990
1059.622, 2114.514
1060.104, 2114.584
1060.587, 2114.603
1061.069, 2114.589
1061.551, 2114.373
1062.033, 2113.770
1062.515, 2114.345
1062.997, 2117.260
1063.479, 2119.836
1063.961, 2116.615
1064.443, 2111.542
1064.926, 2110.917
1065.408, 2118.099
1065.890, 2123.005
1066.372, 2123.941
1066.854, 2123.749
1067.336, 2123.534
1067.818, 2123.622
1068.300, 2125.985
1068.782, 2129.998
1069.265, 2133.023
1069.747, 2132.654
1070.229, 2132.269
1070.711, 2135.180
1071.193, 2137.607
1071.675, 2133.392
1072.157, 2121.276
1072.639, 2118.811
1073.122, 2127.454
1073.604, 2137.098
1074.086, 2139.456
1074.568, 2138.817
1075.050, 2138.028
1075.532, 2137.610
1076.014, 2139.591
1076.496, 2145.864
1076.979, 2149.495
1077.461, 2148.562
1077.943, 2145.611
1078.425, 2143.563
1078.907, 2142.503
1079.389, 2142.790
1079.871, 2144.610
1080.353, 2146.628
1080.835, 2147.682
1081.318, 2149.779
1081.800, 2154.417
1082.282, 2160.469
1082.764, 2163.019
1083.246, 2162.603
1083.728, 2162.153
1084.210, 2162.387
1084.692, 2163.702
1085.174, 2167.768
1085.656, 2172.138
1086.139, 2174.332
1086.621, 2174.031
1087.103, 2173.171
1087.585, 2171.645
1088.067, 2171.104
1088.549, 2173.333
1089.031, 2176.604
1089.513, 2179.504
1089.996, 2181.917
1090.478, 2183.515
1090.960, 2183.247
1091.442, 2184.210
1091.924, 2186.966
1092.406, 2190.086
1092.888, 2191.530
1093.370, 2192.263
1093.853, 2195.374
1094.335, 2200.662
1094.817, 2203.306
1095.299, 2196.710
1095.781, 2192.938
1096.263, 2196.963
1096.745, 2204.781
1097.227, 2207.540
1097.709, 2205.990
1098.192, 2204.424
1098.674, 2203.641
1099.156, 2203.453
1099.638, 2204.430
1100.120, 2205.389
1100.602, 2205.285
1101.084, 2204.247
1101.566, 2203.773
1102.048, 2203.868
1102.531, 2204.220
1103.013, 2204.743
1103.495, 2205.362
1103.977, 2206.339
1104.459, 2207.193
1104.941, 2207.198
1105.423, 2205.829
1105.905, 2204.868
1106.388, 2204.353
1106.870, 2204.111
1107.352, 2203.697
1107.834, 2203.670
1108.316, 2205.565
1108.798, 2208.732
1109.280, 2211.379
1109.762, 2213.025
1110.245, 2213.848
1110.727, 2213.661
1111.209, 2213.068
1111.691, 2212.574
1112.173, 2212.202
1112.655, 2212.462
1113.137, 2213.205
1113.619, 2212.840
1114.101, 2208.704
1114.583, 2205.388
1115.066, 2205.113
1115.548, 2206.652
1116.030, 2208.477
1116.512, 2210.489
1116.994, 2209.992
1117.476, 2206.392
1117.958, 2202.714
1118.440, 2201.646
1118.923, 2201.154
1119.405, 2199.777
1119.887, 2197.562
1120.369, 2194.867
1120.851, 2191.439
1121.333, 2189.939
1121.815, 2191.715
1122.297, 2193.837
1122.780, 2193.508
1123.262, 2191.387
1123.744, 2187.920
1124.226, 2182.759
1124.708, 2178.559
1125.190, 2175.127
1125.672, 2173.495
1126.154, 2174.813
1126.636, 2177.368
1127.119, 2177.786
1127.601, 2177.182
1128.083, 2177.753
1128.565, 2180.694
1129.047, 2183.784
1129.529, 2188.028
1130.011, 2190.168
1130.493, 2186.260
1130.975, 2178.836
1131.458, 2176.360
1131.940, 2178.091
1132.422, 2181.222
1132.904, 2187.174
1133.386, 2190.713
1133.868, 2189.167
1134.350, 2186.303
1134.832, 2185.916
1135.315, 2187.734
1135.797, 2189.476
1136.279, 2191.030
1136.761, 2192.128
1137.243, 2192.767
1137.725, 2192.744
1138.207, 2191.048
1138.689, 2189.021
1139.172, 2188.558
1139.654, 2189.638
1140.136, 2194.533
1140.618, 2203.813
1141.100, 2211.316
1141.582, 2210.901
1142.064, 2207.887
1142.546, 2205.015
1143.028, 2203.028
1143.510, 2204.371
1143.993, 2209.517
1144.475, 2214.801
1144.957, 2219.556
1145.439, 2223.319
1145.921, 2224.483
1146.403, 2225.020
1146.885, 2227.216
1147.367, 2231.418
1147.850, 2234.895
1148.332, 2237.513
1148.814, 2239.925
1149.296, 2242.611
1149.778, 2244.605
1150.260, 2242.084
1150.742, 2239.026
1151.224, 2242.537
1151.707, 2256.438
1152.189, 2264.524
1152.671, 2263.953
1153.153, 2262.194
1153.635, 2262.481
1154.117, 2264.005
1154.599, 2265.054
1155.081, 2266.078
1155.563, 2268.018
1156.046, 2271.196
1156.528, 2275.569
1157.010, 2282.930
1157.492, 2288.254
1157.974, 2286.999
1158.456, 2281.632
1158.938, 2280.630
1159.420, 2282.711
1159.902, 2283.766
1160.385, 2280.147
1160.867, 2278.267
1161.349, 2280.809
1161.831, 2283.690
1162.313, 2282.962
1162.795, 2279.329
1163.277, 2277.508
1163.759, 2277.043
1164.242, 2275.141
1164.724, 2268.172
1165.206, 2262.111
1165.688, 2258.907
1166.170, 2257.770
1166.652, 2259.128
1167.134, 2262.446
1167.616, 2261.892
1168.099, 2257.339
1168.581, 2251.211
1169.063, 2241.630
1169.545, 2234.638
1170.027, 2235.269
1170.509, 2239.380
1170.991, 2241.335
1171.473, 2241.148
1171.955, 2237.252
1172.438, 2229.417
1172.920, 2223.284
1173.402, 2224.351
1173.884, 2227.213
1174.366, 2229.013
1174.848, 2229.755
1175.330, 2229.353
1175.812, 2227.759
1176.294, 2226.409
1176.777, 2225.553
1177.259, 2224.618
1177.741, 2223.792
1178.223, 2222.128
1178.705, 2217.037
1179.187, 2210.232
1179.669, 2210.674
1180.151, 2219.047
1180.634, 2223.530
1181.116, 2220.711
1181.598, 2216.625
1182.080, 2217.062
1182.562, 2218.763
1183.044, 2219.152
1183.526, 2218.026
1184.008, 2214.475
1184.490, 2207.974
1184.973, 2203.644
1185.455, 2202.822
1185.937, 2205.552
1186.419, 2215.920
1186.901, 2227.315
1187.383, 2232.241
1187.865, 2229.925
1188.347, 2225.064
1188.829, 2217.017
1189.312, 2212.333
1189.794, 2215.050
1190.276, 2218.965
1190.758, 2215.888
1191.240, 2210.583
1191.722, 2209.172
1192.204, 2212.981
1192.686, 2215.961
1193.169, 2218.049
1193.651, 2219.572
1194.133, 2220.909
1194.615, 2221.406
1195.097, 2219.206
1195.579, 2216.160
1196.061, 2215.280
1196.543, 2217.827
1197.026, 2218.307
1197.508, 2216.453
1197.990, 2214.221
1198.472, 2212.295
1198.954, 2211.121
1199.436, 2212.691
1199.918, 2214.906
1200.400, 2213.959
1200.882, 2207.714
1201.365, 2203.407
1201.847, 2200.879
1202.329, 2201.093
1202.811, 2206.969
1203.293, 2213.835
1203.775, 2216.148
1204.257, 2215.309
1204.739, 2213.738
1205.221, 2210.088
1205.704, 2210.938
1206.186, 2217.367
1206.668, 2222.507
1207.150, 2218.634
1207.632, 2213.052
1208.114, 2215.943
1208.596, 2223.337
1209.078, 2225.675
1209.561, 2219.629
1210.043, 2215.981
1210.525, 2215.270
1211.007, 2215.706
1211.489, 2215.921
1211.971, 2216.506
1212.453, 2218.699
1212.935, 2221.734
1213.417, 2223.375
1213.900, 2222.731
1214.382, 2223.520
1214.864, 2226.258
1215.346, 2228.167
1215.828, 2226.776
1216.310, 2223.456
1216.792, 2217.404
1217.274, 2210.794
1217.756, 2210.513
1218.239, 2219.124
1218.721, 2224.400
1219.203, 2225.240
1219.685, 2224.770
1220.167, 2226.448
1220.649, 2227.550
1221.131, 2223.550
1221.613, 2216.930
1222.096, 2215.636
1222.578, 2221.386
1223.060, 2225.440
1223.542, 2226.906
1224.024, 2227.407
1224.506, 2228.649
1224.988, 2229.299
1225.470, 2227.737
1225.953, 2224.539
1226.435, 2221.751
1226.917, 2219.210
1227.399, 2218.005
1227.881, 2218.238
1228.363, 2219.687
1228.845, 2222.805
1229.327, 2226.433
1229.809, 2230.582
1230.292, 2234.296
1230.774, 2234.706
1231.256, 2231.448
1231.738, 2230.146
1232.220, 2231.669
1232.702, 2232.297
1233.184, 2226.948
1233.666, 2221.672
1234.148, 2221.722
1234.631, 2224.937
1235.113, 2225.543
1235.595, 2223.493
1236.077, 2223.896
1236.559, 2227.491
1237.041, 2230.821
1237.523, 2231.145
1238.005, 2230.588
1238.488, 2229.925
1238.970, 2229.489
1239.452, 2229.833
1239.934, 2230.949
1240.416, 2234.098
1240.898, 2239.446
1241.380, 2242.237
1241.862, 2234.652
1242.344, 2229.088
1242.827, 2233.258
1243.309, 2242.006
1243.791, 2246.037
1244.273, 2245.839
1244.755, 2242.593
1245.237, 2236.499
1245.719, 2234.042
1246.201, 2244.153
1246.683, 2251.892
1247.166, 2251.013
1247.648, 2245.719
1248.130, 2242.625
1248.612, 2241.540
1249.094, 2242.113
1249.576, 2244.265
1250.058, 2246.710
1250.540, 2250.170
1251.023, 2251.974
1251.505, 2251.074
1251.987, 2248.861
1252.469, 2247.071
1252.951, 2245.791
1253.433, 2245.016
1253.915, 2244.784
1254.397, 2246.015
1254.880, 2251.042
1255.362, 2253.859
1255.844, 2252.669
1256.326, 2250.173
1256.808, 2250.353
1257.290, 2251.714
1257.772, 2251.504
1258.254, 2249.670
1258.736, 2248.571
1259.219, 2248.489
1259.701, 2249.302
1260.183, 2251.099
1260.665, 2253.476
1261.147, 2256.402
1261.629, 2259.313
1262.111, 2262.011
1262.593, 2264.155
1263.075, 2263.800
1263.558, 2260.070
1264.040, 2257.106
1264.522, 2255.474
1265.004, 2255.365
1265.486, 2258.427
1265.968, 2261.858
1266.450, 2262.765
1266.932, 2261.634
1267.415, 2261.407
1267.897, 2262.190
1268.379, 2262.796
1268.861, 2263.066
1269.343, 2263.312
1269.825, 2263.748
1270.307, 2264.337
1270.789, 2265.172
1271.271, 2266.132
1271.754, 2266.818
1272.236, 2267.288
1272.718, 2268.718
1273.200, 2271.205
1273.682, 2273.028
1274.164, 2271.139
1274.646, 2270.838
1275.128, 2276.258
1275.610, 2282.629
1276.093, 2280.616
1276.575, 2272.778
1277.057, 2270.322
1277.539, 2273.763
1278.021, 2276.378
1278.503, 2272.992
1278.985, 2271.434
1279.467, 2274.278
1279.950, 2278.063
1280.432, 2278.084
1280.914, 2275.845
1281.396, 2274.356
1281.878, 2273.792
1282.360, 2273.890
1282.842, 2275.227
1283.324, 2276.120
1283.807, 2276.527
1284.289, 2275.987
1284.771, 2272.005
1285.253, 2268.175
1285.735, 2271.040
1286.217, 2278.544
1286.699, 2281.731
1287.181, 2278.356
1287.663, 2277.478
1288.146, 2280.098
1288.628, 2282.919
1289.110, 2282.345
1289.592, 2281.569
1290.074, 2284.110
1290.556, 2288.181
1291.038, 2289.863
1291.520, 2288.980
1292.002, 2288.219
1292.485, 2287.738
1292.967, 2287.859
1293.449, 2291.104
1293.931, 2292.349
1294.413, 2284.941
1294.895, 2277.243
1295.377, 2279.755
1295.859, 2290.576
1296.342, 2295.258
1296.824, 2294.474
1297.306, 2294.062
1297.788, 2298.406
1298.270, 2300.850
1298.752, 2299.505
1299.234, 2297.360
1299.716, 2296.810
1300.198, 2297.513
1300.681, 2298.698
1301.163, 2300.511
1301.645, 2303.223
1302.127, 2306.057
##END=



