##NAMES=Pentahydrite
##RRUFFID=R060990
##IDEAL CHEMISTRY=MgS^6+^O_4_&#183;5H_2_O
##LOCALITY=Strassfurt, Prussia
##OWNER=RRUFF
##SOURCE=Michael Scott
##DESCRIPTION=Unconsolidated aggregate of colorless grains, mixed with starkeyite
##STATUS=The identification of this mineral has been made only by X-ray diffraction.
##URL=rruff.info/R060990
173.2195, 1496.186
175.1479, 1509.395
177.0764, 1521.444
179.0049, 1532.476
180.9333, 1542.742
182.8618, 1551.794
184.7903, 1559.088
186.7187, 1568.465
188.6472, 1579.512
190.5757, 1592.450
192.5041, 1607.028
194.4326, 1623.740
196.3611, 1641.145
198.2895, 1659.614
200.2180, 1679.300
202.1465, 1696.349
204.0749, 1708.811
206.0034, 1718.672
207.9319, 1728.396
209.8603, 1737.114
211.7888, 1746.746
213.7173, 1757.859
215.6457, 1770.029
217.5742, 1781.432
219.5027, 1791.542
221.4311, 1800.635
223.3596, 1809.031
225.2881, 1817.217
227.2165, 1824.074
229.1450, 1828.547
231.0735, 1830.823
233.0019, 1833.816
234.9304, 1839.632
236.8589, 1844.840
238.7873, 1846.571
240.7158, 1843.880
242.6443, 1842.392
244.5727, 1844.233
246.5012, 1848.299
248.4297, 1849.617
250.3581, 1846.649
252.2866, 1843.330
254.2151, 1840.604
256.1435, 1838.311
258.0720, 1836.286
260.0005, 1835.478
261.9289, 1835.595
263.8574, 1834.767
265.7859, 1831.030
267.7143, 1828.007
269.6428, 1827.517
271.5713, 1831.052
273.4997, 1834.378
275.4282, 1837.477
277.3567, 1839.419
279.2851, 1840.183
281.2136, 1838.327
283.1421, 1837.904
285.0705, 1839.992
286.9990, 1844.878
288.9275, 1849.948
290.8559, 1855.130
292.7844, 1859.936
294.7129, 1864.902
296.6413, 1869.371
298.5698, 1875.781
300.4983, 1884.627
302.4267, 1894.403
304.3552, 1901.695
306.2837, 1904.981
308.2121, 1908.033
310.1406, 1912.507
312.0691, 1919.145
313.9975, 1925.555
315.9260, 1930.760
317.8545, 1935.931
319.7829, 1943.523
321.7114, 1956.416
323.6399, 1969.151
325.5683, 1978.463
327.4968, 1983.895
329.4253, 1990.592
331.3537, 2002.227
333.2822, 2014.686
335.2107, 2023.972
337.1391, 2025.633
339.0676, 2029.846
340.9961, 2040.271
342.9245, 2054.654
344.8530, 2064.697
346.7815, 2066.862
348.7099, 2067.649
350.6384, 2070.001
352.5669, 2073.771
354.4953, 2078.501
356.4238, 2086.071
358.3523, 2095.119
360.2807, 2102.521
362.2092, 2104.433
364.1377, 2106.683
366.0661, 2113.300
367.9946, 2123.904
369.9231, 2131.044
371.8515, 2127.664
373.7800, 2122.339
375.7085, 2122.031
377.6369, 2130.913
379.5654, 2139.696
381.4939, 2146.931
383.4223, 2153.686
385.3508, 2162.104
387.2793, 2173.379
389.2077, 2184.940
391.1362, 2195.081
393.0647, 2203.229
394.9931, 2214.043
396.9216, 2230.556
398.8501, 2249.463
400.7785, 2267.692
402.7070, 2283.432
404.6355, 2301.149
406.5639, 2319.738
408.4924, 2338.635
410.4209, 2357.949
412.3493, 2379.878
414.2778, 2403.064
416.2063, 2426.183
418.1347, 2448.063
420.0632, 2471.899
421.9917, 2500.594
423.9201, 2531.795
425.8486, 2562.788
427.7771, 2591.660
429.7055, 2620.649
431.6340, 2650.348
433.5625, 2681.003
435.4909, 2712.889
437.4194, 2748.259
439.3479, 2781.311
441.2763, 2809.295
443.2048, 2829.971
445.1333, 2848.077
447.0617, 2865.783
448.9902, 2879.800
450.9187, 2887.167
452.8471, 2887.510
454.7756, 2883.625
456.7041, 2876.513
458.6325, 2865.708
460.5610, 2849.609
462.4895, 2829.719
464.4179, 2804.070
466.3464, 2771.467
468.2749, 2734.953
470.2033, 2700.444
472.1318, 2666.477
474.0603, 2634.673
475.9887, 2606.945
477.9172, 2584.980
479.8457, 2563.714
481.7741, 2540.388
483.7026, 2515.495
485.6311, 2490.781
487.5595, 2464.833
489.4880, 2443.013
491.4165, 2427.009
493.3449, 2415.251
495.2734, 2404.986
497.2019, 2398.654
499.1303, 2394.036
501.0588, 2389.756
502.9873, 2383.611
504.9157, 2378.297
506.8442, 2374.907
508.7727, 2374.904
510.7011, 2378.324
512.6296, 2384.206
514.5581, 2390.251
516.4866, 2396.061
518.4150, 2401.133
520.3435, 2405.162
522.2720, 2407.070
524.2004, 2408.650
526.1289, 2411.249
528.0574, 2415.744
529.9858, 2419.864
531.9143, 2422.207
533.8428, 2425.580
535.7712, 2431.699
537.6997, 2440.779
539.6282, 2450.001
541.5566, 2456.960
543.4851, 2462.772
545.4136, 2468.539
547.3420, 2477.202
549.2705, 2485.756
551.1990, 2493.406
553.1274, 2500.333
555.0559, 2507.974
556.9844, 2517.510
558.9128, 2528.057
560.8413, 2539.022
562.7698, 2549.920
564.6982, 2561.148
566.6267, 2573.071
568.5552, 2585.670
570.4836, 2598.799
572.4121, 2612.078
574.3406, 2625.948
576.2690, 2641.863
578.1975, 2656.484
580.1260, 2666.929
582.0544, 2674.187
583.9829, 2685.454
585.9114, 2703.979
587.8398, 2724.557
589.7683, 2744.041
591.6968, 2760.630
593.6252, 2778.729
595.5537, 2801.750
597.4822, 2823.657
599.4106, 2838.162
601.3391, 2843.923
603.2676, 2846.062
605.1960, 2845.432
607.1245, 2842.830
609.0530, 2837.703
610.9814, 2831.414
612.9099, 2825.885
614.8384, 2821.567
616.7668, 2817.438
618.6953, 2813.824
620.6238, 2810.555
622.5522, 2808.242
624.4807, 2807.837
626.4092, 2808.952
628.3376, 2807.302
630.2661, 2802.002
632.1946, 2795.657
634.1230, 2789.062
636.0515, 2780.727
637.9800, 2774.094
639.9084, 2771.046
641.8369, 2770.143
643.7654, 2769.812
645.6938, 2769.952
647.6223, 2769.317
649.5508, 2766.312
651.4792, 2763.444
653.4077, 2762.762
655.3362, 2764.161
657.2646, 2764.793
659.1931, 2764.692
661.1216, 2763.988
663.0500, 2762.406
664.9785, 2760.033
666.9070, 2757.803
668.8354, 2756.095
670.7639, 2754.854
672.6924, 2753.429
674.6208, 2750.324
676.5493, 2748.865
678.4778, 2750.731
680.4063, 2753.640
682.3347, 2754.322
684.2632, 2751.845
686.1917, 2749.292
688.1201, 2747.471
690.0486, 2746.698
691.9771, 2746.969
693.9055, 2749.022
695.8340, 2750.788
697.7625, 2750.617
699.6909, 2750.505
701.6194, 2753.177
703.5479, 2760.022
705.4763, 2767.237
707.4048, 2774.568
709.3333, 2781.665
711.2617, 2786.285
713.1902, 2786.008
715.1187, 2785.558
717.0471, 2786.519
718.9756, 2788.931
720.9041, 2792.321
722.8325, 2799.646
724.7610, 2805.258
726.6895, 2806.434
728.6179, 2803.022
730.5464, 2802.454
732.4749, 2806.704
734.4033, 2811.938
736.3318, 2816.192
738.2603, 2819.401
740.1887, 2822.900
742.1172, 2826.303
744.0457, 2830.367
745.9741, 2835.883
747.9026, 2842.995
749.8311, 2848.263
751.7595, 2850.084
753.6880, 2851.255
755.6165, 2853.686
757.5449, 2857.860
759.4734, 2861.873
761.4019, 2864.848
763.3303, 2867.977
765.2588, 2872.459
767.1873, 2878.629
769.1157, 2885.139
771.0442, 2892.306
772.9727, 2899.162
774.9011, 2904.459
776.8296, 2906.988
778.7581, 2909.934
780.6865, 2914.826
782.6150, 2920.492
784.5435, 2924.703
786.4719, 2926.549
788.4004, 2927.329
790.3289, 2927.079
792.2573, 2926.986
794.1858, 2927.005
796.1143, 2927.059
798.0427, 2928.117
799.9712, 2931.215
801.8997, 2933.959
803.8281, 2935.546
805.7566, 2937.970
807.6851, 2942.345
809.6135, 2950.128
811.5420, 2957.374
813.4705, 2962.296
815.3989, 2964.680
817.3274, 2968.721
819.2559, 2976.047
821.1843, 2982.494
823.1128, 2986.037
825.0413, 2987.175
826.9697, 2989.017
828.8982, 2991.741
830.8267, 2995.140
832.7551, 3000.129
834.6836, 3006.948
836.6121, 3012.589
838.5405, 3016.534
840.4690, 3020.889
842.3975, 3024.705
844.3259, 3024.056
846.2544, 3025.650
848.1829, 3030.837
850.1113, 3037.976
852.0398, 3044.919
853.9683, 3052.852
855.8967, 3059.632
857.8252, 3063.380
859.7537, 3065.453
861.6821, 3069.053
863.6106, 3072.950
865.5391, 3076.244
867.4675, 3079.983
869.3960, 3085.046
871.3245, 3088.436
873.2529, 3090.257
875.1814, 3095.224
877.1099, 3107.921
879.0383, 3119.483
880.9668, 3126.107
882.8953, 3126.539
884.8237, 3127.699
886.7522, 3131.619
888.6807, 3137.123
890.6091, 3141.058
892.5376, 3143.812
894.4661, 3147.263
896.3945, 3151.819
898.3230, 3157.132
900.2515, 3163.893
902.1799, 3170.139
904.1084, 3176.057
906.0369, 3182.458
907.9653, 3188.559
909.8938, 3192.997
911.8223, 3196.006
913.7507, 3199.999
915.6792, 3206.433
917.6077, 3213.759
919.5361, 3220.763
921.4646, 3225.328
923.3931, 3231.215
925.3215, 3241.819
927.2500, 3252.579
929.1785, 3260.704
931.1069, 3265.354
933.0354, 3269.116
934.9639, 3271.594
936.8923, 3276.766
938.8208, 3288.040
940.7493, 3302.199
942.6777, 3313.906
944.6062, 3320.140
946.5347, 3325.907
948.4631, 3333.418
950.3916, 3343.505
952.3201, 3355.332
954.2485, 3364.419
956.1770, 3379.776
958.1055, 3402.563
960.0339, 3435.734
961.9624, 3481.667
963.8909, 3542.812
965.8193, 3607.999
967.7478, 3683.332
969.6763, 3755.619
971.6047, 3805.329
973.5332, 3841.808
975.4617, 3877.418
977.3901, 3905.260
979.3186, 3949.604
981.2471, 4040.219
983.1755, 4125.175
985.1040, 4209.949
987.0325, 4301.799
988.9609, 4384.310
990.8894, 4453.953
992.8179, 4577.802
994.7463, 4768.414
996.6748, 4995.448
998.6033, 5301.745
1000.532, 5708.603
1002.460, 6137.009
1004.389, 6443.001
1006.317, 6664.926
1008.246, 6677.943
1010.174, 6418.494
1012.103, 5978.628
1014.031, 5524.633
1015.959, 5084.868
1017.888, 4705.664
1019.816, 4427.632
1021.745, 4241.350
1023.673, 4128.588
1025.602, 4069.875
1027.530, 4052.758
1029.459, 4036.536
1031.387, 3993.281
1033.316, 3921.621
1035.244, 3853.477
1037.173, 3779.566
1039.101, 3720.868
1041.030, 3683.893
1042.958, 3661.722
1044.886, 3646.161
1046.815, 3637.991
1048.743, 3631.405
1050.672, 3628.691
1052.600, 3630.719
1054.529, 3636.390
1056.457, 3642.598
1058.386, 3647.038
1060.314, 3650.129
1062.243, 3652.780
1064.171, 3656.777
1066.100, 3663.457
1068.028, 3672.282
1069.957, 3682.664
1071.885, 3694.760
1073.813, 3706.516
1075.742, 3717.572
1077.670, 3728.587
1079.599, 3740.915
1081.527, 3753.651
1083.456, 3767.608
1085.384, 3782.010
1087.313, 3796.483
1089.241, 3811.505
1091.170, 3828.567
1093.098, 3843.842
1095.027, 3857.123
1096.955, 3869.531
1098.884, 3880.544
1100.812, 3888.726
1102.740, 3893.938
1104.669, 3895.894
1106.597, 3899.367
1108.526, 3906.794
1110.454, 3918.583
1112.383, 3925.411
1114.311, 3926.549
1116.240, 3928.074
1118.168, 3930.591
1120.097, 3932.191
1122.025, 3932.065
1123.954, 3931.893
1125.882, 3933.224
1127.811, 3931.046
1129.739, 3925.928
1131.667, 3924.655
1133.596, 3930.004
1135.524, 3938.743
1137.453, 3947.925
1139.381, 3956.204
1141.310, 3965.712
1143.238, 3977.927
1145.167, 3992.397
1147.095, 4006.505
1149.024, 4018.458
1150.952, 4032.887
1152.881, 4050.606
1154.809, 4065.167
1156.738, 4074.746
1158.666, 4082.276
1160.594, 4091.433
1162.523, 4095.270
1164.451, 4094.270
1166.380, 4090.687
1168.308, 4087.449
1170.237, 4081.196
1172.165, 4071.957
1174.094, 4062.542
1176.022, 4054.507
1177.951, 4049.258
1179.879, 4048.985
1181.808, 4046.807
1183.736, 4040.118
1185.665, 4032.627
1187.593, 4028.523
1189.521, 4027.683
1191.450, 4026.792
1193.378, 4025.473
1195.307, 4024.801
1197.235, 4025.187
1199.164, 4024.659
1201.092, 4023.392
1203.021, 4021.640
1204.949, 4023.710
1206.878, 4030.320
1208.806, 4036.678
1210.735, 4042.355
1212.663, 4048.396
1214.592, 4055.654
1216.520, 4063.814
1218.448, 4070.677
1220.377, 4074.742
1222.305, 4077.873
1224.234, 4083.859
1226.162, 4093.307
1228.091, 4100.195
1230.019, 4101.552
1231.948, 4101.974
1233.876, 4105.479
1235.805, 4113.494
1237.733, 4122.106
1239.662, 4131.375
1241.590, 4138.563
1243.519, 4143.246
1245.447, 4147.289
1247.375, 4154.128
1249.304, 4165.487
1251.232, 4176.939
1253.161, 4185.684
1255.089, 4193.890
1257.018, 4205.876
1258.946, 4219.223
1260.875, 4227.053
1262.803, 4227.826
1264.732, 4228.608
1266.660, 4230.860
1268.589, 4234.374
1270.517, 4238.694
1272.446, 4243.334
1274.374, 4249.697
1276.302, 4259.064
1278.231, 4270.011
1280.159, 4282.493
1282.088, 4295.053
1284.016, 4304.149
1285.945, 4307.423
1287.873, 4311.038
1289.802, 4314.746
1291.730, 4320.443
1293.659, 4329.821
1295.587, 4341.898
1297.516, 4351.533
1299.444, 4357.881
1301.373, 4364.103
1303.301, 4370.467
1305.229, 4376.819
1307.158, 4384.449
1309.086, 4392.885
1311.015, 4397.026
1312.943, 4392.876
1314.872, 4391.515
1316.800, 4399.920
1318.729, 4412.510
1320.657, 4422.458
1322.586, 4429.455
1324.514, 4436.100
1326.443, 4441.566
1328.371, 4447.833
1330.300, 4456.259
1332.228, 4465.972
1334.156, 4474.585
1336.085, 4480.229
1338.013, 4487.713
1339.942, 4499.469
1341.870, 4510.460
1343.799, 4516.802
1345.727, 4519.453
1347.656, 4522.891
1349.584, 4526.593
1351.513, 4531.410
1353.441, 4538.656
1355.370, 4546.952
1357.298, 4556.602
1359.227, 4566.782
1361.155, 4572.564
1363.083, 4571.544
1365.012, 4572.875
1366.940, 4580.714
1368.869, 4590.542
1370.797, 4599.154
1372.726, 4606.849
1374.654, 4616.455
1376.583, 4628.250
1378.511, 4640.563
1380.440, 4655.016
1382.368, 4668.699
1384.297, 4677.099
1386.225, 4678.422
1388.154, 4682.515
1390.082, 4692.743
1392.010, 4702.117
1393.939, 4707.361
1395.867, 4710.506
1397.796, 4716.475
1399.724, 4727.033
1401.653, 4737.467
1403.581, 4747.435
1405.510, 4754.913
1407.438, 4758.686
1409.367, 4761.603
1411.295, 4763.710
1413.224, 4763.771
1415.152, 4769.703
1417.081, 4787.540
1419.009, 4804.519
1420.938, 4812.475
1422.866, 4817.031
1424.794, 4826.875
1426.723, 4842.171
1428.651, 4854.975
1430.580, 4863.542
1432.508, 4871.257
1434.437, 4878.582
1436.365, 4886.826
1438.294, 4896.844
1440.222, 4909.062
1442.151, 4917.002
1444.079, 4914.592
1446.008, 4915.494
1447.936, 4927.761
1449.865, 4945.509
1451.793, 4957.138
1453.721, 4961.034
1455.650, 4964.675
1457.578, 4969.040
1459.507, 4972.186
1461.435, 4971.430
1463.364, 4971.209
1465.292, 4978.996
1467.221, 4995.718
1469.149, 5009.452
1471.078, 5016.022
1473.006, 5020.769
1474.935, 5026.235
1476.863, 5032.610
1478.792, 5036.043
1480.720, 5034.583
1482.648, 5037.032
1484.577, 5048.283
1486.505, 5058.529
1488.434, 5063.101
1490.362, 5066.210
1492.291, 5070.430
1494.219, 5075.681
1496.148, 5087.486
1498.076, 5111.640
1500.005, 5129.791
1501.933, 5132.384
1503.862, 5131.376
1505.790, 5136.979
1507.719, 5148.485
1509.647, 5157.815
1511.575, 5163.965
1513.504, 5169.878
1515.432, 5175.455
1517.361, 5182.119
1519.289, 5192.339
1521.218, 5205.687
1523.146, 5216.345
1525.075, 5221.234
1527.003, 5227.688
1528.932, 5235.708
1530.860, 5244.563
1532.789, 5254.665
1534.717, 5265.384
1536.646, 5274.008
1538.574, 5279.275
1540.502, 5285.838
1542.431, 5295.772
1544.359, 5305.328
1546.288, 5312.762
1548.216, 5319.094
1550.145, 5325.798
1552.073, 5334.067
1554.002, 5344.502
1555.930, 5356.641
1557.859, 5368.437
1559.787, 5379.172
1561.716, 5389.758
1563.644, 5400.913
1565.573, 5411.519
1567.501, 5419.036
1569.429, 5422.456
1571.358, 5427.310
1573.286, 5438.681
1575.215, 5447.471
1577.143, 5444.707
1579.072, 5438.328
1581.000, 5443.182
1582.929, 5460.325
1584.857, 5475.523
1586.786, 5486.483
1588.714, 5494.489
1590.643, 5496.368
1592.571, 5499.440
1594.500, 5512.010
1596.428, 5532.475
1598.356, 5549.978
1600.285, 5562.809
1602.213, 5574.465
1604.142, 5585.715
1606.070, 5596.783
1607.999, 5608.610
1609.927, 5620.242
1611.856, 5628.113
1613.784, 5631.441
1615.713, 5637.524
1617.641, 5647.579
1619.570, 5659.765
1621.498, 5675.973
1623.427, 5691.924
1625.355, 5701.506
1627.283, 5704.323
1629.212, 5712.382
1631.140, 5729.302
1633.069, 5743.938
1634.997, 5754.203
1636.926, 5762.554
1638.854, 5769.651
1640.783, 5776.111
1642.711, 5783.004
1644.640, 5790.382
1646.568, 5796.811
1648.497, 5799.415
1650.425, 5804.575
1652.354, 5815.268
1654.282, 5827.807
1656.210, 5840.403
1658.139, 5852.738
1660.067, 5860.775
1661.996, 5862.671
1663.924, 5864.820
1665.853, 5865.606
1667.781, 5868.890
1669.710, 5877.528
1671.638, 5888.604
1673.567, 5898.158
1675.495, 5905.995
1677.424, 5914.018
1679.352, 5922.748
1681.281, 5930.428
1683.209, 5937.099
1685.137, 5941.816
1687.066, 5941.703
1688.994, 5939.498
1690.923, 5941.708
1692.851, 5949.833
1694.780, 5955.888
1696.708, 5962.222
1698.637, 5965.420
1700.565, 5961.607
1702.494, 5959.835
1704.422, 5968.298
1706.351, 5983.713
1708.279, 5996.055
1710.208, 6003.164
1712.136, 6010.492
1714.064, 6013.179
1715.993, 6019.771
1717.921, 6035.381
1719.850, 6051.689
1721.778, 6062.637
1723.707, 6069.447
1725.635, 6075.761
1727.564, 6084.000
1729.492, 6088.729
1731.421, 6084.460
1733.349, 6085.342
1735.278, 6096.956
1737.206, 6112.480
1739.135, 6126.207
1741.063, 6138.015
1742.991, 6149.787
1744.920, 6162.817
1746.848, 6170.911
1748.777, 6169.416
1750.705, 6169.420
1752.634, 6174.600
1754.562, 6182.214
1756.491, 6191.835
1758.419, 6202.538
1760.348, 6209.216
1762.276, 6210.331
1764.205, 6214.106
1766.133, 6221.780
1768.062, 6231.419
1769.990, 6242.857
1771.918, 6255.610
1773.847, 6269.178
1775.775, 6283.077
1777.704, 6296.533
1779.632, 6308.905
1781.561, 6320.895
1783.489, 6332.573
1785.418, 6342.505
1787.346, 6350.467
1789.275, 6356.711
1791.203, 6362.232
1793.132, 6366.704
1795.060, 6368.006
1796.989, 6366.397
1798.917, 6369.146
1800.845, 6378.213
1802.774, 6388.504
1804.702, 6399.481
1806.631, 6410.123
1808.559, 6420.340
1810.488, 6429.073
1812.416, 6432.471
1814.345, 6432.154
1816.273, 6441.725
1818.202, 6464.476
1820.130, 6483.158
1822.059, 6492.341
1823.987, 6500.398
1825.916, 6512.099
1827.844, 6523.149
1829.772, 6529.095
1831.701, 6531.536
1833.629, 6535.037
1835.558, 6540.125
1837.486, 6544.649
1839.415, 6546.756
1841.343, 6552.932
1843.272, 6569.375
1845.200, 6585.942
1847.129, 6594.144
1849.057, 6598.677
1850.986, 6609.259
1852.914, 6624.605
1854.843, 6631.079
1856.771, 6624.369
1858.699, 6622.063
1860.628, 6632.885
1862.556, 6642.211
1864.485, 6641.790
1866.413, 6640.663
1868.342, 6647.017
1870.270, 6659.701
1872.199, 6675.351
1874.127, 6694.532
1876.056, 6710.802
1877.984, 6724.678
1879.913, 6732.614
1881.841, 6727.418
1883.770, 6723.221
1885.698, 6729.641
1887.626, 6740.658
1889.555, 6749.528
1891.483, 6757.284
1893.412, 6764.315
1895.340, 6769.922
1897.269, 6780.325
1899.197, 6799.814
1901.126, 6815.828
1903.054, 6817.401
1904.983, 6819.930
1906.911, 6836.314
1908.840, 6855.846
1910.768, 6860.925
1912.697, 6853.836
1914.625, 6851.057
1916.553, 6854.804
1918.482, 6860.088
1920.410, 6867.490
1922.339, 6875.149
1924.267, 6881.265
1926.196, 6887.907
1928.124, 6896.372
1930.053, 6905.619
1931.981, 6915.662
1933.910, 6925.728
1935.838, 6929.831
1937.767, 6926.034
1939.695, 6926.666
1941.624, 6938.305
1943.552, 6947.782
1945.480, 6947.304
1947.409, 6947.599
1949.337, 6955.580
1951.266, 6968.662
1953.194, 6984.669
1955.123, 7002.766
1957.051, 7014.709
1958.980, 7017.611
1960.908, 7020.604
1962.837, 7022.036
1964.765, 7026.917
1966.694, 7041.790
1968.622, 7054.787
1970.551, 7055.366
1972.479, 7053.931
1974.407, 7064.806
1976.336, 7085.000
1978.264, 7100.202
1980.193, 7109.530
1982.121, 7116.884
1984.050, 7120.353
1985.978, 7128.354
1987.907, 7149.126
1989.835, 7165.561
1991.764, 7164.037
1993.692, 7159.992
1995.621, 7169.333
1997.549, 7186.021
1999.478, 7195.744
2001.406, 7198.682
2003.334, 7205.273
2005.263, 7217.227
2007.191, 7226.826
2009.120, 7232.099
2011.048, 7236.639
2012.977, 7241.250
2014.905, 7246.981
2016.834, 7255.068
2018.762, 7265.250
2020.691, 7277.167
2022.619, 7290.383
2024.548, 7302.515
2026.476, 7312.142
2028.405, 7325.043
2030.333, 7344.011
2032.261, 7354.767
2034.190, 7349.903
2036.118, 7345.203
2038.047, 7346.498
2039.975, 7352.463
2041.904, 7365.303
2043.832, 7380.564
2045.761, 7392.031
2047.689, 7399.699
2049.618, 7403.758
2051.546, 7403.498
2053.475, 7404.740
2055.403, 7409.779
2057.332, 7414.533
2059.260, 7417.203
2061.188, 7423.236
2063.117, 7435.867
2065.045, 7451.153
2066.974, 7467.097
2068.902, 7481.408
2070.831, 7489.404
2072.759, 7491.432
2074.688, 7495.253
2076.616, 7501.026
2078.545, 7508.131
2080.473, 7518.747
2082.402, 7526.253
2084.330, 7526.927
2086.259, 7531.119
2088.187, 7546.058
2090.115, 7561.997
2092.044, 7572.244
2093.972, 7578.526
2095.901, 7582.249
2097.829, 7583.750
2099.758, 7584.287
2101.686, 7583.779
2103.615, 7589.721
2105.543, 7608.003
2107.472, 7624.986
2109.400, 7646.477
2111.329, 7659.784
2113.257, 7649.063
2115.186, 7645.469
2117.114, 7668.130
2119.042, 7695.671
2120.971, 7710.820
2122.899, 7716.888
2124.828, 7719.389
2126.756, 7719.355
2128.685, 7721.168
2130.613, 7726.386
2132.542, 7729.370
2134.470, 7729.161
2136.399, 7732.281
2138.327, 7738.188
2140.256, 7749.175
2142.184, 7768.539
2144.113, 7786.984
2146.041, 7797.924
2147.969, 7804.757
2149.898, 7810.563
2151.826, 7815.401
2153.755, 7820.404
2155.683, 7825.648
2157.612, 7827.976
2159.540, 7827.759
2161.469, 7828.376
2163.397, 7830.237
2165.326, 7833.211
2167.254, 7836.151
2169.183, 7842.013
2171.111, 7854.897
2173.040, 7866.832
2174.968, 7873.501
2176.896, 7878.132
2178.825, 7884.013
2180.753, 7889.709
2182.682, 7890.025
2184.610, 7887.689
2186.539, 7898.161
2188.467, 7921.522
2190.396, 7936.367
2192.324, 7940.657
2194.253, 7941.693
2196.181, 7937.058
2198.110, 7940.454
2200.038, 7965.102
2201.967, 7983.000
2203.895, 7976.423
2205.823, 7967.957
2207.752, 7968.703
2209.680, 7977.619
2211.609, 7998.651
2213.537, 8023.545
2215.466, 8033.552
2217.394, 8030.733
2219.323, 8035.177
2221.251, 8046.946
2223.180, 8054.871
2225.108, 8058.450
2227.037, 8062.604
2228.965, 8070.214
2230.894, 8075.568
2232.822, 8078.661
2234.750, 8078.586
2236.679, 8065.641
2238.607, 8061.038
2240.536, 8083.045
2242.464, 8112.657
2244.393, 8131.000
2246.321, 8143.205
2248.250, 8159.909
2250.178, 8178.024
2252.107, 8185.576
2254.035, 8183.798
2255.964, 8183.580
2257.892, 8186.354
2259.821, 8189.761
2261.749, 8193.560
2263.677, 8200.515
2265.606, 8212.447
2267.534, 8224.001
2269.463, 8232.441
2271.391, 8239.808
2273.320, 8244.479
2275.248, 8250.137
2277.177, 8266.657
2279.105, 8279.574
2281.034, 8268.463
2282.962, 8248.976
2284.891, 8246.656
2286.819, 8257.309
2288.748, 8267.095
2290.676, 8276.364
2292.604, 8295.718
2294.533, 8329.008
2296.461, 8349.031
2298.390, 8345.694
2300.318, 8346.697
2302.247, 8356.315
2304.175, 8362.111
2306.104, 8359.839
2308.032, 8358.782
2309.961, 8363.086
2311.889, 8369.314
2313.818, 8378.766
2315.746, 8386.834
2317.675, 8387.520
2319.603, 8386.747
2321.531, 8388.167
2323.460, 8394.155
2325.388, 8414.520
2327.317, 8443.088
2329.245, 8453.541
2331.174, 8446.896
2333.102, 8447.154
2335.031, 8455.216
2336.959, 8457.058
2338.888, 8449.771
2340.816, 8454.314
2342.745, 8483.347
2344.673, 8498.525
2346.602, 8478.465
2348.530, 8464.991
2350.458, 8471.896
2352.387, 8480.676
2354.315, 8484.981
2356.244, 8489.574
2358.172, 8500.065
2360.101, 8509.982
2362.029, 8510.042
2363.958, 8510.389
2365.886, 8524.191
2367.815, 8544.678
2369.743, 8559.518
2371.672, 8569.979
2373.600, 8584.394
2375.529, 8601.470
2377.457, 8602.604
2379.385, 8587.374
2381.314, 8575.108
2383.242, 8566.222
2385.171, 8571.664
2387.099, 8598.221
2389.028, 8612.095
2390.956, 8598.090
2392.885, 8594.732
2394.813, 8618.149
2396.742, 8639.483
2398.670, 8647.416
2400.599, 8656.135
2402.527, 8670.886
2404.456, 8684.300
2406.384, 8694.078
2408.313, 8698.514
2410.241, 8693.746
2412.169, 8687.723
2414.098, 8687.791
2416.026, 8694.295
2417.955, 8710.231
2419.883, 8731.525
2421.812, 8747.988
2423.740, 8760.255
2425.669, 8771.465
2427.597, 8780.913
2429.526, 8790.364
2431.454, 8798.964
2433.383, 8802.018
2435.311, 8798.178
2437.240, 8799.053
2439.168, 8811.232
2441.096, 8814.155
2443.025, 8802.925
2444.953, 8797.213
2446.882, 8800.487
2448.810, 8806.161
2450.739, 8814.722
2452.667, 8821.903
2454.596, 8823.132
2456.524, 8827.940
2458.453, 8843.326
2460.381, 8857.676
2462.310, 8865.838
2464.238, 8870.124
2466.167, 8867.170
2468.095, 8865.938
2470.023, 8874.716
2471.952, 8886.911
2473.880, 8898.604
2475.809, 8908.455
2477.737, 8911.970
2479.666, 8914.409
2481.594, 8927.121
2483.523, 8944.577
2485.451, 8953.839
2487.380, 8955.905
2489.308, 8953.206
2491.237, 8947.506
2493.165, 8945.485
2495.094, 8947.795
2497.022, 8959.854
2498.950, 8983.973
2500.879, 8988.802
2502.807, 8967.201
2504.736, 8959.529
2506.664, 8967.408
2508.593, 8975.966
2510.521, 8983.263
2512.450, 8992.802
2514.378, 9006.339
2516.307, 9016.480
2518.235, 9019.561
2520.164, 9024.191
2522.092, 9032.515
2524.021, 9042.636
2525.949, 9056.654
2527.877, 9068.116
2529.806, 9075.175
2531.734, 9078.719
2533.663, 9073.372
2535.591, 9071.991
2537.520, 9084.936
2539.448, 9096.513
2541.377, 9095.176
2543.305, 9094.554
2545.234, 9106.353
2547.162, 9118.354
2549.091, 9120.978
2551.019, 9122.554
2552.948, 9128.484
2554.876, 9138.257
2556.804, 9154.407
2558.733, 9171.069
2560.661, 9178.894
2562.590, 9184.554
2564.518, 9200.364
2566.447, 9218.052
2568.375, 9220.282
2570.304, 9217.359
2572.232, 9230.497
2574.161, 9251.783
2576.089, 9263.382
2578.018, 9267.229
2579.946, 9270.923
2581.875, 9273.182
2583.803, 9261.089
2585.731, 9242.818
2587.660, 9255.275
2589.588, 9292.781
2591.517, 9307.264
2593.445, 9299.795
2595.374, 9302.166
2597.302, 9313.743
2599.231, 9320.240
2601.159, 9321.982
2603.088, 9328.864
2605.016, 9341.865
2606.945, 9354.759
2608.873, 9367.360
2610.802, 9381.191
2612.730, 9396.276
2614.658, 9409.020
2616.587, 9418.303
2618.515, 9424.844
2620.444, 9427.801
2622.372, 9432.246
2624.301, 9440.467
2626.229, 9445.486
2628.158, 9446.791
2630.086, 9449.076
2632.015, 9453.676
2633.943, 9457.764
2635.872, 9459.984
2637.800, 9468.800
2639.729, 9491.079
2641.657, 9500.502
2643.585, 9480.031
2645.514, 9468.660
2647.442, 9472.027
2649.371, 9472.859
2651.299, 9467.345
2653.228, 9467.922
2655.156, 9481.795
2657.085, 9493.362
2659.013, 9497.629
2660.942, 9503.772
2662.870, 9514.403
2664.799, 9521.689
2666.727, 9522.521
2668.656, 9521.277
2670.584, 9516.092
2672.512, 9514.813
2674.441, 9523.083
2676.369, 9530.212
2678.298, 9536.107
2680.226, 9538.407
2682.155, 9533.569
2684.083, 9534.802
2686.012, 9547.501
2687.940, 9562.861
2689.869, 9583.612
2691.797, 9597.938
2693.726, 9598.351
2695.654, 9601.042
2697.583, 9609.656
2699.511, 9618.355
2701.439, 9623.119
2703.368, 9631.359
2705.296, 9649.532
2707.225, 9662.253
2709.153, 9663.234
2711.082, 9661.619
2713.010, 9657.389
2714.939, 9655.538
2716.867, 9657.701
2718.796, 9664.475
2720.724, 9682.889
2722.653, 9695.894
2724.581, 9693.475
2726.510, 9702.015
2728.438, 9732.325
2730.366, 9755.428
2732.295, 9760.763
2734.223, 9764.358
2736.152, 9765.777
2738.080, 9772.382
2740.009, 9785.378
2741.937, 9800.698
2743.866, 9819.603
2745.794, 9831.057
2747.723, 9827.607
2749.651, 9828.981
2751.580, 9844.254
2753.508, 9855.129
2755.437, 9860.749
2757.365, 9864.354
2759.293, 9866.155
2761.222, 9871.497
2763.150, 9882.306
2765.079, 9894.733
2767.007, 9911.451
2768.936, 9917.177
2770.864, 9906.588
2772.793, 9904.432
2774.721, 9914.846
2776.650, 9919.588
2778.578, 9915.343
2780.507, 9912.621
2782.435, 9914.130
2784.364, 9912.736
2786.292, 9909.009
2788.220, 9904.131
2790.149, 9897.354
2792.077, 9902.520
2794.006, 9920.425
2795.934, 9935.763
2797.863, 9947.440
2799.791, 9952.330
2801.720, 9950.853
2803.648, 9951.921
2805.577, 9956.297
2807.505, 9960.381
2809.434, 9964.970
2811.362, 9967.669
2813.291, 9969.840
2815.219, 9976.684
2817.147, 9985.948
2819.076, 9988.454
2821.004, 9986.808
2822.933, 9992.337
2824.861, 10001.79
2826.790, 10005.51
2828.718, 10008.40
2830.647, 10020.96
2832.575, 10038.75
2834.504, 10055.67
2836.432, 10071.06
2838.361, 10082.50
2840.289, 10092.11
2842.218, 10104.63
2844.146, 10114.05
2846.074, 10107.50
2848.003, 10103.00
2849.931, 10124.43
2851.860, 10146.80
2853.788, 10151.47
2855.717, 10150.58
2857.645, 10146.50
2859.574, 10147.50
2861.502, 10164.15
2863.431, 10178.57
2865.359, 10182.03
2867.288, 10182.32
2869.216, 10176.38
2871.145, 10178.32
2873.073, 10201.86
2875.001, 10217.11
2876.930, 10215.00
2878.858, 10212.08
2880.787, 10209.77
2882.715, 10217.30
2884.644, 10242.93
2886.572, 10260.66
2888.501, 10261.47
2890.429, 10278.49
2892.358, 10313.51
2894.286, 10334.54
2896.215, 10337.07
2898.143, 10339.20
2900.072, 10341.00
2902.000, 10351.20
2903.928, 10367.39
2905.857, 10355.28
2907.785, 10326.63
2909.714, 10330.82
2911.642, 10357.33
2913.571, 10372.48
2915.499, 10380.02
2917.428, 10384.93
2919.356, 10388.31
2921.285, 10388.12
2923.213, 10388.83
2925.142, 10398.59
2927.070, 10408.52
2928.999, 10411.09
2930.927, 10410.55
2932.855, 10416.91
2934.784, 10415.38
2936.712, 10388.37
2938.641, 10368.45
2940.569, 10370.42
2942.498, 10379.64
2944.426, 10394.79
2946.355, 10404.64
2948.283, 10401.28
2950.212, 10397.07
2952.140, 10391.48
2954.069, 10391.53
2955.997, 10398.95
2957.926, 10407.30
2959.854, 10416.88
2961.782, 10423.62
2963.711, 10427.62
2965.639, 10416.97
2967.568, 10395.25
2969.496, 10386.95
2971.425, 10388.25
2973.353, 10380.93
2975.282, 10370.09
2977.210, 10365.67
2979.139, 10367.87
2981.067, 10379.07
2982.996, 10392.02
2984.924, 10397.21
2986.853, 10399.39
2988.781, 10397.05
2990.709, 10400.15
2992.638, 10426.14
2994.566, 10441.52
2996.495, 10419.50
2998.423, 10407.36
3000.352, 10422.39
3002.280, 10434.95
3004.209, 10438.75
3006.137, 10438.89
3008.066, 10432.78
3009.994, 10430.52
3011.923, 10431.36
3013.851, 10449.33
3015.780, 10483.00
3017.708, 10493.47
3019.636, 10483.57
3021.565, 10471.94
3023.493, 10462.97
3025.422, 10472.94
3027.350, 10492.54
3029.279, 10512.54
3031.207, 10527.85
3033.136, 10527.47
3035.064, 10525.41
3036.993, 10531.75
3038.921, 10539.69
3040.850, 10545.53
3042.778, 10550.35
3044.707, 10553.58
3046.635, 10557.69
3048.563, 10562.70
3050.492, 10570.11
3052.420, 10580.84
3054.349, 10592.69
3056.277, 10605.84
3058.206, 10616.62
3060.134, 10624.63
3062.063, 10622.87
3063.991, 10614.43
3065.920, 10611.37
3067.848, 10612.02
3069.777, 10611.47
3071.705, 10612.18
3073.634, 10618.41
3075.562, 10625.80
3077.490, 10629.99
3079.419, 10635.07
3081.347, 10643.88
3083.276, 10654.93
3085.204, 10671.78
3087.133, 10683.03
3089.061, 10684.54
3090.990, 10689.64
3092.918, 10702.31
3094.847, 10701.19
3096.775, 10682.42
3098.704, 10680.12
3100.632, 10690.88
3102.561, 10694.71
3104.489, 10694.02
3106.417, 10692.21
3108.346, 10693.65
3110.274, 10710.86
3112.203, 10727.91
3114.131, 10726.89
3116.060, 10724.77
3117.988, 10732.52
3119.917, 10741.67
3121.845, 10748.20
3123.774, 10759.17
3125.702, 10783.22
3127.631, 10794.67
3129.559, 10790.35
3131.488, 10789.98
3133.416, 10794.74
3135.344, 10805.81
3137.273, 10821.49
3139.201, 10835.36
3141.130, 10846.15
3143.058, 10846.18
3144.987, 10846.76
3146.915, 10860.20
3148.844, 10879.49
3150.772, 10908.34
3152.701, 10924.14
3154.629, 10906.14
3156.558, 10896.92
3158.486, 10911.39
3160.415, 10924.50
3162.343, 10935.56
3164.271, 10939.91
3166.200, 10938.13
3168.128, 10942.00
3170.057, 10952.49
3171.985, 10976.59
3173.914, 11006.01
3175.842, 11028.60
3177.771, 11046.60
3179.699, 11060.76
3181.628, 11073.55
3183.556, 11086.78
3185.485, 11099.27
3187.413, 11111.24
3189.342, 11122.93
3191.270, 11134.09
3193.198, 11151.80
3195.127, 11177.20
3197.055, 11192.03
3198.984, 11199.06
3200.912, 11216.93
3202.841, 11238.84
3204.769, 11248.92
3206.698, 11258.67
3208.626, 11282.07
3210.555, 11307.70
3212.483, 11328.72
3214.412, 11349.94
3216.340, 11371.25
3218.269, 11400.49
3220.197, 11440.81
3222.125, 11476.20
3224.054, 11505.43
3225.982, 11540.99
3227.911, 11580.11
3229.839, 11614.37
3231.768, 11640.99
3233.696, 11647.54
3235.625, 11658.37
3237.553, 11708.89
3239.482, 11755.70
3241.410, 11774.51
3243.339, 11801.74
3245.267, 11855.13
3247.196, 11904.21
3249.124, 11946.59
3251.052, 11992.47
3252.981, 12039.68
3254.909, 12076.08
3256.838, 12105.75
3258.766, 12139.11
3260.695, 12175.15
3262.623, 12213.80
3264.552, 12255.49
3266.480, 12306.80
3268.409, 12348.50
3270.337, 12368.93
3272.266, 12396.31
3274.194, 12433.58
3276.123, 12484.11
3278.051, 12541.66
3279.979, 12556.52
3281.908, 12547.79
3283.836, 12555.84
3285.765, 12578.33
3287.693, 12620.84
3289.622, 12660.73
3291.550, 12684.99
3293.479, 12698.28
3295.407, 12697.84
3297.336, 12703.91
3299.264, 12719.37
3301.193, 12750.75
3303.121, 12794.28
3305.050, 12810.40
3306.978, 12816.64
3308.906, 12845.96
3310.835, 12884.07
3312.763, 12924.16
3314.692, 12953.90
3316.620, 12951.67
3318.549, 12968.77
3320.477, 13019.35
3322.406, 13064.00
3324.334, 13100.23
3326.263, 13123.34
3328.191, 13140.03
3330.120, 13173.21
3332.048, 13213.39
3333.977, 13250.99
3335.905, 13282.98
3337.833, 13303.28
3339.762, 13320.56
3341.690, 13334.32
3343.619, 13356.79
3345.547, 13394.96
3347.476, 13413.76
3349.404, 13416.00
3351.333, 13409.56
3353.261, 13399.85
3355.190, 13390.93
3357.118, 13389.42
3359.047, 13404.95
3360.975, 13419.09
3362.904, 13421.82
3364.832, 13424.27
3366.760, 13426.00
3368.689, 13428.69
3370.617, 13430.99
3372.546, 13427.60
3374.474, 13418.48
3376.403, 13402.43
3378.331, 13385.08
3380.260, 13368.06
3382.188, 13358.04
3384.117, 13356.45
3386.045, 13363.01
3387.974, 13382.90
3389.902, 13375.79
3391.831, 13348.51
3393.759, 13342.68
3395.688, 13346.08
3397.616, 13344.87
3399.544, 13334.20
3401.473, 13308.37
3403.401, 13280.03
3405.330, 13254.80
3407.258, 13228.33
3409.187, 13201.02
3411.115, 13167.54
3413.044, 13130.09
3414.972, 13093.35
3416.901, 13060.82
3418.829, 13039.36
3420.758, 13017.51
3422.686, 12990.48
3424.615, 12954.74
3426.543, 12908.25
3428.471, 12870.29
3430.400, 12843.49
3432.328, 12819.56
3434.257, 12799.96
3436.185, 12789.92
3438.114, 12778.09
3440.042, 12743.91
3441.971, 12717.53
3443.899, 12710.16
3445.828, 12701.66
3447.756, 12688.00
3449.685, 12673.88
3451.613, 12660.84
3453.542, 12657.78
3455.470, 12654.05
3457.398, 12625.88
3459.327, 12606.16
3461.255, 12625.18
3463.184, 12630.04
3465.112, 12606.77
3467.041, 12616.54
3468.969, 12657.36
3470.898, 12677.24
3472.826, 12687.72
3474.755, 12706.63
3476.683, 12732.05
3478.612, 12778.79
3480.540, 12795.94
3482.469, 12766.62
3484.397, 12769.35
3486.325, 12811.63
3488.254, 12810.64
3490.182, 12786.97
3492.111, 12782.86
3494.039, 12782.11
3495.968, 12774.62
3497.896, 12755.86
3499.825, 12721.75
3501.753, 12688.83
3503.682, 12659.11
3505.610, 12611.65
3507.539, 12554.18
3509.467, 12501.22
3511.396, 12453.80
3513.324, 12415.89
3515.252, 12379.50
3517.181, 12346.40
3519.109, 12302.34
3521.038, 12248.17
3522.966, 12209.06
3524.895, 12179.59
3526.823, 12139.51
3528.752, 12111.76
3530.680, 12123.17
3532.609, 12124.82
3534.537, 12085.70
3536.466, 12072.56
3538.394, 12083.38
3540.323, 12079.35
3542.251, 12066.90
3544.179, 12062.11
3546.108, 12056.25
3548.036, 12047.30
3549.965, 12028.74
3551.893, 11997.14
3553.822, 11988.14
3555.750, 11998.32
3557.679, 11978.71
3559.607, 11945.36
3561.536, 11918.61
3563.464, 11895.97
3565.393, 11881.57
3567.321, 11856.48
3569.250, 11818.13
3571.178, 11783.97
3573.106, 11753.12
3575.035, 11714.23
3576.963, 11672.46
3578.892, 11628.64
3580.820, 11592.71
3582.749, 11568.20
3584.677, 11549.96
3586.606, 11537.05
3588.534, 11518.06
3590.463, 11495.49
3592.391, 11471.40
3594.320, 11452.36
3596.248, 11446.80
3598.177, 11441.14
3600.105, 11432.74
3602.033, 11425.28
3603.962, 11417.44
3605.890, 11396.37
3607.819, 11372.88
3609.747, 11364.46
3611.676, 11349.79
3613.604, 11318.19
3615.533, 11298.15
3617.461, 11294.70
3619.390, 11287.54
3621.318, 11275.15
3623.247, 11247.59
3625.175, 11225.19
3627.104, 11222.71
3629.032, 11223.01
3630.960, 11219.62
3632.889, 11238.20
3634.817, 11267.61
3636.746, 11265.96
3638.674, 11250.07
3640.603, 11230.58
3642.531, 11213.33
3644.460, 11198.96
3646.388, 11187.09
3648.317, 11177.93
3650.245, 11179.77
3652.174, 11184.75
3654.102, 11186.03
3656.031, 11179.01
3657.959, 11158.86
3659.887, 11141.92
3661.816, 11129.63
3663.744, 11123.19
3665.673, 11118.81
3667.601, 11106.72
3669.530, 11098.33
3671.458, 11101.08
3673.387, 11104.99
3675.315, 11109.90
3677.244, 11098.61
3679.172, 11078.79
3681.101, 11067.56
3683.029, 11062.22
3684.958, 11061.78
3686.886, 11062.86
3688.814, 11064.91
3690.743, 11066.93
3692.671, 11068.91
3694.600, 11072.21
3696.528, 11073.06
3698.457, 11063.42
3700.385, 11062.83
3702.314, 11083.12
3704.242, 11092.33
3706.171, 11092.03
3708.099, 11089.20
3710.028, 11081.54
3711.956, 11061.72
3713.885, 11049.38
3715.813, 11055.03
3717.741, 11052.56
3719.670, 11045.17
3721.598, 11047.55
3723.527, 11049.88
3725.455, 11036.43
3727.384, 11033.92
3729.312, 11059.06
3731.241, 11051.73
3733.169, 11022.65
3735.098, 11013.00
3737.026, 11013.83
3738.955, 11019.66
3740.883, 11027.18
3742.812, 11036.94
3744.740, 11032.70
3746.668, 11020.86
3748.597, 11026.76
3750.525, 11036.85
3752.454, 11042.54
3754.382, 11043.05
3756.311, 11037.33
3758.239, 11030.24
3760.168, 11024.08
3762.096, 11026.63
3764.025, 11029.83
3765.953, 11028.01
3767.882, 11026.58
3769.810, 11027.70
3771.739, 11021.01
3773.667, 11013.47
3775.595, 11019.25
3777.524, 11028.33
3779.452, 11034.83
3781.381, 11040.33
3783.309, 11043.61
3785.238, 11039.21
3787.166, 11033.58
3789.095, 11039.47
3791.023, 11044.36
3792.952, 11046.30
3794.880, 11036.15
3796.809, 11017.50
3798.737, 11016.45
3800.666, 11020.31
3802.594, 11013.55
3804.522, 11009.43
3806.451, 11010.57
3808.379, 11014.92
3810.308, 11017.51
3812.236, 10993.07
3814.165, 10973.16
3816.093, 10987.10
3818.022, 10996.80
3819.950, 10997.36
3821.879, 11000.70
3823.807, 11004.89
3825.736, 11005.38
3827.664, 11005.90
3829.593, 11013.04
3831.521, 11002.54
3833.449, 10980.00
3835.378, 10992.20
3837.306, 11006.42
3839.235, 10979.90
3841.163, 10964.56
3843.092, 10982.38
3845.020, 10981.21
3846.949, 10970.58
3848.877, 10979.07
3850.806, 10982.26
3852.734, 10961.68
3854.663, 10957.23
3856.591, 10973.26
3858.520, 10992.26
3860.448, 11004.00
3862.376, 10988.42
3864.305, 10971.86
3866.233, 10960.15
3868.162, 10963.31
3870.090, 10975.86
3872.019, 10979.14
3873.947, 10980.99
3875.876, 10994.26
3877.804, 10989.23
3879.733, 10964.51
3881.661, 10957.07
3883.590, 10958.86
3885.518, 10969.47
3887.447, 10967.65
3889.375, 10944.89
3891.303, 10956.05
3893.232, 10984.58
3895.160, 11000.72
3897.089, 10999.42
3899.017, 10959.15
3900.946, 10935.72
3902.874, 10932.58
3904.803, 10947.96
3906.731, 10964.63
3908.660, 10957.43
3910.588, 10951.61
3912.517, 10955.39
3914.445, 10957.87
3916.374, 10959.20
3918.302, 10972.22
3920.230, 10971.73
3922.159, 10944.19
3924.087, 10931.81
3926.016, 10935.38
3927.944, 10940.99
3929.873, 10947.10
3931.801, 10946.82
3933.730, 10931.32
3935.658, 10908.58
3937.587, 10903.71
3939.515, 10909.24
3941.444, 10923.62
3943.372, 10931.28
3945.301, 10928.80
3947.229, 10919.02
3949.157, 10911.82
3951.086, 10912.89
3953.014, 10911.23
3954.943, 10916.64
3956.871, 10910.74
3958.800, 10894.21
3960.728, 10882.72
3962.657, 10876.21
3964.585, 10874.25
3966.514, 10869.24
3968.442, 10863.93
3970.371, 10866.85
3972.299, 10869.77
3974.228, 10873.53
3976.156, 10869.70
3978.084, 10857.09
3980.013, 10842.13
3981.941, 10829.55
3983.870, 10834.42
3985.798, 10834.17
3987.727, 10822.94
3989.655, 10826.44
3991.584, 10833.44
3993.512, 10829.79
3995.441, 10826.43
3997.369, 10825.57
3999.298, 10827.08
4001.226, 10828.57
4003.155, 10828.07
4005.083, 10829.59
4007.011, 10835.05
4008.940, 10831.41
4010.868, 10821.28
4012.797, 10810.11
4014.725, 10801.26
4016.654, 10796.31
4018.582, 10805.89
4020.511, 10824.46
4022.439, 10824.58
4024.368, 10819.37
4026.296, 10818.21
4028.225, 10810.04
4030.153, 10796.64
4032.082, 10803.83
4034.010, 10813.70
4035.938, 10810.90
4037.867, 10798.42
4039.795, 10777.81
4041.724, 10769.87
4043.652, 10768.67
4045.581, 10770.31
4047.509, 10774.33
4049.438, 10778.76
4051.366, 10765.56
4053.295, 10752.51
4055.223, 10761.17
4057.152, 10766.98
4059.080, 10765.17
4061.009, 10764.80
4062.937, 10759.29
4064.865, 10753.86
4066.794, 10745.73
4068.722, 10726.55
4070.651, 10723.13
4072.579, 10729.23
4074.508, 10726.29
4076.436, 10718.37
4078.365, 10699.50
4080.293, 10693.98
4082.222, 10700.44
4084.150, 10696.68
4086.079, 10688.67
4088.007, 10686.21
4089.936, 10690.25
4091.864, 10688.53
4093.792, 10684.49
4095.721, 10678.80
4097.649, 10661.37
4099.578, 10662.86
4101.506, 10679.11
4103.435, 10675.30
4105.363, 10669.53
4107.292, 10656.61
4109.220, 10644.62
4111.148, 10642.06
4113.077, 10636.37
4115.005, 10622.69
4116.934, 10602.67
4118.862, 10600.79
4120.791, 10610.74
4122.719, 10622.19
4124.648, 10624.55
4126.576, 10604.11
4128.505, 10600.17
4130.433, 10614.66
4132.362, 10627.22
4134.290, 10626.59
4136.219, 10609.02
4138.147, 10594.53
4140.076, 10583.82
4142.004, 10570.92
4143.933, 10563.51
4145.861, 10564.72
4147.790, 10565.78
4149.718, 10562.82
4151.646, 10564.06
4153.575, 10567.69
4155.503, 10560.44
4157.432, 10549.38
4159.360, 10549.94
4161.289, 10554.27
4163.217, 10548.19
4165.146, 10546.07
4167.074, 10546.11
4169.002, 10538.01
4170.931, 10527.23
4172.859, 10519.69
4174.788, 10507.61
4176.716, 10492.96
4178.645, 10483.77
4180.573, 10488.59
4182.502, 10491.60
4184.430, 10481.30
4186.359, 10469.64
4188.287, 10458.12
4190.216, 10441.31
4192.144, 10427.11
4194.073, 10438.37
4196.001, 10440.14
4197.930, 10417.54
4199.858, 10403.48
4201.787, 10404.79
4203.715, 10430.92
4205.644, 10438.78
4207.572, 10418.78
4209.500, 10419.11
4211.429, 10416.03
4213.357, 10370.22
4215.286, 10361.31
4217.214, 10395.47
4219.143, 10388.51
4221.071, 10370.79
4223.000, 10363.87
4224.928, 10356.49
4226.856, 10348.97
4228.785, 10337.30
4230.713, 10328.08
4232.642, 10329.87
4234.570, 10322.06
4236.499, 10310.56
4238.427, 10329.52
4240.356, 10338.89
4242.284, 10312.84
4244.213, 10284.68
4246.141, 10261.78
4248.070, 10248.70
4249.998, 10249.68
4251.927, 10269.40
4253.855, 10276.18
4255.784, 10272.98
4257.712, 10259.16
4259.641, 10251.36
4261.569, 10253.14
4263.498, 10267.76
4265.426, 10280.81
4267.354, 10280.69
4269.283, 10263.28
4271.211, 10236.75
4273.140, 10252.68
4275.068, 10271.86
4276.997, 10264.54
4278.925, 10256.33
4280.854, 10250.78
4282.782, 10261.08
4284.710, 10262.75
4286.639, 10242.79
4288.567, 10236.31
4290.496, 10240.26
4292.424, 10260.10
4294.353, 10251.37
4296.281, 10204.45
4298.210, 10185.64
4300.138, 10184.85
4302.067, 10199.37
4303.995, 10210.49
4305.924, 10216.71
4307.852, 10217.04
4309.781, 10217.22
4311.709, 10218.63
4313.638, 10223.65
4315.566, 10229.18
4317.495, 10230.53
4319.423, 10228.84
4321.352, 10225.74
4323.280, 10192.51
4325.208, 10160.58
4327.137, 10170.26
4329.065, 10188.42
4330.994, 10205.66
4332.922, 10173.65
4334.851, 10148.39
4336.779, 10168.51
4338.708, 10161.85
4340.636, 10142.70
4342.564, 10152.99
4344.493, 10155.33
4346.421, 10139.03
4348.350, 10141.57
4350.278, 10142.56
4352.207, 10121.63
4354.135, 10093.19
4356.064, 10067.81
4357.992, 10091.99
4359.921, 10116.82
4361.849, 10120.54
4363.778, 10128.89
4365.706, 10135.76
4367.635, 10126.25
4369.563, 10121.24
4371.492, 10123.33
4373.420, 10121.60
4375.349, 10117.06
4377.277, 10112.55
4379.206, 10088.45
4381.134, 10056.56
4383.063, 10039.76
4384.991, 10049.06
4386.919, 10086.55
4388.848, 10082.42
4390.776, 10055.89
4392.705, 10013.97
4394.633, 10001.48
4396.562, 10010.81
4398.490, 9999.436
4400.418, 9990.970
4402.347, 9999.252
4404.275, 9994.763
4406.204, 9985.284
4408.132, 9976.677
4410.061, 9977.642
4411.989, 9984.756
4413.918, 9975.265
4415.846, 9960.546
4417.775, 9944.901
4419.703, 9943.200
4421.632, 9945.804
4423.560, 9938.844
4425.489, 9933.321
4427.417, 9931.507
4429.346, 9934.527
4431.274, 9941.249
4433.203, 9951.675
4435.131, 9951.156
4437.060, 9942.418
4438.988, 9927.048
4440.917, 9916.866
4442.845, 9912.888
4444.773, 9912.788
4446.702, 9906.624
4448.630, 9885.979
4450.559, 9880.764
4452.487, 9887.655
4454.416, 9905.853
4456.344, 9911.019
4458.272, 9902.291
4460.201, 9900.229
4462.129, 9902.087
4464.058, 9907.755
4465.986, 9905.012
4467.915, 9891.447
4469.843, 9855.394
4471.772, 9841.636
4473.700, 9847.854
4475.629, 9855.660
4477.557, 9847.893
4479.486, 9813.229
4481.414, 9828.144
4483.343, 9850.474
4485.271, 9836.560
4487.200, 9830.953
4489.128, 9831.283
4491.057, 9818.941
4492.985, 9812.034
4494.914, 9813.562
4496.842, 9810.641
4498.771, 9803.960
4500.699, 9793.587
4502.627, 9788.662
4504.556, 9784.163
4506.484, 9768.381
4508.413, 9763.247
4510.341, 9767.920
4512.270, 9754.038
4514.198, 9738.825
4516.126, 9730.923
4518.055, 9709.601
4519.983, 9696.963
4521.912, 9721.748
4523.840, 9723.976
4525.769, 9708.059
4527.697, 9693.646
4529.626, 9693.254
4531.554, 9706.448
4533.483, 9710.571
4535.411, 9709.154
4537.340, 9707.037
4539.268, 9685.798
4541.197, 9662.877
4543.125, 9661.677
4545.054, 9668.401
4546.982, 9677.647
4548.911, 9681.163
4550.839, 9679.033
4552.768, 9671.165
4554.696, 9645.607
4556.625, 9621.465
4558.553, 9608.201
4560.481, 9639.731
4562.410, 9677.012
4564.338, 9651.598
4566.267, 9636.387
4568.195, 9631.061
4570.124, 9594.299
4572.052, 9579.631
4573.980, 9598.926
4575.909, 9593.826
4577.837, 9587.793
4579.766, 9596.771
4581.694, 9580.006
4583.623, 9557.309
4585.551, 9556.746
4587.480, 9568.187
4589.408, 9582.716
4591.337, 9575.581
4593.265, 9566.421
4595.194, 9559.725
4597.122, 9558.444
4599.051, 9552.846
4600.979, 9538.559
4602.908, 9521.634
4604.836, 9513.271
4606.765, 9536.509
4608.693, 9522.311
4610.622, 9490.093
4612.550, 9483.637
4614.479, 9477.646
4616.407, 9470.438
4618.335, 9479.156
4620.264, 9476.465
4622.192, 9457.422
4624.121, 9457.943
4626.049, 9464.452
4627.978, 9468.285
4629.906, 9461.715
4631.834, 9451.358
4633.763, 9445.107
4635.691, 9441.332
4637.620, 9433.381
4639.548, 9400.271
4641.477, 9382.035
4643.405, 9382.235
4645.334, 9390.736
4647.262, 9394.112
4649.191, 9388.458
4651.119, 9387.163
4653.048, 9383.193
4654.976, 9372.744
4656.905, 9355.222
4658.833, 9340.095
4660.762, 9337.808
4662.690, 9334.184
4664.619, 9331.631
4666.547, 9335.449
4668.476, 9338.519
4670.404, 9338.088
4672.333, 9330.796
4674.261, 9317.703
4676.189, 9301.288
4678.118, 9286.589
4680.046, 9277.302
4681.975, 9274.697
4683.903, 9262.236
4685.832, 9265.158
4687.760, 9298.204
4689.688, 9308.056
4691.617, 9299.622
4693.545, 9274.661
4695.474, 9267.624
4697.402, 9266.099
4699.331, 9251.259
4701.259, 9222.172
4703.188, 9193.987
4705.116, 9206.217
4707.045, 9211.017
4708.973, 9203.315
4710.902, 9189.333
4712.830, 9193.357
4714.759, 9216.760
4716.687, 9209.110
4718.616, 9190.248
4720.544, 9169.490
4722.473, 9166.655
4724.401, 9168.756
4726.330, 9172.099
4728.258, 9132.290
4730.187, 9093.658
4732.115, 9094.473
4734.043, 9094.720
4735.972, 9097.111
4737.900, 9110.024
4739.829, 9116.812
4741.757, 9113.629
4743.686, 9092.624
4745.614, 9073.198
4747.542, 9061.951
4749.471, 9073.313
4751.399, 9083.588
4753.328, 9086.377
4755.256, 9072.313
4757.185, 9063.157
4759.113, 9062.982
4761.042, 9064.830
4762.970, 9060.745
4764.899, 9049.317
4766.827, 9038.666
4768.756, 9023.887
4770.684, 9002.832
4772.613, 8988.959
4774.541, 8984.371
4776.470, 8989.997
4778.398, 8994.612
4780.327, 8994.929
4782.255, 8984.734
4784.184, 9001.121
4786.112, 9008.584
4788.041, 8975.381
4789.969, 8951.561
4791.897, 8941.193
4793.826, 8949.432
4795.754, 8940.712
4797.683, 8928.134
4799.611, 8934.647
4801.540, 8923.855
4803.468, 8903.163
4805.396, 8882.339
4807.325, 8884.422
4809.253, 8897.548
4811.182, 8894.694
4813.110, 8893.868
4815.039, 8891.802
4816.967, 8873.755
4818.896, 8863.894
4820.824, 8861.979
4822.753, 8855.544
4824.681, 8849.226
4826.610, 8842.749
4828.538, 8835.358
4830.467, 8821.591
4832.395, 8803.034
4834.324, 8788.409
4836.252, 8779.927
4838.181, 8775.754
4840.109, 8762.264
4842.038, 8754.350
4843.966, 8753.694
4845.895, 8749.999
4847.823, 8751.056
4849.751, 8754.637
4851.680, 8724.613
4853.608, 8711.826
4855.537, 8725.126
4857.465, 8734.474
4859.394, 8724.293
4861.322, 8694.487
4863.250, 8669.530
4865.179, 8665.371
4867.107, 8679.783
4869.036, 8651.507
4870.964, 8637.144
4872.893, 8648.425
4874.821, 8639.927
4876.750, 8636.044
4878.678, 8642.026
4880.607, 8635.437
4882.535, 8627.942
4884.464, 8621.417
4886.392, 8599.813
4888.321, 8585.027
4890.249, 8583.155
4892.178, 8590.222
4894.106, 8593.664
4896.035, 8589.925
4897.963, 8571.470
4899.892, 8563.438
4901.820, 8571.030
4903.749, 8590.200
4905.677, 8577.883
4907.605, 8539.903
4909.534, 8553.504
4911.462, 8548.843
4913.391, 8518.674
4915.319, 8511.734
4917.248, 8508.252
4919.176, 8504.382
4921.104, 8502.185
4923.033, 8499.906
4924.961, 8497.178
4926.890, 8500.024
4928.818, 8490.653
4930.747, 8470.553
4932.675, 8449.120
4934.604, 8435.085
4936.532, 8427.567
4938.461, 8418.742
4940.389, 8422.944
4942.318, 8429.642
4944.246, 8414.309
4946.175, 8407.561
4948.103, 8407.434
4950.032, 8409.793
4951.960, 8395.135
4953.889, 8374.728
4955.817, 8362.456
4957.746, 8361.659
4959.674, 8363.390
4961.603, 8357.817
4963.531, 8351.671
4965.459, 8346.956
4967.388, 8346.473
4969.316, 8331.334
4971.245, 8316.535
4973.173, 8312.875
4975.102, 8314.949
4977.030, 8315.252
4978.958, 8309.721
4980.887, 8292.525
4982.815, 8291.745
4984.744, 8312.377
4986.672, 8294.917
4988.601, 8273.029
4990.529, 8259.366
4992.458, 8253.193
4994.386, 8241.281
4996.315, 8225.498
4998.243, 8226.627
5000.172, 8220.850
5002.100, 8205.983
5004.029, 8180.995
5005.957, 8189.225
5007.886, 8207.966
5009.814, 8184.325
5011.743, 8159.576
5013.671, 8145.608
5015.600, 8155.827
5017.528, 8155.968
5019.457, 8147.858
5021.385, 8135.575
5023.313, 8094.570
5025.242, 8073.782
5027.170, 8105.404
5029.099, 8088.644
5031.027, 8065.052
5032.956, 8055.432
5034.884, 8070.544
5036.813, 8080.834
5038.741, 8079.647
5040.669, 8078.634
5042.598, 8064.063
5044.526, 8040.658
5046.455, 8030.774
5048.383, 8019.901
5050.312, 8011.481
5052.240, 8020.303
5054.169, 8013.329
5056.097, 7994.802
5058.026, 7967.845
5059.954, 7949.371
5061.883, 7950.067
5063.811, 7974.746
5065.740, 7965.878
5067.668, 7945.772
5069.597, 7927.273
5071.525, 7907.159
5073.454, 7890.646
5075.382, 7884.333
5077.311, 7918.495
5079.239, 7917.946
5081.167, 7893.752
5083.096, 7902.003
5085.024, 7893.939
5086.953, 7878.710
5088.881, 7874.604
5090.810, 7875.158
5092.738, 7870.794
5094.667, 7855.831
5096.595, 7861.356
5098.523, 7860.092
5100.452, 7839.811
5102.380, 7821.152
5104.309, 7811.763
5106.237, 7809.107
5108.166, 7796.741
5110.094, 7780.430
5112.023, 7772.479
5113.951, 7800.517
5115.880, 7802.421
5117.808, 7784.385
5119.737, 7756.087
5121.665, 7747.095
5123.594, 7742.093
5125.522, 7732.813
5127.451, 7725.026
5129.379, 7732.203
5131.308, 7747.759
5133.236, 7728.279
5135.165, 7704.931
5137.093, 7688.125
5139.021, 7685.808
5140.950, 7684.646
5142.878, 7689.999
5144.807, 7713.185
5146.735, 7713.588
5148.664, 7693.733
5150.592, 7658.884
5152.521, 7627.795
5154.449, 7630.046
5156.377, 7654.254
5158.306, 7648.750
5160.234, 7628.466
5162.163, 7609.068
5164.091, 7610.503
5166.020, 7596.003
5167.948, 7581.884
5169.877, 7581.010
5171.805, 7595.231
5173.734, 7602.064
5175.662, 7596.440
5177.591, 7597.240
5179.519, 7595.245
5181.448, 7585.970
5183.376, 7564.180
5185.305, 7537.786
5187.233, 7525.207
5189.162, 7541.375
5191.090, 7540.937
5193.019, 7536.104
5194.947, 7529.312
5196.875, 7496.487
5198.804, 7475.599
5200.732, 7469.350
5202.661, 7469.395
5204.589, 7459.221
5206.518, 7451.808
5208.446, 7461.446
5210.375, 7452.258
5212.303, 7442.796
5214.231, 7439.712
5216.160, 7439.588
5218.088, 7429.551
5220.017, 7413.239
5221.945, 7397.069
5223.874, 7393.700
5225.802, 7393.162
5227.731, 7388.063
5229.659, 7362.369
5231.588, 7335.451
5233.516, 7317.413
5235.445, 7321.069
5237.373, 7319.867
5239.302, 7315.699
5241.230, 7318.865
5243.159, 7309.415
5245.087, 7299.981
5247.016, 7296.437
5248.944, 7283.141
5250.873, 7278.265
5252.801, 7278.197
5254.729, 7262.438
5256.658, 7250.471
5258.586, 7241.039
5260.515, 7231.896
5262.443, 7214.470
5264.372, 7208.461
5266.300, 7214.290
5268.229, 7208.547
5270.157, 7182.474
5272.085, 7160.339
5274.014, 7184.449
5275.942, 7180.505
5277.871, 7161.626
5279.799, 7139.096
5281.728, 7133.353
5283.656, 7129.954
5285.585, 7121.733
5287.513, 7095.563
5289.442, 7097.338
5291.370, 7109.721
5293.299, 7119.674
5295.227, 7104.150
5297.156, 7083.400
5299.084, 7070.202
5301.013, 7081.804
5302.941, 7083.786
5304.870, 7079.780
5306.798, 7076.753
5308.727, 7081.661
5310.655, 7057.661
5312.583, 7014.775
5314.512, 7013.829
5316.440, 7020.235
5318.369, 7028.314
5320.297, 7036.396
5322.226, 7007.694
5324.154, 6977.106
5326.083, 6959.168
5328.011, 6958.935
5329.939, 6953.938
5331.868, 6944.678
5333.796, 6934.650
5335.725, 6923.920
5337.653, 6909.805
5339.582, 6895.664
5341.510, 6893.659
5343.439, 6897.155
5345.367, 6896.401
5347.296, 6881.630
5349.224, 6886.476
5351.153, 6882.738
5353.081, 6864.998
5355.010, 6840.474
5356.938, 6831.802
5358.867, 6828.175
5360.795, 6818.836
5362.724, 6821.588
5364.652, 6810.125
5366.581, 6788.388
5368.509, 6785.159
5370.438, 6768.067
5372.366, 6755.609
5374.294, 6759.954
5376.223, 6764.870
5378.151, 6757.333
5380.080, 6741.447
5382.008, 6727.845
5383.937, 6718.724
5385.865, 6711.834
5387.793, 6705.887
5389.722, 6701.144
5391.650, 6697.885
5393.579, 6694.323
5395.507, 6688.462
5397.436, 6676.920
5399.364, 6665.825
5401.293, 6658.405
5403.221, 6661.209
5405.150, 6644.042
5407.078, 6619.642
5409.007, 6601.188
5410.935, 6578.811
5412.864, 6577.839
5414.792, 6585.946
5416.721, 6568.982
5418.649, 6564.937
5420.578, 6554.656
5422.506, 6531.134
5424.435, 6529.015
5426.363, 6519.409
5428.292, 6510.104
5430.220, 6513.969
5432.148, 6499.388
5434.077, 6484.429
5436.005, 6475.696
5437.934, 6477.435
5439.862, 6448.627
5441.791, 6431.741
5443.719, 6447.971
5445.647, 6428.032
5447.576, 6416.651
5449.504, 6417.860
5451.433, 6425.448
5453.361, 6408.071
5455.290, 6390.399
5457.218, 6384.128
5459.147, 6398.342
5461.075, 6402.744
5463.004, 6386.431
5464.932, 6349.736
5466.861, 6330.315
5468.789, 6330.708
5470.718, 6326.716
5472.646, 6295.374
5474.575, 6290.308
5476.503, 6281.120
5478.432, 6264.396
5480.360, 6251.212
5482.289, 6237.626
5484.217, 6227.231
5486.146, 6223.529
5488.074, 6241.342
5490.002, 6227.419
5491.931, 6207.177
5493.859, 6204.636
5495.788, 6196.869
5497.716, 6203.485
5499.645, 6204.425
5501.573, 6170.880
5503.501, 6163.677
5505.430, 6170.870
##END=



