##NAMES=Peprossiite-(Ce)
##RRUFFID=R110144
##IDEAL CHEMISTRY=(Ce,La)Al_2_B_4_O_10.67_
##LOCALITY=Capranica, Vico Lake, Viterbo Province, Latium, Italy
##OWNER=RRUFF
##SOURCE=Donald M Doell 
##DESCRIPTION=Yellow platy crystals frozen in matrix
##STATUS=The identification of this mineral has been confirmed only by single crystal X-ray diffraction.
##URL=rruff.info/R110144
180.6480, 69.74415
181.1301, 69.55381
181.6122, 69.50900
182.0944, 69.69991
182.5765, 70.43444
183.0586, 72.30544
183.5407, 74.73068
184.0228, 76.41131
184.5049, 77.20213
184.9871, 77.90517
185.4692, 79.58437
185.9513, 82.08414
186.4334, 84.48579
186.9155, 86.29343
187.3976, 87.67032
187.8798, 89.24763
188.3619, 91.10654
188.8440, 92.92440
189.3261, 94.06763
189.8082, 94.60292
190.2903, 95.27182
190.7725, 96.66338
191.2546, 98.61508
191.7367, 99.98557
192.2188, 100.6152
192.7009, 100.9640
193.1830, 102.0447
193.6652, 103.8656
194.1473, 105.0753
194.6294, 104.4168
195.1115, 102.0976
195.5936, 100.9776
196.0757, 101.5574
196.5579, 102.8035
197.0400, 102.4942
197.5221, 100.4676
198.0042, 98.64095
198.4863, 98.18421
198.9684, 99.11348
199.4506, 100.0723
199.9327, 101.0379
200.4148, 101.8928
200.8969, 102.3168
201.3790, 102.2606
201.8611, 102.0733
202.3433, 101.9773
202.8254, 101.9938
203.3075, 101.7885
203.7896, 101.1789
204.2717, 100.4703
204.7538, 100.6077
205.2360, 101.8315
205.7181, 103.0029
206.2002, 103.2706
206.6823, 102.4092
207.1644, 102.1477
207.6465, 102.7885
208.1287, 104.0189
208.6108, 104.9581
209.0929, 105.5816
209.5750, 105.9855
210.0571, 106.1295
210.5392, 105.8971
211.0214, 106.0155
211.5035, 106.7693
211.9856, 107.8458
212.4677, 108.0467
212.9498, 106.9967
213.4319, 105.9199
213.9140, 105.6502
214.3962, 106.5028
214.8783, 107.0244
215.3604, 107.0016
215.8425, 106.5711
216.3246, 106.2619
216.8067, 106.0707
217.2889, 105.9976
217.7710, 106.1138
218.2531, 106.6031
218.7352, 106.6886
219.2173, 106.0919
219.6994, 105.0327
220.1816, 104.6588
220.6637, 105.3525
221.1458, 106.0536
221.6279, 106.0357
222.1100, 104.9592
222.5921, 104.0407
223.0743, 103.2914
223.5564, 102.7665
224.0385, 102.7706
224.5206, 103.5830
225.0027, 104.4839
225.4848, 105.0598
225.9670, 105.2903
226.4491, 105.2052
226.9312, 104.5835
227.4133, 103.6275
227.8954, 103.3721
228.3775, 104.2700
228.8597, 105.2150
229.3418, 105.4704
229.8239, 104.6135
230.3060, 104.0524
230.7881, 103.9606
231.2702, 104.2502
231.7524, 104.5128
232.2345, 104.6941
232.7166, 104.9149
233.1987, 105.2827
233.6808, 105.9946
234.1629, 106.3968
234.6451, 106.3362
235.1272, 105.9260
235.6093, 105.6352
236.0914, 105.3494
236.5735, 105.3371
237.0556, 105.8689
237.5378, 107.5623
238.0199, 108.4384
238.5020, 108.1961
238.9841, 107.0613
239.4662, 105.8608
239.9483, 104.2165
240.4305, 103.0249
240.9126, 102.8689
241.3947, 104.4641
241.8768, 105.5159
242.3589, 105.7958
242.8410, 105.4748
243.3232, 105.1284
243.8053, 104.7053
244.2874, 104.3282
244.7695, 104.0766
245.2516, 104.0363
245.7337, 103.9021
246.2159, 103.5481
246.6980, 103.1048
247.1801, 103.0423
247.6622, 103.6390
248.1443, 104.1903
248.6264, 104.3268
249.1086, 103.8136
249.5907, 103.4461
250.0728, 103.2365
250.5549, 103.1805
251.0370, 103.3387
251.5191, 104.0441
252.0013, 104.4396
252.4834, 104.0186
252.9655, 102.2033
253.4476, 101.1634
253.9297, 101.3378
254.4118, 102.0945
254.8940, 101.8938
255.3761, 100.0402
255.8582, 98.45840
256.3403, 98.11811
256.8224, 99.62635
257.3046, 100.3045
257.7867, 99.78722
258.2688, 98.66531
258.7509, 98.11885
259.2330, 98.41664
259.7151, 98.74753
260.1973, 98.80283
260.6794, 98.52499
261.1615, 98.20338
261.6436, 97.76900
262.1257, 97.35473
262.6078, 97.23481
263.0900, 97.56635
263.5721, 97.82204
264.0542, 97.77203
264.5363, 97.34138
265.0184, 97.14575
265.5005, 97.29558
265.9827, 97.55075
266.4648, 97.45482
266.9469, 96.73606
267.4290, 96.48391
267.9111, 97.27950
268.3932, 99.23483
268.8754, 100.1908
269.3575, 99.78313
269.8396, 98.93380
270.3217, 98.87844
270.8038, 99.84304
271.2859, 100.7191
271.7681, 101.2235
272.2502, 101.3602
272.7323, 101.1903
273.2144, 100.5520
273.6965, 99.94051
274.1786, 99.93685
274.6608, 100.6403
275.1429, 101.4339
275.6250, 102.2394
276.1071, 103.0248
276.5892, 103.5132
277.0714, 103.6178
277.5535, 103.6523
278.0356, 103.9122
278.5177, 104.4155
278.9998, 104.9437
279.4819, 105.4259
279.9641, 105.9046
280.4462, 106.6868
280.9283, 107.9096
281.4104, 108.8528
281.8925, 108.6218
282.3746, 107.1913
282.8568, 106.5040
283.3389, 107.0573
283.8210, 108.4136
284.3031, 109.4530
284.7852, 110.1819
285.2673, 110.5923
285.7495, 110.5119
286.2316, 109.9959
286.7137, 109.7735
287.1958, 109.9967
287.6779, 110.4704
288.1600, 110.8291
288.6422, 111.0720
289.1243, 111.2384
289.6064, 111.3309
290.0885, 111.3575
290.5706, 111.3848
291.0527, 111.4487
291.5349, 111.4326
292.0170, 111.0076
292.4991, 110.2241
292.9812, 109.6221
293.4633, 109.5629
293.9454, 109.9244
294.4276, 110.3719
294.9097, 110.9066
295.3918, 111.4241
295.8739, 111.7919
296.3560, 112.0227
296.8381, 112.1922
297.3203, 112.3486
297.8024, 112.4646
298.2845, 112.4153
298.7666, 112.1743
299.2487, 112.0168
299.7308, 112.3143
300.2130, 112.9347
300.6951, 113.4956
301.1772, 113.9324
301.6593, 114.1790
302.1414, 113.8711
302.6235, 113.0322
303.1057, 112.5843
303.5878, 113.7803
304.0699, 115.8695
304.5520, 117.4272
305.0341, 117.6886
305.5162, 117.4992
305.9984, 117.7294
306.4805, 118.3251
306.9626, 118.9300
307.4447, 119.4012
307.9268, 119.7024
308.4089, 119.6869
308.8911, 118.9069
309.3732, 118.4370
309.8553, 119.7750
310.3374, 122.3138
310.8195, 124.0223
311.3016, 122.9296
311.7838, 120.8939
312.2659, 119.5398
312.7480, 119.2803
313.2301, 119.5113
313.7122, 120.2202
314.1943, 121.1586
314.6765, 121.7879
315.1586, 121.9095
315.6407, 121.6200
316.1228, 120.7749
316.6049, 119.1286
317.0870, 117.9347
317.5692, 118.1577
318.0513, 119.0848
318.5334, 119.7201
319.0155, 119.5986
319.4976, 119.2421
319.9797, 118.8200
320.4619, 118.3376
320.9440, 117.8885
321.4261, 117.5001
321.9082, 117.1604
322.3903, 116.8605
322.8724, 116.4811
323.3546, 116.2561
323.8367, 116.2889
324.3188, 116.5719
324.8009, 116.8778
325.2830, 117.2142
325.7651, 117.5343
326.2473, 117.8076
326.7294, 118.0162
327.2115, 118.2007
327.6936, 118.4017
328.1757, 118.5974
328.6578, 118.6796
329.1400, 118.4825
329.6221, 118.3149
330.1042, 118.3187
330.5863, 118.6992
331.0684, 118.8989
331.5505, 118.6500
332.0327, 118.2660
332.5148, 118.4938
332.9969, 119.9026
333.4790, 121.1521
333.9611, 121.7361
334.4432, 121.4208
334.9254, 121.3682
335.4075, 121.6910
335.8896, 122.1745
336.3717, 122.4984
336.8538, 122.5364
337.3359, 122.7128
337.8180, 123.1793
338.3001, 123.9282
338.7823, 124.6260
339.2644, 125.3005
339.7465, 125.8614
340.2286, 126.2476
340.7107, 126.4765
341.1928, 126.3751
341.6750, 125.7333
342.1571, 124.7934
342.6392, 124.6087
343.1213, 125.2799
343.6034, 126.1639
344.0855, 127.0247
344.5677, 127.8319
345.0498, 127.7883
345.5319, 126.4856
346.0140, 124.8060
346.4961, 124.5555
346.9782, 125.6857
347.4604, 127.0412
347.9425, 128.2468
348.4246, 129.1896
348.9067, 129.1751
349.3888, 127.9915
349.8709, 126.7257
350.3531, 126.8814
350.8352, 128.1320
351.3173, 129.2618
351.7994, 129.7882
352.2815, 129.8591
352.7636, 129.6739
353.2458, 129.2318
353.7279, 128.6386
354.2100, 127.6787
354.6921, 126.6709
355.1742, 126.2203
355.6563, 126.9902
356.1385, 127.8734
356.6206, 127.7029
357.1027, 126.6515
357.5848, 125.5950
358.0669, 124.8150
358.5490, 124.3899
359.0312, 124.5470
359.5133, 125.7548
359.9954, 126.5755
360.4775, 125.5793
360.9596, 123.5915
361.4417, 122.3765
361.9239, 123.6743
362.4060, 125.1401
362.8881, 125.2872
363.3702, 123.6532
363.8523, 122.3754
364.3344, 122.2895
364.8166, 122.8757
365.2987, 123.5469
365.7808, 124.4718
366.2629, 125.1458
366.7450, 125.3158
367.2271, 124.9839
367.7093, 124.7720
368.1914, 124.8632
368.6735, 125.0246
369.1556, 125.1056
369.6377, 125.0481
370.1198, 124.9647
370.6020, 124.7082
371.0841, 124.4049
371.5662, 124.5466
372.0483, 125.5029
372.5304, 126.4476
373.0125, 126.9974
373.4947, 126.9065
373.9768, 127.1488
374.4589, 127.9479
374.9410, 128.9037
375.4231, 129.2730
375.9052, 128.7543
376.3874, 128.5130
376.8695, 128.9510
377.3516, 130.0618
377.8337, 131.2173
378.3158, 132.5149
378.7979, 133.6447
379.2801, 134.2448
379.7622, 134.3029
380.2443, 134.1884
380.7264, 133.8270
381.2085, 133.4596
381.6906, 133.8714
382.1728, 135.0732
382.6549, 136.2967
383.1370, 136.8557
383.6191, 136.9614
384.1012, 137.4916
384.5833, 138.6228
385.0655, 139.9009
385.5476, 140.7301
386.0297, 141.1934
386.5118, 141.5492
386.9939, 141.6833
387.4760, 141.8865
387.9582, 142.7229
388.4403, 144.2164
388.9224, 145.6895
389.4045, 146.6915
389.8866, 147.2967
390.3687, 147.5757
390.8509, 147.1109
391.3330, 146.8036
391.8151, 147.4126
392.2972, 148.7683
392.7793, 150.1787
393.2614, 151.4313
393.7436, 152.5213
394.2257, 153.4601
394.7078, 154.2116
395.1899, 154.8799
395.6720, 155.5009
396.1541, 156.0596
396.6363, 156.5328
397.1184, 156.9650
397.6005, 157.2617
398.0826, 157.2371
398.5647, 156.7918
399.0468, 156.8363
399.5290, 158.2691
400.0111, 159.7702
400.4932, 160.2741
400.9753, 158.9139
401.4574, 157.7079
401.9395, 156.8257
402.4217, 156.2341
402.9038, 155.8296
403.3859, 155.7776
403.8680, 155.6712
404.3501, 155.3122
404.8322, 154.6621
405.3144, 153.8857
405.7965, 152.9358
406.2786, 151.9266
406.7607, 150.9480
407.2428, 149.9218
407.7249, 149.3840
408.2071, 149.7573
408.6892, 150.8247
409.1713, 151.1726
409.6534, 150.7432
410.1355, 149.9150
410.6176, 148.7910
411.0998, 147.4725
411.5819, 146.6433
412.0640, 146.5658
412.5461, 146.8134
413.0282, 146.6906
413.5103, 146.2502
413.9925, 145.8075
414.4746, 145.7325
414.9567, 145.7063
415.4388, 145.0550
415.9209, 143.6301
416.4030, 142.4143
416.8852, 142.5290
417.3673, 143.3452
417.8494, 143.8353
418.3315, 143.3254
418.8136, 142.5975
419.2957, 142.1316
419.7779, 141.8992
420.2600, 141.6574
420.7421, 141.3575
421.2242, 140.9733
421.7063, 140.4741
422.1884, 139.7309
422.6706, 139.0962
423.1527, 138.5479
423.6348, 138.1737
424.1169, 138.1309
424.5990, 139.1398
425.0811, 139.8127
425.5633, 139.4923
426.0454, 137.9333
426.5275, 137.1077
427.0096, 137.3447
427.4917, 138.0443
427.9738, 138.7800
428.4560, 139.7819
428.9381, 140.2950
429.4202, 140.0153
429.9023, 139.2291
430.3844, 138.9855
430.8665, 139.5071
431.3487, 139.9426
431.8308, 139.8808
432.3129, 139.3133
432.7950, 138.3666
433.2771, 136.8763
433.7592, 135.4640
434.2414, 135.0906
434.7235, 135.6668
435.2056, 136.1100
435.6877, 136.0854
436.1698, 135.7132
436.6519, 135.0079
437.1341, 134.0112
437.6162, 133.4100
438.0983, 134.3682
438.5804, 135.9073
439.0625, 136.1323
439.5446, 134.3967
440.0268, 132.4632
440.5089, 132.1348
440.9910, 132.7599
441.4731, 133.0103
441.9552, 131.6911
442.4373, 130.2741
442.9195, 129.7562
443.4016, 130.1511
443.8837, 130.6340
444.3658, 131.0412
444.8479, 131.2990
445.3300, 131.3341
445.8122, 130.7793
446.2943, 130.4623
446.7764, 130.8327
447.2585, 131.5504
447.7406, 131.7430
448.2227, 130.5941
448.7049, 129.6752
449.1870, 129.6254
449.6691, 130.7349
450.1512, 130.9096
450.6333, 129.5872
451.1154, 127.9453
451.5976, 127.1975
452.0797, 127.7314
452.5618, 127.8800
453.0439, 127.3042
453.5260, 126.2282
454.0081, 125.2379
454.4903, 124.3131
454.9724, 123.5936
455.4545, 123.2527
455.9366, 123.2274
456.4187, 123.0009
456.9008, 122.5207
457.3830, 122.0439
457.8651, 121.9563
458.3472, 122.1385
458.8293, 122.2128
459.3114, 122.0320
459.7935, 121.7049
460.2757, 121.4217
460.7578, 121.1375
461.2399, 120.6294
461.7220, 119.4627
462.2041, 118.1685
462.6862, 117.2419
463.1684, 116.7649
463.6505, 116.6156
464.1326, 117.1866
464.6147, 117.9205
465.0968, 118.1001
465.5789, 116.8740
466.0611, 115.7120
466.5432, 115.0890
467.0253, 114.9733
467.5074, 114.8357
467.9895, 115.0152
468.4716, 114.8341
468.9538, 113.8436
469.4359, 111.1693
469.9180, 109.6607
470.4001, 109.7408
470.8822, 110.6802
471.3643, 111.4925
471.8465, 112.3047
472.3286, 112.5913
472.8107, 112.0795
473.2928, 110.9215
473.7749, 109.9321
474.2570, 109.1268
474.7392, 108.4342
475.2213, 107.7012
475.7034, 106.9877
476.1855, 106.8004
476.6676, 107.2984
477.1497, 107.9671
477.6319, 108.0891
478.1140, 107.7960
478.5961, 107.5100
479.0782, 107.4679
479.5603, 107.4965
480.0424, 107.3239
480.5246, 106.9879
481.0067, 106.8008
481.4888, 107.0584
481.9709, 107.4938
482.4530, 107.8692
482.9352, 108.1077
483.4173, 108.3591
483.8994, 108.7982
484.3815, 109.2619
484.8636, 109.4981
485.3457, 109.4101
485.8279, 109.1305
486.3100, 108.5243
486.7921, 107.5976
487.2742, 107.1139
487.7563, 107.2487
488.2384, 107.6470
488.7206, 108.1805
489.2027, 109.0668
489.6848, 109.4709
490.1669, 109.2280
490.6490, 108.6701
491.1311, 108.2498
491.6133, 107.9507
492.0954, 107.9512
492.5775, 108.4496
493.0596, 109.2519
493.5417, 109.5378
494.0238, 109.2959
494.5060, 109.1229
494.9881, 109.5574
495.4702, 110.3920
495.9523, 111.1808
496.4344, 111.8992
496.9165, 112.3849
497.3987, 112.1755
497.8808, 111.6448
498.3629, 111.5033
498.8450, 112.7218
499.3271, 113.8561
499.8092, 113.7850
500.2914, 112.7063
500.7735, 111.7377
501.2556, 111.3807
501.7377, 111.2038
502.2198, 110.8855
502.7019, 110.1203
503.1841, 109.9141
503.6662, 110.7567
504.1483, 112.0761
504.6304, 113.2083
505.1125, 114.0648
505.5946, 114.8812
506.0768, 115.8813
506.5589, 116.8898
507.0410, 116.8244
507.5231, 115.1726
508.0052, 113.8836
508.4873, 114.2819
508.9695, 116.3820
509.4516, 117.6667
509.9337, 118.0412
510.4158, 117.9279
510.8979, 117.6240
511.3800, 117.1961
511.8622, 116.9820
512.3443, 117.1669
512.8264, 117.4646
513.3085, 117.3407
513.7906, 116.9595
514.2728, 116.9091
514.7549, 118.0175
515.2370, 119.2780
515.7191, 119.7182
516.2012, 119.2262
516.6833, 118.7756
517.1655, 118.9293
517.6476, 119.2648
518.1297, 119.4143
518.6118, 118.7878
519.0939, 118.6131
519.5760, 119.4707
520.0582, 120.8893
520.5403, 121.7598
521.0224, 121.7840
521.5045, 121.6548
521.9866, 121.4914
522.4688, 121.2933
522.9509, 121.2744
523.4330, 121.4451
523.9151, 121.7644
524.3972, 122.2628
524.8793, 122.9431
525.3615, 123.5395
525.8436, 124.0709
526.3257, 124.4041
526.8078, 124.1049
527.2899, 123.3419
527.7720, 122.9474
528.2542, 123.5590
528.7363, 124.4746
529.2184, 124.6299
529.7005, 124.1684
530.1826, 123.8803
530.6647, 124.5797
531.1469, 125.4648
531.6290, 125.7679
532.1111, 125.2398
532.5932, 124.8389
533.0753, 125.0596
533.5574, 125.5490
534.0396, 125.9374
534.5217, 126.1326
535.0038, 126.2629
535.4859, 126.3863
535.9680, 126.4638
536.4501, 126.3177
536.9323, 125.6330
537.4144, 125.2730
537.8965, 125.7273
538.3786, 127.0267
538.8607, 127.6083
539.3428, 127.3125
539.8250, 126.7719
540.3071, 126.6068
540.7892, 126.7654
541.2713, 126.6400
541.7534, 125.9987
542.2355, 125.4399
542.7177, 126.0169
543.1998, 127.4195
543.6819, 128.6469
544.1640, 129.3459
544.6461, 129.5733
545.1282, 129.1811
545.6104, 128.2659
546.0925, 127.4166
546.5746, 126.6531
547.0567, 126.2617
547.5388, 126.6220
548.0209, 128.1861
548.5031, 129.1285
548.9852, 128.3311
549.4673, 127.0857
549.9494, 126.7985
550.4315, 128.5974
550.9136, 129.5877
551.3958, 129.0997
551.8779, 127.7019
552.3600, 127.1606
552.8421, 127.7035
553.3242, 128.2891
553.8063, 128.4802
554.2885, 128.3268
554.7706, 128.2108
555.2527, 128.1336
555.7348, 128.0834
556.2169, 128.1056
556.6990, 128.1463
557.1812, 128.0343
557.6633, 127.7054
558.1454, 127.3735
558.6275, 127.3213
559.1096, 127.4014
559.5917, 127.3513
560.0739, 126.8129
560.5560, 126.3598
561.0381, 126.3909
561.5202, 126.7882
562.0023, 127.0249
562.4844, 126.8193
562.9666, 126.5505
563.4487, 126.3713
563.9308, 126.2875
564.4129, 126.2805
564.8950, 126.4015
565.3771, 126.5415
565.8593, 126.5972
566.3414, 126.5324
566.8235, 126.5423
567.3056, 126.6651
567.7877, 126.8407
568.2698, 127.0173
568.7520, 127.1867
569.2341, 127.1670
569.7162, 126.7863
570.1983, 126.2471
570.6804, 125.9992
571.1625, 125.9859
571.6447, 125.7977
572.1268, 124.8143
572.6089, 123.7320
573.0910, 123.2938
573.5731, 123.6427
574.0552, 124.1230
574.5374, 124.5169
575.0195, 124.8625
575.5016, 125.1965
575.9837, 125.6102
576.4658, 125.9020
576.9479, 126.0401
577.4301, 126.0465
577.9122, 125.9468
578.3943, 125.6471
578.8764, 125.4156
579.3585, 125.3199
579.8406, 125.3508
580.3228, 125.4638
580.8049, 125.6654
581.2870, 125.9047
581.7691, 126.2548
582.2512, 126.6340
582.7333, 126.6522
583.2155, 126.2589
583.6975, 125.8057
584.1796, 125.6476
584.6617, 125.6454
585.1439, 125.5348
585.6260, 125.0892
586.1081, 124.8050
586.5902, 125.1657
587.0723, 125.8861
587.5544, 126.4084
588.0366, 126.3899
588.5187, 126.3422
589.0008, 126.5157
589.4829, 126.8810
589.9650, 126.8908
590.4471, 126.3218
590.9293, 125.6753
591.4114, 125.1432
591.8935, 124.6972
592.3756, 124.6220
592.8577, 125.0671
593.3398, 125.4763
593.8220, 125.0526
594.3041, 123.9480
594.7862, 123.4073
595.2683, 123.7691
595.7504, 124.4695
596.2325, 125.1564
596.7147, 125.6232
597.1968, 125.3276
597.6789, 123.0440
598.1610, 120.7426
598.6431, 119.9979
599.1252, 120.5414
599.6074, 121.0596
600.0895, 121.0641
600.5716, 120.9488
601.0537, 120.9708
601.5358, 121.2619
602.0179, 121.0759
602.5001, 120.0034
602.9822, 118.8510
603.4643, 118.2718
603.9464, 118.4718
604.4285, 118.3838
604.9106, 117.8573
605.3928, 117.1825
605.8749, 116.7881
606.3570, 116.6582
606.8391, 116.6227
607.3212, 116.7175
607.8033, 116.7660
608.2855, 116.4658
608.7676, 115.8754
609.2497, 115.2004
609.7318, 114.2352
610.2139, 113.4688
610.6960, 113.4807
611.1782, 114.2585
611.6603, 114.8050
612.1424, 114.5655
612.6245, 114.1385
613.1066, 113.9217
613.5887, 114.1702
614.0709, 114.0977
614.5530, 113.6107
615.0351, 112.8878
615.5172, 111.9804
615.9993, 110.7009
616.4814, 110.1444
616.9636, 110.6808
617.4457, 111.6897
617.9278, 111.9232
618.4099, 111.4531
618.8920, 111.0400
619.3741, 111.0274
619.8563, 111.2260
620.3384, 111.3748
620.8205, 111.4877
621.3026, 111.6391
621.7847, 112.1403
622.2668, 112.5031
622.7490, 112.1601
623.2311, 110.9671
623.7132, 110.2512
624.1953, 110.7514
624.6774, 111.5912
625.1595, 112.1523
625.6417, 112.1848
626.1238, 112.4480
626.6059, 113.1395
627.0880, 113.8473
627.5701, 113.9337
628.0522, 113.3220
628.5344, 112.8643
629.0165, 112.8040
629.4986, 112.8950
629.9807, 112.4327
630.4628, 111.5854
630.9449, 111.2673
631.4271, 112.5534
631.9092, 114.1888
632.3913, 114.7615
632.8734, 114.3902
633.3555, 113.8800
633.8376, 113.1869
634.3198, 112.8236
634.8019, 113.3347
635.2840, 115.0850
635.7661, 116.0237
636.2482, 115.5198
636.7303, 114.5085
637.2125, 113.4864
637.6946, 112.1289
638.1767, 111.8680
638.6588, 113.1617
639.1409, 114.8600
639.6230, 115.2009
640.1052, 114.2767
640.5873, 113.4078
641.0694, 112.9208
641.5515, 112.6731
642.0336, 112.5005
642.5157, 112.4020
642.9979, 112.3722
643.4800, 112.5038
643.9621, 112.6237
644.4442, 112.5952
644.9263, 112.4375
645.4084, 112.2734
645.8906, 112.2911
646.3727, 112.1821
646.8548, 111.7032
647.3369, 110.7670
647.8190, 110.1736
648.3011, 110.0155
648.7833, 110.0698
649.2654, 110.3027
649.7475, 110.7693
650.2296, 110.6139
650.7117, 109.6559
651.1938, 108.5939
651.6760, 108.4325
652.1581, 108.8988
652.6402, 109.1132
653.1223, 108.6929
653.6044, 108.2749
654.0865, 108.6524
654.5687, 109.4170
655.0508, 109.7861
655.5329, 108.9392
656.0150, 108.1921
656.4971, 108.0738
656.9792, 108.4921
657.4614, 108.9292
657.9435, 109.5818
658.4256, 109.9306
658.9077, 109.6769
659.3898, 108.8598
659.8719, 108.4966
660.3541, 108.6551
660.8362, 108.9475
661.3183, 109.3014
661.8004, 109.5874
662.2825, 109.0713
662.7646, 107.6548
663.2468, 106.4782
663.7289, 106.8213
664.2110, 107.9033
664.6931, 108.7547
665.1752, 109.2145
665.6573, 109.2960
666.1395, 108.5660
666.6216, 107.6344
667.1037, 107.2510
667.5858, 108.0927
668.0679, 108.7693
668.5500, 109.1258
669.0322, 109.2778
669.5143, 109.4966
669.9964, 109.8349
670.4785, 109.9712
670.9606, 109.7306
671.4427, 109.2735
671.9249, 108.9478
672.4070, 108.7714
672.8891, 108.9171
673.3712, 109.9798
673.8533, 111.1276
674.3354, 111.1773
674.8176, 110.2186
675.2997, 109.4442
675.7818, 109.4969
676.2639, 109.8951
676.7460, 110.4013
677.2281, 111.0357
677.7103, 111.5693
678.1924, 112.1078
678.6745, 112.4308
679.1566, 112.2476
679.6387, 111.3250
680.1208, 111.0543
680.6030, 111.5968
681.0851, 112.5553
681.5672, 113.7828
682.0493, 115.0797
682.5314, 115.5107
683.0135, 114.5352
683.4957, 113.3592
683.9778, 113.3441
684.4599, 114.0344
684.9420, 114.5711
685.4241, 114.5065
685.9063, 114.3701
686.3884, 114.2215
686.8705, 114.1414
687.3526, 114.4103
687.8347, 115.3351
688.3168, 116.1831
688.7990, 116.7591
689.2811, 117.0960
689.7632, 117.3005
690.2453, 117.3403
690.7274, 117.4686
691.2095, 118.0417
691.6917, 118.7995
692.1738, 118.7790
692.6559, 118.0100
693.1380, 117.4026
693.6201, 117.8448
694.1022, 118.6380
694.5844, 119.0069
695.0665, 118.7346
695.5486, 118.8349
696.0307, 120.3057
696.5128, 121.8624
696.9949, 122.4454
697.4771, 121.3039
697.9592, 120.7793
698.4413, 121.1478
698.9234, 121.7875
699.4055, 121.9008
699.8876, 121.4782
700.3698, 121.1658
700.8519, 121.0713
701.3340, 121.1480
701.8161, 121.5071
702.2982, 121.9903
702.7803, 122.1821
703.2625, 121.6768
703.7446, 121.1395
704.2267, 121.1516
704.7088, 121.4536
705.1909, 121.4745
705.6730, 120.5281
706.1552, 119.8883
706.6373, 119.8993
707.1194, 120.4573
707.6015, 121.1750
708.0836, 122.1929
708.5657, 122.9056
709.0479, 122.9475
709.5300, 122.4998
710.0121, 122.3724
710.4942, 122.5503
710.9763, 122.6988
711.4584, 122.4845
711.9406, 122.1692
712.4227, 122.1816
712.9048, 122.5262
713.3869, 122.6410
713.8690, 122.0007
714.3511, 121.2264
714.8333, 120.6809
715.3154, 120.3881
715.7975, 120.4692
716.2796, 121.1939
716.7617, 121.9673
717.2438, 122.2788
717.7260, 122.0706
718.2081, 122.0862
718.6902, 122.4419
719.1723, 122.7276
719.6544, 122.4527
720.1365, 121.7285
720.6187, 120.7201
721.1008, 119.2457
721.5829, 118.1389
722.0650, 118.2724
722.5471, 119.0586
723.0292, 119.7143
723.5114, 119.8284
723.9935, 120.0151
724.4756, 120.5459
724.9577, 121.1399
725.4398, 121.2636
725.9219, 120.6849
726.4041, 120.3604
726.8862, 120.5736
727.3683, 121.0791
727.8504, 121.3028
728.3325, 121.2718
728.8146, 121.1555
729.2968, 120.8946
729.7789, 120.7039
730.2610, 120.9782
730.7431, 121.5563
731.2252, 121.9037
731.7073, 121.5666
732.1895, 121.1670
732.6716, 120.9934
733.1537, 121.0352
733.6358, 120.9577
734.1179, 120.6249
734.6000, 120.4110
735.0822, 120.5266
735.5643, 120.9271
736.0464, 121.1795
736.5285, 121.2853
737.0106, 121.2361
737.4927, 120.8060
737.9749, 120.3001
738.4570, 120.3622
738.9391, 121.0027
739.4212, 121.5282
739.9033, 121.3263
740.3854, 121.0002
740.8676, 121.0593
741.3497, 121.7581
741.8318, 122.0147
742.3139, 121.5244
742.7960, 120.8601
743.2781, 120.3586
743.7603, 120.0119
744.2424, 119.9287
744.7245, 120.1566
745.2066, 120.4685
745.6887, 120.5617
746.1708, 120.5602
746.6530, 120.8939
747.1351, 121.7463
747.6172, 122.3477
748.0993, 121.8938
748.5814, 120.9814
749.0635, 120.2805
749.5457, 120.0265
750.0278, 119.8425
750.5099, 119.6115
750.9920, 119.4703
751.4741, 119.6595
751.9562, 120.3296
752.4384, 120.6556
752.9205, 120.4763
753.4026, 120.0086
753.8847, 119.5365
754.3668, 119.0619
754.8489, 118.6003
755.3311, 118.2022
755.8132, 117.7326
756.2953, 116.9039
756.7774, 115.9545
757.2595, 115.3204
757.7416, 115.5066
758.2238, 115.5819
758.7059, 115.0850
759.1880, 114.3960
759.6701, 114.4728
760.1522, 115.7954
760.6343, 116.2393
761.1165, 114.8922
761.5986, 112.7252
762.0807, 112.3811
762.5628, 113.5350
763.0449, 114.2793
763.5270, 113.3111
764.0092, 111.9119
764.4913, 111.2406
764.9734, 111.1272
765.4555, 111.0287
765.9376, 110.8213
766.4197, 110.5229
766.9019, 110.0269
767.3840, 109.4189
767.8661, 109.1424
768.3482, 109.3212
768.8303, 109.4675
769.3124, 109.3759
769.7946, 109.1084
770.2767, 108.8254
770.7588, 108.5400
771.2409, 108.3749
771.7230, 108.5841
772.2051, 108.8241
772.6873, 108.6496
773.1694, 108.1278
773.6515, 107.8130
774.1336, 108.4516
774.6157, 108.7929
775.0978, 108.0011
775.5800, 106.1497
776.0621, 105.4118
776.5442, 106.1166
777.0263, 107.0039
777.5084, 107.3859
777.9905, 107.3745
778.4727, 107.4266
778.9548, 107.5464
779.4369, 107.8170
779.9190, 108.7454
780.4011, 109.5575
780.8832, 109.2777
781.3654, 107.8653
781.8475, 106.7328
782.3296, 106.4964
782.8117, 106.5133
783.2938, 106.4905
783.7759, 106.4338
784.2581, 106.2257
784.7402, 105.7781
785.2223, 105.4656
785.7044, 105.6941
786.1865, 106.2859
786.6686, 106.4212
787.1508, 106.0876
787.6329, 105.9363
788.1150, 106.7896
788.5971, 107.8506
789.0792, 108.2651
789.5613, 107.8674
790.0435, 107.6049
790.5256, 107.8262
791.0077, 108.1332
791.4898, 108.3344
791.9719, 108.4209
792.4540, 108.3977
792.9362, 108.2198
793.4183, 108.1112
793.9004, 108.3047
794.3825, 108.7120
794.8646, 109.1290
795.3467, 109.5462
795.8289, 109.8324
796.3110, 109.9587
796.7931, 109.8703
797.2752, 109.3450
797.7573, 108.0856
798.2394, 107.6651
798.7216, 108.7548
799.2037, 110.1572
799.6858, 111.2993
800.1679, 112.2768
800.6500, 111.9749
801.1321, 110.1750
801.6143, 108.4503
802.0964, 108.5356
802.5785, 109.6222
803.0606, 110.0540
803.5427, 109.5936
804.0248, 109.3545
804.5070, 110.1403
804.9891, 111.3080
805.4712, 112.4077
805.9533, 113.4297
806.4354, 114.2500
806.9175, 114.8181
807.3997, 115.2558
807.8818, 115.6644
808.3639, 116.0380
808.8460, 116.1763
809.3281, 116.0455
809.8102, 116.0149
810.2924, 116.5970
810.7745, 117.4024
811.2566, 117.8915
811.7387, 117.9678
812.2208, 117.9556
812.7029, 117.7194
813.1851, 117.6481
813.6672, 118.0820
814.1493, 119.2004
814.6314, 120.0187
815.1135, 120.4708
815.5956, 120.7710
816.0778, 120.8985
816.5599, 120.9805
817.0420, 121.8212
817.5241, 123.4835
818.0062, 124.9230
818.4883, 125.0144
818.9705, 124.6889
819.4526, 124.9045
819.9347, 125.8708
820.4168, 126.6419
820.8989, 126.7129
821.3810, 126.8270
821.8632, 127.4554
822.3453, 128.6994
822.8274, 129.3846
823.3095, 129.4211
823.7916, 129.3945
824.2737, 129.8664
824.7559, 130.5782
825.2380, 130.8364
825.7201, 130.6280
826.2022, 130.8266
826.6843, 132.6145
827.1664, 134.4789
827.6486, 135.2681
828.1307, 134.6780
828.6128, 134.5493
829.0949, 135.0903
829.5770, 135.7390
830.0591, 136.1117
830.5413, 136.2664
831.0234, 136.8927
831.5055, 137.9871
831.9876, 139.3356
832.4697, 141.2622
832.9518, 143.0681
833.4340, 143.7994
833.9161, 143.4867
834.3982, 143.3925
834.8803, 144.2998
835.3624, 145.1760
835.8445, 145.4710
836.3267, 145.2256
836.8088, 145.5364
837.2909, 146.5525
837.7730, 147.4339
838.2551, 147.5469
838.7372, 147.2403
839.2194, 147.3826
839.7015, 147.9274
840.1836, 148.6046
840.6657, 149.3335
841.1478, 150.0784
841.6299, 150.8301
842.1121, 151.5820
842.5942, 152.2677
843.0763, 152.8737
843.5584, 153.4267
844.0405, 153.8580
844.5226, 154.2651
845.0048, 155.2532
845.4869, 156.7573
845.9690, 157.7872
846.4511, 157.4796
846.9332, 156.7472
847.4153, 156.4584
847.8975, 156.5502
848.3796, 156.8434
848.8617, 157.4051
849.3438, 158.0244
849.8259, 158.6887
850.3080, 159.3552
850.7902, 159.9055
851.2723, 160.3283
851.7544, 160.6891
852.2365, 161.0253
852.7186, 161.2795
853.2007, 161.0953
853.6829, 160.7367
854.1650, 160.9415
854.6471, 162.6019
855.1292, 164.1124
855.6113, 164.4853
856.0934, 164.2386
856.5756, 164.3658
857.0577, 165.2579
857.5398, 165.7688
858.0219, 165.6345
858.5040, 165.2957
858.9861, 165.5551
859.4683, 166.2843
859.9504, 166.7437
860.4325, 166.6674
860.9146, 166.5741
861.3967, 167.1403
861.8788, 167.8761
862.3610, 168.1292
862.8431, 167.0192
863.3252, 166.7841
863.8073, 168.2006
864.2894, 169.9128
864.7715, 170.4997
865.2537, 169.8975
865.7358, 169.5291
866.2179, 169.5167
866.7000, 169.6225
867.1821, 169.7362
867.6642, 169.7623
868.1464, 169.4575
868.6285, 168.7000
869.1106, 168.2258
869.5927, 168.4129
870.0748, 168.9090
870.5569, 169.5226
871.0391, 170.2966
871.5212, 170.8816
872.0033, 171.3015
872.4854, 171.3914
872.9675, 170.6942
873.4496, 169.6419
873.9318, 169.5669
874.4139, 170.3882
874.8960, 170.7302
875.3781, 168.9035
875.8602, 167.1010
876.3423, 166.9287
876.8245, 168.4542
877.3066, 169.2930
877.7887, 169.3234
878.2708, 168.9341
878.7529, 168.1091
879.2350, 167.0706
879.7172, 166.5680
880.1993, 166.5598
880.6814, 166.7048
881.1635, 167.0927
881.6456, 167.3219
882.1277, 166.9653
882.6099, 166.1970
883.0920, 165.5403
883.5741, 165.1330
884.0562, 164.7739
884.5383, 164.4063
885.0204, 164.0716
885.5026, 163.8852
885.9847, 163.8350
886.4668, 163.8217
886.9489, 163.8961
887.4310, 163.8048
887.9131, 163.2001
888.3953, 162.2716
888.8774, 161.2971
889.3595, 160.3580
889.8416, 159.3653
890.3237, 158.0534
890.8058, 156.8991
891.2880, 156.5157
891.7701, 156.9913
892.2522, 157.1661
892.7343, 156.9464
893.2164, 156.4099
893.6985, 155.3422
894.1807, 154.1348
894.6628, 153.4278
895.1449, 153.4106
895.6270, 153.2366
896.1091, 152.5460
896.5912, 151.6380
897.0734, 150.5972
897.5555, 149.3828
898.0376, 148.7736
898.5197, 148.8883
899.0018, 148.9326
899.4839, 148.2663
899.9661, 147.1902
900.4482, 146.1208
900.9303, 145.1084
901.4124, 144.4305
901.8945, 144.4762
902.3766, 144.6264
902.8588, 144.6728
903.3409, 144.5833
903.8230, 144.1525
904.3051, 143.2160
904.7872, 142.6106
905.2693, 142.8142
905.7515, 143.2481
906.2336, 142.5348
906.7157, 141.0488
907.1978, 139.8805
907.6799, 139.6789
908.1620, 139.6435
908.6442, 139.3252
909.1263, 138.9791
909.6084, 139.0742
910.0905, 139.9617
910.5726, 140.2991
911.0547, 139.8168
911.5369, 139.1308
912.0190, 139.1615
912.5011, 139.6441
912.9832, 139.7583
913.4653, 139.2964
913.9474, 138.9201
914.4296, 139.0627
914.9117, 139.4619
915.3938, 139.9937
915.8759, 140.8005
916.3580, 140.9278
916.8401, 140.0813
917.3223, 139.2776
917.8044, 139.4390
918.2865, 140.2163
918.7686, 140.0873
919.2507, 139.1698
919.7328, 138.6446
920.2150, 139.8461
920.6971, 141.1362
921.1792, 141.3283
921.6613, 140.5669
922.1434, 140.3145
922.6255, 140.8304
923.1077, 141.3305
923.5898, 141.6021
924.0719, 141.7074
924.5540, 141.7449
925.0361, 141.7383
925.5182, 141.7695
926.0004, 141.7541
926.4825, 141.9691
926.9646, 142.9131
927.4467, 144.0854
927.9288, 144.6692
928.4109, 144.0852
928.8931, 144.0789
929.3752, 144.9060
929.8573, 145.9624
930.3394, 146.5450
930.8215, 146.7829
931.3036, 147.1721
931.7858, 147.7829
932.2679, 148.4023
932.7500, 148.8631
933.2321, 149.2978
933.7142, 149.8682
934.1964, 150.6259
934.6785, 151.0566
935.1606, 150.8765
935.6427, 151.0780
936.1248, 152.3848
936.6069, 154.4180
937.0891, 155.9650
937.5712, 157.0459
938.0533, 157.6510
938.5354, 157.1757
939.0175, 156.8250
939.4996, 157.4033
939.9818, 158.6411
940.4639, 159.6809
940.9460, 160.2673
941.4281, 161.2661
941.9102, 162.9889
942.3923, 164.8576
942.8745, 165.6183
943.3566, 165.7575
943.8387, 166.9207
944.3208, 169.9694
944.8029, 172.2877
945.2850, 171.5839
945.7672, 169.9762
946.2493, 169.4463
946.7314, 170.2400
947.2135, 171.3968
947.6956, 173.0086
948.1777, 174.6692
948.6599, 175.9797
949.1420, 177.0971
949.6241, 178.4076
950.1062, 179.8953
950.5883, 181.3526
951.0704, 182.6490
951.5526, 183.9075
952.0347, 185.1553
952.5168, 186.4072
952.9989, 187.7094
953.4810, 189.0885
953.9631, 190.3948
954.4453, 191.5998
954.9274, 192.6840
955.4095, 193.4636
955.8916, 194.1172
956.3737, 195.0481
956.8558, 196.4478
957.3380, 198.0260
957.8201, 199.8636
958.3022, 201.7326
958.7843, 203.4647
959.2664, 205.1088
959.7485, 206.2566
960.2307, 206.8158
960.7128, 207.4529
961.1949, 209.0002
961.6770, 210.8710
962.1591, 212.1781
962.6412, 212.8991
963.1234, 213.5839
963.6055, 214.3903
964.0876, 215.2149
964.5697, 215.8154
965.0518, 216.4193
965.5339, 218.4190
966.0161, 221.8190
966.4982, 224.5430
966.9803, 225.4675
967.4624, 225.9048
967.9445, 227.3271
968.4266, 229.2696
968.9088, 230.9362
969.3909, 232.2979
969.8730, 233.0615
970.3551, 232.9346
970.8372, 232.6093
971.3193, 232.6888
971.8015, 233.1869
972.2836, 234.4937
972.7657, 236.6682
973.2478, 238.5054
973.7299, 238.7634
974.2120, 238.5317
974.6942, 238.6956
975.1763, 239.3339
975.6584, 239.9104
976.1405, 240.2294
976.6226, 240.9073
977.1047, 242.4383
977.5869, 244.2594
978.0690, 244.4080
978.5511, 243.3704
979.0332, 243.0148
979.5153, 244.5983
979.9974, 246.3017
980.4796, 247.0828
980.9617, 247.4270
981.4438, 248.0651
981.9259, 249.2607
982.4080, 249.9541
982.8901, 250.0010
983.3723, 249.9308
983.8544, 250.2893
984.3365, 250.9064
984.8186, 251.4187
985.3007, 251.8081
985.7828, 252.3911
986.2650, 253.6727
986.7471, 254.8038
987.2292, 255.4805
987.7113, 255.7092
988.1934, 255.2896
988.6755, 254.1680
989.1577, 253.6943
989.6398, 254.7982
990.1219, 256.0958
990.6040, 255.7975
991.0861, 254.5523
991.5682, 253.4543
992.0504, 252.7666
992.5325, 252.3404
993.0146, 252.3220
993.4967, 252.3303
993.9788, 251.8403
994.4609, 250.9671
994.9431, 250.8448
995.4252, 251.5305
995.9073, 252.2098
996.3894, 252.6933
996.8715, 252.6084
997.3536, 251.3626
997.8358, 249.0761
998.3179, 247.3713
998.8000, 246.3957
999.2821, 245.6916
999.7642, 245.1150
1000.246, 244.7338
1000.728, 244.7215
1001.211, 245.0201
1001.693, 245.5958
1002.175, 246.9420
1002.657, 247.4521
1003.139, 245.7731
1003.621, 243.3713
1004.103, 241.5322
1004.585, 240.2796
1005.068, 239.6326
1005.550, 239.6689
1006.032, 239.4807
1006.514, 237.9083
1006.996, 236.0102
1007.478, 235.3723
1007.960, 235.7418
1008.442, 235.4491
1008.924, 233.1006
1009.407, 231.2390
1009.889, 230.4882
1010.371, 230.3749
1010.853, 230.0587
1011.335, 229.5136
1011.817, 228.4833
1012.299, 226.7446
1012.781, 225.2315
1013.263, 224.9992
1013.746, 225.1031
1014.228, 224.5716
1014.710, 223.1892
1015.192, 222.0926
1015.674, 221.4357
1016.156, 220.5682
1016.638, 218.7316
1017.120, 216.5675
1017.603, 215.7297
1018.085, 215.8369
1018.567, 215.5768
1019.049, 213.7130
1019.531, 212.1847
1020.013, 211.8866
1020.495, 212.0032
1020.977, 211.2633
1021.459, 209.6366
1021.942, 208.4228
1022.424, 207.8480
1022.906, 207.1561
1023.388, 205.1423
1023.870, 202.9808
1024.352, 202.0536
1024.834, 202.6203
1025.316, 202.5961
1025.799, 201.6549
1026.281, 200.5178
1026.763, 199.3537
1027.245, 198.2899
1027.727, 197.7406
1028.209, 197.5463
1028.691, 197.1585
1029.173, 196.1956
1029.656, 195.2602
1030.138, 194.8300
1030.620, 194.4406
1031.102, 193.5279
1031.584, 191.9141
1032.066, 190.8700
1032.548, 190.4881
1033.030, 189.9604
1033.512, 188.1580
1033.995, 186.1443
1034.477, 185.3120
1034.959, 185.5498
1035.441, 185.7531
1035.923, 185.8560
1036.405, 185.6144
1036.887, 184.8900
1037.369, 183.8996
1037.851, 183.0815
1038.334, 182.3683
1038.816, 181.3651
1039.298, 179.8752
1039.780, 178.5933
1040.262, 178.1268
1040.744, 177.8926
1041.226, 177.3479
1041.708, 176.4333
1042.191, 176.2061
1042.673, 176.7836
1043.155, 177.0170
1043.637, 176.1658
1044.119, 174.7168
1044.601, 173.0006
1045.083, 171.2369
1045.565, 169.9918
1046.047, 169.7845
1046.530, 169.6113
1047.012, 169.4287
1047.494, 169.1897
1047.976, 168.7953
1048.458, 168.2870
1048.940, 167.8962
1049.422, 167.6361
1049.904, 167.4241
1050.386, 167.2468
1050.869, 167.0611
1051.351, 166.8895
1051.833, 166.6905
1052.315, 166.2996
1052.797, 165.7140
1053.279, 164.8741
1053.761, 163.6287
1054.243, 162.4490
1054.726, 162.1353
1055.208, 162.1748
1055.690, 161.7740
1056.172, 160.4777
1056.654, 159.7585
1057.136, 160.0425
1057.618, 160.3229
1058.100, 159.9429
1058.583, 159.0854
1059.065, 158.4373
1059.547, 157.9675
1060.029, 157.5271
1060.511, 157.2597
1060.993, 156.7690
1061.475, 155.5479
1061.957, 154.1840
1062.439, 153.5769
1062.922, 153.8547
1063.404, 153.6927
1063.886, 152.9529
1064.368, 152.1267
1064.850, 151.6212
1065.332, 151.2629
1065.814, 150.9515
1066.296, 150.6592
1066.778, 150.1382
1067.261, 149.3149
1067.743, 148.3506
1068.225, 147.1437
1068.707, 146.0548
1069.189, 146.0701
1069.671, 146.7002
1070.153, 146.7211
1070.635, 145.6333
1071.118, 144.6935
1071.600, 144.7338
1072.082, 144.7671
1072.564, 144.0868
1073.046, 142.8105
1073.528, 142.6074
1074.010, 143.3790
1074.492, 143.6473
1074.974, 142.2166
1075.457, 140.4635
1075.939, 139.3668
1076.421, 138.6559
1076.903, 137.8134
1077.385, 136.5943
1077.867, 135.9353
1078.349, 135.9400
1078.831, 136.2465
1079.313, 136.8534
1079.796, 137.3651
1080.278, 137.0002
1080.760, 135.8635
1081.242, 134.9339
1081.724, 134.6813
1082.206, 134.4548
1082.688, 134.1363
1083.170, 133.7812
1083.652, 133.5348
1084.135, 133.3460
1084.617, 133.0061
1085.099, 132.4587
1085.581, 131.9006
1086.063, 131.0048
1086.545, 130.5876
1087.027, 131.5734
1087.509, 133.6680
1087.992, 133.5409
1088.474, 131.1630
1088.956, 129.1065
1089.438, 128.5661
1089.920, 128.5046
1090.402, 127.9216
1090.884, 127.1603
1091.366, 126.7157
1091.849, 126.8200
1092.331, 126.7463
1092.813, 126.4146
1093.295, 126.1763
1093.777, 126.3685
1094.259, 126.7899
1094.741, 127.1653
1095.223, 127.4487
1095.705, 127.5009
1096.188, 127.1024
1096.670, 126.6820
1097.152, 126.3170
1097.634, 125.9510
1098.116, 125.3643
1098.598, 124.6829
1099.080, 124.7095
1099.562, 125.4996
1100.044, 125.9410
1100.527, 124.7690
1101.009, 123.6536
1101.491, 123.6589
1101.973, 124.4096
1102.455, 124.7408
1102.937, 124.6523
1103.419, 124.5376
1103.901, 124.4776
1104.384, 124.4875
1104.866, 124.6758
1105.348, 124.8812
1105.830, 124.9126
1106.312, 124.7207
1106.794, 124.6508
1107.276, 124.7315
1107.758, 124.8235
1108.240, 124.9027
1108.723, 124.9059
1109.205, 124.4828
1109.687, 123.9660
1110.169, 124.0186
1110.651, 125.3546
1111.133, 126.2972
1111.615, 126.7138
1112.097, 126.7728
1112.579, 126.4982
1113.062, 125.9828
1113.544, 125.3868
1114.026, 124.8029
1114.508, 124.6868
1114.990, 125.9074
1115.472, 126.8148
1115.954, 126.6339
1116.436, 126.0882
1116.919, 126.0606
1117.401, 126.5291
1117.883, 127.3229
1118.365, 128.4290
1118.847, 129.2242
1119.329, 128.8913
1119.811, 128.4462
1120.293, 128.5967
1120.776, 129.1982
1121.258, 129.7530
1121.740, 130.2761
1122.222, 130.5492
1122.704, 130.4695
1123.186, 130.3718
1123.668, 130.5184
1124.150, 130.8820
1124.632, 131.5559
1125.115, 132.5961
1125.597, 133.0495
1126.079, 132.5890
1126.561, 132.6839
1127.043, 134.2326
1127.525, 136.0877
1128.007, 136.1204
1128.489, 135.1934
1128.971, 134.8032
1129.454, 135.5593
1129.936, 136.2147
1130.418, 136.6537
1130.900, 136.9557
1131.382, 136.9616
1131.864, 136.9540
1132.346, 138.0035
1132.828, 139.8200
1133.311, 141.4467
1133.793, 142.5793
1134.275, 143.2807
1134.757, 143.1346
1135.239, 143.0690
1135.721, 144.3173
1136.203, 146.5945
1136.685, 147.2237
1137.167, 146.3051
1137.650, 145.7288
1138.132, 147.0640
1138.614, 148.5444
1139.096, 149.3681
1139.578, 149.7636
1140.060, 149.9993
1140.542, 150.0732
1141.024, 150.2425
1141.506, 150.5262
1141.989, 151.0991
1142.471, 152.4519
1142.953, 153.8476
1143.435, 154.7452
1143.917, 155.1796
1144.399, 155.4854
1144.881, 155.6398
1145.363, 155.7935
1145.846, 155.9615
1146.328, 156.1929
1146.810, 156.5020
1147.292, 156.9205
1147.774, 157.5025
1148.256, 158.2639
1148.738, 159.0812
1149.220, 159.9770
1149.703, 160.8293
1150.185, 161.5961
1150.667, 162.2937
1151.149, 162.9044
1151.631, 163.4880
1152.113, 164.2190
1152.595, 165.3395
1153.077, 165.7626
1153.559, 165.1724
1154.042, 164.5138
1154.524, 164.1834
1155.006, 164.2019
1155.488, 164.7035
1155.970, 165.5868
1156.452, 166.6178
1156.934, 168.1920
1157.416, 168.9840
1157.898, 168.5152
1158.381, 167.8638
1158.863, 167.9521
1159.345, 168.5259
1159.827, 168.4198
1160.309, 167.8281
1160.791, 167.5427
1161.273, 168.3159
1161.755, 168.9255
1162.238, 169.0680
1162.720, 168.9258
1163.202, 168.5305
1163.684, 167.9749
1164.166, 168.0010
1164.648, 168.5628
1165.130, 168.9307
1165.612, 168.7027
1166.094, 168.1566
1166.577, 167.1511
1167.059, 166.0857
1167.541, 165.6481
1168.023, 165.7892
1168.505, 165.9370
1168.987, 166.0349
1169.469, 166.0634
1169.951, 165.8994
1170.433, 165.7729
1170.916, 166.0325
1171.398, 166.3807
1171.880, 165.9490
1172.362, 164.7483
1172.844, 163.7690
1173.326, 163.2386
1173.808, 162.6568
1174.290, 161.2212
1174.773, 159.9003
1175.255, 159.7997
1175.737, 160.5761
1176.219, 160.3075
1176.701, 158.9324
1177.183, 157.7602
1177.665, 157.1490
1178.147, 156.8057
1178.630, 156.7673
1179.112, 156.6357
1179.594, 155.7780
1180.076, 155.6707
1180.558, 153.7444
1181.040, 154.6132
1181.522, 154.9631
1182.004, 153.9634
1182.486, 152.4439
1182.969, 151.1110
1183.451, 149.8841
1183.933, 148.5759
1184.415, 147.0651
1184.897, 146.1950
1185.379, 145.9895
1185.861, 146.2898
1186.343, 147.5559
1186.825, 148.5524
1187.308, 147.3344
1187.790, 145.0275
1188.272, 143.4459
1188.754, 143.1875
1189.236, 142.5838
1189.718, 141.5995
1190.200, 140.4851
1190.682, 139.2120
1191.165, 138.0622
1191.647, 137.6692
1192.129, 137.6205
1192.611, 136.9999
1193.093, 134.8420
1193.575, 134.1829
1194.057, 135.4494
1194.539, 136.6339
1195.021, 135.8544
1195.504, 134.2706
1195.986, 133.4442
1196.468, 133.1490
1196.950, 132.6484
1197.432, 131.5777
1197.914, 130.9250
1198.396, 130.9372
1198.878, 130.6788
1199.360, 128.5239
1199.843, 126.0155
1200.325, 125.8241
1200.807, 127.4024
1201.289, 128.1546
1201.771, 127.2469
1202.253, 126.3850
1202.735, 125.7444
1203.217, 125.2286
1203.700, 124.8256
1204.182, 124.4331
1204.664, 123.8381
1205.146, 123.0787
1205.628, 122.4505
1206.110, 121.8814
1206.592, 121.7397
1207.074, 122.2051
1207.557, 122.7446
1208.039, 122.7522
1208.521, 122.3720
1209.003, 121.6359
1209.485, 120.5971
1209.967, 120.0260
1210.449, 120.1848
1210.931, 120.3883
1211.413, 120.5715
1211.896, 120.5412
1212.378, 119.6833
1212.860, 118.6347
1213.342, 118.5116
1213.824, 119.4334
1214.306, 119.8661
1214.788, 119.6474
1215.270, 118.9145
1215.752, 117.4387
1216.235, 116.1451
1216.717, 116.8950
1217.199, 118.4127
1217.681, 118.7548
1218.163, 117.5626
1218.645, 116.5374
1219.127, 115.7786
1219.609, 115.2976
1220.092, 115.1352
1220.574, 115.1554
1221.056, 115.1118
1221.538, 115.1374
1222.020, 115.5507
1222.502, 115.5561
1222.984, 115.4979
1223.466, 115.9840
1223.948, 115.4798
1224.431, 115.8276
1224.913, 116.4185
1225.395, 116.4190
1225.877, 116.0682
1226.359, 115.6314
1226.841, 115.0833
1227.323, 114.9775
1227.805, 115.4979
1228.287, 115.6722
1228.770, 114.9035
1229.252, 113.9424
1229.734, 113.9640
1230.216, 114.3736
1230.698, 114.2216
1231.180, 114.5183
1231.662, 115.2127
1232.144, 114.9243
1232.627, 116.3345
1233.109, 116.6348
1233.591, 116.2154
1234.073, 115.1372
1234.555, 113.8444
1235.037, 112.8794
1235.519, 112.2471
1236.001, 112.3383
1236.484, 113.2423
1236.966, 114.0931
1237.448, 114.5197
1237.930, 114.5972
1238.412, 114.0818
1238.894, 113.4272
1239.376, 113.2802
1239.858, 113.6971
1240.340, 114.3074
1240.823, 115.1155
1241.305, 115.7628
1241.787, 116.1159
1242.269, 116.1309
1242.751, 115.4278
1243.233, 114.5557
1243.715, 114.1647
1244.197, 114.2611
1244.679, 115.0257
1245.162, 116.4441
1245.644, 117.5192
1246.126, 117.5666
1246.608, 117.3097
1247.090, 117.1411
1247.572, 116.9958
1248.054, 116.8189
1248.536, 116.6141
1249.019, 116.1819
1249.501, 115.5691
1249.983, 115.2546
1250.465, 115.5770
1250.947, 116.1791
1251.429, 117.0197
1251.911, 117.9525
1252.393, 118.9412
1252.875, 119.9532
1253.358, 120.3723
1253.840, 120.2527
1254.322, 119.9915
1254.804, 119.5923
1255.286, 119.3491
1255.768, 119.4732
1256.250, 119.6727
1256.732, 119.6921
1257.214, 119.5710
1257.697, 119.4562
1258.179, 119.4035
1258.661, 119.6522
1259.143, 120.9054
1259.625, 121.5793
1260.107, 121.1341
1260.589, 120.4883
1261.071, 120.5260
1261.554, 120.9604
1262.036, 120.8297
1262.518, 120.2730
1263.000, 119.7872
1263.482, 118.9535
1263.964, 119.3647
1264.446, 121.7676
1264.928, 123.9224
1265.411, 123.4059
1265.893, 121.6351
1266.375, 121.4880
1266.857, 122.3876
1267.339, 122.6931
1267.821, 121.3323
1268.303, 120.5592
1268.785, 120.4879
1269.267, 120.7604
1269.750, 121.3796
1270.232, 121.9600
1270.714, 122.0473
1271.196, 121.6953
1271.678, 120.9088
1272.160, 119.1580
1272.642, 118.9261
1273.124, 120.4425
1273.606, 122.0051
1274.089, 122.5318
1274.571, 122.4149
1275.053, 121.4916
1275.535, 120.3726
1276.017, 120.2009
1276.499, 121.2417
1276.981, 121.5115
1277.463, 120.9799
1277.946, 120.1534
1278.428, 118.8169
1278.910, 117.9076
1279.392, 118.5328
1279.874, 119.5816
1280.356, 119.6823
1280.838, 118.8640
1281.320, 118.4312
1281.802, 118.3760
1282.285, 118.4187
1282.767, 118.5294
1283.249, 118.5475
1283.731, 118.3393
1284.213, 118.0961
1284.695, 118.0508
1285.177, 118.1158
1285.659, 117.8008
1286.141, 117.1933
1286.624, 116.6782
1287.106, 116.6707
1287.588, 116.3249
1288.070, 115.2913
1288.552, 114.4319
1289.034, 114.5262
1289.516, 115.2899
1289.998, 116.4940
1290.481, 117.7939
1290.963, 118.3103
1291.445, 117.1282
1291.927, 116.3275
1292.409, 116.0117
1292.891, 115.7016
1293.373, 114.8659
1293.855, 113.9947
1294.338, 113.5996
1294.820, 113.6614
1295.302, 114.2655
1295.784, 115.6737
1296.266, 116.3689
1296.748, 116.3196
1297.230, 116.1173
1297.712, 116.0599
1298.194, 116.0610
1298.677, 115.9822
1299.159, 115.9774
1299.641, 116.3559
1300.123, 117.1489
1300.605, 116.6074
1301.087, 114.9432
1301.569, 114.1262
1302.051, 116.2065
1302.533, 117.6377
1303.016, 117.2174
##END=



