##NAMES=Peretaite
##RRUFFID=R060459
##IDEAL CHEMISTRY=CaSb^3+^_4_O_4_(S^6+^O_4_)_2_(OH)_2_&#183;2H_2_O
##LOCALITY=Pereta mine, Grosseto, Tuscany, Italy
##OWNER=RRUFF
##SOURCE=Michael Scott
##DESCRIPTION=Colorless thin plates, with red incrustations of valentinite
##STATUS=The identification of this mineral has been confirmed by single-crystal X-ray diffraction.
##URL=rruff.info/R060459
178.2984, 1350.050
178.7805, 1360.006
179.2626, 1367.249
179.7447, 1371.466
180.2268, 1374.613
180.7090, 1377.787
181.1911, 1381.246
181.6732, 1385.813
182.1553, 1392.623
182.6374, 1400.684
183.1195, 1407.517
183.6017, 1412.979
184.0838, 1418.222
184.5659, 1424.699
185.0480, 1432.229
185.5301, 1440.283
186.0123, 1447.413
186.4944, 1454.708
186.9765, 1465.543
187.4586, 1480.327
187.9407, 1497.768
188.4228, 1517.003
188.9050, 1537.763
189.3871, 1558.371
189.8692, 1577.236
190.3513, 1594.777
190.8334, 1613.968
191.3155, 1635.186
191.7977, 1657.155
192.2798, 1678.549
192.7619, 1699.398
193.2440, 1718.138
193.7261, 1734.970
194.2082, 1749.635
194.6904, 1759.396
195.1725, 1763.788
195.6546, 1764.046
196.1367, 1762.510
196.6188, 1759.338
197.1009, 1752.800
197.5831, 1741.235
198.0652, 1724.565
198.5473, 1707.141
199.0294, 1688.900
199.5115, 1670.391
199.9937, 1652.284
200.4758, 1634.582
200.9579, 1618.441
201.4400, 1604.394
201.9221, 1592.349
202.4042, 1583.544
202.8864, 1578.719
203.3685, 1576.436
203.8506, 1572.680
204.3327, 1566.538
204.8148, 1562.675
205.2969, 1564.298
205.7791, 1572.160
206.2612, 1579.885
206.7433, 1586.962
207.2254, 1593.797
207.7075, 1601.467
208.1896, 1610.142
208.6718, 1619.225
209.1539, 1628.342
209.6360, 1637.177
210.1181, 1647.352
210.6002, 1659.344
211.0823, 1672.544
211.5645, 1685.369
212.0466, 1698.073
212.5287, 1710.034
213.0108, 1720.742
213.4929, 1729.910
213.9750, 1739.270
214.4572, 1748.855
214.9393, 1758.710
215.4214, 1769.537
215.9035, 1782.172
216.3856, 1794.146
216.8678, 1803.566
217.3499, 1809.474
217.8320, 1816.287
218.3141, 1824.365
218.7962, 1833.310
219.2783, 1841.605
219.7605, 1848.122
220.2426, 1855.786
220.7247, 1865.846
221.2068, 1877.948
221.6889, 1893.363
222.1710, 1912.691
222.6532, 1935.215
223.1353, 1957.809
223.6174, 1979.691
224.0995, 2003.420
224.5816, 2030.715
225.0637, 2063.974
225.5459, 2095.469
226.0280, 2124.556
226.5101, 2151.951
226.9922, 2179.616
227.4743, 2211.507
227.9564, 2237.890
228.4386, 2254.448
228.9207, 2259.867
229.4028, 2258.167
229.8849, 2250.200
230.3670, 2235.044
230.8492, 2208.968
231.3313, 2168.374
231.8134, 2122.763
232.2955, 2075.096
232.7776, 2024.303
233.2597, 1975.728
233.7419, 1929.269
234.2240, 1884.983
234.7061, 1844.154
235.1882, 1806.663
235.6703, 1772.961
236.1524, 1743.132
236.6346, 1718.306
237.1167, 1695.064
237.5988, 1672.971
238.0809, 1652.530
238.5630, 1634.588
239.0451, 1619.385
239.5273, 1606.481
240.0094, 1595.976
240.4915, 1588.844
240.9736, 1581.328
241.4557, 1572.795
241.9378, 1564.056
242.4200, 1556.979
242.9021, 1552.441
243.3842, 1548.025
243.8663, 1542.668
244.3484, 1535.688
244.8306, 1529.811
245.3127, 1525.479
245.7948, 1522.066
246.2769, 1518.493
246.7590, 1514.831
247.2411, 1510.963
247.7233, 1506.576
248.2054, 1501.049
248.6875, 1497.520
249.1696, 1497.037
249.6517, 1497.903
250.1338, 1497.359
250.6160, 1494.902
251.0981, 1491.947
251.5802, 1488.798
252.0623, 1485.274
252.5444, 1482.429
253.0265, 1480.409
253.5087, 1478.983
253.9908, 1477.916
254.4729, 1477.387
254.9550, 1476.879
255.4371, 1476.419
255.9192, 1476.142
256.4014, 1474.675
256.8835, 1471.022
257.3656, 1467.168
257.8477, 1465.701
258.3298, 1467.901
258.8120, 1469.590
259.2941, 1469.576
259.7762, 1467.723
260.2583, 1466.238
260.7404, 1464.975
261.2225, 1464.201
261.7047, 1464.104
262.1868, 1464.544
262.6689, 1466.107
263.1510, 1469.801
263.6331, 1475.441
264.1152, 1477.188
264.5974, 1473.487
265.0795, 1468.261
265.5616, 1465.414
266.0437, 1465.613
266.5258, 1465.899
267.0079, 1465.763
267.4901, 1465.280
267.9722, 1465.123
268.4543, 1465.618
268.9364, 1465.869
269.4185, 1464.889
269.9006, 1462.232
270.3828, 1460.418
270.8649, 1460.016
271.3470, 1460.713
271.8291, 1460.822
272.3112, 1459.881
272.7933, 1459.480
273.2755, 1461.466
273.7576, 1466.500
274.2397, 1468.971
274.7218, 1467.508
275.2039, 1463.410
275.6860, 1460.363
276.1682, 1458.226
276.6503, 1457.557
277.1324, 1459.611
277.6145, 1464.761
278.0966, 1467.686
278.5787, 1467.755
279.0609, 1465.764
279.5430, 1462.745
280.0251, 1458.409
280.5072, 1455.198
280.9893, 1455.069
281.4715, 1458.018
281.9536, 1459.833
282.4357, 1460.056
282.9178, 1459.625
283.3999, 1460.254
283.8820, 1461.984
284.3642, 1463.543
284.8463, 1464.075
285.3284, 1463.677
285.8105, 1463.690
286.2926, 1464.008
286.7747, 1464.942
287.2569, 1467.466
287.7390, 1471.478
288.2211, 1474.723
288.7032, 1476.068
289.1853, 1475.855
289.6674, 1475.861
290.1496, 1476.237
290.6317, 1475.964
291.1138, 1473.020
291.5959, 1467.921
292.0780, 1464.227
292.5602, 1463.204
293.0423, 1464.334
293.5244, 1467.200
294.0065, 1471.914
294.4886, 1475.660
294.9707, 1474.597
295.4529, 1470.150
295.9350, 1467.629
296.4171, 1469.266
296.8992, 1472.746
297.3813, 1473.830
297.8634, 1472.697
298.3456, 1471.393
298.8277, 1471.392
299.3098, 1472.370
299.7919, 1473.780
300.2740, 1475.816
300.7561, 1477.676
301.2383, 1477.548
301.7204, 1475.969
302.2025, 1475.396
302.6846, 1478.074
303.1667, 1482.533
303.6488, 1486.836
304.1310, 1490.850
304.6131, 1494.048
305.0952, 1494.828
305.5773, 1494.164
306.0594, 1494.685
306.5415, 1499.040
307.0237, 1504.653
307.5058, 1508.809
307.9879, 1511.101
308.4700, 1512.787
308.9521, 1514.696
309.4343, 1516.672
309.9164, 1518.488
310.3985, 1519.643
310.8806, 1520.882
311.3627, 1522.658
311.8448, 1525.002
312.3270, 1528.062
312.8091, 1533.134
313.2912, 1538.594
313.7733, 1542.531
314.2554, 1543.482
314.7375, 1543.420
315.2197, 1542.192
315.7018, 1540.183
316.1839, 1540.544
316.6660, 1545.768
317.1481, 1553.430
317.6302, 1561.561
318.1124, 1570.722
318.5945, 1579.038
319.0766, 1585.515
319.5587, 1590.576
320.0408, 1595.800
320.5229, 1600.325
321.0051, 1606.093
321.4872, 1614.516
321.9693, 1627.594
322.4514, 1639.781
322.9335, 1649.261
323.4156, 1657.155
323.8978, 1665.617
324.3799, 1674.736
324.8620, 1684.735
325.3441, 1695.780
325.8262, 1707.892
326.3083, 1720.682
326.7905, 1734.676
327.2726, 1749.210
327.7547, 1763.276
328.2368, 1775.973
328.7189, 1789.223
329.2010, 1803.368
329.6832, 1818.286
330.1653, 1834.034
330.6474, 1850.673
331.1295, 1868.082
331.6116, 1886.506
332.0938, 1907.540
332.5759, 1927.062
333.0580, 1943.723
333.5401, 1958.139
334.0222, 1974.002
334.5043, 1993.002
334.9865, 2011.291
335.4686, 2027.015
335.9507, 2040.597
336.4328, 2050.638
336.9149, 2057.583
337.3970, 2060.787
337.8792, 2058.332
338.3613, 2049.640
338.8434, 2036.959
339.3255, 2020.811
339.8076, 2000.880
340.2898, 1979.310
340.7719, 1955.621
341.2540, 1930.876
341.7361, 1905.607
342.2182, 1880.098
342.7003, 1855.510
343.1825, 1832.199
343.6646, 1810.152
344.1467, 1791.173
344.6288, 1775.402
345.1109, 1761.121
345.5930, 1745.541
346.0752, 1729.219
346.5573, 1716.010
347.0394, 1707.427
347.5215, 1701.878
348.0036, 1695.748
348.4857, 1689.074
348.9679, 1682.716
349.4500, 1677.185
349.9321, 1672.405
350.4142, 1668.350
350.8963, 1665.251
351.3784, 1662.221
351.8606, 1657.915
352.3427, 1652.678
352.8248, 1647.679
353.3069, 1643.315
353.7890, 1639.751
354.2711, 1637.272
354.7533, 1635.973
355.2354, 1635.214
355.7175, 1635.210
356.1996, 1635.310
356.6817, 1634.370
357.1638, 1630.564
357.6460, 1626.510
358.1281, 1624.361
358.6102, 1624.014
359.0923, 1623.756
359.5744, 1622.459
360.0565, 1620.859
360.5387, 1619.720
361.0208, 1620.082
361.5029, 1619.911
361.9850, 1617.927
362.4671, 1614.630
362.9492, 1611.570
363.4314, 1608.991
363.9135, 1607.012
364.3956, 1605.815
364.8777, 1605.807
365.3598, 1605.665
365.8419, 1604.908
366.3241, 1603.904
366.8062, 1603.206
367.2883, 1603.038
367.7704, 1603.034
368.2526, 1602.972
368.7347, 1602.717
369.2168, 1603.182
369.6989, 1605.393
370.1810, 1607.690
370.6631, 1608.696
371.1453, 1607.427
371.6274, 1606.333
372.1095, 1605.890
372.5916, 1605.917
373.0737, 1605.178
373.5558, 1603.105
374.0380, 1601.087
374.5201, 1599.766
375.0022, 1599.051
375.4843, 1599.524
375.9664, 1601.776
376.4485, 1604.724
376.9307, 1606.160
377.4128, 1605.772
377.8949, 1605.106
378.3770, 1604.546
378.8591, 1604.120
379.3412, 1604.844
379.8234, 1607.061
380.3055, 1609.197
380.7876, 1609.057
381.2697, 1606.795
381.7518, 1605.079
382.2339, 1604.692
382.7161, 1605.248
383.1982, 1606.141
383.6803, 1607.346
384.1624, 1608.192
384.6445, 1607.609
385.1266, 1606.295
385.6088, 1606.148
386.0909, 1607.717
386.5730, 1609.682
387.0551, 1610.552
387.5372, 1610.557
388.0193, 1610.369
388.5015, 1610.057
388.9836, 1609.865
389.4657, 1609.917
389.9478, 1610.203
390.4299, 1611.139
390.9120, 1614.328
391.3942, 1617.922
391.8763, 1619.563
392.3584, 1615.564
392.8405, 1612.174
393.3226, 1613.541
393.8047, 1618.628
394.2869, 1622.692
394.7690, 1622.308
395.2511, 1621.410
395.7332, 1622.695
396.2154, 1628.263
396.6975, 1632.508
397.1796, 1633.030
397.6617, 1631.718
398.1438, 1631.805
398.6259, 1634.036
399.1081, 1637.381
399.5902, 1642.020
400.0723, 1648.275
400.5544, 1653.429
401.0365, 1656.954
401.5186, 1659.742
402.0008, 1662.372
402.4829, 1664.309
402.9650, 1667.121
403.4471, 1671.328
403.9292, 1676.539
404.4113, 1681.185
404.8935, 1685.542
405.3756, 1688.787
405.8577, 1689.833
406.3398, 1688.078
406.8219, 1688.802
407.3040, 1692.506
407.7862, 1697.908
408.2683, 1703.108
408.7504, 1708.083
409.2325, 1714.262
409.7146, 1722.503
410.1967, 1732.227
410.6789, 1742.003
411.1610, 1751.840
411.6431, 1762.085
412.1252, 1773.025
412.6073, 1784.555
413.0894, 1796.328
413.5716, 1808.049
414.0537, 1819.910
414.5358, 1832.409
415.0179, 1845.155
415.5000, 1857.341
415.9821, 1870.410
416.4643, 1881.461
416.9464, 1887.039
417.4285, 1886.648
417.9106, 1883.307
418.3927, 1878.342
418.8748, 1871.696
419.3570, 1863.410
419.8391, 1850.334
420.3212, 1838.592
420.8033, 1831.095
421.2854, 1827.255
421.7675, 1824.041
422.2497, 1819.459
422.7318, 1816.094
423.2139, 1815.571
423.6960, 1819.315
424.1781, 1823.237
424.6602, 1827.019
425.1424, 1830.742
425.6245, 1834.398
426.1066, 1836.151
426.5887, 1840.139
427.0709, 1847.887
427.5530, 1859.386
428.0351, 1869.765
428.5172, 1878.907
428.9993, 1887.200
429.4814, 1894.838
429.9636, 1901.653
430.4457, 1908.526
430.9278, 1915.896
431.4099, 1922.978
431.8920, 1927.998
432.3741, 1930.883
432.8563, 1932.573
433.3384, 1933.547
433.8205, 1933.720
434.3026, 1932.793
434.7847, 1930.871
435.2668, 1927.076
435.7490, 1919.533
436.2311, 1909.134
436.7132, 1899.473
437.1953, 1892.157
437.6774, 1885.037
438.1595, 1874.982
438.6417, 1862.408
439.1238, 1849.017
439.6059, 1834.814
440.0880, 1820.858
440.5701, 1808.499
441.0522, 1798.024
441.5344, 1787.845
442.0165, 1776.823
442.4986, 1765.555
442.9807, 1754.824
443.4628, 1744.999
443.9449, 1735.646
444.4271, 1726.674
444.9092, 1718.050
445.3913, 1709.570
445.8734, 1699.834
446.3555, 1691.433
446.8376, 1685.964
447.3198, 1685.622
447.8019, 1684.033
448.2840, 1680.341
448.7661, 1675.650
449.2482, 1671.364
449.7303, 1666.963
450.2125, 1664.001
450.6946, 1663.311
451.1767, 1664.676
451.6588, 1664.905
452.1409, 1663.987
452.6230, 1661.993
453.1052, 1658.188
453.5873, 1652.212
454.0694, 1649.276
454.5515, 1650.528
455.0337, 1653.400
455.5158, 1653.371
455.9979, 1650.634
456.4800, 1648.143
456.9621, 1647.442
457.4442, 1647.758
457.9264, 1647.045
458.4085, 1645.360
458.8906, 1644.026
459.3727, 1644.802
459.8548, 1646.498
460.3369, 1647.059
460.8191, 1645.632
461.3012, 1644.027
461.7833, 1643.744
462.2654, 1644.371
462.7475, 1645.030
463.2296, 1645.137
463.7118, 1645.345
464.1939, 1645.968
464.6760, 1647.021
465.1581, 1648.435
465.6402, 1650.190
466.1223, 1652.241
466.6045, 1654.531
467.0866, 1657.382
467.5687, 1659.994
468.0508, 1662.603
468.5329, 1664.906
469.0150, 1666.106
469.4972, 1664.694
469.9793, 1664.504
470.4614, 1667.513
470.9435, 1674.047
471.4256, 1677.042
471.9077, 1675.397
472.3899, 1672.467
472.8720, 1671.082
473.3541, 1671.323
473.8362, 1672.279
474.3183, 1674.035
474.8004, 1676.126
475.2826, 1677.896
475.7647, 1679.305
476.2468, 1679.867
476.7289, 1677.748
477.2110, 1674.892
477.6931, 1676.663
478.1753, 1683.068
478.6574, 1689.143
479.1395, 1689.932
479.6216, 1688.018
480.1037, 1687.438
480.5858, 1690.359
481.0680, 1692.720
481.5501, 1690.931
482.0322, 1686.592
482.5143, 1683.036
482.9964, 1682.458
483.4786, 1682.232
483.9607, 1681.249
484.4428, 1679.431
484.9249, 1677.089
485.4070, 1673.954
485.8892, 1670.560
486.3713, 1667.262
486.8534, 1663.854
487.3355, 1660.867
487.8176, 1657.918
488.2997, 1655.528
488.7819, 1655.032
489.2640, 1657.478
489.7461, 1659.406
490.2282, 1659.635
490.7103, 1658.234
491.1924, 1656.368
491.6746, 1653.826
492.1567, 1651.573
492.6388, 1650.774
493.1209, 1651.208
493.6030, 1650.989
494.0851, 1649.664
494.5673, 1648.111
495.0494, 1647.450
495.5315, 1647.610
496.0136, 1648.371
496.4957, 1650.412
496.9778, 1652.545
497.4600, 1653.422
497.9421, 1653.118
498.4242, 1652.433
498.9063, 1651.951
499.3884, 1651.255
499.8705, 1649.672
500.3527, 1646.186
500.8348, 1644.085
501.3169, 1646.561
501.7990, 1650.617
502.2811, 1652.030
502.7632, 1647.084
503.2454, 1642.620
503.7275, 1640.147
504.2096, 1639.543
504.6917, 1639.407
505.1738, 1640.449
505.6559, 1641.041
506.1381, 1640.075
506.6202, 1636.897
507.1023, 1634.988
507.5844, 1634.646
508.0665, 1635.070
508.5486, 1635.165
509.0308, 1634.913
509.5129, 1634.961
509.9950, 1635.406
510.4771, 1636.271
510.9592, 1637.915
511.4413, 1640.207
511.9235, 1642.205
512.4056, 1643.650
512.8877, 1644.257
513.3698, 1642.950
513.8519, 1639.459
514.3340, 1636.887
514.8162, 1638.984
515.2983, 1642.768
515.7804, 1644.609
516.2625, 1641.825
516.7446, 1638.997
517.2267, 1637.840
517.7089, 1638.037
518.1910, 1638.809
518.6731, 1641.836
519.1552, 1643.732
519.6373, 1642.340
520.1194, 1637.069
520.6016, 1634.923
521.0837, 1637.308
521.5658, 1641.237
522.0479, 1644.887
522.5300, 1648.535
523.0121, 1650.657
523.4943, 1650.954
523.9764, 1649.925
524.4585, 1647.711
524.9406, 1644.282
525.4227, 1642.635
525.9048, 1644.768
526.3870, 1648.986
526.8691, 1650.990
527.3513, 1650.905
527.8334, 1650.480
528.3155, 1651.117
528.7976, 1652.163
529.2797, 1652.710
529.7618, 1652.647
530.2440, 1652.103
530.7261, 1650.465
531.2082, 1648.608
531.6903, 1647.681
532.1724, 1648.171
532.6545, 1649.492
533.1367, 1652.395
533.6188, 1656.154
534.1009, 1658.308
534.5830, 1656.967
535.0651, 1655.405
535.5472, 1654.709
536.0294, 1655.021
536.5115, 1655.132
536.9936, 1654.629
537.4757, 1654.516
537.9578, 1655.714
538.4399, 1658.403
538.9221, 1661.609
539.4042, 1665.801
539.8863, 1669.547
540.3684, 1669.529
540.8505, 1666.096
541.3326, 1663.455
541.8148, 1663.742
542.2969, 1665.619
542.7790, 1666.685
543.2611, 1667.067
543.7432, 1667.788
544.2253, 1670.671
544.7075, 1673.650
545.1896, 1673.993
545.6717, 1670.696
546.1538, 1668.420
546.6359, 1670.641
547.1180, 1674.576
547.6002, 1677.243
548.0823, 1676.456
548.5644, 1676.069
549.0465, 1676.783
549.5286, 1678.390
550.0107, 1680.332
550.4929, 1683.066
550.9750, 1685.394
551.4571, 1686.705
551.9392, 1686.990
552.4213, 1688.248
552.9034, 1690.796
553.3856, 1693.322
553.8677, 1694.868
554.3498, 1695.455
554.8319, 1695.128
555.3140, 1693.667
555.7961, 1692.120
556.2783, 1691.536
556.7604, 1691.956
557.2425, 1693.614
557.7246, 1697.684
558.2067, 1701.932
558.6888, 1703.931
559.1710, 1704.215
559.6531, 1704.519
560.1352, 1706.179
560.6173, 1707.739
561.0994, 1707.936
561.5815, 1706.395
562.0637, 1706.045
562.5458, 1707.628
563.0279, 1710.512
563.5100, 1714.252
563.9921, 1719.510
564.4742, 1724.444
564.9564, 1728.909
565.4385, 1733.059
565.9206, 1737.031
566.4027, 1740.656
566.8848, 1744.691
567.3669, 1749.413
567.8491, 1754.614
568.3312, 1759.566
568.8133, 1764.250
569.2954, 1768.761
569.7775, 1771.830
570.2596, 1775.120
570.7418, 1782.430
571.2239, 1794.176
571.7060, 1805.777
572.1881, 1812.828
572.6702, 1818.252
573.1523, 1825.446
573.6345, 1835.908
574.1166, 1846.915
574.5987, 1857.067
575.0808, 1867.074
575.5629, 1878.324
576.0450, 1889.834
576.5272, 1903.785
577.0093, 1921.173
577.4914, 1941.411
577.9735, 1961.039
578.4556, 1978.908
578.9377, 1998.244
579.4199, 2021.057
579.9020, 2047.125
580.3841, 2074.521
580.8662, 2103.083
581.3483, 2133.441
581.8304, 2166.378
582.3126, 2201.408
582.7947, 2237.000
583.2768, 2273.136
583.7589, 2308.970
584.2410, 2342.826
584.7231, 2375.761
585.2053, 2409.874
585.6874, 2446.937
586.1696, 2484.519
586.6517, 2521.915
587.1338, 2558.834
587.6159, 2594.228
588.0980, 2628.762
588.5801, 2660.740
589.0623, 2688.731
589.5444, 2712.046
590.0265, 2736.364
590.5086, 2763.480
590.9907, 2789.325
591.4728, 2810.380
591.9550, 2825.735
592.4371, 2841.731
592.9192, 2859.376
593.4013, 2876.275
593.8834, 2891.388
594.3655, 2903.685
594.8477, 2906.511
595.3298, 2898.388
595.8119, 2879.024
596.2940, 2847.173
596.7761, 2803.651
597.2582, 2750.235
597.7404, 2682.242
598.2225, 2609.014
598.7046, 2534.905
599.1867, 2460.595
599.6688, 2390.005
600.1509, 2322.173
600.6331, 2259.023
601.1152, 2202.717
601.5973, 2153.794
602.0794, 2108.813
602.5615, 2067.413
603.0436, 2030.678
603.5258, 2000.924
604.0079, 1979.061
604.4900, 1959.950
604.9721, 1943.360
605.4542, 1928.683
605.9363, 1914.162
606.4185, 1900.230
606.9006, 1889.453
607.3827, 1884.846
607.8648, 1883.178
608.3469, 1880.412
608.8290, 1876.597
609.3112, 1872.130
609.7933, 1866.539
610.2754, 1860.822
610.7575, 1856.259
611.2396, 1853.475
611.7217, 1848.261
612.2039, 1837.802
612.6860, 1825.529
613.1681, 1813.909
613.6502, 1803.724
614.1323, 1792.923
614.6144, 1780.391
615.0966, 1768.304
615.5787, 1760.059
616.0608, 1756.411
616.5429, 1751.986
617.0250, 1745.141
617.5071, 1737.283
617.9893, 1731.506
618.4714, 1727.734
618.9535, 1725.417
619.4356, 1725.481
619.9177, 1726.128
620.3998, 1724.817
620.8820, 1721.723
621.3641, 1718.635
621.8462, 1716.672
622.3283, 1714.960
622.8104, 1712.667
623.2925, 1709.258
623.7747, 1706.896
624.2568, 1707.008
624.7389, 1707.629
625.2210, 1707.169
625.7031, 1705.152
626.1852, 1702.967
626.6674, 1700.481
627.1495, 1698.104
627.6316, 1696.486
628.1137, 1695.632
628.5958, 1695.630
629.0779, 1697.201
629.5601, 1698.867
630.0422, 1696.833
630.5243, 1691.940
631.0064, 1688.014
631.4885, 1687.953
631.9706, 1689.357
632.4528, 1690.161
632.9349, 1690.330
633.4170, 1690.385
633.8991, 1690.349
634.3812, 1690.442
634.8633, 1690.742
635.3455, 1691.156
635.8276, 1692.221
636.3097, 1694.945
636.7918, 1697.387
637.2739, 1697.456
637.7560, 1694.012
638.2382, 1692.837
638.7203, 1694.804
639.2024, 1698.315
639.6845, 1701.298
640.1666, 1703.742
640.6487, 1705.615
641.1309, 1706.773
641.6130, 1707.526
642.0951, 1707.815
642.5772, 1707.964
643.0594, 1708.925
643.5415, 1711.644
644.0236, 1714.888
644.5057, 1718.549
644.9879, 1722.433
645.4700, 1724.857
645.9521, 1723.566
646.4342, 1722.549
646.9163, 1723.895
647.3984, 1728.242
647.8806, 1730.836
648.3627, 1730.995
648.8448, 1730.837
649.3269, 1732.584
649.8090, 1736.248
650.2911, 1737.927
650.7733, 1737.189
651.2554, 1735.281
651.7375, 1733.730
652.2196, 1732.152
652.7017, 1729.527
653.1838, 1725.261
653.6660, 1720.417
654.1481, 1714.898
654.6302, 1709.493
655.1123, 1705.537
655.5944, 1704.492
656.0765, 1703.876
656.5587, 1702.983
657.0408, 1701.856
657.5229, 1700.822
658.0050, 1699.747
658.4871, 1698.984
658.9692, 1698.875
659.4514, 1699.283
659.9335, 1698.457
660.4156, 1696.218
660.8977, 1694.263
661.3798, 1694.621
661.8619, 1696.158
662.3441, 1695.132
662.8262, 1691.255
663.3083, 1688.216
663.7904, 1690.146
664.2725, 1693.950
664.7546, 1696.120
665.2368, 1695.344
665.7189, 1694.653
666.2010, 1696.237
666.6831, 1697.961
667.1652, 1697.178
667.6473, 1690.600
668.1295, 1687.081
668.6116, 1688.563
669.0937, 1692.443
669.5758, 1693.533
670.0579, 1691.584
670.5400, 1689.199
671.0222, 1686.636
671.5043, 1684.604
671.9864, 1684.877
672.4685, 1687.107
672.9506, 1689.670
673.4327, 1692.076
673.9149, 1694.030
674.3970, 1695.181
674.8791, 1695.578
675.3612, 1695.678
675.8433, 1695.511
676.3254, 1695.226
676.8076, 1694.772
677.2897, 1694.045
677.7718, 1694.203
678.2539, 1696.644
678.7360, 1698.103
679.2181, 1695.321
679.7003, 1687.544
680.1824, 1684.486
680.6645, 1687.080
681.1466, 1691.766
681.6287, 1695.211
682.1108, 1697.628
682.5930, 1699.441
683.0751, 1700.650
683.5572, 1701.547
684.0393, 1702.245
684.5214, 1702.800
685.0035, 1703.315
685.4857, 1704.110
685.9678, 1704.482
686.4499, 1703.154
686.9320, 1701.417
687.4141, 1702.238
687.8962, 1707.552
688.3784, 1711.731
688.8605, 1713.234
689.3426, 1712.883
689.8247, 1713.740
690.3068, 1715.902
690.7889, 1717.176
691.2711, 1715.616
691.7532, 1712.872
692.2353, 1712.875
692.7174, 1715.125
693.1995, 1716.448
693.6816, 1713.362
694.1638, 1709.759
694.6459, 1709.014
695.1280, 1711.522
695.6101, 1713.233
696.0922, 1711.902
696.5743, 1710.602
697.0565, 1711.207
697.5386, 1714.526
698.0207, 1716.184
698.5028, 1715.329
698.9849, 1714.664
699.4670, 1717.734
699.9492, 1723.969
700.4313, 1727.050
700.9135, 1725.925
701.3956, 1723.292
701.8777, 1721.275
702.3598, 1719.898
702.8419, 1719.184
703.3240, 1718.993
703.8062, 1719.673
704.2883, 1722.062
704.7704, 1725.214
705.2525, 1727.719
705.7346, 1728.889
706.2167, 1730.056
706.6989, 1731.936
707.1810, 1733.661
707.6631, 1732.697
708.1452, 1728.418
708.6273, 1725.561
709.1094, 1725.996
709.5916, 1728.359
710.0737, 1729.479
710.5558, 1729.618
711.0379, 1730.125
711.5200, 1732.450
712.0021, 1734.898
712.4843, 1735.930
712.9664, 1735.695
713.4485, 1735.178
713.9306, 1734.477
714.4127, 1733.779
714.8948, 1733.102
715.3770, 1732.425
715.8591, 1732.240
716.3412, 1733.194
716.8233, 1733.369
717.3054, 1731.220
717.7875, 1726.871
718.2697, 1723.896
718.7518, 1722.347
719.2339, 1721.283
719.7160, 1720.167
720.1981, 1718.920
720.6802, 1717.367
721.1624, 1715.492
721.6445, 1713.459
722.1266, 1710.033
722.6087, 1707.288
723.0908, 1707.359
723.5729, 1713.169
724.0551, 1716.366
724.5372, 1715.270
725.0193, 1712.676
725.5014, 1711.467
725.9835, 1711.964
726.4656, 1711.871
726.9478, 1710.872
727.4299, 1709.424
727.9120, 1707.363
728.3941, 1705.305
728.8762, 1705.736
729.3583, 1710.663
729.8405, 1715.380
730.3226, 1715.569
730.8047, 1712.968
731.2868, 1710.451
731.7689, 1709.030
732.2510, 1707.595
732.7332, 1704.974
733.2153, 1702.372
733.6974, 1702.688
734.1795, 1707.520
734.6616, 1710.793
735.1437, 1710.493
735.6259, 1708.123
736.1080, 1707.737
736.5901, 1709.087
737.0722, 1710.016
737.5543, 1709.067
738.0364, 1707.460
738.5186, 1706.058
739.0007, 1705.105
739.4828, 1705.443
739.9649, 1710.288
740.4470, 1713.772
740.9291, 1711.909
741.4113, 1705.181
741.8934, 1702.090
742.3755, 1705.020
742.8576, 1707.260
743.3397, 1705.419
743.8218, 1700.278
744.3040, 1698.509
744.7861, 1700.200
745.2682, 1702.609
745.7503, 1704.298
746.2324, 1705.332
746.7145, 1705.745
747.1967, 1705.552
747.6788, 1704.850
748.1609, 1702.918
748.6430, 1701.077
749.1251, 1700.129
749.6072, 1700.214
750.0894, 1701.039
750.5715, 1702.962
751.0536, 1705.115
751.5357, 1707.182
752.0178, 1709.280
752.4999, 1709.837
752.9821, 1708.665
753.4642, 1707.250
753.9463, 1706.928
754.4284, 1707.393
754.9105, 1708.192
755.3926, 1709.329
755.8748, 1710.108
756.3569, 1709.728
756.8390, 1708.974
757.3211, 1708.544
757.8032, 1708.687
758.2853, 1708.798
758.7675, 1708.630
759.2496, 1708.601
759.7318, 1709.300
760.2139, 1710.933
760.6960, 1711.567
761.1781, 1710.823
761.6602, 1709.921
762.1423, 1710.547
762.6245, 1712.176
763.1066, 1713.649
763.5887, 1714.894
764.0708, 1715.366
764.5529, 1713.255
765.0350, 1710.740
765.5172, 1710.401
765.9993, 1716.916
766.4814, 1719.868
766.9635, 1716.539
767.4456, 1711.077
767.9277, 1708.919
768.4099, 1710.443
768.8920, 1712.789
769.3741, 1715.922
769.8562, 1718.639
770.3383, 1718.765
770.8204, 1717.073
771.3026, 1715.658
771.7847, 1715.279
772.2668, 1715.184
772.7489, 1715.221
773.2310, 1715.154
773.7131, 1714.604
774.1953, 1712.288
774.6774, 1711.197
775.1595, 1712.286
775.6416, 1714.403
776.1237, 1715.503
776.6058, 1715.539
777.0880, 1714.735
777.5701, 1712.708
778.0522, 1710.652
778.5343, 1710.574
779.0164, 1712.131
779.4985, 1714.441
779.9807, 1718.182
780.4628, 1721.213
780.9449, 1721.640
781.4270, 1720.444
781.9091, 1719.693
782.3912, 1720.647
782.8734, 1720.933
783.3555, 1719.816
783.8376, 1718.043
784.3197, 1717.694
784.8018, 1718.933
785.2839, 1719.700
785.7661, 1719.151
786.2482, 1718.106
786.7303, 1718.249
787.2124, 1719.064
787.6945, 1719.087
788.1766, 1715.980
788.6588, 1713.578
789.1409, 1714.627
789.6230, 1717.893
790.1051, 1719.812
790.5872, 1718.918
791.0693, 1718.439
791.5515, 1719.254
792.0336, 1720.775
792.5157, 1720.843
792.9978, 1719.453
793.4799, 1719.450
793.9620, 1722.861
794.4442, 1727.098
794.9263, 1728.357
795.4084, 1727.304
795.8905, 1725.823
796.3726, 1724.151
796.8547, 1722.839
797.3369, 1721.633
797.8190, 1720.934
798.3011, 1722.104
798.7832, 1726.588
799.2653, 1729.930
799.7474, 1730.628
800.2296, 1729.762
800.7117, 1730.661
801.1938, 1733.119
801.6759, 1734.911
802.1580, 1734.755
802.6401, 1733.867
803.1223, 1733.805
803.6044, 1734.156
804.0865, 1733.828
804.5686, 1731.476
805.0507, 1729.483
805.5328, 1728.582
806.0150, 1728.641
806.4971, 1729.431
806.9792, 1731.208
807.4613, 1733.026
807.9434, 1734.872
808.4255, 1736.323
808.9077, 1735.629
809.3898, 1733.427
809.8719, 1732.684
810.3540, 1736.231
810.8361, 1740.078
811.3182, 1740.525
811.8004, 1738.863
812.2825, 1738.193
812.7646, 1740.624
813.2467, 1742.525
813.7288, 1743.555
814.2109, 1743.521
814.6931, 1741.247
815.1752, 1736.290
815.6573, 1733.518
816.1394, 1735.313
816.6215, 1738.420
817.1037, 1736.626
817.5858, 1731.685
818.0679, 1728.169
818.5500, 1729.103
819.0322, 1730.727
819.5143, 1731.358
819.9964, 1731.336
820.4785, 1731.392
820.9606, 1732.101
821.4427, 1731.647
821.9249, 1728.863
822.4070, 1725.660
822.8891, 1726.960
823.3712, 1732.238
823.8533, 1735.567
824.3354, 1734.848
824.8176, 1732.508
825.2997, 1730.911
825.7818, 1729.733
826.2639, 1728.437
826.7460, 1725.906
827.2281, 1724.404
827.7103, 1725.184
828.1924, 1726.931
828.6745, 1727.804
829.1566, 1727.337
829.6387, 1727.943
830.1208, 1730.249
830.6030, 1733.014
831.0851, 1734.137
831.5672, 1734.110
832.0493, 1734.410
832.5314, 1735.702
833.0135, 1736.608
833.4957, 1735.915
833.9778, 1734.413
834.4599, 1733.012
834.9420, 1731.664
835.4241, 1730.809
835.9063, 1730.268
836.3884, 1730.495
836.8705, 1732.775
837.3526, 1737.011
837.8347, 1738.686
838.3168, 1736.910
838.7990, 1734.504
839.2811, 1734.136
839.7632, 1735.090
840.2453, 1736.658
840.7274, 1739.190
841.2095, 1740.549
841.6917, 1738.883
842.1738, 1736.506
842.6559, 1735.144
843.1380, 1734.871
843.6201, 1735.458
844.1022, 1737.113
844.5844, 1738.906
845.0665, 1740.135
845.5486, 1740.818
846.0307, 1740.626
846.5128, 1739.517
846.9949, 1739.098
847.4771, 1741.706
847.9592, 1744.552
848.4413, 1744.940
848.9234, 1741.683
849.4055, 1741.245
849.8876, 1745.060
850.3698, 1749.624
850.8519, 1753.086
851.3340, 1755.483
851.8161, 1756.986
852.2982, 1757.586
852.7803, 1758.108
853.2625, 1759.116
853.7446, 1760.362
854.2267, 1762.006
854.7088, 1763.905
855.1909, 1764.636
855.6730, 1761.361
856.1552, 1759.465
856.6373, 1762.334
857.1194, 1768.871
857.6015, 1768.998
858.0836, 1761.701
858.5657, 1755.831
859.0479, 1756.379
859.5300, 1760.458
860.0121, 1763.605
860.4942, 1765.621
860.9763, 1765.695
861.4584, 1761.651
861.9406, 1757.389
862.4227, 1754.495
862.9048, 1752.859
863.3869, 1751.859
863.8690, 1751.620
864.3511, 1751.639
864.8333, 1751.760
865.3154, 1752.096
865.7975, 1753.404
866.2796, 1755.276
866.7617, 1755.924
867.2438, 1754.214
867.7260, 1751.934
868.2081, 1749.411
868.6902, 1747.485
869.1723, 1747.402
869.6544, 1751.672
870.1365, 1754.670
870.6187, 1756.023
871.1008, 1756.108
871.5829, 1755.197
872.0650, 1753.342
872.5471, 1751.079
873.0292, 1748.272
873.5114, 1746.283
873.9935, 1747.337
874.4756, 1749.676
874.9577, 1751.094
875.4399, 1751.057
875.9220, 1750.470
876.4041, 1748.724
876.8862, 1747.208
877.3683, 1746.984
877.8505, 1748.330
878.3326, 1748.910
878.8147, 1748.622
879.2968, 1748.170
879.7789, 1747.962
880.2610, 1748.070
880.7432, 1748.834
881.2253, 1750.231
881.7074, 1751.291
882.1895, 1751.570
882.6716, 1751.388
883.1537, 1750.862
883.6359, 1750.027
884.1180, 1749.129
884.6001, 1748.294
885.0822, 1746.854
885.5643, 1743.838
886.0464, 1740.387
886.5286, 1739.564
887.0107, 1740.871
887.4928, 1742.245
887.9749, 1741.214
888.4570, 1741.329
888.9391, 1746.113
889.4213, 1753.538
889.9034, 1757.006
890.3855, 1754.877
890.8676, 1752.308
891.3497, 1750.273
891.8318, 1748.362
892.3140, 1745.070
892.7961, 1741.019
893.2782, 1738.773
893.7603, 1739.508
894.2424, 1741.322
894.7245, 1743.408
895.2067, 1745.493
895.6888, 1747.280
896.1709, 1749.519
896.6530, 1749.893
897.1351, 1747.480
897.6172, 1744.646
898.0994, 1744.138
898.5815, 1745.590
899.0636, 1746.188
899.5457, 1745.607
900.0278, 1745.321
900.5099, 1747.116
900.9921, 1749.391
901.4742, 1750.708
901.9563, 1750.810
902.4384, 1750.479
902.9205, 1749.047
903.4026, 1748.353
903.8848, 1749.729
904.3669, 1752.760
904.8490, 1753.765
905.3311, 1752.805
905.8132, 1751.838
906.2953, 1752.118
906.7775, 1752.904
907.2596, 1753.754
907.7417, 1754.513
908.2238, 1754.719
908.7059, 1753.970
909.1880, 1752.920
909.6702, 1751.465
910.1523, 1749.953
910.6344, 1749.344
911.1165, 1749.625
911.5986, 1749.851
912.0807, 1749.919
912.5629, 1749.480
913.0450, 1746.838
913.5271, 1743.868
914.0092, 1743.535
914.4913, 1748.943
914.9734, 1752.896
915.4556, 1754.111
915.9377, 1753.685
916.4198, 1752.008
916.9019, 1748.910
917.3840, 1747.848
917.8661, 1749.171
918.3483, 1750.883
918.8304, 1751.152
919.3125, 1750.787
919.7946, 1750.859
920.2767, 1751.483
920.7589, 1751.777
921.2410, 1750.735
921.7231, 1750.130
922.2052, 1750.927
922.6873, 1752.868
923.1694, 1753.414
923.6516, 1752.496
924.1337, 1752.086
924.6158, 1753.505
925.0979, 1755.664
925.5800, 1757.322
926.0621, 1758.540
926.5443, 1759.511
927.0264, 1759.823
927.5085, 1760.529
927.9906, 1762.357
928.4727, 1764.354
928.9548, 1764.832
929.4370, 1763.758
929.9191, 1762.296
930.4012, 1760.427
930.8833, 1759.276
931.3654, 1761.196
931.8475, 1764.149
932.3297, 1764.966
932.8118, 1761.988
933.2939, 1760.724
933.7761, 1764.554
934.2582, 1768.293
934.7403, 1768.331
935.2224, 1764.507
935.7045, 1763.829
936.1866, 1766.388
936.6688, 1769.194
937.1509, 1769.990
937.6330, 1770.028
938.1151, 1771.219
938.5972, 1773.166
939.0793, 1773.545
939.5615, 1770.302
940.0436, 1767.020
940.5257, 1764.200
941.0078, 1762.208
941.4899, 1762.884
941.9720, 1766.080
942.4542, 1767.495
942.9363, 1765.382
943.4184, 1762.311
943.9005, 1759.752
944.3826, 1758.487
944.8647, 1759.707
945.3469, 1765.365
945.8290, 1770.433
946.3111, 1775.328
946.7932, 1778.451
947.2753, 1777.230
947.7574, 1772.007
948.2396, 1770.984
948.7217, 1774.467
949.2038, 1777.934
949.6859, 1776.881
950.1680, 1774.995
950.6501, 1775.926
951.1323, 1779.698
951.6144, 1782.550
952.0965, 1783.767
952.5786, 1784.401
953.0607, 1784.314
953.5428, 1784.154
954.0250, 1786.333
954.5071, 1790.432
954.9892, 1794.028
955.4713, 1796.010
955.9534, 1797.400
956.4355, 1798.832
956.9177, 1800.174
957.3998, 1801.182
957.8819, 1800.509
958.3640, 1802.211
958.8461, 1807.097
959.3282, 1812.958
959.8104, 1817.373
960.2925, 1820.763
960.7746, 1824.146
961.2567, 1827.639
961.7388, 1831.963
962.2209, 1838.852
962.7031, 1845.730
963.1852, 1849.791
963.6673, 1851.284
964.1494, 1856.601
964.6315, 1866.102
965.1136, 1877.987
965.5958, 1891.947
966.0779, 1907.489
966.5600, 1924.004
967.0421, 1941.406
967.5242, 1958.953
968.0063, 1975.266
968.4885, 1993.449
968.9706, 2015.134
969.4527, 2039.321
969.9348, 2065.227
970.4169, 2093.002
970.8990, 2120.630
971.3812, 2147.365
971.8633, 2176.971
972.3454, 2213.910
972.8275, 2255.192
973.3096, 2294.734
973.7917, 2332.053
974.2739, 2379.391
974.7560, 2442.862
975.2381, 2515.754
975.7202, 2597.292
976.2023, 2686.108
976.6844, 2778.055
977.1666, 2873.792
977.6487, 2968.369
978.1308, 3062.511
978.6129, 3148.576
979.0950, 3231.035
979.5771, 3296.817
980.0593, 3325.229
980.5414, 3311.625
981.0235, 3254.623
981.5056, 3144.294
981.9877, 3005.685
982.4698, 2852.448
982.9520, 2689.107
983.4341, 2542.457
983.9162, 2414.266
984.3983, 2305.205
984.8804, 2219.759
985.3625, 2149.991
985.8447, 2092.871
986.3268, 2048.141
986.8089, 2010.799
987.2910, 1982.163
987.7731, 1957.158
988.2552, 1934.034
988.7374, 1913.715
989.2195, 1899.371
989.7016, 1889.532
990.1837, 1880.563
990.6658, 1871.023
991.1479, 1862.630
991.6301, 1856.457
992.1122, 1851.589
992.5944, 1847.130
993.0765, 1843.207
993.5586, 1839.226
994.0407, 1835.101
994.5228, 1831.449
995.0049, 1829.076
995.4871, 1827.286
995.9692, 1825.021
996.4513, 1822.344
996.9334, 1820.095
997.4155, 1819.055
997.8976, 1817.793
998.3798, 1815.672
998.8619, 1813.326
999.3440, 1812.534
999.8261, 1813.096
1000.308, 1813.217
1000.790, 1812.489
1001.272, 1810.989
1001.755, 1807.945
1002.237, 1804.609
1002.719, 1802.298
1003.201, 1801.156
1003.683, 1801.401
1004.165, 1803.680
1004.647, 1805.760
1005.129, 1806.456
1005.612, 1805.830
1006.094, 1803.065
1006.576, 1798.850
1007.058, 1796.242
1007.540, 1798.856
1008.022, 1801.192
1008.504, 1800.115
1008.986, 1797.643
1009.468, 1797.512
1009.951, 1800.148
1010.433, 1801.293
1010.915, 1799.944
1011.397, 1798.625
1011.879, 1801.326
1012.361, 1805.083
1012.843, 1805.840
1013.325, 1802.550
1013.807, 1800.122
1014.290, 1799.897
1014.772, 1799.874
1015.254, 1799.119
1015.736, 1797.920
1016.218, 1797.679
1016.700, 1798.181
1017.182, 1798.112
1017.664, 1795.961
1018.147, 1794.283
1018.629, 1795.162
1019.111, 1797.398
1019.593, 1799.318
1020.075, 1801.448
1020.557, 1801.097
1021.039, 1797.555
1021.521, 1793.915
1022.003, 1793.940
1022.486, 1795.547
1022.968, 1794.620
1023.450, 1791.204
1023.932, 1788.622
1024.414, 1788.321
1024.896, 1789.040
1025.378, 1790.871
1025.860, 1793.123
1026.343, 1793.533
1026.825, 1792.240
1027.307, 1791.216
1027.789, 1790.887
1028.271, 1791.317
1028.753, 1793.143
1029.235, 1795.440
1029.717, 1797.192
1030.199, 1798.260
1030.682, 1798.764
1031.164, 1798.646
1031.646, 1798.134
1032.128, 1797.219
1032.610, 1796.063
1033.092, 1794.423
1033.574, 1792.800
1034.056, 1793.083
1034.539, 1799.029
1035.021, 1803.444
1035.503, 1803.004
1035.985, 1800.526
1036.467, 1799.829
1036.949, 1800.982
1037.431, 1800.921
1037.913, 1799.190
1038.396, 1797.461
1038.878, 1797.325
1039.360, 1797.817
1039.842, 1797.944
1040.324, 1797.636
1040.806, 1798.096
1041.288, 1800.080
1041.770, 1801.136
1042.252, 1800.210
1042.734, 1798.303
1043.217, 1797.435
1043.699, 1797.272
1044.181, 1796.801
1044.663, 1795.143
1045.145, 1794.491
1045.627, 1797.214
1046.109, 1799.993
1046.591, 1800.113
1047.074, 1797.434
1047.556, 1795.660
1048.038, 1794.779
1048.520, 1794.588
1049.002, 1795.398
1049.484, 1796.439
1049.966, 1797.515
1050.448, 1798.269
1050.931, 1797.518
1051.413, 1793.440
1051.895, 1791.945
1052.377, 1794.250
1052.859, 1797.898
1053.341, 1800.368
1053.823, 1801.828
1054.305, 1802.552
1054.787, 1802.574
1055.270, 1802.329
1055.752, 1802.328
1056.234, 1801.616
1056.716, 1799.024
1057.198, 1795.629
1057.680, 1796.487
1058.162, 1801.262
1058.644, 1804.734
1059.126, 1804.915
1059.609, 1804.021
1060.091, 1803.617
1060.573, 1803.438
1061.055, 1803.188
1061.537, 1802.793
1062.019, 1802.642
1062.501, 1802.937
1062.983, 1802.815
1063.466, 1800.980
1063.948, 1798.783
1064.430, 1799.185
1064.912, 1801.409
1065.394, 1803.099
1065.876, 1803.330
1066.358, 1802.946
1066.840, 1802.038
1067.323, 1800.729
1067.805, 1798.397
1068.287, 1795.487
1068.769, 1795.947
1069.251, 1800.044
1069.733, 1804.215
1070.215, 1805.921
1070.697, 1806.829
1071.179, 1808.338
1071.661, 1809.978
1072.144, 1809.079
1072.626, 1805.033
1073.108, 1802.631
1073.590, 1803.261
1074.072, 1805.592
1074.554, 1810.026
1075.036, 1814.162
1075.518, 1814.032
1076.001, 1807.370
1076.483, 1804.348
1076.965, 1807.276
1077.447, 1810.676
1077.929, 1811.677
1078.411, 1811.160
1078.893, 1811.563
1079.375, 1812.634
1079.858, 1813.583
1080.340, 1814.110
1080.822, 1814.352
1081.304, 1814.456
1081.786, 1814.121
1082.268, 1812.428
1082.750, 1809.298
1083.232, 1809.706
1083.714, 1813.726
1084.197, 1817.661
1084.679, 1818.296
1085.161, 1818.390
1085.643, 1820.670
1086.125, 1824.140
1086.607, 1825.432
1087.089, 1824.000
1087.571, 1821.918
1088.054, 1819.087
1088.536, 1817.271
1089.018, 1820.274
1089.500, 1824.751
1089.982, 1825.018
1090.464, 1820.383
1090.946, 1817.963
1091.428, 1820.319
1091.911, 1823.078
1092.393, 1824.938
1092.875, 1826.288
1093.357, 1828.409
1093.839, 1830.822
1094.321, 1832.032
1094.803, 1831.425
1095.285, 1830.245
1095.767, 1828.024
1096.250, 1826.453
1096.732, 1826.910
1097.214, 1829.264
1097.696, 1830.443
1098.178, 1830.550
1098.660, 1831.509
1099.142, 1835.367
1099.624, 1839.223
1100.106, 1840.533
1100.589, 1840.533
1101.071, 1841.305
1101.553, 1843.547
1102.035, 1844.289
1102.517, 1843.137
1102.999, 1842.411
1103.481, 1844.276
1103.963, 1847.558
1104.446, 1850.812
1104.928, 1854.052
1105.410, 1857.755
1105.892, 1863.625
1106.374, 1866.780
1106.856, 1865.529
1107.338, 1863.294
1107.820, 1865.336
1108.302, 1869.882
1108.785, 1872.569
1109.267, 1872.885
1109.749, 1873.408
1110.231, 1874.646
1110.713, 1877.267
1111.195, 1882.690
1111.677, 1888.909
1112.159, 1889.283
1112.641, 1884.907
1113.124, 1882.754
1113.606, 1885.072
1114.088, 1887.741
1114.570, 1888.409
1115.052, 1887.957
1115.534, 1886.802
1116.016, 1885.052
1116.498, 1884.276
1116.981, 1884.518
1117.463, 1884.001
1117.945, 1881.251
1118.427, 1878.495
1118.909, 1878.610
1119.391, 1879.833
1119.873, 1879.632
1120.355, 1877.485
1120.838, 1874.433
1121.320, 1870.180
1121.802, 1866.215
1122.284, 1863.715
1122.766, 1862.061
1123.248, 1860.440
1123.730, 1858.835
1124.212, 1857.188
1124.694, 1856.508
1125.177, 1853.827
1125.659, 1847.522
1126.141, 1842.047
1126.623, 1843.555
1127.105, 1849.276
1127.587, 1851.976
1128.069, 1851.520
1128.551, 1850.085
1129.033, 1847.370
1129.516, 1845.329
1129.998, 1844.316
1130.480, 1844.316
1130.962, 1845.800
1131.444, 1848.369
1131.926, 1850.253
1132.408, 1851.224
1132.890, 1850.965
1133.373, 1847.667
1133.855, 1844.759
1134.337, 1844.748
1134.819, 1842.964
1135.301, 1842.233
1135.783, 1843.297
1136.265, 1842.532
1136.747, 1845.267
1137.229, 1848.515
1137.712, 1850.150
1138.194, 1850.840
1138.676, 1850.652
1139.158, 1849.639
1139.640, 1851.082
1140.122, 1855.346
1140.604, 1858.434
1141.086, 1858.287
1141.569, 1857.079
1142.051, 1856.940
1142.533, 1857.435
1143.015, 1858.128
1143.497, 1859.361
1143.979, 1859.043
1144.461, 1856.736
1144.943, 1854.587
1145.426, 1854.290
1145.908, 1854.635
1146.390, 1853.213
1146.872, 1851.020
1147.354, 1850.143
1147.836, 1853.595
1148.318, 1854.434
1148.800, 1851.882
1149.282, 1848.183
1149.765, 1844.513
1150.247, 1841.389
1150.729, 1840.211
1151.211, 1840.702
1151.693, 1841.529
1152.175, 1843.202
1152.657, 1843.704
1153.139, 1842.451
1153.621, 1840.471
1154.104, 1838.365
1154.586, 1836.585
1155.068, 1837.341
1155.550, 1840.459
1156.032, 1842.572
1156.514, 1841.625
1156.996, 1839.746
1157.478, 1836.973
1157.961, 1834.372
1158.443, 1834.326
1158.925, 1836.306
1159.407, 1837.430
1159.889, 1837.284
1160.371, 1836.503
1160.853, 1834.369
1161.335, 1832.863
1161.818, 1833.057
1162.300, 1834.543
1162.782, 1836.757
1163.264, 1839.501
1163.746, 1840.295
1164.228, 1838.253
1164.710, 1836.356
1165.192, 1837.922
1165.674, 1839.434
1166.156, 1837.598
1166.639, 1837.687
1167.121, 1837.113
1167.603, 1834.174
1168.085, 1834.662
1168.567, 1831.308
1169.049, 1828.114
1169.531, 1829.001
1170.013, 1831.432
1170.496, 1832.936
1170.978, 1833.399
1171.460, 1834.121
1171.942, 1835.200
1172.424, 1834.385
1172.906, 1829.225
1173.388, 1824.279
1173.870, 1824.556
1174.353, 1827.625
1174.835, 1830.530
1175.317, 1833.164
1175.799, 1835.198
1176.281, 1836.760
1176.763, 1836.868
1177.245, 1833.763
1177.727, 1830.261
1178.209, 1829.893
1178.692, 1831.262
1179.174, 1831.978
1179.656, 1831.501
1180.138, 1830.840
1180.620, 1829.770
1181.102, 1829.575
1181.584, 1832.146
1182.066, 1835.363
1182.548, 1836.504
1183.031, 1836.157
1183.513, 1835.801
1183.995, 1836.443
1184.477, 1834.899
1184.959, 1830.319
1185.441, 1826.348
1185.923, 1826.615
1186.405, 1829.181
1186.888, 1832.514
1187.370, 1835.893
1187.852, 1836.839
1188.334, 1832.903
1188.816, 1830.969
1189.298, 1832.019
1189.780, 1833.892
1190.262, 1834.451
1190.745, 1834.334
1191.227, 1834.552
1191.709, 1835.034
1192.191, 1835.112
1192.673, 1834.484
1193.155, 1833.729
1193.637, 1832.864
1194.119, 1832.059
1194.601, 1831.322
1195.084, 1830.885
1195.566, 1831.280
1196.048, 1832.469
1196.530, 1833.609
1197.012, 1834.657
1197.494, 1835.469
1197.976, 1836.124
1198.458, 1836.244
1198.941, 1834.325
1199.423, 1831.921
1199.905, 1832.056
1200.387, 1834.966
1200.869, 1837.577
1201.351, 1839.727
1201.833, 1840.579
1202.315, 1839.693
1202.797, 1837.897
1203.280, 1835.953
1203.762, 1834.308
1204.244, 1834.085
1204.726, 1835.566
1205.208, 1836.031
1205.690, 1834.425
1206.172, 1833.092
1206.654, 1832.821
1207.136, 1832.999
1207.619, 1832.109
1208.101, 1831.042
1208.583, 1831.469
1209.065, 1833.828
1209.547, 1836.542
1210.029, 1840.030
1210.511, 1842.321
1210.993, 1842.399
1211.476, 1841.393
1211.958, 1841.068
1212.440, 1841.296
1212.922, 1841.955
1213.404, 1843.163
1213.886, 1844.037
1214.368, 1844.292
1214.850, 1844.814
1215.333, 1846.393
1215.815, 1847.848
1216.297, 1846.424
1216.779, 1843.498
1217.261, 1841.737
1217.743, 1842.322
1218.225, 1841.255
1218.707, 1837.135
1219.189, 1834.338
1219.672, 1835.197
1220.154, 1838.173
1220.636, 1841.251
1221.118, 1844.107
1221.600, 1846.158
1222.082, 1847.096
1222.564, 1847.522
1223.046, 1847.364
1223.528, 1847.010
1224.011, 1846.641
1224.493, 1846.218
1224.975, 1845.711
1225.457, 1845.106
1225.939, 1844.297
1226.421, 1842.924
1226.903, 1842.476
1227.385, 1843.224
1227.868, 1843.965
1228.350, 1843.957
1228.832, 1843.619
1229.314, 1842.942
1229.796, 1842.605
1230.278, 1844.031
1230.760, 1848.860
1231.242, 1851.518
1231.724, 1851.939
1232.207, 1850.481
1232.689, 1845.590
1233.171, 1840.814
1233.653, 1842.087
1234.135, 1846.175
1234.617, 1847.503
1235.099, 1844.596
1235.581, 1841.419
1236.063, 1837.750
1236.546, 1835.739
1237.028, 1838.131
1237.510, 1841.438
1237.992, 1841.504
1238.474, 1840.168
1238.956, 1840.788
1239.438, 1844.602
1239.920, 1845.271
1240.403, 1842.508
1240.885, 1840.285
1241.367, 1841.400
1241.849, 1843.829
1242.331, 1846.922
1242.813, 1849.589
1243.295, 1849.958
1243.777, 1847.306
1244.260, 1846.563
1244.742, 1847.708
1245.224, 1848.703
1245.706, 1847.053
1246.188, 1846.170
1246.670, 1850.345
1247.152, 1855.541
1247.634, 1855.872
1248.116, 1850.829
1248.599, 1848.919
1249.081, 1850.029
1249.563, 1851.436
1250.045, 1851.067
1250.527, 1851.094
1251.009, 1853.509
1251.491, 1856.267
1251.973, 1857.215
1252.455, 1856.410
1252.938, 1855.375
1253.420, 1854.166
1253.902, 1853.146
1254.384, 1851.768
1254.866, 1851.646
1255.348, 1855.315
1255.830, 1858.525
1256.313, 1856.036
1256.795, 1849.378
1257.277, 1848.738
1257.759, 1853.208
1258.241, 1857.635
1258.723, 1860.151
1259.205, 1861.575
1259.687, 1861.836
1260.169, 1861.608
1260.651, 1861.183
1261.134, 1860.770
1261.616, 1861.223
1262.098, 1862.307
1262.580, 1863.239
1263.062, 1863.748
1263.544, 1863.910
1264.026, 1863.508
1264.508, 1863.293
1264.991, 1864.624
1265.473, 1866.197
1265.955, 1864.609
1266.437, 1861.231
1266.919, 1859.699
1267.401, 1861.842
1267.883, 1864.811
1268.365, 1869.186
1268.848, 1872.102
1269.330, 1869.881
1269.812, 1866.093
1270.294, 1865.018
1270.776, 1865.969
1271.258, 1867.635
1271.740, 1870.730
1272.222, 1871.053
1272.704, 1868.174
1273.187, 1865.740
1273.669, 1866.885
1274.151, 1868.933
1274.633, 1870.175
1275.115, 1870.415
1275.597, 1869.370
1276.079, 1866.849
1276.561, 1864.234
1277.043, 1861.614
1277.526, 1860.655
1278.008, 1863.975
1278.490, 1867.504
1278.972, 1869.369
1279.454, 1869.809
1279.936, 1868.721
1280.418, 1866.209
1280.900, 1864.618
1281.383, 1863.953
1281.865, 1864.239
1282.347, 1865.997
1282.829, 1867.975
1283.311, 1870.458
1283.793, 1872.108
1284.275, 1871.512
1284.757, 1869.231
1285.240, 1867.352
1285.722, 1865.889
1286.204, 1864.958
1286.686, 1864.800
1287.168, 1864.935
1287.650, 1865.319
1288.132, 1865.971
1288.614, 1866.893
1289.096, 1868.130
1289.578, 1870.308
1290.061, 1872.726
1290.543, 1873.942
1291.025, 1873.395
1291.507, 1871.442
1291.989, 1867.491
1292.471, 1864.812
1292.953, 1866.040
1293.435, 1868.499
1293.918, 1868.824
1294.400, 1868.359
1294.882, 1869.631
1295.364, 1873.298
1295.846, 1872.676
1296.328, 1867.705
1296.810, 1864.543
1297.292, 1867.040
1297.775, 1870.242
1298.257, 1871.028
1298.739, 1870.518
1299.221, 1869.836
1299.703, 1868.916
1300.185, 1866.791
1300.667, 1863.844
1301.149, 1862.258
1301.631, 1863.185
1302.114, 1863.997
1302.596, 1866.013
##END=



