##NAMES=Perhamite
##RRUFFID=R110142
##IDEAL CHEMISTRY=Ca_3_Al_7.7_Si_3_P_4_O_23.5_(OH)_14.1_&#183;8H_2_O
##LOCALITY=Emmons quarry, Uncle Tom Mountain, Greenwood, Oxford County, Maine, USA
##OWNER=RRUFF
##SOURCE=Donald Doell
##DESCRIPTION=Parallel aggregates of tan colored hexagonal plates
##STATUS=The identification of this mineral has been confirmed by single-crystal X-ray diffraction.
##URL=rruff.info/R110142
186.4334, 6512.755
186.9155, 6543.144
187.3976, 6569.224
187.8798, 6594.191
188.3619, 6618.678
188.8440, 6639.661
189.3261, 6651.642
189.8082, 6655.138
190.2903, 6655.385
190.7725, 6655.112
191.2546, 6653.958
191.7367, 6650.054
192.2188, 6643.489
192.7009, 6633.951
193.1830, 6619.086
193.6652, 6598.907
194.1473, 6580.612
194.6294, 6568.136
195.1115, 6561.192
195.5936, 6557.011
196.0757, 6555.382
196.5579, 6556.366
197.0400, 6560.678
197.5221, 6568.500
198.0042, 6577.425
198.4863, 6586.155
198.9684, 6594.654
199.4506, 6604.524
199.9327, 6616.224
200.4148, 6628.841
200.8969, 6640.376
201.3790, 6650.971
201.8611, 6660.641
202.3433, 6669.843
202.8254, 6678.791
203.3075, 6684.980
203.7896, 6687.498
204.2717, 6687.707
204.7538, 6689.359
205.2360, 6693.003
205.7181, 6695.643
206.2002, 6694.220
206.6823, 6687.374
207.1644, 6684.981
207.6465, 6689.335
208.1287, 6697.619
208.6108, 6701.533
209.0929, 6700.160
209.5750, 6696.802
210.0571, 6692.992
210.5392, 6688.309
211.0214, 6685.305
211.5035, 6685.041
211.9856, 6686.466
212.4677, 6685.329
212.9498, 6680.469
213.4319, 6676.072
213.9140, 6675.257
214.3962, 6679.647
214.8783, 6682.175
215.3604, 6681.532
215.8425, 6678.757
216.3246, 6678.256
216.8067, 6681.297
217.2889, 6684.049
217.7710, 6683.558
218.2531, 6677.761
218.7352, 6674.537
219.2173, 6674.838
219.6994, 6678.030
220.1816, 6681.307
220.6637, 6684.091
221.1458, 6687.656
221.6279, 6693.497
222.1100, 6704.154
222.5921, 6710.132
223.0743, 6709.433
223.5564, 6703.493
224.0385, 6698.808
224.5206, 6696.018
225.0027, 6693.902
225.4848, 6691.341
225.9670, 6686.677
226.4491, 6686.356
226.9312, 6693.095
227.4133, 6704.880
227.8954, 6711.724
228.3775, 6711.216
228.8597, 6709.223
229.3418, 6709.336
229.8239, 6712.797
230.3060, 6715.146
230.7881, 6714.733
231.2702, 6712.640
231.7524, 6714.619
232.2345, 6722.425
232.7166, 6731.386
233.1987, 6738.876
233.6808, 6744.898
234.1629, 6748.841
234.6451, 6749.409
235.1272, 6747.662
235.6093, 6748.864
236.0914, 6755.667
236.5735, 6761.797
237.0556, 6763.511
237.5378, 6758.488
238.0199, 6754.429
238.5020, 6752.214
238.9841, 6751.457
239.4662, 6750.370
239.9483, 6748.946
240.4305, 6747.623
240.9126, 6746.620
241.3947, 6745.896
241.8768, 6745.984
242.3589, 6747.210
242.8410, 6749.321
243.3232, 6751.091
243.8053, 6750.840
244.2874, 6752.478
244.7695, 6758.483
245.2516, 6772.189
245.7337, 6782.313
246.2159, 6786.974
246.6980, 6787.815
247.1801, 6790.416
247.6622, 6796.232
248.1443, 6801.377
248.6264, 6803.424
249.1086, 6799.614
249.5907, 6799.335
250.0728, 6803.554
250.5549, 6811.219
251.0370, 6819.831
251.5191, 6830.750
252.0013, 6840.745
252.4834, 6848.302
252.9655, 6852.128
253.4476, 6856.999
253.9297, 6862.905
254.4118, 6869.964
254.8940, 6878.971
255.3761, 6891.751
255.8582, 6903.221
256.3403, 6910.086
256.8224, 6909.011
257.3046, 6914.417
257.7867, 6929.099
258.2688, 6948.181
258.7509, 6961.939
259.2330, 6967.951
259.7151, 6973.063
260.1973, 6980.400
260.6794, 6991.156
261.1615, 6997.665
261.6436, 6997.880
262.1257, 6995.644
262.6078, 6997.572
263.0900, 7004.961
263.5721, 7013.813
264.0542, 7023.049
264.5363, 7033.029
265.0184, 7042.925
265.5005, 7053.493
265.9827, 7063.610
266.4648, 7070.664
266.9469, 7072.151
267.4290, 7078.007
267.9111, 7093.237
268.3932, 7118.651
268.8754, 7137.767
269.3575, 7149.279
269.8396, 7156.201
270.3217, 7161.720
270.8038, 7165.494
271.2859, 7168.375
271.7681, 7169.716
272.2502, 7169.562
272.7323, 7172.923
273.2144, 7181.058
273.6965, 7189.917
274.1786, 7195.521
274.6608, 7197.878
275.1429, 7197.080
275.6250, 7192.210
276.1071, 7184.006
276.5892, 7178.006
277.0714, 7175.041
277.5535, 7172.227
278.0356, 7166.626
278.5177, 7157.935
278.9998, 7148.990
279.4819, 7139.688
279.9641, 7130.608
280.4462, 7126.618
280.9283, 7129.483
281.4104, 7129.646
281.8925, 7116.549
282.3746, 7089.981
282.8568, 7068.913
283.3389, 7058.300
283.8210, 7053.950
284.3031, 7043.078
284.7852, 7024.962
285.2673, 7007.701
285.7495, 6997.320
286.2316, 6993.501
286.7137, 6990.899
287.1958, 6989.091
287.6779, 6987.985
288.1600, 6987.063
288.6422, 6986.279
289.1243, 6986.641
289.6064, 6989.652
290.0885, 6994.542
290.5706, 6997.265
291.0527, 6996.854
291.5349, 6995.134
292.0170, 6995.031
292.4991, 6996.314
292.9812, 6997.544
293.4633, 6997.586
293.9454, 6996.866
294.4276, 6996.985
294.9097, 6998.188
295.3918, 6999.620
295.8739, 6999.882
296.3560, 6999.325
296.8381, 6999.488
297.3203, 7000.488
297.8024, 7002.860
298.2845, 7008.921
298.7666, 7019.186
299.2487, 7028.809
299.7308, 7031.875
300.2130, 7030.273
300.6951, 7029.368
301.1772, 7031.502
301.6593, 7035.426
302.1414, 7040.002
302.6235, 7045.134
303.1057, 7049.456
303.5878, 7050.651
304.0699, 7050.304
304.5520, 7051.477
305.0341, 7057.050
305.5162, 7062.868
305.9984, 7064.006
306.4805, 7061.020
306.9626, 7057.697
307.4447, 7054.972
307.9268, 7053.982
308.4089, 7056.925
308.8911, 7067.506
309.3732, 7077.334
309.8553, 7078.503
310.3374, 7072.982
310.8195, 7067.366
311.3016, 7065.219
311.7838, 7064.769
312.2659, 7064.165
312.7480, 7062.317
313.2301, 7061.989
313.7122, 7065.646
314.1943, 7072.002
314.6765, 7078.310
315.1586, 7085.804
315.6407, 7091.162
316.1228, 7091.320
316.6049, 7084.505
317.0870, 7078.591
317.5692, 7079.299
318.0513, 7082.589
318.5334, 7082.794
319.0155, 7073.440
319.4976, 7064.633
319.9797, 7060.778
320.4619, 7062.390
320.9440, 7066.145
321.4261, 7073.416
321.9082, 7081.236
322.3903, 7086.750
322.8724, 7087.264
323.3546, 7087.351
323.8367, 7088.460
324.3188, 7090.515
324.8009, 7091.275
325.2830, 7089.488
325.7651, 7086.951
326.2473, 7084.868
326.7294, 7083.374
327.2115, 7082.620
327.6936, 7082.881
328.1757, 7084.193
328.6578, 7086.203
329.1400, 7089.185
329.6221, 7092.917
330.1042, 7097.610
330.5863, 7106.242
331.0684, 7110.822
331.5505, 7107.775
332.0327, 7101.185
332.5148, 7100.355
332.9969, 7108.484
333.4790, 7117.614
333.9611, 7124.771
334.4432, 7128.698
334.9254, 7134.963
335.4075, 7145.125
335.8896, 7155.852
336.3717, 7162.327
336.8538, 7162.951
337.3359, 7162.682
337.8180, 7162.233
338.3001, 7161.662
338.7823, 7164.239
339.2644, 7171.636
339.7465, 7179.184
340.2286, 7182.163
340.7107, 7180.082
341.1928, 7176.884
341.6750, 7172.483
342.1571, 7167.995
342.6392, 7168.870
343.1213, 7176.209
343.6034, 7183.515
344.0855, 7185.192
344.5677, 7181.552
345.0498, 7179.996
345.5319, 7181.363
346.0140, 7185.302
346.4961, 7191.950
346.9782, 7201.171
347.4604, 7210.428
347.9425, 7217.214
348.4246, 7222.685
348.9067, 7231.289
349.3888, 7243.688
349.8709, 7257.104
350.3531, 7268.195
350.8352, 7277.415
351.3173, 7286.439
351.7994, 7295.116
352.2815, 7304.338
352.7636, 7315.748
353.2458, 7329.271
353.7279, 7344.008
354.2100, 7359.189
354.6921, 7374.966
355.1742, 7391.696
355.6563, 7410.547
356.1385, 7429.386
356.6206, 7446.714
357.1027, 7462.514
357.5848, 7476.389
358.0669, 7486.950
358.5490, 7496.247
359.0312, 7506.719
359.5133, 7520.563
359.9954, 7532.152
360.4775, 7538.006
360.9596, 7539.402
361.4417, 7538.915
361.9239, 7536.086
362.4060, 7533.000
362.8881, 7530.968
363.3702, 7530.404
363.8523, 7529.602
364.3344, 7527.930
364.8166, 7525.774
365.2987, 7523.553
365.7808, 7519.376
366.2629, 7517.219
366.7450, 7519.603
367.2271, 7526.471
367.7093, 7530.583
368.1914, 7527.711
368.6735, 7523.842
369.1556, 7522.839
369.6377, 7528.132
370.1198, 7532.069
370.6020, 7534.603
371.0841, 7535.510
371.5662, 7533.962
372.0483, 7528.307
372.5304, 7522.093
373.0125, 7517.093
373.4947, 7514.877
373.9768, 7509.147
374.4589, 7498.773
374.9410, 7485.719
375.4231, 7472.906
375.9052, 7459.787
376.3874, 7448.608
376.8695, 7440.708
377.3516, 7436.033
377.8337, 7431.146
378.3158, 7426.031
378.7979, 7421.073
379.2801, 7417.910
379.7622, 7416.853
380.2443, 7410.942
380.7264, 7396.544
381.2085, 7378.253
381.6906, 7368.353
382.1728, 7366.873
382.6549, 7368.886
383.1370, 7373.221
383.6191, 7378.583
384.1012, 7379.869
384.5833, 7376.144
385.0655, 7369.042
385.5476, 7358.527
386.0297, 7345.775
386.5118, 7335.906
386.9939, 7333.389
387.4760, 7334.337
387.9582, 7333.512
388.4403, 7330.841
388.9224, 7326.883
389.4045, 7321.206
389.8866, 7314.948
390.3687, 7309.689
390.8509, 7306.806
391.3330, 7304.479
391.8151, 7302.151
392.2972, 7299.577
392.7793, 7295.537
393.2614, 7285.465
393.7436, 7276.243
394.2257, 7273.321
394.7078, 7280.427
395.1899, 7286.956
395.6720, 7289.377
396.1541, 7288.703
396.6363, 7286.595
397.1184, 7278.806
397.6005, 7273.879
398.0826, 7276.029
398.5647, 7286.489
399.0468, 7294.821
399.5290, 7301.908
400.0111, 7305.403
400.4932, 7303.190
400.9753, 7285.102
401.4574, 7275.266
401.9395, 7279.875
402.4217, 7295.297
402.9038, 7303.806
403.3859, 7300.942
403.8680, 7297.786
404.3501, 7300.590
404.8322, 7312.592
405.3144, 7318.583
405.7965, 7316.263
406.2786, 7310.577
406.7607, 7309.865
407.2428, 7315.116
407.7249, 7319.803
408.2071, 7321.521
408.6892, 7320.741
409.1713, 7319.908
409.6534, 7318.719
410.1355, 7319.056
410.6176, 7323.867
411.0998, 7332.219
411.5819, 7338.666
412.0640, 7341.951
412.5461, 7343.134
413.0282, 7343.049
413.5103, 7342.021
413.9925, 7342.009
414.4746, 7345.380
414.9567, 7350.074
415.4388, 7352.826
415.9209, 7353.308
416.4030, 7352.750
416.8852, 7351.388
417.3673, 7349.863
417.8494, 7349.198
418.3315, 7352.021
418.8136, 7354.125
419.2957, 7352.005
419.7779, 7346.396
420.2600, 7341.604
420.7421, 7338.933
421.2242, 7338.428
421.7063, 7340.419
422.1884, 7346.359
422.6706, 7352.324
423.1527, 7357.854
423.6348, 7362.783
424.1169, 7366.792
424.5990, 7369.226
425.0811, 7371.266
425.5633, 7372.458
426.0454, 7372.166
426.5275, 7374.955
427.0096, 7383.318
427.4917, 7392.575
427.9738, 7398.596
428.4560, 7398.798
428.9381, 7400.975
429.4202, 7406.845
429.9023, 7414.962
430.3844, 7420.663
430.8665, 7423.362
431.3487, 7425.198
431.8308, 7427.942
432.3129, 7431.855
432.7950, 7431.231
433.2771, 7424.751
433.7592, 7417.332
434.2414, 7416.611
434.7235, 7421.940
435.2056, 7424.676
435.6877, 7420.913
436.1698, 7413.814
436.6519, 7409.676
437.1341, 7408.490
437.6162, 7408.927
438.0983, 7411.988
438.5804, 7415.591
439.0625, 7415.226
439.5446, 7408.860
440.0268, 7402.941
440.5089, 7404.271
440.9910, 7410.247
441.4731, 7415.519
441.9552, 7417.195
442.4373, 7417.718
442.9195, 7418.373
443.4016, 7419.163
443.8837, 7420.113
444.3658, 7419.806
444.8479, 7420.287
445.3300, 7423.279
445.8122, 7433.517
446.2943, 7440.339
446.7764, 7439.274
447.2585, 7433.378
447.7406, 7430.540
448.2227, 7433.092
448.7049, 7437.026
449.1870, 7441.702
449.6691, 7447.450
450.1512, 7452.151
450.6333, 7456.062
451.1154, 7458.804
451.5976, 7459.715
452.0797, 7458.172
452.5618, 7457.378
453.0439, 7458.041
453.5260, 7459.840
454.0081, 7461.548
454.4903, 7463.091
454.9724, 7465.375
455.4545, 7468.882
455.9366, 7473.525
456.4187, 7479.033
456.9008, 7485.263
457.3830, 7492.460
457.8651, 7500.821
458.3472, 7510.198
458.8293, 7520.075
459.3114, 7531.291
459.7935, 7541.752
460.2757, 7548.514
460.7578, 7551.974
461.2399, 7554.696
461.7220, 7557.257
462.2041, 7560.369
462.6862, 7564.958
463.1684, 7571.498
463.6505, 7578.191
464.1326, 7585.470
464.6147, 7592.032
465.0968, 7596.268
465.5789, 7597.389
466.0611, 7596.561
466.5432, 7593.609
467.0253, 7588.806
467.5074, 7584.125
467.9895, 7582.133
468.4716, 7578.517
468.9538, 7570.561
469.4359, 7553.543
469.9180, 7542.875
470.4001, 7540.957
470.8822, 7543.483
471.3643, 7544.360
471.8465, 7543.564
472.3286, 7540.648
472.8107, 7534.331
473.2928, 7525.646
473.7749, 7520.398
474.2570, 7518.828
474.7392, 7519.361
475.2213, 7521.549
475.7034, 7525.116
476.1855, 7528.215
476.6676, 7530.683
477.1497, 7532.801
477.6319, 7535.121
478.1140, 7537.491
478.5961, 7539.222
479.0782, 7538.308
479.5603, 7537.720
480.0424, 7541.593
480.5246, 7549.479
481.0067, 7557.594
481.4888, 7562.221
481.9709, 7566.673
482.4530, 7573.979
482.9352, 7585.355
483.4173, 7597.832
483.8994, 7611.492
484.3815, 7625.185
484.8636, 7637.045
485.3457, 7644.656
485.8279, 7652.335
486.3100, 7660.920
486.7921, 7670.550
487.2742, 7681.421
487.7563, 7693.579
488.2384, 7707.313
488.7206, 7723.135
489.2027, 7742.580
489.6848, 7759.862
490.1669, 7773.732
490.6490, 7786.891
491.1311, 7804.079
491.6133, 7825.551
492.0954, 7848.401
492.5775, 7872.341
493.0596, 7896.747
493.5417, 7919.260
494.0238, 7939.658
494.5060, 7960.369
494.9881, 7982.377
495.4702, 8005.800
495.9523, 8031.845
496.4344, 8060.548
496.9165, 8091.179
497.3987, 8125.650
497.8808, 8161.390
498.3629, 8192.900
498.8450, 8216.258
499.3271, 8236.216
499.8092, 8254.944
500.2914, 8272.799
500.7735, 8289.688
501.2556, 8306.696
501.7377, 8322.558
502.2198, 8336.940
502.7019, 8351.049
503.1841, 8361.186
503.6662, 8366.479
504.1483, 8367.854
504.6304, 8366.012
505.1125, 8357.693
505.5946, 8351.690
506.0768, 8350.938
506.5589, 8353.623
507.0410, 8349.999
507.5231, 8337.843
508.0052, 8325.396
508.4873, 8316.310
508.9695, 8310.654
509.4516, 8308.552
509.9337, 8310.828
510.4158, 8312.819
510.8979, 8307.871
511.3800, 8297.498
511.8622, 8289.022
512.3443, 8285.200
512.8264, 8282.928
513.3085, 8278.193
513.7906, 8271.454
514.2728, 8264.279
514.7549, 8259.182
515.2370, 8253.098
515.7191, 8242.931
516.2012, 8228.310
516.6833, 8213.106
517.1655, 8199.003
517.6476, 8185.175
518.1297, 8170.919
518.6118, 8155.589
519.0939, 8140.546
519.5760, 8127.702
520.0582, 8115.242
520.5403, 8098.276
521.0224, 8072.015
521.5045, 8048.185
521.9866, 8030.710
522.4688, 8019.458
522.9509, 8006.149
523.4330, 7990.143
523.9151, 7973.119
524.3972, 7955.384
524.8793, 7936.885
525.3615, 7921.694
525.8436, 7910.494
526.3257, 7901.226
526.8078, 7892.221
527.2899, 7882.959
527.7720, 7871.123
528.2542, 7854.859
528.7363, 7836.391
529.2184, 7817.690
529.7005, 7799.095
530.1826, 7781.552
530.6647, 7765.204
531.1469, 7750.595
531.6290, 7737.799
532.1111, 7726.808
532.5932, 7718.665
533.0753, 7716.915
533.5574, 7717.005
534.0396, 7714.232
534.5217, 7704.960
535.0038, 7696.257
535.4859, 7689.218
535.9680, 7683.505
536.4501, 7677.925
536.9323, 7672.604
537.4144, 7667.121
537.8965, 7660.163
538.3786, 7651.513
538.8607, 7650.752
539.3428, 7660.161
539.8250, 7670.153
540.3071, 7670.658
540.7892, 7662.677
541.2713, 7655.915
541.7534, 7651.586
542.2355, 7649.502
542.7177, 7650.441
543.1998, 7653.602
543.6819, 7656.434
544.1640, 7658.307
544.6461, 7658.941
545.1282, 7656.339
545.6104, 7651.433
546.0925, 7649.716
546.5746, 7658.938
547.0567, 7668.934
547.5388, 7672.292
548.0209, 7665.751
548.5031, 7660.145
548.9852, 7657.214
549.4673, 7656.480
549.9494, 7657.511
550.4315, 7662.022
550.9136, 7665.528
551.3958, 7668.087
551.8779, 7669.109
552.3600, 7665.984
552.8421, 7656.956
553.3242, 7649.807
553.8063, 7649.255
554.2885, 7654.006
554.7706, 7653.319
555.2527, 7646.864
555.7348, 7638.693
556.2169, 7630.846
556.6990, 7624.155
557.1812, 7621.186
557.6633, 7623.205
558.1454, 7625.891
558.6275, 7625.297
559.1096, 7622.485
559.5917, 7619.256
560.0739, 7616.132
560.5560, 7613.063
561.0381, 7609.804
561.5202, 7606.519
562.0023, 7603.789
562.4844, 7601.022
562.9666, 7599.361
563.4487, 7600.126
563.9308, 7604.438
564.4129, 7605.131
564.8950, 7600.612
565.3771, 7594.075
565.8593, 7587.415
566.3414, 7579.747
566.8235, 7576.025
567.3056, 7578.049
567.7877, 7582.096
568.2698, 7580.706
568.7520, 7574.257
569.2341, 7568.813
569.7162, 7567.149
570.1983, 7567.733
570.6804, 7568.469
571.1625, 7569.262
571.6447, 7568.918
572.1268, 7564.397
572.6089, 7559.811
573.0910, 7559.975
573.5731, 7566.123
574.0552, 7571.821
574.5374, 7573.565
575.0195, 7573.778
575.5016, 7574.703
575.9837, 7576.237
576.4658, 7578.900
576.9479, 7583.259
577.4301, 7588.383
577.9122, 7592.451
578.3943, 7594.481
578.8764, 7597.005
579.3585, 7601.006
579.8406, 7605.998
580.3228, 7609.181
580.8049, 7610.500
581.2870, 7610.253
581.7691, 7607.109
582.2512, 7602.435
582.7333, 7602.875
583.2155, 7609.532
583.6975, 7615.438
584.1796, 7612.507
584.6617, 7604.982
585.1439, 7599.787
585.6260, 7599.331
586.1081, 7600.974
586.5902, 7606.603
587.0723, 7612.875
587.5544, 7613.256
588.0366, 7596.360
588.5187, 7582.810
589.0008, 7581.146
589.4829, 7590.689
589.9650, 7596.287
590.4471, 7595.562
590.9293, 7593.521
591.4114, 7592.158
591.8935, 7591.308
592.3756, 7591.886
592.8577, 7594.503
593.3398, 7596.749
593.8220, 7595.426
594.3041, 7591.116
594.7862, 7588.243
595.2683, 7587.897
595.7504, 7588.772
596.2325, 7590.120
596.7147, 7591.472
597.1968, 7591.445
597.6789, 7586.464
598.1610, 7582.542
598.6431, 7586.311
599.1252, 7595.783
599.6074, 7601.592
600.0895, 7596.701
600.5716, 7590.537
601.0537, 7587.765
601.5358, 7589.603
602.0179, 7590.620
602.5001, 7589.736
602.9822, 7589.019
603.4643, 7590.085
603.9464, 7593.381
604.4285, 7596.825
604.9106, 7600.373
605.3928, 7603.960
605.8749, 7606.594
606.3570, 7608.568
606.8391, 7613.932
607.3212, 7625.530
607.8033, 7638.991
608.2855, 7646.883
608.7676, 7650.589
609.2497, 7655.650
609.7318, 7666.223
610.2139, 7678.356
610.6960, 7689.311
611.1782, 7698.887
611.6603, 7707.058
612.1424, 7714.481
612.6245, 7720.125
613.1066, 7723.355
613.5887, 7723.904
614.0709, 7722.788
614.5530, 7719.595
615.0351, 7715.309
615.5172, 7710.593
615.9993, 7705.083
616.4814, 7701.253
616.9636, 7700.261
617.4457, 7699.935
617.9278, 7696.131
618.4099, 7688.937
618.8920, 7679.762
619.3741, 7666.838
619.8563, 7653.704
620.3384, 7646.509
620.8205, 7644.289
621.3026, 7642.506
621.7847, 7638.276
622.2668, 7633.597
622.7490, 7630.174
623.2311, 7628.276
623.7132, 7626.275
624.1953, 7623.235
624.6774, 7620.509
625.1595, 7619.383
625.6417, 7623.299
626.1238, 7621.928
626.6059, 7611.974
627.0880, 7600.670
627.5701, 7598.983
628.0522, 7608.237
628.5344, 7614.730
629.0165, 7615.055
629.4986, 7611.878
629.9807, 7608.763
630.4628, 7606.145
630.9449, 7606.594
631.4271, 7613.667
631.9092, 7622.767
632.3913, 7629.338
632.8734, 7633.402
633.3555, 7635.756
633.8376, 7635.911
634.3198, 7635.025
634.8019, 7633.193
635.2840, 7629.788
635.7661, 7628.752
636.2482, 7634.160
636.7303, 7639.043
637.2125, 7638.042
637.6946, 7627.900
638.1767, 7622.256
638.6588, 7623.647
639.1409, 7626.336
639.6230, 7620.297
640.1052, 7606.360
640.5873, 7597.357
641.0694, 7598.443
641.5515, 7602.950
642.0336, 7600.626
642.5157, 7593.354
642.9979, 7586.542
643.4800, 7583.084
643.9621, 7580.833
644.4442, 7578.019
644.9263, 7574.913
645.4084, 7573.460
645.8906, 7576.854
646.3727, 7579.844
646.8548, 7579.707
647.3369, 7576.047
647.8190, 7572.525
648.3011, 7568.849
648.7833, 7565.832
649.2654, 7564.452
649.7475, 7564.883
650.2296, 7564.205
650.7117, 7561.905
651.1938, 7559.806
651.6760, 7559.881
652.1581, 7561.983
652.6402, 7566.007
653.1223, 7572.841
653.6044, 7579.505
654.0865, 7583.885
654.5687, 7586.143
655.0508, 7586.686
655.5329, 7583.959
656.0150, 7581.282
656.4971, 7579.131
656.9792, 7577.849
657.4614, 7579.065
657.9435, 7584.263
658.4256, 7589.898
658.9077, 7595.358
659.3898, 7600.539
659.8719, 7602.858
660.3541, 7601.986
660.8362, 7599.745
661.3183, 7596.425
661.8004, 7592.692
662.2825, 7591.408
662.7646, 7592.868
663.2468, 7594.625
663.7289, 7594.521
664.2110, 7593.484
664.6931, 7592.750
665.1752, 7592.804
665.6573, 7592.821
666.1395, 7591.464
666.6216, 7590.343
667.1037, 7591.408
667.5858, 7597.852
668.0679, 7602.813
668.5500, 7604.986
669.0322, 7605.701
669.5143, 7608.197
669.9964, 7613.157
670.4785, 7616.351
670.9606, 7615.959
671.4427, 7613.208
671.9249, 7610.498
672.4070, 7608.050
672.8891, 7608.126
673.3712, 7614.854
673.8533, 7623.154
674.3354, 7626.273
674.8176, 7624.609
675.2997, 7623.825
675.7818, 7627.068
676.2639, 7631.901
676.7460, 7637.492
677.2281, 7644.560
677.7103, 7648.536
678.1924, 7646.650
678.6745, 7644.340
679.1566, 7645.522
679.6387, 7650.652
680.1208, 7657.537
680.6030, 7666.750
681.0851, 7675.967
681.5672, 7682.735
682.0493, 7687.141
682.5314, 7689.794
683.0135, 7690.347
683.4957, 7690.119
683.9778, 7689.693
684.4599, 7689.554
684.9420, 7690.638
685.4241, 7694.670
685.9063, 7698.564
686.3884, 7700.677
686.8705, 7701.737
687.3526, 7704.322
687.8347, 7709.958
688.3168, 7715.335
688.7990, 7719.567
689.2811, 7722.903
689.7632, 7725.963
690.2453, 7728.589
690.7274, 7732.303
691.2095, 7739.284
691.6917, 7747.877
692.1738, 7752.920
692.6559, 7754.354
693.1380, 7754.797
693.6201, 7754.353
694.1022, 7754.741
694.5844, 7757.881
695.0665, 7764.211
695.5486, 7771.175
696.0307, 7778.772
696.5128, 7785.942
696.9949, 7791.953
697.4771, 7796.766
697.9592, 7800.624
698.4413, 7803.812
698.9234, 7805.831
699.4055, 7805.589
699.8876, 7803.144
700.3698, 7801.702
700.8519, 7802.138
701.3340, 7803.435
701.8161, 7804.500
702.2982, 7805.382
702.7803, 7805.945
703.2625, 7805.155
703.7446, 7805.369
704.2267, 7809.728
704.7088, 7816.144
705.1909, 7819.991
705.6730, 7814.977
706.1552, 7812.807
706.6373, 7818.209
707.1194, 7828.769
707.6015, 7833.142
708.0836, 7829.157
708.5657, 7824.943
709.0479, 7824.086
709.5300, 7825.465
710.0121, 7824.329
710.4942, 7820.689
710.9763, 7816.724
711.4584, 7814.451
711.9406, 7812.338
712.4227, 7808.700
712.9048, 7803.460
713.3869, 7796.777
713.8690, 7788.290
714.3511, 7778.911
714.8333, 7768.552
715.3154, 7755.900
715.7975, 7748.159
716.2796, 7749.504
716.7617, 7750.963
717.2438, 7744.520
717.7260, 7729.352
718.2081, 7716.789
718.6902, 7707.595
719.1723, 7701.341
719.6544, 7699.141
720.1365, 7699.494
720.6187, 7698.393
721.1008, 7694.371
721.5829, 7690.237
722.0650, 7687.198
722.5471, 7685.475
723.0292, 7685.335
723.5114, 7686.812
723.9935, 7689.750
724.4756, 7695.188
724.9577, 7701.510
725.4398, 7706.292
725.9219, 7709.415
726.4041, 7710.696
726.8862, 7709.301
727.3683, 7706.780
727.8504, 7707.625
728.3325, 7711.251
728.8146, 7713.710
729.2968, 7712.839
729.7789, 7710.198
730.2610, 7707.073
730.7431, 7703.589
731.2252, 7700.185
731.7073, 7696.626
732.1895, 7693.611
732.6716, 7691.360
733.1537, 7689.964
733.6358, 7689.771
734.1179, 7692.131
734.6000, 7693.563
735.0822, 7692.698
735.5643, 7689.712
736.0464, 7685.219
736.5285, 7679.160
737.0106, 7673.725
737.4927, 7670.072
737.9749, 7668.275
738.4570, 7669.642
738.9391, 7674.062
739.4212, 7676.702
739.9033, 7674.229
740.3854, 7669.182
740.8676, 7662.290
741.3497, 7651.930
741.8318, 7646.895
742.3139, 7651.250
742.7960, 7656.708
743.2781, 7657.034
743.7603, 7651.029
744.2424, 7648.789
744.7245, 7651.104
745.2066, 7655.243
745.6887, 7659.336
746.1708, 7663.073
746.6530, 7665.389
747.1351, 7666.035
747.6172, 7665.965
748.0993, 7664.845
748.5814, 7663.932
749.0635, 7664.672
749.5457, 7668.490
750.0278, 7672.151
750.5099, 7674.056
750.9920, 7676.140
751.4741, 7681.261
751.9562, 7690.632
752.4384, 7696.593
752.9205, 7697.094
753.4026, 7695.382
753.8847, 7696.589
754.3668, 7700.016
754.8489, 7703.326
755.3311, 7706.306
755.8132, 7707.876
756.2953, 7705.088
756.7774, 7700.586
757.2595, 7699.079
757.7416, 7708.259
758.2238, 7713.413
758.7059, 7707.977
759.1880, 7697.352
759.6701, 7693.232
760.1522, 7698.420
760.6343, 7701.216
761.1165, 7697.759
761.5986, 7691.222
762.0807, 7689.294
762.5628, 7691.435
763.0449, 7694.328
763.5270, 7697.736
764.0092, 7700.015
764.4913, 7698.504
764.9734, 7694.392
765.4555, 7691.431
765.9376, 7691.572
766.4197, 7692.356
766.9019, 7692.667
767.3840, 7692.747
767.8661, 7694.453
768.3482, 7698.697
768.8303, 7701.643
769.3124, 7701.341
769.7946, 7698.666
770.2767, 7696.377
770.7588, 7694.492
771.2409, 7693.234
771.7230, 7692.643
772.2051, 7692.867
772.6873, 7694.167
773.1694, 7696.522
773.6515, 7699.498
774.1336, 7706.717
774.6157, 7710.884
775.0978, 7706.424
775.5800, 7693.958
776.0621, 7690.569
776.5442, 7699.250
777.0263, 7708.640
777.5084, 7711.952
777.9905, 7710.682
778.4727, 7712.406
778.9548, 7716.868
779.4369, 7720.199
779.9190, 7717.885
780.4011, 7714.111
780.8832, 7712.898
781.3654, 7714.482
781.8475, 7716.758
782.3296, 7722.360
782.8117, 7725.310
783.2938, 7721.403
783.7759, 7709.550
784.2581, 7704.192
784.7402, 7706.552
785.2223, 7712.102
785.7044, 7721.388
786.1865, 7731.739
786.6686, 7730.562
787.1508, 7717.704
787.6329, 7703.945
788.1150, 7694.749
788.5971, 7690.011
789.0792, 7690.398
789.5613, 7696.241
790.0435, 7703.525
790.5256, 7713.880
791.0077, 7722.877
791.4898, 7727.433
791.9719, 7726.257
792.4540, 7729.145
792.9362, 7736.911
793.4183, 7744.589
793.9004, 7748.898
794.3825, 7749.670
794.8646, 7744.835
795.3467, 7734.146
795.8289, 7724.767
796.3110, 7723.709
796.7931, 7725.251
797.2752, 7724.874
797.7573, 7721.796
798.2394, 7718.140
798.7216, 7713.719
799.2037, 7709.579
799.6858, 7706.398
800.1679, 7704.260
800.6500, 7702.876
801.1321, 7702.146
801.6143, 7702.890
802.0964, 7707.743
802.5785, 7714.030
803.0606, 7715.747
803.5427, 7711.858
804.0248, 7708.731
804.5070, 7710.021
804.9891, 7713.485
805.4712, 7717.536
805.9533, 7722.132
806.4354, 7726.768
806.9175, 7731.559
807.3997, 7736.058
807.8818, 7740.331
808.3639, 7744.278
808.8460, 7745.591
809.3281, 7744.068
809.8102, 7741.411
810.2924, 7738.406
810.7745, 7735.602
811.2566, 7734.014
811.7387, 7733.999
812.2208, 7733.609
812.7029, 7729.189
813.1851, 7726.454
813.6672, 7730.748
814.1493, 7745.432
814.6314, 7751.911
815.1135, 7747.836
815.5956, 7741.266
816.0778, 7738.017
816.5599, 7737.665
817.0420, 7738.524
817.5241, 7740.442
818.0062, 7743.613
818.4883, 7749.429
818.9705, 7755.666
819.4526, 7760.229
819.9347, 7762.729
820.4168, 7763.834
820.8989, 7763.135
821.3810, 7761.442
821.8632, 7758.643
822.3453, 7754.414
822.8274, 7753.843
823.3095, 7757.876
823.7916, 7760.683
824.2737, 7756.894
824.7559, 7748.942
825.2380, 7740.211
825.7201, 7731.228
826.2022, 7725.790
826.6843, 7729.969
827.1664, 7735.687
827.6486, 7736.975
828.1307, 7732.376
828.6128, 7730.106
829.0949, 7729.987
829.5770, 7732.412
830.0591, 7738.956
830.5413, 7748.873
831.0234, 7754.670
831.5055, 7756.310
831.9876, 7755.083
832.4697, 7750.455
832.9518, 7744.349
833.4340, 7736.778
833.9161, 7728.376
834.3982, 7726.111
834.8803, 7742.426
835.3624, 7755.413
835.8445, 7753.576
836.3267, 7737.843
836.8088, 7730.209
837.2909, 7732.252
837.7730, 7735.563
838.2551, 7735.210
838.7372, 7732.896
839.2194, 7731.672
839.7015, 7731.963
840.1836, 7736.104
840.6657, 7751.930
841.1478, 7766.194
841.6299, 7769.633
842.1121, 7762.931
842.5942, 7755.580
843.0763, 7745.932
843.5584, 7739.583
844.0405, 7738.897
844.5226, 7742.564
845.0048, 7746.169
845.4869, 7749.610
845.9690, 7752.072
846.4511, 7753.185
846.9332, 7753.052
847.4153, 7750.172
847.8975, 7746.093
848.3796, 7745.108
848.8617, 7752.908
849.3438, 7759.403
849.8259, 7761.368
850.3080, 7760.316
850.7902, 7759.709
851.2723, 7759.554
851.7544, 7760.224
852.2365, 7762.030
852.7186, 7764.440
853.2007, 7766.849
853.6829, 7769.052
854.1650, 7770.516
854.6471, 7770.451
855.1292, 7770.208
855.6113, 7768.661
856.0934, 7767.676
856.5756, 7771.138
857.0577, 7783.080
857.5398, 7790.810
858.0219, 7791.846
858.5040, 7789.912
858.9861, 7791.198
859.4683, 7794.994
859.9504, 7797.256
860.4325, 7796.471
860.9146, 7795.646
861.3967, 7798.785
861.8788, 7802.927
862.3610, 7804.374
862.8431, 7800.800
863.3252, 7796.973
863.8073, 7792.402
864.2894, 7788.839
864.7715, 7788.360
865.2537, 7791.198
865.7358, 7795.402
866.2179, 7801.563
866.7000, 7805.310
867.1821, 7799.266
867.6642, 7789.419
868.1464, 7784.739
868.6285, 7787.163
869.1106, 7790.883
869.5927, 7793.953
870.0748, 7797.353
870.5569, 7801.408
871.0391, 7805.803
871.5212, 7812.595
872.0033, 7822.645
872.4854, 7830.355
872.9675, 7829.764
873.4496, 7823.733
873.9318, 7818.610
874.4139, 7814.539
874.8960, 7811.721
875.3781, 7810.244
875.8602, 7810.034
876.3423, 7811.854
876.8245, 7815.733
877.3066, 7818.240
877.7887, 7820.023
878.2708, 7819.711
878.7529, 7816.348
879.2350, 7811.165
879.7172, 7807.840
880.1993, 7806.326
880.6814, 7804.864
881.1635, 7801.639
881.6456, 7799.002
882.1277, 7797.978
882.6099, 7798.814
883.0920, 7802.368
883.5741, 7811.992
884.0562, 7819.116
884.5383, 7820.913
885.0204, 7820.287
885.5026, 7824.747
885.9847, 7833.661
886.4668, 7839.633
886.9489, 7839.517
887.4310, 7837.728
887.9131, 7838.396
888.3953, 7840.919
888.8774, 7844.610
889.3595, 7853.848
889.8416, 7857.272
890.3237, 7848.318
890.8058, 7837.560
891.2880, 7837.921
891.7701, 7850.937
892.2522, 7854.899
892.7343, 7847.072
893.2164, 7836.063
893.6985, 7828.149
894.1807, 7823.894
894.6628, 7825.683
895.1449, 7835.113
895.6270, 7840.950
896.1091, 7835.058
896.5912, 7827.910
897.0734, 7826.045
897.5555, 7830.062
898.0376, 7833.167
898.5197, 7835.551
899.0018, 7836.489
899.4839, 7833.229
899.9661, 7829.210
900.4482, 7832.691
900.9303, 7842.429
901.4124, 7849.398
901.8945, 7845.699
902.3766, 7841.610
902.8588, 7842.332
903.3409, 7846.830
903.8230, 7850.239
904.3051, 7851.907
904.7872, 7854.701
905.2693, 7860.121
905.7515, 7866.323
906.2336, 7869.338
906.7157, 7869.998
907.1978, 7870.843
907.6799, 7872.164
908.1620, 7874.817
908.6442, 7881.088
909.1263, 7888.412
909.6084, 7892.502
910.0905, 7892.163
910.5726, 7891.864
911.0547, 7891.866
911.5369, 7892.648
912.0190, 7895.774
912.5011, 7900.180
912.9832, 7902.485
913.4653, 7901.866
913.9474, 7900.909
914.4296, 7899.662
914.9117, 7899.787
915.3938, 7903.533
915.8759, 7912.620
916.3580, 7917.027
916.8401, 7914.995
917.3223, 7912.301
917.8044, 7913.199
918.2865, 7916.671
918.7686, 7919.253
919.2507, 7920.968
919.7328, 7922.069
920.2150, 7925.273
920.6971, 7925.775
921.1792, 7916.584
921.6613, 7900.280
922.1434, 7896.416
922.6255, 7912.573
923.1077, 7924.007
923.5898, 7921.892
924.0719, 7912.567
924.5540, 7910.647
925.0361, 7914.589
925.5182, 7918.389
926.0004, 7919.897
926.4825, 7920.137
926.9646, 7917.204
927.4467, 7914.111
927.9288, 7915.901
928.4109, 7926.354
928.8931, 7934.264
929.3752, 7939.424
929.8573, 7941.185
930.3394, 7937.021
930.8215, 7928.841
931.3036, 7923.536
931.7858, 7922.149
932.2679, 7921.367
932.7500, 7918.341
933.2321, 7915.634
933.7142, 7916.048
934.1964, 7920.674
934.6785, 7921.158
935.1606, 7915.025
935.6427, 7911.189
936.1248, 7915.580
936.6069, 7925.529
937.0891, 7931.329
937.5712, 7933.889
938.0533, 7937.544
938.5354, 7947.923
939.0175, 7956.611
939.4996, 7957.167
939.9818, 7952.047
940.4639, 7948.497
940.9460, 7946.049
941.4281, 7946.766
941.9102, 7951.638
942.3923, 7958.378
942.8745, 7965.245
943.3566, 7970.972
943.8387, 7970.682
944.3208, 7961.303
944.8029, 7953.169
945.2850, 7953.564
945.7672, 7957.149
946.2493, 7959.032
946.7314, 7958.737
947.2135, 7958.624
947.6956, 7959.272
948.1777, 7958.455
948.6599, 7953.069
949.1420, 7945.319
949.6241, 7940.462
950.1062, 7938.420
950.5883, 7937.463
951.0704, 7934.498
951.5526, 7934.375
952.0347, 7941.919
952.5168, 7954.544
952.9989, 7962.880
953.4810, 7966.440
953.9631, 7967.728
954.4453, 7967.010
954.9274, 7965.182
955.4095, 7962.337
955.8916, 7959.767
956.3737, 7960.530
956.8558, 7968.438
957.3380, 7974.568
957.8201, 7974.988
958.3022, 7972.986
958.7843, 7970.690
959.2664, 7967.084
959.7485, 7970.897
960.2307, 7983.427
960.7128, 7995.567
961.1949, 7996.131
961.6770, 7992.842
962.1591, 7997.708
962.6412, 8011.020
963.1234, 8022.788
963.6055, 8027.552
964.0876, 8032.284
964.5697, 8039.845
965.0518, 8049.171
965.5339, 8057.016
966.0161, 8063.305
966.4982, 8064.106
966.9803, 8053.417
967.4624, 8043.828
967.9445, 8054.341
968.4266, 8074.582
968.9088, 8087.223
969.3909, 8082.844
969.8730, 8077.029
970.3551, 8069.134
970.8372, 8062.644
971.3193, 8062.383
971.8015, 8067.568
972.2836, 8069.336
972.7657, 8066.997
973.2478, 8065.068
973.7299, 8066.990
974.2120, 8070.994
974.6942, 8076.731
975.1763, 8084.089
975.6584, 8087.671
976.1405, 8084.850
976.6226, 8083.527
977.1047, 8086.787
977.5869, 8093.189
978.0690, 8098.870
978.5511, 8104.110
979.0332, 8110.459
979.5153, 8120.177
979.9974, 8128.679
980.4796, 8132.248
980.9617, 8133.621
981.4438, 8136.684
981.9259, 8141.997
982.4080, 8148.080
982.8901, 8155.290
983.3723, 8162.095
983.8544, 8165.389
984.3365, 8167.854
984.8186, 8175.210
985.3007, 8187.896
985.7828, 8200.559
986.2650, 8211.601
986.7471, 8221.389
987.2292, 8228.956
987.7113, 8235.341
988.1934, 8246.336
988.6755, 8261.975
989.1577, 8279.833
989.6398, 8299.534
990.1219, 8319.503
990.6040, 8337.467
991.0861, 8354.298
991.5682, 8371.511
992.0504, 8388.470
992.5325, 8407.438
993.0146, 8428.786
993.4967, 8451.779
993.9788, 8477.348
994.4609, 8504.960
994.9431, 8528.601
995.4252, 8548.134
995.9073, 8568.971
996.3894, 8597.956
996.8715, 8627.741
997.3536, 8653.341
997.8358, 8674.399
998.3179, 8693.916
998.8000, 8709.941
999.2821, 8730.393
999.7642, 8759.183
1000.246, 8791.902
1000.728, 8823.257
1001.211, 8850.614
1001.693, 8865.155
1002.175, 8860.130
1002.657, 8851.470
1003.139, 8845.419
1003.621, 8839.156
1004.103, 8830.768
1004.585, 8820.729
1005.068, 8805.015
1005.550, 8783.029
1006.032, 8759.174
1006.514, 8739.354
1006.996, 8717.470
1007.478, 8681.563
1007.960, 8634.410
1008.442, 8593.989
1008.924, 8569.366
1009.407, 8545.931
1009.889, 8520.757
1010.371, 8494.816
1010.853, 8469.135
1011.335, 8443.926
1011.817, 8422.120
1012.299, 8403.968
1012.781, 8391.104
1013.263, 8388.892
1013.746, 8390.115
1014.228, 8387.006
1014.710, 8377.389
1015.192, 8373.848
1015.674, 8377.374
1016.156, 8384.294
1016.638, 8392.280
1017.120, 8402.104
1017.603, 8414.708
1018.085, 8430.451
1018.567, 8450.465
1019.049, 8478.190
1019.531, 8506.219
1020.013, 8530.585
1020.495, 8554.889
1020.977, 8586.484
1021.459, 8625.547
1021.942, 8655.771
1022.424, 8674.013
1022.906, 8692.228
1023.388, 8724.345
1023.870, 8760.669
1024.352, 8791.146
1024.834, 8814.349
1025.316, 8839.453
1025.799, 8867.394
1026.281, 8897.533
1026.763, 8931.829
1027.245, 8966.590
1027.727, 8994.288
1028.209, 9015.463
1028.691, 9031.576
1029.173, 9042.578
1029.656, 9049.625
1030.138, 9056.400
1030.620, 9056.781
1031.102, 9043.794
1031.584, 9014.723
1032.066, 8986.433
1032.548, 8959.306
1033.030, 8930.116
1033.512, 8896.659
1033.995, 8859.487
1034.477, 8818.699
1034.959, 8774.975
1035.441, 8731.153
1035.923, 8683.228
1036.405, 8642.713
1036.887, 8614.265
1037.369, 8591.198
1037.851, 8559.010
1038.334, 8520.471
1038.816, 8483.172
1039.298, 8448.118
1039.780, 8417.896
1040.262, 8394.438
1040.744, 8376.040
1041.226, 8362.666
1041.708, 8354.566
1042.191, 8340.377
1042.673, 8318.829
1043.155, 8300.960
1043.637, 8294.774
1044.119, 8293.685
1044.601, 8289.326
1045.083, 8282.711
1045.565, 8276.333
1046.047, 8272.267
1046.530, 8265.926
1047.012, 8254.837
1047.494, 8244.540
1047.976, 8242.762
1048.458, 8247.454
1048.940, 8248.537
1049.422, 8245.312
1049.904, 8242.224
1050.386, 8243.753
1050.869, 8244.621
1051.351, 8239.307
1051.833, 8230.269
1052.315, 8228.605
1052.797, 8235.382
1053.279, 8241.184
1053.761, 8243.661
1054.243, 8243.770
1054.726, 8240.719
1055.208, 8236.974
1055.690, 8236.010
1056.172, 8238.998
1056.654, 8244.076
1057.136, 8254.301
1057.618, 8260.563
1058.100, 8254.867
1058.583, 8241.299
1059.065, 8236.592
1059.547, 8239.066
1060.029, 8240.894
1060.511, 8233.984
1060.993, 8230.291
1061.475, 8240.011
1061.957, 8253.256
1062.439, 8255.154
1062.922, 8243.799
1063.404, 8239.742
1063.886, 8245.415
1064.368, 8250.910
1064.850, 8245.192
1065.332, 8236.521
1065.814, 8233.905
1066.296, 8237.343
1066.778, 8238.174
1067.261, 8235.612
1067.743, 8229.438
1068.225, 8216.533
1068.707, 8204.975
1069.189, 8214.799
1069.671, 8237.123
1070.153, 8250.881
1070.635, 8249.196
1071.118, 8244.812
1071.600, 8241.271
1072.082, 8238.051
1072.564, 8235.120
1073.046, 8232.517
1073.528, 8228.615
1074.010, 8223.765
1074.492, 8220.995
1074.974, 8223.447
1075.457, 8227.084
1075.939, 8228.318
1076.421, 8228.954
1076.903, 8232.349
1077.385, 8240.166
1077.867, 8245.169
1078.349, 8246.188
1078.831, 8247.572
1079.313, 8254.470
1079.796, 8263.527
1080.278, 8268.841
1080.760, 8270.894
1081.242, 8275.206
1081.724, 8284.788
1082.206, 8295.171
1082.688, 8305.345
1083.170, 8315.894
1083.652, 8327.586
1084.135, 8340.618
1084.617, 8355.757
1085.099, 8373.631
1085.581, 8390.498
1086.063, 8405.186
1086.545, 8417.066
1087.027, 8423.936
1087.509, 8427.084
1087.992, 8441.777
1088.474, 8468.192
1088.956, 8492.270
1089.438, 8507.722
1089.920, 8519.555
1090.402, 8532.084
1090.884, 8544.562
1091.366, 8556.425
1091.849, 8570.483
1092.331, 8575.455
1092.813, 8569.562
1093.295, 8560.591
1093.777, 8555.778
1094.259, 8542.849
1094.741, 8536.783
1095.223, 8515.292
1095.705, 8493.985
1096.188, 8475.799
1096.670, 8457.761
1097.152, 8438.643
1097.634, 8420.157
1098.116, 8404.345
1098.598, 8390.813
1099.080, 8377.799
1099.562, 8365.101
1100.044, 8355.313
1100.527, 8354.673
1101.009, 8352.816
1101.491, 8343.682
1101.973, 8329.186
1102.455, 8314.496
1102.937, 8299.646
1103.419, 8285.654
1103.901, 8272.363
1104.384, 8262.536
1104.866, 8259.306
1105.348, 8260.830
1105.830, 8267.941
1106.312, 8282.335
1106.794, 8282.312
1107.276, 8263.521
1107.758, 8247.238
1108.240, 8243.251
1108.723, 8246.924
1109.205, 8254.349
1109.687, 8262.870
1110.169, 8267.166
1110.651, 8260.030
1111.133, 8260.050
1111.615, 8273.208
1112.097, 8284.873
1112.579, 8280.261
1113.062, 8265.284
1113.544, 8262.478
1114.026, 8269.448
1114.508, 8273.948
1114.990, 8267.218
1115.472, 8260.529
1115.954, 8256.924
1116.436, 8255.816
1116.919, 8257.770
1117.401, 8262.466
1117.883, 8263.738
1118.365, 8261.135
1118.847, 8257.942
1119.329, 8256.274
1119.811, 8255.130
1120.293, 8254.122
1120.776, 8253.063
1121.258, 8250.917
1121.740, 8247.268
1122.222, 8246.528
1122.704, 8250.376
1123.186, 8253.382
1123.668, 8247.490
1124.150, 8239.232
1124.632, 8236.082
1125.115, 8239.457
1125.597, 8239.900
1126.079, 8235.834
1126.561, 8234.147
1127.043, 8239.330
1127.525, 8245.512
1128.007, 8242.090
1128.489, 8233.229
1128.971, 8225.853
1129.454, 8222.008
1129.936, 8219.607
1130.418, 8219.209
1130.900, 8218.944
1131.382, 8217.065
1131.864, 8214.756
1132.346, 8215.751
1132.828, 8219.329
1133.311, 8223.167
1133.793, 8225.118
1134.275, 8228.499
1134.757, 8234.792
1135.239, 8241.551
1135.721, 8246.814
1136.203, 8250.357
1136.685, 8250.830
1137.167, 8248.489
1137.650, 8247.517
1138.132, 8252.640
1138.614, 8257.253
1139.096, 8257.973
1139.578, 8256.251
1140.060, 8253.481
1140.542, 8249.680
1141.024, 8249.560
1141.506, 8253.907
1141.989, 8259.096
1142.471, 8265.503
1142.953, 8269.031
1143.435, 8264.225
1143.917, 8253.433
1144.399, 8247.679
1144.881, 8247.340
1145.363, 8250.228
1145.846, 8256.174
1146.328, 8263.329
1146.810, 8271.594
1147.292, 8278.454
1147.774, 8279.606
1148.256, 8273.822
1148.738, 8275.223
1149.220, 8286.465
1149.703, 8295.684
1150.185, 8298.795
1150.667, 8297.682
1151.149, 8291.109
1151.631, 8283.779
1152.113, 8284.532
1152.595, 8299.760
1153.077, 8306.104
1153.559, 8299.240
1154.042, 8290.756
1154.524, 8286.093
1155.006, 8284.530
1155.488, 8285.981
1155.970, 8289.069
1156.452, 8290.384
1156.934, 8288.437
1157.416, 8285.293
1157.898, 8280.303
1158.381, 8276.076
1158.863, 8273.824
1159.345, 8274.021
1159.827, 8280.954
1160.309, 8292.523
1160.791, 8300.184
1161.273, 8294.044
1161.755, 8291.326
1162.238, 8298.181
1162.720, 8307.779
1163.202, 8312.308
1163.684, 8312.810
1164.166, 8317.537
1164.648, 8326.229
1165.130, 8333.106
1165.612, 8334.302
1166.094, 8333.511
1166.577, 8331.204
1167.059, 8328.764
1167.541, 8328.675
1168.023, 8330.801
1168.505, 8332.045
1168.987, 8332.157
1169.469, 8333.220
1169.951, 8336.872
1170.433, 8341.848
1170.916, 8349.960
1171.398, 8358.195
1171.880, 8356.652
1172.362, 8345.494
1172.844, 8340.775
1173.326, 8345.671
1173.808, 8355.449
1174.290, 8371.222
1174.773, 8385.900
1175.255, 8392.471
1175.737, 8392.543
1176.219, 8395.191
1176.701, 8400.832
1177.183, 8399.405
1177.665, 8385.854
1178.147, 8373.051
1178.630, 8375.163
1179.112, 8382.847
1179.594, 8387.004
1180.076, 8387.164
1180.558, 8389.998
1181.040, 8396.108
1181.522, 8399.674
1182.004, 8397.901
1182.486, 8393.946
1182.969, 8389.021
1183.451, 8385.027
1183.933, 8384.575
1184.415, 8388.254
1184.897, 8392.613
1185.379, 8397.943
1185.861, 8401.640
1186.343, 8402.125
1186.825, 8400.504
1187.308, 8397.634
1187.790, 8393.698
1188.272, 8389.021
1188.754, 8383.765
1189.236, 8376.447
1189.718, 8365.969
1190.200, 8359.770
1190.682, 8365.967
1191.165, 8376.598
1191.647, 8382.803
1192.129, 8385.370
1192.611, 8385.665
1193.093, 8383.054
1193.575, 8380.302
1194.057, 8377.282
1194.539, 8374.935
1195.021, 8374.936
1195.504, 8375.288
1195.986, 8371.527
1196.468, 8373.030
1196.950, 8374.263
1197.432, 8372.909
1197.914, 8373.920
1198.396, 8376.213
1198.878, 8373.329
1199.360, 8370.910
1199.843, 8369.406
1200.325, 8370.159
1200.807, 8372.655
1201.289, 8374.612
1201.771, 8376.020
1202.253, 8376.347
1202.735, 8375.379
1203.217, 8374.387
1203.700, 8372.762
1204.182, 8373.223
1204.664, 8382.091
1205.146, 8397.830
1205.628, 8408.390
1206.110, 8409.310
1206.592, 8410.463
1207.074, 8413.101
1207.557, 8416.581
1208.039, 8420.499
1208.521, 8424.368
1209.003, 8427.774
1209.485, 8430.542
1209.967, 8431.826
1210.449, 8430.558
1210.931, 8430.515
1211.413, 8433.063
1211.896, 8435.809
1212.378, 8434.235
1212.860, 8431.628
1213.342, 8434.781
1213.824, 8444.487
1214.306, 8445.858
1214.788, 8434.587
1215.270, 8424.097
1215.752, 8418.088
1216.235, 8414.218
1216.717, 8409.326
1217.199, 8404.285
1217.681, 8399.776
1218.163, 8395.808
1218.645, 8395.821
1219.127, 8401.407
1219.609, 8406.614
1220.092, 8410.057
1220.574, 8411.188
1221.056, 8406.583
1221.538, 8400.391
1222.020, 8399.463
1222.502, 8397.917
1222.984, 8395.990
1223.466, 8401.081
1223.948, 8398.229
1224.431, 8404.315
1224.913, 8413.012
1225.395, 8415.442
1225.877, 8414.402
1226.359, 8413.474
1226.841, 8413.047
1227.323, 8414.822
1227.805, 8420.023
1228.287, 8422.173
1228.770, 8417.416
1229.252, 8410.405
1229.734, 8406.271
1230.216, 8404.563
1230.698, 8405.592
1231.180, 8410.706
1231.662, 8410.351
1232.144, 8403.326
1232.627, 8398.344
1233.109, 8401.241
1233.591, 8405.127
1234.073, 8401.297
1234.555, 8393.704
1235.037, 8387.325
1235.519, 8382.670
1236.001, 8379.926
1236.484, 8379.056
1236.966, 8382.057
1237.448, 8393.218
1237.930, 8403.626
1238.412, 8399.784
1238.894, 8408.949
1239.376, 8413.125
1239.858, 8413.636
1240.340, 8421.989
1240.823, 8419.839
1241.305, 8420.114
1241.787, 8433.440
1242.269, 8446.045
1242.751, 8442.457
1243.233, 8433.198
1243.715, 8432.171
1244.197, 8440.731
1244.679, 8445.148
1245.162, 8445.533
1245.644, 8444.524
1246.126, 8443.038
1246.608, 8441.632
1247.090, 8440.437
1247.572, 8440.097
1248.054, 8441.954
1248.536, 8446.435
1249.019, 8445.205
1249.501, 8439.155
1249.983, 8436.660
1250.465, 8446.698
1250.947, 8456.083
1251.429, 8457.723
1251.911, 8455.452
1252.393, 8450.722
1252.875, 8443.927
1253.358, 8448.665
1253.840, 8462.623
1254.322, 8471.502
1254.804, 8460.973
1255.286, 8452.618
1255.768, 8454.689
1256.250, 8460.811
1256.732, 8466.991
1257.214, 8472.968
1257.697, 8476.432
1258.179, 8477.982
1258.661, 8479.922
1259.143, 8486.264
1259.625, 8489.014
1260.107, 8485.535
1260.589, 8480.694
1261.071, 8477.678
1261.554, 8476.762
1262.036, 8479.759
1262.518, 8485.621
1263.000, 8490.981
1263.482, 8494.877
1263.964, 8497.199
1264.446, 8497.688
1264.928, 8496.918
1265.411, 8493.388
1265.893, 8489.931
1266.375, 8494.710
1266.857, 8504.117
1267.339, 8508.154
1267.821, 8496.984
1268.303, 8495.502
1268.785, 8507.157
1269.267, 8518.229
1269.750, 8514.674
1270.232, 8506.798
1270.714, 8509.718
1271.196, 8518.542
1271.678, 8520.907
1272.160, 8512.425
1272.642, 8507.884
1273.124, 8507.538
1273.606, 8510.952
1274.089, 8520.868
1274.571, 8531.170
1275.053, 8537.100
1275.535, 8538.965
1276.017, 8537.357
1276.499, 8531.341
1276.981, 8528.883
1277.463, 8530.152
1277.946, 8532.780
1278.428, 8538.230
1278.910, 8541.479
1279.392, 8537.454
1279.874, 8530.959
1280.356, 8526.970
1280.838, 8525.632
1281.320, 8529.114
1281.802, 8536.702
1282.285, 8542.030
1282.767, 8539.056
1283.249, 8536.479
1283.731, 8536.993
1284.213, 8539.447
1284.695, 8543.532
1285.177, 8548.684
1285.659, 8552.887
1286.141, 8555.957
1286.624, 8557.371
1287.106, 8551.918
1287.588, 8553.210
1288.070, 8566.639
1288.552, 8578.816
1289.034, 8574.714
1289.516, 8563.106
1289.998, 8564.571
1290.481, 8575.096
1290.963, 8584.176
1291.445, 8590.879
1291.927, 8591.277
1292.409, 8583.922
1292.891, 8575.988
1293.373, 8571.397
1293.855, 8570.220
1294.338, 8574.685
1294.820, 8581.932
1295.302, 8586.520
1295.784, 8588.122
1296.266, 8585.902
1296.748, 8579.425
1297.230, 8576.727
1297.712, 8586.342
1298.194, 8597.250
1298.677, 8601.268
1299.159, 8600.684
1299.641, 8597.935
1300.123, 8592.819
1300.605, 8587.688
1301.087, 8582.561
1301.569, 8578.184
1302.051, 8576.028
1302.533, 8570.963
1303.016, 8560.884
##END=



