##NAMES=Perite
##RRUFFID=R060766
##IDEAL CHEMISTRY=Pb^2+^Bi^3+^O_2_Cl
##LOCALITY=Blue Bell mine, San Bernardino, California, USA
##OWNER=RRUFF
##SOURCE=Michael Scott
##DESCRIPTION=Pale straw-yellow granular, associated with fluorite, hemimorphite, quartz and chlorargyrite
##STATUS=The identification of this mineral has been confirmed by X-ray diffraction.
##URL=rruff.info/R060766
91.14941, 337.3739
91.63152, 336.6248
92.11364, 336.8426
92.59576, 337.5346
93.07787, 339.0655
93.55999, 342.5698
94.04211, 348.9294
94.52422, 356.2971
95.00634, 361.8779
95.48846, 365.6700
95.97057, 367.9806
96.45269, 367.9077
96.93481, 365.7306
97.41692, 365.4983
97.89904, 368.5117
98.38116, 374.5178
98.86327, 381.2281
99.34539, 388.0521
99.82751, 397.0078
100.3096, 410.3715
100.7917, 428.0284
101.2739, 451.0806
101.7560, 479.7875
102.2381, 513.4280
102.7202, 555.3312
103.2023, 606.5917
103.6844, 666.0513
104.1666, 731.1293
104.6487, 798.6032
105.1308, 875.2556
105.6129, 964.4140
106.0950, 1068.630
106.5771, 1182.414
107.0592, 1301.735
107.5414, 1423.757
108.0235, 1577.933
108.5056, 1771.165
108.9877, 1994.029
109.4698, 2239.948
109.9520, 2495.914
110.4341, 2783.007
110.9162, 3113.792
111.3983, 3502.160
111.8804, 3897.355
112.3625, 4297.376
112.8447, 4703.185
113.3268, 5118.721
113.8089, 5551.071
114.2910, 5995.973
114.7731, 6447.169
115.2552, 6893.251
115.7374, 7361.783
116.2195, 7855.618
116.7016, 8375.120
117.1837, 8921.852
117.6658, 9493.517
118.1479, 10097.89
118.6301, 10727.69
119.1122, 11396.11
119.5943, 12084.48
120.0764, 12788.75
120.5585, 13510.83
121.0406, 14226.46
121.5228, 14928.35
122.0049, 15612.42
122.4870, 16270.99
122.9691, 16896.63
123.4512, 17495.86
123.9333, 18074.45
124.4154, 18631.02
124.8976, 19172.37
125.3797, 19700.01
125.8618, 20216.25
126.3439, 20734.50
126.8260, 21252.68
127.3081, 21774.68
127.7903, 22314.85
128.2724, 22873.08
128.7545, 23453.82
129.2366, 24060.50
129.7187, 24692.52
130.2008, 25361.95
130.6830, 26082.38
131.1651, 26850.76
131.6472, 27661.80
132.1293, 28492.14
132.6114, 29358.12
133.0935, 30356.37
133.5757, 31506.33
134.0578, 32748.79
134.5399, 34010.27
135.0220, 35292.67
135.5041, 36628.30
135.9862, 38031.45
136.4684, 39508.17
136.9505, 41045.06
137.4326, 42656.55
137.9147, 44316.79
138.3968, 45993.87
138.8789, 47701.18
139.3611, 49416.73
139.8432, 51175.70
140.3253, 52975.81
140.8074, 54771.33
141.2895, 56569.51
141.7716, 58355.50
142.2538, 60112.77
142.7359, 61841.15
143.2180, 63526.43
143.7001, 65151.85
144.1822, 66757.50
144.6643, 68253.45
145.1465, 69636.78
145.6286, 70902.27
146.1107, 72020.60
146.5928, 72995.19
147.0749, 73814.95
147.5570, 74429.07
148.0392, 74859.48
148.5213, 75071.11
149.0034, 75054.23
149.4855, 74820.35
149.9676, 74345.00
150.4497, 73617.61
150.9319, 72643.92
151.4140, 71459.12
151.8961, 70033.84
152.3782, 68411.17
152.8603, 66621.46
153.3424, 64609.02
153.8246, 62476.43
154.3067, 60193.70
154.7888, 57773.53
155.2709, 55353.73
155.7530, 52934.20
156.2351, 50567.31
156.7173, 48308.98
157.1994, 46136.85
157.6815, 44096.14
158.1636, 42224.88
158.6457, 40534.14
159.1278, 38941.19
159.6100, 37425.49
160.0921, 36006.23
160.5742, 34701.66
161.0563, 33554.91
161.5384, 32510.98
162.0205, 31548.22
162.5026, 30677.98
162.9848, 29853.62
163.4669, 29054.34
163.9490, 28290.22
164.4311, 27565.67
164.9132, 26870.02
165.3953, 26224.13
165.8775, 25647.95
166.3596, 25178.23
166.8417, 24742.83
167.3238, 24299.06
167.8059, 23855.22
168.2880, 23431.04
168.7702, 23049.46
169.2523, 22693.61
169.7344, 22338.09
170.2165, 21940.95
170.6986, 21563.38
171.1807, 21265.91
171.6629, 21051.19
172.1450, 20851.85
172.6271, 20610.60
173.1092, 20352.24
173.5913, 20122.71
174.0734, 19965.54
174.5556, 19837.05
175.0377, 19686.32
175.5198, 19506.26
176.0019, 19320.71
176.4840, 19146.09
176.9661, 18982.35
177.4483, 18832.17
177.9304, 18700.89
178.4125, 18583.77
178.8946, 18471.13
179.3767, 18361.72
179.8588, 18255.55
180.3410, 18144.03
180.8231, 18030.45
181.3052, 17928.57
181.7873, 17855.45
182.2694, 17802.16
182.7515, 17742.75
183.2337, 17670.93
183.7158, 17592.63
184.1979, 17519.69
184.6800, 17451.89
185.1621, 17384.74
185.6442, 17317.08
186.1264, 17247.71
186.6085, 17167.09
187.0906, 17065.51
187.5727, 16953.97
188.0548, 16865.58
188.5369, 16802.73
189.0191, 16750.57
189.5012, 16695.88
189.9833, 16638.87
190.4654, 16586.48
190.9475, 16543.83
191.4296, 16508.34
191.9117, 16470.18
192.3939, 16431.01
192.8760, 16385.89
193.3581, 16325.11
193.8402, 16248.58
194.3223, 16175.16
194.8044, 16113.93
195.2866, 16064.62
195.7687, 16013.33
196.2508, 15959.26
196.7329, 15905.02
197.2150, 15853.50
197.6971, 15804.37
198.1793, 15762.43
198.6614, 15735.02
199.1435, 15723.09
199.6256, 15698.16
200.1077, 15651.25
200.5898, 15597.16
201.0720, 15579.56
201.5541, 15608.69
202.0362, 15630.02
202.5183, 15595.59
203.0004, 15494.25
203.4825, 15428.45
203.9647, 15418.63
204.4468, 15449.67
204.9289, 15464.26
205.4110, 15460.36
205.8931, 15444.43
206.3752, 15418.26
206.8574, 15378.72
207.3395, 15344.12
207.8216, 15320.55
208.3037, 15305.76
208.7858, 15279.66
209.2679, 15239.70
209.7501, 15194.49
210.2322, 15151.00
210.7143, 15107.59
211.1964, 15074.12
211.6785, 15057.69
212.1606, 15058.70
212.6428, 15043.85
213.1249, 15006.45
213.6070, 14963.47
214.0891, 14935.00
214.5712, 14924.02
215.0533, 14919.04
215.5355, 14916.75
216.0176, 14916.56
216.4997, 14921.78
216.9818, 14936.49
217.4639, 14951.20
217.9460, 14949.84
218.4282, 14924.09
218.9103, 14899.24
219.3924, 14886.07
219.8745, 14890.82
220.3566, 14878.79
220.8387, 14840.72
221.3209, 14792.71
221.8030, 14767.53
222.2851, 14778.55
222.7672, 14789.30
223.2493, 14785.72
223.7314, 14764.46
224.2135, 14737.54
224.6957, 14694.46
225.1778, 14649.78
225.6599, 14637.47
226.1420, 14661.08
226.6241, 14711.58
227.1062, 14793.83
227.5884, 14947.98
228.0705, 15040.29
228.5526, 15050.49
229.0347, 14996.98
229.5168, 14942.91
229.9989, 14881.28
230.4811, 14827.42
230.9632, 14790.99
231.4453, 14780.24
231.9274, 14768.71
232.4095, 14754.54
232.8916, 14738.32
233.3738, 14723.62
233.8559, 14713.88
234.3380, 14701.68
234.8201, 14679.13
235.3022, 14629.58
235.7843, 14604.61
236.2665, 14616.42
236.7486, 14660.69
237.2307, 14700.96
237.7128, 14747.11
238.1949, 14778.30
238.6770, 14774.09
239.1592, 14703.97
239.6413, 14659.17
240.1234, 14661.18
240.6055, 14707.78
241.0876, 14732.02
241.5697, 14720.68
242.0519, 14701.36
242.5340, 14697.15
243.0161, 14714.84
243.4982, 14734.15
243.9803, 14750.88
244.4624, 14764.59
244.9446, 14782.81
245.4267, 14805.59
245.9088, 14831.42
246.3909, 14861.81
246.8730, 14910.82
247.3551, 14935.23
247.8373, 14913.95
248.3194, 14842.51
248.8015, 14815.30
249.2836, 14859.95
249.7657, 14922.35
250.2478, 14944.52
250.7300, 14911.31
251.2121, 14867.87
251.6942, 14817.37
252.1763, 14756.60
252.6584, 14732.93
253.1405, 14766.67
253.6227, 14820.14
254.1048, 14847.45
254.5869, 14838.02
255.0690, 14825.51
255.5511, 14815.88
256.0332, 14808.19
256.5154, 14813.70
256.9975, 14839.23
257.4796, 14871.08
257.9617, 14892.04
258.4438, 14897.47
258.9259, 14900.34
259.4081, 14903.01
259.8902, 14904.60
260.3723, 14907.37
260.8544, 14904.28
261.3365, 14908.50
261.8186, 14945.82
262.3008, 15037.04
262.7829, 15108.91
263.2650, 15130.27
263.7471, 15091.13
264.2292, 15078.52
264.7113, 15104.95
265.1935, 15144.61
265.6756, 15155.94
266.1577, 15128.06
266.6398, 15103.18
267.1219, 15097.13
267.6040, 15112.83
268.0862, 15126.56
268.5683, 15139.47
269.0504, 15149.72
269.5325, 15151.21
270.0146, 15139.23
270.4967, 15135.81
270.9789, 15156.41
271.4610, 15206.85
271.9431, 15221.65
272.4252, 15186.71
272.9073, 15136.13
273.3894, 15125.83
273.8716, 15164.10
274.3537, 15208.93
274.8358, 15248.72
275.3179, 15284.40
275.8000, 15298.87
276.2821, 15283.38
276.7643, 15260.51
277.2464, 15272.44
277.7285, 15326.71
278.2106, 15368.61
278.6927, 15365.38
279.1748, 15316.22
279.6570, 15299.61
280.1391, 15322.04
280.6212, 15363.38
281.1033, 15394.88
281.5854, 15415.61
282.0675, 15432.97
282.5497, 15455.19
283.0318, 15480.87
283.5139, 15478.10
283.9960, 15438.99
284.4781, 15392.44
284.9602, 15387.52
285.4424, 15425.19
285.9245, 15454.71
286.4066, 15450.32
286.8887, 15416.86
287.3708, 15386.16
287.8529, 15357.06
288.3351, 15335.22
288.8172, 15331.08
289.2993, 15343.88
289.7814, 15359.30
290.2635, 15375.77
290.7456, 15390.71
291.2278, 15392.87
291.7099, 15381.02
292.1920, 15360.95
292.6741, 15337.42
293.1562, 15311.08
293.6383, 15286.28
294.1205, 15268.03
294.6026, 15253.16
295.0847, 15231.56
295.5668, 15202.51
296.0489, 15173.35
296.5310, 15151.73
297.0132, 15136.94
297.4953, 15125.39
297.9774, 15120.15
298.4595, 15116.55
298.9416, 15103.54
299.4237, 15080.10
299.9058, 15056.70
300.3879, 15037.28
300.8701, 15024.51
301.3522, 15026.21
301.8343, 15061.34
302.3164, 15105.13
302.7985, 15126.04
303.2806, 15122.77
303.7628, 15101.41
304.2449, 15050.14
304.7270, 14984.53
305.2091, 14935.89
305.6912, 14922.23
306.1733, 14928.11
306.6555, 14944.75
307.1376, 14971.99
307.6197, 14993.47
308.1018, 15000.85
308.5839, 14995.11
309.0660, 14977.71
309.5482, 14942.98
310.0303, 14902.11
310.5124, 14863.11
310.9945, 14825.66
311.4766, 14787.04
311.9587, 14737.86
312.4409, 14689.53
312.9230, 14653.89
313.4051, 14645.56
313.8872, 14642.56
314.3693, 14636.51
314.8514, 14626.96
315.3336, 14610.43
315.8157, 14578.34
316.2978, 14541.94
316.7799, 14511.12
317.2620, 14494.26
317.7441, 14477.81
318.2263, 14454.07
318.7084, 14425.23
319.1905, 14402.93
319.6726, 14397.70
320.1547, 14396.62
320.6368, 14390.95
321.1190, 14375.85
321.6011, 14359.05
322.0832, 14341.31
322.5653, 14322.62
323.0474, 14304.04
323.5295, 14283.73
324.0117, 14264.56
324.4938, 14247.86
324.9759, 14231.82
325.4580, 14220.47
325.9401, 14218.13
326.4222, 14221.29
326.9044, 14219.40
327.3865, 14207.67
327.8686, 14193.89
328.3507, 14181.43
328.8328, 14173.47
329.3149, 14161.36
329.7971, 14138.32
330.2792, 14112.17
330.7613, 14101.25
331.2434, 14117.69
331.7255, 14135.46
332.2076, 14147.16
332.6898, 14156.33
333.1719, 14149.07
333.6540, 14115.61
334.1361, 14071.39
334.6182, 14043.36
335.1003, 14039.72
335.5825, 14037.22
336.0646, 14026.58
336.5467, 14005.15
337.0288, 13994.46
337.5109, 13999.85
337.9930, 14008.91
338.4752, 14003.48
338.9573, 13979.61
339.4394, 13955.29
339.9215, 13936.93
340.4036, 13924.02
340.8857, 13904.19
341.3679, 13873.94
341.8500, 13846.36
342.3321, 13842.97
342.8142, 13865.55
343.2963, 13877.18
343.7784, 13865.29
344.2606, 13835.63
344.7427, 13808.65
345.2248, 13783.90
345.7069, 13766.38
346.1890, 13765.14
346.6711, 13777.55
347.1533, 13785.56
347.6354, 13783.25
348.1175, 13774.92
348.5996, 13768.20
349.0817, 13762.78
349.5638, 13759.15
350.0460, 13758.06
350.5281, 13758.51
351.0102, 13759.41
351.4923, 13761.94
351.9744, 13761.50
352.4565, 13749.03
352.9387, 13726.95
353.4208, 13706.89
353.9029, 13699.08
354.3850, 13697.12
354.8671, 13694.68
355.3492, 13693.51
355.8314, 13685.30
356.3135, 13653.08
356.7956, 13608.42
357.2777, 13577.03
357.7598, 13586.74
358.2419, 13606.94
358.7241, 13614.11
359.2062, 13604.34
359.6883, 13587.80
360.1704, 13560.70
360.6525, 13531.79
361.1346, 13514.07
361.6167, 13519.56
362.0988, 13530.89
362.5810, 13542.92
363.0631, 13555.80
363.5452, 13559.92
364.0273, 13545.03
364.5094, 13522.91
364.9915, 13505.10
365.4737, 13489.46
365.9558, 13483.16
366.4379, 13498.74
366.9200, 13535.60
367.4021, 13547.07
367.8842, 13505.96
368.3664, 13452.69
368.8485, 13413.75
369.3306, 13394.62
369.8127, 13384.01
370.2948, 13386.24
370.7769, 13398.03
371.2591, 13401.66
371.7412, 13389.20
372.2233, 13377.54
372.7054, 13376.47
373.1875, 13393.97
373.6696, 13402.23
374.1518, 13399.33
374.6339, 13386.72
375.1160, 13364.57
375.5981, 13324.79
376.0802, 13295.82
376.5623, 13294.97
377.0445, 13327.30
377.5266, 13345.69
378.0087, 13351.10
378.4908, 13341.40
378.9729, 13303.99
379.4550, 13236.08
379.9372, 13184.20
380.4193, 13172.58
380.9014, 13192.67
381.3835, 13198.60
381.8656, 13189.35
382.3477, 13174.66
382.8299, 13161.10
383.3120, 13149.69
383.7941, 13146.17
384.2762, 13161.13
384.7583, 13177.46
385.2404, 13154.65
385.7226, 13096.60
386.2047, 13044.97
386.6868, 13043.13
387.1689, 13066.22
387.6510, 13071.34
388.1331, 13042.59
388.6153, 13004.79
389.0974, 12975.05
389.5795, 12953.61
390.0616, 12941.52
390.5437, 12953.68
391.0258, 12967.02
391.5080, 12960.62
391.9901, 12928.20
392.4722, 12890.79
392.9543, 12852.97
393.4364, 12818.96
393.9185, 12795.72
394.4007, 12799.38
394.8828, 12802.47
395.3649, 12793.43
395.8470, 12770.67
396.3291, 12743.63
396.8112, 12701.68
397.2934, 12661.90
397.7755, 12640.60
398.2576, 12668.52
398.7397, 12682.66
399.2218, 12663.82
399.7039, 12615.23
400.1861, 12583.19
400.6682, 12582.17
401.1503, 12584.52
401.6324, 12573.49
402.1145, 12537.45
402.5966, 12512.13
403.0788, 12503.02
403.5609, 12504.65
404.0430, 12501.59
404.5251, 12491.72
405.0072, 12482.33
405.4893, 12476.54
405.9715, 12474.48
406.4536, 12475.76
406.9357, 12481.92
407.4178, 12488.31
407.8999, 12487.25
408.3820, 12478.41
408.8642, 12468.96
409.3463, 12460.95
409.8284, 12454.27
410.3105, 12446.82
410.7926, 12438.04
411.2747, 12435.59
411.7569, 12450.71
412.2390, 12478.72
412.7211, 12505.48
413.2032, 12529.28
413.6853, 12547.54
414.1674, 12554.48
414.6496, 12551.82
415.1317, 12549.13
415.6138, 12552.68
416.0959, 12559.30
416.5780, 12564.97
417.0602, 12567.96
417.5423, 12572.35
418.0244, 12588.03
418.5065, 12606.48
418.9886, 12611.91
419.4707, 12574.40
419.9529, 12540.53
420.4350, 12543.23
420.9171, 12589.66
421.3992, 12624.50
421.8813, 12620.02
422.3634, 12600.85
422.8455, 12590.21
423.3276, 12601.90
423.8098, 12612.08
424.2919, 12614.22
424.7740, 12609.48
425.2561, 12610.86
425.7382, 12620.15
426.2203, 12634.13
426.7025, 12651.83
427.1846, 12677.33
427.6667, 12698.43
428.1488, 12716.98
428.6309, 12729.47
429.1130, 12724.81
429.5952, 12693.67
430.0773, 12668.91
430.5594, 12665.65
431.0415, 12684.42
431.5236, 12696.41
432.0057, 12699.35
432.4879, 12701.40
432.9700, 12710.82
433.4521, 12727.78
433.9342, 12753.43
434.4163, 12793.78
434.8984, 12839.94
435.3806, 12869.24
435.8627, 12882.31
436.3448, 12892.29
436.8269, 12912.66
437.3090, 12936.82
437.7911, 12949.40
438.2733, 12944.73
438.7554, 12936.04
439.2375, 12927.50
439.7196, 12924.23
440.2017, 12939.29
440.6838, 12998.21
441.1660, 13065.21
441.6481, 13111.38
442.1302, 13133.48
442.6123, 13149.47
443.0944, 13164.82
443.5765, 13179.26
444.0587, 13192.49
444.5408, 13201.07
445.0229, 13212.12
445.5050, 13233.03
445.9871, 13261.48
446.4692, 13276.69
446.9514, 13246.80
447.4335, 13226.89
447.9156, 13245.06
448.3977, 13332.31
448.8798, 13402.10
449.3619, 13447.58
449.8441, 13478.70
450.3262, 13514.33
450.8083, 13557.13
451.2904, 13598.67
451.7725, 13636.33
452.2546, 13670.17
452.7368, 13697.29
453.2189, 13714.74
453.7010, 13732.78
454.1831, 13760.46
454.6652, 13797.75
455.1473, 13845.75
455.6295, 13910.53
456.1116, 13979.08
456.5937, 14016.66
457.0758, 14026.51
457.5579, 14040.18
458.0400, 14081.43
458.5222, 14139.68
459.0043, 14201.12
459.4864, 14266.43
459.9685, 14321.05
460.4506, 14330.66
460.9327, 14322.03
461.4149, 14343.41
461.8970, 14439.58
462.3791, 14552.10
462.8612, 14650.56
463.3433, 14733.73
463.8254, 14802.14
464.3076, 14842.98
464.7897, 14875.98
465.2718, 14915.56
465.7539, 14973.89
466.2360, 15025.32
466.7181, 15046.28
467.2003, 15057.79
467.6824, 15113.87
468.1645, 15262.55
468.6466, 15400.59
469.1287, 15492.05
469.6108, 15523.45
470.0930, 15584.81
470.5751, 15691.20
471.0572, 15806.99
471.5393, 15895.49
472.0214, 15950.06
472.5035, 16003.19
472.9857, 16055.44
473.4678, 16113.47
473.9499, 16209.82
474.4320, 16347.49
474.9141, 16475.76
475.3962, 16555.54
475.8784, 16599.16
476.3605, 16650.84
476.8426, 16716.25
477.3247, 16782.80
477.8068, 16836.64
478.2889, 16881.93
478.7711, 16927.96
479.2532, 16969.32
479.7353, 17019.84
480.2174, 17095.91
480.6995, 17195.62
481.1816, 17298.94
481.6638, 17398.00
482.1459, 17494.43
482.6280, 17590.97
483.1101, 17691.05
483.5922, 17783.59
484.0743, 17862.10
484.5565, 17930.77
485.0385, 17995.90
485.5207, 18060.68
486.0028, 18120.00
486.4849, 18174.42
486.9670, 18224.25
487.4491, 18260.94
487.9312, 18279.55
488.4134, 18291.62
488.8955, 18304.62
489.3776, 18315.86
489.8597, 18343.72
490.3418, 18401.70
490.8239, 18468.74
491.3061, 18479.97
491.7882, 18429.92
492.2703, 18391.29
492.7524, 18415.75
493.2345, 18485.63
493.7166, 18519.87
494.1988, 18515.02
494.6809, 18499.47
495.1630, 18497.76
495.6451, 18506.44
496.1272, 18519.41
496.6093, 18542.30
497.0915, 18558.66
497.5736, 18552.85
498.0557, 18527.60
498.5378, 18492.19
499.0199, 18438.58
499.5020, 18385.47
499.9842, 18348.39
500.4663, 18333.52
500.9484, 18314.32
501.4305, 18281.53
501.9126, 18241.00
502.3947, 18199.13
502.8769, 18149.43
503.3590, 18106.22
503.8411, 18073.76
504.3232, 18049.91
504.8053, 18024.89
505.2874, 18011.99
505.7696, 17976.78
506.2517, 17893.45
506.7338, 17745.21
507.2159, 17629.29
507.6980, 17553.34
508.1801, 17495.60
508.6623, 17424.63
509.1444, 17342.16
509.6265, 17269.31
510.1086, 17222.33
510.5907, 17183.64
511.0728, 17108.49
511.5550, 17000.26
512.0371, 16892.86
512.5192, 16819.68
513.0013, 16759.77
513.4835, 16679.46
513.9656, 16567.12
514.4477, 16464.32
514.9298, 16417.37
515.4119, 16394.24
515.8940, 16347.41
516.3761, 16234.57
516.8582, 16118.82
517.3403, 16022.82
517.8224, 15945.50
518.3046, 15871.46
518.7867, 15804.73
519.2688, 15735.39
519.7509, 15657.93
520.2330, 15569.63
520.7151, 15479.60
521.1973, 15381.56
521.6794, 15286.28
522.1615, 15213.17
522.6436, 15170.92
523.1257, 15119.65
523.6078, 15047.16
524.0900, 14957.87
524.5721, 14867.13
525.0542, 14775.80
525.5363, 14692.15
526.0184, 14627.98
526.5005, 14577.17
526.9827, 14520.05
527.4648, 14454.42
527.9469, 14380.92
528.4290, 14291.31
528.9111, 14194.43
529.3932, 14109.79
529.8754, 14054.21
530.3575, 14004.91
530.8396, 13951.18
531.3217, 13891.69
531.8038, 13821.16
532.2859, 13723.88
532.7681, 13625.78
533.2502, 13539.46
533.7323, 13466.23
534.2144, 13408.22
534.6965, 13379.18
535.1786, 13359.63
535.6608, 13328.64
536.1429, 13287.40
536.6250, 13230.45
537.1071, 13149.01
537.5892, 13050.77
538.0714, 12979.46
538.5535, 12939.56
539.0356, 12904.79
539.5177, 12854.04
539.9998, 12790.52
540.4819, 12756.08
540.9641, 12757.52
541.4462, 12755.47
541.9283, 12694.83
542.4104, 12595.29
542.8925, 12507.81
543.3746, 12446.74
543.8568, 12405.02
544.3389, 12386.74
544.8210, 12384.41
545.3031, 12374.23
545.7852, 12344.72
546.2673, 12303.73
546.7495, 12252.59
547.2316, 12188.60
547.7137, 12131.34
548.1958, 12093.47
548.6779, 12060.44
549.1600, 12019.51
549.6422, 11961.77
550.1243, 11909.74
550.6064, 11870.30
551.0885, 11836.31
551.5706, 11783.00
552.0527, 11701.35
552.5349, 11632.43
553.0170, 11600.25
553.4991, 11599.25
553.9812, 11575.68
554.4633, 11527.26
554.9454, 11474.44
555.4276, 11443.93
555.9097, 11424.69
556.3918, 11381.91
556.8739, 11299.41
557.3560, 11217.19
557.8381, 11181.81
558.3203, 11177.02
558.8024, 11167.76
559.2845, 11133.71
559.7666, 11094.90
560.2487, 11060.54
560.7308, 11030.78
561.2130, 11004.19
561.6951, 10993.17
562.1772, 10975.46
562.6593, 10934.48
563.1414, 10843.68
563.6235, 10783.52
564.1057, 10766.69
564.5878, 10771.28
565.0699, 10770.43
565.5520, 10765.98
566.0341, 10748.03
566.5162, 10710.66
566.9984, 10659.60
567.4805, 10612.17
567.9626, 10568.30
568.4447, 10534.53
568.9268, 10524.37
569.4089, 10525.72
569.8911, 10508.67
570.3732, 10470.50
570.8553, 10427.87
571.3374, 10389.51
571.8195, 10356.84
572.3016, 10330.83
572.7838, 10316.41
573.2659, 10302.75
573.7480, 10286.15
574.2301, 10266.68
574.7122, 10244.18
575.1943, 10220.38
575.6765, 10192.07
576.1586, 10155.60
576.6407, 10110.66
577.1228, 10074.14
577.6049, 10051.08
578.0870, 10030.28
578.5692, 10002.73
579.0513, 9966.517
579.5334, 9938.246
580.0155, 9921.340
580.4976, 9906.723
580.9797, 9879.613
581.4619, 9841.649
581.9440, 9804.269
582.4261, 9766.781
582.9082, 9735.495
583.3903, 9724.242
583.8724, 9729.238
584.3546, 9734.101
584.8367, 9728.062
585.3188, 9718.469
585.8009, 9712.857
586.2830, 9713.580
586.7651, 9706.550
587.2473, 9679.198
587.7294, 9646.078
588.2115, 9619.937
588.6936, 9614.997
589.1757, 9599.903
589.6578, 9568.335
590.1400, 9527.950
590.6221, 9495.934
591.1042, 9475.638
591.5863, 9453.263
592.0684, 9421.390
592.5505, 9383.571
593.0327, 9359.470
593.5148, 9349.520
593.9969, 9346.771
594.4790, 9355.588
594.9611, 9366.379
595.4432, 9354.249
595.9254, 9313.785
596.4075, 9268.383
596.8896, 9229.226
597.3717, 9200.289
597.8538, 9186.717
598.3359, 9215.201
598.8181, 9232.665
599.3002, 9213.406
599.7823, 9167.038
600.2644, 9122.154
600.7465, 9074.072
601.2286, 9037.368
601.7108, 9016.289
602.1929, 9011.187
602.6750, 9016.844
603.1571, 9038.785
603.6392, 9060.302
604.1213, 9070.021
604.6035, 9067.938
605.0856, 9053.656
605.5677, 9024.514
606.0498, 8991.483
606.5319, 8969.527
607.0140, 8956.360
607.4962, 8945.062
607.9783, 8936.502
608.4604, 8924.781
608.9425, 8897.084
609.4246, 8860.021
609.9067, 8834.311
610.3889, 8840.739
610.8710, 8852.066
611.3531, 8855.627
611.8352, 8850.284
612.3173, 8838.417
612.7994, 8811.886
613.2816, 8785.925
613.7637, 8769.921
614.2458, 8768.022
614.7279, 8768.161
615.2100, 8775.495
615.6921, 8777.479
616.1743, 8745.165
616.6564, 8677.855
617.1385, 8635.389
617.6206, 8643.938
618.1027, 8676.432
618.5848, 8681.667
619.0670, 8664.461
619.5491, 8648.638
620.0312, 8649.477
620.5133, 8656.977
620.9954, 8664.257
621.4775, 8670.685
621.9597, 8670.609
622.4418, 8655.871
622.9239, 8637.186
623.4060, 8622.493
623.8881, 8618.496
624.3702, 8608.000
624.8524, 8585.096
625.3345, 8558.912
625.8166, 8541.680
626.2987, 8536.477
626.7808, 8532.108
627.2629, 8531.219
627.7451, 8526.080
628.2272, 8484.197
628.7093, 8407.040
629.1914, 8348.473
629.6735, 8356.140
630.1556, 8393.195
630.6378, 8391.520
631.1199, 8353.099
631.6020, 8318.495
632.0841, 8325.378
632.5662, 8342.109
633.0483, 8337.159
633.5305, 8293.721
634.0126, 8264.257
634.4947, 8276.683
634.9768, 8303.514
635.4589, 8313.975
635.9410, 8297.075
636.4232, 8281.197
636.9053, 8269.762
637.3874, 8260.256
637.8695, 8246.236
638.3516, 8227.063
638.8337, 8207.291
639.3158, 8186.226
639.7979, 8166.878
640.2800, 8161.556
640.7621, 8169.289
641.2443, 8176.304
641.7264, 8172.289
642.2085, 8162.693
642.6906, 8155.096
643.1727, 8151.292
643.6548, 8141.628
644.1370, 8113.152
644.6191, 8081.007
645.1012, 8058.939
645.5833, 8051.886
646.0654, 8052.132
646.5475, 8064.049
647.0297, 8080.133
647.5118, 8087.894
647.9939, 8083.489
648.4760, 8081.278
648.9581, 8085.587
649.4402, 8093.288
649.9224, 8094.860
650.4045, 8090.300
650.8866, 8084.512
651.3687, 8083.775
651.8508, 8082.173
652.3329, 8064.409
652.8151, 8031.305
653.2972, 8007.184
653.7793, 8019.063
654.2614, 8039.468
654.7435, 8045.023
655.2256, 8027.699
655.7078, 8009.094
656.1899, 7986.864
656.6720, 7969.266
657.1541, 7966.684
657.6362, 7996.250
658.1183, 8002.118
658.6005, 7970.037
659.0826, 7919.775
659.5647, 7894.637
660.0468, 7895.433
660.5289, 7898.415
661.0110, 7896.918
661.4932, 7891.012
661.9753, 7876.618
662.4574, 7856.192
662.9395, 7842.390
663.4216, 7851.803
663.9037, 7865.382
664.3859, 7863.262
664.8680, 7843.400
665.3501, 7833.467
665.8322, 7861.597
666.3143, 7889.645
666.7964, 7888.852
667.2786, 7838.851
667.7607, 7805.921
668.2428, 7795.826
668.7249, 7795.432
669.2070, 7788.593
669.6891, 7774.060
670.1713, 7765.766
670.6534, 7767.863
671.1355, 7773.354
671.6176, 7770.778
672.0997, 7761.623
672.5818, 7751.393
673.0640, 7743.707
673.5461, 7735.499
674.0282, 7723.659
674.5103, 7709.335
674.9924, 7696.125
675.4745, 7691.994
675.9567, 7684.320
676.4388, 7662.579
676.9209, 7623.975
677.4030, 7605.508
677.8851, 7624.788
678.3672, 7639.777
678.8494, 7614.630
679.3315, 7541.792
679.8136, 7511.685
680.2957, 7533.183
680.7778, 7570.495
681.2599, 7582.927
681.7421, 7578.852
682.2242, 7585.819
682.7063, 7615.459
683.1884, 7642.522
683.6705, 7640.274
684.1526, 7620.973
684.6348, 7605.141
685.1169, 7596.249
685.5990, 7595.857
686.0811, 7615.968
686.5632, 7647.156
687.0453, 7652.712
687.5275, 7618.123
688.0096, 7583.020
688.4917, 7556.478
688.9738, 7539.729
689.4559, 7549.827
689.9380, 7590.214
690.4202, 7621.808
690.9023, 7603.759
691.3844, 7560.161
691.8665, 7554.039
692.3486, 7588.086
692.8307, 7620.158
693.3129, 7606.914
693.7950, 7582.976
694.2771, 7585.909
694.7592, 7640.557
695.2413, 7674.993
695.7234, 7653.447
696.2056, 7613.172
696.6877, 7594.811
697.1698, 7610.414
697.6519, 7621.631
698.1340, 7626.023
698.6161, 7623.528
699.0983, 7606.114
699.5804, 7574.822
700.0625, 7566.092
700.5446, 7604.266
701.0267, 7656.561
701.5089, 7668.821
701.9910, 7651.127
702.4731, 7637.224
702.9552, 7649.005
703.4373, 7666.061
703.9194, 7675.037
704.4016, 7676.269
704.8837, 7680.924
705.3658, 7696.449
705.8479, 7710.303
706.3300, 7715.181
706.8121, 7708.880
707.2943, 7718.132
707.7764, 7747.980
708.2585, 7778.305
708.7406, 7788.149
709.2227, 7782.669
709.7048, 7790.155
710.1870, 7815.037
710.6691, 7839.877
711.1512, 7848.327
711.6333, 7846.188
712.1154, 7840.113
712.5975, 7826.291
713.0797, 7819.840
713.5618, 7830.881
714.0439, 7851.514
714.5260, 7870.610
715.0081, 7888.366
715.4902, 7902.262
715.9724, 7911.115
716.4545, 7916.346
716.9366, 7923.058
717.4187, 7931.787
717.9008, 7933.330
718.3829, 7921.581
718.8651, 7902.711
719.3472, 7884.320
719.8293, 7868.583
720.3114, 7866.581
720.7935, 7902.443
721.2756, 7940.263
721.7578, 7950.686
722.2399, 7933.976
722.7220, 7920.520
723.2041, 7919.236
723.6862, 7922.011
724.1683, 7925.207
724.6505, 7928.598
725.1326, 7935.166
725.6147, 7947.167
726.0968, 7956.195
726.5789, 7951.945
727.0610, 7937.361
727.5432, 7931.453
728.0253, 7936.950
728.5074, 7941.938
728.9895, 7931.397
729.4716, 7914.568
729.9537, 7905.781
730.4359, 7914.243
730.9180, 7917.741
731.4001, 7902.237
731.8822, 7879.156
732.3643, 7863.291
732.8464, 7860.005
733.3286, 7855.441
733.8107, 7846.542
734.2928, 7837.049
734.7749, 7837.552
735.2570, 7848.355
735.7391, 7849.387
736.2213, 7830.086
736.7034, 7803.725
737.1855, 7795.452
737.6676, 7799.243
738.1497, 7795.628
738.6318, 7761.790
739.1140, 7730.080
739.5961, 7721.737
740.0782, 7733.805
740.5603, 7745.831
741.0424, 7759.566
741.5245, 7767.243
742.0067, 7766.899
742.4888, 7758.473
742.9709, 7735.895
743.4530, 7693.795
743.9351, 7662.419
744.4172, 7672.096
744.8994, 7707.458
745.3815, 7716.786
745.8636, 7699.038
746.3457, 7679.828
746.8278, 7677.955
747.3099, 7683.409
747.7921, 7689.545
748.2742, 7697.899
748.7563, 7694.814
749.2384, 7667.850
749.7205, 7635.276
750.2026, 7611.732
750.6848, 7605.606
751.1669, 7582.238
751.6490, 7536.968
752.1311, 7485.334
752.6132, 7438.255
753.0953, 7398.958
753.5775, 7389.523
754.0596, 7419.855
754.5417, 7460.095
755.0238, 7481.299
755.5059, 7492.185
755.9880, 7505.854
756.4702, 7540.572
756.9523, 7560.237
757.4344, 7544.109
757.9165, 7508.884
758.3986, 7484.259
758.8807, 7476.248
759.3629, 7464.068
759.8450, 7441.905
760.3271, 7416.211
760.8092, 7405.468
761.2913, 7408.238
761.7734, 7405.727
762.2555, 7382.056
762.7376, 7358.428
763.2197, 7365.912
763.7018, 7395.907
764.1840, 7422.400
764.6661, 7439.873
765.1482, 7446.126
765.6303, 7432.911
766.1124, 7403.875
766.5945, 7389.271
767.0767, 7396.400
767.5588, 7402.575
768.0409, 7396.955
768.5230, 7382.351
769.0051, 7376.803
769.4872, 7380.174
769.9694, 7389.375
770.4515, 7411.438
770.9336, 7433.500
771.4157, 7435.519
771.8978, 7418.046
772.3799, 7399.624
772.8621, 7384.674
773.3442, 7375.750
773.8263, 7379.393
774.3084, 7401.398
774.7905, 7399.280
775.2726, 7357.280
775.7548, 7318.468
776.2369, 7315.535
776.7190, 7346.796
777.2011, 7376.956
777.6832, 7405.987
778.1653, 7423.590
778.6475, 7409.591
779.1296, 7382.655
779.6117, 7370.518
780.0938, 7379.674
780.5759, 7389.567
781.0580, 7388.211
781.5402, 7385.204
782.0223, 7390.012
782.5044, 7412.745
782.9865, 7419.299
783.4686, 7402.875
783.9507, 7380.560
784.4329, 7372.523
784.9150, 7377.353
785.3971, 7378.125
785.8792, 7371.775
786.3613, 7365.464
786.8434, 7369.516
787.3256, 7378.104
787.8077, 7381.162
788.2898, 7369.028
788.7719, 7364.819
789.2540, 7387.231
789.7361, 7417.502
790.2183, 7430.842
790.7004, 7417.170
791.1825, 7407.668
791.6646, 7405.009
792.1467, 7407.674
792.6288, 7414.249
793.1110, 7424.310
793.5931, 7436.337
794.0752, 7453.155
794.5573, 7464.697
795.0394, 7452.358
795.5215, 7428.697
796.0037, 7415.716
796.4858, 7436.804
796.9679, 7451.317
797.4500, 7439.442
797.9321, 7416.935
798.4142, 7413.735
798.8964, 7437.605
799.3785, 7457.976
799.8606, 7468.575
800.3427, 7472.259
800.8248, 7472.542
801.3069, 7470.471
801.7891, 7471.294
802.2712, 7480.373
802.7533, 7489.325
803.2354, 7491.291
803.7175, 7487.399
804.1996, 7480.171
804.6818, 7456.014
805.1639, 7446.404
805.6460, 7469.701
806.1281, 7509.762
806.6102, 7515.530
807.0923, 7479.338
807.5745, 7448.636
808.0566, 7439.170
808.5387, 7444.131
809.0208, 7452.972
809.5029, 7464.530
809.9850, 7474.300
810.4672, 7475.167
810.9493, 7477.956
811.4314, 7498.338
811.9135, 7528.040
812.3956, 7534.523
812.8777, 7483.182
813.3599, 7448.947
813.8420, 7456.519
814.3241, 7493.466
814.8062, 7505.064
815.2883, 7490.485
815.7704, 7476.185
816.2526, 7471.444
816.7347, 7476.267
817.2168, 7501.221
817.6989, 7538.129
818.1810, 7557.697
818.6631, 7525.360
819.1453, 7492.136
819.6274, 7484.402
820.1095, 7499.294
820.5916, 7509.998
821.0737, 7519.860
821.5558, 7516.872
822.0380, 7487.981
822.5201, 7446.541
823.0022, 7447.274
823.4843, 7485.998
823.9664, 7517.749
824.4485, 7506.377
824.9307, 7484.401
825.4128, 7484.038
825.8949, 7501.935
826.3770, 7520.153
826.8591, 7543.526
827.3412, 7553.845
827.8234, 7537.048
828.3055, 7500.530
828.7876, 7493.276
829.2697, 7522.615
829.7518, 7545.541
830.2339, 7538.981
830.7161, 7514.957
831.1982, 7494.730
831.6803, 7479.934
832.1624, 7476.972
832.6445, 7505.783
833.1266, 7533.028
833.6088, 7539.509
834.0909, 7525.970
834.5730, 7502.317
835.0551, 7455.334
835.5372, 7422.726
836.0193, 7421.733
836.5015, 7443.207
836.9836, 7445.650
837.4657, 7429.259
837.9478, 7414.429
838.4299, 7411.728
838.9120, 7416.128
839.3942, 7423.882
839.8763, 7433.938
840.3584, 7442.473
840.8405, 7450.924
841.3226, 7454.358
841.8047, 7446.658
842.2869, 7431.984
842.7690, 7429.371
843.2511, 7443.840
843.7332, 7449.628
844.2153, 7430.732
844.6974, 7401.991
845.1796, 7404.052
845.6617, 7430.873
846.1438, 7456.344
846.6259, 7468.823
847.1080, 7473.678
847.5901, 7473.029
848.0723, 7467.479
848.5544, 7458.475
849.0365, 7441.175
849.5186, 7429.113
850.0007, 7427.743
850.4828, 7432.449
850.9650, 7427.193
851.4471, 7412.514
851.9292, 7402.329
852.4113, 7405.279
852.8934, 7411.789
853.3755, 7408.591
853.8577, 7399.931
854.3398, 7395.773
854.8219, 7406.493
855.3040, 7414.600
855.7861, 7412.095
856.2682, 7404.254
856.7504, 7403.413
857.2325, 7412.175
857.7146, 7412.954
858.1967, 7396.685
858.6788, 7378.019
859.1609, 7387.971
859.6431, 7417.254
860.1252, 7438.371
860.6073, 7439.994
861.0894, 7432.685
861.5715, 7415.024
862.0536, 7393.737
862.5358, 7381.009
863.0179, 7379.009
863.5000, 7382.936
863.9821, 7395.293
864.4642, 7409.439
864.9464, 7415.375
865.4285, 7413.594
865.9106, 7405.873
866.3927, 7390.848
866.8748, 7375.396
867.3569, 7366.841
867.8391, 7361.633
868.3212, 7354.384
868.8033, 7335.535
869.2854, 7328.308
869.7675, 7343.835
870.2496, 7363.374
870.7318, 7363.498
871.2139, 7342.465
871.6960, 7329.311
872.1781, 7328.267
872.6602, 7330.691
873.1423, 7325.430
873.6245, 7317.566
874.1066, 7315.374
874.5887, 7321.705
875.0708, 7328.904
875.5529, 7332.238
876.0350, 7336.218
876.5172, 7345.083
876.9993, 7361.628
877.4814, 7372.060
877.9635, 7375.506
878.4456, 7375.511
878.9277, 7377.799
879.4099, 7378.900
879.8920, 7366.155
880.3741, 7338.230
880.8562, 7316.687
881.3383, 7318.938
881.8204, 7329.703
882.3026, 7339.158
882.7847, 7346.562
883.2668, 7351.258
883.7489, 7352.033
884.2310, 7352.569
884.7131, 7354.976
885.1953, 7358.979
885.6774, 7364.476
886.1594, 7371.209
886.6415, 7375.341
887.1237, 7371.161
887.6058, 7366.000
888.0879, 7366.455
888.5700, 7372.400
889.0521, 7376.515
889.5342, 7374.684
890.0164, 7376.234
890.4985, 7388.619
890.9806, 7406.110
891.4627, 7395.670
891.9448, 7359.180
892.4269, 7332.769
892.9091, 7345.021
893.3912, 7367.377
893.8733, 7364.924
894.3554, 7347.211
894.8375, 7341.561
895.3196, 7381.657
895.8018, 7402.227
896.2839, 7380.176
896.7660, 7335.063
897.2481, 7313.237
897.7302, 7315.692
898.2123, 7324.687
898.6945, 7340.439
899.1766, 7350.371
899.6587, 7327.246
900.1408, 7289.062
900.6229, 7268.681
901.1050, 7296.275
901.5872, 7314.429
902.0693, 7294.266
902.5514, 7264.498
903.0335, 7257.398
903.5156, 7279.315
903.9977, 7287.428
904.4799, 7275.122
904.9620, 7258.388
905.4441, 7258.553
905.9262, 7266.513
906.4083, 7263.957
906.8904, 7245.403
907.3726, 7229.980
907.8547, 7226.667
908.3368, 7230.024
908.8189, 7238.083
909.3010, 7254.469
909.7831, 7253.873
910.2653, 7232.134
910.7474, 7210.740
911.2295, 7208.047
911.7116, 7217.180
912.1937, 7223.165
912.6758, 7225.559
913.1580, 7227.881
913.6401, 7231.914
914.1222, 7236.495
914.6043, 7241.826
915.0864, 7247.602
915.5685, 7251.842
916.0507, 7257.756
916.5328, 7250.737
917.0149, 7213.995
917.4970, 7168.719
917.9791, 7177.104
918.4612, 7224.846
918.9434, 7257.826
919.4255, 7230.170
919.9076, 7200.991
920.3897, 7204.657
920.8718, 7229.000
921.3539, 7241.612
921.8361, 7236.098
922.3182, 7233.718
922.8003, 7239.285
923.2824, 7246.233
923.7645, 7237.895
924.2466, 7221.297
924.7288, 7219.935
925.2109, 7244.153
925.6930, 7271.697
926.1751, 7298.966
926.6572, 7316.508
927.1393, 7311.137
927.6215, 7267.723
928.1036, 7239.234
928.5857, 7228.831
929.0678, 7226.924
929.5499, 7226.580
930.0320, 7227.644
930.5142, 7228.174
930.9963, 7228.196
931.4784, 7232.667
931.9605, 7260.874
932.4426, 7281.925
932.9247, 7268.024
933.4069, 7214.857
933.8890, 7176.222
934.3711, 7152.231
934.8532, 7142.216
935.3353, 7151.988
935.8174, 7172.568
936.2996, 7174.887
936.7817, 7162.144
937.2638, 7149.524
937.7459, 7138.960
938.2280, 7136.611
938.7101, 7151.026
939.1923, 7176.213
939.6744, 7194.820
940.1565, 7204.804
940.6386, 7213.208
941.1207, 7221.752
941.6028, 7228.387
942.0850, 7230.031
942.5671, 7226.972
943.0492, 7220.413
943.5313, 7210.907
944.0134, 7196.912
944.4955, 7165.021
944.9777, 7135.564
945.4598, 7131.379
945.9419, 7163.880
946.4240, 7188.839
946.9061, 7206.249
947.3882, 7216.452
947.8704, 7216.379
948.3525, 7210.206
948.8346, 7208.843
949.3167, 7212.616
949.7988, 7216.525
950.2809, 7222.283
950.7631, 7223.161
951.2452, 7210.245
951.7273, 7186.274
952.2094, 7175.875
952.6915, 7181.170
953.1736, 7191.678
953.6558, 7207.705
954.1379, 7221.685
954.6200, 7210.383
955.1021, 7184.093
955.5842, 7171.027
956.0663, 7198.009
956.5485, 7223.305
957.0306, 7231.217
957.5127, 7229.268
957.9948, 7228.342
958.4769, 7229.245
958.9590, 7225.141
959.4412, 7212.344
959.9233, 7205.720
960.4054, 7236.271
960.8875, 7279.797
961.3696, 7290.612
961.8517, 7254.714
962.3339, 7228.283
962.8160, 7243.582
963.2981, 7263.402
963.7802, 7265.308
964.2623, 7248.890
964.7444, 7239.301
965.2266, 7236.591
965.7087, 7239.396
966.1908, 7255.411
966.6729, 7270.793
967.1550, 7264.337
967.6371, 7241.157
968.1193, 7220.104
968.6014, 7203.534
969.0835, 7195.813
969.5656, 7200.861
970.0477, 7212.917
970.5298, 7221.781
971.0120, 7227.186
971.4941, 7221.656
971.9762, 7199.584
972.4583, 7178.946
972.9404, 7180.081
973.4225, 7192.566
973.9047, 7203.404
974.3868, 7207.670
974.8689, 7216.533
975.3510, 7233.732
975.8331, 7250.181
976.3152, 7260.088
976.7974, 7263.316
977.2795, 7258.105
977.7616, 7244.868
978.2437, 7230.563
978.7258, 7204.417
979.2079, 7192.387
979.6901, 7225.224
980.1722, 7295.447
980.6543, 7340.035
981.1364, 7357.879
981.6185, 7344.600
982.1006, 7287.368
982.5828, 7214.763
983.0649, 7186.154
983.5470, 7190.700
984.0291, 7197.701
984.5112, 7198.559
984.9933, 7196.890
985.4755, 7191.390
985.9576, 7186.167
986.4397, 7185.517
986.9218, 7190.289
987.4039, 7197.731
987.8860, 7209.000
988.3682, 7217.070
988.8503, 7216.349
989.3324, 7207.993
989.8145, 7191.036
990.2966, 7166.341
990.7787, 7145.212
991.2609, 7138.076
991.7430, 7127.690
992.2251, 7099.421
992.7072, 7064.446
993.1893, 7080.688
993.6714, 7146.949
994.1536, 7188.143
994.6357, 7166.921
995.1178, 7128.292
995.5999, 7113.593
996.0820, 7116.770
996.5641, 7129.393
997.0463, 7162.157
997.5284, 7185.246
998.0105, 7199.367
998.4926, 7201.563
998.9747, 7178.454
999.4568, 7138.237
999.9390, 7131.315
1000.421, 7159.674
1000.903, 7189.657
1001.385, 7203.182
1001.867, 7205.725
1002.350, 7195.428
1002.832, 7174.243
1003.314, 7165.260
1003.796, 7172.527
1004.278, 7177.050
1004.760, 7170.000
1005.242, 7160.281
1005.724, 7167.636
1006.206, 7185.216
1006.689, 7197.631
1007.171, 7202.077
1007.653, 7196.923
1008.135, 7163.533
1008.617, 7133.544
1009.099, 7144.128
1009.581, 7202.111
1010.063, 7210.041
1010.545, 7160.185
1011.028, 7113.234
1011.510, 7131.265
1011.992, 7168.913
1012.474, 7178.087
1012.956, 7158.461
1013.438, 7140.918
1013.920, 7125.128
1014.402, 7122.339
1014.885, 7142.134
1015.367, 7170.281
1015.849, 7167.011
1016.331, 7140.174
1016.813, 7125.333
1017.295, 7140.010
1017.777, 7154.981
1018.259, 7143.301
1018.741, 7127.775
1019.224, 7135.912
1019.706, 7182.020
1020.188, 7198.450
1020.670, 7180.702
1021.152, 7154.913
1021.634, 7129.460
1022.116, 7115.727
1022.598, 7147.443
1023.081, 7214.759
1023.563, 7255.343
1024.045, 7215.169
1024.527, 7181.269
1025.009, 7181.595
1025.491, 7200.724
1025.973, 7202.489
1026.455, 7188.058
1026.938, 7169.698
1027.420, 7146.656
1027.902, 7134.971
1028.384, 7161.508
1028.866, 7199.855
1029.348, 7220.996
1029.830, 7216.394
1030.312, 7212.684
1030.794, 7208.659
1031.276, 7209.662
1031.759, 7223.409
1032.241, 7243.718
1032.723, 7260.252
1033.205, 7269.763
1033.687, 7258.963
1034.169, 7188.885
1034.651, 7135.667
1035.133, 7132.222
1035.616, 7156.513
1036.098, 7179.020
1036.580, 7200.260
1037.062, 7203.356
1037.544, 7182.889
1038.026, 7163.253
1038.508, 7173.048
1038.990, 7192.452
1039.473, 7202.383
1039.955, 7199.911
1040.437, 7187.234
1040.919, 7154.797
1041.401, 7136.023
1041.883, 7153.584
1042.365, 7189.434
1042.847, 7191.778
1043.329, 7170.334
1043.812, 7157.233
1044.294, 7174.554
1044.776, 7192.025
1045.258, 7201.184
1045.740, 7202.694
1046.222, 7195.741
1046.704, 7178.699
1047.186, 7163.815
1047.668, 7150.886
1048.151, 7147.757
1048.633, 7175.644
1049.115, 7206.125
1049.597, 7205.008
1050.079, 7173.978
1050.561, 7150.330
1051.043, 7135.566
1051.525, 7135.118
1052.008, 7155.231
1052.490, 7183.523
1052.972, 7193.616
1053.454, 7191.234
1053.936, 7194.548
1054.418, 7212.230
1054.900, 7222.703
1055.382, 7197.107
1055.865, 7175.870
1056.347, 7194.854
1056.829, 7257.068
1057.311, 7279.103
1057.793, 7259.974
1058.275, 7235.744
1058.757, 7227.452
1059.239, 7226.814
1059.721, 7229.734
1060.203, 7234.024
1060.686, 7233.469
1061.168, 7221.792
1061.650, 7218.320
1062.132, 7229.349
1062.614, 7239.706
1063.096, 7226.675
1063.578, 7198.645
1064.060, 7173.725
1064.543, 7153.814
1065.025, 7142.871
1065.507, 7147.316
1065.989, 7156.982
1066.471, 7168.339
1066.953, 7180.553
1067.435, 7194.453
1067.917, 7209.022
1068.400, 7197.063
1068.882, 7130.097
1069.364, 7075.228
1069.846, 7113.868
1070.328, 7189.700
1070.810, 7231.502
1071.292, 7219.191
1071.774, 7211.461
1072.256, 7209.338
1072.739, 7207.553
1073.221, 7201.595
1073.703, 7193.533
1074.185, 7184.556
1074.667, 7176.469
1075.149, 7176.260
1075.631, 7201.796
1076.113, 7215.127
1076.595, 7206.369
1077.078, 7185.644
1077.560, 7167.674
1078.042, 7151.987
1078.524, 7135.226
1079.006, 7116.868
1079.488, 7101.884
1079.970, 7091.657
1080.452, 7088.198
1080.934, 7096.208
1081.417, 7113.547
1081.899, 7127.661
1082.381, 7138.979
1082.863, 7140.354
1083.345, 7123.202
1083.827, 7105.810
1084.309, 7120.371
1084.791, 7146.404
1085.274, 7152.099
1085.756, 7114.067
1086.238, 7092.536
1086.720, 7092.359
1087.202, 7102.248
1087.684, 7120.961
1088.166, 7142.343
1088.648, 7143.570
1089.130, 7128.869
1089.613, 7116.396
1090.095, 7119.036
1090.577, 7119.987
1091.059, 7114.574
1091.541, 7104.483
1092.023, 7088.326
1092.505, 7067.093
1092.987, 7059.108
1093.469, 7066.938
1093.952, 7076.866
1094.434, 7078.329
1094.916, 7077.158
1095.398, 7076.413
1095.880, 7076.696
1096.362, 7080.263
1096.844, 7086.416
1097.326, 7101.567
1097.809, 7133.081
1098.291, 7161.424
1098.773, 7152.531
1099.255, 7125.957
1099.737, 7110.788
1100.219, 7116.546
1100.701, 7123.223
1101.183, 7132.014
1101.666, 7135.984
1102.148, 7129.052
1102.630, 7114.901
1103.112, 7101.408
1103.594, 7090.388
1104.076, 7088.109
1104.558, 7107.428
1105.040, 7122.809
1105.522, 7122.908
1106.005, 7119.352
1106.487, 7124.717
1106.969, 7138.497
1107.451, 7152.383
1107.933, 7165.701
1108.415, 7168.737
1108.897, 7143.848
1109.379, 7116.579
1109.861, 7110.532
1110.344, 7116.522
1110.826, 7097.471
1111.308, 7047.025
1111.790, 7018.591
1112.272, 7025.679
1112.754, 7043.578
1113.236, 7047.680
1113.718, 7045.189
1114.201, 7043.541
1114.683, 7043.563
1115.165, 7045.149
1115.647, 7046.265
1116.129, 7054.828
1116.611, 7080.321
1117.093, 7106.394
1117.575, 7093.062
1118.057, 7056.803
1118.540, 7034.041
1119.022, 7043.558
1119.504, 7048.829
1119.986, 7042.164
1120.468, 7031.001
1120.950, 7012.292
1121.432, 6992.219
1121.914, 7021.929
1122.396, 7090.020
1122.879, 7133.594
1123.361, 7101.271
1123.843, 7058.989
1124.325, 7025.073
1124.807, 7002.330
1125.289, 6997.094
1125.771, 7009.665
1126.253, 7021.964
1126.736, 7032.612
1127.218, 7044.143
1127.700, 7061.771
1128.182, 7077.793
1128.664, 7083.874
1129.146, 7082.456
1129.628, 7086.763
1130.110, 7097.685
1130.593, 7108.952
1131.075, 7120.092
1131.557, 7127.845
1132.039, 7128.916
1132.521, 7124.300
1133.003, 7113.499
1133.485, 7095.933
1133.967, 7082.314
1134.449, 7073.179
1134.932, 7069.490
1135.414, 7075.709
1135.896, 7081.811
1136.378, 7060.626
1136.860, 7028.307
1137.342, 7016.774
1137.824, 7041.267
1138.306, 7067.514
1138.788, 7099.531
1139.271, 7116.886
1139.753, 7098.887
1140.235, 7058.397
1140.717, 7039.188
1141.199, 7038.114
1141.681, 7045.007
1142.163, 7067.086
1142.645, 7080.896
1143.128, 7078.079
1143.610, 7066.508
1144.092, 7050.516
1144.574, 7031.210
1145.056, 7020.086
1145.538, 7016.995
1146.020, 7014.425
1146.502, 7009.297
1146.984, 7002.215
1147.467, 6984.375
1147.949, 6969.109
1148.431, 6986.840
1148.913, 7038.768
1149.395, 7065.108
1149.877, 7056.782
1150.359, 7043.257
1150.841, 7044.943
1151.323, 7054.387
1151.806, 7070.369
1152.288, 7089.500
1152.770, 7094.238
1153.252, 7081.391
1153.734, 7077.105
1154.216, 7089.541
1154.698, 7104.381
1155.180, 7110.531
1155.663, 7107.942
1156.145, 7092.477
1156.627, 7061.244
1157.109, 7047.536
1157.591, 7056.165
1158.073, 7063.723
1158.555, 7057.642
1159.037, 7051.879
1159.520, 7074.091
1160.002, 7107.820
1160.484, 7127.515
1160.966, 7125.395
1161.448, 7110.684
1161.930, 7075.664
1162.412, 7049.712
1162.894, 7056.360
1163.376, 7078.795
1163.859, 7083.143
1164.341, 7074.056
1164.823, 7062.356
1165.305, 7042.097
1165.787, 7036.711
1166.269, 7056.103
1166.751, 7075.193
1167.233, 7066.498
1167.715, 7042.106
1168.198, 7040.580
1168.680, 7058.156
1169.162, 7073.939
1169.644, 7080.199
1170.126, 7080.122
1170.608, 7069.354
1171.090, 7059.540
1171.572, 7069.263
1172.055, 7092.416
1172.537, 7103.808
1173.019, 7102.107
1173.501, 7096.138
1173.983, 7086.128
1174.465, 7077.598
1174.947, 7070.319
1175.429, 7067.390
1175.911, 7077.491
1176.394, 7098.452
1176.876, 7116.526
1177.358, 7130.222
1177.840, 7138.813
1178.322, 7139.663
1178.804, 7137.594
1179.286, 7133.567
1179.768, 7129.401
1180.250, 7133.935
1180.733, 7145.394
1181.215, 7145.385
1181.697, 7127.313
1182.179, 7109.262
1182.661, 7099.737
1183.143, 7098.891
1183.625, 7109.402
1184.107, 7128.581
1184.590, 7140.138
1185.072, 7144.136
1185.554, 7141.168
1186.036, 7127.829
1186.518, 7117.051
1187.000, 7124.377
1187.482, 7134.655
1187.964, 7131.913
1188.447, 7116.051
1188.929, 7111.612
1189.411, 7118.567
1189.893, 7124.645
1190.375, 7123.602
1190.857, 7120.507
1191.339, 7118.636
1191.821, 7117.592
1192.303, 7118.092
1192.786, 7121.881
1193.268, 7110.150
1193.750, 7081.915
1194.232, 7064.776
1194.714, 7083.844
1195.196, 7113.435
1195.678, 7142.711
1196.160, 7164.055
1196.642, 7163.991
1197.125, 7135.756
1197.607, 7118.415
1198.089, 7113.211
1198.571, 7114.469
1199.053, 7125.125
1199.535, 7133.875
1200.017, 7127.257
1200.499, 7112.023
1200.981, 7104.663
1201.464, 7106.723
1201.946, 7113.146
1202.428, 7124.280
1202.910, 7132.473
1203.392, 7128.810
1203.874, 7120.951
1204.356, 7114.816
1204.838, 7110.555
1205.321, 7106.459
1205.803, 7101.300
1206.285, 7100.652
1206.767, 7104.700
1207.249, 7116.401
1207.731, 7148.248
1208.213, 7181.570
1208.695, 7200.790
1209.177, 7204.277
1209.660, 7193.550
1210.142, 7162.854
1210.624, 7153.820
1211.106, 7179.119
1211.588, 7203.116
1212.070, 7179.128
1212.552, 7141.400
1213.034, 7120.075
1213.516, 7119.042
1213.999, 7139.116
1214.481, 7186.803
1214.963, 7215.285
1215.445, 7210.961
1215.927, 7193.417
1216.409, 7179.101
1216.891, 7166.324
1217.373, 7151.379
1217.856, 7134.587
1218.338, 7129.438
1218.820, 7136.937
1219.302, 7151.292
1219.784, 7174.638
1220.266, 7192.712
1220.748, 7183.406
1221.230, 7165.474
1221.713, 7159.653
1222.195, 7167.700
1222.677, 7174.703
1223.159, 7180.399
1223.641, 7187.230
1224.123, 7197.787
1224.605, 7205.405
1225.087, 7197.762
1225.569, 7186.732
1226.052, 7188.077
1226.534, 7203.152
1227.016, 7210.187
1227.498, 7208.659
1227.980, 7207.712
1228.462, 7213.042
1228.944, 7217.293
1229.426, 7209.711
1229.908, 7199.781
1230.391, 7200.265
1230.873, 7212.899
1231.355, 7217.056
1231.837, 7212.585
1232.319, 7210.458
1232.801, 7218.137
1233.283, 7227.181
1233.765, 7228.336
1234.248, 7228.601
1234.730, 7239.112
1235.212, 7262.345
1235.694, 7258.926
1236.176, 7229.771
1236.658, 7213.214
1237.140, 7245.058
1237.622, 7277.713
1238.104, 7276.437
1238.587, 7260.422
1239.069, 7253.274
1239.551, 7255.644
1240.033, 7261.224
1240.515, 7269.243
1240.997, 7266.200
1241.479, 7227.464
1241.961, 7195.034
1242.443, 7195.267
1242.926, 7212.705
1243.408, 7234.425
1243.890, 7260.329
1244.372, 7273.046
1244.854, 7273.438
1245.336, 7272.655
1245.818, 7275.536
1246.300, 7280.042
1246.783, 7287.677
1247.265, 7293.975
1247.747, 7294.322
1248.229, 7289.020
1248.711, 7278.588
1249.193, 7264.256
1249.675, 7254.387
1250.157, 7259.287
1250.640, 7261.562
1251.122, 7255.112
1251.604, 7245.901
1252.086, 7238.401
1252.568, 7233.610
1253.050, 7240.977
1253.532, 7256.893
1254.014, 7259.156
1254.496, 7213.352
1254.979, 7187.312
1255.461, 7198.408
1255.943, 7224.171
1256.425, 7245.415
1256.907, 7259.681
1257.389, 7253.184
1257.871, 7231.492
1258.353, 7225.870
1258.835, 7269.718
1259.318, 7296.541
1259.800, 7294.996
1260.282, 7282.650
1260.764, 7277.496
1261.246, 7276.238
1261.728, 7276.771
1262.210, 7276.924
1262.692, 7266.006
1263.175, 7232.783
1263.657, 7207.039
1264.139, 7189.876
1264.621, 7190.119
1265.103, 7235.287
1265.585, 7290.790
1266.067, 7313.083
1266.549, 7304.978
1267.031, 7286.783
1267.514, 7251.759
1267.996, 7239.015
1268.478, 7254.245
1268.960, 7278.157
1269.442, 7291.806
1269.924, 7305.705
1270.406, 7336.581
1270.888, 7375.962
1271.370, 7392.018
1271.853, 7380.813
1272.335, 7376.271
1272.817, 7382.416
1273.299, 7388.101
1273.781, 7385.329
1274.263, 7377.806
1274.745, 7363.787
1275.227, 7349.004
1275.710, 7346.705
1276.192, 7356.691
1276.674, 7359.528
1277.156, 7353.472
1277.638, 7345.512
1278.120, 7333.585
1278.602, 7329.417
1279.084, 7344.363
1279.567, 7364.792
1280.049, 7369.989
1280.531, 7361.728
1281.013, 7342.085
1281.495, 7313.235
1281.977, 7305.503
1282.459, 7363.751
1282.941, 7402.939
1283.423, 7394.131
1283.906, 7367.831
1284.388, 7365.577
1284.870, 7378.906
1285.352, 7389.774
1285.834, 7396.023
1286.316, 7395.145
1286.798, 7381.228
1287.280, 7367.677
1287.762, 7354.206
1288.245, 7347.189
1288.727, 7359.464
1289.209, 7379.782
1289.691, 7391.749
1290.173, 7396.092
1290.655, 7403.176
1291.137, 7418.884
1291.619, 7417.698
1292.102, 7391.403
##END=



