##NAMES=Perite
##RRUFFID=R060766
##IDEAL CHEMISTRY=Pb^2+^Bi^3+^O_2_Cl
##LOCALITY=Blue Bell mine, San Bernardino, California, USA
##OWNER=RRUFF
##SOURCE=Michael Scott
##DESCRIPTION=Pale straw-yellow granular, associated with fluorite, hemimorphite, quartz and chlorargyrite
##STATUS=The identification of this mineral has been confirmed by X-ray diffraction.
##URL=rruff.info/R060766
120.5635, 2147.823
121.0456, 2366.976
121.5277, 2643.131
122.0098, 2991.531
122.4919, 3414.364
122.9741, 3907.830
123.4562, 4469.898
123.9383, 5090.731
124.4204, 5776.242
124.9025, 6536.902
125.3846, 7355.836
125.8668, 8181.510
126.3489, 9040.249
126.8310, 9864.025
127.3131, 10655.45
127.7952, 11403.42
128.2773, 12097.48
128.7595, 12715.78
129.2416, 13273.51
129.7237, 13856.93
130.2058, 14525.37
130.6879, 15153.85
131.1700, 15738.00
131.6522, 16259.79
132.1343, 16691.55
132.6164, 17003.93
133.0985, 17198.37
133.5806, 17376.56
134.0627, 17458.99
134.5449, 17600.68
135.0270, 17813.59
135.5091, 18120.13
135.9912, 18549.47
136.4733, 19117.53
136.9554, 19818.68
137.4376, 20736.77
137.9197, 21802.26
138.4018, 23113.65
138.8839, 24721.83
139.3660, 26615.34
139.8481, 28761.99
140.3303, 31108.36
140.8124, 33636.07
141.2945, 36535.24
141.7766, 39778.58
142.2587, 43309.45
142.7408, 47113.64
143.2230, 51173.71
143.7051, 55439.59
144.1872, 59881.49
144.6693, 64533.79
145.1514, 69315.93
145.6335, 74244.27
146.1156, 79256.95
146.5978, 84364.70
147.0799, 89556.55
147.5620, 94769.46
148.0441, 99974.66
148.5262, 105193.2
149.0083, 110299.0
149.4905, 115415.8
149.9726, 120370.9
150.4547, 125121.4
150.9368, 129657.3
151.4189, 133847.2
151.9010, 137587.8
152.3832, 140925.1
152.8653, 143476.8
153.3474, 145377.1
153.8295, 146397.0
154.3116, 146365.0
154.7937, 145251.0
155.2759, 142944.5
155.7580, 139092.0
156.2401, 133537.6
156.7222, 127385.6
157.2043, 120519.9
157.6864, 113221.4
158.1686, 105757.3
158.6507, 98112.54
159.1328, 90667.13
159.6149, 83965.30
160.0970, 77878.27
160.5791, 72485.21
161.0613, 67889.21
161.5434, 63960.95
162.0255, 60517.43
162.5076, 57563.38
162.9897, 55016.27
163.4718, 52868.00
163.9540, 51090.59
164.4361, 49525.83
164.9182, 48172.32
165.4003, 46996.15
165.8824, 45944.27
166.3645, 45025.12
166.8467, 44200.89
167.3288, 43442.30
167.8109, 42747.05
168.2930, 42079.17
168.7751, 41414.71
169.2572, 40767.68
169.7394, 40191.72
170.2215, 39722.46
170.7036, 39288.34
171.1857, 38798.84
171.6678, 38256.10
172.1499, 37734.82
172.6321, 37263.10
173.1142, 36839.05
173.5963, 36461.36
174.0784, 36141.75
174.5605, 35851.14
175.0426, 35553.08
175.5248, 35247.84
176.0069, 34958.73
176.4890, 34690.40
176.9711, 34445.89
177.4532, 34233.71
177.9353, 34069.61
178.4175, 33921.82
178.8996, 33752.20
179.3817, 33563.26
179.8638, 33392.83
180.3459, 33269.77
180.8280, 33185.80
181.3102, 33101.60
181.7923, 32997.66
182.2744, 32912.29
182.7565, 32887.41
183.2386, 32914.67
183.7207, 32929.07
184.2029, 32865.61
184.6850, 32743.60
185.1671, 32678.77
185.6492, 32716.90
186.1313, 32776.39
186.6134, 32796.25
187.0956, 32781.08
187.5777, 32759.76
188.0598, 32756.77
188.5419, 32766.64
189.0240, 32752.04
189.5061, 32692.88
189.9883, 32629.94
190.4704, 32590.50
190.9525, 32571.40
191.4346, 32556.13
191.9167, 32534.11
192.3988, 32506.88
192.8810, 32480.69
193.3631, 32442.26
193.8452, 32426.16
194.3273, 32471.86
194.8094, 32559.76
195.2915, 32623.83
195.7737, 32602.56
196.2558, 32513.42
196.7379, 32461.13
197.2200, 32469.17
197.7021, 32487.73
198.1842, 32487.74
198.6664, 32474.71
199.1485, 32463.79
199.6306, 32479.92
200.1127, 32510.71
200.5948, 32482.99
201.0770, 32339.13
201.5591, 32224.40
202.0412, 32232.78
202.5233, 32322.81
203.0054, 32403.43
203.4875, 32423.63
203.9697, 32393.33
204.4518, 32346.32
204.9339, 32266.44
205.4160, 32196.41
205.8981, 32167.45
206.3802, 32159.83
206.8624, 32137.52
207.3445, 32072.15
207.8266, 31980.84
208.3087, 31915.98
208.7908, 31886.25
209.2729, 31867.73
209.7551, 31849.61
210.2372, 31834.06
210.7193, 31825.24
211.2014, 31826.78
211.6835, 31834.81
212.1656, 31840.55
212.6478, 31844.05
213.1299, 31844.95
213.6120, 31834.29
214.0941, 31823.84
214.5762, 31829.72
215.0583, 31861.82
215.5405, 31909.19
216.0226, 31951.10
216.5047, 31986.20
216.9868, 32020.66
217.4689, 32066.86
217.9510, 32110.70
218.4332, 32134.21
218.9153, 32127.67
219.3974, 32109.19
219.8795, 32103.91
220.3616, 32112.22
220.8437, 32133.65
221.3259, 32189.99
221.8080, 32249.27
222.2901, 32281.17
222.7722, 32275.06
223.2543, 32253.86
223.7364, 32241.95
224.2186, 32238.72
224.7007, 32248.21
225.1828, 32297.43
225.6649, 32343.92
226.1470, 32345.38
226.6291, 32290.16
227.1113, 32229.50
227.5934, 32216.85
228.0755, 32253.80
228.5576, 32292.92
229.0397, 32327.87
229.5218, 32356.80
230.0040, 32374.84
230.4861, 32381.44
230.9682, 32391.13
231.4503, 32417.70
231.9324, 32459.92
232.4145, 32501.74
232.8967, 32541.19
233.3788, 32578.45
233.8609, 32615.43
234.3430, 32651.66
234.8251, 32683.56
235.3072, 32711.21
235.7894, 32733.27
236.2715, 32739.17
236.7536, 32709.75
237.2357, 32692.05
237.7178, 32734.39
238.1999, 32823.29
238.6821, 32898.84
239.1642, 32928.80
239.6463, 32923.80
240.1284, 32906.20
240.6105, 32868.79
241.0926, 32839.62
241.5748, 32844.77
242.0569, 32874.52
242.5390, 32906.88
243.0211, 32935.11
243.5032, 32961.34
243.9853, 32992.86
244.4675, 33033.66
244.9496, 33062.92
245.4317, 33056.62
245.9138, 33029.44
246.3959, 33009.18
246.8780, 33005.43
247.3602, 33008.84
247.8423, 33004.20
248.3244, 32990.79
248.8065, 32994.75
249.2886, 33039.88
249.7707, 33109.79
250.2529, 33168.06
250.7350, 33205.14
251.2171, 33237.64
251.6992, 33284.58
252.1813, 33341.24
252.6634, 33375.79
253.1456, 33362.82
253.6277, 33327.44
254.1098, 33322.64
254.5919, 33356.34
255.0740, 33399.05
255.5561, 33440.42
256.0382, 33479.60
256.5204, 33514.91
257.0025, 33546.17
257.4846, 33572.47
257.9667, 33594.33
258.4488, 33616.44
258.9309, 33621.05
259.4131, 33578.37
259.8952, 33522.25
260.3773, 33510.57
260.8594, 33560.68
261.3415, 33631.45
261.8236, 33668.90
262.3058, 33666.20
262.7879, 33676.87
263.2700, 33718.34
263.7521, 33769.45
264.2342, 33812.86
264.7163, 33845.97
265.1985, 33868.56
265.6806, 33879.52
266.1627, 33877.32
266.6448, 33872.12
267.1269, 33855.54
267.6090, 33843.18
268.0912, 33848.66
268.5733, 33868.72
269.0554, 33888.35
269.5375, 33897.12
270.0196, 33895.47
270.5017, 33890.16
270.9839, 33876.46
271.4660, 33865.10
271.9481, 33851.95
272.4302, 33844.30
272.9123, 33855.52
273.3944, 33892.93
273.8766, 33953.09
274.3587, 34023.80
274.8408, 34146.71
275.3229, 34229.18
275.8050, 34225.67
276.2871, 34191.73
276.7693, 34186.98
277.2514, 34233.31
277.7335, 34316.09
278.2156, 34411.17
278.6977, 34547.90
279.1798, 34645.67
279.6620, 34680.67
280.1441, 34697.74
280.6262, 34730.14
281.1083, 34782.59
281.5904, 34837.00
282.0725, 34865.86
282.5547, 34851.43
283.0368, 34885.80
283.5189, 35022.57
284.0010, 35156.95
284.4831, 35247.19
284.9652, 35295.09
285.4474, 35318.81
285.9295, 35329.33
286.4116, 35327.63
286.8937, 35330.89
287.3758, 35356.66
287.8579, 35365.66
288.3401, 35347.87
288.8222, 35306.83
289.3043, 35242.05
289.7864, 35144.52
290.2685, 35039.52
290.7506, 35003.50
291.2328, 35078.91
291.7149, 35129.43
292.1970, 35095.04
292.6791, 35030.08
293.1612, 34983.55
293.6433, 34970.25
294.1255, 34973.29
294.6076, 34971.70
295.0897, 34964.32
295.5718, 34963.66
296.0539, 34972.55
296.5360, 34989.54
297.0182, 35019.84
297.5003, 35062.98
297.9824, 35094.12
298.4645, 35072.14
298.9466, 35015.91
299.4287, 35021.77
299.9109, 35131.57
300.3930, 35251.41
300.8751, 35293.22
301.3572, 35273.07
301.8393, 35257.11
302.3214, 35272.36
302.8036, 35303.89
303.2857, 35337.61
303.7678, 35374.75
304.2499, 35392.16
304.7320, 35361.19
305.2141, 35296.94
305.6963, 35255.86
306.1784, 35264.75
306.6605, 35278.07
307.1426, 35264.40
307.6247, 35228.71
308.1068, 35190.46
308.5890, 35158.75
309.0711, 35130.81
309.5532, 35100.66
310.0353, 35076.13
310.5174, 35036.86
310.9995, 34966.02
311.4817, 34880.58
311.9638, 34810.19
312.4459, 34763.98
312.9280, 34718.64
313.4101, 34636.09
313.8922, 34481.52
314.3744, 34385.01
314.8565, 34403.25
315.3386, 34437.37
315.8207, 34412.36
316.3028, 34328.53
316.7849, 34235.32
317.2671, 34175.37
317.7492, 34150.66
318.2313, 34132.56
318.7134, 34130.14
319.1955, 34124.56
319.6776, 34110.04
320.1598, 34088.23
320.6419, 34062.34
321.1240, 34033.66
321.6061, 34002.73
322.0882, 33969.17
322.5703, 33913.52
323.0525, 33887.84
323.5346, 33916.16
324.0167, 33962.92
324.4988, 33996.06
324.9809, 34007.24
325.4630, 34011.46
325.9452, 34035.81
326.4273, 34089.20
326.9094, 34108.44
327.3915, 34044.80
327.8736, 33981.39
328.3557, 33971.63
328.8379, 34006.64
329.3200, 34035.18
329.8021, 34020.44
330.2842, 33970.18
330.7663, 33907.88
331.2484, 33819.18
331.7306, 33752.84
332.2127, 33768.23
332.6948, 33820.24
333.1769, 33830.45
333.6590, 33754.13
334.1411, 33651.87
334.6233, 33593.30
335.1054, 33576.89
335.5875, 33559.83
336.0696, 33532.59
336.5517, 33487.68
337.0338, 33407.44
337.5160, 33271.86
337.9981, 33162.71
338.4802, 33131.25
338.9623, 33147.41
339.4444, 33156.01
339.9265, 33143.54
340.4087, 33123.86
340.8908, 33111.59
341.3729, 33106.87
341.8550, 33111.09
342.3371, 33133.25
342.8192, 33156.96
343.3014, 33168.97
343.7835, 33170.41
344.2656, 33174.34
344.7477, 33193.50
345.2298, 33223.14
345.7119, 33213.98
346.1941, 33100.16
346.6762, 33025.61
347.1583, 33040.47
347.6404, 33104.12
348.1225, 33166.86
348.6046, 33208.54
349.0868, 33233.52
349.5689, 33249.03
350.0510, 33252.29
350.5331, 33251.36
351.0152, 33241.78
351.4973, 33232.54
351.9795, 33229.93
352.4616, 33233.76
352.9437, 33239.43
353.4258, 33246.77
353.9079, 33254.88
354.3900, 33242.57
354.8722, 33186.34
355.3543, 33144.77
355.8364, 33160.43
356.3185, 33201.76
356.8006, 33215.45
357.2827, 33172.80
357.7649, 33104.95
358.2470, 33053.44
358.7291, 33018.95
359.2112, 32996.44
359.6933, 32998.58
360.1754, 33000.94
360.6576, 32967.80
361.1397, 32890.54
361.6218, 32822.77
362.1039, 32802.18
362.5860, 32809.02
363.0681, 32794.90
363.5503, 32746.20
364.0324, 32707.67
364.5145, 32731.96
364.9966, 32821.65
365.4787, 32888.42
365.9608, 32911.39
366.4430, 32924.47
366.9251, 32942.55
367.4072, 32968.56
367.8893, 33008.86
368.3714, 33069.02
368.8535, 33142.57
369.3357, 33206.22
369.8178, 33254.04
370.2999, 33298.09
370.7820, 33337.77
371.2641, 33374.52
371.7462, 33411.50
372.2284, 33448.60
372.7105, 33480.56
373.1926, 33498.77
373.6747, 33498.34
374.1568, 33505.75
374.6389, 33535.70
375.1211, 33559.52
375.6032, 33562.53
376.0853, 33551.04
376.5674, 33541.57
377.0495, 33546.92
377.5316, 33557.50
378.0138, 33544.13
378.4959, 33497.61
378.9780, 33453.55
379.4601, 33429.70
379.9422, 33411.54
380.4243, 33386.36
380.9065, 33351.17
381.3886, 33314.30
381.8707, 33280.39
382.3528, 33249.85
382.8349, 33227.09
383.3170, 33217.26
383.7992, 33205.03
384.2813, 33165.62
384.7634, 33104.97
385.2455, 33066.58
385.7276, 33091.11
386.2097, 33116.17
386.6919, 33081.33
387.1740, 32995.54
387.6561, 32912.24
388.1382, 32860.61
388.6203, 32832.62
389.1024, 32800.39
389.5846, 32771.61
390.0667, 32728.92
390.5488, 32648.60
391.0309, 32564.67
391.5130, 32520.15
391.9951, 32520.25
392.4773, 32525.61
392.9594, 32485.52
393.4415, 32387.46
393.9236, 32322.85
394.4057, 32336.51
394.8878, 32339.28
395.3700, 32298.05
395.8521, 32225.68
396.3342, 32146.19
396.8163, 32070.10
397.2984, 31999.93
397.7805, 31944.57
398.2627, 31909.63
398.7448, 31867.53
399.2269, 31819.93
399.7090, 31754.35
400.1911, 31646.47
400.6732, 31494.50
401.1554, 31359.25
401.6375, 31295.74
402.1196, 31275.86
402.6017, 31227.40
403.0838, 31138.01
403.5659, 31045.59
404.0481, 30979.47
404.5302, 30935.79
405.0123, 30888.54
405.4944, 30826.13
405.9765, 30771.32
406.4586, 30755.69
406.9408, 30756.26
407.4229, 30709.33
407.9050, 30585.64
408.3871, 30440.27
408.8692, 30375.81
409.3513, 30456.33
409.8335, 30485.41
410.3156, 30414.92
410.7977, 30335.48
411.2798, 30313.69
411.7619, 30339.88
412.2440, 30355.88
412.7262, 30311.98
413.2083, 30222.78
413.6904, 30188.53
414.1725, 30249.31
414.6546, 30297.72
415.1367, 30298.93
415.6189, 30281.77
416.1010, 30272.93
416.5831, 30279.02
417.0652, 30293.79
417.5473, 30325.02
418.0294, 30366.78
418.5116, 30361.55
418.9937, 30281.62
419.4758, 30191.57
419.9579, 30151.94
420.4400, 30147.47
420.9221, 30130.15
421.4043, 30076.70
421.8864, 30016.22
422.3685, 29965.90
422.8506, 29928.08
423.3327, 29914.70
423.8148, 29936.72
424.2970, 29973.56
424.7791, 29978.22
425.2612, 29916.30
425.7433, 29890.79
426.2254, 29959.37
426.7076, 30029.55
427.1897, 30012.76
427.6718, 29916.46
428.1539, 29819.64
428.6360, 29788.59
429.1181, 29816.38
429.6003, 29820.37
430.0824, 29784.15
430.5645, 29746.29
431.0466, 29705.26
431.5287, 29671.22
432.0108, 29657.81
432.4930, 29668.69
432.9751, 29686.36
433.4572, 29688.13
433.9393, 29676.11
434.4214, 29681.56
434.9035, 29720.20
435.3857, 29755.82
435.8678, 29756.37
436.3499, 29731.68
436.8320, 29708.17
437.3141, 29686.97
437.7962, 29674.25
438.2784, 29684.36
438.7605, 29709.84
439.2426, 29718.69
439.7247, 29695.23
440.2068, 29657.29
440.6889, 29636.93
441.1711, 29636.17
441.6532, 29650.45
442.1353, 29695.59
442.6174, 29742.98
443.0995, 29771.50
443.5816, 29782.65
444.0638, 29789.74
444.5459, 29802.26
445.0280, 29818.30
445.5101, 29829.31
445.9922, 29836.42
446.4743, 29835.22
446.9565, 29814.50
447.4386, 29792.53
447.9207, 29789.31
448.4028, 29806.84
448.8849, 29821.34
449.3670, 29801.52
449.8492, 29759.67
450.3313, 29752.62
450.8134, 29793.73
451.2955, 29840.01
451.7776, 29870.11
452.2597, 29884.03
452.7419, 29880.85
453.2239, 29847.44
453.7061, 29815.19
454.1882, 29802.18
454.6703, 29802.18
455.1524, 29799.14
455.6345, 29788.19
456.1166, 29786.34
456.5988, 29816.74
457.0809, 29887.51
457.5630, 29952.21
458.0451, 30015.13
458.5272, 30067.94
459.0093, 30090.95
459.4915, 30103.82
459.9736, 30144.85
460.4557, 30233.93
460.9378, 30341.36
461.4199, 30404.14
461.9020, 30408.26
462.3842, 30432.72
462.8663, 30507.92
463.3484, 30588.85
463.8305, 30644.12
464.3126, 30678.17
464.7947, 30715.64
465.2769, 30764.89
465.7590, 30825.90
466.2411, 30901.32
466.7232, 30990.85
467.2053, 31085.79
467.6874, 31183.78
468.1696, 31284.96
468.6517, 31392.27
469.1338, 31514.36
469.6159, 31619.64
470.0980, 31692.54
470.5801, 31754.56
471.0623, 31810.54
471.5444, 31869.46
472.0265, 31961.76
472.5086, 32115.69
472.9907, 32313.98
473.4728, 32451.10
473.9550, 32477.60
474.4371, 32524.46
474.9192, 32601.51
475.4013, 32710.98
475.8834, 32868.82
476.3655, 33071.36
476.8477, 33272.47
477.3298, 33440.44
477.8119, 33577.98
478.2940, 33683.04
478.7761, 33746.65
479.2582, 33819.70
479.7404, 33936.13
480.2225, 34082.82
480.7046, 34221.03
481.1867, 34349.45
481.6688, 34472.41
482.1509, 34577.34
482.6331, 34683.75
483.1152, 34819.13
483.5973, 34987.18
484.0794, 35175.62
484.5615, 35378.48
485.0436, 35595.22
485.5258, 35762.73
486.0079, 35810.73
486.4900, 35887.17
486.9721, 36040.89
487.4542, 36224.84
487.9363, 36391.33
488.4185, 36525.71
488.9006, 36637.07
489.3827, 36732.48
489.8648, 36812.13
490.3469, 36877.32
490.8290, 36917.53
491.3112, 36965.91
491.7933, 37058.14
492.2754, 37172.09
492.7575, 37263.97
493.2396, 37321.45
493.7217, 37366.17
494.2039, 37413.28
494.6860, 37456.05
495.1681, 37475.72
495.6502, 37468.36
496.1323, 37463.95
496.6144, 37501.54
497.0966, 37590.44
497.5787, 37620.71
498.0608, 37546.45
498.5429, 37470.50
499.0250, 37413.28
499.5071, 37373.05
499.9893, 37354.82
500.4714, 37358.86
500.9535, 37354.26
501.4356, 37295.24
501.9177, 37182.88
502.3998, 37082.35
502.8820, 37002.28
503.3641, 36926.30
503.8462, 36841.36
504.3283, 36752.58
504.8104, 36671.88
505.2925, 36610.23
505.7747, 36543.91
506.2568, 36457.12
506.7389, 36355.28
507.2210, 36248.46
507.7031, 36139.73
508.1852, 36022.48
508.6674, 35888.56
509.1495, 35735.37
509.6316, 35590.94
510.1137, 35472.93
510.5958, 35341.68
511.0779, 35172.36
511.5601, 34989.64
512.0422, 34828.23
512.5243, 34698.11
513.0064, 34575.30
513.4885, 34429.88
513.9706, 34263.55
514.4528, 34106.05
514.9349, 33965.76
515.4170, 33819.23
515.8991, 33645.40
516.3812, 33456.14
516.8633, 33273.43
517.3455, 33094.84
517.8276, 32933.81
518.3097, 32813.63
518.7918, 32710.59
519.2739, 32588.35
519.7560, 32439.29
520.2382, 32274.57
520.7203, 32101.85
521.2024, 31921.58
521.6845, 31764.19
522.1666, 31636.41
522.6487, 31526.42
523.1309, 31458.17
523.6130, 31392.41
524.0951, 31276.14
524.5772, 31102.77
525.0593, 30934.38
525.5414, 30848.70
526.0236, 30819.55
526.5057, 30725.10
526.9878, 30545.95
527.4699, 30369.43
527.9520, 30246.70
528.4341, 30160.44
528.9163, 30064.11
529.3984, 29951.90
529.8805, 29843.32
530.3626, 29739.97
530.8447, 29645.91
531.3268, 29570.49
531.8090, 29511.13
532.2911, 29448.10
532.7732, 29364.81
533.2553, 29268.33
533.7374, 29195.24
534.2195, 29159.42
534.7017, 29121.19
535.1838, 29078.04
535.6659, 29027.40
536.1480, 28965.08
536.6301, 28891.96
537.1122, 28814.99
537.5944, 28726.51
538.0765, 28642.11
538.5586, 28598.77
539.0407, 28593.46
539.5228, 28567.97
540.0049, 28493.81
540.4871, 28392.31
540.9692, 28296.34
541.4513, 28197.76
541.9334, 28131.68
542.4155, 28147.41
542.8976, 28151.88
543.3798, 28069.77
543.8619, 27932.81
544.3440, 27817.69
544.8261, 27764.21
545.3082, 27745.49
545.7903, 27714.08
546.2725, 27668.62
546.7546, 27621.42
547.2367, 27572.79
547.7188, 27524.45
548.2009, 27480.06
548.6830, 27437.01
549.1652, 27387.25
549.6473, 27324.01
550.1294, 27259.62
550.6115, 27200.42
551.0936, 27146.98
551.5757, 27099.88
552.0579, 27059.41
552.5400, 27026.20
553.0221, 27003.49
553.5042, 26992.43
553.9863, 26963.93
554.4684, 26896.84
554.9506, 26836.52
555.4327, 26794.25
555.9148, 26760.75
556.3969, 26702.84
556.8790, 26621.12
557.3611, 26602.74
557.8433, 26815.51
558.3254, 27145.17
558.8075, 27207.12
559.2896, 26961.20
559.7717, 26701.70
560.2538, 26576.87
560.7360, 26539.17
561.2181, 26474.92
561.7002, 26365.24
562.1823, 26280.78
562.6644, 26245.77
563.1465, 26228.88
563.6287, 26214.00
564.1108, 26195.98
564.5929, 26167.63
565.0750, 26123.23
565.5571, 26073.56
566.0392, 26047.87
566.5214, 26054.42
567.0035, 26043.28
567.4856, 26000.38
567.9677, 25945.80
568.4498, 25890.09
568.9319, 25834.84
569.4141, 25785.36
569.8962, 25745.70
570.3783, 25709.59
570.8604, 25672.29
571.3425, 25636.01
571.8246, 25607.79
572.3068, 25589.20
572.7889, 25569.00
573.2710, 25533.63
573.7531, 25483.08
574.2352, 25443.99
574.7173, 25429.65
575.1995, 25409.99
575.6816, 25360.52
576.1637, 25314.40
576.6458, 25315.56
577.1279, 25366.49
577.6100, 25407.16
578.0922, 25380.33
578.5743, 25318.50
579.0564, 25290.07
579.5385, 25295.69
580.0206, 25294.56
580.5027, 25266.08
580.9849, 25223.29
581.4670, 25192.72
581.9491, 25184.20
582.4312, 25163.41
582.9133, 25116.36
583.3954, 25070.38
583.8776, 25043.96
584.3597, 25028.93
584.8418, 25006.73
585.3239, 24969.05
585.8060, 24926.50
586.2881, 24889.67
586.7703, 24859.11
587.2524, 24850.81
587.7345, 24876.94
588.2166, 24897.52
588.6987, 24882.69
589.1808, 24840.68
589.6630, 24801.39
590.1451, 24761.51
590.6272, 24731.09
591.1093, 24719.25
591.5914, 24714.55
592.0735, 24709.65
592.5557, 24700.81
593.0378, 24679.22
593.5199, 24636.15
594.0020, 24580.65
594.4841, 24542.20
594.9662, 24520.90
595.4484, 24516.59
595.9305, 24543.61
596.4126, 24573.09
596.8947, 24584.96
597.3768, 24580.31
597.8589, 24565.81
598.3411, 24545.52
598.8232, 24513.72
599.3053, 24444.29
599.7874, 24365.71
600.2695, 24343.77
600.7516, 24392.39
601.2338, 24452.26
601.7159, 24461.97
602.1980, 24422.49
602.6801, 24371.00
603.1622, 24283.08
603.6443, 24225.13
604.1265, 24234.32
604.6086, 24263.39
605.0907, 24273.79
605.5728, 24261.39
606.0549, 24237.90
606.5370, 24197.30
607.0192, 24156.67
607.5013, 24141.68
607.9834, 24147.09
608.4655, 24147.60
608.9476, 24132.87
609.4297, 24111.91
609.9119, 24097.70
610.3940, 24089.86
610.8761, 24089.47
611.3582, 24117.73
611.8403, 24128.79
612.3224, 24092.63
612.8046, 24039.79
613.2867, 24014.10
613.7688, 24026.12
614.2509, 24032.84
614.7330, 23984.49
615.2151, 23912.67
615.6973, 23892.51
616.1794, 23924.60
616.6615, 23934.76
617.1436, 23876.74
617.6257, 23794.00
618.1078, 23782.23
618.5900, 23895.18
619.0721, 23950.45
619.5542, 23911.21
620.0363, 23857.45
620.5184, 23812.70
621.0005, 23782.73
621.4827, 23777.37
621.9648, 23802.25
622.4469, 23827.28
622.9290, 23814.48
623.4111, 23776.40
623.8932, 23758.27
624.3754, 23765.64
624.8575, 23767.47
625.3396, 23741.69
625.8217, 23699.87
626.3038, 23676.59
626.7859, 23694.00
627.2681, 23692.27
627.7502, 23644.58
628.2323, 23602.05
628.7144, 23593.68
629.1965, 23615.21
629.6786, 23658.41
630.1608, 23724.86
630.6429, 23781.50
631.1250, 23777.63
631.6071, 23725.15
632.0892, 23682.94
632.5714, 23658.46
633.0535, 23644.91
633.5356, 23641.82
634.0177, 23644.63
634.4998, 23634.58
634.9819, 23591.63
635.4641, 23566.64
635.9462, 23578.22
636.4283, 23595.58
636.9104, 23603.07
637.3925, 23597.77
637.8746, 23576.00
638.3568, 23531.95
638.8389, 23486.24
639.3210, 23469.41
639.8031, 23477.90
640.2852, 23491.86
640.7673, 23509.98
641.2495, 23524.78
641.7316, 23532.10
642.2137, 23531.40
642.6958, 23519.85
643.1779, 23480.48
643.6600, 23455.11
644.1422, 23463.88
644.6243, 23474.08
645.1064, 23460.86
645.5885, 23428.15
646.0706, 23391.63
646.5527, 23356.76
647.0349, 23331.17
647.5170, 23334.64
647.9991, 23360.70
648.4812, 23369.31
648.9633, 23354.62
649.4454, 23318.36
649.9276, 23249.23
650.4097, 23161.04
650.8918, 23126.84
651.3739, 23207.32
651.8560, 23254.37
652.3381, 23232.34
652.8203, 23196.00
653.3024, 23179.65
653.7845, 23182.35
654.2666, 23191.24
654.7487, 23201.91
655.2308, 23209.53
655.7130, 23203.17
656.1951, 23187.25
656.6772, 23186.20
657.1593, 23205.65
657.6414, 23216.22
658.1235, 23190.40
658.6057, 23141.32
659.0878, 23125.78
659.5699, 23191.83
660.0520, 23222.68
660.5341, 23194.78
661.0162, 23151.99
661.4984, 23111.25
661.9805, 23078.89
662.4626, 23065.91
662.9447, 23081.80
663.4268, 23101.64
663.9089, 23095.87
664.3911, 23073.97
664.8732, 23067.93
665.3553, 23081.74
665.8374, 23076.69
666.3195, 23020.29
666.8016, 22935.77
667.2838, 22900.52
667.7659, 22960.91
668.2480, 22984.63
668.7301, 22935.26
669.2122, 22885.95
669.6943, 22868.12
670.1765, 22877.04
670.6586, 22905.65
671.1407, 22961.26
671.6228, 22997.79
672.1049, 22960.37
672.5870, 22888.21
673.0692, 22853.59
673.5513, 22858.93
674.0334, 22865.24
674.5155, 22850.94
674.9976, 22821.34
675.4797, 22786.21
675.9619, 22737.82
676.4440, 22708.51
676.9261, 22719.53
677.4082, 22724.15
677.8903, 22692.34
678.3724, 22645.64
678.8546, 22619.68
679.3367, 22624.97
679.8188, 22627.98
680.3009, 22610.44
680.7830, 22583.60
681.2651, 22556.13
681.7473, 22530.36
682.2294, 22510.29
682.7115, 22497.75
683.1936, 22489.97
683.6757, 22485.99
684.1578, 22487.15
684.6400, 22469.55
685.1221, 22421.98
685.6042, 22379.75
686.0863, 22359.74
686.5684, 22352.84
687.0505, 22346.70
687.5327, 22341.44
688.0148, 22335.18
688.4969, 22329.11
688.9790, 22320.51
689.4611, 22309.69
689.9432, 22294.63
690.4254, 22265.67
690.9075, 22222.58
691.3896, 22190.39
691.8717, 22200.37
692.3538, 22242.73
692.8359, 22275.38
693.3181, 22297.70
693.8002, 22315.83
694.2823, 22334.28
694.7644, 22344.26
695.2465, 22331.82
695.7286, 22293.60
696.2108, 22262.37
696.6929, 22232.17
697.1750, 22215.66
697.6571, 22236.92
698.1392, 22260.14
698.6213, 22236.58
699.1035, 22171.56
699.5856, 22127.50
700.0677, 22166.30
700.5498, 22224.02
701.0319, 22191.70
701.5140, 22094.01
701.9962, 22036.87
702.4783, 22045.66
702.9604, 22078.11
703.4425, 22102.24
703.9246, 22115.61
704.4067, 22097.89
704.8889, 22015.70
705.3710, 21964.43
705.8531, 21990.48
706.3352, 22016.38
706.8173, 21983.92
707.2994, 21914.94
707.7816, 21875.88
708.2637, 21898.47
708.7458, 21927.95
709.2279, 21932.34
709.7100, 21922.72
710.1921, 21907.78
710.6743, 21892.33
711.1564, 21890.52
711.6385, 21911.76
712.1206, 21940.23
712.6027, 21938.76
713.0848, 21902.43
713.5670, 21900.71
714.0491, 21954.67
714.5312, 22001.45
715.0133, 22005.84
715.4954, 21981.95
715.9775, 21956.48
716.4597, 21924.53
716.9418, 21908.25
717.4239, 21928.67
717.9060, 21947.14
718.3881, 21937.46
718.8702, 21912.32
719.3524, 21893.73
719.8345, 21887.71
720.3166, 21883.99
720.7987, 21871.00
721.2808, 21854.11
721.7629, 21849.06
722.2451, 21854.30
722.7272, 21851.69
723.2093, 21834.74
723.6914, 21809.39
724.1735, 21781.77
724.6556, 21751.82
725.1378, 21724.91
725.6199, 21704.04
726.1020, 21682.16
726.5841, 21650.72
727.0662, 21624.23
727.5483, 21619.38
728.0305, 21631.46
728.5126, 21635.26
728.9947, 21615.84
729.4768, 21594.64
729.9589, 21587.95
730.4410, 21587.37
730.9232, 21580.73
731.4053, 21567.04
731.8874, 21551.41
732.3695, 21536.84
732.8516, 21523.41
733.3337, 21507.72
733.8159, 21488.80
734.2980, 21494.32
734.7801, 21538.15
735.2622, 21571.53
735.7443, 21561.49
736.2264, 21522.76
736.7086, 21490.08
737.1907, 21458.79
737.6728, 21444.06
738.1549, 21467.63
738.6370, 21485.74
739.1191, 21473.13
739.6013, 21443.17
740.0834, 21414.61
740.5655, 21392.71
741.0476, 21376.40
741.5297, 21374.46
742.0118, 21372.14
742.4940, 21337.44
742.9761, 21281.44
743.4582, 21250.44
743.9403, 21258.61
744.4224, 21278.91
744.9045, 21283.80
745.3867, 21274.16
745.8688, 21257.95
746.3509, 21229.75
746.8330, 21209.56
747.3151, 21199.69
747.7972, 21200.85
748.2794, 21223.24
748.7615, 21258.68
749.2436, 21274.46
749.7257, 21258.71
750.2078, 21235.50
750.6899, 21201.86
751.1721, 21171.54
751.6542, 21157.28
752.1363, 21156.65
752.6184, 21163.56
753.1005, 21176.70
753.5826, 21183.35
754.0648, 21165.45
754.5469, 21130.19
755.0290, 21097.59
755.5111, 21068.71
755.9932, 21035.14
756.4753, 20991.39
756.9575, 20948.96
757.4396, 20925.91
757.9217, 20924.33
758.4038, 20926.83
758.8859, 20943.12
759.3680, 20947.81
759.8502, 20913.35
760.3323, 20878.45
760.8144, 20888.37
761.2965, 20938.55
761.7786, 20961.83
762.2607, 20921.18
762.7429, 20874.86
763.2250, 20838.38
763.7071, 20818.16
764.1892, 20832.03
764.6713, 20871.19
765.1534, 20899.08
765.6356, 20892.63
766.1177, 20868.64
766.5998, 20850.86
767.0819, 20837.06
767.5640, 20813.03
768.0461, 20777.02
768.5283, 20761.42
769.0104, 20790.50
769.4925, 20835.35
769.9746, 20832.10
770.4567, 20759.83
770.9388, 20725.71
771.4210, 20762.13
771.9031, 20790.38
772.3852, 20781.00
772.8673, 20751.79
773.3494, 20715.17
773.8315, 20672.26
774.3137, 20644.87
774.7958, 20650.61
775.2779, 20659.78
775.7600, 20663.37
776.2421, 20657.65
776.7242, 20635.04
777.2064, 20597.74
777.6885, 20558.01
778.1706, 20522.16
778.6527, 20492.11
779.1348, 20473.16
779.6169, 20462.93
780.0991, 20453.43
780.5812, 20443.52
781.0633, 20429.77
781.5454, 20407.56
782.0275, 20387.58
782.5096, 20397.76
782.9918, 20450.50
783.4739, 20480.02
783.9560, 20466.67
784.4381, 20461.83
784.9202, 20501.19
785.4023, 20550.70
785.8845, 20566.90
786.3666, 20546.92
786.8487, 20529.79
787.3308, 20514.07
787.8129, 20512.15
788.2950, 20547.98
788.7772, 20588.36
789.2593, 20591.48
789.7414, 20559.36
790.2235, 20528.14
790.7056, 20519.04
791.1877, 20518.33
791.6699, 20509.65
792.1520, 20496.95
792.6341, 20493.75
793.1162, 20499.53
793.5983, 20496.04
794.0804, 20473.44
794.5626, 20434.95
795.0447, 20376.93
795.5268, 20293.36
796.0089, 20264.07
796.4910, 20309.11
796.9731, 20350.81
797.4553, 20359.16
797.9374, 20349.63
798.4195, 20342.03
798.9016, 20337.00
799.3837, 20322.61
799.8658, 20286.50
800.3480, 20256.65
800.8301, 20240.66
801.3122, 20232.43
801.7943, 20229.65
802.2764, 20229.96
802.7585, 20227.38
803.2407, 20216.78
803.7228, 20209.96
804.2049, 20225.22
804.6870, 20243.26
805.1691, 20229.11
805.6512, 20193.04
806.1334, 20178.22
806.6155, 20203.00
807.0976, 20240.57
807.5797, 20266.31
808.0618, 20276.22
808.5439, 20229.87
809.0261, 20125.30
809.5082, 20078.10
809.9903, 20134.73
810.4724, 20220.53
810.9545, 20260.23
811.4366, 20257.76
811.9188, 20257.11
812.4009, 20261.28
812.8830, 20261.09
813.3651, 20255.51
813.8472, 20245.08
814.3293, 20224.78
814.8115, 20200.91
815.2936, 20188.04
815.7757, 20191.90
816.2578, 20193.63
816.7399, 20193.66
817.2220, 20184.53
817.7042, 20148.41
818.1863, 20105.79
818.6684, 20091.45
819.1505, 20110.76
819.6326, 20131.41
820.1147, 20134.94
820.5969, 20123.31
821.0790, 20090.08
821.5611, 20045.06
822.0432, 20013.28
822.5253, 19998.73
823.0074, 19991.79
823.4895, 19985.39
823.9716, 19983.55
824.4537, 19996.24
824.9359, 20023.48
825.4180, 20056.51
825.9001, 20097.58
826.3822, 20132.30
826.8643, 20159.68
827.3464, 20166.61
827.8286, 20125.05
828.3107, 20023.24
828.7928, 19960.29
829.2749, 19966.27
829.7570, 19970.07
830.2391, 19950.04
830.7213, 19929.69
831.2034, 19926.44
831.6855, 19939.15
832.1676, 19961.30
832.6497, 20012.21
833.1318, 20034.71
833.6140, 19980.52
834.0961, 19913.16
834.5782, 19884.39
835.0603, 19885.70
835.5424, 19893.14
836.0245, 19898.45
836.5067, 19897.78
836.9888, 19880.81
837.4709, 19860.56
837.9530, 19869.96
838.4351, 19892.22
838.9172, 19863.27
839.3994, 19774.01
839.8815, 19700.43
840.3636, 19710.04
840.8457, 19767.88
841.3278, 19776.98
841.8099, 19737.14
842.2921, 19728.16
842.7742, 19765.46
843.2563, 19796.86
843.7384, 19795.06
844.2205, 19768.62
844.7026, 19729.79
845.1848, 19672.43
845.6669, 19638.12
846.1490, 19636.09
846.6311, 19642.34
847.1132, 19653.51
847.5953, 19667.85
848.0775, 19687.81
848.5596, 19710.74
849.0417, 19722.73
849.5238, 19725.89
850.0059, 19711.37
850.4880, 19653.67
850.9702, 19598.96
851.4523, 19595.44
851.9344, 19616.12
852.4165, 19594.42
852.8986, 19510.39
853.3807, 19452.71
853.8629, 19519.11
854.3450, 19605.88
854.8271, 19594.16
855.3092, 19525.08
855.7913, 19484.01
856.2734, 19485.62
856.7556, 19488.09
857.2377, 19457.46
857.7198, 19423.46
858.2019, 19450.41
858.6840, 19521.33
859.1661, 19558.19
859.6483, 19553.88
860.1304, 19534.87
860.6125, 19512.58
861.0946, 19488.71
861.5767, 19464.87
862.0588, 19441.17
862.5410, 19424.63
863.0231, 19417.05
863.5052, 19409.61
863.9873, 19400.61
864.4694, 19390.18
864.9515, 19377.15
865.4337, 19362.91
865.9158, 19354.76
866.3979, 19358.51
866.8800, 19358.91
867.3621, 19351.50
867.8442, 19346.21
868.3264, 19358.89
868.8085, 19370.19
869.2906, 19348.11
869.7727, 19288.92
870.2548, 19242.50
870.7369, 19220.91
871.2191, 19215.48
871.7012, 19236.69
872.1833, 19261.66
872.6654, 19264.77
873.1475, 19250.65
873.6296, 19240.41
874.1118, 19240.87
874.5939, 19254.11
875.0760, 19304.56
875.5581, 19351.97
876.0402, 19337.43
876.5223, 19279.06
877.0045, 19220.25
877.4866, 19176.21
877.9687, 19153.63
878.4508, 19164.47
878.9329, 19191.64
879.4150, 19199.54
879.8972, 19193.81
880.3793, 19198.70
880.8614, 19217.48
881.3435, 19245.68
881.8256, 19283.11
882.3077, 19312.48
882.7899, 19296.15
883.2720, 19234.69
883.7541, 19200.98
884.2362, 19199.75
884.7183, 19198.32
885.2004, 19184.92
885.6826, 19176.62
886.1647, 19197.43
886.6468, 19236.45
887.1289, 19222.94
887.6110, 19108.99
888.0931, 19057.19
888.5753, 19130.38
889.0574, 19189.63
889.5395, 19153.10
890.0216, 19070.10
890.5037, 19011.74
890.9858, 18977.37
891.4680, 18971.46
891.9501, 19035.03
892.4322, 19072.58
892.9143, 19030.45
893.3964, 18977.71
893.8785, 18982.74
894.3607, 19023.49
894.8428, 19024.41
895.3249, 18951.66
895.8070, 18889.96
896.2891, 18874.69
896.7712, 18883.25
897.2534, 18921.09
897.7355, 18961.46
898.2176, 18952.65
898.6997, 18896.71
899.1818, 18868.96
899.6639, 18935.27
900.1461, 19011.08
900.6282, 19015.19
901.1103, 18978.07
901.5924, 18932.78
902.0745, 18890.40
902.5566, 18872.19
903.0388, 18886.04
903.5209, 18896.35
904.0030, 18847.84
904.4851, 18774.84
904.9672, 18761.74
905.4493, 18795.38
905.9315, 18824.94
906.4136, 18839.35
906.8957, 18844.31
907.3778, 18842.84
907.8599, 18838.33
908.3420, 18836.74
908.8242, 18838.08
909.3063, 18846.01
909.7884, 18861.50
910.2705, 18869.15
910.7526, 18864.91
911.2347, 18840.46
911.7169, 18779.62
912.1990, 18693.33
912.6811, 18655.24
913.1632, 18678.24
913.6453, 18693.26
914.1274, 18691.70
914.6096, 18684.23
915.0917, 18674.62
915.5738, 18664.91
916.0559, 18660.15
916.5380, 18662.87
917.0201, 18651.43
917.5023, 18606.94
917.9844, 18580.38
918.4665, 18593.69
918.9486, 18616.15
919.4307, 18633.27
919.9128, 18641.64
920.3950, 18628.22
920.8771, 18576.12
921.3592, 18544.39
921.8413, 18549.18
922.3234, 18562.00
922.8055, 18580.23
923.2877, 18594.97
923.7698, 18592.32
924.2519, 18575.68
924.7340, 18571.55
925.2161, 18603.48
925.6982, 18621.05
926.1804, 18597.39
926.6625, 18562.89
927.1446, 18536.58
927.6267, 18516.72
928.1088, 18493.96
928.5909, 18467.30
929.0731, 18454.57
929.5552, 18469.66
930.0373, 18496.06
930.5194, 18535.24
931.0015, 18570.32
931.4836, 18570.13
931.9658, 18547.79
932.4479, 18554.50
932.9300, 18612.10
933.4121, 18649.71
933.8942, 18581.21
934.3763, 18483.98
934.8585, 18455.03
935.3406, 18467.11
935.8227, 18458.58
936.3048, 18424.09
936.7869, 18403.96
937.2690, 18425.33
937.7512, 18455.50
938.2333, 18455.02
938.7154, 18432.98
939.1975, 18401.78
939.6796, 18366.97
940.1617, 18346.10
940.6439, 18343.33
941.1260, 18344.29
941.6081, 18335.62
942.0902, 18325.28
942.5723, 18337.50
943.0544, 18363.54
943.5366, 18358.20
944.0187, 18320.03
944.5008, 18283.14
944.9829, 18261.41
945.4650, 18254.99
945.9471, 18270.91
946.4293, 18297.78
946.9114, 18273.45
947.3935, 18200.38
947.8756, 18189.02
948.3577, 18261.51
948.8398, 18316.07
949.3220, 18290.78
949.8041, 18235.60
950.2862, 18238.50
950.7683, 18297.22
951.2504, 18312.57
951.7325, 18276.88
952.2147, 18250.44
952.6968, 18248.73
953.1789, 18249.52
953.6610, 18236.90
954.1431, 18214.68
954.6252, 18189.88
955.1074, 18158.05
955.5895, 18153.40
956.0716, 18191.88
956.5537, 18206.92
957.0358, 18166.50
957.5179, 18121.23
958.0001, 18117.81
958.4822, 18148.20
958.9643, 18179.95
959.4464, 18229.39
959.9285, 18233.51
960.4106, 18155.60
960.8928, 18101.28
961.3749, 18131.19
961.8570, 18178.23
962.3391, 18161.05
962.8212, 18086.56
963.3033, 18044.02
963.7855, 18047.75
964.2676, 18057.06
964.7497, 18081.29
965.2318, 18096.00
965.7139, 18081.32
966.1960, 18056.08
966.6782, 18047.73
967.1603, 18056.99
967.6424, 18058.14
968.1245, 18042.17
968.6066, 18030.98
969.0887, 18033.65
969.5709, 18034.69
970.0530, 18019.23
970.5351, 17999.40
971.0172, 17999.14
971.4993, 18023.06
971.9814, 18033.59
972.4636, 18011.69
972.9457, 17997.39
973.4278, 18023.36
973.9099, 18037.46
974.3920, 17979.61
974.8741, 17889.47
975.3563, 17855.46
975.8384, 17896.33
976.3205, 17940.92
976.8026, 18003.38
977.2847, 18032.63
977.7668, 17971.05
978.2490, 17903.15
978.7311, 17911.23
979.2132, 17970.91
979.6953, 18002.69
980.1774, 17983.91
980.6595, 17972.55
981.1417, 17998.50
981.6238, 18017.10
982.1059, 18003.69
982.5880, 17976.77
983.0701, 17958.58
983.5522, 17944.47
984.0344, 17908.05
984.5165, 17827.00
984.9986, 17774.02
985.4807, 17794.82
985.9628, 17824.77
986.4449, 17842.72
986.9271, 17840.19
987.4092, 17787.57
987.8913, 17703.97
988.3734, 17675.78
988.8555, 17759.38
989.3376, 17822.04
989.8198, 17798.80
990.3019, 17752.65
990.7840, 17719.47
991.2661, 17690.33
991.7482, 17641.04
992.2303, 17577.56
992.7125, 17544.58
993.1946, 17568.29
993.6767, 17600.26
994.1588, 17621.27
994.6409, 17641.45
995.1230, 17679.23
995.6052, 17714.98
996.0873, 17711.85
996.5694, 17672.51
997.0515, 17647.43
997.5336, 17659.74
998.0157, 17682.19
998.4979, 17721.52
998.9800, 17746.65
999.4621, 17711.96
999.9442, 17657.58
1000.426, 17654.77
1000.908, 17706.38
1001.391, 17736.65
1001.873, 17703.05
1002.355, 17661.58
1002.837, 17631.36
1003.319, 17610.65
1003.801, 17606.58
1004.283, 17607.11
1004.765, 17589.18
1005.247, 17552.15
1005.730, 17527.84
1006.212, 17543.02
1006.694, 17554.13
1007.176, 17530.78
1007.658, 17504.77
1008.140, 17511.85
1008.622, 17530.76
1009.104, 17518.24
1009.587, 17470.29
1010.069, 17432.61
1010.551, 17431.81
1011.033, 17435.05
1011.515, 17428.20
1011.997, 17418.60
1012.479, 17411.52
1012.961, 17406.10
1013.443, 17402.29
1013.926, 17399.19
1014.408, 17387.63
1014.890, 17352.51
1015.372, 17323.43
1015.854, 17302.78
1016.336, 17302.67
1016.818, 17360.52
1017.300, 17432.98
1017.783, 17437.18
1018.265, 17364.41
1018.747, 17316.16
1019.229, 17360.57
1019.711, 17390.20
1020.193, 17343.86
1020.675, 17289.90
1021.157, 17279.04
1021.639, 17295.24
1022.122, 17315.01
1022.604, 17333.14
1023.086, 17328.13
1023.568, 17253.75
1024.050, 17211.36
1024.532, 17272.83
1025.014, 17336.41
1025.496, 17325.81
1025.979, 17275.65
1026.461, 17243.35
1026.943, 17235.07
1027.425, 17222.21
1027.907, 17193.47
1028.389, 17166.26
1028.871, 17126.44
1029.353, 17108.66
1029.835, 17160.61
1030.318, 17232.91
1030.800, 17248.81
1031.282, 17204.69
1031.764, 17171.40
1032.246, 17158.81
1032.728, 17158.72
1033.210, 17185.46
1033.692, 17206.85
1034.175, 17202.76
1034.657, 17185.71
1035.139, 17169.88
1035.621, 17156.37
1036.103, 17151.26
1036.585, 17170.65
1037.067, 17174.66
1037.549, 17136.40
1038.031, 17110.57
1038.514, 17141.99
1038.996, 17184.23
1039.478, 17169.53
1039.960, 17104.67
1040.442, 17086.88
1040.924, 17174.73
1041.406, 17201.31
1041.888, 17108.19
1042.370, 17034.17
1042.853, 17045.84
1043.335, 17086.78
1043.817, 17098.82
1044.299, 17085.14
1044.781, 17066.84
1045.263, 17040.07
1045.745, 17019.00
1046.227, 17006.26
1046.710, 16994.35
1047.192, 16978.03
1047.674, 16967.01
1048.156, 16974.07
1048.638, 16993.15
1049.120, 16995.38
1049.602, 16973.46
1050.084, 16968.07
1050.567, 16985.37
1051.049, 17000.50
1051.531, 17007.62
1052.013, 17003.52
1052.495, 16981.67
1052.977, 16951.92
1053.459, 16945.30
1053.941, 16964.34
1054.423, 16976.00
1054.906, 16980.33
1055.388, 16969.85
1055.870, 16940.47
1056.352, 16910.31
1056.834, 16892.56
1057.316, 16883.82
1057.798, 16877.33
1058.280, 16873.25
1058.762, 16876.34
1059.245, 16886.04
1059.727, 16889.14
1060.209, 16883.08
1060.691, 16880.10
1061.173, 16888.47
1061.655, 16898.18
1062.137, 16889.26
1062.619, 16870.08
1063.102, 16874.98
1063.584, 16897.69
1064.066, 16913.21
1064.548, 16916.25
1065.030, 16896.89
1065.512, 16849.88
1065.994, 16813.49
1066.476, 16842.86
1066.958, 16902.03
1067.441, 16926.58
1067.923, 16926.72
1068.405, 16930.92
1068.887, 16934.49
1069.369, 16894.60
1069.851, 16800.13
1070.333, 16732.15
1070.815, 16783.25
1071.297, 16858.79
1071.780, 16848.10
1072.262, 16798.94
1072.744, 16766.77
1073.226, 16756.52
1073.708, 16771.44
1074.190, 16807.01
1074.672, 16825.01
1075.154, 16789.43
1075.636, 16756.65
1076.119, 16774.11
1076.601, 16801.78
1077.083, 16807.34
1077.565, 16796.21
1078.047, 16775.49
1078.529, 16749.65
1079.011, 16733.71
1079.493, 16738.97
1079.976, 16739.74
1080.458, 16724.20
1080.940, 16704.69
1081.422, 16677.41
1081.904, 16657.67
1082.386, 16669.61
1082.868, 16704.14
1083.350, 16723.17
1083.833, 16718.19
1084.315, 16708.66
1084.797, 16696.67
1085.279, 16680.93
1085.761, 16653.71
1086.243, 16630.22
1086.725, 16623.36
1087.207, 16627.54
1087.689, 16629.58
1088.172, 16628.00
1088.654, 16634.73
1089.136, 16657.49
1089.618, 16670.51
1090.100, 16672.73
1090.582, 16653.99
1091.064, 16596.45
1091.546, 16536.07
1092.028, 16530.95
1092.511, 16575.10
1092.993, 16606.70
1093.475, 16626.72
1093.957, 16616.96
1094.439, 16571.20
1094.921, 16537.38
1095.403, 16535.00
1095.885, 16553.13
1096.368, 16584.32
1096.850, 16619.39
1097.332, 16636.25
1097.814, 16634.58
1098.296, 16600.36
1098.778, 16540.76
1099.260, 16510.83
1099.742, 16523.37
1100.224, 16540.50
1100.707, 16535.45
1101.189, 16522.00
1101.671, 16521.73
1102.153, 16524.60
1102.635, 16506.50
1103.117, 16478.50
1103.599, 16473.36
1104.081, 16487.23
1104.563, 16478.06
1105.046, 16425.63
1105.528, 16381.46
1106.010, 16400.06
1106.492, 16427.60
1106.974, 16411.94
1107.456, 16383.86
1107.938, 16382.84
1108.420, 16399.16
1108.903, 16403.10
1109.385, 16388.11
1109.867, 16372.24
1110.349, 16351.54
1110.831, 16345.97
1111.313, 16376.63
1111.795, 16408.32
1112.277, 16418.09
1112.760, 16415.78
1113.242, 16414.10
1113.724, 16413.78
1114.206, 16414.45
1114.688, 16423.04
1115.170, 16419.11
1115.652, 16390.95
1116.134, 16370.80
1116.616, 16377.54
1117.099, 16381.62
1117.581, 16356.27
1118.063, 16313.17
1118.545, 16277.51
1119.027, 16247.01
1119.509, 16262.72
1119.991, 16336.26
1120.473, 16377.08
1120.955, 16366.81
1121.438, 16334.53
1121.920, 16292.87
1122.402, 16258.04
1122.884, 16254.03
1123.366, 16272.01
1123.848, 16283.35
1124.330, 16288.76
1124.812, 16289.81
1125.295, 16288.08
1125.777, 16295.36
1126.259, 16313.18
1126.741, 16313.58
1127.223, 16268.02
1127.705, 16217.50
1128.187, 16225.08
1128.669, 16250.61
1129.151, 16232.83
1129.634, 16191.26
1130.116, 16167.38
1130.598, 16163.98
1131.080, 16160.86
1131.562, 16151.15
1132.044, 16135.28
1132.526, 16099.88
1133.008, 16075.29
1133.490, 16090.83
1133.973, 16114.26
1134.455, 16115.76
1134.937, 16103.47
1135.419, 16097.56
1135.901, 16100.63
1136.383, 16100.46
1136.865, 16091.03
1137.347, 16085.33
1137.830, 16079.00
1138.312, 16085.54
1138.794, 16127.44
1139.276, 16160.90
1139.758, 16133.71
1140.240, 16064.04
1140.722, 16022.92
1141.204, 16013.04
1141.687, 16017.31
1142.169, 16038.45
1142.651, 16049.00
1143.133, 16041.84
1143.615, 16032.58
1144.097, 16031.20
1144.579, 16031.23
1145.061, 16022.13
1145.543, 16007.53
1146.026, 16002.56
1146.508, 16000.67
1146.990, 15967.67
1147.472, 15914.55
1147.954, 15905.42
1148.436, 15955.84
1148.918, 16000.29
1149.400, 15986.46
1149.882, 15962.47
1150.365, 15977.21
1150.847, 16000.93
1151.329, 16004.39
1151.811, 15995.51
1152.293, 15988.02
1152.775, 15982.54
1153.257, 15971.02
1153.739, 15948.23
1154.222, 15935.79
1154.704, 15951.74
1155.186, 15962.61
1155.668, 15947.01
1156.150, 15934.25
1156.632, 15956.17
1157.114, 15985.34
1157.596, 15974.89
1158.078, 15928.05
1158.561, 15917.27
1159.043, 15959.87
1159.525, 15972.42
1160.007, 15943.31
1160.489, 15912.68
1160.971, 15892.46
1161.453, 15882.81
1161.935, 15886.26
1162.417, 15891.83
1162.900, 15871.76
1163.382, 15834.89
1163.864, 15822.44
1164.346, 15830.59
1164.828, 15849.67
1165.310, 15872.70
1165.792, 15873.01
1166.274, 15841.35
1166.757, 15813.38
1167.239, 15826.53
1167.721, 15842.05
1168.203, 15803.58
1168.685, 15764.67
1169.167, 15805.54
1169.649, 15874.19
1170.131, 15871.99
1170.614, 15804.99
1171.096, 15767.45
1171.578, 15791.51
1172.060, 15818.34
1172.542, 15850.78
1173.024, 15862.29
1173.506, 15816.88
1173.988, 15779.78
1174.470, 15806.25
1174.953, 15851.78
1175.435, 15843.39
1175.917, 15785.00
1176.399, 15731.81
1176.881, 15679.61
1177.363, 15664.04
1177.845, 15690.73
1178.327, 15721.63
1178.809, 15745.18
1179.292, 15754.85
1179.774, 15744.88
1180.256, 15721.84
1180.738, 15686.63
1181.220, 15651.67
1181.702, 15652.03
1182.184, 15675.24
1182.666, 15691.74
1183.149, 15701.31
1183.631, 15727.26
1184.113, 15773.21
1184.595, 15783.78
1185.077, 15692.94
1185.559, 15614.38
1186.041, 15630.21
1186.523, 15662.29
1187.005, 15657.92
1187.488, 15637.39
1187.970, 15622.91
1188.452, 15616.69
1188.934, 15619.27
1189.416, 15631.43
1189.898, 15643.72
1190.380, 15619.20
1190.862, 15698.38
1191.344, 15961.57
1191.827, 16157.49
1192.309, 16159.09
1192.791, 16051.14
1193.273, 15917.72
1193.755, 15776.31
1194.237, 15676.80
1194.719, 15616.57
1195.201, 15585.25
1195.684, 15579.45
1196.166, 15590.66
1196.648, 15614.24
1197.130, 15641.30
1197.612, 15667.71
1198.094, 15685.16
1198.576, 15691.19
1199.058, 15679.63
1199.541, 15615.94
1200.023, 15558.96
1200.505, 15586.24
1200.987, 15650.67
1201.469, 15666.90
1201.951, 15633.83
1202.433, 15618.53
1202.915, 15649.33
1203.397, 15653.60
1203.880, 15597.01
1204.362, 15573.45
1204.844, 15621.16
1205.326, 15670.55
1205.808, 15682.33
1206.290, 15667.67
1206.772, 15639.77
1207.254, 15602.15
1207.736, 15564.06
1208.219, 15529.15
1208.701, 15535.60
1209.183, 15576.90
1209.665, 15593.31
1210.147, 15576.42
1210.629, 15586.50
1211.111, 15661.45
1211.593, 15733.09
1212.076, 15727.74
1212.558, 15702.75
1213.040, 15704.41
1213.522, 15719.49
1214.004, 15746.05
1214.486, 15768.14
1214.968, 15745.22
1215.450, 15682.06
1215.932, 15673.02
1216.415, 15788.88
1216.897, 15839.04
1217.379, 15782.16
1217.861, 15730.07
1218.343, 15705.24
1218.825, 15700.85
1219.307, 15716.60
1219.789, 15740.04
1220.271, 15752.70
1220.754, 15757.34
1221.236, 15763.54
1221.718, 15771.77
1222.200, 15789.76
1222.682, 15812.59
1223.164, 15815.68
1223.646, 15796.00
1224.128, 15773.11
1224.611, 15756.89
1225.093, 15740.52
1225.575, 15711.04
1226.057, 15688.80
1226.539, 15697.85
1227.021, 15711.41
1227.503, 15701.18
1227.985, 15681.50
1228.468, 15677.34
1228.950, 15689.26
1229.432, 15703.59
1229.914, 15729.79
1230.396, 15728.27
1230.878, 15688.18
1231.360, 15655.56
1231.842, 15638.57
1232.324, 15641.16
1232.807, 15668.50
1233.289, 15693.80
1233.771, 15682.58
1234.253, 15650.92
1234.735, 15626.65
1235.217, 15614.36
1235.699, 15638.81
1236.181, 15679.68
1236.663, 15678.00
1237.146, 15639.10
1237.628, 15627.89
1238.110, 15670.16
1238.592, 15698.61
1239.074, 15661.92
1239.556, 15633.87
1240.038, 15646.58
1240.520, 15669.20
1241.003, 15694.00
1241.485, 15710.48
1241.967, 15706.22
1242.449, 15687.17
1242.931, 15669.65
1243.413, 15653.36
1243.895, 15644.34
1244.377, 15642.62
1244.859, 15669.37
1245.342, 15723.50
1245.824, 15753.16
1246.306, 15739.61
1246.788, 15712.16
1247.270, 15690.80
1247.752, 15674.63
1248.234, 15668.66
1248.716, 15661.64
1249.198, 15640.98
1249.681, 15613.13
1250.163, 15580.59
1250.645, 15549.64
1251.127, 15533.77
1251.609, 15534.62
1252.091, 15531.42
1252.573, 15508.68
1253.055, 15513.13
1253.538, 15562.47
1254.020, 15591.48
1254.502, 15578.09
1254.984, 15563.11
1255.466, 15574.81
1255.948, 15585.99
1256.430, 15550.15
1256.912, 15495.99
1257.395, 15499.06
1257.877, 15536.67
1258.359, 15565.37
1258.841, 15580.63
1259.323, 15575.79
1259.805, 15556.35
1260.287, 15547.83
1260.769, 15561.13
1261.251, 15565.70
##END=



