##NAMES=Perovskite
##RRUFFID=R110178
##IDEAL CHEMISTRY=CaTi^4+^O_3_
##LOCALITY=St Lawrence Columbium mine, Oka, Laurentides, Quebec, Canada
##OWNER=RRUFF
##SOURCE=Donald Doell
##DESCRIPTION=Black lustrous cubes
##STATUS=The identification of this mineral is confirmed by single-crystal X-ray diffraction and chemical analysis.
##URL=rruff.info/R110178
##MEASURED CHEMISTRY=(Ca_0.78_Na_0.21_Mg_0.03_Ce_0.01_La_0.01_)_∑=1.05_(Ti_0.42_Nb_0.39_Fe_0.12_Ta_0.03_Zr_0.01_)_∑=0.98_O_3_
203.3075, 269.0204
203.7896, 269.9457
204.2717, 271.2112
204.7538, 272.3870
205.2360, 273.6074
205.7181, 274.2423
206.2002, 273.5384
206.6823, 271.1236
207.1644, 269.8504
207.6465, 270.2625
208.1287, 271.7726
208.6108, 272.6528
209.0929, 272.7734
209.5750, 272.6220
210.0571, 272.3754
210.5392, 271.9115
211.0214, 271.9966
211.5035, 273.0144
211.9856, 274.5275
212.4677, 274.8896
212.9498, 273.6532
213.4319, 272.2892
213.9140, 271.6981
214.3962, 272.0651
214.8783, 272.5822
215.3604, 273.2714
215.8425, 274.0516
216.3246, 274.4994
216.8067, 274.4038
217.2889, 274.3843
217.7710, 274.8680
218.2531, 276.0562
218.7352, 277.1826
219.2173, 278.3511
219.6994, 279.4153
220.1816, 279.5013
220.6637, 277.9671
221.1458, 276.5501
221.6279, 276.5121
222.1100, 278.6237
222.5921, 280.0396
223.0743, 280.3473
223.5564, 279.7832
224.0385, 279.4501
224.5206, 279.4331
225.0027, 279.5328
225.4848, 279.6038
225.9670, 279.5201
226.4491, 279.7553
226.9312, 280.5266
227.4133, 281.6662
227.8954, 282.3715
228.3775, 282.4759
228.8597, 282.3765
229.3418, 282.2647
229.8239, 282.0222
230.3060, 282.0451
230.7881, 282.4444
231.2702, 283.1361
231.7524, 283.7049
232.2345, 284.0181
232.7166, 284.3705
233.1987, 284.9265
233.6808, 285.7259
234.1629, 286.6440
234.6451, 287.8432
235.1272, 289.1669
235.6093, 289.9682
236.0914, 290.2003
236.5735, 289.9788
237.0556, 289.2904
237.5378, 287.7842
238.0199, 286.6081
238.5020, 285.9861
238.9841, 285.7476
239.4662, 285.2104
239.9483, 284.2649
240.4305, 283.1884
240.9126, 282.0849
241.3947, 280.8309
241.8768, 279.8663
242.3589, 279.4312
242.8410, 279.2934
243.3232, 278.5423
243.8053, 276.7245
244.2874, 274.9160
244.7695, 273.6674
245.2516, 273.1145
245.7337, 272.7992
246.2159, 272.8401
246.6980, 273.0833
247.1801, 273.0250
247.6622, 272.4914
248.1443, 271.9081
248.6264, 271.5283
249.1086, 271.6074
249.5907, 271.2216
250.0728, 270.0388
250.5549, 268.4744
251.0370, 267.6934
251.5191, 268.1248
252.0013, 268.6680
252.4834, 268.8104
252.9655, 268.2996
253.4476, 268.0696
253.9297, 268.2222
254.4118, 268.6144
254.8940, 268.9185
255.3761, 269.0552
255.8582, 269.2456
256.3403, 269.6575
256.8224, 270.5091
257.3046, 270.7618
257.7867, 270.0019
258.2688, 268.8951
258.7509, 268.8531
259.2330, 270.4046
259.7151, 271.9258
260.1973, 272.7162
260.6794, 272.5027
261.1615, 272.7592
261.6436, 273.7139
262.1257, 274.9401
262.6078, 275.7339
263.0900, 276.0399
263.5721, 276.0424
264.0542, 275.7291
264.5363, 275.0252
265.0184, 274.4909
265.5005, 274.0602
265.9827, 273.8715
266.4648, 274.2190
266.9469, 275.3340
267.4290, 276.3094
267.9111, 276.8321
268.3932, 276.8649
268.8754, 276.9642
269.3575, 277.1206
269.8396, 277.3448
270.3217, 277.7388
270.8038, 278.4295
271.2859, 278.7645
271.7681, 278.4932
272.2502, 277.6343
272.7323, 276.6523
273.2144, 275.3964
273.6965, 274.3549
274.1786, 274.1909
274.6608, 275.0846
275.1429, 275.9017
275.6250, 276.4629
276.1071, 276.7403
276.5892, 276.3596
277.0714, 275.1206
277.5535, 273.8138
278.0356, 273.1713
278.5177, 273.2303
278.9998, 273.6346
279.4819, 274.6070
279.9641, 275.8130
280.4462, 275.5100
280.9283, 273.3956
281.4104, 271.0600
281.8925, 269.9249
282.3746, 270.0123
282.8568, 269.7597
283.3389, 268.8514
283.8210, 267.5019
284.3031, 266.2332
284.7852, 265.0376
285.2673, 264.0099
285.7495, 263.1761
286.2316, 262.5456
286.7137, 262.2579
287.1958, 262.4428
287.6779, 262.8189
288.1600, 262.8178
288.6422, 262.4358
289.1243, 261.8688
289.6064, 261.1454
290.0885, 260.3067
290.5706, 259.5828
291.0527, 258.9543
291.5349, 258.5270
292.0170, 258.5716
292.4991, 259.0476
292.9812, 259.5519
293.4633, 259.9565
293.9454, 260.2213
294.4276, 260.1629
294.9097, 259.7326
295.3918, 259.1610
295.8739, 258.7502
296.3560, 258.4645
296.8381, 258.1101
297.3203, 257.5392
297.8024, 256.8541
298.2845, 256.2362
298.7666, 255.6849
299.2487, 255.2319
299.7308, 254.9700
300.2130, 254.8357
300.6951, 254.6471
301.1772, 254.1958
301.6593, 253.7145
302.1414, 253.6192
302.6235, 253.9005
303.1057, 254.1583
303.5878, 254.0553
304.0699, 253.6935
304.5520, 253.2563
305.0341, 252.7523
305.5162, 252.2496
305.9984, 251.7725
306.4805, 251.3379
306.9626, 251.0266
307.4447, 250.9432
307.9268, 251.0047
308.4089, 251.1170
308.8911, 251.2977
309.3732, 251.4588
309.8553, 251.5763
310.3374, 251.6284
310.8195, 251.5393
311.3016, 251.2370
311.7838, 250.7893
312.2659, 250.1968
312.7480, 249.3327
313.2301, 248.6350
313.7122, 248.5035
314.1943, 248.7215
314.6765, 248.8378
315.1586, 248.4046
315.6407, 247.9781
316.1228, 248.0135
316.6049, 248.7288
317.0870, 249.2158
317.5692, 248.8132
318.0513, 247.9960
318.5334, 247.4296
319.0155, 247.9292
319.4976, 248.2113
319.9797, 247.4383
320.4619, 245.4300
320.9440, 243.9912
321.4261, 244.1482
321.9082, 244.9194
322.3903, 245.3763
322.8724, 245.0385
323.3546, 244.6467
323.8367, 244.4111
324.3188, 244.3267
324.8009, 244.1428
325.2830, 243.5568
325.7651, 243.0257
326.2473, 242.8488
326.7294, 243.8141
327.2115, 244.2675
327.6936, 243.7754
328.1757, 242.5544
328.6578, 241.6495
329.1400, 241.1544
329.6221, 240.9176
330.1042, 240.8899
330.5863, 241.2551
331.0684, 241.5408
331.5505, 241.8827
332.0327, 242.1152
332.5148, 241.8160
332.9969, 240.4354
333.4790, 239.2427
333.9611, 238.7122
334.4432, 239.0600
334.9254, 239.1752
335.4075, 239.0160
335.8896, 238.6462
336.3717, 238.0692
336.8538, 237.0524
337.3359, 236.4142
337.8180, 236.5286
338.3001, 237.3780
338.7823, 237.8095
339.2644, 237.7803
339.7465, 237.4244
340.2286, 236.8062
340.7107, 235.8905
341.1928, 234.9614
341.6750, 234.0210
342.1571, 233.1387
342.6392, 232.7512
343.1213, 232.9600
343.6034, 233.1191
344.0855, 232.7608
344.5677, 231.9026
345.0498, 230.7980
345.5319, 229.3675
346.0140, 227.8966
346.4961, 227.0216
346.9782, 226.7230
347.4604, 226.4371
347.9425, 225.7191
348.4246, 224.7360
348.9067, 224.1622
349.3888, 224.0770
349.8709, 224.1811
350.3531, 224.0547
350.8352, 223.7908
351.3173, 223.7350
351.7994, 224.5954
352.2815, 225.5665
352.7636, 224.9985
353.2458, 222.8910
353.7279, 220.7594
354.2100, 220.0761
354.6921, 220.2116
355.1742, 220.0691
355.6563, 219.1229
356.1385, 217.9535
356.6206, 217.0511
357.1027, 216.3875
357.5848, 215.8466
358.0669, 215.5523
358.5490, 215.2447
359.0312, 214.6384
359.5133, 213.5347
359.9954, 212.4448
360.4775, 211.6262
360.9596, 211.0348
361.4417, 210.5871
361.9239, 210.2852
362.4060, 210.0859
362.8881, 210.0935
363.3702, 210.4381
363.8523, 210.3430
364.3344, 209.2207
364.8166, 207.6435
365.2987, 206.2526
365.7808, 204.9145
366.2629, 204.0984
366.7450, 204.3298
367.2271, 205.5930
367.7093, 206.0768
368.1914, 204.9101
368.6735, 203.3132
369.1556, 202.0661
369.6377, 201.3740
370.1198, 200.8513
370.6020, 200.6438
371.0841, 200.6162
371.5662, 200.2596
372.0483, 199.2830
372.5304, 198.3350
373.0125, 197.7583
373.4947, 197.8887
373.9768, 197.3615
374.4589, 195.7655
374.9410, 193.8349
375.4231, 192.8602
375.9052, 193.2165
376.3874, 193.4612
376.8695, 193.1192
377.3516, 192.2056
377.8337, 191.4657
378.3158, 190.9092
378.7979, 190.4809
379.2801, 190.2049
379.7622, 190.0951
380.2443, 189.7974
380.7264, 189.1709
381.2085, 188.3688
381.6906, 187.8484
382.1728, 187.6167
382.6549, 187.3238
383.1370, 186.6602
383.6191, 185.7173
384.1012, 184.8332
384.5833, 183.9794
385.0655, 183.3571
385.5476, 183.5260
386.0297, 184.2369
386.5118, 184.5791
386.9939, 183.6366
387.4760, 182.2596
387.9582, 181.8750
388.4403, 182.5188
388.9224, 183.0502
389.4045, 182.2654
389.8866, 180.8634
390.3687, 179.8392
390.8509, 179.8394
391.3330, 179.9922
391.8151, 179.6651
392.2972, 178.9571
392.7793, 178.2639
393.2614, 177.7653
393.7436, 177.3680
394.2257, 177.0032
394.7078, 176.6777
395.1899, 176.3424
395.6720, 176.0872
396.1541, 175.7902
396.6363, 175.2569
397.1184, 174.1762
397.6005, 173.0950
398.0826, 172.1189
398.5647, 171.2260
399.0468, 170.6933
399.5290, 171.2769
400.0111, 171.8220
400.4932, 171.3781
400.9753, 168.6035
401.4574, 166.6391
401.9395, 165.9296
402.4217, 166.2800
402.9038, 166.8934
403.3859, 168.2205
403.8680, 169.1507
404.3501, 168.9966
404.8322, 167.2903
405.3144, 166.1554
405.7965, 165.7125
406.2786, 165.7108
406.7607, 165.9039
407.2428, 166.4006
407.7249, 166.4540
408.2071, 165.5205
408.6892, 163.8671
409.1713, 163.4889
409.6534, 164.6020
410.1355, 165.7205
410.6176, 165.2518
411.0998, 163.4758
411.5819, 161.9942
412.0640, 161.0646
412.5461, 160.6523
413.0282, 161.0926
413.5103, 162.1865
413.9925, 162.7793
414.4746, 161.7415
414.9567, 159.9251
415.4388, 158.6501
415.9209, 158.0331
416.4030, 157.7306
416.8852, 157.6670
417.3673, 157.6829
417.8494, 157.5195
418.3315, 156.8503
418.8136, 156.1590
419.2957, 155.7036
419.7779, 155.4856
420.2600, 155.4626
420.7421, 155.9753
421.2242, 156.4630
421.7063, 156.4945
422.1884, 155.8285
422.6706, 155.0308
423.1527, 153.8635
423.6348, 152.6949
424.1169, 152.2054
424.5990, 153.3784
425.0811, 154.3884
425.5633, 154.5655
426.0454, 153.7413
426.5275, 153.2415
427.0096, 153.2065
427.4917, 153.3755
427.9738, 153.5487
428.4560, 153.7514
428.9381, 153.9103
429.4202, 154.0771
429.9023, 154.1793
430.3844, 153.8998
430.8665, 153.0889
431.3487, 152.3268
431.8308, 151.8825
432.3129, 151.7614
432.7950, 151.9088
433.2771, 152.3919
433.7592, 152.9676
434.2414, 153.3823
434.7235, 153.6345
435.2056, 153.6632
435.6877, 153.2959
436.1698, 152.8029
436.6519, 152.8057
437.1341, 153.2867
437.6162, 153.8708
438.0983, 154.3139
438.5804, 154.6707
439.0625, 155.0167
439.5446, 155.3441
440.0268, 155.7329
440.5089, 156.3661
440.9910, 157.1123
441.4731, 157.6928
441.9552, 157.4950
442.4373, 157.4795
442.9195, 158.5320
443.4016, 160.6346
443.8837, 162.3623
444.3658, 163.0955
444.8479, 163.2326
445.3300, 163.0429
445.8122, 161.6559
446.2943, 161.1534
446.7764, 162.4476
447.2585, 164.8922
447.7406, 166.8337
448.2227, 167.6274
448.7049, 168.4426
449.1870, 169.7566
449.6691, 171.7599
450.1512, 173.0121
450.6333, 173.1092
451.1154, 172.8854
451.5976, 173.1569
452.0797, 174.1005
452.5618, 174.9498
453.0439, 175.5822
453.5260, 176.0494
454.0081, 176.5493
454.4903, 177.0958
454.9724, 177.6016
455.4545, 178.0800
455.9366, 178.5009
456.4187, 178.6450
456.9008, 178.4773
457.3830, 178.1703
457.8651, 178.0774
458.3472, 178.0382
458.8293, 177.4902
459.3114, 175.8679
459.7935, 174.0334
460.2757, 173.1447
460.7578, 173.0522
461.2399, 172.9795
461.7220, 172.6919
462.2041, 172.0621
462.6862, 170.7627
463.1684, 168.5116
463.6505, 166.6944
464.1326, 166.4661
464.6147, 166.9791
465.0968, 167.1340
465.5789, 166.1099
466.0611, 165.1911
466.5432, 164.7981
467.0253, 164.9022
467.5074, 165.0260
467.9895, 165.4061
468.4716, 165.5592
468.9538, 165.1679
469.4359, 163.6297
469.9180, 162.9081
470.4001, 163.3586
470.8822, 164.3714
471.3643, 165.0488
471.8465, 165.3116
472.3286, 165.4633
472.8107, 165.5932
473.2928, 165.6753
473.7749, 165.4495
474.2570, 164.8210
474.7392, 164.3867
475.2213, 164.8797
475.7034, 166.0979
476.1855, 166.5468
476.6676, 165.9308
477.1497, 165.0083
477.6319, 164.7706
478.1140, 165.0780
478.5961, 165.4858
479.0782, 166.1916
479.5603, 166.6577
480.0424, 165.9353
480.5246, 164.1812
481.0067, 162.6988
481.4888, 162.5106
481.9709, 162.8408
482.4530, 163.0033
482.9352, 162.7815
483.4173, 162.5931
483.8994, 162.7838
484.3815, 163.0695
484.8636, 163.0169
485.3457, 161.8911
485.8279, 161.0701
486.3100, 161.1876
486.7921, 162.2469
487.2742, 162.6007
487.7563, 161.5818
488.2384, 160.5430
488.7206, 160.2769
489.2027, 161.1209
489.6848, 161.8549
490.1669, 162.5119
490.6490, 163.0078
491.1311, 163.1751
491.6133, 162.9734
492.0954, 162.6888
492.5775, 162.2646
493.0596, 161.8616
493.5417, 162.3163
494.0238, 163.6418
494.5060, 164.7523
494.9881, 164.6246
495.4702, 163.6680
495.9523, 162.7676
496.4344, 161.9462
496.9165, 161.6292
497.3987, 162.7163
497.8808, 164.5706
498.3629, 165.9709
498.8450, 166.0005
499.3271, 165.7625
499.8092, 165.9064
500.2914, 166.3968
500.7735, 166.9886
501.2556, 167.9805
501.7377, 168.7692
502.2198, 168.8919
502.7019, 167.8750
503.1841, 167.3132
503.6662, 167.4882
504.1483, 168.1931
504.6304, 169.2396
505.1125, 171.1973
505.5946, 172.5320
506.0768, 172.7956
506.5589, 172.2333
507.0410, 172.1029
507.5231, 172.5059
508.0052, 173.0474
508.4873, 173.5220
508.9695, 173.9212
509.4516, 174.4850
509.9337, 175.2601
510.4158, 176.0024
510.8979, 176.2735
511.3800, 176.2190
511.8622, 176.5429
512.3443, 177.6604
512.8264, 178.9051
513.3085, 179.2681
513.7906, 178.9664
514.2728, 178.7771
514.7549, 179.2238
515.2370, 179.9181
515.7191, 180.5544
516.2012, 181.1107
516.6833, 181.6413
517.1655, 182.2397
517.6476, 182.7963
518.1297, 183.2161
518.6118, 183.4176
519.0939, 183.5615
519.5760, 183.6296
520.0582, 183.6579
520.5403, 183.7405
521.0224, 183.9792
521.5045, 184.1164
521.9866, 183.9744
522.4688, 183.5537
522.9509, 183.6427
523.4330, 184.3712
523.9151, 185.2995
524.3972, 186.0655
524.8793, 186.6578
525.3615, 187.5608
525.8436, 188.9696
526.3257, 190.2917
526.8078, 190.3724
527.2899, 189.4754
527.7720, 188.8685
528.2542, 189.3437
528.7363, 190.1516
529.2184, 190.2420
529.7005, 189.7213
530.1826, 189.1750
530.6647, 188.7296
531.1469, 188.5598
531.6290, 188.9444
532.1111, 190.0747
532.5932, 190.9986
533.0753, 191.2560
533.5574, 191.1612
534.0396, 191.0366
534.5217, 191.0810
535.0038, 190.9322
535.4859, 190.2047
535.9680, 189.2274
536.4501, 189.1597
536.9323, 190.8645
537.4144, 191.9915
537.8965, 191.3588
538.3786, 188.9013
538.8607, 187.7666
539.3428, 188.2423
539.8250, 189.1749
540.3071, 189.5063
540.7892, 189.2981
541.2713, 189.2000
541.7534, 189.3384
542.2355, 189.5294
542.7177, 189.4829
543.1998, 189.2677
543.6819, 189.1038
544.1640, 189.0983
544.6461, 189.1884
545.1282, 189.4050
545.6104, 189.7078
546.0925, 189.8555
546.5746, 189.6440
547.0567, 189.2926
547.5388, 188.8765
548.0209, 188.2934
548.5031, 188.0473
548.9852, 188.8179
549.4673, 189.7003
549.9494, 189.7033
550.4315, 187.8952
550.9136, 186.6642
551.3958, 186.5028
551.8779, 187.0105
552.3600, 186.9595
552.8421, 186.1906
553.3242, 185.4175
553.8063, 184.9452
554.2885, 184.7361
554.7706, 184.4842
555.2527, 184.1824
555.7348, 183.9177
556.2169, 183.9161
556.6990, 184.0075
557.1812, 183.7162
557.6633, 182.9197
558.1454, 181.9269
558.6275, 180.8218
559.1096, 179.7645
559.5917, 179.0122
560.0739, 179.0464
560.5560, 179.0672
561.0381, 178.6124
561.5202, 177.7850
562.0023, 177.0364
562.4844, 176.4497
562.9666, 175.9886
563.4487, 175.7263
563.9308, 175.7757
564.4129, 175.4305
564.8950, 174.4312
565.3771, 173.3174
565.8593, 172.5476
566.3414, 172.2147
566.8235, 171.8125
567.3056, 171.2739
567.7877, 170.6637
568.2698, 170.0694
568.7520, 169.4907
569.2341, 168.9963
569.7162, 168.6256
570.1983, 168.3450
570.6804, 168.1393
571.1625, 167.9906
571.6447, 167.7575
572.1268, 167.2456
572.6089, 166.6661
573.0910, 166.2583
573.5731, 166.0720
574.0552, 165.8503
574.5374, 165.5722
575.0195, 165.1510
575.5016, 164.5048
575.9837, 163.1006
576.4658, 162.1124
576.9479, 161.9050
577.4301, 162.1059
577.9122, 161.9837
578.3943, 161.3953
578.8764, 160.7570
579.3585, 160.2109
579.8406, 159.7144
580.3228, 158.8872
580.8049, 157.6585
581.2870, 156.5601
581.7691, 155.9999
582.2512, 155.8752
582.7333, 155.9033
583.2155, 156.1222
583.6975, 155.9736
584.1796, 154.5214
584.6617, 152.4403
585.1439, 150.8433
585.6260, 150.1384
586.1081, 149.8013
586.5902, 149.8013
587.0723, 149.9124
587.5544, 149.7014
588.0366, 148.6644
588.5187, 147.6642
589.0008, 146.9515
589.4829, 146.5282
589.9650, 146.2476
590.4471, 146.2224
590.9293, 146.1850
591.4114, 146.0036
591.8935, 145.6551
592.3756, 145.3056
592.8577, 144.9538
593.3398, 144.6001
593.8220, 144.2397
594.3041, 143.8743
594.7862, 143.5361
595.2683, 143.2658
595.7504, 142.9348
596.2325, 142.3030
596.7147, 141.4666
597.1968, 140.6849
597.6789, 140.0565
598.1610, 139.5319
598.6431, 139.2178
599.1252, 139.0263
599.6074, 138.5531
600.0895, 137.0357
600.5716, 135.7230
601.0537, 135.3775
601.5358, 136.3685
602.0179, 136.8103
602.5001, 136.4583
602.9822, 135.7739
603.4643, 135.0890
603.9464, 134.4270
604.4285, 133.6083
604.9106, 132.5217
605.3928, 131.4455
605.8749, 130.8246
606.3570, 130.6301
606.8391, 130.5173
607.3212, 130.3902
607.8033, 130.2758
608.2855, 130.2775
608.7676, 130.3432
609.2497, 130.2829
609.7318, 129.9184
610.2139, 129.4378
610.6960, 129.0189
611.1782, 128.6623
611.6603, 128.1662
612.1424, 127.2223
612.6245, 126.2838
613.1066, 125.6394
613.5887, 125.4132
614.0709, 125.2509
614.5530, 125.2522
615.0351, 125.2292
615.5172, 124.9478
615.9993, 124.3272
616.4814, 123.7980
616.9636, 123.4060
617.4457, 123.1573
617.9278, 123.1749
618.4099, 123.4169
618.8920, 123.4613
619.3741, 123.0191
619.8563, 122.3607
620.3384, 121.8353
620.8205, 121.4387
621.3026, 121.1546
621.7847, 121.2130
622.2668, 121.2056
622.7490, 120.7025
623.2311, 119.6002
623.7132, 118.8042
624.1953, 118.7079
624.6774, 118.9017
625.1595, 119.1362
625.6417, 119.7120
626.1238, 119.6790
626.6059, 118.7214
627.0880, 117.5074
627.5701, 117.0230
628.0522, 117.3695
628.5344, 117.4641
629.0165, 117.0467
629.4986, 116.3061
629.9807, 115.4024
630.4628, 114.4200
630.9449, 113.8351
631.4271, 114.1828
631.9092, 114.8421
632.3913, 115.0877
632.8734, 114.9919
633.3555, 115.0348
633.8376, 115.8736
634.3198, 116.5966
634.8019, 116.5182
635.2840, 115.3468
635.7661, 114.5764
636.2482, 114.7296
636.7303, 115.0179
637.2125, 114.9164
637.6946, 114.3358
638.1767, 113.5507
638.6588, 112.4191
639.1409, 111.3538
639.6230, 111.2110
640.1052, 111.9010
640.5873, 111.9701
641.0694, 110.8195
641.5515, 109.2785
642.0336, 108.3784
642.5157, 108.1078
642.9979, 108.4300
643.4800, 110.2056
643.9621, 111.8382
644.4442, 111.9050
644.9263, 110.6744
645.4084, 109.7942
645.8906, 110.4005
646.3727, 110.9494
646.8548, 110.6150
647.3369, 109.2558
647.8190, 108.1252
648.3011, 107.2448
648.7833, 106.5756
649.2654, 106.0974
649.7475, 105.8042
650.2296, 105.7824
650.7117, 106.0924
651.1938, 106.4536
651.6760, 106.5397
652.1581, 106.3910
652.6402, 106.0981
653.1223, 105.5977
653.6044, 105.1438
654.0865, 104.9743
654.5687, 105.0077
655.0508, 105.0844
655.5329, 104.9922
656.0150, 105.0902
656.4971, 105.8375
656.9792, 106.9983
657.4614, 107.3413
657.9435, 106.3764
658.4256, 105.2166
658.9077, 104.1061
659.3898, 103.0594
659.8719, 102.4743
660.3541, 102.3895
660.8362, 102.5823
661.3183, 103.0963
661.8004, 103.7826
662.2825, 104.0607
662.7646, 103.8901
663.2468, 103.4716
663.7289, 102.6368
664.2110, 101.7965
664.6931, 101.5786
665.1752, 102.4126
665.6573, 103.0978
666.1395, 102.9513
666.6216, 102.4283
667.1037, 102.0882
667.5858, 102.1762
668.0679, 102.2455
668.5500, 102.2662
669.0322, 102.2473
669.5143, 102.2183
669.9964, 102.1923
670.4785, 102.0822
670.9606, 101.8276
671.4427, 101.4926
671.9249, 101.2898
672.4070, 101.1977
672.8891, 101.0505
673.3712, 100.6824
673.8533, 100.2478
674.3354, 99.85955
674.8176, 99.53824
675.2997, 99.44984
675.7818, 99.95045
676.2639, 100.5045
676.7460, 100.7952
677.2281, 100.7527
677.7103, 100.5258
678.1924, 99.79573
678.6745, 99.21825
679.1566, 99.40049
679.6387, 100.6163
680.1208, 101.2434
680.6030, 101.1119
681.0851, 100.6251
681.5672, 100.1708
682.0493, 99.77595
682.5314, 99.57047
683.0135, 99.65632
683.4957, 99.77654
683.9778, 99.67593
684.4599, 99.41238
684.9420, 99.10100
685.4241, 98.61947
685.9063, 98.26824
686.3884, 98.22723
686.8705, 98.41544
687.3526, 98.55256
687.8347, 98.70673
688.3168, 98.68187
688.7990, 98.34049
689.2811, 97.75893
689.7632, 97.44355
690.2453, 97.39346
690.7274, 97.61516
691.2095, 98.43428
691.6917, 99.50442
692.1738, 99.65324
692.6559, 98.90088
693.1380, 98.07066
693.6201, 97.66441
694.1022, 97.53199
694.5844, 97.59919
695.0665, 97.90213
695.5486, 98.06675
696.0307, 97.66797
696.5128, 97.27096
696.9949, 97.35803
697.4771, 98.37186
697.9592, 98.91970
698.4413, 98.80643
698.9234, 98.47456
699.4055, 98.56290
699.8876, 99.08790
700.3698, 99.11600
700.8519, 98.33501
701.3340, 97.42204
701.8161, 97.54167
702.2982, 98.28994
702.7803, 98.63272
703.2625, 97.83896
703.7446, 96.94099
704.2267, 96.52609
704.7088, 96.52213
705.1909, 96.78056
705.6730, 97.39290
706.1552, 98.12723
706.6373, 99.08884
707.1194, 100.1475
707.6015, 100.6614
708.0836, 100.4825
708.5657, 100.1814
709.0479, 99.94604
709.5300, 99.77787
710.0121, 99.67614
710.4942, 99.64156
710.9763, 99.70787
711.4584, 99.98151
711.9406, 100.3244
712.4227, 100.6426
712.9048, 100.9221
713.3869, 100.9271
713.8690, 100.1919
714.3511, 99.40475
714.8333, 98.99651
715.3154, 99.07224
715.7975, 99.42861
716.2796, 100.3224
716.7617, 101.1873
717.2438, 101.5458
717.7260, 101.3465
718.2081, 101.1340
718.6902, 100.8975
719.1723, 100.8343
719.6544, 101.3513
720.1365, 102.2165
720.6187, 102.8104
721.1008, 102.9173
721.5829, 102.9830
722.0650, 103.2554
722.5471, 103.7207
723.0292, 104.3690
723.5114, 105.8022
723.9935, 106.6465
724.4756, 106.1906
724.9577, 105.2070
725.4398, 105.0601
725.9219, 106.1001
726.4041, 106.8916
726.8862, 107.0602
727.3683, 106.8653
727.8504, 106.7757
728.3325, 106.8242
728.8146, 107.2731
729.2968, 108.5610
729.7789, 110.0319
730.2610, 111.0117
730.7431, 111.5561
731.2252, 111.8496
731.7073, 111.6355
732.1895, 111.5124
732.6716, 111.7664
733.1537, 112.3907
733.6358, 113.0495
734.1179, 113.8061
734.6000, 114.5096
735.0822, 115.1229
735.5643, 115.6387
736.0464, 115.7983
736.5285, 115.5714
737.0106, 115.6067
737.4927, 116.5951
737.9749, 118.0675
738.4570, 119.2682
738.9391, 120.1490
739.4212, 120.8669
739.9033, 121.3832
740.3854, 121.8612
740.8676, 122.3897
741.3497, 122.9474
741.8318, 123.7160
742.3139, 124.9214
742.7960, 126.0950
743.2781, 126.7915
743.7603, 126.8420
744.2424, 127.7380
744.7245, 129.6710
745.2066, 131.8326
745.6887, 133.5819
746.1708, 134.9089
746.6530, 135.6550
747.1351, 135.6893
747.6172, 135.7020
748.0993, 136.0459
748.5814, 136.7204
749.0635, 137.7348
749.5457, 139.3793
750.0278, 140.9212
750.5099, 142.0990
750.9920, 143.2111
751.4741, 144.6662
751.9562, 146.6147
752.4384, 148.1983
752.9205, 149.2591
753.4026, 149.9618
753.8847, 150.2998
754.3668, 150.4412
754.8489, 151.1132
755.3311, 152.7532
755.8132, 154.5818
756.2953, 155.9480
756.7774, 157.0081
757.2595, 158.0069
757.7416, 158.6893
758.2238, 159.7296
758.7059, 161.7205
759.1880, 164.0860
759.6701, 165.5320
760.1522, 165.7016
760.6343, 166.1591
761.1165, 167.3521
761.5986, 169.0378
762.0807, 170.7848
762.5628, 172.5479
763.0449, 174.0495
763.5270, 174.8725
764.0092, 175.6282
764.4913, 177.1103
764.9734, 179.0356
765.4555, 180.5480
765.9376, 180.6090
766.4197, 180.9530
766.9019, 182.4413
767.3840, 184.7658
767.8661, 186.4755
768.3482, 187.3622
768.8303, 188.2209
769.3124, 189.3346
769.7946, 190.6565
770.2767, 192.2149
770.7588, 193.9559
771.2409, 195.3793
771.7230, 195.8852
772.2051, 196.1362
772.6873, 196.6381
773.1694, 197.4402
773.6515, 198.6938
774.1336, 201.1285
774.6157, 203.3793
775.0978, 204.7299
775.5800, 205.2249
776.0621, 206.0739
776.5442, 207.3373
777.0263, 208.7997
777.5084, 210.5832
777.9905, 212.4883
778.4727, 213.2313
778.9548, 212.8874
779.4369, 212.8222
779.9190, 214.3605
780.4011, 216.4173
780.8832, 218.0608
781.3654, 219.2010
781.8475, 219.9311
782.3296, 219.7976
782.8117, 219.6899
783.2938, 220.0476
783.7759, 220.9040
784.2581, 221.9265
784.7402, 223.2186
785.2223, 224.3410
785.7044, 224.7840
786.1865, 224.7946
786.6686, 225.4366
787.1508, 226.7396
787.6329, 228.1349
788.1150, 229.4044
788.5971, 230.4549
789.0792, 231.0319
789.5613, 231.0376
790.0435, 231.3794
790.5256, 232.5828
791.0077, 233.9124
791.4898, 235.0747
791.9719, 236.1063
792.4540, 236.4482
792.9362, 235.8916
793.4183, 235.4668
793.9004, 236.3331
794.3825, 237.9873
794.8646, 238.9006
795.3467, 238.9636
795.8289, 239.0229
796.3110, 239.8033
796.7931, 240.7789
797.2752, 241.4874
797.7573, 241.8086
798.2394, 242.1867
798.7216, 242.6864
799.2037, 243.2494
799.6858, 243.9685
800.1679, 244.9677
800.6500, 244.8846
801.1321, 243.4933
801.6143, 242.4340
802.0964, 243.7647
802.5785, 246.3196
803.0606, 247.7628
803.5427, 247.7631
804.0248, 247.7372
804.5070, 248.8161
804.9891, 250.0045
805.4712, 250.4398
805.9533, 249.6069
806.4354, 249.4162
806.9175, 250.1411
807.3997, 251.1182
807.8818, 251.9529
808.3639, 252.6347
808.8460, 252.9120
809.3281, 252.7404
809.8102, 252.6057
810.2924, 253.0647
810.7745, 253.7769
811.2566, 254.2161
811.7387, 254.2658
812.2208, 254.5190
812.7029, 255.4842
813.1851, 256.5453
813.6672, 257.2956
814.1493, 257.7152
814.6314, 257.9098
815.1135, 257.8864
815.5956, 257.6153
816.0778, 256.7852
816.5599, 255.6302
817.0420, 255.3759
817.5241, 256.0993
818.0062, 257.0259
818.4883, 257.7525
818.9705, 258.2600
819.4526, 258.5035
819.9347, 258.4596
820.4168, 258.2790
820.8989, 257.9482
821.3810, 257.5209
821.8632, 256.9851
822.3453, 256.3174
822.8274, 255.8640
823.3095, 255.6971
823.7916, 255.3786
824.2737, 254.4097
824.7559, 253.0960
825.2380, 252.0149
825.7201, 251.2140
826.2022, 250.6091
826.6843, 250.5542
827.1664, 250.3746
827.6486, 249.4194
828.1307, 247.4226
828.6128, 246.3277
829.0949, 246.6971
829.5770, 246.9818
830.0591, 246.1715
830.5413, 244.4010
831.0234, 243.3481
831.5055, 242.9984
831.9876, 242.3951
832.4697, 240.3490
832.9518, 238.0032
833.4340, 236.7511
833.9161, 236.5895
834.3982, 236.1787
834.8803, 235.0069
835.3624, 233.5154
835.8445, 231.8400
836.3267, 230.0010
836.8088, 228.2256
837.2909, 226.4711
837.7730, 225.0337
838.2551, 224.3466
838.7372, 224.0155
839.2194, 223.0491
839.7015, 221.5040
840.1836, 219.7034
840.6657, 217.4955
841.1478, 215.3913
841.6299, 213.8300
842.1121, 212.7437
842.5942, 211.4952
843.0763, 210.1236
843.5584, 208.4083
844.0405, 206.0638
844.5226, 203.3886
845.0048, 201.5631
845.4869, 200.5606
845.9690, 200.0032
846.4511, 200.4564
846.9332, 200.6328
847.4153, 198.7401
847.8975, 195.3953
848.3796, 192.3411
848.8617, 190.3251
849.3438, 188.5237
849.8259, 186.7034
850.3080, 184.9391
850.7902, 183.5181
851.2723, 182.5389
851.7544, 181.3614
852.2365, 179.7134
852.7186, 177.9176
853.2007, 176.6225
853.6829, 175.6538
854.1650, 174.5261
854.6471, 172.9890
855.1292, 171.3098
855.6113, 169.3005
856.0934, 167.3147
856.5756, 166.0494
857.0577, 166.3039
857.5398, 165.5592
858.0219, 163.2154
858.5040, 160.2448
858.9861, 158.2181
859.4683, 156.9954
859.9504, 155.9094
860.4325, 154.8605
860.9146, 153.7542
861.3967, 152.5475
861.8788, 151.2334
862.3610, 149.7671
862.8431, 147.9143
863.3252, 146.3540
863.8073, 145.3118
864.2894, 144.4055
864.7715, 143.2769
865.2537, 141.9175
865.7358, 140.5666
866.2179, 139.2400
866.7000, 137.8714
867.1821, 136.3515
867.6642, 134.7582
868.1464, 133.1953
868.6285, 131.6373
869.1106, 130.2768
869.5927, 129.4147
870.0748, 128.5682
870.5569, 127.3735
871.0391, 125.7323
871.5212, 124.4697
872.0033, 123.6627
872.4854, 122.9330
872.9675, 122.0238
873.4496, 120.9729
873.9318, 119.8308
874.4139, 118.6189
874.8960, 117.5598
875.3781, 117.0175
875.8602, 116.4675
876.3423, 115.5496
876.8245, 114.2542
877.3066, 113.0782
877.7887, 112.1263
878.2708, 111.0463
878.7529, 109.5443
879.2350, 107.8844
879.7172, 107.0513
880.1993, 106.9460
880.6814, 106.8372
881.1635, 106.5155
881.6456, 105.8785
882.1277, 104.6380
882.6099, 103.0047
883.0920, 101.6017
883.5741, 100.4350
884.0562, 99.70326
884.5383, 99.64481
885.0204, 99.84602
885.5026, 99.29635
885.9847, 98.05177
886.4668, 97.00150
886.9489, 96.47729
887.4310, 96.05838
887.9131, 95.20622
888.3953, 94.18584
888.8774, 93.39616
889.3595, 93.19333
889.8416, 92.86429
890.3237, 92.33301
890.8058, 91.62231
891.2880, 90.63412
891.7701, 89.32138
892.2522, 88.50513
892.7343, 88.32433
893.2164, 88.17484
893.6985, 87.30984
894.1807, 86.12342
894.6628, 85.08601
895.1449, 84.23618
895.6270, 83.85575
896.1091, 84.74004
896.5912, 85.51118
897.0734, 85.27688
897.5555, 83.93729
898.0376, 82.81286
898.5197, 81.89500
899.0018, 81.30392
899.4839, 81.39721
899.9661, 81.77499
900.4482, 81.73928
900.9303, 81.29280
901.4124, 80.57259
901.8945, 79.05949
902.3766, 77.85669
902.8588, 77.71328
903.3409, 78.37547
903.8230, 78.68255
904.3051, 78.56165
904.7872, 78.37441
905.2693, 78.24281
905.7515, 78.10693
906.2336, 77.86497
906.7157, 77.51682
907.1978, 77.05638
907.6799, 76.26414
908.1620, 75.63593
908.6442, 75.48392
909.1263, 75.61185
909.6084, 75.70124
910.0905, 75.80392
910.5726, 75.65569
911.0547, 75.11819
911.5369, 74.59810
912.0190, 74.92478
912.5011, 75.69036
912.9832, 75.62304
913.4653, 74.39347
913.9474, 73.08508
914.4296, 72.29700
914.9117, 71.78557
915.3938, 71.34984
915.8759, 70.94572
916.3580, 70.72490
916.8401, 70.70200
917.3223, 70.82333
917.8044, 71.10400
918.2865, 71.49778
918.7686, 71.98158
919.2507, 72.50380
919.7328, 72.61797
920.2150, 71.42604
920.6971, 70.29935
921.1792, 70.40002
921.6613, 71.50965
922.1434, 71.68047
922.6255, 70.36837
923.1077, 69.31396
923.5898, 69.06970
924.0719, 69.33174
924.5540, 69.45891
925.0361, 69.46928
925.5182, 69.44435
926.0004, 69.46913
926.4825, 69.37361
926.9646, 68.79940
927.4467, 68.12051
927.9288, 67.96394
928.4109, 68.91789
928.8931, 69.17161
929.3752, 68.42925
929.8573, 67.40598
930.3394, 66.92706
930.8215, 66.84953
931.3036, 66.62778
931.7858, 66.18844
932.2679, 65.75857
932.7500, 65.46609
933.2321, 65.26748
933.7142, 65.12457
934.1964, 65.03685
934.6785, 65.02908
935.1606, 65.12668
935.6427, 65.24613
936.1248, 65.36100
936.6069, 65.45925
937.0891, 65.52781
937.5712, 65.54980
938.0533, 65.43405
938.5354, 64.91171
939.0175, 64.45554
939.4996, 64.41824
939.9818, 64.65691
940.4639, 64.73206
940.9460, 64.50566
941.4281, 64.49025
941.9102, 64.91005
942.3923, 65.31657
942.8745, 64.78244
943.3566, 63.63500
943.8387, 62.81536
944.3208, 62.55743
944.8029, 62.64874
945.2850, 63.56821
945.7672, 64.40092
946.2493, 64.07652
946.7314, 62.00165
947.2135, 61.27921
947.6956, 62.17694
948.1777, 63.51339
948.6599, 64.69579
949.1420, 65.54152
949.6241, 65.41927
950.1062, 64.41430
950.5883, 63.30061
951.0704, 62.21295
951.5526, 61.39121
952.0347, 60.95067
952.5168, 60.88139
952.9989, 61.34287
953.4810, 62.52605
953.9631, 63.31351
954.4453, 63.30955
954.9274, 62.88730
955.4095, 62.54372
955.8916, 62.27415
956.3737, 62.06404
956.8558, 61.92830
957.3380, 61.81594
957.8201, 61.81188
958.3022, 61.75129
958.7843, 61.42052
959.2664, 60.70924
959.7485, 60.38993
960.2307, 60.52058
960.7128, 60.78044
961.1949, 60.88172
961.6770, 60.93824
962.1591, 61.21581
962.6412, 61.70075
963.1234, 61.86373
963.6055, 61.12987
964.0876, 60.47444
964.5697, 60.27477
965.0518, 60.42128
965.5339, 60.38688
966.0161, 60.17131
966.4982, 60.12766
966.9803, 60.51977
967.4624, 60.93049
967.9445, 60.69789
968.4266, 60.20663
968.9088, 60.09644
969.3909, 61.25560
969.8730, 61.74192
970.3551, 61.16628
970.8372, 60.25092
971.3193, 59.65717
971.8015, 59.38079
972.2836, 59.44191
972.7657, 59.85589
973.2478, 60.14720
973.7299, 59.72331
974.2120, 59.18795
974.6942, 59.11607
975.1763, 59.55310
975.6584, 59.72438
976.1405, 59.40470
976.6226, 59.25249
977.1047, 59.60836
977.5869, 60.21189
978.0690, 60.25714
978.5511, 59.89294
979.0332, 59.69730
979.5153, 60.13350
979.9974, 60.45384
980.4796, 60.13885
980.9617, 59.51593
981.4438, 59.01949
981.9259, 58.57183
982.4080, 58.60518
982.8901, 59.27356
983.3723, 59.91194
983.8544, 59.71558
984.3365, 59.06373
984.8186, 58.69431
985.3007, 58.66101
985.7828, 58.55439
986.2650, 57.89930
986.7471, 57.45925
987.2292, 57.72599
987.7113, 58.48915
988.1934, 58.58716
988.6755, 57.99427
989.1577, 57.29209
989.6398, 56.57697
990.1219, 56.07379
990.6040, 56.23895
991.0861, 56.76066
991.5682, 57.10700
992.0504, 56.77719
992.5325, 56.84542
993.0146, 57.67263
993.4967, 58.53621
993.9788, 58.67921
994.4609, 58.19851
994.9431, 57.96730
995.4252, 58.02985
995.9073, 58.07917
996.3894, 57.90723
996.8715, 57.62138
997.3536, 57.12093
997.8358, 56.49029
998.3179, 56.53047
998.8000, 57.59447
999.2821, 58.40992
999.7642, 58.52215
1000.246, 58.31094
1000.728, 58.75488
1001.211, 59.48803
1001.693, 59.45060
1002.175, 57.77169
1002.657, 56.49334
1003.139, 56.97544
1003.621, 57.93919
1004.103, 58.17404
1004.585, 57.48745
1005.068, 57.22630
1005.550, 57.42470
1006.032, 57.69158
1006.514, 57.72100
1006.996, 57.65307
1007.478, 57.65780
1007.960, 57.72878
1008.442, 57.79199
1008.924, 57.76988
1009.407, 57.83864
1009.889, 58.16968
1010.371, 58.48437
1010.853, 57.92181
1011.335, 56.69135
1011.817, 56.32579
1012.299, 57.36313
1012.781, 58.49290
1013.263, 58.90076
1013.746, 58.82426
1014.228, 58.40150
1014.710, 57.55817
1015.192, 56.94139
1015.674, 56.58465
1016.156, 56.35844
1016.638, 56.24233
1017.120, 56.16967
1017.603, 55.87436
1018.085, 55.47142
1018.567, 55.37864
1019.049, 56.38639
1019.531, 56.97677
1020.013, 56.30635
1020.495, 55.23693
1020.977, 55.11326
1021.459, 55.96278
1021.942, 56.50020
1022.424, 56.53989
1022.906, 56.45328
1023.388, 56.60006
1023.870, 56.78898
1024.352, 56.75901
1024.834, 56.45655
1025.316, 56.47992
1025.799, 57.04979
1026.281, 57.55820
1026.763, 57.76420
1027.245, 57.74907
1027.727, 57.79470
1028.209, 57.81956
1028.691, 57.51667
1029.173, 56.38791
1029.656, 55.51114
1030.138, 55.58961
1030.620, 56.05797
1031.102, 56.34868
1031.584, 56.47131
1032.066, 56.23742
1032.548, 55.58437
1033.030, 55.12300
1033.512, 55.49265
1033.995, 56.25187
1034.477, 57.06248
1034.959, 57.83078
1035.441, 58.14766
1035.923, 57.38370
1036.405, 57.02777
1036.887, 57.64936
1037.369, 58.50031
1037.851, 57.72496
1038.334, 55.86029
1038.816, 55.03002
1039.298, 55.91361
1039.780, 56.93501
1040.262, 57.39476
1040.744, 57.38325
1041.226, 56.89671
1041.708, 55.91493
1042.191, 55.00004
1042.673, 54.10988
1043.155, 53.54686
1043.637, 53.54479
1044.119, 53.89330
1044.601, 54.41319
1045.083, 55.04531
1045.565, 55.63406
1046.047, 56.64702
1046.530, 56.78735
1047.012, 55.62509
1047.494, 54.06415
1047.976, 52.84794
1048.458, 52.06878
1048.940, 52.58287
1049.422, 54.40364
1049.904, 55.82949
1050.386, 55.24221
1050.869, 54.45628
1051.351, 54.84020
1051.833, 56.00189
1052.315, 56.18975
1052.797, 55.27029
1053.279, 54.33947
1053.761, 53.61933
1054.243, 53.16593
1054.726, 53.13336
1055.208, 53.37169
1055.690, 53.69836
1056.172, 54.13852
1056.654, 54.48955
1057.136, 54.90018
1057.618, 54.93003
1058.100, 54.00986
1058.583, 52.54968
1059.065, 52.35302
1059.547, 53.16722
1060.029, 53.82653
1060.511, 53.44823
1060.993, 53.10308
1061.475, 53.52679
1061.957, 54.08896
1062.439, 53.83077
1062.922, 52.62102
1063.404, 50.50001
1063.886, 51.90206
1064.368, 52.67070
1064.850, 52.83997
1065.332, 50.61468
1065.814, 51.48147
1066.296, 51.10909
1066.778, 50.68590
1067.261, 51.98779
1067.743, 50.11078
1068.225, 51.38541
1068.707, 51.40195
1069.189, 51.99430
1069.671, 51.33981
1070.153, 51.07045
1070.635, 52.04828
1071.118, 52.33543
1071.600, 51.53743
1072.082, 52.16637
1072.564, 50.24582
1073.046, 50.56247
1073.528, 51.84440
1074.010, 51.10908
1074.492, 51.76082
1074.974, 51.88428
1075.457, 49.60691
1075.939, 51.50478
1076.421, 51.59703
1076.903, 49.83532
1077.385, 49.08157
1077.867, 48.58387
1078.349, 49.17348
1078.831, 50.06336
1079.313, 50.68111
1079.796, 51.04996
1080.278, 51.13775
1080.760, 50.98058
1081.242, 50.80751
1081.724, 50.62757
1082.206, 50.53090
1082.688, 50.57888
1083.170, 50.66942
1083.652, 50.62769
1084.135, 50.46708
1084.617, 50.22003
1085.099, 49.88094
1085.581, 49.55086
1086.063, 49.10094
1086.545, 48.87062
1087.027, 49.20869
1087.509, 50.01072
1087.992, 50.12977
1088.474, 49.55730
1088.956, 49.04632
1089.438, 48.88210
1089.920, 48.93938
1090.402, 49.16557
1090.884, 49.50246
1091.366, 49.90830
1091.849, 50.58366
1092.331, 50.66631
1092.813, 49.95251
1093.295, 49.33625
1093.777, 49.80979
1094.259, 50.66257
1094.741, 50.38432
1095.223, 49.27820
1095.705, 48.45200
1096.188, 48.22743
1096.670, 48.53241
1097.152, 49.65916
1097.634, 50.86482
1098.116, 51.20911
1098.598, 50.79567
1099.080, 49.80941
1099.562, 48.28805
1100.044, 47.50291
1100.527, 49.37288
1101.009, 51.03759
1101.491, 50.58836
1101.973, 48.77727
1102.455, 48.01813
1102.937, 48.31943
1103.419, 48.43613
1103.901, 48.05804
1104.384, 47.43553
1104.866, 46.50495
1105.348, 45.65700
1105.830, 45.31026
1106.312, 45.55794
1106.794, 45.97761
1107.276, 46.67056
1107.758, 47.12440
1108.240, 47.02972
1108.723, 46.66198
1109.205, 46.37523
1109.687, 46.16420
1110.169, 46.01884
1110.651, 45.96713
1111.133, 45.89643
1111.615, 45.65198
1112.097, 45.64187
1112.579, 46.46836
1113.062, 47.75713
1113.544, 48.09747
1114.026, 47.63490
1114.508, 47.11305
1114.990, 46.98889
1115.472, 46.72550
1115.954, 45.87819
1116.436, 45.04652
1116.919, 45.17641
1117.401, 46.17725
1117.883, 46.72546
1118.365, 46.70572
1118.847, 46.54596
1119.329, 46.57633
1119.811, 46.54780
1120.293, 46.21086
1120.776, 45.67724
1121.258, 45.39450
1121.740, 45.41723
1122.222, 45.02958
1122.704, 43.92884
1123.186, 43.05031
1123.668, 43.66386
1124.150, 44.79393
1124.632, 45.41856
1125.115, 45.36193
1125.597, 45.29957
1126.079, 45.26171
1126.561, 45.13753
1127.043, 44.83566
1127.525, 44.50529
1128.007, 44.43104
1128.489, 44.49085
1128.971, 44.45607
1129.454, 44.16600
1129.936, 44.11952
1130.418, 44.60310
1130.900, 44.86401
1131.382, 44.24911
1131.864, 43.14589
1132.346, 42.74096
1132.828, 42.87645
1133.311, 43.03211
1133.793, 42.86964
1134.275, 42.86451
1134.757, 43.28576
1135.239, 43.72283
1135.721, 43.76576
1136.203, 43.45684
1136.685, 43.10750
1137.167, 42.74056
1137.650, 42.50595
1138.132, 42.53101
1138.614, 42.66816
1139.096, 42.94360
1139.578, 43.24201
1140.060, 43.37912
1140.542, 43.35449
1141.024, 43.23478
1141.506, 43.02013
1141.989, 42.85712
1142.471, 42.99729
1142.953, 43.11555
1143.435, 42.92423
1143.917, 42.47818
1144.399, 42.05334
1144.881, 41.61963
1145.363, 41.43609
1145.846, 41.56987
1146.328, 41.93412
1146.810, 42.84535
1147.292, 43.66673
1147.774, 43.54165
1148.256, 42.27364
1148.738, 41.66522
1149.220, 41.94998
1149.703, 42.09472
1150.185, 41.57129
1150.667, 41.06389
1151.149, 42.01102
1151.631, 43.50801
1152.113, 44.04571
1152.595, 42.96000
1153.077, 42.10216
1153.559, 41.54522
1154.042, 41.37532
1154.524, 41.88546
1155.006, 42.60343
1155.488, 42.30706
1155.970, 41.37480
1156.452, 40.73912
1156.934, 40.88955
1157.416, 41.01038
1157.898, 40.95314
1158.381, 40.90693
1158.863, 41.10035
1159.345, 41.41970
1159.827, 41.30846
1160.309, 40.88131
1160.791, 40.60476
1161.273, 40.85273
1161.755, 41.07178
1162.238, 41.16277
1162.720, 41.12590
1163.202, 40.82361
1163.684, 40.35279
1164.166, 40.43848
1164.648, 41.05128
1165.130, 41.61150
1165.612, 41.94151
1166.094, 41.96171
1166.577, 41.52998
1167.059, 40.84814
1167.541, 40.10786
1168.023, 39.33691
1168.505, 39.00048
1168.987, 39.14518
1169.469, 39.46054
1169.951, 39.89936
1170.433, 40.27766
1170.916, 40.51199
1171.398, 40.59735
1171.880, 40.43309
1172.362, 40.02369
1172.844, 39.78020
1173.326, 39.78421
1173.808, 39.93096
1174.290, 40.32006
1174.773, 40.66119
1175.255, 40.66537
1175.737, 40.40156
1176.219, 40.14101
1176.701, 39.86500
1177.183, 40.09001
1177.665, 41.19510
1178.147, 41.98404
1178.630, 40.70405
1179.112, 38.97808
1179.594, 38.54921
1180.076, 39.49210
1180.558, 39.87939
1181.040, 39.65714
1181.522, 39.44969
1182.004, 39.56043
1182.486, 39.64385
1182.969, 39.14966
1183.451, 38.51090
1183.933, 38.29794
1184.415, 38.64936
1184.897, 38.86017
1185.379, 38.92582
1185.861, 38.87094
1186.343, 38.58519
1186.825, 38.35120
1187.308, 38.78154
1187.790, 39.38769
1188.272, 39.29947
1188.754, 37.90207
1189.236, 37.43042
1189.718, 38.03271
1190.200, 38.81602
1190.682, 39.31828
1191.165, 39.58404
1191.647, 39.58245
1192.129, 39.40837
1192.611, 39.25463
1193.093, 39.23304
1193.575, 39.01527
1194.057, 38.52132
1194.539, 38.13979
1195.021, 38.19186
1195.504, 38.52179
1195.986, 39.31936
1196.468, 40.20776
1196.950, 40.00966
1197.432, 37.58834
1197.914, 36.27646
1198.396, 36.43660
1198.878, 37.12934
1199.360, 37.57363
1199.843, 37.92459
1200.325, 38.52096
1200.807, 39.24327
1201.289, 39.52997
1201.771, 39.06146
1202.253, 38.68138
1202.735, 38.49166
1203.217, 38.37964
1203.700, 38.11563
1204.182, 37.91472
1204.664, 38.32679
1205.146, 38.01697
1205.628, 39.37514
1206.110, 38.07389
1206.592, 37.41320
1207.074, 37.83852
1207.557, 38.65083
1208.039, 39.33180
1208.521, 39.63853
1209.003, 38.81955
1209.485, 36.94993
1209.967, 36.26259
1210.449, 37.61936
1210.931, 38.64284
1211.413, 38.81180
1211.896, 38.56104
1212.378, 38.39916
1212.860, 38.24840
1213.342, 37.96615
1213.824, 37.53601
1214.306, 37.19916
1214.788, 36.92628
1215.270, 36.88959
1215.752, 37.19104
1216.235, 37.60284
1216.717, 37.90620
1217.199, 38.05779
1217.681, 37.95103
1218.163, 37.54992
1218.645, 37.20161
1219.127, 36.92281
1219.609, 36.73980
1220.092, 36.71046
1220.574, 36.66303
1221.056, 36.16219
1221.538, 35.56464
1222.020, 35.39462
1222.502, 35.78727
1222.984, 36.31009
1223.466, 36.95635
1223.948, 37.71203
1224.431, 38.72600
1224.913, 39.52974
1225.395, 39.20824
1225.877, 38.35268
1226.359, 37.78883
1226.841, 37.73769
1227.323, 37.49953
1227.805, 36.96048
1228.287, 36.70861
1228.770, 37.11006
1229.252, 37.69667
1229.734, 37.92710
1230.216, 37.88681
1230.698, 37.59285
1231.180, 36.91010
1231.662, 36.84574
1232.144, 37.51019
1232.627, 38.17338
1233.109, 38.59956
1233.591, 38.70203
1234.073, 38.01722
1234.555, 37.13241
1235.037, 36.97189
1235.519, 37.83358
1236.001, 37.84365
1236.484, 36.87056
1236.966, 36.25717
1237.448, 36.98555
1237.930, 37.89473
1238.412, 37.65897
1238.894, 36.96335
1239.376, 36.78344
1239.858, 37.25196
1240.340, 37.50143
1240.823, 37.52228
1241.305, 37.43339
1241.787, 37.24305
1242.269, 37.04260
1242.751, 36.79952
1243.233, 36.66512
1243.715, 36.88934
1244.197, 37.53766
1244.679, 37.77903
1245.162, 37.62223
1245.644, 37.40395
1246.126, 37.27183
1246.608, 37.18368
1247.090, 37.24559
1247.572, 37.23431
1248.054, 36.80577
1248.536, 35.91782
1249.019, 35.77639
1249.501, 36.33184
1249.983, 37.06239
1250.465, 38.10179
1250.947, 38.70824
1251.429, 38.07948
1251.911, 37.15214
1252.393, 36.87186
1252.875, 37.18305
1253.358, 36.79956
1253.840, 35.87031
1254.322, 35.38090
1254.804, 36.47688
1255.286, 37.27340
1255.768, 36.89006
1256.250, 36.19514
1256.732, 35.72512
1257.214, 35.54290
1257.697, 36.37676
1258.179, 37.95072
1258.661, 38.98119
1259.143, 38.53324
1259.625, 37.95997
1260.107, 37.34277
1260.589, 36.97138
1261.071, 37.29433
1261.554, 38.01896
1262.036, 38.18607
1262.518, 37.91673
1263.000, 37.65586
1263.482, 37.62384
1263.964, 37.49949
1264.446, 37.18189
1264.928, 36.93633
1265.411, 37.13286
1265.893, 37.47591
1266.375, 37.34793
1266.857, 36.88847
1267.339, 36.47950
1267.821, 35.91821
1268.303, 36.11826
1268.785, 37.32759
1269.267, 38.43452
1269.750, 38.45213
1270.232, 37.93411
1270.714, 37.42524
1271.196, 36.97755
1271.678, 36.72712
1272.160, 36.78875
1272.642, 36.60633
1273.124, 36.11905
1273.606, 35.80544
1274.089, 36.33923
1274.571, 36.88332
1275.053, 36.38083
1275.535, 36.81516
1276.017, 36.86111
1276.499, 36.61267
1276.981, 36.85361
1277.463, 36.17914
1277.946, 35.60809
1278.428, 35.81135
1278.910, 36.32407
1279.392, 37.43259
1279.874, 38.28904
1280.356, 37.54773
1280.838, 35.28880
1281.320, 34.93224
1281.802, 36.33377
1282.285, 37.77302
1282.767, 38.61190
1283.249, 38.92663
1283.731, 38.39770
1284.213, 37.74004
1284.695, 37.70572
1285.177, 38.08439
1285.659, 37.83400
1286.141, 37.05311
1286.624, 36.19273
1287.106, 34.77883
1287.588, 34.44076
1288.070, 35.77351
1288.552, 37.26355
1289.034, 37.62042
1289.516, 37.23998
1289.998, 36.82817
1290.481, 36.44494
1290.963, 36.23194
1291.445, 36.49205
1291.927, 36.39581
1292.409, 35.82245
1292.891, 35.35743
1293.373, 35.46562
1293.855, 35.88417
1294.338, 36.48219
1294.820, 37.08392
1295.302, 37.30422
1295.784, 37.01808
1296.266, 36.87025
1296.748, 36.87128
1297.230, 36.81549
1297.712, 36.33457
1298.194, 36.03204
1298.677, 36.71049
1299.159, 37.62710
1299.641, 37.80431
1300.123, 37.21474
1300.605, 37.21083
1301.087, 37.68708
1301.569, 37.66815
1302.051, 36.20681
1302.533, 34.87817
1303.016, 34.19818
##END=



