##NAMES=Perovskite
##RRUFFID=R050456
##IDEAL CHEMISTRY=CaTi^4+^O_3_
##LOCALITY=Magnet Cove, Arkansas, USA
##OWNER=RRUFF
##SOURCE=University of Arizona Mineral Museum
##DESCRIPTION=Groups of black cubo-octahedral crystals
##STATUS=The identification of this mineral has been confirmed by X-ray diffraction and chemical analysis
##URL=rruff.info/R050456
##MEASURED CHEMISTRY=darker phase: (Ca_0.82_Fe^2+^_0.09_Na_0.07_Ce_0.01_La_0.01_)_Σ=1_(Ti_0.95_Nb^5+^_0.05_)_Σ=1_O_3_ ; gray phase: (Ca_0.89_Fe^2+^_0.05_Na_0.04_Ce_0.01_La_0.01_)_Σ=1_(Ti_0.98_Nb^5+^_0.02_)_Σ=1_O_3_
93.78320, 106.8777
94.26532, 107.1735
94.74744, 107.6683
95.22955, 108.0921
95.71167, 108.4376
96.19379, 108.0564
96.67590, 107.0770
97.15802, 105.9127
97.64014, 104.5858
98.12225, 103.1241
98.60437, 101.5249
99.08649, 99.71748
99.56860, 97.96955
100.0507, 96.63485
100.5328, 95.56837
101.0150, 94.67214
101.4971, 93.96085
101.9792, 93.44287
102.4613, 92.91702
102.9434, 92.23923
103.4255, 91.52686
103.9077, 90.83681
104.3898, 90.16222
104.8719, 89.56680
105.3540, 89.19889
105.8361, 89.17879
106.3182, 89.17505
106.8004, 89.08293
107.2825, 88.96166
107.7646, 88.86873
108.2467, 88.83294
108.7288, 88.85251
109.2109, 88.94224
109.6931, 89.03127
110.1752, 89.25276
110.6573, 89.75137
111.1394, 90.43554
111.6215, 91.07887
112.1036, 91.47655
112.5858, 91.58855
113.0679, 91.68793
113.5500, 91.74210
114.0321, 91.80445
114.5142, 91.93616
114.9964, 92.14624
115.4785, 92.34974
115.9606, 92.45513
116.4427, 92.46916
116.9248, 92.38874
117.4069, 92.12514
117.8891, 91.77076
118.3712, 91.50756
118.8533, 91.36544
119.3354, 91.34504
119.8175, 91.46984
120.2996, 91.72570
120.7818, 91.96098
121.2639, 92.07862
121.7460, 92.07737
122.2281, 91.98455
122.7102, 91.59782
123.1923, 91.25806
123.6745, 91.22977
124.1566, 91.53580
124.6387, 91.89563
125.1208, 91.90624
125.6029, 91.45512
126.0850, 90.84880
126.5672, 89.94416
127.0493, 89.01814
127.5314, 88.28397
128.0135, 87.82424
128.4956, 87.60024
128.9777, 87.49976
129.4599, 87.84715
129.9420, 87.95655
130.4241, 87.58706
130.9062, 86.97851
131.3883, 86.52657
131.8705, 86.48344
132.3526, 86.72054
132.8347, 86.49911
133.3168, 85.30106
133.7989, 84.26526
134.2810, 84.01504
134.7632, 84.42310
135.2453, 84.79219
135.7274, 84.63138
136.2095, 84.07617
136.6916, 83.69386
137.1737, 83.64494
137.6559, 83.69823
138.1380, 83.59071
138.6201, 83.28157
139.1022, 83.00352
139.5843, 82.96221
140.0664, 83.04198
140.5486, 83.08179
141.0307, 82.95820
141.5128, 82.75553
141.9949, 82.75582
142.4770, 83.16001
142.9591, 83.46511
143.4413, 83.40739
143.9234, 83.11272
144.4055, 82.81319
144.8876, 82.68233
145.3697, 82.72154
145.8518, 82.71616
146.3340, 82.53284
146.8161, 82.42301
147.2982, 82.55386
147.7803, 82.85209
148.2624, 83.10136
148.7445, 83.07362
149.2267, 82.68262
149.7088, 82.36269
150.1909, 82.04833
150.6730, 81.83370
151.1551, 81.78768
151.6372, 81.91178
152.1194, 82.15194
152.6015, 82.46941
153.0836, 82.96499
153.5657, 83.20449
154.0478, 82.98325
154.5299, 82.60415
155.0121, 82.39306
155.4942, 82.44180
155.9763, 82.55598
156.4584, 82.37969
156.9405, 81.87096
157.4227, 81.52681
157.9048, 81.61797
158.3869, 81.96172
158.8690, 82.16875
159.3511, 82.11414
159.8332, 81.92097
160.3154, 81.74536
160.7975, 81.58851
161.2796, 81.42110
161.7617, 81.16731
162.2438, 80.84304
162.7259, 80.68800
163.2081, 80.95312
163.6902, 81.25114
164.1723, 81.24915
164.6544, 80.91843
165.1365, 80.54312
165.6186, 80.46648
166.1008, 80.77897
166.5829, 80.98415
167.0650, 80.88046
167.5471, 80.72412
168.0292, 80.67018
168.5113, 80.75782
168.9935, 80.91959
169.4756, 81.05532
169.9577, 81.19746
170.4398, 81.23940
170.9219, 81.14201
171.4040, 80.97792
171.8862, 80.74962
172.3683, 80.46865
172.8504, 80.23280
173.3325, 80.28281
173.8146, 81.19534
174.2967, 81.69970
174.7789, 81.50378
175.2610, 80.96921
175.7431, 80.50706
176.2252, 80.29958
176.7073, 80.27438
177.1894, 80.19823
177.6716, 80.13326
178.1537, 79.95267
178.6358, 79.56496
179.1179, 79.04636
179.6000, 78.53341
180.0821, 78.09140
180.5643, 77.70548
181.0464, 77.32632
181.5285, 76.94559
182.0106, 76.57652
182.4927, 76.21508
182.9749, 75.86625
183.4570, 75.55034
183.9391, 75.27058
184.4212, 75.04179
184.9033, 74.87952
185.3854, 74.81200
185.8676, 74.76496
186.3497, 74.72511
186.8318, 74.69659
187.3139, 74.52567
187.7960, 73.98520
188.2781, 73.33130
188.7603, 72.83974
189.2424, 72.57207
189.7245, 72.45548
190.2066, 72.42906
190.6887, 72.52635
191.1708, 72.59026
191.6530, 72.55202
192.1351, 72.46269
192.6172, 72.34279
193.0993, 72.18877
193.5814, 72.05100
194.0635, 72.04934
194.5457, 72.27644
195.0278, 72.45640
195.5099, 72.55807
195.9920, 72.58186
196.4741, 72.51143
196.9562, 72.33577
197.4384, 72.09366
197.9205, 71.88409
198.4026, 71.60320
198.8847, 71.52453
199.3668, 71.82451
199.8489, 72.28033
200.3311, 72.65107
200.8132, 72.81493
201.2953, 72.81136
201.7774, 72.79448
202.2595, 72.66150
202.7416, 72.63403
203.2238, 72.77475
203.7059, 73.02607
204.1880, 73.33045
204.6701, 73.66415
205.1522, 73.99936
205.6344, 74.20263
206.1165, 74.18040
206.5986, 74.15231
207.0807, 74.14784
207.5628, 74.17014
208.0449, 74.22507
208.5271, 74.31843
209.0092, 74.44306
209.4913, 74.56818
209.9734, 74.67107
210.4555, 74.79974
210.9376, 74.96660
211.4198, 75.17123
211.9019, 75.41635
212.3840, 75.70407
212.8661, 76.03289
213.3482, 76.39429
213.8303, 76.81982
214.3125, 77.22388
214.7946, 77.56306
215.2767, 77.84054
215.7588, 78.05729
216.2409, 78.18191
216.7230, 78.26709
217.2052, 78.41061
217.6873, 78.62341
218.1694, 78.87252
218.6515, 79.14320
219.1336, 79.43574
219.6157, 79.72313
220.0979, 79.96931
220.5800, 80.22683
221.0621, 80.59586
221.5442, 81.13231
222.0263, 81.59415
222.5084, 81.67383
222.9906, 81.32907
223.4727, 81.06735
223.9548, 81.08592
224.4369, 81.23095
224.9190, 81.40963
225.4011, 81.60715
225.8833, 81.82302
226.3654, 82.08548
226.8475, 82.42271
227.3296, 82.66247
227.8117, 82.66044
228.2938, 82.61696
228.7760, 82.62524
229.2581, 82.71069
229.7402, 82.89005
230.2223, 83.19469
230.7044, 83.65006
231.1866, 84.15836
231.6687, 84.81861
232.1508, 85.44856
232.6329, 85.90366
233.1150, 86.17193
233.5971, 86.37761
234.0793, 86.71004
234.5614, 87.26435
235.0435, 87.70782
235.5256, 87.82645
236.0077, 87.99725
236.4898, 88.52592
236.9720, 89.42558
237.4541, 90.42601
237.9362, 91.16958
238.4183, 91.60125
238.9004, 91.86560
239.3825, 91.81160
239.8647, 91.73271
240.3468, 91.84604
240.8289, 92.16403
241.3110, 92.52608
241.7931, 92.75578
242.2752, 92.89171
242.7574, 92.71195
243.2395, 92.00211
243.7216, 91.18826
244.2037, 90.54935
244.6858, 90.11267
245.1679, 89.71729
245.6501, 89.19080
246.1322, 88.51085
246.6143, 87.74944
247.0964, 86.77150
247.5785, 85.81867
248.0606, 85.11101
248.5428, 84.63844
249.0249, 84.15086
249.5070, 83.38845
249.9891, 82.28694
250.4712, 81.34336
250.9533, 80.51194
251.4355, 79.85779
251.9176, 79.54171
252.3997, 79.52071
252.8818, 79.44150
253.3639, 78.98768
253.8460, 78.14181
254.3282, 77.40234
254.8103, 76.76022
255.2924, 76.22623
255.7745, 75.80294
256.2566, 75.49400
256.7387, 75.34202
257.2209, 75.44197
257.7030, 75.74088
258.1851, 75.86366
258.6672, 75.74400
259.1493, 75.50201
259.6314, 75.14681
260.1136, 74.69939
260.5957, 74.33388
261.0778, 74.14810
261.5599, 74.13638
262.0420, 74.21151
262.5241, 74.47163
263.0063, 74.70151
263.4884, 74.72030
263.9705, 74.55004
264.4526, 74.37672
264.9347, 74.25492
265.4168, 74.21089
265.8990, 74.27457
266.3811, 74.48308
266.8632, 74.72092
267.3453, 74.90550
267.8275, 75.04386
268.3096, 75.19960
268.7917, 75.42956
269.2738, 75.65323
269.7559, 75.74765
270.2380, 75.68330
270.7202, 75.64323
271.2023, 75.79591
271.6844, 76.10755
272.1665, 76.34718
272.6486, 76.44007
273.1307, 76.45103
273.6129, 76.39058
274.0950, 76.26180
274.5771, 76.28081
275.0592, 76.74768
275.5413, 77.55269
276.0234, 78.02860
276.5056, 77.92556
276.9877, 77.65608
277.4698, 77.48462
277.9519, 77.41939
278.4340, 77.49882
278.9161, 77.88668
279.3983, 78.47618
279.8804, 78.75778
280.3625, 78.51421
280.8446, 78.24747
281.3267, 78.30230
281.8088, 78.57015
282.2910, 78.79579
282.7731, 78.78609
283.2552, 78.63075
283.7373, 78.66251
284.2194, 79.03613
284.7015, 79.30031
285.1837, 79.17323
285.6658, 78.83059
286.1479, 78.53162
286.6300, 78.41042
287.1121, 78.38881
287.5942, 78.28244
288.0764, 78.04506
288.5585, 77.83178
289.0406, 77.70165
289.5227, 77.62168
290.0048, 77.57417
290.4869, 77.56232
290.9691, 77.54517
291.4512, 77.42473
291.9333, 77.13909
292.4154, 76.95248
292.8975, 77.07082
293.3796, 77.23436
293.8618, 77.22881
294.3439, 77.00013
294.8260, 76.69169
295.3081, 76.46513
295.7902, 76.31521
296.2723, 76.27391
296.7545, 76.48256
297.2366, 76.70816
297.7187, 76.80883
298.2008, 76.77672
298.6829, 76.71031
299.1650, 76.73183
299.6472, 76.86058
300.1293, 76.88754
300.6114, 76.64846
301.0935, 76.43809
301.5756, 76.41031
302.0577, 76.53434
302.5399, 76.68232
303.0220, 76.79150
303.5041, 76.85631
303.9862, 76.72169
304.4683, 76.10954
304.9504, 75.62151
305.4326, 75.52215
305.9147, 75.69243
306.3968, 75.91102
306.8789, 76.06091
307.3610, 76.14688
307.8431, 76.18317
308.3253, 76.15800
308.8074, 76.09660
309.2895, 75.94958
309.7716, 75.79515
310.2537, 75.74490
310.7358, 75.85773
311.2180, 76.04729
311.7001, 76.11519
312.1822, 76.00170
312.6643, 75.89486
313.1464, 75.85925
313.6285, 75.82698
314.1107, 75.71343
314.5928, 75.50082
315.0749, 75.29633
315.5570, 75.27200
316.0392, 75.48393
316.5213, 75.67088
317.0034, 75.77853
317.4855, 75.87662
317.9676, 76.02795
318.4497, 76.22298
318.9319, 76.37886
319.4140, 76.41281
319.8961, 76.31906
320.3782, 76.16268
320.8603, 75.80449
321.3424, 75.51853
321.8246, 75.38528
322.3067, 75.40771
322.7888, 75.59020
323.2709, 76.01092
323.7530, 76.60648
324.2351, 76.87016
324.7173, 76.53043
325.1994, 76.22544
325.6815, 76.10122
326.1636, 76.14228
326.6457, 76.34204
327.1278, 76.72000
327.6100, 77.19414
328.0921, 77.57752
328.5742, 77.87321
329.0563, 78.06088
329.5384, 78.09951
330.0205, 78.06374
330.5027, 77.98663
330.9848, 77.87875
331.4669, 77.80537
331.9490, 77.90754
332.4311, 78.26527
332.9132, 78.44640
333.3954, 78.15488
333.8775, 77.83863
334.3596, 77.80535
334.8417, 78.03738
335.3238, 78.23038
335.8059, 78.00436
336.2881, 77.34890
336.7702, 77.00213
337.2523, 77.19777
337.7344, 77.47948
338.2165, 77.72668
338.6986, 77.89560
339.1808, 77.90075
339.6629, 77.61450
340.1450, 77.14297
340.6271, 76.91020
341.1092, 77.06563
341.5913, 77.17321
342.0735, 77.01907
342.5556, 76.74438
343.0377, 76.50142
343.5198, 76.33363
344.0019, 76.25856
344.4840, 76.35921
344.9662, 76.70623
345.4483, 76.92116
345.9304, 76.77496
346.4125, 76.51501
346.8946, 76.27688
347.3767, 76.08265
347.8589, 75.95741
348.3410, 75.96664
348.8231, 76.10529
349.3052, 76.16734
349.7873, 76.07841
350.2694, 75.95445
350.7516, 75.90644
351.2337, 75.90652
351.7158, 75.83504
352.1979, 75.53411
352.6800, 75.09952
353.1621, 74.87020
353.6443, 74.92550
354.1264, 75.01861
354.6085, 75.00613
355.0906, 74.93455
355.5727, 74.87029
356.0548, 74.82595
356.5370, 74.80984
357.0191, 74.86620
357.5012, 75.00876
357.9833, 75.06594
358.4654, 74.85434
358.9475, 74.58841
359.4297, 74.55886
359.9118, 74.84307
360.3939, 75.11348
360.8760, 75.08351
361.3581, 74.81330
361.8402, 74.61526
362.3224, 74.58765
362.8045, 74.61098
363.2866, 74.54820
363.7687, 74.40971
364.2508, 74.29948
364.7329, 74.31287
365.2151, 74.36288
365.6972, 74.27275
366.1793, 74.00166
366.6614, 73.74778
367.1436, 73.68256
367.6257, 73.75596
368.1078, 73.81149
368.5899, 73.82341
369.0720, 73.81641
369.5541, 73.81617
370.0363, 73.81872
370.5184, 73.80450
371.0005, 73.78927
371.4826, 73.72501
371.9647, 73.48322
372.4468, 72.95651
372.9290, 72.54259
373.4111, 72.47119
373.8932, 72.60319
374.3753, 72.71519
374.8574, 72.75990
375.3395, 72.70620
375.8217, 72.47903
376.3038, 72.05299
376.7859, 71.68333
377.2680, 71.39033
377.7501, 71.16471
378.2322, 71.01649
378.7144, 70.93772
379.1965, 70.88159
379.6786, 70.81726
380.1607, 70.74461
380.6428, 70.66451
381.1249, 70.60875
381.6071, 70.51358
382.0892, 70.26859
382.5713, 69.97826
383.0534, 69.88140
383.5355, 70.09624
384.0176, 70.43761
384.4998, 70.49757
384.9819, 69.96220
385.4640, 69.65508
385.9461, 69.81688
386.4282, 70.07581
386.9103, 70.08115
387.3925, 69.80218
387.8746, 69.47888
388.3567, 69.38235
388.8388, 69.56418
389.3209, 69.59696
389.8030, 69.36983
390.2852, 69.13290
390.7673, 68.97153
391.2494, 68.87395
391.7315, 68.81912
392.2136, 68.80337
392.6957, 68.78658
393.1779, 68.59885
393.6600, 67.91854
394.1421, 67.53555
394.6242, 67.78637
395.1063, 68.19051
395.5884, 68.30339
396.0706, 68.02172
396.5527, 67.56955
397.0348, 67.22645
397.5169, 67.01237
397.9990, 66.83440
398.4811, 66.75213
398.9633, 66.65318
399.4454, 66.42557
399.9275, 66.13863
400.4096, 65.97685
400.8917, 66.11288
401.3738, 66.44992
401.8560, 66.54301
402.3381, 66.21485
402.8202, 65.98074
403.3023, 66.08327
403.7844, 66.30534
404.2665, 66.43223
404.7487, 66.40034
405.2308, 66.27732
405.7129, 66.14134
406.1950, 65.99332
406.6771, 65.80257
407.1592, 65.53686
407.6414, 65.25381
408.1235, 64.92934
408.6056, 64.59765
409.0877, 64.42770
409.5698, 64.67785
410.0519, 65.13535
410.5341, 65.25454
411.0162, 64.93998
411.4983, 64.60603
411.9804, 64.57670
412.4625, 64.67494
412.9446, 64.58770
413.4268, 64.15807
413.9089, 63.71544
414.3910, 63.54472
414.8731, 63.59892
415.3553, 63.65673
415.8374, 63.65450
416.3195, 63.61558
416.8016, 63.55934
417.2837, 63.48114
417.7658, 63.43938
418.2480, 63.51971
418.7301, 63.60764
419.2122, 63.56146
419.6943, 63.36936
420.1764, 63.11752
420.6585, 62.85260
421.1407, 62.58343
421.6228, 62.39603
422.1049, 62.30832
422.5870, 62.27021
423.0691, 62.34746
423.5512, 62.44688
424.0334, 62.36515
424.5155, 62.01366
424.9976, 61.55721
425.4797, 61.30778
425.9618, 61.39125
426.4439, 61.44793
426.9261, 61.47631
427.4082, 61.48143
427.8903, 61.45983
428.3724, 61.41672
428.8545, 61.37272
429.3366, 61.35128
429.8188, 61.34816
430.3009, 61.26801
430.7830, 61.00468
431.2651, 60.77871
431.7472, 60.60344
432.2293, 60.49290
432.7115, 60.48934
433.1936, 60.60387
433.6757, 60.75158
434.1578, 60.77887
434.6399, 60.63598
435.1220, 60.54678
435.6042, 60.48946
436.0863, 60.52383
436.5684, 60.77546
437.0505, 61.16491
437.5326, 61.45208
438.0147, 61.45552
438.4969, 61.23441
438.9790, 60.97028
439.4611, 60.61029
439.9432, 60.34294
440.4253, 60.33755
440.9074, 60.42258
441.3896, 60.38692
441.8717, 60.15405
442.3538, 59.98954
442.8359, 60.19568
443.3180, 60.70897
443.8001, 61.13993
444.2823, 61.40934
444.7644, 61.59312
445.2465, 61.76654
445.7286, 61.92478
446.2107, 62.01669
446.6928, 61.98671
447.1750, 61.91246
447.6571, 61.80135
448.1392, 61.67868
448.6213, 61.76951
449.1034, 62.26415
449.5855, 62.98835
450.0677, 63.43903
450.5498, 63.49271
451.0319, 63.58927
451.5140, 63.89068
451.9961, 64.27071
452.4782, 64.55387
452.9604, 64.71444
453.4425, 64.88872
453.9246, 65.24245
454.4067, 65.81422
454.8888, 66.14078
455.3709, 65.99973
455.8531, 65.89938
456.3352, 66.06004
456.8173, 66.37906
457.2994, 66.66641
457.7815, 66.83319
458.2636, 66.94405
458.7458, 67.14419
459.2279, 67.50993
459.7100, 67.80584
460.1921, 67.97839
460.6742, 68.12884
461.1563, 68.33806
461.6385, 68.58678
462.1206, 68.78301
462.6027, 68.84626
463.0848, 68.80019
463.5669, 68.78324
464.0491, 68.86255
464.5312, 68.82864
465.0133, 68.44547
465.4954, 68.00471
465.9775, 67.86192
466.4597, 68.11990
466.9418, 68.36555
467.4239, 68.15668
467.9060, 67.56205
468.3881, 67.05029
468.8702, 66.71351
469.3524, 66.41842
469.8345, 66.07689
470.3166, 65.69141
470.7987, 65.25916
471.2808, 64.79745
471.7629, 64.27573
472.2451, 63.55087
472.7272, 62.69786
473.2093, 62.12608
473.6914, 62.05572
474.1735, 62.26665
474.6556, 62.34649
475.1378, 62.26990
475.6199, 62.17560
476.1020, 62.02004
476.5841, 61.89799
477.0662, 61.94212
477.5483, 62.12864
478.0305, 62.27954
478.5126, 62.25689
478.9947, 62.07722
479.4768, 61.89001
479.9589, 61.57692
480.4410, 61.40041
480.9232, 61.44599
481.4053, 61.61739
481.8874, 61.85757
482.3695, 62.13419
482.8516, 62.37140
483.3337, 62.46848
483.8159, 62.40955
484.2980, 62.34781
484.7801, 62.33443
485.2622, 62.25551
485.7443, 62.03336
486.2264, 61.73153
486.7086, 61.42945
487.1907, 61.13934
487.6728, 60.93764
488.1549, 60.99569
488.6370, 61.33631
489.1191, 61.55000
489.6013, 61.44212
490.0834, 61.29832
490.5655, 61.46322
491.0476, 61.87138
491.5297, 62.06502
492.0118, 61.64762
492.4940, 61.03642
492.9761, 60.77354
493.4582, 60.85744
493.9403, 61.02327
494.4224, 61.16895
494.9045, 61.28154
495.3867, 61.33254
495.8688, 61.35395
496.3509, 61.25816
496.8330, 60.89606
497.3151, 60.47929
497.7972, 60.23719
498.2794, 60.19080
498.7615, 60.22326
499.2436, 60.23360
499.7257, 60.22751
500.2078, 60.31743
500.6899, 60.67026
501.1721, 60.91624
501.6542, 60.95259
502.1363, 60.87400
502.6184, 60.77563
503.1005, 60.68636
503.5826, 60.58982
504.0648, 60.46649
504.5469, 60.31548
505.0290, 60.14390
505.5111, 59.87263
505.9932, 59.68441
506.4753, 59.71086
506.9575, 59.84575
507.4396, 59.91200
507.9217, 59.82936
508.4038, 59.71117
508.8859, 59.73717
509.3680, 59.89301
509.8502, 59.90425
510.3323, 59.64598
510.8144, 59.33057
511.2965, 59.13672
511.7786, 59.05660
512.2607, 59.08537
512.7429, 59.42705
513.2250, 59.71453
513.7071, 59.52538
514.1892, 58.97148
514.6713, 58.54826
515.1534, 58.48380
515.6356, 58.63834
516.1177, 58.75119
516.5998, 58.86546
517.0819, 58.82808
517.5640, 58.43727
518.0461, 58.05618
518.5283, 58.00654
519.0104, 58.20600
519.4925, 58.31193
519.9746, 58.07956
520.4567, 57.63755
520.9388, 57.49804
521.4210, 57.97219
521.9031, 58.15993
522.3852, 57.65956
522.8673, 57.09833
523.3494, 56.98922
523.8315, 57.30442
524.3137, 57.59801
524.7958, 57.49035
525.2779, 57.09625
525.7600, 56.82355
526.2421, 56.70210
526.7242, 56.59133
527.2064, 56.43826
527.6885, 56.25773
528.1706, 56.07301
528.6527, 55.89162
529.1348, 55.67601
529.6169, 55.32086
530.0991, 54.94897
530.5812, 54.82558
531.0633, 54.97723
531.5454, 55.06691
532.0275, 54.81258
532.5096, 54.28222
532.9918, 53.95605
533.4739, 54.06663
533.9560, 54.05188
534.4381, 53.64895
534.9202, 53.14256
535.4023, 52.85107
535.8845, 52.82658
536.3666, 52.90477
536.8487, 52.93058
537.3308, 52.90413
537.8129, 52.85455
538.2951, 52.84842
538.7772, 52.72161
539.2593, 52.34731
539.7415, 51.88769
540.2236, 51.48333
540.7057, 51.17633
541.1878, 50.99828
541.6699, 51.08529
542.1520, 51.37512
542.6342, 51.39012
543.1163, 50.98857
543.5984, 50.57810
544.0805, 50.43961
544.5626, 50.47220
545.0447, 50.50990
545.5269, 50.57820
546.0090, 50.55952
546.4911, 50.29464
546.9732, 49.91471
547.4553, 49.70388
547.9374, 49.72266
548.4196, 49.76241
548.9017, 49.59951
549.3838, 49.22540
549.8659, 49.04740
550.3480, 49.31290
550.8301, 49.44357
551.3123, 49.15046
551.7944, 48.69289
552.2765, 48.40041
552.7586, 48.35601
553.2407, 48.39672
553.7228, 48.31916
554.2050, 48.11218
554.6871, 47.99331
555.1692, 48.00043
555.6513, 48.04697
556.1334, 48.13468
556.6155, 48.22519
557.0977, 48.28804
557.5798, 48.32388
558.0619, 48.26329
558.5440, 47.96372
559.0261, 47.50551
559.5082, 47.18718
559.9904, 47.06079
560.4725, 47.02972
560.9546, 47.05962
561.4367, 47.12939
561.9188, 47.13529
562.4009, 47.01207
562.8831, 46.90586
563.3652, 46.92112
563.8473, 46.96514
564.3294, 46.88268
564.8115, 46.65308
565.2936, 46.41083
565.7758, 46.28622
566.2579, 46.27914
566.7400, 46.33225
567.2221, 46.67539
567.7042, 46.79173
568.1863, 46.40017
568.6685, 45.85014
569.1506, 45.49282
569.6327, 45.40417
570.1148, 45.42249
570.5969, 45.41454
571.0790, 45.38310
571.5612, 45.34110
572.0433, 45.27871
572.5254, 45.23659
573.0075, 45.29733
573.4896, 45.36225
573.9717, 45.26106
574.4539, 44.92631
574.9360, 44.62369
575.4181, 44.51979
575.9002, 44.50413
576.3823, 44.42150
576.8644, 44.25695
577.3466, 44.07581
577.8287, 43.91805
578.3108, 43.78632
578.7929, 43.69378
579.2750, 43.64599
579.7571, 43.63294
580.2393, 43.72226
580.7214, 43.79612
581.2035, 43.72433
581.6856, 43.53272
582.1677, 43.38326
582.6498, 43.42617
583.1320, 43.57430
583.6141, 43.49438
584.0962, 43.09750
584.5783, 42.77674
585.0604, 42.68794
585.5425, 42.68120
586.0247, 42.63015
586.5068, 42.53510
586.9889, 42.46203
587.4710, 42.50378
587.9531, 42.54074
588.4352, 42.37472
588.9174, 42.04934
589.3995, 41.84783
589.8816, 41.92098
590.3637, 42.09259
590.8458, 42.03751
591.3279, 41.59782
591.8101, 41.38889
592.2922, 41.61218
592.7743, 41.86271
593.2564, 41.96450
593.7385, 41.92532
594.2206, 41.75182
594.7028, 41.44518
595.1849, 41.14793
595.6670, 41.14362
596.1491, 41.48667
596.6312, 41.71722
597.1133, 41.78249
597.5955, 41.75761
598.0776, 41.64548
598.5597, 41.48977
599.0418, 41.37362
599.5239, 41.32278
600.0060, 41.30663
600.4882, 41.35057
600.9703, 41.40591
601.4524, 41.32574
601.9345, 41.07681
602.4166, 40.80698
602.8987, 40.63037
603.3809, 40.54719
603.8630, 40.57844
604.3451, 40.91863
604.8272, 41.10731
605.3093, 40.91333
605.7914, 40.61856
606.2736, 40.51360
606.7557, 40.62196
607.2378, 40.75664
607.7199, 40.75269
608.2020, 40.64526
608.6841, 40.61786
609.1663, 40.70794
609.6484, 40.77044
610.1305, 40.74658
610.6126, 40.68795
611.0947, 40.63713
611.5768, 40.59550
612.0590, 40.54495
612.5411, 40.42032
613.0232, 40.32206
613.5053, 40.42479
613.9874, 40.67705
614.4695, 40.81581
614.9517, 40.72026
615.4338, 40.51484
615.9159, 40.39928
616.3980, 40.39848
616.8801, 40.40908
617.3622, 40.45118
617.8444, 40.48180
618.3265, 40.45685
618.8086, 40.41618
619.2907, 40.43259
619.7728, 40.53129
620.2549, 40.64564
620.7371, 40.68233
621.2192, 40.64496
621.7013, 40.63319
622.1834, 40.66341
622.6655, 40.69226
623.1476, 40.68573
623.6298, 40.66456
624.1119, 40.66113
624.5940, 40.67787
625.0761, 40.71355
625.5582, 40.78067
626.0403, 40.85944
626.5225, 40.95461
627.0046, 41.04931
627.4867, 41.03879
627.9688, 40.83303
628.4509, 40.52753
628.9330, 40.44170
629.4152, 40.75101
629.8973, 40.96408
630.3794, 41.08841
630.8615, 41.10756
631.3436, 40.92589
631.8257, 40.63531
632.3079, 40.45928
632.7900, 40.53305
633.2721, 40.68979
633.7542, 40.65272
634.2363, 40.45492
634.7184, 40.43171
635.2006, 40.70321
635.6827, 40.99415
636.1648, 41.07703
636.6469, 40.95945
637.1291, 40.78225
637.6112, 40.40852
638.0933, 40.14336
638.5754, 40.16189
639.0576, 40.30025
639.5397, 40.40155
640.0218, 40.42598
640.5039, 40.36684
640.9860, 40.20256
641.4681, 39.96471
641.9503, 39.79652
642.4324, 39.67595
642.9145, 39.68098
643.3966, 40.01818
643.8787, 40.33651
644.3608, 40.33742
644.8430, 40.07998
645.3251, 39.90724
645.8072, 40.09961
646.2893, 40.31336
646.7714, 40.08764
647.2535, 39.58103
647.7357, 39.34307
648.2178, 39.54588
648.6999, 39.89233
649.1820, 40.06133
649.6641, 40.04687
650.1462, 39.99390
650.6284, 39.88491
651.1105, 39.76140
651.5926, 39.54717
652.0747, 39.37407
652.5568, 39.43584
653.0389, 39.71796
653.5211, 39.95412
654.0032, 39.89248
654.4853, 39.64198
654.9674, 39.50581
655.4495, 39.49127
655.9316, 39.50999
656.4138, 39.54031
656.8959, 39.58124
657.3780, 39.64584
657.8601, 39.73381
658.3422, 39.77670
658.8243, 39.71821
659.3065, 39.66088
659.7886, 39.70081
660.2707, 39.76761
660.7528, 39.73336
661.2349, 39.56642
661.7170, 39.34681
662.1992, 39.14708
662.6813, 38.97099
663.1634, 38.92842
663.6455, 39.13141
664.1276, 39.24565
664.6097, 38.99300
665.0919, 38.71541
665.5740, 38.78969
666.0561, 39.21931
666.5382, 39.51923
667.0203, 39.33728
667.5024, 39.01832
667.9846, 38.93209
668.4667, 39.03121
668.9488, 39.10646
669.4309, 39.07854
669.9130, 39.05125
670.3951, 39.18011
670.8773, 39.50050
671.3594, 39.68979
671.8415, 39.69532
672.3236, 39.62622
672.8057, 39.41128
673.2878, 39.18742
673.7700, 39.15284
674.2521, 39.31184
674.7342, 39.38695
675.2163, 39.03170
675.6984, 38.49772
676.1805, 38.33687
676.6627, 38.53724
677.1448, 38.75378
677.6269, 38.86499
678.1090, 38.92388
678.5911, 39.01224
679.0732, 39.14948
679.5554, 39.18927
680.0375, 39.02639
680.5196, 38.88958
681.0017, 38.92038
681.4838, 38.99945
681.9659, 38.95480
682.4481, 38.75951
682.9302, 38.54533
683.4123, 38.39246
683.8944, 38.32790
684.3765, 38.52953
684.8586, 39.06799
685.3408, 39.43736
685.8229, 39.41040
686.3050, 39.20112
686.7871, 39.04414
687.2692, 38.93677
687.7513, 38.89637
688.2335, 39.03160
688.7156, 39.12204
689.1977, 38.94017
689.6798, 38.67688
690.1619, 38.66358
690.6440, 38.95927
691.1262, 39.31925
691.6083, 39.50559
692.0904, 39.53817
692.5725, 39.54016
693.0546, 39.47529
693.5367, 39.49309
694.0189, 39.76855
694.5010, 40.02601
694.9831, 39.94551
695.4652, 39.57960
695.9473, 39.36317
696.4294, 39.50756
696.9116, 39.75690
697.3937, 39.98185
697.8758, 40.17442
698.3579, 40.35369
698.8400, 40.51168
699.3221, 40.53177
699.8043, 40.25981
700.2864, 39.76531
700.7685, 39.59919
701.2506, 39.92322
701.7327, 40.23119
702.2148, 40.43467
702.6970, 40.58297
703.1791, 40.71056
703.6612, 40.80927
704.1433, 40.84034
704.6254, 40.72717
705.1075, 40.62351
705.5897, 40.64260
706.0718, 40.76661
706.5539, 40.99471
707.0360, 41.31651
707.5181, 41.61649
708.0002, 41.80994
708.4824, 41.89623
708.9645, 41.86270
709.4466, 41.60887
709.9287, 41.42782
710.4108, 41.33870
710.8929, 41.33168
711.3751, 41.44812
711.8572, 41.64097
712.3393, 41.79413
712.8214, 41.85113
713.3035, 41.59494
713.7856, 42.01307
714.2678, 42.28355
714.7499, 42.41427
715.2320, 41.98674
715.7141, 42.28009
716.1962, 42.28454
716.6783, 42.27713
717.1605, 42.67196
717.6426, 42.32561
718.1247, 42.71404
718.6068, 42.80917
719.0889, 43.03852
719.5710, 42.97720
720.0532, 43.00568
720.5353, 43.32491
721.0174, 43.48314
721.4995, 43.53942
721.9816, 43.72712
722.4637, 43.78989
722.9459, 43.73079
723.4280, 43.57299
723.9101, 43.55571
724.3922, 43.81794
724.8743, 44.21898
725.3564, 44.50317
725.8386, 44.66985
726.3207, 44.72141
726.8028, 44.48520
727.2849, 44.33738
727.7670, 44.44505
728.2491, 44.67704
728.7313, 44.85787
729.2134, 44.96038
729.6955, 45.11807
730.1776, 45.53371
730.6597, 46.00336
731.1418, 46.13048
731.6240, 45.98204
732.1061, 45.99840
732.5882, 46.35081
733.0703, 46.77031
733.5524, 46.90651
734.0345, 46.73918
734.5167, 46.78023
734.9988, 47.20339
735.4809, 47.61607
735.9631, 47.99374
736.4452, 48.31089
736.9273, 48.52722
737.4094, 48.65761
737.8915, 48.78173
738.3737, 48.94196
738.8558, 49.11046
739.3379, 49.22746
739.8200, 49.32847
740.3021, 49.53813
740.7842, 49.88073
741.2664, 50.25151
741.7485, 50.56558
742.2306, 50.84129
742.7127, 51.16648
743.1948, 51.57164
743.6769, 51.97152
744.1591, 52.45205
744.6412, 52.83619
745.1233, 52.86738
745.6054, 52.76081
746.0875, 53.00271
746.5696, 53.82587
747.0518, 54.65538
747.5339, 55.00057
748.0160, 55.07726
748.4981, 55.18176
748.9802, 55.36169
749.4623, 55.71230
749.9445, 56.30169
750.4266, 56.99674
750.9087, 57.54768
751.3908, 57.91203
751.8729, 58.33442
752.3550, 58.88044
752.8372, 59.40376
753.3193, 59.87466
753.8014, 60.29168
754.2835, 60.62282
754.7656, 60.87162
755.2477, 61.17126
755.7299, 61.64228
756.2120, 62.14470
756.6941, 62.57495
757.1762, 62.92599
757.6583, 63.14416
758.1404, 63.22903
758.6226, 63.36419
759.1047, 63.75791
759.5868, 64.35239
760.0689, 64.75134
760.5510, 64.87045
761.0331, 65.01682
761.5153, 65.34063
761.9974, 65.61286
762.4795, 65.50829
762.9616, 65.21017
763.4437, 65.34296
763.9258, 66.36311
764.4080, 67.24309
764.8901, 67.27242
765.3722, 67.03557
765.8543, 67.16455
766.3364, 67.68634
766.8185, 68.44519
767.3007, 69.37833
767.7828, 70.21730
768.2649, 70.40828
768.7470, 69.92215
769.2291, 69.54128
769.7112, 69.28625
770.1934, 69.15713
770.6755, 69.18751
771.1576, 69.32368
771.6397, 69.52370
772.1218, 69.83144
772.6039, 69.90821
773.0861, 69.38858
773.5682, 68.96117
774.0503, 69.17477
774.5324, 69.62363
775.0145, 69.67192
775.4966, 69.22952
775.9788, 68.75241
776.4609, 68.62965
776.9430, 68.72686
777.4251, 68.71589
777.9072, 68.60100
778.3893, 68.55839
778.8715, 68.65670
779.3536, 68.72886
779.8357, 68.61149
780.3178, 68.33759
780.7999, 68.13493
781.2820, 68.05241
781.7642, 67.96740
782.2463, 67.82870
782.7284, 67.72676
783.2105, 67.80360
783.6926, 67.94283
784.1747, 67.90034
784.6569, 67.58051
785.1390, 67.15428
785.6211, 66.71675
786.1032, 66.30007
786.5853, 65.98824
787.0674, 65.77149
787.5496, 65.55386
788.0317, 65.29984
788.5138, 64.99406
788.9959, 64.59198
789.4780, 64.07487
789.9601, 63.74353
790.4423, 63.76215
790.9244, 63.70308
791.4065, 63.42991
791.8886, 63.07133
792.3707, 62.70327
792.8528, 62.33686
793.3350, 61.98606
793.8171, 61.64819
794.2992, 61.33513
794.7813, 61.08337
795.2634, 60.84400
795.7455, 60.53646
796.2277, 60.16492
796.7098, 59.79988
797.1919, 59.48328
797.6740, 59.19012
798.1561, 58.89055
798.6382, 58.58778
799.1204, 58.16368
799.6025, 57.55811
800.0846, 56.98008
800.5667, 56.55988
801.0488, 56.20500
801.5309, 55.72218
802.0131, 55.06685
802.4952, 54.55602
802.9773, 54.36814
803.4594, 54.15326
803.9415, 53.68112
804.4236, 53.14440
804.9058, 52.80346
805.3879, 52.67436
805.8700, 52.57129
806.3521, 52.40747
806.8342, 52.14900
807.3163, 51.72048
807.7985, 51.14949
808.2806, 50.49301
808.7627, 49.75768
809.2448, 49.19213
809.7269, 48.99856
810.2090, 49.05943
810.6912, 49.02087
811.1733, 48.88395
811.6554, 48.64463
812.1375, 48.19552
812.6196, 47.76597
813.1017, 47.52363
813.5839, 47.31179
814.0660, 46.89100
814.5481, 46.22096
815.0302, 45.59448
815.5123, 45.08585
815.9944, 44.71735
816.4766, 44.60938
816.9587, 44.62006
817.4408, 44.48397
817.9229, 44.15654
818.4050, 43.80136
818.8871, 43.55202
819.3693, 43.37572
819.8514, 43.20452
820.3335, 43.04312
820.8156, 42.73344
821.2977, 42.16136
821.7798, 41.72947
822.2620, 41.80568
822.7441, 42.17121
823.2262, 42.15747
823.7083, 41.47298
824.1904, 41.08846
824.6725, 41.34784
825.1547, 41.55898
825.6368, 41.37614
826.1189, 40.97394
826.6010, 40.54853
827.0831, 40.15723
827.5652, 39.88413
828.0474, 39.86032
828.5295, 39.92298
829.0116, 39.89930
829.4937, 39.80201
829.9758, 39.65644
830.4579, 39.47016
830.9401, 39.24963
831.4222, 38.98999
831.9043, 38.72319
832.3864, 38.56654
832.8685, 38.56483
833.3506, 38.44220
833.8328, 38.11655
834.3149, 37.78258
834.7971, 37.51466
835.2792, 37.32256
835.7613, 37.24374
836.2434, 37.31112
836.7255, 37.30497
837.2076, 37.21137
837.6898, 37.01329
838.1719, 36.58922
838.6540, 36.12144
839.1361, 35.84076
839.6182, 35.76205
840.1003, 35.72674
840.5825, 35.65635
841.0646, 35.53907
841.5467, 35.37257
842.0288, 35.14467
842.5109, 34.77164
842.9930, 34.25427
843.4752, 33.82145
843.9573, 33.62323
844.4394, 33.56030
844.9215, 33.40522
845.4036, 33.09682
845.8857, 33.03539
846.3679, 33.47096
846.8500, 33.70757
847.3321, 33.32611
847.8142, 32.73884
848.2963, 32.34808
848.7784, 32.15751
849.2606, 32.05912
849.7427, 32.14719
850.2248, 32.18392
850.7069, 32.10311
851.1890, 31.90637
851.6711, 31.52302
852.1533, 31.02566
852.6354, 30.61600
853.1175, 30.39478
853.5996, 30.26465
854.0817, 30.14555
854.5638, 30.02234
855.0460, 29.84437
855.5281, 29.61517
856.0102, 29.39178
856.4923, 29.19126
856.9744, 29.05599
857.4565, 29.06279
857.9387, 29.20198
858.4208, 29.19245
858.9029, 28.96069
859.3850, 28.75751
859.8671, 28.64733
860.3492, 28.56153
860.8314, 28.48178
861.3135, 28.38526
861.7956, 28.18765
862.2777, 27.77962
862.7598, 27.50992
863.2419, 27.59838
863.7241, 27.72762
864.2062, 27.68203
864.6883, 27.52618
865.1704, 27.38636
865.6525, 27.29679
866.1346, 27.22359
866.6168, 27.16227
867.0989, 27.08299
867.5810, 26.92933
868.0631, 26.71698
868.5452, 26.49011
869.0273, 26.25950
869.5095, 26.05323
869.9916, 25.88850
870.4737, 25.77121
870.9558, 25.73248
871.4379, 25.79586
871.9200, 25.79978
872.4022, 25.72117
872.8843, 25.62295
873.3664, 25.54501
873.8485, 25.45248
874.3306, 25.25860
874.8127, 24.95391
875.2949, 24.78446
875.7770, 24.92953
876.2591, 25.00042
876.7412, 24.82259
877.2233, 24.57599
877.7054, 24.39277
878.1876, 24.28542
878.6697, 24.24754
879.1518, 24.30124
879.6339, 24.31391
880.1160, 24.10257
880.5981, 23.83490
881.0803, 23.76072
881.5624, 23.84673
882.0445, 23.95933
882.5266, 24.04370
883.0087, 24.02400
883.4908, 23.77953
883.9730, 23.39931
884.4551, 23.28043
884.9372, 23.44365
885.4193, 23.49993
885.9014, 23.35548
886.3835, 23.17793
886.8657, 23.07772
887.3478, 23.03364
887.8299, 22.99324
888.3120, 22.99285
888.7941, 22.89877
889.2762, 22.57589
889.7584, 22.32443
890.2405, 22.26598
890.7226, 22.30006
891.2047, 22.33603
891.6868, 22.36475
892.1689, 22.39467
892.6511, 22.47799
893.1332, 22.49762
893.6153, 22.30664
894.0974, 22.08576
894.5795, 22.09244
895.0616, 22.24242
895.5438, 22.22859
896.0259, 21.92433
896.5080, 21.57180
896.9901, 21.44144
897.4722, 21.45138
897.9543, 21.40505
898.4365, 21.31731
898.9186, 21.32034
899.4007, 21.45178
899.8828, 21.53196
900.3649, 21.38088
900.8470, 21.09194
901.3292, 21.02884
901.8113, 21.25891
902.2934, 21.37859
902.7755, 21.33163
903.2576, 21.23103
903.7397, 21.11329
904.2219, 20.98961
904.7040, 20.87511
905.1861, 20.76925
905.6682, 20.68355
906.1503, 20.62757
906.6324, 20.58027
907.1146, 20.50530
907.5967, 20.46334
908.0788, 20.53279
908.5609, 20.67593
909.0430, 20.78303
909.5251, 20.82022
910.0073, 20.81838
910.4894, 20.78347
910.9715, 20.72739
911.4536, 20.65682
911.9357, 20.57575
912.4178, 20.48934
912.9000, 20.39900
913.3821, 20.30377
913.8642, 20.19550
914.3463, 20.09388
914.8284, 20.02835
915.3105, 20.00132
915.7927, 20.05912
916.2748, 20.20204
916.7569, 20.24892
917.2390, 20.08886
917.7211, 19.84035
918.2032, 19.70011
918.6854, 19.67355
919.1675, 19.63138
919.6496, 19.56538
920.1317, 19.50842
920.6138, 19.46041
921.0959, 19.43772
921.5781, 19.48115
922.0602, 19.56461
922.5423, 19.55532
923.0244, 19.36944
923.5065, 19.25084
923.9886, 19.25461
924.4708, 19.27554
924.9529, 19.30457
925.4350, 19.30302
925.9171, 19.18117
926.3992, 18.95132
926.8813, 18.82924
927.3635, 19.06711
927.8456, 19.23505
928.3277, 18.94096
928.8098, 18.55184
929.2919, 18.51934
929.7740, 18.76546
930.2562, 18.94936
930.7383, 18.93200
931.2204, 18.85985
931.7025, 18.89275
932.1846, 18.96057
932.6667, 18.89248
933.1489, 18.73930
933.6310, 18.72795
934.1132, 18.89681
934.5953, 19.03998
935.0774, 19.00231
935.5595, 18.84313
936.0416, 18.65688
936.5237, 18.44131
937.0059, 18.46453
937.4880, 18.80126
937.9701, 18.99498
938.4522, 18.82338
938.9343, 18.53627
939.4164, 18.44390
939.8986, 18.52729
940.3807, 18.43803
940.8628, 18.00749
941.3449, 17.73719
941.8270, 17.69573
942.3091, 17.79844
942.7913, 18.13078
943.2734, 18.51989
943.7555, 18.66449
944.2376, 18.51714
944.7197, 18.40680
945.2018, 18.40940
945.6840, 18.42939
946.1661, 18.49411
946.6482, 18.51028
947.1303, 18.33845
947.6124, 18.04593
948.0945, 17.84545
948.5767, 17.81905
949.0588, 17.83332
949.5409, 17.80888
950.0230, 17.78142
950.5051, 17.76383
950.9872, 17.77829
951.4694, 17.90613
951.9515, 18.12959
952.4336, 18.26163
952.9157, 18.15238
953.3978, 17.95160
953.8799, 17.86099
954.3621, 17.85424
954.8442, 17.90026
955.3263, 17.97334
955.8084, 17.90196
956.2905, 17.61787
956.7726, 17.37343
957.2548, 17.48657
957.7369, 17.85439
958.2190, 18.00128
958.7011, 17.91331
959.1832, 17.92208
959.6653, 18.11007
960.1475, 18.21689
960.6296, 18.06467
961.1117, 17.79203
961.5938, 17.65255
962.0759, 17.65828
962.5580, 17.68034
963.0402, 17.74161
963.5223, 17.76929
964.0044, 17.72766
964.4865, 17.67236
964.9686, 17.66318
965.4507, 17.67188
965.9329, 17.59564
966.4150, 17.35023
966.8971, 17.24832
967.3792, 17.46086
967.8613, 17.63675
968.3434, 17.61069
968.8256, 17.51527
969.3077, 17.47465
969.7898, 17.49283
970.2719, 17.53428
970.7540, 17.63447
971.2361, 17.65784
971.7183, 17.42229
972.2004, 17.20986
972.6825, 17.32424
973.1646, 17.57871
973.6467, 17.35072
974.1288, 17.68133
974.6110, 17.86426
975.0931, 17.90746
975.5752, 17.39241
976.0573, 17.59822
976.5394, 17.51515
977.0215, 17.42023
977.5037, 17.72750
977.9858, 17.29365
978.4679, 17.59455
978.9500, 17.60214
979.4321, 17.74398
979.9142, 17.59513
980.3964, 17.53607
980.8785, 17.76778
981.3606, 17.83849
981.8427, 17.65618
982.3248, 17.80655
982.8069, 17.36254
983.2891, 17.44010
983.7712, 17.74270
984.2533, 17.57501
984.7354, 17.73070
985.2175, 17.76322
985.6996, 17.23604
986.1818, 17.68224
986.6639, 17.70749
987.1460, 17.30051
987.6281, 17.71335
988.1102, 17.36596
988.5923, 17.28993
989.0745, 17.41811
989.5566, 17.33340
990.0387, 17.36132
990.5208, 17.39560
991.0029, 17.42263
991.4850, 17.35770
991.9672, 17.23733
992.4493, 17.20154
992.9314, 17.25694
993.4135, 17.38548
993.8956, 17.74960
994.3777, 17.96662
994.8599, 17.77133
995.3420, 17.48983
995.8241, 17.44327
996.3062, 17.59230
996.7883, 17.67765
997.2704, 17.63835
997.7526, 17.60746
998.2347, 17.56960
998.7168, 17.58155
999.1989, 17.77045
999.6810, 17.96388
1000.163, 17.90365
1000.645, 17.60707
1001.127, 17.39446
1001.609, 17.35595
1002.092, 17.42518
1002.574, 17.72322
1003.056, 17.97762
1003.538, 17.90240
1004.020, 17.66027
1004.502, 17.52252
1004.984, 17.54526
1005.466, 17.65210
1005.949, 17.89962
1006.431, 18.07932
1006.913, 17.97515
1007.395, 17.76528
1007.877, 17.64108
1008.359, 17.59790
1008.841, 17.56903
1009.323, 17.53434
1009.805, 17.52223
1010.288, 17.56537
1010.770, 17.62996
1011.252, 17.69288
1011.734, 17.73947
1012.216, 17.73020
1012.698, 17.67614
1013.180, 17.63695
1013.662, 17.63536
1014.145, 17.61667
1014.627, 17.51055
1015.109, 17.36221
1015.591, 17.25097
1016.073, 17.17684
1016.555, 17.13368
1017.037, 17.12452
1017.519, 17.20045
1018.001, 17.38946
1018.484, 17.55160
1018.966, 17.48028
1019.448, 17.24286
1019.930, 17.05063
1020.412, 16.91102
1020.894, 16.91135
1021.376, 17.06402
1021.858, 17.20514
1022.341, 17.24018
1022.823, 17.21728
1023.305, 17.21145
1023.787, 17.21926
1024.269, 17.20140
1024.751, 17.15567
1025.233, 17.12238
1025.715, 17.10584
1026.198, 17.14521
1026.680, 17.29062
1027.162, 17.43080
1027.644, 17.32788
1028.126, 16.97346
1028.608, 16.76247
1029.090, 16.70795
1029.572, 16.75771
1030.054, 16.94939
1030.536, 17.09649
1031.019, 17.05520
1031.501, 16.90740
1031.983, 16.82511
1032.465, 16.81438
1032.947, 16.82921
1033.429, 16.88588
1033.911, 16.92572
1034.393, 16.93645
1034.876, 16.92308
1035.358, 16.86080
1035.840, 16.79684
1036.322, 16.85677
1036.804, 17.08377
1037.286, 17.22654
1037.768, 17.24576
1038.250, 17.25260
1038.733, 17.29638
1039.215, 17.30250
1039.697, 17.19059
1040.179, 17.00896
1040.661, 16.88180
1041.143, 16.82403
1041.625, 16.76418
1042.107, 16.63681
1042.589, 16.59809
1043.072, 16.77407
1043.554, 16.95711
1044.036, 16.99989
1044.518, 16.94092
1045.000, 16.86650
1045.482, 16.76556
1045.964, 16.42782
1046.446, 16.75546
1046.928, 16.93543
1047.411, 16.97564
1047.893, 16.45761
1048.375, 16.66046
1048.857, 16.57441
1049.339, 16.47652
1049.821, 16.78083
1050.303, 16.34400
1050.785, 16.64193
1051.268, 16.64654
1051.750, 16.78540
1052.232, 16.63359
1052.714, 16.57156
1053.196, 16.80029
1053.678, 16.86803
1054.160, 16.68275
1054.642, 16.83015
1055.125, 16.38315
1055.607, 16.45774
1056.089, 16.75737
1056.571, 16.58671
1057.053, 16.73943
1057.535, 16.76898
1058.017, 16.23883
1058.499, 16.68206
1058.981, 16.70434
1059.464, 16.29437
1059.946, 16.70424
1060.428, 16.35388
1060.910, 16.27488
1061.392, 16.40009
1061.874, 16.31241
1062.356, 16.56038
1062.838, 16.48499
1063.320, 16.38072
1063.803, 16.40250
1064.285, 16.06705
1064.767, 16.39438
1065.249, 16.26897
1065.731, 16.36861
1066.213, 16.51926
1066.695, 16.27933
1067.177, 16.45289
1067.660, 15.98520
1068.142, 16.05408
1068.624, 16.06518
1069.106, 16.41923
1069.588, 15.95468
1070.070, 16.22966
1070.552, 16.25536
1071.034, 16.11373
1071.516, 15.78897
1071.999, 15.61059
1072.481, 15.84434
1072.963, 16.08396
1073.445, 16.12894
1073.927, 16.11564
1074.409, 16.17198
1074.891, 16.24294
1075.373, 16.21292
1075.855, 16.07272
1076.338, 15.93320
1076.820, 15.81665
1077.302, 15.74542
1077.784, 15.77109
1078.266, 15.80611
1078.748, 15.75932
1079.230, 15.68816
1079.712, 15.71791
1080.195, 15.83609
1080.677, 15.84838
1081.159, 15.58461
1081.641, 15.41378
1082.123, 15.63740
1082.605, 15.88484
1083.087, 15.85982
1083.569, 15.70697
1084.052, 15.64126
1084.534, 15.66709
1085.016, 15.63759
1085.498, 15.45158
1085.980, 15.35890
1086.462, 15.59762
1086.944, 15.82311
1087.426, 15.75748
1087.908, 15.58872
1088.391, 15.56455
1088.873, 15.66120
1089.355, 15.68886
1089.837, 15.57219
1090.319, 15.47949
1090.801, 15.48459
1091.283, 15.52469
1091.765, 15.62164
1092.248, 15.69097
1092.730, 15.61460
1093.212, 15.44430
1093.694, 15.32798
1094.176, 15.30179
1094.658, 15.31379
1095.140, 15.39503
1095.622, 15.44771
1096.104, 15.41023
1096.587, 15.34081
1097.069, 15.26091
1097.551, 15.19873
1098.033, 15.21469
1098.515, 15.32252
1098.997, 15.40070
1099.479, 15.38523
1099.961, 15.37446
1100.443, 15.40742
1100.926, 15.45086
1101.408, 15.50473
1101.890, 15.54130
1102.372, 15.50746
1102.854, 15.40229
1103.336, 15.31428
1103.818, 15.24178
1104.300, 15.22014
1104.783, 15.29515
1105.265, 15.37993
1105.747, 15.44495
1106.229, 15.48176
1106.711, 15.47582
1107.193, 15.43165
1107.675, 15.38468
1108.157, 15.34018
1108.640, 15.29077
1109.122, 15.22259
1109.604, 15.16519
1110.086, 15.11319
1110.568, 15.09053
1111.050, 15.13170
1111.532, 15.22221
1112.014, 15.31584
1112.496, 15.45413
1112.979, 15.47535
1113.461, 15.20496
1113.943, 15.04756
1114.425, 15.26752
1114.907, 15.46190
1115.389, 15.27535
1115.871, 14.88171
1116.353, 14.66784
1116.835, 14.65557
1117.318, 14.69607
1117.800, 14.82031
1118.282, 14.94215
1118.764, 15.06736
1119.246, 15.16360
1119.728, 15.24665
1120.210, 15.25232
1120.692, 15.02266
1121.175, 14.56790
1121.657, 14.47162
1122.139, 14.92531
1122.621, 15.20087
1123.103, 15.18609
1123.585, 15.11803
1124.067, 15.07879
1124.549, 15.06328
1125.031, 15.07996
1125.514, 15.10839
1125.996, 15.03394
1126.478, 14.81662
1126.960, 14.73098
1127.442, 14.82373
1127.924, 14.85099
1128.406, 14.71064
1128.888, 14.61040
1129.370, 14.73350
1129.853, 14.97146
1130.335, 15.06408
1130.817, 15.01209
1131.299, 15.00834
1131.781, 15.05585
1132.263, 15.08235
1132.745, 15.07166
1133.227, 15.08091
1133.710, 15.14893
1134.192, 15.20664
1134.674, 15.13031
1135.156, 14.97440
1135.638, 15.00909
1136.120, 15.19495
1136.602, 15.17778
1137.084, 14.94469
1137.567, 14.83778
1138.049, 14.98883
1138.531, 15.18075
1139.013, 15.20282
1139.495, 15.14327
1139.977, 15.18268
1140.459, 15.27896
1140.941, 15.32169
1141.423, 15.30729
1141.906, 15.24222
1142.388, 15.13656
1142.870, 15.02255
1143.352, 14.90928
1143.834, 14.86826
1144.316, 15.07475
1144.798, 15.33861
1145.280, 15.32919
1145.762, 15.17083
1146.245, 15.13754
1146.727, 15.22525
1147.209, 15.24580
1147.691, 15.12713
1148.173, 15.02347
1148.655, 15.07894
1149.137, 15.16871
1149.619, 15.22065
1150.102, 15.21685
1150.584, 15.09481
1151.066, 14.91547
1151.548, 14.78454
1152.030, 14.72791
1152.512, 14.74160
1152.994, 14.84079
1153.476, 14.97502
1153.958, 15.17340
1154.441, 15.33854
1154.923, 15.35846
1155.405, 15.34125
1155.887, 15.44940
1156.369, 15.64412
1156.851, 15.73426
1157.333, 15.65935
1157.815, 15.57709
1158.297, 15.56865
1158.780, 15.49378
1159.262, 15.15857
1159.744, 14.89063
1160.226, 15.00239
1160.708, 15.31261
1161.190, 15.48540
1161.672, 15.50838
1162.154, 15.48317
1162.637, 15.36470
1163.119, 15.27983
1163.601, 15.21238
1164.083, 15.22914
1164.565, 15.40782
1165.047, 15.60984
1165.529, 15.69052
1166.011, 15.67292
1166.494, 15.65236
1166.976, 15.63792
1167.458, 15.55003
1167.940, 15.34663
1168.422, 15.30551
1168.904, 15.52780
1169.386, 15.73175
1169.868, 15.72187
1170.350, 15.61878
1170.833, 15.62176
1171.315, 15.71059
1171.797, 15.76985
1172.279, 15.80159
1172.761, 15.81633
1173.243, 15.82086
1173.725, 15.89311
1174.207, 16.06041
1174.689, 16.20709
1175.172, 16.22692
1175.654, 16.16818
1176.136, 16.10514
1176.618, 16.03080
1177.100, 15.90111
1177.582, 15.75247
1178.064, 15.69130
1178.546, 15.72611
1179.029, 15.77450
1179.511, 15.79381
1179.993, 15.85977
1180.475, 16.09303
1180.957, 16.34713
1181.439, 16.53389
1181.921, 16.61457
1182.403, 16.46721
1182.885, 16.20307
1183.368, 16.03445
1183.850, 16.01329
1184.332, 16.11895
1184.814, 16.47577
1185.296, 16.71362
1185.778, 16.56981
1186.260, 16.38960
1186.742, 16.41798
1187.225, 16.49065
1187.707, 16.38178
1188.189, 16.15134
1188.671, 16.05456
1189.153, 16.15160
1189.635, 16.23947
1190.117, 16.32527
1190.599, 16.37103
1191.082, 16.33280
1191.564, 16.30923
1192.046, 16.36404
1192.528, 16.45074
1193.010, 16.51124
1193.492, 16.54523
1193.974, 16.54329
1194.456, 16.49050
1194.938, 16.48226
1195.421, 16.52755
1195.903, 16.59618
1196.385, 16.68360
1196.867, 16.75929
1197.349, 16.80060
1197.831, 16.81586
1198.313, 16.80334
1198.795, 16.78077
1199.277, 16.84086
1199.760, 16.97230
1200.242, 17.14597
1200.724, 17.33651
1201.206, 17.40937
1201.688, 17.32433
1202.170, 17.24936
1202.652, 17.34524
1203.134, 17.46051
1203.617, 17.36283
1204.099, 17.19586
1204.581, 17.13606
1205.063, 17.17952
1205.545, 17.38583
1206.027, 17.66381
1206.509, 17.67441
1206.991, 17.26836
1207.474, 16.94841
1207.956, 17.04248
1208.438, 17.21123
1208.920, 17.30466
1209.402, 17.37850
1209.884, 17.47991
1210.366, 17.59219
1210.848, 17.70762
1211.330, 17.81450
1211.813, 17.82034
1212.295, 17.64038
1212.777, 17.50933
1213.259, 17.40875
1213.741, 17.40186
1214.223, 17.57106
1214.705, 17.72855
1215.187, 17.71819
1215.669, 17.65068
1216.152, 17.74144
1216.634, 17.97640
1217.116, 18.12930
1217.598, 18.20466
1218.080, 18.09188
1218.562, 17.76539
1219.044, 17.56045
1219.526, 17.59457
1220.009, 17.75404
1220.491, 17.96192
1220.973, 18.16092
1221.455, 18.24941
1221.937, 18.25224
1222.419, 18.18760
1222.901, 18.10436
1223.383, 18.16159
1223.865, 18.33130
1224.348, 18.43620
1224.830, 18.41704
1225.312, 18.35543
1225.794, 18.27350
1226.276, 18.23070
1226.758, 18.25064
1227.240, 18.35157
1227.722, 18.65482
1228.204, 18.97576
1228.687, 19.06250
1229.169, 18.94646
1229.651, 18.81110
1230.133, 18.68954
1230.615, 18.55532
1231.097, 18.30913
1231.579, 18.19225
1232.061, 18.30982
1232.544, 18.49874
1233.026, 18.76144
1233.508, 18.96711
1233.990, 18.91804
1234.472, 18.71024
1234.954, 18.77707
1235.436, 19.18540
1235.918, 19.39654
1236.401, 19.39489
1236.883, 19.35805
1237.365, 19.32042
1237.847, 19.27646
1238.329, 19.22041
1238.811, 19.21782
1239.293, 19.37805
1239.775, 19.58181
1240.257, 19.52249
1240.740, 19.33959
1241.222, 19.34747
1241.704, 19.52595
1242.186, 19.82222
1242.668, 20.16768
1243.150, 20.35192
1243.632, 20.27300
1244.114, 20.18166
1244.596, 20.26311
1245.079, 20.36202
1245.561, 20.35128
1246.043, 20.34431
1246.525, 20.46047
1247.007, 20.63194
1247.489, 20.76124
1247.971, 20.84055
1248.453, 20.88420
1248.936, 20.85684
1249.418, 20.88797
1249.900, 21.03529
1250.382, 21.12216
1250.864, 21.05515
1251.346, 21.05593
1251.828, 21.27858
1252.310, 21.56263
1252.792, 21.69166
1253.275, 21.70607
1253.757, 21.75748
1254.239, 21.84879
1254.721, 22.05247
1255.203, 22.34776
1255.685, 22.50690
1256.167, 22.50570
1256.649, 22.61568
1257.131, 22.98132
1257.614, 23.30672
1258.096, 23.20536
1258.578, 23.03004
1259.060, 23.27169
1259.542, 23.61484
1260.024, 23.59153
1260.506, 23.41701
1260.988, 23.55403
1261.471, 23.97202
1261.953, 24.22689
1262.435, 24.13652
1262.917, 24.19189
1263.399, 24.66462
1263.881, 25.08317
1264.363, 25.33352
1264.845, 25.47873
1265.328, 25.46918
1265.810, 25.46936
1266.292, 25.70014
1266.774, 26.08096
1267.256, 26.26394
1267.738, 26.21566
1268.220, 26.30820
1268.702, 26.54233
1269.184, 26.90563
1269.667, 27.39087
1270.149, 27.87985
1270.631, 28.31901
1271.113, 28.65421
1271.595, 28.81427
1272.077, 28.89959
1272.559, 28.99374
1273.041, 29.16033
1273.523, 29.55664
1274.006, 30.06439
1274.488, 30.48532
1274.970, 30.81097
1275.452, 31.10329
1275.934, 31.37910
1276.416, 31.72968
1276.898, 32.27215
1277.380, 32.76603
1277.863, 32.98891
1278.345, 33.34320
1278.827, 34.26509
1279.309, 35.14206
1279.791, 35.36421
1280.273, 35.26833
1280.755, 35.60993
1281.237, 36.38355
1281.719, 37.15059
1282.202, 37.92664
1282.684, 38.38137
1283.166, 38.48645
1283.648, 38.75950
1284.130, 39.36103
1284.612, 40.06382
1285.094, 40.72451
1285.576, 41.34249
1286.059, 41.87139
1286.541, 42.40091
1287.023, 43.05164
1287.505, 43.83098
##END=



