##NAMES=Perovskite
##RRUFFID=R050456
##IDEAL CHEMISTRY=CaTi^4+^O_3_
##LOCALITY=Magnet Cove, Arkansas, USA
##OWNER=RRUFF
##SOURCE=University of Arizona Mineral Museum
##DESCRIPTION=Groups of black cubo-octahedral crystals
##STATUS=The identification of this mineral has been confirmed by X-ray diffraction and chemical analysis
##URL=rruff.info/R050456
##MEASURED CHEMISTRY=darker phase: (Ca_0.82_Fe^2+^_0.09_Na_0.07_Ce_0.01_La_0.01_)_Σ=1_(Ti_0.95_Nb^5+^_0.05_)_Σ=1_O_3_ ; gray phase: (Ca_0.89_Fe^2+^_0.05_Na_0.04_Ce_0.01_La_0.01_)_Σ=1_(Ti_0.98_Nb^5+^_0.02_)_Σ=1_O_3_
91.00781, 6.656617
91.48993, 6.102199
91.97205, 5.880714
92.45416, 5.841470
92.93628, 6.137059
93.41840, 7.316685
93.90051, 9.854141
94.38263, 12.63037
94.86475, 13.76168
95.34686, 13.25866
95.82898, 12.14273
96.31110, 10.92493
96.79321, 9.648563
97.27533, 8.869955
97.75745, 8.828070
98.23956, 9.370148
98.72168, 9.866654
99.20380, 10.27267
99.68591, 10.75755
100.1680, 11.51877
100.6501, 12.58034
101.1323, 13.77224
101.6144, 15.06670
102.0965, 16.47443
102.5786, 17.82030
103.0607, 19.01750
103.5428, 20.23874
104.0250, 21.79361
104.5071, 23.69222
104.9892, 25.88731
105.4713, 28.37964
105.9534, 31.31864
106.4355, 34.22337
106.9177, 37.17824
107.3998, 40.10225
107.8819, 42.83669
108.3640, 45.13798
108.8461, 47.41341
109.3282, 49.88441
109.8104, 52.66656
110.2925, 55.45382
110.7746, 58.17523
111.2567, 60.83964
111.7388, 63.63492
112.2209, 66.64600
112.7031, 69.72630
113.1852, 72.80982
113.6673, 75.50673
114.1494, 78.53505
114.6315, 82.08736
115.1136, 86.20512
115.5958, 90.71026
116.0779, 95.92525
116.5600, 101.3892
117.0421, 106.5630
117.5242, 111.3650
118.0063, 115.8115
118.4885, 119.8348
118.9706, 123.3296
119.4527, 126.9523
119.9348, 131.2059
120.4169, 135.8165
120.8990, 140.3526
121.3812, 144.7466
121.8633, 148.8690
122.3454, 152.5917
122.8275, 155.9871
123.3096, 158.8263
123.7917, 160.5707
124.2739, 161.4692
124.7560, 162.4360
125.2381, 164.1550
125.7202, 166.3238
126.2023, 168.3646
126.6844, 170.0265
127.1666, 171.6939
127.6487, 173.9291
128.1308, 176.7241
128.6129, 179.7416
129.0950, 183.0040
129.5771, 186.3577
130.0593, 189.2132
130.5414, 191.0563
131.0235, 192.3990
131.5056, 194.4019
131.9877, 196.3970
132.4698, 197.8002
132.9520, 199.1369
133.4341, 200.4083
133.9162, 201.4355
134.3983, 201.9397
134.8804, 202.0539
135.3625, 202.9346
135.8447, 204.7659
136.3268, 206.8949
136.8089, 208.3901
137.2910, 209.1568
137.7731, 209.9391
138.2552, 211.2351
138.7374, 213.2080
139.2195, 214.1998
139.7016, 213.9107
140.1837, 212.9517
140.6658, 212.5867
141.1479, 212.9409
141.6301, 213.5473
142.1122, 214.2561
142.5943, 215.2177
143.0764, 215.8283
143.5585, 215.8734
144.0406, 215.5775
144.5228, 215.7761
145.0049, 216.7295
145.4870, 217.8402
145.9691, 218.7773
146.4512, 219.4841
146.9333, 220.1440
147.4155, 220.8438
147.8976, 221.5606
148.3797, 221.9736
148.8618, 221.7412
149.3439, 221.4586
149.8260, 221.5067
150.3082, 222.2221
150.7903, 222.8885
151.2724, 223.3884
151.7545, 223.7092
152.2366, 224.1890
152.7188, 225.0911
153.2009, 226.0261
153.6830, 226.6703
154.1651, 226.9378
154.6472, 226.9643
155.1293, 226.7357
155.6115, 226.2343
156.0936, 225.6473
156.5757, 224.7065
157.0578, 223.7954
157.5399, 223.3486
158.0220, 224.1875
158.5042, 224.8938
158.9863, 224.8053
159.4684, 223.6754
159.9505, 222.7682
160.4326, 222.8096
160.9147, 223.2657
161.3969, 223.3403
161.8790, 222.2143
162.3611, 221.0320
162.8432, 220.4442
163.3253, 220.6844
163.8074, 221.0681
164.2896, 221.3222
164.7717, 221.4945
165.2538, 221.6834
165.7359, 222.1062
166.2180, 222.4561
166.7001, 222.4158
167.1823, 221.6918
167.6644, 221.0999
168.1465, 221.3353
168.6286, 222.1471
169.1107, 222.8332
169.5928, 222.7771
170.0750, 222.4955
170.5571, 222.5612
171.0392, 223.2783
171.5213, 224.0810
172.0034, 224.5376
172.4855, 224.6855
172.9677, 224.6741
173.4498, 224.3616
173.9319, 224.0098
174.4140, 224.0168
174.8961, 224.6541
175.3782, 225.4991
175.8604, 226.2167
176.3425, 226.7947
176.8246, 227.1080
177.3067, 227.0606
177.7888, 226.6857
178.2709, 226.0493
178.7531, 225.1120
179.2352, 223.9614
179.7173, 222.6507
180.1994, 221.1815
180.6815, 219.7407
181.1636, 218.5927
181.6458, 217.6255
182.1279, 216.5302
182.6100, 215.0146
183.0921, 213.3826
183.5742, 212.2688
184.0563, 211.7075
184.5385, 211.3365
185.0206, 210.8657
185.5027, 210.3003
185.9848, 209.6868
186.4669, 208.9489
186.9490, 208.1798
187.4312, 207.7088
187.9133, 207.5846
188.3954, 207.4819
188.8775, 206.9388
189.3596, 206.0118
189.8417, 205.2162
190.3239, 204.8038
190.8060, 204.7030
191.2881, 204.5791
191.7702, 204.4314
192.2523, 204.2764
192.7344, 204.1140
193.2166, 203.9469
193.6987, 203.8413
194.1808, 203.8907
194.6629, 204.0696
195.1450, 204.0388
195.6271, 203.7563
196.1093, 203.3727
196.5914, 203.0844
197.0735, 202.8913
197.5556, 202.7769
198.0377, 202.7492
198.5198, 202.8072
199.0020, 202.8603
199.4841, 202.8822
199.9662, 202.9405
200.4483, 203.1902
200.9304, 203.6683
201.4125, 204.1042
201.8947, 204.3104
202.3768, 204.2498
202.8589, 204.5145
203.3410, 205.3009
203.8231, 206.1621
204.3052, 206.0973
204.7874, 204.8588
205.2695, 203.7461
205.7516, 203.3674
206.2337, 203.8121
206.7158, 204.4130
207.1979, 205.2292
207.6801, 206.1393
208.1622, 206.9048
208.6443, 207.5474
209.1264, 208.0004
209.6085, 208.1656
210.0906, 207.9403
210.5728, 207.8824
211.0549, 207.9700
211.5370, 208.2516
212.0191, 208.9001
212.5012, 210.0806
212.9833, 211.2380
213.4655, 212.0806
213.9476, 212.5217
214.4297, 212.9916
214.9118, 213.4876
215.3939, 214.0235
215.8760, 214.6400
216.3581, 215.3155
216.8403, 216.1045
217.3224, 217.0639
217.8045, 218.3083
218.2866, 219.3908
218.7687, 220.3107
219.2508, 221.0502
219.7330, 221.4874
220.2151, 221.4307
220.6972, 221.4111
221.1793, 221.7142
221.6614, 222.5178
222.1435, 223.1507
222.6257, 223.5562
223.1078, 223.7970
223.5899, 224.0695
224.0720, 224.4370
224.5541, 224.7391
225.0362, 224.9162
225.5184, 224.9783
226.0005, 224.8750
226.4826, 224.4751
226.9647, 223.9500
227.4468, 223.7532
227.9289, 223.8989
228.4111, 224.3657
228.8932, 225.2409
229.3753, 226.9192
229.8574, 228.0514
230.3395, 228.4079
230.8216, 228.2508
231.3038, 228.2774
231.7859, 228.4655
232.2680, 228.8686
232.7501, 229.5468
233.2322, 230.6787
233.7143, 231.6412
234.1965, 232.2017
234.6786, 232.6415
235.1607, 233.8247
235.6428, 236.2637
236.1249, 238.6926
236.6070, 240.5259
237.0892, 241.4408
237.5713, 242.4603
238.0534, 243.6081
238.5355, 244.8510
239.0176, 246.1040
239.4997, 247.3885
239.9819, 248.6777
240.4640, 250.0083
240.9461, 251.6428
241.4282, 252.7138
241.9103, 253.1243
242.3924, 253.0054
242.8746, 252.6542
243.3567, 252.0442
243.8388, 251.2495
244.3209, 250.3175
244.8030, 249.3430
245.2851, 248.0084
245.7673, 246.2391
246.2494, 244.1453
246.7315, 241.9330
247.2136, 239.4911
247.6957, 237.1094
248.1778, 234.9006
248.6600, 232.9341
249.1421, 230.9788
249.6242, 229.0168
250.1063, 227.0613
250.5884, 225.1040
251.0705, 222.9933
251.5527, 221.1301
252.0348, 219.7261
252.5169, 218.9169
252.9990, 218.0079
253.4811, 216.8767
253.9632, 215.7121
254.4454, 214.8991
254.9275, 214.6314
255.4096, 214.3321
255.8917, 213.7972
256.3738, 212.9777
256.8560, 212.1540
257.3381, 211.2973
257.8202, 210.4552
258.3023, 209.6216
258.7844, 208.6205
259.2665, 208.0451
259.7487, 208.2605
260.2308, 209.4716
260.7129, 209.9857
261.1950, 209.5325
261.6771, 208.6782
262.1592, 208.1445
262.6414, 207.9364
263.1235, 208.0621
263.6056, 208.6469
264.0877, 209.7511
264.5698, 210.4282
265.0519, 210.4783
265.5341, 210.3735
266.0162, 210.7092
266.4983, 211.6394
266.9804, 212.5278
267.4625, 213.2028
267.9446, 213.6634
268.4268, 214.2314
268.9089, 214.9516
269.3910, 215.6802
269.8731, 216.2004
270.3552, 216.3876
270.8373, 216.8602
271.3195, 217.7953
271.8016, 219.1559
272.2837, 220.6269
272.7658, 222.2842
273.2479, 223.9200
273.7300, 225.3645
274.2122, 226.5939
274.6943, 227.7619
275.1764, 228.9027
275.6585, 230.0016
276.1406, 230.9361
276.6227, 231.6576
277.1049, 232.3833
277.5870, 233.3201
278.0691, 234.4921
278.5512, 235.6261
279.0333, 236.7144
279.5154, 237.7182
279.9976, 238.5047
280.4797, 239.0681
280.9618, 239.4497
281.4439, 239.6937
281.9260, 239.7975
282.4081, 239.6585
282.8903, 239.1554
283.3724, 238.5174
283.8545, 238.3743
284.3366, 238.7725
284.8187, 239.1708
285.3008, 239.1454
285.7830, 238.7426
286.2651, 238.5298
286.7472, 238.5973
287.2293, 238.7942
287.7114, 238.9159
288.1935, 238.9604
288.6757, 238.7948
289.1578, 238.1095
289.6399, 237.0676
290.1220, 236.6240
290.6041, 236.9343
291.0862, 237.4952
291.5684, 237.5439
292.0505, 237.1344
292.5326, 236.7828
293.0147, 236.9118
293.4968, 237.2989
293.9789, 237.1929
294.4611, 236.5159
294.9432, 235.7181
295.4253, 235.4414
295.9074, 235.5425
296.3895, 235.4041
296.8716, 234.3736
297.3538, 233.0179
297.8359, 232.6435
298.3180, 233.2860
298.8001, 234.0533
299.2822, 234.0403
299.7643, 233.4886
300.2465, 233.0309
300.7286, 232.9674
301.2107, 233.0689
301.6928, 233.0728
302.1749, 232.9773
302.6570, 232.7459
303.1392, 232.0695
303.6213, 231.2790
304.1034, 230.9966
304.5855, 231.6818
305.0676, 232.6071
305.5497, 233.0827
306.0319, 233.1546
306.5140, 233.0842
306.9961, 232.9922
307.4782, 232.8695
307.9603, 232.6784
308.4424, 232.3325
308.9246, 232.0608
309.4067, 232.1115
309.8888, 232.3904
310.3709, 232.6334
310.8530, 232.5849
311.3351, 232.4973
311.8173, 232.6493
312.2994, 233.2121
312.7815, 233.6238
313.2636, 233.3842
313.7457, 232.7759
314.2278, 232.3022
314.7100, 232.1034
315.1921, 232.1682
315.6742, 232.5697
316.1563, 233.3716
316.6384, 234.1502
317.1205, 234.6672
317.6027, 235.0632
318.0848, 235.5126
318.5669, 236.2077
319.0490, 236.8428
319.5311, 237.2418
320.0132, 237.3849
320.4954, 237.6061
320.9775, 238.0543
321.4596, 238.5894
321.9417, 239.0869
322.4238, 239.3050
322.9059, 239.7050
323.3881, 240.4910
323.8702, 241.6210
324.3523, 242.6544
324.8344, 243.6462
325.3165, 244.4475
325.7986, 244.9810
326.2808, 244.4386
326.7629, 244.5773
327.2450, 246.0696
327.7271, 248.4756
328.2092, 250.0548
328.6913, 250.0045
329.1735, 249.8212
329.6556, 250.1215
330.1377, 251.3513
330.6198, 252.2044
331.1019, 252.4457
331.5840, 252.3751
332.0662, 252.5807
332.5483, 253.2847
333.0304, 253.9440
333.5125, 254.3839
333.9946, 254.5900
334.4767, 254.6645
334.9589, 254.5800
335.4410, 254.3882
335.9231, 254.1541
336.4052, 253.8942
336.8873, 253.5551
337.3694, 253.1095
337.8516, 252.5679
338.3336, 252.0381
338.8158, 251.5053
339.2979, 251.0245
339.7800, 250.7041
340.2621, 250.6044
340.7442, 250.2672
341.2263, 249.5448
341.7085, 248.5743
342.1906, 247.8598
342.6727, 247.4257
343.1548, 247.0581
343.6369, 246.6604
344.1190, 246.2266
344.6012, 245.5564
345.0833, 244.5332
345.5654, 243.4505
346.0475, 242.9642
346.5296, 243.0297
347.0117, 242.9368
347.4939, 242.0291
347.9760, 240.6444
348.4581, 239.9930
348.9402, 240.2467
349.4223, 240.5782
349.9044, 239.8570
350.3866, 238.3838
350.8687, 237.1868
351.3508, 236.9902
351.8329, 237.1779
352.3150, 236.6327
352.7971, 235.3784
353.2793, 234.2915
353.7614, 234.2756
354.2435, 234.8259
354.7256, 235.1114
355.2077, 234.7587
355.6898, 234.2231
356.1720, 234.0184
356.6541, 234.0190
357.1362, 233.6993
357.6183, 232.2557
358.1004, 230.6187
358.5826, 229.6938
359.0647, 229.8895
359.5468, 230.1875
360.0289, 230.1149
360.5110, 229.7550
360.9931, 229.2643
361.4753, 228.4058
361.9574, 227.6752
362.4395, 227.4384
362.9216, 227.8356
363.4037, 228.0230
363.8858, 227.6528
364.3680, 226.9876
364.8501, 226.3010
365.3322, 225.4833
365.8143, 224.8345
366.2964, 224.5404
366.7785, 224.5900
367.2607, 224.4565
367.7428, 223.9702
368.2249, 223.3701
368.7070, 222.7943
369.1891, 222.1413
369.6712, 221.6588
370.1534, 221.3968
370.6355, 221.3062
371.1176, 221.2464
371.5997, 221.2769
372.0818, 221.2501
372.5639, 221.0791
373.0461, 220.6738
373.5282, 220.4283
374.0103, 220.4824
374.4924, 220.5539
374.9745, 220.1462
375.4566, 219.0589
375.9388, 218.1191
376.4209, 217.6230
376.9030, 217.5350
377.3851, 217.3374
377.8672, 217.0181
378.3493, 216.6414
378.8315, 216.2467
379.3136, 215.8329
379.7957, 215.4988
380.2778, 215.2746
380.7599, 215.1308
381.2420, 214.9780
381.7242, 214.8185
382.2063, 214.7069
382.6884, 214.7773
383.1705, 214.9349
383.6526, 214.8111
384.1347, 214.3221
384.6169, 213.7297
385.0990, 213.3816
385.5811, 213.2115
386.0632, 213.0290
386.5453, 212.7574
387.0274, 212.4143
387.5096, 212.0325
387.9917, 211.6147
388.4738, 211.1315
388.9559, 210.4164
389.4380, 209.6788
389.9201, 209.2170
390.4023, 209.4439
390.8844, 209.6174
391.3665, 209.1333
391.8486, 208.1474
392.3307, 207.2436
392.8128, 206.7110
393.2950, 206.3494
393.7771, 206.0477
394.2592, 205.8493
394.7413, 205.5385
395.2234, 204.8932
395.7055, 204.1202
396.1877, 203.5404
396.6698, 203.5166
397.1519, 203.4157
397.6340, 202.9931
398.1161, 202.1959
398.5982, 201.4986
399.0804, 201.0137
399.5625, 200.5957
400.0446, 200.1445
400.5267, 199.6673
401.0088, 199.1603
401.4909, 198.6905
401.9731, 198.2043
402.4552, 197.4301
402.9373, 196.0967
403.4194, 194.9206
403.9015, 194.3128
404.3836, 194.4754
404.8658, 194.3743
405.3479, 193.9192
405.8300, 193.3186
406.3121, 192.9347
406.7942, 192.8230
407.2763, 192.4921
407.7585, 191.6160
408.2406, 190.3631
408.7227, 189.8359
409.2048, 190.1150
409.6869, 190.4393
410.1690, 190.0926
410.6512, 189.1878
411.1333, 188.2296
411.6154, 187.2587
412.0975, 186.3759
412.5796, 185.7625
413.0617, 185.3823
413.5439, 185.0377
414.0260, 184.6721
414.5081, 184.2493
414.9902, 183.7011
415.4723, 183.0119
415.9544, 182.2996
416.4366, 181.6622
416.9187, 181.0691
417.4008, 180.4763
417.8829, 179.8174
418.3650, 179.1912
418.8471, 178.6868
419.3293, 178.2824
419.8114, 177.8189
420.2935, 177.0143
420.7756, 176.2662
421.2577, 175.9090
421.7398, 176.3118
422.2220, 176.4764
422.7041, 176.0235
423.1862, 175.2203
423.6683, 174.5479
424.1504, 174.2549
424.6325, 173.8975
425.1147, 173.2868
425.5968, 172.3528
426.0789, 171.7472
426.5610, 171.7708
427.0431, 171.8499
427.5252, 171.4581
428.0074, 170.2251
428.4895, 169.4139
428.9716, 169.3369
429.4537, 169.7196
429.9358, 169.6768
430.4179, 169.1157
430.9001, 168.4568
431.3822, 167.8482
431.8643, 167.2870
432.3464, 166.9878
432.8285, 166.9858
433.3106, 167.1337
433.7928, 167.3367
434.2749, 167.5698
434.7570, 167.6122
435.2391, 167.3461
435.7212, 166.8885
436.2033, 166.3869
436.6855, 165.8621
437.1676, 165.4714
437.6497, 165.4075
438.1318, 165.5293
438.6139, 165.6568
439.0960, 165.7986
439.5782, 165.8073
440.0603, 165.3773
440.5424, 164.7408
441.0245, 164.3384
441.5066, 164.5175
441.9887, 164.8474
442.4709, 165.0714
442.9530, 165.1863
443.4351, 165.3718
443.9172, 165.8042
444.3993, 166.2652
444.8814, 166.5898
445.3636, 166.6786
445.8457, 166.7272
446.3278, 166.7164
446.8099, 166.6828
447.2920, 166.7143
447.7741, 166.7153
448.2563, 166.8973
448.7384, 167.3918
449.2205, 168.2751
449.7026, 168.8927
450.1847, 169.1099
450.6668, 169.2270
451.1490, 169.5507
451.6311, 170.1752
452.1132, 170.6126
452.5953, 170.6694
453.0774, 170.5901
453.5595, 171.1577
454.0417, 172.4489
454.5238, 173.6862
455.0059, 174.4617
455.4880, 174.8215
455.9701, 174.9548
456.4522, 174.8203
456.9344, 174.7575
457.4165, 175.1247
457.8986, 175.8582
458.3807, 176.8061
458.8628, 178.1693
459.3449, 179.4530
459.8271, 179.8822
460.3092, 179.6634
460.7913, 179.6919
461.2734, 180.8918
461.7555, 182.3228
462.2376, 183.1809
462.7198, 183.2704
463.2019, 183.1455
463.6840, 182.9040
464.1661, 182.6405
464.6482, 182.4690
465.1303, 182.7846
465.6125, 182.8101
466.0946, 182.1612
466.5767, 180.9204
467.0588, 179.9294
467.5409, 179.4368
468.0230, 179.0409
468.5052, 178.5909
468.9873, 178.1408
469.4694, 177.4902
469.9515, 176.5368
470.4336, 175.4787
470.9157, 174.5805
471.3979, 173.8773
471.8800, 173.2421
472.3621, 172.6462
472.8442, 172.0966
473.3263, 171.5732
473.8084, 171.0628
474.2906, 170.6774
474.7727, 170.4981
475.2548, 170.5118
475.7369, 170.7117
476.2190, 171.1431
476.7011, 171.5716
477.1833, 171.6533
477.6654, 171.4998
478.1475, 171.4175
478.6296, 171.4986
479.1117, 171.7373
479.5938, 172.2503
480.0760, 172.9839
480.5581, 173.5595
481.0402, 173.6019
481.5223, 173.4987
482.0044, 173.5891
482.4865, 174.0334
482.9687, 174.4013
483.4508, 174.3773
483.9329, 174.2355
484.4150, 174.3658
484.8971, 175.1851
485.3792, 175.9159
485.8614, 176.3425
486.3435, 176.4884
486.8256, 176.6887
487.3077, 176.9827
487.7898, 177.2817
488.2719, 177.5698
488.7541, 177.9158
489.2362, 177.9742
489.7183, 177.6130
490.2004, 177.1357
490.6825, 177.0680
491.1646, 177.4660
491.6468, 177.6781
492.1289, 177.4227
492.6110, 176.8939
493.0931, 176.6709
493.5752, 176.7497
494.0573, 176.8687
494.5395, 176.8006
495.0216, 176.6430
495.5037, 176.6060
495.9858, 176.7249
496.4679, 176.9062
496.9500, 177.1891
497.4322, 177.4574
497.9143, 177.5123
498.3964, 177.0573
498.8785, 176.5659
499.3606, 176.2453
499.8427, 176.0987
500.3249, 176.1520
500.8070, 176.7249
501.2891, 177.2558
501.7712, 177.3936
502.2533, 176.8887
502.7354, 176.6078
503.2176, 176.8930
503.6997, 177.2878
504.1818, 177.3211
504.6639, 176.8040
505.1460, 176.2555
505.6281, 175.6824
506.1103, 175.1360
506.5924, 174.8535
507.0745, 174.8679
507.5566, 175.0228
508.0387, 175.2951
508.5208, 175.6737
509.0030, 175.9718
509.4851, 176.2033
509.9672, 176.2775
510.4493, 175.9769
510.9314, 175.4208
511.4135, 175.0193
511.8957, 174.9227
512.3778, 174.9546
512.8599, 174.9467
513.3420, 174.9073
513.8242, 174.8551
514.3063, 174.9028
514.7884, 174.8706
515.2705, 174.5506
515.7526, 173.9294
516.2347, 173.3883
516.7169, 173.0061
517.1990, 172.8042
517.6811, 172.8109
518.1632, 173.4068
518.6453, 173.6924
519.1274, 173.2970
519.6096, 172.5817
520.0917, 172.2259
520.5738, 172.4755
521.0559, 172.6728
521.5380, 172.6264
522.0201, 172.3548
522.5023, 172.2107
522.9844, 172.2598
523.4665, 172.2503
523.9486, 171.9265
524.4307, 171.3105
524.9128, 170.8991
525.3950, 170.7602
525.8771, 170.7421
526.3592, 170.7188
526.8413, 170.6628
527.3234, 170.4734
527.8055, 170.1089
528.2877, 169.5980
528.7698, 168.8302
529.2519, 167.8969
529.7340, 167.1590
530.2161, 167.0095
530.6982, 167.0085
531.1804, 166.8165
531.6625, 166.3689
532.1446, 165.9077
532.6267, 165.5900
533.1088, 165.2628
533.5909, 164.7904
534.0731, 164.0224
534.5552, 163.2696
535.0373, 162.5116
535.5194, 161.7928
536.0015, 161.1935
536.4836, 160.7617
536.9658, 160.3612
537.4479, 159.9521
537.9300, 159.5355
538.4121, 159.1502
538.8942, 158.8260
539.3763, 158.4046
539.8585, 157.6682
540.3406, 156.6833
540.8227, 155.8172
541.3048, 155.0898
541.7869, 154.5558
542.2690, 154.4884
542.7512, 154.6749
543.2333, 154.5815
543.7154, 153.8399
544.1975, 152.8521
544.6796, 151.8765
545.1617, 150.9131
545.6439, 150.0002
546.1260, 149.2129
546.6081, 148.4366
547.0902, 147.5205
547.5723, 146.3303
548.0544, 145.5510
548.5366, 145.6952
549.0187, 146.0494
549.5008, 145.9918
549.9829, 145.3764
550.4650, 144.5937
550.9471, 143.5562
551.4293, 142.4365
551.9114, 141.6631
552.3935, 141.3136
552.8756, 140.9367
553.3577, 140.3453
553.8398, 139.5878
554.3220, 138.8761
554.8041, 138.2080
555.2862, 137.5745
555.7683, 136.8950
556.2504, 136.2531
556.7325, 135.8760
557.2147, 135.8553
557.6968, 135.7571
558.1789, 135.0322
558.6610, 134.0372
559.1431, 133.3061
559.6252, 133.3869
560.1074, 133.3999
560.5895, 132.9149
561.0716, 132.0670
561.5537, 131.3218
562.0358, 130.7754
562.5179, 130.3349
563.0001, 130.0049
563.4822, 129.8047
563.9643, 129.5197
564.4464, 129.1539
564.9285, 128.6978
565.4106, 128.1221
565.8928, 127.4058
566.3749, 126.6821
566.8570, 125.9301
567.3391, 125.2267
567.8212, 124.6719
568.3033, 124.2603
568.7855, 124.0067
569.2676, 124.0270
569.7497, 124.0899
570.2318, 123.7766
570.7139, 123.1731
571.1960, 122.6305
571.6782, 122.4454
572.1603, 122.3507
572.6424, 122.1400
573.1245, 121.7891
573.6066, 121.3933
574.0887, 120.9094
574.5709, 120.4399
575.0530, 120.0595
575.5351, 119.7844
576.0172, 119.5923
576.4993, 119.5743
576.9814, 119.5951
577.4636, 119.4156
577.9457, 118.9414
578.4278, 118.5280
578.9099, 118.3070
579.3920, 118.2011
579.8741, 117.8377
580.3563, 117.1885
580.8384, 116.6865
581.3205, 116.7703
581.8026, 117.1913
582.2847, 117.1921
582.7668, 116.7445
583.2490, 116.2020
583.7311, 115.8175
584.2132, 115.5323
584.6953, 115.2664
585.1774, 114.9986
585.6595, 114.7602
586.1416, 114.6185
586.6237, 114.5052
587.1058, 114.3146
587.5880, 113.7483
588.0701, 113.4040
588.5522, 113.5983
589.0343, 114.1766
589.5164, 114.4106
589.9985, 114.1200
590.4807, 113.7886
590.9628, 113.6461
591.4449, 113.6995
591.9270, 113.4877
592.4091, 112.9477
592.8912, 112.4080
593.3734, 112.1943
593.8555, 112.2456
594.3376, 112.3052
594.8197, 112.3578
595.3018, 112.3289
595.7839, 112.0683
596.2661, 111.6750
596.7482, 111.3382
597.2303, 111.1284
597.7124, 111.0010
598.1945, 110.8987
598.6766, 110.8548
599.1588, 110.9677
599.6409, 111.5466
600.1230, 112.0251
600.6051, 112.0734
601.0872, 111.6454
601.5693, 111.5982
602.0515, 112.2200
602.5336, 112.8289
603.0157, 112.9472
603.4978, 112.4545
603.9799, 112.2464
604.4620, 112.4241
604.9442, 112.6618
605.4263, 112.4288
605.9084, 111.8330
606.3905, 111.5365
606.8726, 111.7513
607.3547, 111.9466
607.8369, 112.5707
608.3190, 113.0281
608.8011, 113.3265
609.2832, 113.0595
609.7653, 113.4692
610.2474, 113.5752
610.7296, 113.6463
611.2117, 114.0847
611.6938, 113.7802
612.1759, 114.1658
612.6580, 114.2434
613.1401, 114.4280
613.6223, 114.3071
614.1044, 114.2501
614.5865, 114.4521
615.0686, 114.4745
615.5507, 114.2280
616.0328, 114.2812
616.5150, 113.7339
616.9971, 113.6698
617.4792, 113.8010
617.9613, 113.7441
618.4434, 114.0585
618.9255, 114.5496
619.4077, 114.9632
619.8898, 114.8485
620.3719, 114.3856
620.8540, 114.1398
621.3361, 114.5418
621.8182, 115.1146
622.3004, 115.6726
622.7825, 116.1977
623.2646, 116.5361
623.7467, 116.4496
624.2288, 116.3352
624.7109, 116.4019
625.1931, 116.7281
625.6752, 116.9609
626.1573, 117.0813
626.6394, 117.1384
627.1215, 117.1602
627.6036, 117.1445
628.0858, 117.1899
628.5679, 117.3271
629.0500, 117.4886
629.5321, 117.5643
630.0142, 117.5774
630.4963, 117.6008
630.9785, 117.6950
631.4606, 117.7827
631.9427, 117.7430
632.4248, 117.6329
632.9069, 117.6319
633.3890, 117.9351
633.8712, 118.2564
634.3533, 118.5060
634.8354, 118.6815
635.3175, 118.6803
635.7996, 118.3489
636.2817, 118.0137
636.7639, 117.8759
637.2460, 118.0066
637.7281, 117.9053
638.2102, 117.4614
638.6923, 117.0880
639.1744, 117.4030
639.6566, 118.2603
640.1387, 118.7886
640.6208, 118.7700
641.1029, 118.5296
641.5850, 118.3747
642.0671, 118.2798
642.5493, 118.1894
643.0314, 118.0881
643.5135, 117.9830
643.9956, 117.9101
644.4777, 117.8430
644.9598, 117.6955
645.4420, 117.2737
645.9241, 116.9580
646.4062, 116.8990
646.8883, 117.0839
647.3704, 117.2112
647.8525, 117.2818
648.3347, 117.2910
648.8168, 117.2637
649.2989, 117.1952
649.7810, 116.8518
650.2631, 116.1916
650.7452, 115.6056
651.2274, 115.5221
651.7095, 115.7859
652.1916, 116.1398
652.6737, 116.5933
653.1558, 116.8733
653.6379, 116.5799
654.1201, 116.0585
654.6022, 115.7632
655.0843, 116.1050
655.5664, 116.3644
656.0485, 116.3866
656.5306, 116.2108
657.0128, 115.9136
657.4949, 115.3336
657.9770, 114.9586
658.4591, 115.0293
658.9412, 115.3811
659.4233, 115.2057
659.9055, 114.4509
660.3876, 113.7382
660.8697, 113.4836
661.3518, 113.5043
661.8339, 113.2815
662.3160, 112.8375
662.7982, 112.5493
663.2803, 112.9547
663.7624, 113.4883
664.2445, 113.5333
664.7266, 112.9214
665.2087, 112.3993
665.6909, 112.2515
666.1730, 112.2769
666.6551, 112.3168
667.1372, 112.4230
667.6193, 112.4282
668.1014, 112.2874
668.5836, 112.0894
669.0657, 111.9733
669.5478, 111.9527
670.0299, 111.8527
670.5120, 111.6206
670.9941, 111.3226
671.4763, 111.0580
671.9584, 110.8258
672.4405, 110.6164
672.9226, 110.3462
673.4047, 110.1606
673.8868, 110.3694
674.3690, 110.8097
674.8511, 110.9102
675.3332, 109.9420
675.8153, 109.0593
676.2974, 108.8580
676.7795, 109.3860
677.2617, 109.6188
677.7438, 109.4140
678.2259, 109.1321
678.7080, 108.9644
679.1901, 108.9204
679.6722, 108.7994
680.1544, 108.5938
680.6365, 108.3470
681.1186, 108.0162
681.6007, 107.6802
682.0828, 107.5785
682.5649, 107.7854
683.0471, 107.9904
683.5292, 107.9320
684.0113, 107.7224
684.4934, 107.4974
684.9755, 107.3269
685.4576, 107.0874
685.9398, 106.5952
686.4219, 106.0610
686.9040, 105.8272
687.3861, 106.0429
687.8682, 106.2729
688.3503, 106.4825
688.8325, 106.6419
689.3146, 106.6256
689.7967, 106.4317
690.2788, 106.3003
690.7609, 106.4347
691.2430, 106.6141
691.7252, 106.3962
692.2073, 105.8447
692.6894, 105.2544
693.1715, 104.6707
693.6536, 104.2059
694.1357, 103.9271
694.6179, 103.8376
695.1000, 103.9348
695.5821, 104.5377
696.0642, 105.0344
696.5463, 105.1031
697.0284, 104.6597
697.5106, 104.3376
697.9927, 104.1414
698.4748, 104.0577
698.9569, 104.1280
699.4390, 104.3284
699.9211, 104.4500
700.4033, 104.4773
700.8854, 104.4469
701.3675, 104.4075
701.8496, 104.3329
702.3317, 104.1319
702.8138, 103.6579
703.2960, 103.3994
703.7781, 103.8124
704.2602, 104.4980
704.7423, 104.9680
705.2244, 105.0311
705.7065, 104.9983
706.1887, 104.8151
706.6708, 104.5875
707.1529, 104.5086
707.6350, 104.5920
708.1171, 104.7320
708.5992, 104.8937
709.0814, 105.1050
709.5635, 105.5194
710.0456, 106.0745
710.5277, 106.4667
711.0098, 106.3055
711.4919, 106.1069
711.9741, 106.4305
712.4562, 107.1355
712.9383, 107.6602
713.4204, 107.6902
713.9025, 107.6053
714.3846, 107.5152
714.8668, 107.4281
715.3489, 107.4590
715.8310, 107.6341
716.3131, 107.8760
716.7952, 108.1583
717.2773, 108.4766
717.7595, 108.8508
718.2416, 109.2889
718.7237, 109.6094
719.2058, 109.5159
719.6879, 109.2657
720.1700, 109.3111
720.6522, 109.7134
721.1343, 110.1018
721.6164, 110.1613
722.0985, 110.1802
722.5806, 110.4070
723.0627, 110.9774
723.5449, 111.5291
724.0270, 112.0698
724.5091, 112.5671
724.9912, 112.9753
725.4733, 113.2766
725.9554, 113.6455
726.4376, 114.1322
726.9197, 114.5893
727.4018, 114.7301
727.8839, 114.6631
728.3660, 114.7167
728.8481, 114.9582
729.3303, 115.3919
729.8124, 116.1459
730.2945, 117.0577
730.7766, 117.8721
731.2587, 118.5524
731.7408, 119.0936
732.2230, 119.4113
732.7051, 119.6077
733.1872, 119.8059
733.6693, 119.8484
734.1514, 120.3750
734.6335, 121.6713
735.1157, 123.4186
735.5978, 124.9910
736.0799, 126.3496
736.5620, 127.1512
737.0441, 126.8809
737.5262, 126.2583
738.0084, 125.9777
738.4905, 126.0242
738.9726, 126.3459
739.4547, 127.1103
739.9368, 127.9623
740.4189, 128.7162
740.9011, 129.3889
741.3832, 130.2440
741.8653, 131.3399
742.3474, 132.5284
742.8295, 133.7910
743.3116, 135.1004
743.7938, 136.1956
744.2759, 137.0732
744.7580, 137.8229
745.2401, 138.3288
745.7222, 138.8159
746.2043, 139.7127
746.6865, 141.0202
747.1686, 142.2978
747.6507, 143.2909
748.1328, 144.1969
748.6149, 145.1278
749.0970, 146.0625
749.5792, 147.1297
750.0613, 148.3752
750.5434, 149.7000
751.0255, 151.1001
751.5076, 152.5840
751.9897, 153.9135
752.4719, 155.0947
752.9540, 156.1090
753.4361, 156.7809
753.9182, 157.3314
754.4003, 158.2735
754.8824, 159.7023
755.3646, 161.2158
755.8467, 162.6155
756.3288, 163.9295
756.8109, 165.1270
757.2930, 166.0863
757.7751, 167.2320
758.2573, 168.7706
758.7394, 170.3413
759.2215, 171.5008
759.7036, 172.1353
760.1857, 173.3349
760.6678, 175.2990
761.1500, 177.4324
761.6321, 178.9440
762.1142, 179.9981
762.5963, 181.0370
763.0784, 182.2077
763.5605, 183.2368
764.0427, 183.6309
764.5248, 183.8845
765.0069, 184.6175
765.4890, 186.7491
765.9711, 188.3040
766.4532, 188.8262
766.9354, 188.9505
767.4175, 189.6377
767.8996, 190.9968
768.3817, 192.2535
768.8638, 193.2572
769.3459, 194.1633
769.8281, 195.3363
770.3102, 196.6114
770.7923, 197.4552
771.2744, 197.3559
771.7565, 197.2922
772.2386, 197.9985
772.7208, 199.1891
773.2029, 200.3664
773.6850, 201.3173
774.1671, 202.3929
774.6492, 203.8655
775.1313, 205.3792
775.6135, 206.0300
776.0956, 205.6489
776.5777, 205.5957
777.0598, 206.3306
777.5419, 207.4335
778.0240, 208.2196
778.5062, 208.7512
778.9883, 209.2252
779.4704, 209.7744
779.9525, 210.2418
780.4346, 210.5349
780.9167, 210.6711
781.3989, 210.7015
781.8810, 210.4069
782.3631, 210.2932
782.8452, 210.4871
783.3273, 210.9097
783.8094, 211.3763
784.2916, 211.9050
784.7737, 212.3267
785.2558, 212.6167
785.7379, 212.7365
786.2200, 212.5109
786.7021, 212.0318
787.1843, 211.6210
787.6664, 211.4821
788.1485, 211.3995
788.6306, 211.3707
789.1127, 211.3218
789.5948, 210.9606
790.0770, 209.8257
790.5591, 209.0459
791.0412, 209.0868
791.5233, 209.6074
792.0054, 209.2738
792.4875, 208.0684
792.9697, 206.8880
793.4518, 206.2062
793.9339, 205.7173
794.4160, 204.9269
794.8981, 203.9204
795.3802, 202.9839
795.8624, 202.2902
796.3445, 201.6614
796.8266, 201.1576
797.3087, 200.6913
797.7908, 199.8257
798.2729, 198.3393
798.7551, 196.8858
799.2372, 195.6460
799.7193, 194.5649
800.2014, 193.4331
800.6835, 192.2581
801.1656, 191.0499
801.6478, 189.8382
802.1299, 188.5925
802.6120, 187.2620
803.0941, 185.8575
803.5762, 184.3857
804.0583, 182.6717
804.5405, 181.0870
805.0226, 179.9091
805.5047, 178.9944
805.9868, 177.7625
806.4689, 176.1113
806.9510, 174.4902
807.4332, 173.0779
807.9153, 171.7830
808.3974, 170.3461
808.8795, 168.8054
809.3616, 167.3696
809.8438, 166.3187
810.3259, 165.2954
810.8080, 163.9723
811.2901, 162.4411
811.7722, 160.9651
812.2543, 159.5884
812.7365, 158.3118
813.2186, 157.1310
813.7007, 156.0434
814.1828, 155.1321
814.6649, 154.4414
815.1470, 153.5120
815.6292, 152.0652
816.1113, 150.4080
816.5934, 149.0897
817.0755, 148.0535
817.5576, 147.1348
818.0397, 146.4045
818.5219, 145.6182
819.0040, 144.5469
819.4861, 143.3085
819.9682, 142.3254
820.4503, 141.8256
820.9324, 141.2046
821.4146, 140.3408
821.8967, 139.2941
822.3788, 138.1441
822.8609, 136.9183
823.3430, 135.8912
823.8251, 135.2116
824.3073, 134.7171
824.7894, 134.3970
825.2715, 134.0915
825.7536, 133.4383
826.2357, 131.7659
826.7178, 130.3471
827.2000, 129.8020
827.6821, 129.6889
828.1642, 129.2083
828.6463, 128.2412
829.1284, 127.3001
829.6105, 126.4625
830.0927, 125.7239
830.5748, 125.0749
831.0569, 124.5071
831.5390, 123.9849
832.0211, 123.5040
832.5032, 123.0398
832.9854, 122.6740
833.4675, 122.2865
833.9496, 121.7016
834.4317, 120.6220
834.9138, 119.7039
835.3959, 119.0378
835.8781, 118.5134
836.3602, 118.0418
836.8423, 117.6261
837.3244, 116.8358
837.8065, 115.5016
838.2886, 114.0710
838.7708, 112.9823
839.2529, 112.1707
839.7350, 111.5626
840.2171, 111.3440
840.6992, 110.8984
841.1813, 109.8357
841.6635, 108.5496
842.1456, 107.4519
842.6277, 106.6277
843.1098, 105.7567
843.5919, 104.8284
844.0740, 103.8325
844.5562, 102.6730
845.0383, 101.4457
845.5204, 100.5156
846.0025, 99.98950
846.4846, 99.39188
846.9667, 98.36495
847.4489, 97.10840
847.9310, 95.77341
848.4131, 94.21622
848.8952, 93.06429
849.3773, 92.57725
849.8594, 92.13123
850.3416, 91.18690
850.8237, 89.76101
851.3058, 88.54488
851.7879, 87.55552
852.2700, 86.74425
852.7521, 86.21892
853.2343, 85.73703
853.7164, 84.96514
854.1985, 83.86585
854.6806, 82.81179
855.1627, 81.98048
855.6448, 81.17270
856.1270, 80.26674
856.6091, 79.25357
857.0912, 78.52112
857.5733, 78.28747
858.0554, 77.91042
858.5375, 77.39775
859.0197, 76.34277
859.5018, 75.98801
859.9839, 75.35265
860.4660, 74.70579
860.9481, 74.44948
861.4302, 73.47356
861.9124, 73.21092
862.3945, 72.66368
862.8766, 72.24672
863.3587, 71.54749
863.8408, 70.93546
864.3229, 70.60583
864.8051, 70.11967
865.2872, 69.38802
865.7693, 68.97935
866.2514, 67.99350
866.7335, 67.02608
867.2156, 66.25304
867.6978, 65.67892
868.1799, 65.24187
868.6620, 64.79160
869.1441, 64.23017
869.6262, 63.75423
870.1083, 63.43401
870.5905, 63.17287
871.0726, 62.75157
871.5547, 62.17144
872.0368, 61.68258
872.5189, 61.36205
873.0010, 61.11204
873.4832, 60.84808
873.9653, 60.56523
874.4474, 60.26060
874.9295, 59.95543
875.4116, 59.58525
875.8937, 59.07943
876.3759, 58.53623
876.8580, 58.04168
877.3401, 57.59161
877.8222, 57.19627
878.3043, 56.84074
878.7864, 56.60433
879.2686, 56.69878
879.7507, 56.92867
880.2328, 56.93156
880.7149, 56.64385
881.1970, 56.25382
881.6791, 55.74449
882.1613, 55.25282
882.6434, 54.88112
883.1255, 54.64710
883.6076, 54.39778
884.0897, 54.12746
884.5718, 53.86250
885.0540, 53.65651
885.5361, 53.46461
886.0182, 53.07824
886.5003, 52.53278
886.9824, 52.13776
887.4645, 52.24870
887.9467, 52.41835
888.4288, 52.37659
888.9109, 52.12276
889.3930, 51.82843
889.8751, 51.44493
890.3572, 51.15214
890.8394, 51.05727
891.3215, 51.05629
891.8036, 50.82755
892.2857, 50.41219
892.7678, 50.01897
893.2499, 49.72890
893.7321, 49.51501
894.2142, 49.40593
894.6963, 49.34816
895.1784, 49.23940
895.6605, 48.94938
896.1426, 48.78481
896.6248, 48.83894
897.1069, 48.94933
897.5890, 48.86047
898.0711, 48.58902
898.5532, 48.29222
899.0353, 47.98331
899.5175, 47.71533
899.9996, 47.51616
900.4817, 47.39275
900.9638, 47.37864
901.4459, 47.56145
901.9280, 47.60270
902.4102, 47.40453
902.8923, 47.13636
903.3744, 46.92450
903.8565, 46.76965
904.3386, 46.47014
904.8207, 46.02053
905.3029, 45.67980
905.7850, 45.77774
906.2671, 46.01700
906.7492, 46.09848
907.2313, 46.00585
907.7134, 45.81544
908.1956, 45.41832
908.6777, 45.07336
909.1598, 44.87251
909.6419, 44.79211
910.1240, 44.73143
910.6061, 44.69176
911.0883, 44.62957
911.5704, 44.54365
912.0525, 44.40525
912.5346, 44.07724
913.0167, 43.67626
913.4988, 43.45547
913.9810, 43.77052
914.4631, 43.93260
914.9452, 43.69685
915.4273, 43.31070
915.9094, 43.13299
916.3915, 43.18144
916.8737, 43.23948
917.3558, 43.29362
917.8379, 43.27450
918.3200, 43.00694
918.8021, 42.65379
919.2842, 42.48376
919.7664, 42.60408
920.2485, 42.64587
920.7306, 42.37294
921.2127, 42.09409
921.6948, 42.03310
922.1769, 42.21752
922.6591, 42.12420
923.1412, 41.71760
923.6233, 41.38361
924.1054, 41.53796
924.5875, 41.84326
925.0696, 41.78204
925.5518, 41.40660
926.0339, 41.07452
926.5160, 40.97016
926.9981, 40.88996
927.4802, 40.77347
927.9623, 40.62965
928.4445, 40.46428
928.9266, 40.26888
929.4087, 40.16748
929.8908, 40.23415
930.3729, 40.33258
930.8550, 40.27070
931.3372, 40.10890
931.8193, 39.95518
932.3014, 39.83893
932.7835, 39.73776
933.2656, 39.66808
933.7477, 39.59430
934.2299, 39.47675
934.7120, 39.30976
935.1941, 39.15073
935.6762, 38.99860
936.1583, 38.89342
936.6404, 38.92128
937.1226, 38.99445
937.6047, 39.01249
938.0868, 38.96490
938.5689, 38.83919
939.0510, 38.50826
939.5331, 38.23021
940.0153, 38.11501
940.4974, 38.13943
940.9795, 38.15281
941.4616, 38.15510
941.9437, 38.12454
942.4258, 38.01090
942.9080, 37.90546
943.3901, 37.98002
943.8722, 38.14191
944.3543, 38.19234
944.8364, 37.95362
945.3185, 37.75210
945.8007, 37.64242
946.2828, 37.58537
946.7649, 37.53176
947.2470, 37.48187
947.7291, 37.43825
948.2112, 37.40177
948.6934, 37.36815
949.1755, 37.31932
949.6576, 37.27845
950.1397, 37.30370
950.6218, 37.43744
951.1039, 37.38976
951.5861, 36.94468
952.0682, 36.58087
952.5503, 36.58250
953.0324, 36.87980
953.5145, 36.98269
953.9966, 36.90413
954.4788, 36.80899
954.9609, 36.78133
955.4430, 36.78367
955.9251, 36.84092
956.4072, 36.90367
956.8893, 36.83125
957.3715, 36.46320
957.8536, 36.21305
958.3357, 36.16352
958.8178, 36.21022
959.2999, 36.20741
959.7820, 36.15870
960.2642, 36.04446
960.7463, 35.82646
961.2284, 35.74114
961.7105, 36.17836
962.1926, 36.67714
962.6747, 36.81374
963.1569, 36.48075
963.6390, 36.10874
964.1211, 35.64698
964.6032, 35.27668
965.0853, 35.15509
965.5674, 35.20277
966.0496, 35.19643
966.5317, 35.15187
967.0138, 35.14356
967.4959, 35.26112
967.9780, 35.37254
968.4601, 35.41811
968.9423, 35.40982
969.4244, 35.37609
969.9065, 35.31678
970.3886, 35.21914
970.8707, 35.05931
971.3528, 34.92280
971.8350, 34.97596
972.3171, 35.11791
972.7992, 35.15131
973.2813, 35.00994
973.7634, 34.89564
974.2455, 34.85939
974.7277, 34.90025
975.2098, 35.05296
975.6919, 35.32082
976.1740, 35.38771
976.6561, 35.24297
977.1382, 35.12769
977.6204, 35.28378
978.1025, 35.48411
978.5846, 35.40033
979.0667, 35.12881
979.5488, 34.95716
980.0309, 35.08837
980.5131, 35.18081
980.9952, 35.18187
981.4773, 35.11784
981.9594, 35.02435
982.4415, 34.90316
982.9236, 34.73758
983.4058, 34.50642
983.8879, 34.36515
984.3700, 34.58152
984.8521, 34.86212
985.3342, 34.89730
985.8163, 34.56964
986.2985, 34.42266
986.7806, 34.52085
987.2627, 34.66746
987.7448, 34.81211
988.2269, 34.90815
988.7090, 34.71433
989.1912, 34.31566
989.6733, 34.06619
990.1554, 34.27551
990.6375, 34.53332
991.1196, 34.70317
991.6017, 34.77199
992.0839, 34.68585
992.5660, 34.36582
993.0481, 34.28571
993.5302, 34.55583
994.0123, 34.84081
994.4944, 34.69168
994.9766, 34.33613
995.4587, 34.12692
995.9408, 34.11940
996.4229, 34.10688
996.9050, 33.94190
997.3871, 33.84652
997.8693, 33.93645
998.3514, 34.17632
998.8335, 34.37321
999.3156, 34.52501
999.7977, 34.59533
1000.280, 34.52502
1000.762, 34.42471
1001.244, 34.44507
1001.726, 34.49336
1002.208, 34.40619
1002.690, 33.92912
1003.173, 33.73069
1003.655, 33.92620
1004.137, 34.21141
1004.619, 34.25361
1005.101, 34.12532
1005.583, 34.09765
1006.065, 34.18032
1006.547, 34.20928
1007.029, 34.00185
1007.512, 33.79039
1007.994, 33.70421
1008.476, 33.72828
1008.958, 33.82318
1009.440, 34.00618
1009.922, 34.15479
1010.404, 34.24213
1010.886, 34.25712
1011.369, 34.10529
1011.851, 33.89470
1012.333, 33.82166
1012.815, 34.02338
1013.297, 34.14877
1013.779, 34.06157
1014.261, 33.97466
1014.743, 34.07192
1015.225, 34.33768
1015.708, 34.42739
1016.190, 34.34851
1016.672, 34.21965
1017.154, 34.05628
1017.636, 33.93021
1018.118, 33.90886
1018.600, 33.96862
1019.082, 34.03572
1019.565, 34.14013
1020.047, 34.14325
1020.529, 33.98695
1021.011, 33.80902
1021.493, 33.85212
1021.975, 34.00195
1022.457, 34.00343
1022.939, 33.79848
1023.421, 33.58413
1023.904, 33.29381
1024.386, 33.18466
1024.868, 33.48073
1025.350, 34.10249
1025.832, 34.26001
1026.314, 33.95847
1026.796, 33.60466
1027.278, 33.32549
1027.760, 33.15997
1028.243, 33.21867
1028.725, 33.39528
1029.207, 33.51276
1029.689, 33.51218
1030.171, 33.49268
1030.653, 33.45841
1031.135, 33.40056
1031.617, 33.26936
1032.100, 33.11369
1032.582, 33.09125
1033.064, 33.19988
1033.546, 33.31223
1034.028, 33.41832
1034.510, 33.45018
1034.992, 33.33200
1035.474, 33.12270
1035.957, 32.97536
1036.439, 32.88675
1036.921, 32.90604
1037.403, 33.08184
1037.885, 33.23865
1038.367, 33.15366
1038.849, 32.94413
1039.331, 32.72516
1039.813, 32.46468
1040.296, 32.44714
1040.778, 32.83362
1041.260, 33.15273
1041.742, 33.10763
1042.224, 32.80745
1042.706, 32.57615
1043.188, 32.41710
1043.670, 32.33269
1044.152, 32.35401
1044.635, 32.41761
1045.117, 32.59015
1045.599, 32.73827
1046.081, 32.66543
1046.563, 32.33141
1047.045, 32.09539
1047.527, 31.98489
1048.009, 31.91820
1048.492, 31.82713
1048.974, 31.74195
1049.456, 31.70402
1049.938, 31.71060
1050.420, 31.70025
1050.902, 31.64839
1051.384, 31.62779
1051.866, 31.69689
1052.349, 31.74522
1052.831, 31.42385
1053.313, 30.91500
1053.795, 30.79052
1054.277, 31.32010
1054.759, 31.69189
1055.241, 31.34256
1055.723, 30.86812
1056.205, 30.64978
1056.688, 30.68169
1057.170, 30.77402
1057.652, 30.92693
1058.134, 30.99452
1058.616, 30.83317
1059.098, 30.62759
1059.580, 30.56315
1060.062, 30.57473
1060.544, 30.53568
1061.027, 30.35712
1061.509, 30.28602
1061.991, 30.36239
1062.473, 30.45941
1062.955, 30.48089
1063.437, 30.42341
1063.919, 30.22873
1064.401, 29.91959
1064.884, 29.68726
1065.366, 29.67934
1065.848, 29.69418
1066.330, 29.69079
1066.812, 29.65258
1067.294, 29.31876
1067.776, 29.57709
1068.258, 29.69202
1068.740, 29.67128
1069.223, 29.10829
1069.705, 29.24546
1070.187, 29.10208
1070.669, 28.94721
1071.151, 29.18289
1071.633, 28.69888
1072.115, 28.92838
1072.597, 28.87304
1073.079, 28.94808
1073.562, 28.74070
1074.044, 28.62065
1074.526, 28.78295
1075.008, 28.78890
1075.490, 28.54918
1075.972, 28.63249
1076.454, 28.13863
1076.936, 28.15125
1077.419, 28.38226
1077.901, 28.15671
1078.383, 28.24518
1078.865, 28.21407
1079.347, 27.63944
1079.829, 28.01004
1080.311, 27.75815
1080.793, 27.54151
1081.275, 27.21691
1081.758, 26.99785
1082.240, 26.88227
1082.722, 26.92591
1083.204, 27.15928
1083.686, 27.32261
1084.168, 27.08518
1084.650, 26.74841
1085.132, 26.61499
1085.615, 26.69570
1086.097, 26.66179
1086.579, 26.45842
1087.061, 26.29347
1087.543, 26.24860
1088.025, 26.22793
1088.507, 26.04146
1088.989, 25.78156
1089.471, 25.61642
1089.953, 25.59992
1090.436, 25.62175
1090.918, 25.72218
1091.400, 25.76284
1091.882, 25.62609
1092.364, 25.37795
1092.846, 25.36883
1093.328, 25.54297
1093.810, 25.63358
1094.293, 25.42871
1094.775, 25.23551
1095.257, 25.26074
1095.739, 25.32700
1096.221, 25.21938
1096.703, 24.90056
1097.185, 24.75878
1097.667, 24.80501
1098.150, 24.85144
1098.632, 24.69353
1099.114, 24.53244
1099.596, 24.59947
1100.078, 24.80702
1100.560, 24.84993
1101.042, 24.63880
1101.524, 24.48986
1102.006, 24.45005
1102.489, 24.45452
1102.971, 24.46444
1103.453, 24.45096
1103.935, 24.35362
1104.417, 24.16979
1104.899, 24.00315
1105.381, 23.86356
1105.863, 23.77242
1106.345, 23.76177
1106.828, 23.77134
1107.310, 23.63685
1107.792, 23.41452
1108.274, 23.28749
1108.756, 23.31424
1109.238, 23.35601
1109.720, 23.33922
1110.202, 23.32630
1110.685, 23.36102
1111.167, 23.43234
1111.649, 23.45958
1112.131, 23.44386
1112.613, 23.39587
1113.095, 23.32291
1113.577, 23.21556
1114.059, 23.03955
1114.542, 22.84152
1115.024, 22.66690
1115.506, 22.49942
1115.988, 22.45441
1116.470, 22.54389
1116.952, 22.63403
1117.434, 22.62893
1117.916, 22.58236
1118.398, 22.57858
1118.880, 22.57703
1119.363, 22.46431
1119.845, 22.08344
1120.327, 21.91459
1120.809, 22.03108
1121.291, 22.23107
1121.773, 22.35945
1122.255, 22.41145
1122.737, 22.35479
1123.220, 22.20288
1123.702, 22.04645
1124.184, 21.87413
1124.666, 21.77362
1125.148, 21.81064
1125.630, 21.85275
1126.112, 21.61523
1126.594, 21.21112
1127.077, 20.99088
1127.559, 21.00667
1128.041, 21.11086
1128.523, 21.35284
1129.005, 21.52888
1129.487, 21.53979
1129.969, 21.43095
1130.451, 21.34933
1130.933, 21.28410
1131.416, 21.13491
1131.898, 20.83707
1132.380, 20.60388
1132.862, 20.65354
1133.344, 20.76317
1133.826, 20.73221
1134.308, 20.57104
1134.790, 20.56497
1135.272, 20.71847
1135.755, 20.83540
1136.237, 20.83426
1136.719, 20.76946
1137.201, 20.66257
1137.683, 20.53759
1138.165, 20.41959
1138.647, 20.29888
1139.129, 20.24409
1139.612, 20.26180
1140.094, 20.30326
1140.576, 20.35961
1141.058, 20.40434
1141.540, 20.41500
1142.022, 20.38570
1142.504, 20.29989
1142.986, 20.08191
1143.469, 19.94983
1143.951, 19.91467
1144.433, 19.94434
1144.915, 20.08642
1145.397, 20.23677
1145.879, 20.13817
1146.361, 19.86043
1146.843, 19.70795
1147.325, 19.95381
1147.807, 20.07598
1148.290, 19.99562
1148.772, 19.80170
1149.254, 19.52590
1149.736, 19.23849
1150.218, 19.13666
1150.700, 19.22103
1151.182, 19.32582
1151.664, 19.44306
1152.147, 19.48068
1152.629, 19.38519
1153.111, 19.23321
1153.593, 19.15161
1154.075, 19.13801
1154.557, 19.20828
1155.039, 19.37197
1155.521, 19.47706
1156.004, 19.39210
1156.486, 19.27791
1156.968, 19.21063
1157.450, 19.17475
1157.932, 19.13024
1158.414, 19.07388
1158.896, 18.95823
1159.378, 18.74267
1159.860, 18.61316
1160.343, 18.81440
1160.825, 19.03826
1161.307, 19.06066
1161.789, 18.90740
1162.271, 18.76847
1162.753, 18.64425
1163.235, 18.54267
1163.717, 18.45974
1164.199, 18.41675
1164.682, 18.44970
1165.164, 18.51978
1165.646, 18.59678
1166.128, 18.68096
1166.610, 18.73648
1167.092, 18.76378
1167.574, 18.73116
1168.056, 18.57690
1168.539, 18.42467
1169.021, 18.39737
1169.503, 18.43605
1169.985, 18.46229
1170.467, 18.47115
1170.949, 18.47521
1171.431, 18.47936
1171.913, 18.43686
1172.396, 18.23148
1172.878, 18.04348
1173.360, 18.17935
1173.842, 18.43954
1174.324, 18.40225
1174.806, 17.83702
1175.288, 17.56009
1175.770, 17.62911
1176.252, 17.78010
1176.734, 17.79226
1177.217, 17.77744
1177.699, 17.92420
1178.181, 18.15788
1178.663, 18.24166
1179.145, 18.06518
1179.627, 17.94014
1180.109, 17.89577
1180.591, 17.87628
1181.074, 17.77378
1181.556, 17.69876
1182.038, 17.89393
1182.520, 18.28392
1183.002, 18.46469
1183.484, 18.30673
1183.966, 18.07574
1184.448, 17.77060
1184.931, 17.50167
1185.413, 17.39515
1185.895, 17.40597
1186.377, 17.50792
1186.859, 17.67724
1187.341, 17.75245
1187.823, 17.67910
1188.305, 17.54882
1188.787, 17.34753
1189.270, 17.16851
1189.752, 17.18972
1190.234, 17.30117
1190.716, 17.28806
1191.198, 17.13453
1191.680, 17.07051
1192.162, 17.20700
1192.644, 17.31202
1193.126, 17.31675
1193.609, 17.29446
1194.091, 17.41928
1194.573, 17.58222
1195.055, 17.53954
1195.537, 17.24230
1196.019, 17.05085
1196.501, 17.06034
1196.983, 17.16283
1197.466, 17.37647
1197.948, 17.58618
1198.430, 17.53808
1198.912, 17.34296
1199.394, 17.22249
1199.876, 17.22760
1200.358, 17.24600
1200.840, 17.30966
1201.323, 17.27308
1201.805, 17.03315
1202.287, 16.73210
1202.769, 16.67830
1203.251, 16.78815
1203.733, 16.88865
1204.215, 16.94031
1204.697, 16.99773
1205.179, 17.11098
1205.661, 17.15327
1206.144, 17.02651
1206.626, 16.84134
1207.108, 16.87528
1207.590, 17.04267
1208.072, 17.16529
1208.554, 17.19890
1209.036, 17.15839
1209.518, 16.99219
1210.001, 16.87292
1210.483, 16.93012
1210.965, 17.05389
1211.447, 16.91104
1211.929, 16.63866
1212.411, 16.55613
1212.893, 16.88467
1213.375, 17.04589
1213.858, 16.91121
1214.340, 16.74785
1214.822, 16.71920
1215.304, 16.75459
1215.786, 16.66093
1216.268, 16.49961
1216.750, 16.41369
1217.232, 16.49124
1217.714, 16.55215
1218.197, 16.59233
1218.679, 16.58842
1219.161, 16.47585
1219.643, 16.34443
1220.125, 16.42248
1220.607, 16.63037
1221.089, 16.78299
1221.571, 16.77791
1222.053, 16.81237
1222.536, 16.93324
1223.018, 16.99845
1223.500, 16.85885
1223.982, 16.63491
1224.464, 16.59316
1224.946, 16.65414
1225.428, 16.63585
1225.910, 16.32382
1226.393, 16.23056
1226.875, 16.42307
1227.357, 16.64899
1227.839, 16.75637
1228.321, 16.75790
1228.803, 16.57953
1229.285, 16.32796
1229.767, 16.25642
1230.250, 16.59364
1230.732, 16.77601
1231.214, 16.78390
1231.696, 16.69125
1232.178, 16.47753
1232.660, 16.25496
1233.142, 16.18519
1233.624, 16.22866
1234.106, 16.30176
1234.589, 16.44879
1235.071, 16.44845
1235.553, 16.26438
1236.035, 16.10293
1236.517, 16.14254
1236.999, 16.27617
1237.481, 16.41293
1237.963, 16.54166
1238.445, 16.64570
1238.928, 16.73911
1239.410, 16.76257
1239.892, 16.71208
1240.374, 16.60900
1240.856, 16.39866
1241.338, 16.20940
1241.820, 16.16607
1242.302, 16.23007
1242.785, 16.32970
1243.267, 16.49453
1243.749, 16.49854
1244.231, 16.32659
1244.713, 16.15837
1245.195, 16.08719
1245.677, 16.10645
1246.159, 16.29871
1246.641, 16.54307
1247.124, 16.60794
1247.606, 16.46997
1248.088, 16.45384
1248.570, 16.57018
1249.052, 16.62487
1249.534, 16.38752
1250.016, 16.15808
1250.498, 16.17461
1250.980, 16.27300
1251.463, 16.20819
1251.945, 15.98460
1252.427, 15.94158
1252.909, 16.07408
1253.391, 16.16806
1253.873, 15.95056
1254.355, 15.84025
1254.837, 16.15382
1255.320, 16.55094
1255.802, 16.62926
1256.284, 16.44269
1256.766, 16.29946
1257.248, 16.21519
1257.730, 16.19683
1258.212, 16.30617
1258.694, 16.40522
1259.177, 16.45760
1259.659, 16.48590
1260.141, 16.51131
1260.623, 16.53178
1261.105, 16.53275
1261.587, 16.52008
1262.069, 16.52269
1262.551, 16.60533
1263.033, 16.60829
1263.516, 16.45892
1263.998, 16.34288
1264.480, 16.57655
1264.962, 16.91399
1265.444, 16.68575
1265.926, 16.08272
1266.408, 15.85028
1266.890, 16.56707
1267.372, 16.93714
1267.855, 16.82437
1268.337, 16.58906
1268.819, 16.51664
1269.301, 16.53080
1269.783, 16.54672
1270.265, 16.55990
1270.747, 16.56581
1271.229, 16.56633
1271.712, 16.53908
1272.194, 16.47215
1272.676, 16.46091
1273.158, 16.67315
1273.640, 16.88803
1274.122, 16.86732
1274.604, 16.70894
1275.086, 16.61115
1275.568, 16.58620
1276.051, 16.54783
1276.533, 16.49305
1277.015, 16.52485
1277.497, 16.85320
1277.979, 17.13146
1278.461, 17.10061
1278.943, 16.92465
1279.425, 16.78771
1279.907, 16.68958
1280.390, 16.68989
1280.872, 16.77709
1281.354, 16.85093
1281.836, 16.83726
1282.318, 16.82621
1282.800, 16.86050
1283.282, 16.89749
1283.764, 16.90741
1284.247, 16.88857
1284.729, 16.81123
1285.211, 16.69485
1285.693, 16.61363
1286.175, 16.59729
1286.657, 16.62961
1287.139, 16.74053
1287.621, 16.82441
1288.104, 16.78451
1288.586, 16.66976
1289.068, 16.54060
1289.550, 16.42618
1290.032, 16.39491
1290.514, 16.53619
1290.996, 16.62225
1291.478, 16.64141
1291.960, 16.65353
1292.443, 16.66298
1292.925, 16.72203
1293.407, 17.02544
1293.889, 17.37035
1294.371, 17.36991
1294.853, 16.92890
1295.335, 16.66728
1295.817, 16.58656
1296.299, 16.56780
1296.782, 16.56381
1297.264, 16.57742
1297.746, 16.62486
1298.228, 16.68027
1298.710, 16.71396
1299.192, 16.72914
1299.674, 16.81030
1300.156, 16.93304
1300.639, 16.92771
1301.121, 16.64426
1301.603, 16.41096
1302.085, 16.40948
1302.567, 16.48133
1303.049, 16.55847
1303.531, 16.63752
##END=



