##NAMES=Petarasite
##RRUFFID=R060223
##IDEAL CHEMISTRY=Na_5_Zr^4+^_2_Si_6_O_18_(Cl,OH)&#183;2H_2_O
##LOCALITY=Demix Quarry, Mont Saint-Hilaire, Rouville County, Quebec, Canada
##OWNER=RRUFF
##SOURCE=Royal Ontario Museum
##DESCRIPTION=Tan colored cleavage fragment associated with catapleiite
##STATUS=The identification of this mineral is confirmed by single-crystal X-ray diffraction and chemical analysis.
##URL=rruff.info/R060223
##MEASURED CHEMISTRY=(Na_4.82_[box]_0.09_Ca_0.06_Mn_0.02_)_Σ=5_Zr_2.00_Si_6.00_O_18_(Cl_0.63_(OH)_0.37_)_Σ=1_·2H_2_O
92.07813, 20.50031
92.56024, 20.83533
93.04236, 20.59774
93.52448, 19.93116
94.00659, 19.36679
94.48871, 19.32338
94.97083, 19.61496
95.45294, 19.72839
95.93506, 19.56987
96.41718, 19.28689
96.89929, 19.14118
97.38141, 19.13591
97.86353, 19.13181
98.34564, 18.93411
98.82776, 18.56534
99.30988, 18.49639
99.79199, 18.90032
100.2741, 19.62502
100.7562, 20.11814
101.2383, 20.36288
101.7205, 20.42299
102.2026, 20.28021
102.6847, 19.83376
103.1668, 19.59075
103.6489, 19.73752
104.1310, 20.28653
104.6132, 20.58196
105.0953, 20.51239
105.5774, 20.29137
106.0595, 20.01758
106.5416, 18.73880
107.0237, 18.91838
107.5059, 21.96360
107.9880, 30.02736
108.4701, 34.12150
108.9522, 31.82564
109.4343, 26.04183
109.9164, 21.98705
110.3986, 20.86682
110.8807, 20.53503
111.3628, 20.37538
111.8449, 20.51530
112.3270, 20.60964
112.8091, 20.50479
113.2913, 20.32087
113.7734, 20.39152
114.2555, 20.93075
114.7376, 21.63559
115.2197, 22.33175
115.7018, 22.69129
116.1840, 23.38080
116.6661, 24.74801
117.1482, 26.67204
117.6303, 28.51667
118.1124, 30.05433
118.5945, 31.43115
119.0767, 32.76124
119.5588, 33.47612
120.0409, 34.66011
120.5230, 37.09438
121.0051, 40.71485
121.4872, 44.47879
121.9694, 47.33864
122.4515, 50.00841
122.9336, 53.49361
123.4157, 58.41216
123.8978, 64.17651
124.3799, 70.12916
124.8621, 76.20143
125.3442, 83.03062
125.8263, 91.43454
126.3084, 101.0554
126.7905, 111.0613
127.2726, 121.3931
127.7548, 131.6814
128.2369, 141.2469
128.7190, 150.0105
129.2011, 158.1621
129.6832, 166.0924
130.1653, 173.6573
130.6474, 180.4354
131.1296, 185.8870
131.6117, 190.2495
132.0938, 194.3921
132.5759, 198.1820
133.0580, 202.2026
133.5401, 207.5205
134.0223, 214.1693
134.5044, 221.5484
134.9865, 229.1698
135.4686, 237.1252
135.9507, 245.9748
136.4328, 256.1428
136.9150, 267.2420
137.3971, 277.7065
137.8792, 287.4520
138.3613, 297.1097
138.8434, 307.4083
139.3255, 318.4995
139.8077, 328.9998
140.2898, 338.7939
140.7719, 347.8076
141.2540, 356.1075
141.7361, 363.4161
142.2182, 370.3175
142.7004, 377.2530
143.1825, 383.9334
143.6646, 391.2389
144.1467, 399.1676
144.6288, 407.8165
145.1109, 417.4606
145.5931, 429.8156
146.0752, 441.8661
146.5573, 449.8641
147.0394, 449.9904
147.5215, 451.4837
148.0036, 456.6227
148.4858, 466.2565
148.9679, 476.4615
149.4500, 486.9120
149.9321, 498.0699
150.4142, 510.3885
150.8963, 524.9199
151.3785, 539.8583
151.8606, 554.4726
152.3427, 568.6316
152.8248, 583.3571
153.3069, 598.7748
153.7890, 614.8185
154.2712, 629.3973
154.7533, 641.2011
155.2354, 651.6971
155.7175, 660.6255
156.1996, 668.5141
156.6817, 673.5433
157.1639, 674.6043
157.6460, 672.7460
158.1281, 670.1273
158.6102, 668.6017
159.0923, 665.4870
159.5744, 659.3629
160.0566, 649.1371
160.5387, 637.5623
161.0208, 625.1090
161.5029, 611.9103
161.9850, 598.3315
162.4671, 584.0674
162.9493, 569.7311
163.4314, 555.7493
163.9135, 542.4326
164.3956, 529.1744
164.8777, 514.8890
165.3598, 500.0546
165.8420, 486.7311
166.3241, 476.7192
166.8062, 468.2203
167.2883, 459.6457
167.7704, 450.3885
168.2525, 441.0582
168.7346, 431.6319
169.2168, 422.2026
169.6989, 413.4430
170.1810, 405.7633
170.6631, 398.9573
171.1452, 392.7755
171.6273, 387.6723
172.1095, 382.8112
172.5916, 377.2207
173.0737, 370.9926
173.5558, 365.2020
174.0379, 360.7995
174.5201, 357.3358
175.0022, 354.0135
175.4843, 350.6987
175.9664, 347.2659
176.4485, 343.5338
176.9306, 339.4774
177.4128, 335.5553
177.8949, 332.2700
178.3770, 329.4289
178.8591, 326.5309
179.3412, 323.0702
179.8233, 319.5297
180.3055, 316.8055
180.7876, 314.9117
181.2697, 313.1607
181.7518, 310.8171
182.2339, 308.0382
182.7160, 305.2413
183.1982, 302.4456
183.6803, 299.7970
184.1624, 297.7176
184.6445, 296.2652
185.1266, 295.0756
185.6087, 293.6513
186.0909, 292.0707
186.5730, 290.8267
187.0551, 290.4414
187.5372, 290.5884
188.0193, 290.0675
188.5014, 288.7678
188.9836, 287.2125
189.4657, 285.8193
189.9478, 284.6227
190.4299, 283.9373
190.9120, 284.2449
191.3941, 285.3084
191.8763, 285.8182
192.3584, 285.6761
192.8405, 285.1961
193.3226, 284.8106
193.8047, 284.5227
194.2868, 284.1391
194.7690, 283.3047
195.2511, 282.1101
195.7332, 281.8086
196.2153, 282.5574
196.6974, 283.9100
197.1795, 285.2054
197.6617, 286.4625
198.1438, 287.5661
198.6259, 288.3072
199.1080, 288.6851
199.5901, 289.5245
200.0722, 290.8838
200.5544, 292.6416
201.0365, 294.6281
201.5186, 296.8876
202.0007, 299.1360
202.4828, 301.2751
202.9649, 303.3089
203.4471, 305.1224
203.9292, 306.6918
204.4113, 308.0858
204.8934, 309.3365
205.3755, 310.3002
205.8576, 311.6285
206.3398, 313.7393
206.8219, 316.7667
207.3040, 319.6897
207.7861, 322.4985
208.2682, 325.1565
208.7503, 327.4849
209.2325, 329.3250
209.7146, 331.2758
210.1967, 333.7320
210.6788, 336.9024
211.1609, 339.4309
211.6430, 340.7958
212.1252, 341.9073
212.6073, 345.0536
213.0894, 351.0008
213.5715, 356.9396
214.0536, 361.4196
214.5357, 363.8564
215.0179, 367.0693
215.5000, 371.1801
215.9821, 376.0203
216.4642, 381.1594
216.9463, 386.3151
217.4284, 392.2780
217.9105, 400.0898
218.3927, 411.2566
218.8748, 418.8145
219.3569, 421.5483
219.8390, 421.3388
220.3211, 422.3889
220.8032, 425.2772
221.2854, 428.3537
221.7675, 431.0069
222.2496, 433.0996
222.7317, 435.0923
223.2138, 436.9139
223.6959, 438.6630
224.1781, 440.6207
224.6602, 442.8593
225.1423, 445.1542
225.6244, 447.3055
226.1065, 449.1353
226.5886, 451.4678
227.0708, 454.5585
227.5529, 458.0428
228.0350, 461.2376
228.5171, 464.3082
228.9992, 466.8734
229.4813, 468.8151
229.9635, 470.1505
230.4456, 470.7964
230.9277, 470.6081
231.4098, 469.8093
231.8919, 468.8061
232.3740, 467.6597
232.8562, 466.2308
233.3383, 464.4972
233.8204, 462.5157
234.3025, 460.0646
234.7846, 457.1875
235.2667, 453.8204
235.7489, 449.7841
236.2310, 444.4335
236.7131, 439.4977
237.1952, 435.7367
237.6773, 433.8643
238.1594, 430.6587
238.6416, 425.2681
239.1237, 419.0670
239.6058, 414.3261
240.0879, 411.6585
240.5700, 409.3687
241.0521, 406.7812
241.5343, 403.5785
242.0164, 401.6745
242.4985, 401.8207
242.9806, 402.7432
243.4627, 402.5058
243.9448, 400.3096
244.4270, 398.2905
244.9091, 397.0140
245.3912, 396.5473
245.8733, 396.4202
246.3554, 396.6143
246.8375, 397.1453
247.3197, 398.0879
247.8018, 399.6967
248.2839, 401.2497
248.7660, 402.5218
249.2481, 403.4601
249.7302, 404.5776
250.2124, 405.8189
250.6945, 407.3081
251.1766, 409.2389
251.6587, 411.7935
252.1408, 414.4743
252.6229, 417.3579
253.1051, 420.5369
253.5872, 422.7372
254.0693, 423.4727
254.5514, 423.8223
255.0335, 425.0356
255.5156, 427.8343
255.9978, 429.8859
256.4799, 430.6979
256.9620, 430.2706
257.4441, 429.3235
257.9262, 427.7918
258.4083, 425.8180
258.8904, 423.5670
259.3726, 421.0804
259.8547, 418.1435
260.3368, 414.6144
260.8189, 410.5305
261.3010, 406.6997
261.7831, 403.2837
262.2653, 399.8769
262.7474, 396.2186
263.2295, 392.2307
263.7116, 388.0787
264.1937, 383.4743
264.6758, 378.6871
265.1580, 375.0854
265.6401, 373.0250
266.1222, 371.5379
266.6043, 370.0581
267.0864, 368.6366
267.5685, 366.9290
268.0507, 364.5983
268.5328, 362.0177
269.0149, 360.6676
269.4970, 360.8912
269.9791, 361.5028
270.4612, 361.7180
270.9434, 361.3270
271.4255, 361.5651
271.9076, 362.6180
272.3897, 364.2744
272.8718, 365.9538
273.3539, 367.5503
273.8361, 369.4963
274.3182, 372.0568
274.8003, 375.2661
275.2824, 378.6854
275.7645, 382.2655
276.2466, 386.0485
276.7288, 390.1588
277.2109, 394.6164
277.6930, 399.2292
278.1751, 403.6731
278.6572, 407.9203
279.1393, 413.0293
279.6215, 419.1719
280.1036, 425.8548
280.5857, 432.0756
281.0678, 437.6616
281.5499, 444.2943
282.0320, 453.0185
282.5142, 463.6513
282.9963, 472.9536
283.4784, 480.5917
283.9605, 487.9337
284.4426, 496.5948
284.9247, 506.5853
285.4069, 517.3742
285.8890, 529.1874
286.3711, 541.6414
286.8532, 553.4114
287.3353, 564.4681
287.8174, 575.0421
288.2996, 585.2575
288.7817, 595.1453
289.2638, 604.5584
289.7459, 613.6379
290.2280, 622.1122
290.7101, 629.2551
291.1923, 635.0412
291.6744, 640.3637
292.1565, 646.4395
292.6386, 652.9288
293.1207, 658.0101
293.6028, 660.9872
294.0850, 662.7117
294.5671, 664.7070
295.0492, 666.9662
295.5313, 669.5023
296.0134, 672.6989
296.4955, 676.1894
296.9777, 678.9589
297.4598, 680.9020
297.9419, 681.8762
298.4240, 681.7669
298.9061, 680.5456
299.3882, 678.0045
299.8704, 674.7109
300.3525, 669.9218
300.8346, 661.8381
301.3167, 650.0491
301.7988, 636.1918
302.2809, 621.0938
302.7631, 605.1975
303.2452, 589.2969
303.7273, 573.7685
304.2094, 558.6020
304.6915, 544.0869
305.1736, 530.1089
305.6558, 516.6701
306.1379, 503.3547
306.6200, 490.5537
307.1021, 479.0541
307.5842, 469.5745
308.0663, 461.1982
308.5485, 452.7718
309.0306, 444.3500
309.5127, 436.7909
309.9948, 431.0634
310.4769, 426.4311
310.9590, 421.9617
311.4412, 416.8481
311.9233, 412.2206
312.4054, 408.9322
312.8875, 406.8315
313.3696, 405.2939
313.8517, 404.3989
314.3339, 403.7163
314.8160, 402.8513
315.2981, 401.5657
315.7802, 400.3390
316.2623, 399.1649
316.7444, 398.2145
317.2266, 397.9235
317.7087, 399.2792
318.1908, 400.8222
318.6729, 401.5844
319.1550, 401.1162
319.6371, 400.6806
320.1193, 400.6617
320.6014, 400.9495
321.0835, 401.3682
321.5656, 402.2820
322.0477, 402.9497
322.5298, 402.9071
323.0120, 401.9202
323.4941, 401.2718
323.9762, 401.7690
324.4583, 402.5252
324.9404, 402.5826
325.4225, 401.1676
325.9047, 399.6586
326.3868, 398.3549
326.8689, 397.2581
327.3510, 396.3417
327.8331, 395.8392
328.3152, 395.3900
328.7974, 394.7484
329.2795, 394.5934
329.7616, 393.4261
330.2437, 390.8568
330.7258, 387.0995
331.2079, 383.2209
331.6901, 379.0240
332.1722, 374.8928
332.6543, 370.9945
333.1364, 367.4249
333.6185, 363.9525
334.1006, 360.5530
334.5828, 357.2575
335.0649, 354.2418
335.5470, 351.5363
336.0291, 349.0070
336.5112, 346.7144
336.9933, 344.7679
337.4755, 342.3832
337.9576, 339.3707
338.4397, 336.1784
338.9218, 333.3333
339.4039, 330.8636
339.8860, 328.7541
340.3681, 327.1609
340.8503, 326.0134
341.3324, 324.5175
341.8145, 322.6114
342.2966, 320.4879
342.7787, 318.0653
343.2608, 315.3218
343.7430, 313.2504
344.2251, 312.3167
344.7072, 312.0075
345.1893, 310.6712
345.6714, 308.2019
346.1535, 305.8765
346.6357, 304.8185
347.1178, 304.7944
347.5999, 304.3833
348.0820, 303.3730
348.5641, 302.0415
349.0462, 300.6943
349.5284, 299.3524
350.0105, 298.1354
350.4926, 297.0392
350.9747, 296.1198
351.4568, 295.6442
351.9389, 295.6782
352.4211, 295.6374
352.9032, 294.7347
353.3853, 293.2836
353.8674, 292.0410
354.3495, 291.3711
354.8316, 291.0230
355.3138, 290.7348
355.7959, 290.5108
356.2780, 290.3821
356.7601, 290.4415
357.2422, 290.5874
357.7243, 290.6625
358.2065, 290.4742
358.6886, 290.4367
359.1707, 291.0259
359.6528, 292.0357
360.1349, 292.8443
360.6170, 292.8798
361.0992, 292.7726
361.5813, 292.9438
362.0634, 293.4575
362.5455, 294.2343
363.0276, 295.2938
363.5097, 296.5819
363.9919, 298.0192
364.4740, 300.0168
364.9561, 301.7625
365.4382, 302.7870
365.9203, 302.9981
366.4024, 303.4506
366.8846, 304.4413
367.3667, 305.7115
367.8488, 307.0521
368.3309, 308.1839
368.8130, 309.6772
369.2951, 311.8454
369.7773, 314.5721
370.2594, 316.9579
370.7415, 318.7839
371.2236, 320.4964
371.7057, 322.2901
372.1878, 324.0655
372.6700, 326.1279
373.1521, 328.4703
373.6342, 331.0862
374.1163, 334.0334
374.5984, 337.5970
375.0805, 340.8638
375.5627, 343.3710
376.0448, 345.0016
376.5269, 347.4911
377.0090, 351.1237
377.4911, 355.1451
377.9732, 358.7819
378.4554, 361.9392
378.9375, 365.1763
379.4196, 368.6407
379.9017, 372.2690
380.3838, 376.1570
380.8659, 380.3637
381.3481, 384.1315
381.8302, 386.3720
382.3123, 387.3931
382.7944, 389.6533
383.2765, 393.7813
383.7586, 398.3531
384.2408, 401.2081
384.7229, 402.5256
385.2050, 403.5580
385.6871, 404.9739
386.1692, 406.5036
386.6513, 407.6947
387.1335, 408.5230
387.6156, 409.0765
388.0977, 409.3577
388.5798, 409.4153
389.0619, 409.3551
389.5440, 409.3709
390.0262, 409.1093
390.5083, 408.0381
390.9904, 406.3072
391.4725, 404.6786
391.9546, 403.8631
392.4367, 403.1941
392.9189, 401.9882
393.4010, 399.8289
393.8831, 397.8779
394.3652, 396.9247
394.8473, 396.5372
395.3294, 395.9980
395.8116, 394.7758
396.2937, 393.6254
396.7758, 392.8905
397.2579, 392.6285
397.7400, 392.4243
398.2221, 392.2421
398.7043, 392.0626
399.1864, 391.8698
399.6685, 391.5873
400.1506, 391.3756
400.6327, 391.2114
401.1148, 391.1155
401.5970, 391.1726
402.0791, 391.1270
402.5612, 391.5276
403.0433, 392.7448
403.5254, 395.3145
404.0075, 397.2189
404.4897, 398.3727
404.9718, 398.9516
405.4539, 399.1520
405.9360, 398.8710
406.4181, 398.5197
406.9002, 397.9906
407.3824, 397.4058
407.8645, 398.1191
408.3466, 400.4024
408.8287, 402.9380
409.3108, 404.4044
409.7929, 404.8573
410.2751, 405.8777
410.7572, 407.9315
411.2393, 410.2856
411.7214, 411.3185
412.2035, 411.1744
412.6856, 411.1914
413.1678, 412.4822
413.6499, 414.4213
414.1320, 415.6435
414.6141, 416.0693
415.0962, 416.1252
415.5783, 416.1653
416.0605, 416.1412
416.5426, 415.9638
417.0247, 415.7115
417.5068, 415.1999
417.9889, 414.2755
418.4710, 412.9596
418.9532, 411.3075
419.4353, 409.1343
419.9174, 406.7682
420.3995, 404.5643
420.8816, 402.7540
421.3637, 400.5721
421.8459, 397.3247
422.3280, 393.6006
422.8101, 390.2526
423.2922, 387.8475
423.7743, 385.5356
424.2564, 382.9986
424.7386, 380.2022
425.2207, 377.7102
425.7028, 375.5195
426.1849, 373.7174
426.6670, 372.3158
427.1491, 370.6396
427.6313, 370.5468
428.1134, 373.1891
428.5955, 377.2813
429.0776, 379.1704
429.5597, 377.8605
430.0418, 376.3716
430.5240, 375.8777
431.0061, 376.4595
431.4882, 376.7990
431.9703, 376.6063
432.4524, 376.8048
432.9345, 378.7819
433.4167, 382.5821
433.8988, 385.8627
434.3809, 387.6458
434.8630, 388.8709
435.3451, 392.0479
435.8272, 397.1212
436.3094, 402.4737
436.7915, 406.7970
437.2736, 410.6324
437.7557, 415.1200
438.2378, 420.3528
438.7199, 426.4223
439.2020, 434.2794
439.6841, 443.0107
440.1663, 450.7428
440.6484, 455.8218
441.1305, 460.2486
441.6126, 465.7242
442.0947, 472.0768
442.5768, 478.1183
443.0590, 483.6615
443.5411, 488.3789
444.0232, 491.9380
444.5053, 493.9618
444.9874, 495.5201
445.4695, 497.2951
445.9517, 498.7381
446.4338, 498.9806
446.9159, 497.5537
447.3980, 495.2039
447.8801, 491.9463
448.3622, 487.7212
448.8444, 483.4401
449.3265, 479.1302
449.8086, 474.7298
450.2907, 470.1201
450.7728, 464.8102
451.2549, 460.3720
451.7371, 457.2021
452.2192, 454.7997
452.7013, 452.0068
453.1834, 448.6496
453.6655, 445.6514
454.1476, 443.5363
454.6298, 442.2165
455.1119, 440.4887
455.5940, 438.2546
456.0761, 436.1971
456.5582, 435.2501
457.0403, 435.1816
457.5225, 434.7242
458.0046, 433.5036
458.4867, 432.0172
458.9688, 430.9310
459.4509, 430.2088
459.9330, 429.7557
460.4152, 429.7298
460.8973, 429.8297
461.3794, 429.5951
461.8615, 428.9895
462.3436, 428.5768
462.8257, 429.0797
463.3079, 429.8392
463.7900, 430.1068
464.2721, 429.3391
464.7542, 428.4471
465.2363, 427.7655
465.7184, 427.2389
466.2006, 426.7064
466.6827, 425.9640
467.1648, 425.3551
467.6469, 425.2060
468.1290, 425.8721
468.6111, 425.6253
469.0933, 423.5337
469.5754, 421.1269
470.0575, 419.8102
470.5396, 420.4127
471.0217, 420.4118
471.5038, 419.3088
471.9860, 417.4526
472.4681, 415.9672
472.9502, 414.8507
473.4323, 414.1072
473.9144, 413.9072
474.3965, 414.2198
474.8787, 414.1190
475.3608, 413.5264
475.8429, 412.8730
476.3250, 412.5577
476.8071, 412.5775
477.2892, 412.9591
477.7714, 413.7977
478.2535, 414.8586
478.7356, 415.6493
479.2177, 416.3081
479.6998, 417.4035
480.1819, 419.3094
480.6641, 421.8155
481.1462, 424.6374
481.6283, 427.7509
482.1104, 431.4392
482.5925, 436.1611
483.0746, 441.4253
483.5568, 446.7455
484.0389, 451.0486
484.5210, 456.3439
485.0031, 463.7104
485.4852, 472.5397
485.9673, 481.1782
486.4495, 488.3347
486.9316, 496.1388
487.4137, 505.2454
487.8958, 515.7679
488.3779, 527.2027
488.8600, 539.9241
489.3422, 553.2443
489.8243, 566.7198
490.3064, 580.0928
490.7885, 593.9456
491.2706, 608.1494
491.7527, 623.0092
492.2349, 639.9802
492.7170, 659.0436
493.1991, 678.7616
493.6812, 697.7561
494.1633, 716.5367
494.6454, 737.9646
495.1276, 761.9395
495.6097, 787.1486
496.0918, 812.7874
496.5739, 838.6832
497.0560, 863.2601
497.5381, 886.1926
498.0203, 908.6882
498.5024, 933.5552
498.9845, 958.9519
499.4666, 981.4415
499.9487, 1000.527
500.4308, 1015.065
500.9130, 1024.398
501.3951, 1028.487
501.8772, 1027.833
502.3593, 1022.522
502.8414, 1012.540
503.3235, 997.7214
503.8057, 976.4940
504.2878, 952.6212
504.7699, 925.4739
505.2520, 896.0847
505.7341, 865.8732
506.2162, 833.7562
506.6984, 803.0591
507.1805, 774.9437
507.6626, 749.2362
508.1447, 724.2640
508.6268, 699.8633
509.1089, 676.7908
509.5911, 655.4393
510.0732, 635.8303
510.5553, 618.4607
511.0374, 603.6183
511.5195, 590.0483
512.0016, 576.1327
512.4838, 562.0939
512.9659, 549.0187
513.4480, 537.2529
513.9301, 526.3271
514.4122, 515.7027
514.8943, 505.4126
515.3765, 495.5873
515.8586, 486.3275
516.3407, 477.5054
516.8228, 469.0973
517.3049, 461.0215
517.7870, 453.4584
518.2692, 446.2320
518.7513, 439.7266
519.2334, 434.3464
519.7155, 431.5768
520.1976, 428.1922
520.6797, 423.2725
521.1619, 417.5505
521.6440, 413.2022
522.1261, 410.8195
522.6082, 408.8353
523.0903, 406.6630
523.5724, 404.2902
524.0546, 402.6485
524.5367, 401.9333
525.0188, 401.3882
525.5009, 400.6237
525.9830, 399.5683
526.4651, 397.1730
526.9473, 392.8671
527.4294, 388.3046
527.9115, 386.0900
528.3936, 385.7228
528.8757, 385.5179
529.3578, 384.4507
529.8400, 383.3354
530.3221, 383.2018
530.8042, 383.8997
531.2863, 384.4702
531.7684, 383.9998
532.2505, 383.4299
532.7327, 383.5755
533.2148, 384.8432
533.6969, 385.8377
534.1790, 386.0821
534.6611, 385.9057
535.1432, 385.6680
535.6254, 384.9560
536.1075, 384.7765
536.5896, 385.4470
537.0717, 386.7246
537.5538, 387.8017
538.0359, 388.8288
538.5181, 389.3203
539.0002, 388.7718
539.4823, 387.2281
539.9644, 386.8587
540.4465, 387.8135
540.9286, 389.1896
541.4108, 390.5663
541.8929, 391.7524
542.3750, 391.6720
542.8571, 389.8537
543.3392, 387.5732
543.8214, 386.2262
544.3035, 385.6015
544.7856, 385.1328
545.2677, 384.7599
545.7498, 384.2955
546.2319, 383.6092
546.7141, 382.7106
547.1962, 381.6693
547.6783, 380.4668
548.1604, 379.1700
548.6425, 377.7516
549.1246, 376.1175
549.6068, 374.6712
550.0889, 373.4530
550.5710, 372.4312
551.0531, 371.5882
551.5352, 370.9678
552.0173, 370.4410
552.4995, 370.0351
552.9816, 369.6936
553.4637, 369.2582
553.9458, 368.7076
554.4279, 368.2213
554.9100, 367.8925
555.3922, 367.6904
555.8743, 367.4837
556.3564, 367.2755
556.8385, 367.1133
557.3206, 366.9464
557.8027, 366.8761
558.2849, 367.1536
558.7670, 367.8992
559.2491, 368.5903
559.7312, 368.7497
560.2133, 368.6255
560.6954, 368.5535
561.1776, 368.3530
561.6597, 368.5289
562.1418, 369.3690
562.6239, 370.7487
563.1060, 372.1941
563.5881, 373.5711
564.0703, 375.0833
564.5524, 376.7646
565.0345, 378.5840
565.5166, 380.8525
565.9987, 383.8646
566.4808, 386.8338
566.9630, 388.8077
567.4451, 389.5912
567.9272, 392.2846
568.4093, 397.6704
568.8914, 403.6255
569.3735, 406.9355
569.8557, 408.0778
570.3378, 409.4517
570.8199, 411.7245
571.3020, 414.8064
571.7841, 418.8623
572.2662, 423.6828
572.7484, 428.4771
573.2305, 432.4620
573.7126, 436.5705
574.1947, 441.7890
574.6768, 448.2206
575.1589, 454.1676
575.6411, 457.8228
576.1232, 461.5072
576.6053, 466.8375
577.0874, 475.0851
577.5695, 483.0961
578.0516, 490.8676
578.5338, 498.3123
579.0159, 505.4677
579.4980, 512.2988
579.9801, 518.5791
580.4622, 524.1843
580.9443, 529.2567
581.4265, 534.3206
581.9086, 539.3757
582.3907, 543.3005
582.8728, 545.5372
583.3549, 546.1945
583.8370, 545.5042
584.3192, 543.4803
584.8013, 540.3566
585.2834, 536.2624
585.7655, 531.1499
586.2476, 524.8464
586.7297, 517.0335
587.2118, 508.7876
587.6939, 500.5225
588.1760, 492.0301
588.6581, 483.0457
589.1403, 471.9557
589.6224, 462.2601
590.1045, 454.9903
590.5866, 449.4507
591.0687, 443.2527
591.5508, 436.0252
592.0330, 429.1107
592.5151, 423.0131
592.9972, 417.6988
593.4793, 412.6874
593.9614, 407.9291
594.4435, 403.8682
594.9257, 401.3316
595.4078, 399.8069
595.8899, 397.5290
596.3720, 394.2297
596.8541, 390.8878
597.3362, 388.4890
597.8184, 386.6396
598.3005, 384.7141
598.7826, 382.3390
599.2647, 380.1494
599.7468, 378.4523
600.2289, 377.1581
600.7111, 376.0653
601.1932, 375.0917
601.6753, 374.3685
602.1574, 374.0836
602.6395, 374.1781
603.1216, 373.8329
603.6038, 372.8116
604.0859, 371.7573
604.5680, 370.9750
605.0501, 370.4663
605.5322, 370.1532
606.0143, 370.0594
606.4965, 370.0302
606.9786, 370.0457
607.4607, 370.0106
607.9428, 369.4860
608.4249, 368.1932
608.9070, 366.9895
609.3892, 366.8669
609.8713, 367.4473
610.3534, 368.0205
610.8355, 368.3932
611.3176, 368.5887
611.7997, 368.4968
612.2819, 368.2115
612.7640, 368.0764
613.2461, 368.6515
613.7282, 368.8848
614.2103, 368.1629
614.6924, 366.4011
615.1746, 365.7287
615.6567, 366.5678
616.1388, 367.7014
616.6209, 368.2989
617.1030, 368.3382
617.5851, 368.5263
618.0673, 368.9402
618.5494, 369.3218
619.0315, 368.9063
619.5136, 368.1822
619.9957, 368.7821
620.4778, 371.8387
620.9600, 374.8593
621.4421, 375.0934
621.9242, 373.5855
622.4063, 372.4674
622.8884, 373.0303
623.3705, 373.6871
623.8527, 373.5401
624.3348, 372.7717
624.8169, 372.7877
625.2990, 374.5197
625.7811, 376.2036
626.2632, 377.1743
626.7454, 377.3803
627.2275, 377.7342
627.7096, 378.3519
628.1917, 378.8198
628.6738, 378.5939
629.1559, 377.7807
629.6381, 377.6161
630.1202, 378.2711
630.6023, 379.2940
631.0844, 380.4841
631.5665, 381.6412
632.0486, 382.2601
632.5308, 381.7771
633.0129, 381.4424
633.4950, 382.3145
633.9771, 383.9299
634.4592, 385.4132
634.9413, 386.4140
635.4235, 387.3153
635.9056, 388.1968
636.3877, 389.0646
636.8698, 389.9520
637.3519, 390.7692
637.8340, 391.7346
638.3162, 393.0251
638.7983, 394.6337
639.2804, 395.7086
639.7625, 396.1636
640.2446, 396.5958
640.7267, 397.5846
641.2089, 398.9542
641.6910, 400.0509
642.1731, 400.7799
642.6552, 401.5102
643.1373, 402.6493
643.6194, 403.9668
644.1016, 405.1300
644.5837, 405.8757
645.0658, 406.7554
645.5479, 407.8545
646.0300, 409.2646
646.5121, 411.1046
646.9943, 414.0323
647.4764, 416.6441
647.9585, 418.7194
648.4406, 420.3461
648.9227, 421.8150
649.4048, 422.9796
649.8870, 424.4815
650.3691, 426.6842
650.8512, 429.4247
651.3333, 432.2514
651.8154, 435.1411
652.2975, 437.7366
652.7797, 439.3988
653.2618, 440.7857
653.7439, 442.9201
654.2260, 445.8881
654.7081, 449.1912
655.1902, 452.6647
655.6724, 456.2225
656.1545, 459.8655
656.6366, 463.7622
657.1187, 467.3652
657.6008, 469.8593
658.0829, 472.4161
658.5651, 476.4490
659.0472, 482.6964
659.5293, 488.3722
660.0114, 493.0063
660.4935, 497.0294
660.9756, 501.2253
661.4578, 505.5609
661.9399, 510.1178
662.4220, 515.0642
662.9041, 520.0785
663.3862, 524.8336
663.8683, 529.2872
664.3505, 533.3765
664.8326, 537.2820
665.3147, 540.5844
665.7968, 542.8896
666.2789, 544.2179
666.7610, 545.1568
667.2432, 546.0792
667.7253, 546.4484
668.2074, 546.0231
668.6895, 544.7309
669.1716, 542.9427
669.6537, 540.5740
670.1359, 537.8517
670.6180, 535.1940
671.1001, 532.5788
671.5822, 528.5382
672.0643, 522.7846
672.5464, 516.2962
673.0286, 509.8403
673.5107, 503.6390
673.9928, 498.1787
674.4749, 494.0024
674.9570, 489.7738
675.4391, 484.0317
675.9213, 477.7757
676.4034, 472.6560
676.8855, 470.5765
677.3676, 468.1930
677.8497, 464.2682
678.3318, 459.5354
678.8140, 456.0184
679.2961, 454.0796
679.7782, 452.5255
680.2603, 451.1165
680.7424, 449.7571
681.2245, 447.6340
681.7067, 444.7315
682.1888, 442.2659
682.6709, 441.2792
683.1530, 441.1080
683.6351, 440.6830
684.1172, 439.9780
684.5994, 439.1572
685.0815, 438.2019
685.5636, 437.2689
686.0457, 436.4442
686.5278, 435.7230
687.0099, 435.2194
687.4921, 434.9810
687.9742, 434.9621
688.4563, 435.1427
688.9384, 435.5326
689.4205, 436.1327
689.9026, 437.0642
690.3848, 437.9689
690.8669, 438.3022
691.3490, 438.1269
691.8311, 437.9391
692.3132, 437.7900
692.7953, 437.8108
693.2775, 438.1169
693.7596, 438.7140
694.2417, 439.6152
694.7238, 441.5780
695.2059, 443.0638
695.6880, 442.8813
696.1702, 441.6754
696.6523, 441.2552
697.1344, 442.4620
697.6165, 443.7786
698.0986, 444.9527
698.5807, 445.9865
699.0629, 446.8995
699.5450, 447.7281
700.0271, 448.3013
700.5092, 448.2008
700.9913, 447.8244
701.4734, 448.7469
701.9556, 450.8858
702.4377, 453.0993
702.9198, 454.6017
703.4019, 455.7556
703.8840, 456.8669
704.3661, 457.9647
704.8483, 459.1932
705.3304, 460.5540
705.8125, 462.1037
706.2946, 463.8708
706.7767, 465.7960
707.2589, 468.1212
707.7410, 470.9067
708.2231, 473.9784
708.7052, 477.3096
709.1873, 480.9119
709.6694, 484.1323
710.1516, 486.7817
710.6337, 489.5761
711.1158, 493.3475
711.5979, 497.9574
712.0800, 503.1402
712.5621, 509.2783
713.0443, 515.0401
713.5264, 518.7037
714.0085, 521.6441
714.4906, 525.9961
714.9727, 533.8764
715.4548, 541.2084
715.9370, 547.3577
716.4191, 552.6204
716.9012, 557.7255
717.3833, 562.5729
717.8654, 567.4602
718.3475, 572.4412
718.8297, 577.5509
719.3118, 583.3105
719.7939, 589.5058
720.2760, 594.8710
720.7581, 598.2200
721.2402, 600.6907
721.7224, 603.5109
722.2045, 606.5179
722.6866, 608.9516
723.1687, 610.8884
723.6508, 611.8067
724.1329, 611.3658
724.6151, 609.5414
725.0972, 606.7547
725.5793, 602.2896
726.0614, 598.1357
726.5435, 595.8513
727.0256, 595.3005
727.5078, 592.2086
727.9899, 586.4252
728.4720, 579.7379
728.9541, 572.9432
729.4362, 566.3932
729.9183, 560.9080
730.4005, 556.6277
730.8826, 552.8558
731.3647, 548.7449
731.8468, 545.2337
732.3289, 543.2014
732.8110, 543.1786
733.2932, 543.6218
733.7753, 544.7314
734.2574, 545.9291
734.7395, 546.6089
735.2216, 546.5908
735.7037, 547.1826
736.1859, 548.5396
736.6680, 550.3432
737.1501, 552.1152
737.6322, 554.0123
738.1143, 556.5310
738.5964, 559.9074
739.0786, 563.5857
739.5607, 567.1029
740.0428, 570.6523
740.5249, 574.4495
741.0070, 579.1700
741.4891, 583.4413
741.9713, 586.8272
742.4534, 589.6722
742.9355, 592.5369
743.4176, 595.7590
743.8997, 597.8215
744.3818, 598.1268
744.8640, 597.5222
745.3461, 597.7615
745.8282, 598.7070
746.3103, 599.5262
746.7924, 600.2191
747.2745, 600.2510
747.7567, 598.6235
748.2388, 595.8769
748.7209, 593.3929
749.2030, 591.7082
749.6851, 590.3377
750.1672, 589.4617
750.6494, 588.8134
751.1315, 587.3559
751.6136, 584.7309
752.0957, 582.1977
752.5778, 580.3798
753.0599, 578.9012
753.5421, 575.9573
754.0242, 571.6794
754.5063, 567.4386
754.9884, 564.2408
755.4705, 561.4252
755.9526, 558.2731
756.4348, 554.7864
756.9169, 551.1749
757.3990, 547.1243
757.8811, 543.3451
758.3632, 540.1808
758.8453, 537.6775
759.3275, 535.3651
759.8096, 533.2174
760.2917, 531.3344
760.7738, 529.7888
761.2559, 528.5726
761.7380, 527.1584
762.2202, 525.5306
762.7023, 524.5778
763.1844, 526.2213
763.6665, 528.3416
764.1486, 527.2969
764.6307, 523.0001
765.1129, 519.1361
765.5950, 517.9542
766.0771, 517.5314
766.5592, 516.6837
767.0413, 515.1866
767.5234, 513.8215
768.0056, 512.3492
768.4877, 511.3813
768.9698, 511.7308
769.4519, 513.3611
769.9340, 513.5645
770.4161, 512.2099
770.8983, 510.3936
771.3804, 508.4937
771.8625, 507.0021
772.3446, 507.0298
772.8267, 508.8847
773.3088, 510.3264
773.7910, 509.8221
774.2731, 508.7283
774.7552, 508.0735
775.2373, 508.0950
775.7194, 508.1427
776.2015, 508.2275
776.6837, 508.3125
777.1658, 508.2454
777.6479, 508.0402
778.1300, 508.5327
778.6121, 509.8990
779.0942, 511.1306
779.5764, 510.9268
780.0585, 510.0462
780.5406, 509.6352
781.0227, 509.9748
781.5048, 510.5220
781.9869, 511.1161
782.4691, 511.7519
782.9512, 512.4357
783.4332, 513.2859
783.9153, 513.9099
784.3975, 514.1765
784.8796, 514.3982
785.3617, 514.9218
785.8438, 515.7209
786.3259, 516.6445
786.8080, 517.7417
787.2902, 518.5862
787.7723, 518.4345
788.2544, 517.8571
788.7365, 517.6981
789.2186, 518.2990
789.7007, 518.9384
790.1829, 519.3076
790.6650, 519.6293
791.1471, 520.1506
791.6292, 521.0728
792.1113, 521.7354
792.5934, 522.0605
793.0756, 522.2507
793.5577, 522.5032
794.0398, 522.8334
794.5219, 523.4130
795.0040, 524.3710
795.4861, 525.1718
795.9683, 524.9652
796.4504, 524.4415
796.9325, 524.5118
797.4146, 525.5787
797.8967, 526.9175
798.3788, 528.8989
798.8610, 530.7604
799.3431, 531.5959
799.8252, 530.9653
800.3073, 530.8800
800.7894, 531.5406
801.2715, 532.6625
801.7537, 534.2293
802.2358, 535.9850
802.7179, 536.9603
803.2000, 536.7629
803.6821, 536.4312
804.1642, 536.6700
804.6464, 537.2864
805.1285, 538.0768
805.6106, 539.3632
806.0927, 540.1965
806.5748, 540.3178
807.0569, 540.1453
807.5391, 539.9981
808.0212, 539.8111
808.5033, 540.3304
808.9854, 541.7794
809.4675, 543.4288
809.9496, 544.4315
810.4318, 544.9477
810.9139, 545.2278
811.3960, 545.1988
811.8781, 545.4064
812.3602, 546.2272
812.8423, 547.4153
813.3245, 548.7281
813.8066, 550.7785
814.2887, 551.7235
814.7708, 550.8906
815.2529, 549.8640
815.7350, 550.6820
816.2172, 553.2189
816.6993, 554.8699
817.1814, 555.1575
817.6635, 555.3946
818.1456, 557.4518
818.6277, 560.1055
819.1099, 561.5851
819.5920, 561.1951
820.0741, 560.5955
820.5562, 560.0439
821.0383, 559.7316
821.5204, 559.7794
822.0026, 560.1717
822.4847, 561.0482
822.9668, 562.5138
823.4489, 564.1594
823.9310, 565.6223
824.4131, 566.8898
824.8953, 567.6859
825.3774, 567.8701
825.8595, 568.5951
826.3416, 572.1437
826.8237, 575.8214
827.3058, 576.7379
827.7880, 573.1476
828.2701, 570.8237
828.7522, 570.7076
829.2343, 571.5648
829.7164, 572.6570
830.1985, 573.9941
830.6807, 575.5314
831.1628, 577.3407
831.6449, 578.7604
832.1270, 578.4961
832.6091, 577.6921
833.0912, 578.1715
833.5734, 580.1396
834.0555, 582.9378
834.5376, 587.9058
835.0197, 592.2684
835.5018, 593.5149
835.9839, 590.8305
836.4661, 591.0768
836.9482, 595.6544
837.4303, 599.7109
837.9124, 599.1041
838.3945, 595.0090
838.8766, 593.2610
839.3588, 593.8699
839.8409, 595.3587
840.3230, 597.4550
840.8051, 599.3949
841.2872, 600.5358
841.7693, 600.8456
842.2515, 600.5605
842.7336, 598.3601
843.2157, 597.1592
843.6978, 598.5198
844.1799, 602.1458
844.6620, 603.8857
845.1442, 603.5974
845.6263, 603.3213
846.1084, 604.2098
846.5905, 605.8824
847.0726, 608.1528
847.5547, 610.7901
848.0369, 612.7636
848.5190, 613.7542
849.0011, 613.7986
849.4832, 612.1650
849.9653, 609.3846
850.4474, 608.3890
850.9296, 609.8417
851.4117, 611.0583
851.8938, 610.9631
852.3759, 610.1788
852.8580, 610.3378
853.3401, 611.2930
853.8223, 612.3593
854.3044, 613.1747
854.7865, 614.0314
855.2686, 615.3294
855.7507, 616.8129
856.2328, 617.8719
856.7150, 617.7560
857.1971, 618.1490
857.6792, 619.5681
858.1613, 621.3986
858.6434, 622.1484
859.1255, 621.8600
859.6077, 622.0284
860.0898, 623.1340
860.5719, 624.6484
861.0540, 626.1475
861.5361, 627.5658
862.0182, 628.8166
862.5004, 629.6023
862.9825, 630.5724
863.4646, 632.0287
863.9467, 633.6400
864.4288, 635.1165
864.9109, 636.5247
865.3931, 637.4633
865.8752, 637.8401
866.3573, 637.9853
866.8394, 638.1895
867.3215, 638.4980
867.8036, 639.0406
868.2858, 639.8934
868.7679, 640.7504
869.2500, 641.4525
869.7321, 642.1102
870.2142, 642.7520
870.6964, 643.1926
871.1785, 644.4160
871.6606, 646.7190
872.1427, 649.0458
872.6248, 650.3025
873.1069, 650.7972
873.5891, 651.9944
874.0712, 653.9400
874.5533, 655.7051
875.0354, 656.0061
875.5175, 656.3041
875.9996, 658.1134
876.4818, 661.6053
876.9639, 663.9630
877.4460, 664.3104
877.9281, 664.5106
878.4102, 665.3165
878.8923, 666.6439
879.3745, 667.8721
879.8566, 669.0256
880.3387, 670.4634
880.8208, 672.4736
881.3029, 674.8156
881.7850, 677.6719
882.2672, 680.7297
882.7493, 682.8846
883.2314, 682.8346
883.7135, 683.0421
884.1956, 683.9954
884.6777, 685.6295
885.1599, 687.8464
885.6420, 690.6757
886.1241, 693.7299
886.6062, 697.0328
887.0883, 700.2463
887.5704, 702.5640
888.0526, 704.5153
888.5347, 707.0897
889.0168, 710.9157
889.4989, 714.9427
889.9810, 719.1989
890.4631, 723.2338
890.9453, 726.3760
891.4274, 728.1959
891.9095, 731.1039
892.3916, 735.4238
892.8737, 740.4230
893.3558, 745.5978
893.8380, 750.7585
894.3201, 755.2560
894.8022, 758.8559
895.2843, 763.3489
895.7664, 770.5878
896.2485, 778.4350
896.7307, 785.2199
897.2128, 790.6246
897.6949, 796.9377
898.1770, 804.1798
898.6591, 812.2307
899.1412, 821.4155
899.6234, 831.3093
900.1055, 840.3665
900.5876, 848.7959
901.0697, 859.0784
901.5518, 874.5968
902.0339, 890.4233
902.5161, 902.9474
902.9982, 912.5348
903.4803, 923.9302
903.9624, 937.2618
904.4445, 951.9729
904.9266, 967.8698
905.4088, 984.9069
905.8909, 1003.388
906.3730, 1023.009
906.8551, 1042.333
907.3372, 1059.788
907.8193, 1078.484
908.3015, 1100.897
908.7836, 1125.869
909.2657, 1151.482
909.7478, 1177.216
910.2299, 1204.021
910.7120, 1231.816
911.1942, 1260.817
911.6763, 1291.979
912.1584, 1324.941
912.6405, 1358.586
913.1226, 1392.477
913.6047, 1426.876
914.0869, 1462.694
914.5690, 1498.580
915.0511, 1533.539
915.5332, 1567.700
916.0153, 1599.708
916.4974, 1630.688
916.9796, 1657.717
917.4617, 1679.808
917.9438, 1696.779
918.4259, 1707.657
918.9080, 1712.363
919.3901, 1709.999
919.8723, 1699.742
920.3544, 1682.340
920.8365, 1657.692
921.3186, 1626.150
921.8007, 1589.149
922.2828, 1545.010
922.7650, 1498.461
923.2471, 1450.443
923.7292, 1401.382
924.2113, 1351.612
924.6934, 1301.967
925.1755, 1255.151
925.6577, 1212.648
926.1398, 1173.286
926.6219, 1136.361
927.1040, 1101.854
927.5861, 1070.075
928.0682, 1040.758
928.5504, 1015.071
929.0325, 993.7570
929.5146, 975.3475
929.9967, 958.6375
930.4788, 943.7103
930.9609, 930.0906
931.4431, 917.6445
931.9252, 906.8841
932.4073, 898.5351
932.8894, 891.4911
933.3715, 884.5168
933.8536, 877.4923
934.3358, 872.1464
934.8179, 869.3663
935.3000, 866.8113
935.7821, 863.3005
936.2642, 859.2857
936.7463, 856.8132
937.2285, 855.6931
937.7106, 854.7289
938.1927, 852.7226
938.6748, 851.1575
939.1569, 851.5925
939.6390, 853.2247
940.1212, 854.2523
940.6033, 854.2711
941.0854, 853.8645
941.5675, 852.7061
942.0496, 851.7255
942.5317, 852.4570
943.0139, 854.6638
943.4960, 857.4064
943.9781, 860.7261
944.4602, 863.4938
944.9423, 863.8411
945.4244, 863.9039
945.9066, 865.7972
946.3887, 870.4907
946.8708, 874.1748
947.3529, 876.1492
947.8350, 878.7833
948.3171, 884.1360
948.7993, 891.2999
949.2814, 896.3533
949.7635, 899.6879
950.2456, 904.1566
950.7277, 912.2209
951.2098, 921.0883
951.6920, 928.9348
952.1741, 936.2336
952.6562, 944.7559
953.1383, 954.4915
953.6204, 965.5027
954.1025, 977.8994
954.5847, 991.4315
955.0668, 1006.408
955.5489, 1022.333
956.0310, 1037.604
956.5131, 1050.827
956.9952, 1065.981
957.4774, 1086.013
957.9595, 1108.323
958.4416, 1130.725
958.9237, 1152.870
959.4058, 1176.563
959.8879, 1201.839
960.3701, 1227.623
960.8522, 1252.919
961.3343, 1278.339
961.8164, 1304.454
962.2985, 1331.342
962.7806, 1358.116
963.2628, 1384.045
963.7449, 1410.121
964.2270, 1437.795
964.7091, 1466.047
965.1912, 1491.800
965.6733, 1515.139
966.1555, 1534.942
966.6376, 1550.920
967.1197, 1563.663
967.6018, 1574.315
968.0839, 1582.067
968.5660, 1585.488
969.0482, 1584.615
969.5303, 1578.484
970.0124, 1565.568
970.4945, 1548.843
970.9766, 1530.021
971.4587, 1509.268
971.9409, 1485.315
972.4230, 1458.162
972.9051, 1430.313
973.3872, 1402.415
973.8693, 1375.597
974.3514, 1351.188
974.8336, 1329.268
975.3157, 1309.261
975.7978, 1289.872
976.2799, 1274.613
976.7620, 1265.377
977.2441, 1259.774
977.7263, 1252.342
978.2084, 1243.412
978.6905, 1234.883
979.1726, 1226.905
979.6547, 1220.607
980.1368, 1217.840
980.6190, 1216.703
981.1010, 1215.195
981.5831, 1213.351
982.0652, 1210.361
982.5474, 1205.916
983.0295, 1201.218
983.5116, 1198.156
983.9937, 1195.440
984.4758, 1189.212
984.9579, 1179.664
985.4401, 1169.093
985.9222, 1158.453
986.4043, 1147.344
986.8864, 1135.601
987.3685, 1123.212
987.8506, 1109.886
988.3328, 1095.540
988.8149, 1081.418
989.2970, 1067.686
989.7791, 1054.710
990.2612, 1043.165
990.7433, 1032.665
991.2255, 1022.652
991.7076, 1013.378
992.1897, 1003.690
992.6718, 992.3640
993.1539, 981.6748
993.6360, 973.0856
994.1182, 966.5720
994.6003, 960.9525
995.0824, 956.1837
995.5645, 952.0822
996.0466, 948.3393
996.5287, 945.2261
997.0109, 943.5166
997.4930, 942.7176
997.9751, 940.9274
998.4572, 936.9030
998.9393, 933.7900
999.4214, 932.2352
999.9036, 931.5700
1000.386, 930.6072
1000.868, 929.6306
1001.350, 929.7480
1001.832, 931.3568
1002.314, 932.9896
1002.796, 933.5219
1003.278, 933.8739
1003.760, 934.9098
1004.243, 936.7448
1004.725, 937.4341
1005.207, 936.7598
1005.689, 936.1683
1006.171, 936.3799
1006.653, 937.2001
1007.135, 938.4803
1007.617, 940.0988
1008.100, 941.7846
1008.582, 943.6783
1009.064, 945.2628
1009.546, 946.4178
1010.028, 947.2410
1010.510, 947.6606
1010.992, 947.7236
1011.474, 948.5510
1011.956, 950.3360
1012.439, 952.1389
1012.921, 952.8542
1013.403, 953.4732
1013.885, 955.0746
1014.367, 957.7949
1014.849, 959.8386
1015.331, 960.8770
1015.813, 961.9063
1016.296, 963.1193
1016.778, 964.7405
1017.260, 967.8650
1017.742, 971.8397
1018.224, 974.7581
1018.706, 974.9951
1019.188, 975.6150
1019.670, 978.3762
1020.152, 981.7611
1020.635, 984.1786
1021.117, 985.3842
1021.599, 987.0860
1022.081, 989.3453
1022.563, 991.6719
1023.045, 993.8334
1023.527, 995.7386
1024.009, 996.9335
1024.492, 997.6403
1024.974, 999.2304
1025.456, 1003.076
1025.938, 1006.225
1026.420, 1007.867
1026.902, 1008.761
1027.384, 1010.237
1027.866, 1012.228
1028.349, 1014.427
1028.831, 1016.727
1029.313, 1019.370
1029.795, 1023.177
1030.277, 1026.921
1030.759, 1029.367
1031.241, 1030.358
1031.723, 1032.151
1032.205, 1034.783
1032.688, 1038.122
1033.170, 1042.387
1033.652, 1047.066
1034.134, 1051.131
1034.616, 1054.955
1035.098, 1059.573
1035.580, 1066.306
1036.062, 1072.481
1036.544, 1077.411
1037.027, 1082.057
1037.509, 1087.734
1037.991, 1094.237
1038.473, 1099.528
1038.955, 1103.460
1039.437, 1107.747
1039.919, 1114.251
1040.401, 1120.983
1040.884, 1126.422
1041.366, 1130.706
1041.848, 1135.701
1042.330, 1141.425
1042.812, 1147.786
1043.294, 1154.952
1043.776, 1162.540
1044.258, 1171.344
1044.740, 1180.010
1045.223, 1185.970
1045.705, 1187.528
1046.187, 1189.576
1046.669, 1192.948
1047.151, 1197.189
1047.633, 1202.191
1048.115, 1207.834
1048.597, 1213.416
1049.079, 1218.826
1049.562, 1222.850
1050.044, 1223.708
1050.526, 1224.029
1051.008, 1225.278
1051.490, 1227.120
1051.972, 1228.771
1052.454, 1230.155
1052.936, 1231.583
1053.419, 1233.131
1053.901, 1234.500
1054.383, 1235.206
1054.865, 1235.621
1055.347, 1236.285
1055.829, 1237.254
1056.311, 1238.285
1056.793, 1239.325
1057.276, 1240.520
1057.758, 1242.187
1058.240, 1243.872
1058.722, 1243.638
1059.204, 1246.241
1059.686, 1247.323
1060.168, 1246.948
1060.650, 1241.699
1061.132, 1242.020
1061.615, 1239.662
1062.097, 1236.894
1062.579, 1237.095
1063.061, 1230.928
1063.543, 1230.444
1064.025, 1227.249
1064.507, 1224.835
1064.989, 1219.731
1065.471, 1215.044
1065.954, 1212.405
1066.436, 1208.144
1066.918, 1201.503
1067.400, 1197.261
1067.882, 1187.851
1068.364, 1182.382
1068.846, 1178.435
1069.328, 1166.830
1069.811, 1160.273
1070.293, 1154.131
1070.775, 1148.919
1071.257, 1145.752
1071.739, 1142.700
1072.221, 1138.773
1072.703, 1134.273
1073.185, 1129.792
1073.667, 1125.410
1074.150, 1122.094
1074.632, 1120.296
1075.114, 1119.111
1075.596, 1118.101
1076.078, 1117.037
1076.560, 1115.387
1077.042, 1112.670
1077.524, 1112.354
1078.006, 1115.295
1078.489, 1117.617
1078.971, 1116.848
1079.453, 1114.494
1079.935, 1112.948
1080.417, 1112.228
1080.899, 1112.382
1081.381, 1114.437
1081.863, 1115.930
1082.345, 1116.360
1082.828, 1116.410
1083.310, 1116.667
1083.792, 1117.120
1084.274, 1117.732
1084.756, 1118.485
1085.238, 1119.132
1085.720, 1119.125
1086.202, 1119.368
1086.685, 1120.990
1087.167, 1123.094
1087.649, 1123.294
1088.131, 1121.296
1088.613, 1120.179
1089.095, 1120.527
1089.577, 1121.419
1090.059, 1122.303
1090.542, 1122.958
1091.024, 1123.069
1091.506, 1122.566
1091.988, 1122.045
1092.470, 1121.381
1092.952, 1121.171
1093.434, 1121.895
1093.916, 1122.810
1094.398, 1122.032
1094.880, 1120.386
1095.363, 1119.913
1095.845, 1122.015
1096.327, 1122.931
1096.809, 1120.688
1097.291, 1118.284
1097.773, 1117.455
1098.255, 1118.071
1098.737, 1119.821
1099.220, 1122.373
1099.702, 1123.648
1100.184, 1121.234
1100.666, 1118.722
1101.148, 1117.976
1101.630, 1118.215
1102.112, 1118.333
1102.594, 1118.340
1103.077, 1118.299
1103.559, 1118.227
1104.041, 1118.143
1104.523, 1117.847
1105.005, 1117.724
1105.487, 1117.763
1105.969, 1118.223
1106.451, 1120.510
1106.933, 1125.841
1107.416, 1129.474
1107.898, 1130.454
1108.380, 1129.828
1108.862, 1128.202
1109.344, 1126.242
1109.826, 1124.921
1110.308, 1124.390
1110.790, 1124.659
1111.272, 1126.223
1111.755, 1127.889
1112.237, 1129.453
1112.719, 1130.729
1113.201, 1131.084
1113.683, 1130.752
1114.165, 1130.364
1114.647, 1129.828
1115.129, 1130.130
1115.612, 1132.663
1116.094, 1135.365
1116.576, 1136.820
1117.058, 1137.101
1117.540, 1137.424
1118.022, 1137.773
1118.504, 1138.073
1118.986, 1138.107
1119.469, 1138.272
1119.951, 1138.802
1120.433, 1139.639
1120.915, 1140.731
1121.397, 1142.172
1121.879, 1143.395
1122.361, 1144.404
1122.843, 1145.121
1123.325, 1145.219
1123.807, 1145.231
1124.290, 1145.769
1124.772, 1146.732
1125.254, 1147.682
1125.736, 1148.622
1126.218, 1149.378
1126.700, 1149.759
1127.182, 1150.508
1127.664, 1153.126
1128.147, 1156.401
1128.629, 1158.030
1129.111, 1157.950
1129.593, 1158.152
1130.075, 1159.538
1130.557, 1160.690
1131.039, 1161.043
1131.521, 1161.286
1132.004, 1162.911
1132.486, 1165.508
1132.968, 1168.118
1133.450, 1170.660
1133.932, 1172.476
1134.414, 1172.383
1134.896, 1172.530
1135.378, 1174.205
1135.860, 1176.863
1136.343, 1177.982
1136.825, 1177.832
1137.307, 1177.893
1137.789, 1178.414
1138.271, 1179.870
1138.753, 1183.556
1139.235, 1187.514
1139.717, 1189.986
1140.199, 1190.963
1140.682, 1191.215
1141.164, 1190.750
1141.646, 1191.142
1142.128, 1194.040
1142.610, 1197.139
1143.092, 1198.729
1143.574, 1199.215
1144.056, 1199.068
1144.539, 1197.872
1145.021, 1197.985
1145.503, 1199.557
1145.985, 1201.485
1146.467, 1203.018
1146.949, 1204.411
1147.431, 1205.858
1147.913, 1207.392
1148.396, 1209.165
1148.878, 1211.524
1149.360, 1213.063
1149.842, 1213.368
1150.324, 1213.866
1150.806, 1216.769
1151.288, 1220.378
1151.770, 1221.972
1152.252, 1221.673
1152.734, 1221.673
1153.217, 1222.290
1153.699, 1223.629
1154.181, 1225.956
1154.663, 1228.529
1155.145, 1230.462
1155.627, 1231.816
1156.109, 1232.468
1156.591, 1232.398
1157.074, 1232.856
1157.556, 1235.226
1158.038, 1236.916
1158.520, 1236.897
1159.002, 1236.129
1159.484, 1236.697
1159.966, 1238.312
1160.448, 1240.172
1160.931, 1242.166
1161.413, 1244.033
1161.895, 1245.481
1162.377, 1246.941
1162.859, 1248.757
1163.341, 1250.678
1163.823, 1251.334
1164.305, 1251.076
1164.787, 1251.661
1165.270, 1253.955
1165.752, 1256.410
1166.234, 1258.650
1166.716, 1260.292
1167.198, 1260.797
1167.680, 1260.333
1168.162, 1261.182
1168.644, 1263.253
1169.126, 1265.660
1169.609, 1268.623
1170.091, 1270.876
1170.573, 1270.515
1171.055, 1269.880
1171.537, 1271.716
1172.019, 1276.356
1172.501, 1279.328
1172.983, 1280.608
1173.466, 1281.428
1173.948, 1281.895
1174.430, 1282.803
1174.912, 1285.448
1175.394, 1288.549
1175.876, 1289.854
1176.358, 1288.820
1176.840, 1289.567
1177.323, 1292.333
1177.805, 1294.847
1178.287, 1294.813
1178.769, 1294.327
1179.251, 1295.330
1179.733, 1297.240
1180.215, 1298.217
1180.697, 1297.755
1181.179, 1299.002
1181.661, 1302.446
1182.144, 1305.908
1182.626, 1307.257
1183.108, 1307.859
1183.590, 1308.783
1184.072, 1310.139
1184.554, 1312.148
1185.036, 1315.109
1185.518, 1317.327
1186.001, 1318.480
1186.483, 1319.235
1186.965, 1319.842
1187.447, 1320.758
1187.929, 1322.856
1188.411, 1325.988
1188.893, 1328.099
1189.375, 1328.956
1189.858, 1329.275
1190.340, 1329.053
1190.822, 1328.927
1191.304, 1329.122
1191.786, 1330.213
1192.268, 1333.603
1192.750, 1339.486
1193.232, 1342.965
1193.714, 1343.132
1194.197, 1343.242
1194.679, 1344.148
1195.161, 1345.606
1195.643, 1347.552
1196.125, 1349.675
1196.607, 1351.469
1197.089, 1352.755
1197.571, 1354.622
1198.053, 1357.573
1198.536, 1359.620
1199.018, 1359.729
1199.500, 1359.253
1199.982, 1359.977
1200.464, 1361.687
1200.946, 1364.451
1201.428, 1369.011
1201.910, 1370.932
1202.393, 1369.083
1202.875, 1367.914
1203.357, 1370.030
1203.839, 1373.240
1204.321, 1373.488
1204.803, 1372.345
1205.285, 1372.487
1205.767, 1374.734
1206.250, 1377.946
1206.732, 1382.608
1207.214, 1386.503
1207.696, 1387.837
1208.178, 1388.127
1208.660, 1389.975
1209.142, 1392.741
1209.624, 1395.221
1210.106, 1396.999
1210.589, 1398.557
1211.071, 1399.491
1211.553, 1401.593
1212.035, 1407.911
1212.517, 1414.713
1212.999, 1414.529
1213.481, 1410.301
1213.963, 1408.330
1214.445, 1412.160
1214.928, 1415.045
1215.410, 1416.874
1215.892, 1418.249
1216.374, 1419.602
1216.856, 1420.815
1217.338, 1421.295
1217.820, 1421.508
1218.302, 1422.588
1218.785, 1424.473
1219.267, 1428.210
1219.749, 1434.486
1220.231, 1440.221
1220.713, 1442.981
1221.195, 1443.736
1221.677, 1443.300
1222.159, 1442.102
1222.641, 1441.226
1223.124, 1440.461
1223.606, 1441.068
1224.088, 1443.339
1224.570, 1446.090
1225.052, 1448.495
1225.534, 1450.628
1226.016, 1452.701
1226.498, 1454.593
1226.980, 1455.754
1227.463, 1455.577
1227.945, 1456.466
1228.427, 1458.836
1228.909, 1461.075
1229.391, 1461.229
1229.873, 1460.768
1230.355, 1461.095
1230.837, 1462.305
1231.320, 1464.571
1231.802, 1468.332
1232.284, 1471.498
1232.766, 1473.907
1233.248, 1475.487
1233.730, 1475.576
1234.212, 1475.294
1234.694, 1475.359
1235.177, 1476.093
1235.659, 1478.583
1236.141, 1483.545
1236.623, 1486.310
1237.105, 1486.022
1237.587, 1485.880
1238.069, 1489.394
1238.551, 1493.871
1239.033, 1496.826
1239.516, 1498.598
1239.998, 1501.035
1240.480, 1504.162
1240.962, 1507.296
1241.444, 1510.375
1241.926, 1512.860
1242.408, 1513.738
1242.890, 1514.373
1243.372, 1515.861
1243.855, 1517.946
1244.337, 1519.920
1244.819, 1521.777
1245.301, 1523.417
1245.783, 1524.839
1246.265, 1525.821
1246.747, 1525.540
1247.229, 1525.451
1247.712, 1526.899
1248.194, 1529.227
1248.676, 1530.760
1249.158, 1531.623
1249.640, 1533.327
1250.122, 1536.154
1250.604, 1538.766
1251.086, 1540.010
1251.568, 1541.002
1252.051, 1542.130
1252.533, 1543.513
1253.015, 1545.348
1253.497, 1547.631
1253.979, 1550.784
1254.461, 1554.871
1254.943, 1558.445
1255.425, 1560.966
1255.907, 1562.263
1256.390, 1561.793
1256.872, 1560.723
1257.354, 1561.383
1257.836, 1563.452
1258.318, 1566.131
1258.800, 1569.333
1259.282, 1571.964
1259.764, 1572.725
1260.247, 1574.048
1260.729, 1576.859
1261.211, 1580.183
1261.693, 1581.983
1262.175, 1583.079
1262.657, 1585.558
1263.139, 1589.719
1263.621, 1592.858
1264.104, 1593.995
1264.586, 1594.690
1265.068, 1595.140
1265.550, 1595.683
1266.032, 1596.759
1266.514, 1598.288
1266.996, 1600.266
1267.478, 1602.657
1267.960, 1604.762
1268.443, 1606.079
1268.925, 1608.759
1269.407, 1613.834
1269.889, 1618.691
1270.371, 1619.590
1270.853, 1618.955
1271.335, 1619.413
1271.817, 1621.217
1272.299, 1623.441
1272.782, 1626.153
1273.264, 1628.767
1273.746, 1631.239
1274.228, 1633.193
1274.710, 1633.678
1275.192, 1634.041
1275.674, 1635.556
1276.156, 1638.015
1276.639, 1640.282
1277.121, 1642.332
1277.603, 1645.802
1278.085, 1651.167
1278.567, 1656.000
1279.049, 1658.806
1279.531, 1659.989
1280.013, 1658.995
1280.495, 1657.031
1280.978, 1657.174
1281.460, 1659.160
1281.942, 1661.468
1282.424, 1663.872
1282.906, 1665.977
1283.388, 1667.360
1283.870, 1668.624
1284.352, 1669.779
1284.834, 1671.197
1285.317, 1673.783
1285.799, 1677.143
1286.281, 1680.259
1286.763, 1683.016
1287.245, 1685.452
1287.727, 1686.843
1288.209, 1689.248
1288.691, 1693.541
1289.173, 1698.149
1289.656, 1700.751
1290.138, 1703.984
1290.620, 1704.662
1291.102, 1707.862
1291.584, 1709.597
1292.066, 1709.407
1292.548, 1708.471
1293.030, 1706.620
1293.513, 1705.723
1293.995, 1708.213
1294.477, 1712.473
1294.959, 1717.744
1295.441, 1723.341
1295.923, 1726.351
1296.405, 1726.514
1296.887, 1726.134
1297.370, 1725.397
1297.852, 1725.969
1298.334, 1730.275
1298.816, 1735.608
1299.298, 1740.683
1299.780, 1744.486
1300.262, 1745.604
1300.744, 1744.437
1301.226, 1745.989
1301.708, 1750.661
1302.191, 1754.953
1302.673, 1755.821
1303.155, 1756.304
1303.637, 1756.245
1304.119, 1754.863
##END=



