##NAMES=Petalite
##RRUFFID=R060365
##IDEAL CHEMISTRY=LiAlSi_4_O_10_
##LOCALITY=Paprok, near Kamdesh, Nuristan, Kunar Province, Afghanistan
##OWNER=RRUFF
##SOURCE=Herb Obodda
##DESCRIPTION=Colorless fragment
##STATUS=The identification of this mineral has been confirmed by X-ray diffraction and chemical analysis
##URL=rruff.info/R060365
##MEASURED CHEMISTRY=Li_1.00_Al_1.00_Si_4.00_O_10_
91.53320, 231.2993
92.01532, 238.4520
92.49744, 240.4284
92.97955, 237.8908
93.46167, 231.1754
93.94379, 224.4483
94.42590, 219.8902
94.90802, 216.3619
95.39014, 212.1370
95.87225, 207.1688
96.35437, 201.9274
96.83649, 196.3045
97.31860, 190.8138
97.80072, 186.0493
98.28284, 182.2275
98.76495, 178.9700
99.24707, 175.3666
99.72919, 170.7618
100.2113, 166.5932
100.6934, 162.9893
101.1755, 160.0053
101.6577, 157.7771
102.1398, 156.4670
102.6219, 156.2631
103.1040, 155.9436
103.5861, 155.0016
104.0682, 154.3245
104.5504, 154.3986
105.0325, 155.2832
105.5146, 156.6913
105.9967, 158.1972
106.4788, 159.6159
106.9609, 161.6729
107.4431, 163.9903
107.9252, 167.0711
108.4073, 171.6758
108.8894, 178.1685
109.3715, 186.0675
109.8536, 194.7762
110.3358, 204.7296
110.8179, 213.9330
111.3000, 222.6723
111.7821, 230.6020
112.2642, 234.1193
112.7463, 230.4615
113.2285, 222.0381
113.7106, 210.6317
114.1927, 195.7941
114.6748, 180.0804
115.1569, 166.9870
115.6390, 156.6868
116.1212, 148.5430
116.6033, 142.5224
117.0854, 138.0506
117.5675, 134.7171
118.0496, 132.3635
118.5317, 130.8906
119.0139, 129.8473
119.4960, 129.2303
119.9781, 129.1423
120.4602, 129.7104
120.9423, 130.8118
121.4244, 132.2560
121.9066, 133.9124
122.3887, 135.7915
122.8708, 137.8078
123.3529, 139.5854
123.8350, 141.7797
124.3171, 144.8652
124.7993, 148.7823
125.2814, 152.9006
125.7635, 156.4583
126.2456, 159.2004
126.7277, 163.3223
127.2098, 169.8023
127.6920, 177.2485
128.1741, 184.0601
128.6562, 189.7284
129.1383, 195.5419
129.6204, 203.1836
130.1025, 212.4105
130.5847, 222.4582
131.0668, 233.1359
131.5489, 244.4174
132.0310, 256.1265
132.5131, 268.1358
132.9952, 280.9689
133.4774, 294.8920
133.9595, 309.9103
134.4416, 325.8039
134.9237, 342.4508
135.4058, 359.9727
135.8879, 377.9543
136.3701, 395.9937
136.8522, 414.6390
137.3343, 434.5770
137.8164, 456.0460
138.2985, 477.8923
138.7806, 498.4903
139.2628, 517.8240
139.7449, 535.6989
140.2270, 552.4283
140.7091, 567.9064
141.1912, 582.2318
141.6733, 595.3767
142.1555, 607.1129
142.6376, 616.3937
143.1197, 622.2180
143.6018, 626.4391
144.0839, 629.4077
144.5660, 630.8411
145.0482, 630.1872
145.5303, 627.0274
146.0124, 621.5569
146.4945, 615.1857
146.9766, 608.7247
147.4587, 600.8817
147.9409, 590.6406
148.4230, 578.3317
148.9051, 565.4179
149.3872, 552.5673
149.8693, 539.9351
150.3514, 527.6954
150.8336, 516.7283
151.3157, 505.6307
151.7978, 492.7634
152.2799, 477.7777
152.7620, 462.7596
153.2441, 449.2150
153.7263, 436.7070
154.2084, 424.4510
154.6905, 412.2292
155.1726, 400.1906
155.6547, 388.5419
156.1368, 377.2627
156.6190, 366.5800
157.1011, 356.5892
157.5832, 347.1631
158.0653, 337.9539
158.5474, 328.8148
159.0295, 319.7478
159.5117, 310.7797
159.9938, 301.3592
160.4759, 292.5907
160.9580, 285.1511
161.4401, 278.7532
161.9222, 272.6594
162.4044, 266.1488
162.8865, 258.9854
163.3686, 252.6119
163.8507, 247.5090
164.3328, 242.6718
164.8149, 237.7259
165.2971, 232.6047
165.7792, 227.5573
166.2613, 222.8688
166.7434, 218.8544
167.2255, 214.2866
167.7076, 208.4471
168.1898, 202.5995
168.6719, 197.7382
169.1540, 194.0125
169.6361, 190.8177
170.1182, 187.3049
170.6003, 183.2733
171.0825, 179.4335
171.5646, 175.6411
172.0467, 172.1342
172.5288, 169.2834
173.0109, 167.2403
173.4930, 165.5944
173.9752, 163.6949
174.4573, 161.5265
174.9394, 159.3447
175.4215, 156.9689
175.9036, 154.6233
176.3857, 152.8749
176.8679, 151.9958
177.3500, 151.6025
177.8321, 151.1618
178.3142, 150.6630
178.7963, 150.2019
179.2784, 149.6925
179.7606, 149.1848
180.2427, 149.1506
180.7248, 149.9856
181.2069, 151.1437
181.6890, 152.1491
182.1711, 152.9692
182.6533, 153.7137
183.1354, 154.6591
183.6175, 155.9156
184.0996, 156.5024
184.5817, 155.7035
185.0638, 154.4286
185.5460, 153.2417
186.0281, 152.2520
186.5102, 151.0292
186.9923, 148.9532
187.4744, 145.8456
187.9565, 142.2885
188.4387, 138.1537
188.9208, 133.7796
189.4029, 129.2897
189.8850, 124.7299
190.3671, 120.3324
190.8492, 116.4679
191.3314, 113.3745
191.8135, 110.5602
192.2956, 108.0047
192.7777, 105.6774
193.2598, 103.6354
193.7419, 101.8955
194.2241, 100.2935
194.7062, 98.43550
195.1883, 95.55020
195.6704, 93.31896
196.1525, 92.21471
196.6346, 91.64851
197.1168, 90.93364
197.5989, 89.76849
198.0810, 88.33325
198.5631, 87.15341
199.0452, 86.46239
199.5273, 85.69778
200.0095, 84.66313
200.4916, 83.51404
200.9737, 82.52144
201.4558, 81.82554
201.9379, 81.30937
202.4200, 80.59477
202.9022, 79.49524
203.3843, 78.55769
203.8664, 78.14106
204.3485, 78.05871
204.8306, 77.72070
205.3127, 76.68891
205.7949, 75.47256
206.2770, 75.19935
206.7591, 76.21938
207.2412, 77.31924
207.7233, 77.82779
208.2054, 77.80968
208.6876, 77.62428
209.1697, 77.28678
209.6518, 76.95236
210.1339, 76.87560
210.6160, 77.16142
211.0981, 77.43023
211.5803, 77.35923
212.0624, 76.94846
212.5445, 76.48519
213.0266, 76.38233
213.5087, 76.04416
213.9908, 74.72652
214.4730, 72.17904
214.9551, 69.46697
215.4372, 67.85413
215.9193, 67.50229
216.4014, 67.20438
216.8836, 66.79820
217.3657, 66.21526
217.8478, 65.30556
218.3299, 64.03050
218.8120, 62.66508
219.2941, 61.55790
219.7763, 60.70876
220.2584, 60.13947
220.7405, 60.20199
221.2226, 60.31035
221.7047, 60.01913
222.1868, 59.21648
222.6690, 58.17815
223.1511, 57.34850
223.6332, 56.84711
224.1153, 56.27565
224.5974, 55.43998
225.0795, 54.62859
225.5617, 54.07972
226.0438, 53.85082
226.5259, 53.79076
227.0080, 53.63926
227.4901, 53.33694
227.9722, 53.04791
228.4544, 52.80017
228.9365, 52.55394
229.4186, 52.25154
229.9007, 51.88752
230.3828, 51.53815
230.8649, 51.34235
231.3471, 51.39832
231.8292, 51.46650
232.3113, 51.61659
232.7934, 51.73835
233.2755, 51.72661
233.7576, 51.55700
234.2398, 51.29815
234.7219, 51.06020
235.2040, 50.80741
235.6861, 50.65467
236.1682, 50.53059
236.6503, 50.53923
237.1325, 50.86924
237.6146, 51.55088
238.0967, 52.30559
238.5788, 52.70480
239.0609, 52.54222
239.5430, 52.47024
240.0252, 52.58784
240.5073, 52.76509
240.9894, 52.84301
241.4715, 52.78498
241.9536, 52.73473
242.4357, 52.92756
242.9179, 53.46162
243.4000, 53.78711
243.8821, 53.50392
244.3642, 53.14782
244.8463, 53.39287
245.3284, 54.39603
245.8106, 55.61198
246.2927, 56.42913
246.7748, 56.84227
247.2569, 57.12640
247.7390, 57.20116
248.2211, 57.21924
248.7033, 57.31646
249.1854, 57.49866
249.6675, 57.87236
250.1496, 58.56043
250.6317, 59.54458
251.1138, 60.79117
251.5960, 62.46128
252.0781, 64.32401
252.5602, 66.22087
253.0423, 68.19294
253.5244, 69.82877
254.0065, 70.54578
254.4887, 70.59387
254.9708, 70.58200
255.4529, 70.59114
255.9350, 70.65039
256.4171, 70.91135
256.8992, 71.47594
257.3813, 71.79247
257.8635, 70.96785
258.3456, 69.65246
258.8277, 68.98929
259.3098, 69.62752
259.7919, 70.90152
260.2740, 71.83627
260.7562, 72.32974
261.2383, 72.92099
261.7204, 73.83674
262.2025, 75.06069
262.6846, 76.68192
263.1667, 78.86841
263.6489, 81.28846
264.1310, 83.36862
264.6131, 84.93531
265.0952, 86.92381
265.5773, 89.89568
266.0594, 93.44637
266.5416, 97.30630
267.0237, 101.4391
267.5058, 105.7746
267.9879, 110.1523
268.4700, 114.4447
268.9521, 119.3329
269.4343, 124.8693
269.9164, 131.2340
270.3985, 138.7278
270.8806, 147.4568
271.3627, 157.0049
271.8448, 166.7669
272.3270, 176.6545
272.8091, 187.4413
273.2912, 198.6942
273.7733, 211.3911
274.2554, 226.4386
274.7375, 244.0568
275.2197, 263.3561
275.7018, 283.4647
276.1839, 304.1691
276.6660, 326.5468
277.1481, 351.4663
277.6302, 377.6579
278.1124, 404.7074
278.5945, 432.5183
279.0766, 460.4366
279.5587, 488.2608
280.0408, 516.2654
280.5229, 542.3755
281.0051, 568.1636
281.4872, 590.1288
281.9693, 607.9817
282.4514, 620.8786
282.9335, 626.9843
283.4156, 624.1960
283.8978, 612.4263
284.3799, 595.9794
284.8620, 572.3824
285.3441, 546.0259
285.8262, 516.9778
286.3083, 486.3507
286.7905, 455.8752
287.2726, 426.5659
287.7547, 398.5209
288.2368, 373.2945
288.7189, 351.0674
289.2010, 331.9254
289.6832, 315.9329
290.1653, 302.9301
290.6474, 292.8017
291.1295, 285.7373
291.6116, 281.2312
292.0938, 277.5386
292.5759, 276.6339
293.0580, 273.5620
293.5401, 267.2183
294.0222, 258.5035
294.5043, 248.1937
294.9865, 236.5868
295.4686, 224.1391
295.9507, 211.8171
296.4328, 199.0193
296.9149, 187.5819
297.3970, 177.8731
297.8792, 169.3092
298.3613, 161.4226
298.8434, 154.0461
299.3255, 147.4086
299.8076, 141.9196
300.2897, 137.7819
300.7719, 134.4400
301.2540, 131.8608
301.7361, 129.9093
302.2182, 128.6029
302.7003, 127.8925
303.1824, 127.5327
303.6646, 127.1332
304.1467, 126.4283
304.6288, 126.7051
305.1109, 128.2840
305.5930, 130.4930
306.0751, 133.1135
306.5573, 136.1028
307.0394, 139.4617
307.5215, 143.1298
308.0036, 147.0972
308.4857, 151.8924
308.9678, 157.6272
309.4500, 164.1524
309.9321, 171.4661
310.4142, 179.5929
310.8963, 188.4860
311.3784, 198.0914
311.8605, 208.5185
312.3427, 220.3835
312.8248, 234.1482
313.3069, 249.1804
313.7890, 265.8155
314.2711, 283.4930
314.7532, 301.9669
315.2354, 321.0797
315.7175, 340.3038
316.1996, 357.8693
316.6817, 373.5861
317.1638, 387.8184
317.6459, 402.4809
318.1281, 414.9455
318.6102, 422.9779
319.0923, 425.8408
319.5744, 424.0005
320.0565, 418.0635
320.5386, 407.5537
321.0208, 393.6627
321.5029, 375.0731
321.9850, 354.7600
322.4671, 333.9131
322.9492, 312.9373
323.4313, 292.2865
323.9135, 272.0741
324.3956, 252.1391
324.8777, 233.6266
325.3598, 216.3717
325.8419, 200.6448
326.3240, 186.6203
326.8062, 174.1942
327.2883, 162.9641
327.7704, 152.5883
328.2525, 143.0922
328.7346, 134.5421
329.2167, 127.2596
329.6989, 120.6365
330.1810, 114.5815
330.6631, 109.0486
331.1452, 104.0653
331.6273, 99.65761
332.1094, 95.74376
332.5916, 92.09298
333.0737, 88.81693
333.5558, 85.63743
334.0379, 82.41179
334.5200, 79.28078
335.0021, 76.39006
335.4843, 73.77719
335.9664, 71.43705
336.4485, 69.40465
336.9306, 67.74323
337.4127, 66.19347
337.8948, 64.60648
338.3770, 63.20525
338.8591, 62.22297
339.3412, 61.62215
339.8233, 61.09705
340.3055, 60.17745
340.7876, 58.75543
341.2697, 58.07955
341.7518, 58.90461
342.2339, 59.78611
342.7160, 60.12621
343.1982, 60.06862
343.6803, 60.02980
344.1624, 60.25446
344.6445, 60.73030
345.1266, 61.34806
345.6087, 61.81902
346.0909, 62.97094
346.5730, 65.38215
347.0551, 68.40292
347.5372, 71.14701
348.0193, 73.21696
348.5014, 75.08205
348.9836, 77.45939
349.4657, 80.14344
349.9478, 84.01795
350.4299, 89.77666
350.9120, 96.55154
351.3941, 103.7220
351.8763, 111.1648
352.3584, 119.3467
352.8405, 128.8042
353.3226, 139.5988
353.8047, 150.8063
354.2868, 162.4323
354.7690, 174.3696
355.2511, 186.8540
355.7332, 199.7023
356.2153, 211.9917
356.6974, 223.7720
357.1795, 234.6321
357.6617, 243.0605
358.1438, 249.1357
358.6259, 252.3268
359.1080, 252.2134
359.5901, 249.2883
360.0722, 243.9168
360.5544, 235.6103
361.0365, 225.6424
361.5186, 215.4971
362.0007, 205.2090
362.4828, 194.7886
362.9649, 183.6171
363.4471, 172.6701
363.9292, 163.0199
364.4113, 154.8777
364.8934, 147.5187
365.3755, 140.2561
365.8576, 133.2280
366.3398, 127.2882
366.8219, 122.8866
367.3040, 119.2524
367.7861, 115.3616
368.2682, 111.2757
368.7503, 107.9855
369.2325, 106.2506
369.7146, 105.4415
370.1967, 104.4030
370.6788, 102.9439
371.1609, 101.8031
371.6430, 101.6188
372.1252, 102.2415
372.6073, 103.1595
373.0894, 104.3839
373.5715, 105.8240
374.0536, 107.0991
374.5357, 108.3611
375.0179, 110.6474
375.5000, 114.5946
375.9821, 119.7625
376.4642, 125.0062
376.9463, 129.9189
377.4284, 135.7173
377.9106, 142.9230
378.3927, 151.2733
378.8748, 160.5339
379.3569, 170.7236
379.8390, 181.1756
380.3211, 191.1368
380.8033, 200.5418
381.2854, 209.6862
381.7675, 220.1494
382.2496, 229.1882
382.7317, 234.8357
383.2138, 236.9315
383.6960, 236.0630
384.1781, 232.5210
384.6602, 226.3530
385.1423, 218.2428
385.6244, 207.4637
386.1065, 195.9574
386.5887, 183.8741
387.0708, 171.6258
387.5529, 159.6646
388.0350, 148.1565
388.5171, 137.2906
388.9992, 127.4320
389.4814, 118.9263
389.9635, 111.0907
390.4456, 103.6906
390.9277, 97.09322
391.4098, 91.73307
391.8919, 87.59658
392.3741, 84.15086
392.8562, 80.89910
393.3383, 77.84180
393.8204, 74.88769
394.3025, 71.83494
394.7846, 69.07928
395.2668, 66.82938
395.7489, 64.96141
396.2310, 63.24781
396.7131, 61.55698
397.1952, 59.91286
397.6773, 58.38062
398.1595, 56.89683
398.6416, 55.64760
399.1237, 54.71567
399.6058, 53.95646
400.0879, 53.27525
400.5700, 52.63885
401.0522, 52.02321
401.5343, 51.40375
402.0164, 50.79189
402.4985, 50.11782
402.9806, 49.18380
403.4627, 48.37962
403.9449, 48.01967
404.4270, 47.93813
404.9091, 47.69774
405.3912, 46.97355
405.8733, 45.92047
406.3554, 45.03846
406.8376, 44.38820
407.3197, 43.74152
407.8018, 42.68899
408.2839, 41.73709
408.7660, 41.60260
409.2481, 42.59574
409.7303, 43.63241
410.2124, 43.44049
410.6945, 42.11374
411.1766, 41.15788
411.6587, 41.11658
412.1408, 41.24561
412.6230, 40.75172
413.1051, 39.73029
413.5872, 38.89138
414.0693, 38.65112
414.5514, 38.73193
415.0335, 38.76509
415.5157, 38.74413
415.9978, 38.49907
416.4799, 37.70522
416.9620, 36.63937
417.4441, 36.14545
417.9262, 36.62821
418.4084, 37.18859
418.8905, 37.27594
419.3726, 37.04505
419.8547, 36.92214
420.3368, 37.08191
420.8189, 37.30450
421.3011, 37.20140
421.7832, 36.67405
422.2653, 36.26307
422.7474, 36.06418
423.2295, 35.97905
423.7116, 35.96049
424.1938, 35.98611
424.6759, 35.98471
425.1580, 35.88527
425.6401, 35.69957
426.1222, 35.64837
426.6043, 35.90104
427.0865, 36.06957
427.5686, 35.99908
428.0507, 35.80492
428.5328, 35.64909
429.0149, 35.59343
429.4970, 35.59125
429.9792, 35.56734
430.4613, 35.54882
430.9434, 35.44078
431.4255, 35.03743
431.9076, 34.73695
432.3897, 34.85841
432.8719, 35.30915
433.3540, 35.74404
433.8361, 35.90282
434.3182, 35.80742
434.8003, 35.59210
435.2824, 35.09052
435.7646, 34.73269
436.2467, 34.70716
436.7288, 34.82151
437.2109, 34.85180
437.6930, 34.72630
438.1751, 34.60659
438.6573, 34.77769
439.1394, 35.27832
439.6215, 35.48104
440.1036, 34.91272
440.5857, 34.46998
441.0678, 34.90549
441.5500, 35.99610
442.0321, 36.87654
442.5142, 37.01104
442.9963, 36.70173
443.4784, 36.44153
443.9605, 36.21923
444.4427, 36.14455
444.9248, 36.38852
445.4069, 36.76003
445.8890, 36.87835
446.3711, 36.58247
446.8532, 36.44240
447.3354, 36.97213
447.8175, 37.86177
448.2996, 38.43061
448.7817, 38.51446
449.2638, 38.34033
449.7459, 38.05146
450.2281, 37.63794
450.7102, 37.55204
451.1923, 38.09921
451.6744, 38.72192
452.1565, 39.05164
452.6386, 39.15753
453.1208, 39.28107
453.6029, 39.54138
454.0850, 39.92436
454.5671, 40.39147
455.0492, 40.90977
455.5313, 41.57383
456.0135, 42.55325
456.4956, 43.56587
456.9777, 44.22321
457.4598, 44.58599
457.9419, 45.22322
458.4240, 46.74070
458.9062, 49.15132
459.3883, 51.35579
459.8704, 53.25420
460.3525, 55.05300
460.8346, 56.34436
461.3167, 57.72702
461.7989, 59.90736
462.2810, 63.16527
462.7631, 67.29404
463.2452, 72.05222
463.7273, 77.48412
464.2094, 83.29173
464.6916, 89.61218
465.1737, 96.16482
465.6558, 103.3832
466.1379, 110.8021
466.6200, 117.0174
467.1021, 121.6084
467.5843, 124.3389
468.0664, 124.5164
468.5485, 121.9827
469.0306, 117.9535
469.5127, 112.2576
469.9948, 105.7266
470.4770, 99.60976
470.9591, 93.80013
471.4412, 88.97281
471.9233, 85.30650
472.4054, 82.88229
472.8875, 82.09260
473.3697, 83.05566
473.8518, 84.87518
474.3339, 86.77435
474.8160, 88.78999
475.2981, 91.44160
475.7802, 94.83097
476.2624, 98.71145
476.7445, 102.8671
477.2266, 107.4717
477.7087, 112.7644
478.1908, 118.8773
478.6729, 125.8355
479.1551, 133.5991
479.6372, 141.8880
480.1193, 151.9010
480.6014, 163.7643
481.0835, 177.0215
481.5656, 191.0659
482.0478, 206.2285
482.5299, 223.2269
483.0120, 242.3123
483.4941, 263.9296
483.9762, 289.0381
484.4583, 317.3384
484.9405, 350.0186
485.4226, 387.3833
485.9047, 428.8311
486.3868, 473.7234
486.8689, 522.0510
487.3510, 573.8594
487.8332, 630.5502
488.3153, 690.8760
488.7974, 751.9130
489.2795, 816.2220
489.7616, 874.3828
490.2437, 924.3131
490.7259, 963.4024
491.2080, 986.3493
491.6901, 992.0655
492.1722, 981.1291
492.6543, 950.7604
493.1364, 903.8467
493.6186, 847.0134
494.1007, 779.9552
494.5828, 709.5361
495.0649, 642.1315
495.5470, 577.7869
496.0291, 519.2636
496.5113, 466.6051
496.9934, 419.5250
497.4755, 378.5438
497.9576, 342.9401
498.4397, 311.1881
498.9218, 282.7751
499.4040, 257.5705
499.8861, 235.7661
500.3682, 218.5876
500.8503, 203.0989
501.3324, 189.2810
501.8145, 176.8853
502.2967, 165.7809
502.7788, 155.9020
503.2609, 147.1718
503.7430, 139.6077
504.2251, 132.9915
504.7072, 126.4976
505.1894, 119.8163
505.6715, 113.9266
506.1536, 109.5453
506.6357, 105.7131
507.1178, 101.7376
507.5999, 97.53336
508.0821, 93.45530
508.5642, 89.58515
509.0463, 86.05226
509.5284, 83.35910
510.0105, 81.71298
510.4926, 80.14417
510.9748, 78.04359
511.4569, 75.61192
511.9390, 73.33723
512.4211, 71.35143
512.9032, 69.35475
513.3853, 66.96725
513.8674, 64.53861
514.3495, 62.78006
514.8317, 61.83335
515.3138, 61.18170
515.7959, 60.30333
516.2780, 59.17068
516.7601, 58.18615
517.2422, 57.44947
517.7244, 56.71866
518.2065, 55.96883
518.6886, 55.15507
519.1707, 54.23426
519.6528, 53.19087
520.1349, 52.00437
520.6171, 50.51487
521.0992, 48.44516
521.5813, 47.20916
522.0634, 47.68604
522.5455, 48.16010
523.0276, 48.03069
523.5098, 47.44882
523.9919, 46.73566
524.4740, 45.99390
524.9561, 45.28440
525.4382, 44.69992
525.9203, 44.24573
526.4025, 43.80802
526.8846, 43.38853
527.3667, 42.94413
527.8488, 42.41274
528.3309, 41.80959
528.8130, 41.21712
529.2952, 40.54282
529.7773, 39.97865
530.2594, 39.87602
530.7415, 40.09673
531.2236, 39.95412
531.7057, 39.07466
532.1879, 37.87647
532.6700, 37.16706
533.1521, 37.17369
533.6342, 37.18157
534.1163, 37.19809
534.5984, 37.19706
535.0806, 37.22310
535.5627, 37.22057
536.0448, 37.02480
536.5269, 36.51658
537.0090, 35.82347
537.4911, 35.34556
537.9733, 35.16901
538.4554, 35.01329
538.9375, 34.83949
539.4196, 34.68010
539.9017, 34.64784
540.3839, 34.67535
540.8660, 34.48213
541.3481, 33.68671
541.8302, 32.66101
542.3123, 32.36943
542.7944, 32.91978
543.2766, 33.24854
543.7587, 32.83161
544.2408, 32.06227
544.7229, 31.48430
545.2050, 31.09508
545.6871, 30.88154
546.1693, 30.88736
546.6514, 31.03951
547.1335, 31.40244
547.6156, 31.89877
548.0977, 32.06770
548.5798, 31.55384
549.0620, 30.62861
549.5441, 30.21180
550.0262, 30.93629
550.5083, 31.33869
550.9904, 31.34223
551.4725, 31.07505
551.9547, 30.52218
552.4368, 29.77114
552.9189, 29.01302
553.4010, 28.35535
553.8831, 27.84678
554.3652, 27.76049
554.8474, 28.32926
555.3295, 28.73301
555.8116, 28.57283
556.2937, 28.30309
556.7758, 28.30867
557.2579, 28.58316
557.7401, 28.71903
558.2222, 28.30814
558.7043, 27.67254
559.1864, 27.39046
559.6685, 27.47997
560.1506, 27.63419
560.6328, 27.73566
561.1149, 27.78149
561.5970, 27.76509
562.0791, 27.70013
562.5612, 27.55141
563.0433, 27.26768
563.5255, 26.93187
564.0076, 26.54915
564.4897, 26.16599
564.9718, 25.91244
565.4539, 25.87830
565.9360, 26.01245
566.4182, 26.15526
566.9003, 26.38561
567.3824, 26.47153
567.8645, 26.24572
568.3466, 26.01705
568.8287, 26.05064
569.3109, 26.27467
569.7930, 26.37457
570.2751, 26.08750
570.7572, 25.62494
571.2393, 25.46398
571.7214, 25.63181
572.2036, 25.76717
572.6857, 25.71988
573.1678, 25.63281
573.6499, 25.74866
574.1320, 26.06103
574.6141, 26.13490
575.0963, 25.64973
575.5784, 25.03827
576.0605, 24.58459
576.5426, 24.32111
577.0247, 24.38392
577.5068, 24.88241
577.9890, 25.42577
578.4711, 25.20491
578.9532, 23.56909
579.4353, 22.85138
579.9174, 23.77375
580.3995, 24.77126
580.8817, 25.12635
581.3638, 24.98891
581.8459, 24.73185
582.3280, 24.51966
582.8101, 24.35043
583.2922, 24.21512
583.7744, 24.11241
584.2565, 24.08359
584.7386, 24.22198
585.2207, 24.30836
585.7029, 24.13292
586.1850, 23.78937
586.6671, 23.51781
587.1492, 23.41909
587.6313, 23.34786
588.1135, 23.09536
588.5956, 22.79930
589.0777, 22.87455
589.5598, 23.43653
590.0419, 24.01202
590.5240, 24.06777
591.0062, 23.57273
591.4883, 23.27859
591.9704, 23.43762
592.4525, 23.46731
592.9346, 22.96775
593.4167, 22.39428
593.8989, 22.35968
594.3810, 22.94797
594.8631, 23.62063
595.3452, 23.83018
595.8273, 23.60716
596.3094, 23.26269
596.7916, 22.64930
597.2737, 22.24859
597.7558, 22.53519
598.2379, 23.00908
598.7200, 23.11123
599.2021, 22.74679
599.6843, 22.36893
600.1664, 22.18176
600.6485, 22.13067
601.1306, 22.10105
601.6127, 22.10298
602.0948, 22.36578
602.5770, 23.11843
603.0591, 24.05165
603.5412, 24.29799
604.0233, 23.20126
604.5054, 22.47287
604.9875, 22.37753
605.4697, 22.40925
605.9518, 22.11707
606.4339, 21.67879
606.9160, 21.68154
607.3981, 22.51678
607.8802, 23.66532
608.3624, 24.06157
608.8445, 23.61484
609.3266, 23.10014
609.8087, 22.51525
610.2908, 22.05014
610.7729, 21.83519
611.2551, 21.83894
611.7372, 21.98714
612.2193, 22.38823
612.7014, 22.76924
613.1835, 22.95721
613.6656, 22.97755
614.1478, 22.85554
614.6299, 22.59919
615.1120, 22.28378
615.5941, 21.94188
616.0762, 21.57188
616.5583, 21.57646
617.0405, 22.62577
617.5226, 23.20772
618.0047, 22.68929
618.4868, 21.82827
618.9689, 21.33244
619.4510, 21.31911
619.9332, 21.51118
620.4153, 21.74928
620.8974, 21.99144
621.3795, 22.07093
621.8616, 21.96827
622.3438, 21.79844
622.8259, 21.53374
623.3080, 21.28475
623.7901, 21.20913
624.2722, 21.31390
624.7543, 21.42776
625.2365, 21.54387
625.7186, 21.61941
626.2007, 21.56210
626.6828, 21.43267
627.1649, 21.41281
627.6470, 21.58092
628.1292, 21.82708
628.6113, 21.99403
629.0934, 22.10987
629.5755, 22.02585
630.0576, 21.37247
630.5397, 20.91434
631.0219, 21.05560
631.5040, 21.45820
631.9861, 21.63456
632.4682, 21.43893
632.9503, 21.16538
633.4324, 21.00973
633.9146, 20.99224
634.3967, 21.27380
634.8788, 21.91300
635.3609, 22.39474
635.8430, 22.36752
636.3251, 21.99912
636.8073, 21.77637
637.2894, 21.78613
637.7715, 21.71023
638.2536, 21.36305
638.7357, 21.02497
639.2178, 20.93619
639.7000, 21.05063
640.1821, 21.18847
640.6642, 21.25435
641.1463, 21.26896
641.6284, 21.26152
642.1105, 21.21813
642.5927, 21.23306
643.0748, 21.38581
643.5569, 21.50543
644.0390, 21.45585
644.5211, 21.31559
645.0032, 21.26954
645.4854, 21.44875
645.9675, 21.51556
646.4496, 21.08925
646.9317, 20.44071
647.4138, 20.09011
647.8959, 20.10258
648.3781, 20.21611
648.8602, 20.23559
649.3423, 20.19764
649.8244, 20.28259
650.3065, 20.81949
650.7886, 20.97274
651.2708, 20.21183
651.7529, 19.50882
652.2350, 19.65661
652.7171, 20.43534
653.1992, 21.07972
653.6813, 21.18489
654.1635, 20.96884
654.6456, 20.66857
655.1277, 20.30349
655.6098, 20.14683
656.0919, 20.30377
656.5740, 20.52923
657.0562, 20.66532
657.5383, 20.69201
658.0204, 20.55005
658.5025, 19.92624
658.9846, 19.52640
659.4667, 19.67183
659.9489, 20.07171
660.4310, 20.58454
660.9131, 21.07826
661.3952, 21.19928
661.8773, 20.62075
662.3594, 19.60596
662.8416, 19.01504
663.3237, 18.90609
663.8058, 19.01795
664.2879, 19.56107
664.7700, 20.04755
665.2521, 20.03226
665.7343, 19.66534
666.2164, 19.46989
666.6985, 19.69064
667.1806, 19.99211
667.6627, 20.14740
668.1448, 20.21287
668.6270, 20.29231
669.1091, 20.40651
669.5912, 20.53712
670.0733, 20.68078
670.5554, 20.82031
671.0375, 20.82192
671.5197, 20.49728
672.0018, 20.34785
672.4839, 20.62415
672.9660, 20.90875
673.4481, 20.90891
673.9302, 20.65760
674.4124, 20.35241
674.8945, 20.09891
675.3766, 19.82784
675.8587, 19.32760
676.3408, 18.70188
676.8229, 18.47987
677.3051, 18.81386
677.7872, 19.32411
678.2693, 19.72688
678.7514, 20.01487
679.2335, 20.09280
679.7156, 19.66378
680.1978, 19.44615
680.6799, 19.69275
681.1620, 20.07598
681.6441, 20.41843
682.1262, 20.64336
682.6083, 20.59298
683.0905, 20.07192
683.5726, 19.44877
684.0547, 19.59655
684.5368, 20.51238
685.0189, 20.88665
685.5010, 20.29327
685.9832, 19.51354
686.4653, 19.16876
686.9474, 19.19758
687.4295, 19.24325
687.9116, 19.32227
688.3937, 19.38280
688.8759, 19.45149
689.3580, 19.46737
689.8401, 19.31026
690.3222, 19.02313
690.8043, 18.78112
691.2864, 18.68404
691.7686, 18.75531
692.2507, 19.18851
692.7328, 20.12947
693.2149, 20.44691
693.6970, 19.57567
694.1791, 18.65121
694.6613, 18.55819
695.1434, 18.98148
695.6255, 19.23678
696.1076, 19.19671
696.5897, 19.03291
697.0718, 18.66030
697.5540, 18.30161
698.0361, 18.29749
698.5182, 18.60737
699.0003, 18.87626
699.4824, 18.87748
699.9645, 18.74838
700.4467, 18.86805
700.9288, 19.37637
701.4109, 19.60534
701.8930, 19.37439
702.3751, 19.02659
702.8572, 18.60112
703.3394, 18.21927
703.8215, 18.11547
704.3036, 18.39288
704.7857, 18.72069
705.2678, 18.99938
705.7499, 19.16447
706.2321, 18.99263
706.7142, 18.57040
707.1963, 18.39902
707.6784, 18.76105
708.1605, 19.38735
708.6426, 19.78109
709.1248, 19.98903
709.6069, 19.78302
710.0890, 18.53635
710.5711, 17.61730
711.0532, 17.70288
711.5353, 18.27874
712.0175, 18.69224
712.4996, 18.81350
712.9817, 18.86182
713.4638, 19.00053
713.9459, 19.13237
714.4280, 19.10840
714.9102, 18.94361
715.3923, 18.70754
715.8744, 18.41618
716.3565, 18.18749
716.8386, 18.21348
717.3207, 18.53833
717.8029, 18.79475
718.2850, 18.92542
718.7671, 19.05417
719.2492, 19.26071
719.7313, 19.44550
720.2134, 19.50814
720.6956, 19.43924
721.1777, 19.30274
721.6598, 19.04502
722.1419, 18.80216
722.6240, 18.78115
723.1061, 18.93655
723.5883, 19.08668
724.0704, 19.17755
724.5525, 19.35175
725.0346, 19.42535
725.5167, 19.64970
725.9988, 19.80079
726.4810, 19.92990
726.9631, 19.90375
727.4452, 19.53214
727.9273, 19.14808
728.4094, 19.03026
728.8915, 19.13704
729.3737, 19.23888
729.8558, 19.24678
730.3379, 19.17706
730.8200, 19.00018
731.3021, 18.76305
731.7842, 18.58471
732.2664, 18.48710
732.7485, 18.45766
733.2306, 18.46675
733.7127, 18.56055
734.1948, 18.95862
734.6769, 20.14704
735.1591, 20.74186
735.6412, 20.18762
736.1233, 19.60135
736.6054, 19.50594
737.0875, 19.79635
737.5696, 20.25806
738.0518, 20.85979
738.5339, 21.41373
739.0160, 21.77531
739.4981, 21.98804
739.9802, 22.11766
740.4623, 22.17454
740.9445, 22.12573
741.4266, 21.91297
741.9087, 21.78547
742.3908, 22.23910
742.8729, 23.47089
743.3550, 24.44192
743.8372, 25.13917
744.3193, 25.57227
744.8014, 25.57663
745.2835, 25.41672
745.7656, 25.37946
746.2477, 25.50155
746.7299, 25.62301
747.2120, 25.56909
747.6941, 25.53461
748.1762, 25.77220
748.6583, 26.22149
749.1404, 26.72337
749.6226, 27.22851
750.1047, 27.63769
750.5868, 27.82177
751.0689, 27.81252
751.5510, 28.01218
752.0331, 28.80186
752.5153, 29.06022
752.9974, 28.09528
753.4795, 26.99220
753.9616, 26.43317
754.4437, 26.30828
754.9258, 26.17103
755.4080, 25.86253
755.8901, 25.55396
756.3722, 25.33759
756.8543, 25.20634
757.3364, 25.17814
757.8185, 25.23559
758.3007, 25.33807
758.7828, 25.48228
759.2649, 25.52212
759.7470, 25.02328
760.2291, 23.74312
760.7112, 23.13206
761.1934, 23.72085
761.6755, 24.20150
762.1576, 23.67841
762.6397, 22.83293
763.1218, 22.52995
763.6039, 22.87906
764.0861, 23.38936
764.5682, 24.08267
765.0503, 24.69838
765.5324, 24.97731
766.0145, 25.03490
766.4966, 25.08309
766.9788, 25.19441
767.4609, 25.37713
767.9430, 25.64310
768.4251, 25.98620
768.9072, 26.44716
769.3893, 27.11364
769.8715, 27.36949
770.3536, 26.71336
770.8357, 26.10167
771.3178, 26.63631
771.7999, 28.05821
772.2820, 29.02359
772.7642, 29.17986
773.2463, 29.24694
773.7284, 29.40541
774.2105, 29.56617
774.6926, 29.65038
775.1747, 29.66371
775.6569, 29.65297
776.1390, 29.64325
776.6211, 29.60146
777.1032, 29.55552
777.5853, 29.45828
778.0674, 28.94535
778.5496, 27.93357
779.0317, 27.00296
779.5138, 26.41640
779.9959, 26.09794
780.4780, 25.94067
780.9601, 25.99726
781.4423, 26.00535
781.9244, 25.85120
782.4065, 25.78799
782.8886, 26.04278
783.3707, 26.33902
783.8528, 26.26443
784.3350, 25.85301
784.8171, 25.65325
785.2992, 26.00228
785.7813, 26.73234
786.2634, 27.77340
786.7455, 29.01465
787.2277, 30.04596
787.7098, 30.78848
788.1919, 31.55865
788.6740, 32.57480
789.1561, 33.83503
789.6382, 35.35711
790.1204, 37.27379
790.6025, 39.11238
791.0846, 40.90966
791.5667, 42.54674
792.0488, 44.04324
792.5309, 45.32674
793.0131, 46.37275
793.4952, 47.22775
793.9773, 47.45495
794.4594, 46.75586
794.9415, 45.42397
795.4236, 43.50470
795.9058, 41.21080
796.3879, 38.88520
796.8700, 36.66152
797.3521, 34.66905
797.8342, 33.07129
798.3163, 31.79460
798.7985, 30.43701
799.2806, 28.95508
799.7627, 27.61989
800.2448, 26.45747
800.7269, 25.51201
801.2090, 24.96864
801.6912, 24.70457
802.1733, 24.03567
802.6554, 22.45021
803.1375, 21.27077
803.6196, 20.93585
804.1017, 20.91376
804.5839, 21.02883
805.0660, 21.10899
805.5481, 20.77713
806.0302, 19.88827
806.5123, 19.16488
806.9944, 19.59807
807.4766, 20.66218
807.9587, 21.03490
808.4408, 20.73056
808.9229, 20.45236
809.4050, 20.46483
809.8871, 20.53594
810.3693, 20.37390
810.8514, 19.98206
811.3335, 19.71259
811.8156, 19.65992
812.2977, 19.57104
812.7798, 19.34504
813.2620, 19.12916
813.7441, 18.99426
814.2262, 18.95028
814.7083, 19.01797
815.1904, 19.24153
815.6725, 19.47995
816.1547, 19.84210
816.6368, 20.04910
817.1189, 19.53869
817.6010, 18.57143
818.0831, 18.04646
818.5652, 18.33978
819.0474, 18.92515
819.5295, 19.10723
820.0116, 18.93921
820.4937, 18.91232
820.9758, 19.04232
821.4579, 19.25500
821.9401, 19.65160
822.4222, 19.89487
822.9043, 19.47925
823.3864, 18.45164
823.8685, 17.97357
824.3506, 18.40799
824.8328, 18.85715
825.3149, 19.36071
825.7970, 19.68160
826.2791, 19.49829
826.7612, 19.01978
827.2433, 18.76243
827.7255, 18.93824
828.2076, 19.14955
828.6897, 19.02701
829.1718, 18.73755
829.6539, 18.50235
830.1360, 18.35399
830.6182, 18.39838
831.1003, 18.67776
831.5824, 18.98551
832.0645, 19.08793
832.5466, 18.98848
833.0287, 18.65988
833.5109, 17.92223
833.9930, 17.52647
834.4751, 17.91710
834.9572, 18.34473
835.4393, 18.01044
835.9214, 17.22594
836.4036, 16.93791
836.8857, 17.53335
837.3678, 17.98415
837.8499, 17.83787
838.3320, 17.64984
838.8141, 17.97664
839.2963, 18.51378
839.7784, 18.62697
840.2605, 18.13315
840.7426, 17.46861
841.2247, 16.88169
841.7068, 16.45444
842.1890, 16.39945
842.6711, 16.67096
843.1532, 17.07311
843.6353, 17.56386
844.1174, 17.91689
844.5995, 17.90446
845.0817, 17.61688
845.5638, 17.46847
846.0459, 17.52963
846.5280, 17.54054
847.0101, 17.56964
847.4922, 17.43086
847.9744, 16.65763
848.4565, 15.81237
848.9386, 15.92567
849.4207, 17.26284
849.9028, 18.17412
850.3849, 17.83216
850.8671, 17.35236
851.3492, 17.50654
851.8313, 17.86935
852.3134, 17.72409
852.7955, 17.06057
853.2776, 16.56686
853.7598, 16.79046
854.2419, 16.33230
854.7240, 16.99580
855.2061, 16.30486
855.6882, 16.14693
856.1703, 16.63589
856.6525, 17.24860
857.1346, 17.73248
857.6167, 18.00788
858.0988, 17.85079
858.5809, 17.13655
859.0630, 16.84140
859.5452, 17.23046
860.0273, 17.56829
860.5094, 17.67791
860.9915, 17.60781
861.4736, 17.24215
861.9557, 16.67914
862.4379, 16.49660
862.9200, 17.17572
863.4021, 17.71538
863.8842, 17.70980
864.3663, 17.46965
864.8484, 17.21491
865.3306, 16.96488
865.8127, 16.61930
866.2948, 16.14447
866.7769, 15.83965
867.2590, 16.17852
867.7411, 16.82850
868.2233, 17.07044
868.7054, 16.95482
869.1875, 16.86615
869.6696, 16.91633
870.1517, 16.86137
870.6339, 16.42688
871.1160, 15.74892
871.5981, 15.44378
872.0802, 15.56439
872.5623, 15.89402
873.0444, 16.59433
873.5266, 17.19713
874.0087, 17.38908
874.4908, 17.33708
874.9729, 17.39152
875.4550, 17.62301
875.9371, 17.55822
876.4193, 16.86762
876.9014, 16.18718
877.3835, 15.66965
877.8656, 15.37720
878.3477, 15.44329
878.8298, 15.79984
879.3120, 16.16312
879.7941, 16.38657
880.2762, 16.58228
880.7583, 16.89738
881.2404, 17.23962
881.7225, 17.56501
882.2047, 17.78271
882.6868, 17.38658
883.1689, 16.16197
883.6510, 15.02478
884.1331, 15.28645
884.6152, 16.69842
885.0974, 17.31257
885.5795, 17.02149
886.0616, 16.66049
886.5437, 16.33620
887.0258, 16.21864
887.5079, 16.55976
887.9901, 17.19300
888.4722, 17.45021
888.9543, 17.15417
889.4364, 16.81328
889.9185, 16.25622
890.4006, 15.85513
890.8828, 15.74945
891.3649, 15.88309
891.8470, 16.26856
892.3291, 16.87290
892.8112, 17.36100
893.2933, 17.65181
893.7755, 17.72645
894.2576, 17.39607
894.7397, 16.95323
895.2218, 16.80038
895.7039, 16.89892
896.1860, 16.93095
896.6682, 16.73944
897.1503, 16.52023
897.6324, 16.57675
898.1145, 16.78363
898.5966, 16.67111
899.0787, 16.28532
899.5609, 16.22424
900.0430, 16.69299
900.5251, 17.29013
901.0072, 17.64934
901.4893, 17.78883
901.9714, 17.79103
902.4536, 17.66123
902.9357, 17.34518
903.4178, 16.65852
903.8999, 16.11033
904.3820, 16.05933
904.8641, 16.26299
905.3463, 16.27567
905.8284, 16.05260
906.3105, 16.01300
906.7926, 16.33974
907.2747, 16.65719
907.7568, 16.98241
908.2390, 17.14605
908.7211, 16.91609
909.2032, 16.40064
909.6853, 15.91583
910.1674, 15.54359
910.6495, 15.34488
911.1317, 15.44333
911.6138, 15.67131
912.0959, 15.87700
912.5780, 16.04527
913.0601, 16.17698
913.5422, 16.27215
914.0244, 16.32363
914.5065, 16.31807
914.9886, 16.27731
915.4707, 16.23068
915.9528, 16.18613
916.4349, 16.22879
916.9171, 16.37215
917.3992, 16.42406
917.8813, 16.27448
918.3634, 15.99006
918.8455, 15.63789
919.3276, 15.19525
919.8098, 15.13568
920.2919, 15.68280
920.7740, 16.03241
921.2561, 15.88158
921.7382, 15.62513
922.2203, 15.60692
922.7025, 15.75066
923.1846, 15.73890
923.6667, 15.40420
924.1488, 15.28080
924.6309, 15.57330
925.1130, 15.91007
925.5952, 16.14419
926.0773, 16.31496
926.5594, 16.53071
927.0415, 16.76805
927.5236, 16.79058
928.0057, 16.31620
928.4879, 15.87055
928.9700, 15.83152
929.4521, 15.98430
929.9342, 16.23122
930.4163, 16.42301
930.8984, 16.14604
931.3806, 15.27522
931.8627, 14.49066
932.3448, 14.54848
932.8269, 15.12197
933.3090, 15.71803
933.7911, 16.24684
934.2733, 16.16846
934.7554, 15.42003
935.2375, 14.80860
935.7196, 14.89960
936.2017, 15.35489
936.6838, 15.42992
937.1660, 15.09566
937.6481, 15.00256
938.1302, 15.20563
938.6123, 15.43301
939.0944, 15.64278
939.5765, 15.73480
940.0587, 15.53426
940.5408, 15.11574
941.0229, 15.04278
941.5050, 15.64221
941.9871, 15.98825
942.4692, 15.99122
942.9514, 15.80448
943.4335, 15.25930
943.9156, 14.68567
944.3977, 14.51971
944.8798, 14.78202
945.3619, 15.12268
945.8441, 15.64256
946.3262, 16.00156
946.8083, 16.08734
947.2904, 15.95595
947.7725, 15.42312
948.2546, 14.76754
948.7368, 14.64488
949.2189, 15.26523
949.7010, 15.81570
950.1831, 15.70707
950.6652, 15.32775
951.1473, 14.95732
951.6295, 14.65086
952.1116, 14.46054
952.5937, 14.41347
953.0758, 14.61812
953.5579, 15.16677
954.0400, 15.72982
954.5222, 15.81276
955.0043, 15.56014
955.4864, 15.33329
955.9685, 15.16657
956.4506, 15.28451
956.9327, 15.75158
957.4149, 15.94864
957.8970, 15.24737
958.3791, 14.02834
958.8612, 13.43823
959.3433, 13.50607
959.8254, 13.91223
960.3076, 14.78201
960.7897, 15.31028
961.2718, 15.05741
961.7539, 14.50081
962.2360, 14.22923
962.7181, 14.23007
963.2003, 14.22989
963.6824, 14.21959
964.1645, 14.22678
964.6466, 14.24681
965.1287, 14.29386
965.6108, 14.40461
966.0930, 14.53383
966.5751, 14.58220
967.0572, 14.52711
967.5393, 14.62415
968.0214, 15.16423
968.5035, 15.50490
968.9857, 15.25529
969.4678, 14.94036
969.9499, 15.05818
970.4320, 15.40910
970.9141, 15.44918
971.3962, 15.00804
971.8784, 14.66044
972.3605, 14.84273
972.8426, 15.02086
973.3247, 14.69295
973.8068, 14.22627
974.2889, 14.13332
974.7711, 14.38860
975.2532, 14.63020
975.7353, 14.69916
976.2174, 14.66268
976.6995, 14.52995
977.1816, 14.36439
977.6638, 14.19031
978.1459, 14.07119
978.6280, 14.20839
979.1101, 14.60250
979.5922, 14.98739
980.0743, 15.18801
980.5565, 15.22191
981.0386, 14.99186
981.5207, 14.62532
982.0028, 14.65091
982.4849, 15.04695
982.9670, 15.36879
983.4492, 15.46598
983.9313, 15.42064
984.4134, 15.28049
984.8955, 15.11699
985.3776, 15.23696
985.8597, 15.65874
986.3419, 15.70030
986.8240, 15.24296
987.3061, 14.82907
987.7882, 14.69975
988.2703, 14.67870
988.7524, 14.52382
989.2346, 14.27221
989.7167, 14.37722
990.1988, 15.09932
990.6809, 15.35307
991.1630, 14.78172
991.6451, 14.21286
992.1273, 14.02897
992.6094, 14.10990
993.0915, 14.33264
993.5736, 14.71381
994.0557, 14.91719
994.5378, 14.82229
995.0200, 14.72319
995.5021, 14.69995
995.9842, 14.62390
996.4663, 14.25624
996.9484, 13.86178
997.4305, 13.93870
997.9127, 14.56608
998.3948, 15.06962
998.8769, 15.36797
999.3590, 15.49245
999.8411, 15.22397
1000.323, 14.99686
1000.805, 15.33111
1001.287, 15.91162
1001.770, 16.01409
1002.252, 15.45826
1002.734, 14.92477
1003.216, 14.68018
1003.698, 14.55914
1004.180, 14.42510
1004.662, 14.39544
1005.144, 14.64094
1005.627, 15.10432
1006.109, 15.72062
1006.591, 16.49678
1007.073, 16.79425
1007.555, 15.68379
1008.037, 14.35579
1008.519, 13.89680
1009.001, 14.04294
1009.483, 14.55345
1009.966, 15.20935
1010.448, 15.49865
1010.930, 15.16188
1011.412, 14.75969
1011.894, 14.92759
1012.376, 15.33683
1012.858, 15.51558
1013.340, 15.50328
1013.823, 15.40086
1014.305, 15.24571
1014.787, 15.06494
1015.269, 14.86640
1015.751, 14.77426
1016.233, 15.05293
1016.715, 15.54521
1017.197, 15.82719
1017.679, 15.90969
1018.162, 15.87021
1018.644, 15.73025
1019.126, 15.49105
1019.608, 15.13531
1020.090, 14.82532
1020.572, 14.93971
1021.054, 14.77176
1021.536, 14.80870
1022.018, 15.05130
1022.501, 15.07908
1022.983, 15.72231
1023.465, 16.21071
1023.947, 15.93664
1024.429, 15.31564
1024.911, 15.26923
1025.393, 15.81311
1025.875, 16.21888
1026.358, 16.49503
1026.840, 16.49560
1027.322, 16.09405
1027.804, 15.83612
1028.286, 16.20096
1028.768, 16.90725
1029.250, 17.23971
1029.732, 17.14810
1030.214, 17.03429
1030.697, 16.84106
1031.179, 16.87271
1031.661, 17.37123
1032.143, 17.70661
1032.625, 17.22688
1033.107, 16.34520
1033.589, 16.25621
1034.071, 17.11810
1034.553, 18.10402
1035.036, 19.48331
1035.518, 20.40183
1036.000, 20.48121
1036.482, 20.26611
1036.964, 20.10809
1037.446, 20.01205
1037.928, 20.00933
1038.410, 20.16174
1038.893, 20.17329
1039.375, 19.62869
1039.857, 19.61761
1040.339, 20.90810
1040.821, 22.28380
1041.303, 22.68078
1041.785, 22.47207
1042.267, 22.71800
1042.750, 23.56123
1043.232, 24.37569
1043.714, 25.13903
1044.196, 25.89206
1044.678, 26.50002
1045.160, 27.23099
1045.642, 28.26392
1046.124, 29.56738
1046.606, 31.07621
1047.089, 32.80307
1047.571, 34.65322
1048.053, 36.69360
1048.535, 38.73687
1049.017, 40.98470
1049.499, 42.99545
1049.981, 44.33100
1050.463, 45.19973
1050.945, 46.03049
1051.428, 46.84328
1051.910, 47.80693
1052.392, 49.18288
1052.874, 50.40181
1053.356, 51.21539
1053.838, 51.87449
1054.320, 52.50432
1054.802, 53.14659
1055.285, 53.70598
1055.767, 54.09925
1056.249, 55.32099
1056.731, 58.06825
1057.213, 61.10597
1057.695, 63.98234
1058.177, 66.96030
1058.659, 70.23962
1059.141, 73.79102
1059.624, 77.70384
1060.106, 81.97853
1060.588, 85.75375
1061.070, 89.31745
1061.552, 91.58299
1062.034, 92.19508
1062.516, 91.26492
1062.998, 88.80289
1063.480, 84.89861
1063.963, 79.21793
1064.445, 71.86523
1064.927, 64.96772
1065.409, 59.34454
1065.891, 54.26785
1066.373, 49.37916
1066.855, 45.01888
1067.337, 41.46267
1067.820, 38.61271
1068.302, 36.47563
1068.784, 34.94269
1069.266, 33.22658
1069.748, 30.66095
1070.230, 28.52751
1070.712, 27.67599
1071.194, 27.17115
1071.677, 26.40105
1072.159, 25.45908
1072.641, 24.52671
1073.123, 23.63231
1073.605, 22.74578
1074.087, 21.71610
1074.569, 21.02965
1075.051, 21.27239
1075.533, 21.56034
1076.016, 21.17239
1076.498, 20.50150
1076.980, 20.12512
1077.462, 20.02333
1077.944, 19.75612
1078.426, 19.08162
1078.908, 18.57059
1079.390, 18.45684
1079.873, 18.62672
1080.355, 19.31985
1080.837, 20.03099
1081.319, 20.07586
1081.801, 19.61333
1082.283, 19.35111
1082.765, 19.54663
1083.247, 19.60633
1083.729, 19.07183
1084.212, 18.55081
1084.694, 18.32985
1085.176, 18.35298
1085.658, 18.83256
1086.140, 19.42840
1086.622, 19.23915
1087.104, 18.00463
1087.586, 17.18870
1088.068, 17.65578
1088.551, 18.37113
1089.033, 19.03579
1089.515, 19.53161
1089.997, 19.74962
1090.479, 19.73420
1090.961, 19.52834
1091.443, 19.15482
1091.925, 18.82028
1092.408, 18.58885
1092.890, 18.42870
1093.372, 18.31849
1093.854, 18.28362
1094.336, 18.49516
1094.818, 18.70978
1095.300, 18.47799
1095.782, 17.83194
1096.265, 17.39405
1096.747, 17.30617
1097.229, 17.52072
1097.711, 18.36965
1098.193, 19.12297
1098.675, 19.17794
1099.157, 19.02487
1099.639, 19.28760
1100.121, 19.90695
1100.604, 20.38878
1101.086, 20.60873
1101.568, 20.75576
1102.050, 20.75506
1102.532, 20.84606
1103.014, 21.27888
1103.496, 21.72468
1103.978, 21.77553
1104.460, 21.61460
1104.943, 21.83669
1105.425, 22.65592
1105.907, 23.05895
1106.389, 22.30520
1106.871, 21.88245
1107.353, 22.55478
1107.835, 23.36308
1108.317, 23.53994
1108.800, 23.44387
1109.282, 23.75218
1109.764, 24.52757
1110.246, 25.24768
1110.728, 25.97576
1111.210, 26.48309
1111.692, 26.31565
1112.174, 26.41358
1112.656, 27.44832
1113.139, 28.85082
1113.621, 29.99843
1114.103, 30.88137
1114.585, 31.52327
1115.067, 31.53338
1115.549, 32.00740
1116.031, 33.26797
1116.513, 34.52023
1116.995, 35.15584
1117.478, 36.08522
1117.960, 38.50156
1118.442, 41.75479
1118.924, 43.71728
1119.406, 43.91038
1119.888, 44.68867
1120.370, 46.05824
1120.852, 48.04021
1121.335, 50.88440
1121.817, 53.87632
1122.299, 56.37825
1122.781, 58.92500
1123.263, 62.65910
1123.745, 67.61767
1124.227, 71.27058
1124.709, 72.77425
1125.192, 76.08784
1125.674, 82.21372
1126.156, 88.49198
1126.638, 93.59779
1127.120, 98.57475
1127.602, 104.7093
1128.084, 111.7497
1128.566, 118.5094
1129.048, 125.0007
1129.531, 131.1594
1130.013, 137.0067
1130.495, 142.7854
1130.977, 148.7045
1131.459, 153.6019
1131.941, 156.5150
1132.423, 157.7325
1132.905, 157.9192
1133.387, 157.0295
1133.870, 154.2116
1134.352, 149.5042
1134.834, 143.8640
1135.316, 137.4989
1135.798, 131.0831
1136.280, 125.0083
1136.762, 118.6338
1137.244, 110.8620
1137.727, 102.3297
1138.209, 94.84953
1138.691, 88.34451
1139.173, 82.63848
1139.655, 77.65714
1140.137, 73.19614
1140.619, 69.15562
1141.101, 65.39659
1141.583, 61.83375
1142.066, 58.31416
1142.548, 54.38320
1143.030, 50.46252
1143.512, 47.52870
1143.994, 45.35044
1144.476, 43.12358
1144.958, 40.77643
1145.440, 38.89817
1145.922, 37.80248
1146.405, 36.86556
1146.887, 35.41721
1147.369, 33.89720
1147.851, 32.76902
1148.333, 31.92049
1148.815, 31.30606
1149.297, 30.79519
1149.779, 30.07026
1150.262, 29.08290
1150.744, 28.29025
1151.226, 28.12213
1151.708, 27.95230
1152.190, 27.24680
1152.672, 26.50518
1153.154, 26.24648
1153.636, 26.16813
1154.119, 25.74704
1154.601, 25.02030
1155.083, 24.47265
1155.565, 24.29821
1156.047, 24.08334
1156.529, 23.74309
1157.011, 23.26916
1157.493, 22.51411
1157.975, 21.75694
1158.458, 21.20246
1158.940, 20.83374
1159.422, 20.66035
1159.904, 20.71683
1160.386, 20.46377
1160.868, 19.50562
1161.350, 18.77428
1161.832, 18.27015
1162.314, 18.14827
1162.797, 18.87727
1163.279, 19.62649
1163.761, 19.47045
1164.243, 18.57325
1164.725, 17.65282
1165.207, 16.49244
1165.689, 16.13909
1166.171, 16.95611
1166.654, 17.49283
1167.136, 17.37583
1167.618, 16.97319
1168.100, 16.45964
1168.582, 15.95635
1169.064, 15.66374
1169.546, 15.57572
1170.028, 15.71644
1170.510, 16.09701
1170.993, 16.22724
1171.475, 16.05423
1171.957, 15.63667
1172.439, 14.98446
1172.921, 14.35132
1173.403, 13.94125
1173.885, 13.78654
1174.367, 14.07373
1174.849, 14.64524
1175.332, 15.00353
1175.814, 15.14424
1176.296, 15.07273
1176.778, 14.83162
1177.260, 14.60053
1177.742, 14.46619
1178.224, 14.39199
1178.706, 14.38439
1179.189, 14.36740
1179.671, 14.22222
1180.153, 14.01837
1180.635, 13.85031
1181.117, 13.71442
1181.599, 13.52264
1182.081, 13.30729
1182.563, 13.37348
1183.046, 14.02675
1183.528, 14.43419
1184.010, 13.71624
1184.492, 13.03253
1184.974, 13.39153
1185.456, 14.00832
1185.938, 13.90063
1186.420, 13.38115
1186.902, 13.46996
1187.385, 14.37723
1187.867, 14.81268
1188.349, 13.96364
1188.831, 13.47221
1189.313, 14.08430
1189.795, 14.58768
1190.277, 14.24122
1190.759, 13.63475
1191.241, 13.25426
1191.724, 13.12513
1192.206, 13.41414
1192.688, 14.38205
1193.170, 14.59605
1193.652, 13.72394
1194.134, 13.12932
1194.616, 13.12946
1195.098, 13.29807
1195.581, 13.43490
1196.063, 13.49481
1196.545, 13.41622
1197.027, 13.20818
1197.509, 12.75567
1197.991, 12.11401
1198.473, 12.40694
1198.955, 13.60016
1199.438, 14.34268
1199.920, 14.26695
1200.402, 13.72049
1200.884, 12.89282
1201.366, 12.15408
1201.848, 12.05543
1202.330, 12.34302
1202.812, 12.73239
1203.294, 13.04336
1203.776, 12.72604
1204.259, 12.01478
1204.741, 11.70439
1205.223, 11.98771
1205.705, 12.43942
1206.187, 12.98341
1206.669, 13.18998
1207.151, 12.29015
1207.633, 11.45010
1208.116, 11.83286
1208.598, 12.60448
1209.080, 12.63562
1209.562, 12.20439
1210.044, 12.41368
1210.526, 13.53804
1211.008, 14.11376
1211.490, 13.53996
1211.973, 12.88492
1212.455, 12.07740
1212.937, 11.56235
1213.419, 11.60738
1213.901, 11.94835
1214.383, 12.43495
1214.865, 12.96368
1215.347, 13.17394
1215.829, 13.03187
1216.312, 12.75830
1216.794, 12.27799
1217.276, 12.09890
1217.758, 12.36325
1218.240, 12.55010
1218.722, 12.38001
1219.204, 12.22301
1219.686, 12.52766
1220.168, 13.07583
1220.651, 13.30060
1221.133, 13.28274
1221.615, 13.40152
1222.097, 13.58919
1222.579, 13.41744
1223.061, 12.89332
1223.543, 12.52495
1224.025, 12.55292
1224.508, 12.72889
1224.990, 12.94381
1225.472, 13.06714
1225.954, 12.94136
1226.436, 12.67265
1226.918, 12.26017
1227.400, 11.86215
1227.882, 11.64749
1228.365, 11.68104
1228.847, 12.15890
1229.329, 13.36455
1229.811, 14.03259
1230.293, 13.46230
1230.775, 12.79409
1231.257, 12.26220
1231.739, 11.89861
1232.221, 11.83337
1232.703, 11.85917
1233.186, 11.66162
1233.668, 11.75034
1234.150, 11.77196
1234.632, 11.72765
1235.114, 11.87569
1235.596, 11.63441
1236.078, 11.53493
1236.560, 11.74388
1237.043, 11.72917
1237.525, 11.12558
1238.007, 10.55454
1238.489, 10.89453
1238.971, 11.76978
1239.453, 12.21364
1239.935, 12.29946
1240.417, 12.13986
1240.900, 11.85318
1241.382, 11.84856
1241.864, 12.13162
1242.346, 12.23215
1242.828, 11.91289
1243.310, 11.60405
1243.792, 11.78190
1244.274, 11.94898
1244.756, 11.56735
1245.239, 11.11596
1245.721, 10.97969
1246.203, 11.14022
1246.685, 11.69465
1247.167, 12.49159
1247.649, 12.80010
1248.131, 12.26023
1248.613, 12.02355
1249.095, 12.73491
1249.578, 12.95770
1250.060, 12.01604
1250.542, 11.24279
1251.024, 11.41985
1251.506, 11.90480
1251.988, 11.89759
1252.470, 11.58568
1252.952, 11.80394
1253.435, 12.57966
1253.917, 12.66150
1254.399, 12.06024
1254.881, 11.56374
1255.363, 11.33350
1255.845, 11.45789
1256.327, 11.96757
1256.809, 12.49393
1257.292, 12.71711
1257.774, 12.69668
1258.256, 12.40901
1258.738, 12.01167
1259.220, 11.52807
1259.702, 11.21462
1260.184, 11.77130
1260.666, 12.84548
1261.148, 13.14214
1261.630, 12.30406
1262.113, 11.56025
1262.595, 11.31559
1263.077, 11.29482
1263.559, 11.47700
1264.041, 11.79507
1264.523, 12.54702
1265.005, 13.09330
1265.487, 12.68753
1265.970, 11.79737
1266.452, 11.53493
1266.934, 11.91327
1267.416, 11.97371
1267.898, 11.66123
1268.380, 11.44164
1268.862, 11.35919
1269.344, 11.35369
1269.827, 11.40494
1270.309, 11.69124
1270.791, 12.38435
1271.273, 13.00236
1271.755, 12.67772
1272.237, 11.94866
1272.719, 11.76797
1273.201, 11.93374
1273.683, 12.19101
1274.166, 12.44241
1274.648, 12.61194
1275.130, 12.65294
1275.612, 12.39440
1276.094, 11.63041
1276.576, 11.19320
1277.058, 11.69791
1277.540, 12.19739
1278.022, 12.30204
1278.505, 12.31079
1278.987, 12.41885
1279.469, 12.54350
1279.951, 12.62442
1280.433, 12.62608
1280.915, 12.35042
1281.397, 11.71748
1281.879, 11.48861
1282.362, 11.70161
1282.844, 11.89853
1283.326, 12.00603
1283.808, 12.08990
1284.290, 12.17743
1284.772, 12.24678
1285.254, 12.27380
1285.736, 12.25851
##END=



