##NAMES=Petedunnite
##RRUFFID=R070207
##IDEAL CHEMISTRY=CaZn^2+^Si_2_O_6_
##LOCALITY=Franklin, New Jersey, USA
##OWNER=RRUFF
##SOURCE=William W. Pinch
##DESCRIPTION=Dark green fine-grained massive
##STATUS=The identification of this mineral is confirmed by single-crystal X-ray diffraction and chemical analysis.
##URL=rruff.info/R070207
##MEASURED CHEMISTRY=(Ca_0.94_Mn_0.06_)_Σ=1_(Zn_0.33_Fe^2+^_0.29_Mg_0.21_Mn_0.15_Fe^3+^_0.02_)_Σ=1_(Si_1.98_Al_0.02_)_Σ=2_O_6_ ; = gray phase
152.1101, 4297.652
152.5922, 4343.166
153.0743, 4388.092
153.5565, 4434.714
154.0386, 4483.154
154.5207, 4527.854
155.0028, 4566.874
155.4849, 4602.570
155.9670, 4637.766
156.4492, 4680.291
156.9313, 4715.630
157.4134, 4738.144
157.8955, 4745.608
158.3776, 4750.484
158.8597, 4751.416
159.3419, 4752.761
159.8240, 4760.530
160.3061, 4785.357
160.7882, 4810.537
161.2703, 4827.466
161.7524, 4833.412
162.2346, 4836.598
162.7167, 4832.087
163.1988, 4826.949
163.6809, 4836.453
164.1630, 4886.645
164.6451, 4942.926
165.1273, 4977.666
165.6094, 4972.765
166.0915, 4967.414
166.5736, 4985.778
167.0557, 5023.425
167.5379, 5065.215
168.0200, 5106.811
168.5021, 5146.326
168.9842, 5181.553
169.4663, 5211.017
169.9484, 5236.873
170.4306, 5262.415
170.9127, 5286.808
171.3948, 5305.136
171.8769, 5307.728
172.3590, 5302.898
172.8411, 5303.012
173.3233, 5316.440
173.8054, 5334.742
174.2875, 5347.286
174.7696, 5354.004
175.2517, 5363.577
175.7338, 5388.882
176.2160, 5422.981
176.6981, 5450.463
177.1802, 5459.330
177.6623, 5458.996
178.1444, 5463.366
178.6265, 5473.042
179.1087, 5485.404
179.5908, 5498.048
180.0729, 5510.993
180.5550, 5524.619
181.0371, 5541.184
181.5192, 5558.392
182.0014, 5568.229
182.4835, 5567.764
182.9656, 5568.154
183.4477, 5589.755
183.9298, 5629.610
184.4119, 5664.695
184.8941, 5673.375
185.3762, 5664.759
185.8583, 5672.274
186.3404, 5703.346
186.8225, 5745.220
187.3046, 5781.808
187.7868, 5812.687
188.2689, 5829.230
188.7510, 5813.005
189.2331, 5771.073
189.7152, 5748.991
190.1973, 5759.271
190.6795, 5788.811
191.1616, 5806.908
191.6437, 5812.467
192.1258, 5816.210
192.6079, 5828.980
193.0900, 5850.156
193.5722, 5865.510
194.0543, 5871.598
194.5364, 5869.986
195.0185, 5863.425
195.5006, 5850.088
195.9827, 5840.280
196.4649, 5846.583
196.9470, 5869.863
197.4291, 5890.901
197.9112, 5904.236
198.3933, 5911.042
198.8754, 5919.821
199.3576, 5931.395
199.8397, 5942.552
200.3218, 5949.144
200.8039, 5950.620
201.2860, 5951.063
201.7681, 5951.125
202.2503, 5950.862
202.7324, 5952.279
203.2145, 5955.680
203.6966, 5960.200
204.1787, 5963.522
204.6608, 5964.217
205.1430, 5970.057
205.6251, 5985.955
206.1072, 6013.136
206.5893, 6033.196
207.0714, 6043.224
207.5535, 6049.737
208.0357, 6066.038
208.5178, 6097.527
208.9999, 6121.558
209.4820, 6126.517
209.9641, 6107.385
210.4462, 6097.722
210.9284, 6100.420
211.4105, 6110.257
211.8926, 6117.077
212.3747, 6120.731
212.8568, 6121.874
213.3389, 6118.828
213.8211, 6107.833
214.3032, 6107.380
214.7853, 6121.453
215.2674, 6144.324
215.7495, 6160.749
216.2316, 6167.890
216.7138, 6174.527
217.1959, 6185.143
217.6780, 6201.443
218.1601, 6216.480
218.6422, 6228.318
219.1243, 6239.034
219.6065, 6256.897
220.0886, 6288.792
220.5707, 6316.141
221.0528, 6325.944
221.5349, 6308.408
222.0170, 6299.396
222.4992, 6302.010
222.9813, 6314.603
223.4634, 6331.656
223.9455, 6357.163
224.4276, 6381.620
224.9097, 6398.850
225.3919, 6406.931
225.8740, 6412.683
226.3561, 6415.306
226.8382, 6415.743
227.3203, 6419.337
227.8024, 6425.304
228.2846, 6435.398
228.7667, 6452.540
229.2488, 6483.327
229.7309, 6505.982
230.2130, 6515.666
230.6951, 6514.101
231.1773, 6515.193
231.6594, 6519.697
232.1415, 6525.975
232.6236, 6533.091
233.1057, 6541.883
233.5878, 6549.843
234.0700, 6556.704
234.5521, 6562.456
235.0342, 6567.033
235.5163, 6568.892
235.9984, 6571.234
236.4805, 6577.251
236.9627, 6590.617
237.4448, 6600.146
237.9269, 6603.342
238.4090, 6600.419
238.8911, 6597.554
239.3732, 6594.325
239.8554, 6591.597
240.3375, 6588.313
240.8196, 6575.508
241.3017, 6580.253
241.7838, 6615.542
242.2659, 6681.021
242.7481, 6720.856
243.2302, 6723.949
243.7123, 6712.648
244.1944, 6706.777
244.6765, 6709.230
245.1586, 6711.763
245.6408, 6713.298
246.1229, 6713.855
246.6050, 6711.991
247.0871, 6702.386
247.5692, 6695.897
248.0513, 6704.226
248.5335, 6736.640
249.0156, 6765.782
249.4977, 6784.909
249.9798, 6793.909
250.4619, 6808.121
250.9440, 6833.903
251.4262, 6858.164
251.9083, 6866.958
252.3904, 6852.464
252.8725, 6837.963
253.3546, 6825.962
253.8367, 6816.233
254.3189, 6817.618
254.8010, 6833.471
255.2831, 6856.544
255.7652, 6881.290
256.2473, 6911.655
256.7295, 6933.928
257.2116, 6942.168
257.6937, 6936.149
258.1758, 6937.913
258.6579, 6951.372
259.1400, 6967.854
259.6222, 6977.178
260.1043, 6973.595
260.5864, 6977.415
261.0685, 6995.484
261.5506, 7027.393
262.0327, 7055.634
262.5149, 7082.141
262.9970, 7101.903
263.4791, 7106.838
263.9612, 7090.248
264.4433, 7077.898
264.9254, 7073.720
265.4076, 7077.901
265.8897, 7097.580
266.3718, 7141.902
266.8539, 7186.948
267.3360, 7203.816
267.8181, 7180.845
268.3003, 7171.427
268.7824, 7192.346
269.2645, 7241.010
269.7466, 7275.273
270.2287, 7291.156
270.7108, 7300.474
271.1930, 7314.784
271.6751, 7334.939
272.1572, 7356.486
272.6393, 7380.945
273.1214, 7407.160
273.6035, 7418.484
274.0857, 7410.295
274.5678, 7399.381
275.0499, 7402.267
275.5320, 7420.558
276.0141, 7442.087
276.4962, 7465.023
276.9784, 7489.205
277.4605, 7514.314
277.9426, 7541.805
278.4247, 7565.371
278.9068, 7574.928
279.3889, 7569.059
279.8711, 7571.904
280.3532, 7593.066
280.8353, 7626.149
281.3174, 7640.426
281.7995, 7632.069
282.2816, 7623.741
282.7638, 7642.398
283.2459, 7687.363
283.7280, 7714.450
284.2101, 7709.663
284.6922, 7683.061
285.1743, 7665.498
285.6565, 7657.825
286.1386, 7652.761
286.6207, 7644.612
287.1028, 7633.665
287.5849, 7621.629
288.0670, 7605.922
288.5492, 7592.114
289.0313, 7596.412
289.5134, 7619.105
289.9955, 7645.143
290.4776, 7663.769
290.9597, 7675.866
291.4419, 7686.047
291.9240, 7694.413
292.4061, 7702.225
292.8882, 7711.525
293.3703, 7722.290
293.8524, 7734.625
294.3346, 7751.788
294.8167, 7770.879
295.2988, 7782.928
295.7809, 7784.156
296.2630, 7781.864
296.7451, 7786.515
297.2273, 7797.531
297.7094, 7810.798
298.1915, 7819.066
298.6736, 7828.328
299.1557, 7854.166
299.6378, 7905.293
300.1200, 7957.998
300.6021, 7980.261
301.0842, 7978.428
301.5663, 7978.802
302.0484, 8003.883
302.5305, 8038.596
303.0127, 8057.883
303.4948, 8054.115
303.9769, 8050.577
304.4590, 8071.013
304.9411, 8109.708
305.4232, 8151.106
305.9054, 8191.938
306.3875, 8228.941
306.8696, 8256.451
307.3517, 8272.221
307.8338, 8286.610
308.3159, 8312.909
308.7981, 8343.173
309.2802, 8362.068
309.7623, 8347.391
310.2444, 8328.295
310.7265, 8330.448
311.2086, 8358.969
311.6908, 8385.358
312.1729, 8389.736
312.6550, 8382.188
313.1371, 8377.056
313.6192, 8383.518
314.1013, 8391.299
314.5835, 8394.943
315.0656, 8393.928
315.5477, 8391.560
316.0298, 8392.768
316.5119, 8392.173
316.9940, 8383.827
317.4762, 8353.612
317.9583, 8326.655
318.4404, 8312.198
318.9225, 8310.515
319.4046, 8316.271
319.8867, 8340.555
320.3689, 8365.387
320.8510, 8375.845
321.3331, 8358.787
321.8152, 8337.338
322.2973, 8310.892
322.7794, 8281.064
323.2616, 8264.357
323.7437, 8271.604
324.2258, 8287.632
324.7079, 8303.007
325.1900, 8320.185
325.6721, 8332.793
326.1543, 8334.580
326.6364, 8328.869
327.1185, 8335.062
327.6006, 8374.540
328.0827, 8409.074
328.5648, 8420.660
329.0470, 8378.372
329.5291, 8357.432
330.0112, 8367.389
330.4933, 8398.396
330.9754, 8422.618
331.4576, 8438.199
331.9397, 8449.274
332.4218, 8456.495
332.9039, 8455.902
333.3860, 8462.169
333.8681, 8478.786
334.3503, 8500.114
334.8324, 8514.426
335.3145, 8517.555
335.7966, 8522.475
336.2787, 8534.778
336.7608, 8555.790
337.2430, 8573.564
337.7251, 8586.510
338.2072, 8597.960
338.6893, 8612.468
339.1714, 8630.372
339.6535, 8649.400
340.1357, 8670.925
340.6178, 8694.249
341.0999, 8705.976
341.5820, 8704.107
342.0641, 8697.242
342.5462, 8696.185
343.0284, 8700.917
343.5105, 8696.914
343.9926, 8672.188
344.4747, 8639.009
344.9568, 8646.214
345.4389, 8696.827
345.9211, 8747.723
346.4032, 8754.767
346.8853, 8727.608
347.3674, 8711.803
347.8495, 8720.671
348.3316, 8740.747
348.8138, 8747.925
349.2959, 8743.430
349.7780, 8739.124
350.2601, 8745.710
350.7422, 8757.825
351.2243, 8763.181
351.7065, 8756.942
352.1886, 8751.259
352.6707, 8763.027
353.1528, 8787.550
353.6349, 8809.203
354.1170, 8820.469
354.5992, 8824.309
355.0813, 8819.771
355.5634, 8803.775
356.0455, 8796.689
356.5276, 8819.777
357.0097, 8861.439
357.4919, 8900.947
357.9740, 8938.365
358.4561, 8965.055
358.9382, 8968.695
359.4203, 8947.687
359.9024, 8934.255
360.3846, 8943.086
360.8667, 8967.522
361.3488, 9000.695
361.8309, 9054.744
362.3130, 9103.084
362.7951, 9135.083
363.2773, 9151.601
363.7594, 9164.518
364.2415, 9163.281
364.7236, 9167.635
365.2057, 9190.527
365.6878, 9256.213
366.1700, 9314.563
366.6521, 9360.242
367.1342, 9394.402
367.6163, 9421.804
368.0984, 9431.399
368.5805, 9443.529
369.0627, 9466.588
369.5448, 9505.764
370.0269, 9545.688
370.5090, 9588.319
370.9911, 9630.762
371.4732, 9666.606
371.9554, 9690.945
372.4375, 9716.411
372.9196, 9749.584
373.4017, 9794.099
373.8838, 9822.040
374.3659, 9827.188
374.8481, 9824.873
375.3302, 9834.855
375.8123, 9860.629
376.2944, 9884.690
376.7765, 9904.797
377.2586, 9920.166
377.7408, 9922.821
378.2229, 9911.293
378.7050, 9893.578
379.1871, 9877.601
379.6692, 9863.093
380.1513, 9839.771
380.6335, 9802.351
381.1156, 9759.201
381.5977, 9732.124
382.0798, 9720.423
382.5619, 9706.930
383.0440, 9672.492
383.5262, 9627.260
384.0083, 9603.236
384.4904, 9609.850
384.9725, 9618.103
385.4546, 9588.129
385.9367, 9529.807
386.4189, 9474.154
386.9010, 9430.726
387.3831, 9400.949
387.8652, 9389.262
388.3473, 9396.534
388.8294, 9409.771
389.3116, 9430.832
389.7937, 9448.999
390.2758, 9449.582
390.7579, 9409.563
391.2400, 9364.749
391.7221, 9331.874
392.2043, 9311.276
392.6864, 9302.677
393.1685, 9318.236
393.6506, 9339.093
394.1327, 9351.092
394.6148, 9348.875
395.0970, 9340.635
395.5791, 9319.378
396.0612, 9292.235
396.5433, 9280.677
397.0254, 9303.545
397.5075, 9330.098
397.9897, 9348.546
398.4718, 9356.567
398.9539, 9360.137
399.4360, 9354.762
399.9181, 9346.688
400.4002, 9344.447
400.8824, 9347.189
401.3645, 9357.566
401.8466, 9380.602
402.3287, 9417.507
402.8108, 9436.092
403.2929, 9427.413
403.7751, 9413.585
404.2572, 9416.054
404.7393, 9439.647
405.2214, 9457.330
405.7035, 9461.403
406.1856, 9458.222
406.6678, 9473.188
407.1499, 9509.878
407.6320, 9540.637
408.1141, 9539.603
408.5962, 9511.372
409.0783, 9501.793
409.5605, 9516.410
410.0426, 9544.830
410.5247, 9584.441
411.0068, 9629.845
411.4889, 9652.561
411.9710, 9613.221
412.4532, 9549.353
412.9353, 9534.516
413.4174, 9571.649
413.8995, 9616.050
414.3816, 9628.592
414.8637, 9623.402
415.3459, 9624.414
415.8280, 9648.201
416.3101, 9672.030
416.7922, 9671.715
417.2743, 9653.462
417.7564, 9645.813
418.2386, 9678.723
418.7207, 9718.732
419.2028, 9738.867
419.6849, 9725.498
420.1670, 9712.020
420.6491, 9710.397
421.1313, 9716.007
421.6134, 9720.361
422.0955, 9720.512
422.5776, 9720.100
423.0597, 9716.997
423.5418, 9707.658
424.0240, 9714.430
424.5061, 9753.803
424.9882, 9800.358
425.4703, 9832.458
425.9524, 9842.580
426.4345, 9850.448
426.9167, 9858.946
427.3988, 9867.358
427.8809, 9869.959
428.3630, 9862.976
428.8451, 9857.610
429.3272, 9862.511
429.8094, 9880.299
430.2915, 9889.802
430.7736, 9887.329
431.2557, 9880.570
431.7378, 9881.893
432.2199, 9891.348
432.7021, 9907.888
433.1842, 9940.041
433.6663, 9979.104
434.1484, 9986.049
434.6305, 9958.694
435.1126, 9932.373
435.5948, 9947.421
436.0769, 9990.800
436.5590, 10028.79
437.0411, 10053.19
437.5232, 10066.48
438.0053, 10064.73
438.4875, 10051.92
438.9696, 10044.00
439.4517, 10056.78
439.9338, 10075.42
440.4159, 10084.62
440.8980, 10079.05
441.3802, 10075.89
441.8623, 10084.03
442.3444, 10099.91
442.8265, 10118.45
443.3086, 10141.26
443.7907, 10163.46
444.2729, 10186.38
444.7550, 10209.87
445.2371, 10222.08
445.7192, 10209.81
446.2013, 10193.25
446.6834, 10185.45
447.1656, 10187.75
447.6477, 10197.51
448.1298, 10219.19
448.6119, 10247.86
449.0940, 10269.38
449.5761, 10282.44
450.0583, 10291.42
450.5404, 10296.24
451.0225, 10295.92
451.5046, 10300.88
451.9867, 10309.86
452.4688, 10326.63
452.9510, 10364.88
453.4331, 10424.94
453.9152, 10462.11
454.3973, 10459.72
454.8794, 10430.52
455.3615, 10398.56
455.8437, 10364.23
456.3258, 10345.98
456.8079, 10372.96
457.2900, 10423.01
457.7721, 10446.56
458.2542, 10431.36
458.7364, 10411.06
459.2185, 10419.40
459.7006, 10447.38
460.1827, 10475.82
460.6648, 10501.16
461.1469, 10520.26
461.6291, 10526.90
462.1112, 10521.93
462.5933, 10522.39
463.0754, 10544.07
463.5575, 10569.81
464.0396, 10586.20
464.5218, 10591.37
465.0039, 10585.74
465.4860, 10552.95
465.9681, 10508.63
466.4502, 10493.69
466.9323, 10542.44
467.4145, 10588.34
467.8966, 10608.89
468.3787, 10596.71
468.8608, 10600.16
469.3429, 10627.36
469.8250, 10661.04
470.3072, 10684.44
470.7893, 10696.42
471.2714, 10701.10
471.7535, 10694.75
472.2356, 10683.78
472.7177, 10695.05
473.1999, 10731.20
473.6820, 10761.96
474.1641, 10760.76
474.6462, 10736.39
475.1284, 10730.63
475.6105, 10748.16
476.0926, 10773.23
476.5747, 10787.91
477.0568, 10795.60
477.5389, 10804.80
478.0211, 10820.16
478.5032, 10837.47
478.9853, 10855.09
479.4674, 10872.15
479.9495, 10882.76
480.4316, 10884.83
480.9138, 10878.39
481.3959, 10858.59
481.8780, 10810.48
482.3601, 10784.19
482.8422, 10813.83
483.3243, 10872.26
483.8065, 10917.27
484.2886, 10933.77
484.7707, 10943.54
485.2528, 10945.36
485.7349, 10939.07
486.2170, 10955.03
486.6992, 11017.87
487.1813, 11076.76
487.6634, 11094.48
488.1455, 11049.50
488.6276, 11027.40
489.1097, 11038.97
489.5919, 11069.87
490.0740, 11091.37
490.5561, 11102.50
491.0382, 11113.75
491.5203, 11129.11
492.0024, 11148.08
492.4846, 11167.89
492.9667, 11188.44
493.4488, 11210.12
493.9309, 11240.18
494.4130, 11271.31
494.8951, 11282.28
495.3773, 11260.03
495.8594, 11234.38
496.3415, 11237.48
496.8236, 11261.21
497.3057, 11284.90
497.7878, 11293.53
498.2700, 11302.69
498.7521, 11326.77
499.2342, 11367.72
499.7163, 11400.79
500.1984, 11411.16
500.6805, 11412.44
501.1627, 11415.60
501.6448, 11422.24
502.1269, 11430.96
502.6090, 11442.71
503.0911, 11456.49
503.5732, 11471.21
504.0554, 11497.21
504.5375, 11507.64
505.0196, 11484.02
505.5017, 11420.57
505.9838, 11399.52
506.4659, 11431.91
506.9481, 11481.19
507.4302, 11511.47
507.9123, 11522.76
508.3944, 11530.04
508.8765, 11533.48
509.3586, 11538.38
509.8408, 11559.90
510.3229, 11595.06
510.8050, 11623.28
511.2871, 11622.26
511.7692, 11611.37
512.2513, 11623.46
512.7335, 11660.57
513.2156, 11695.36
513.6977, 11704.01
514.1798, 11701.14
514.6619, 11703.93
515.1440, 11724.21
515.6262, 11742.00
516.1083, 11752.55
516.5904, 11754.78
517.0725, 11745.61
517.5546, 11694.49
518.0367, 11659.07
518.5189, 11667.93
519.0010, 11729.93
519.4831, 11776.73
519.9652, 11797.68
520.4473, 11813.57
520.9294, 11846.01
521.4116, 11906.43
521.8937, 11941.13
522.3758, 11936.01
522.8579, 11908.85
523.3400, 11902.97
523.8221, 11919.64
524.3043, 11938.31
524.7864, 11946.47
525.2685, 11949.01
525.7506, 11966.06
526.2327, 11998.25
526.7148, 12026.82
527.1970, 12036.22
527.6791, 12031.04
528.1612, 12015.73
528.6433, 11980.90
529.1254, 11957.79
529.6075, 11981.89
530.0897, 12034.42
530.5718, 12075.66
531.0539, 12083.17
531.5360, 12082.82
532.0181, 12083.78
532.5002, 12086.51
532.9824, 12093.65
533.4645, 12110.91
533.9466, 12128.92
534.4287, 12141.95
534.9108, 12149.46
535.3929, 12152.09
535.8751, 12143.80
536.3572, 12135.06
536.8393, 12148.65
537.3214, 12191.34
537.8035, 12225.80
538.2856, 12236.34
538.7678, 12229.81
539.2499, 12237.95
539.7320, 12261.17
540.2141, 12289.52
540.6962, 12332.60
541.1783, 12373.41
541.6605, 12359.31
542.1426, 12269.49
542.6247, 12187.13
543.1068, 12206.73
543.5889, 12284.57
544.0710, 12346.07
544.5532, 12348.84
545.0353, 12339.75
545.5174, 12335.72
545.9995, 12338.01
546.4816, 12352.06
546.9637, 12400.90
547.4459, 12444.46
547.9280, 12459.09
548.4101, 12426.17
548.8922, 12417.05
549.3743, 12445.58
549.8564, 12486.35
550.3386, 12511.77
550.8207, 12516.00
551.3028, 12526.28
551.7849, 12554.12
552.2670, 12585.19
552.7491, 12565.01
553.2313, 12490.76
553.7134, 12442.40
554.1955, 12487.14
554.6776, 12588.72
555.1597, 12643.28
555.6418, 12647.93
556.1240, 12640.38
556.6061, 12648.93
557.0882, 12666.16
557.5703, 12681.07
558.0524, 12689.72
558.5345, 12698.49
559.0167, 12715.33
559.4988, 12734.41
559.9809, 12744.48
560.4630, 12736.31
560.9451, 12724.73
561.4272, 12709.40
561.9094, 12690.58
562.3915, 12689.11
562.8736, 12718.79
563.3557, 12750.99
563.8378, 12769.45
564.3199, 12769.77
564.8021, 12771.37
565.2842, 12772.75
565.7663, 12778.25
566.2484, 12801.82
566.7305, 12843.03
567.2126, 12860.82
567.6948, 12835.03
568.1769, 12789.26
568.6590, 12764.98
569.1411, 12760.49
569.6232, 12767.34
570.1053, 12793.27
570.5875, 12820.76
571.0696, 12824.93
571.5517, 12802.61
572.0338, 12789.48
572.5159, 12811.21
572.9980, 12847.71
573.4802, 12880.93
573.9623, 12911.93
574.4444, 12932.95
574.9265, 12932.22
575.4086, 12922.06
575.8907, 12927.10
576.3729, 12957.84
576.8550, 12986.34
577.3371, 13005.93
577.8192, 13016.91
578.3013, 13023.10
578.7834, 13024.83
579.2656, 13019.90
579.7477, 12993.35
580.2298, 12953.22
580.7119, 12961.85
581.1940, 13030.83
581.6761, 13108.10
582.1583, 13135.56
582.6404, 13128.35
583.1225, 13117.52
583.6046, 13106.09
584.0867, 13103.62
584.5688, 13125.99
585.0510, 13163.94
585.5331, 13191.57
586.0152, 13187.23
586.4973, 13181.03
586.9794, 13186.51
587.4615, 13205.84
587.9437, 13225.30
588.4258, 13249.24
588.9079, 13268.48
589.3900, 13275.06
589.8721, 13261.11
590.3542, 13259.22
590.8364, 13273.87
591.3185, 13296.01
591.8006, 13308.64
592.2827, 13312.14
592.7648, 13326.78
593.2469, 13366.15
593.7291, 13413.25
594.2112, 13432.80
594.6933, 13428.71
595.1754, 13420.89
595.6575, 13416.40
596.1396, 13417.25
596.6218, 13429.77
597.1039, 13455.22
597.5860, 13472.91
598.0681, 13458.35
598.5502, 13439.87
599.0323, 13440.61
599.5145, 13476.78
599.9966, 13515.46
600.4787, 13568.97
600.9608, 13618.36
601.4429, 13626.52
601.9250, 13565.71
602.4072, 13531.46
602.8893, 13556.63
603.3714, 13623.31
603.8535, 13651.57
604.3356, 13639.25
604.8177, 13620.30
605.2999, 13611.99
605.7820, 13613.52
606.2641, 13622.37
606.7462, 13638.38
607.2283, 13664.04
607.7104, 13715.21
608.1926, 13772.24
608.6747, 13809.52
609.1568, 13812.44
609.6389, 13810.18
610.1210, 13816.42
610.6031, 13825.77
611.0853, 13829.31
611.5674, 13809.07
612.0495, 13801.71
612.5316, 13820.31
613.0137, 13859.97
613.4958, 13887.59
613.9780, 13901.23
614.4601, 13906.55
614.9422, 13900.94
615.4243, 13885.01
615.9064, 13888.56
616.3885, 13913.81
616.8707, 13944.63
617.3528, 13961.92
617.8349, 13972.42
618.3170, 13997.86
618.7991, 14049.03
619.2813, 14095.42
619.7634, 14101.20
620.2455, 14084.95
620.7276, 14078.08
621.2097, 14106.05
621.6918, 14132.20
622.1740, 14138.87
622.6561, 14130.24
623.1382, 14129.05
623.6203, 14136.71
624.1024, 14153.30
624.5845, 14183.02
625.0667, 14228.31
625.5488, 14257.02
626.0309, 14266.66
626.5130, 14266.82
626.9951, 14255.48
627.4772, 14235.99
627.9594, 14255.09
628.4415, 14326.70
628.9236, 14400.68
629.4057, 14404.71
629.8878, 14364.57
630.3699, 14337.75
630.8521, 14350.45
631.3342, 14376.30
631.8163, 14398.48
632.2984, 14419.14
632.7805, 14443.89
633.2626, 14488.71
633.7448, 14524.38
634.2269, 14531.85
634.7090, 14510.08
635.1911, 14508.25
635.6732, 14536.63
636.1553, 14570.93
636.6375, 14594.85
637.1196, 14605.22
637.6017, 14633.99
638.0838, 14687.01
638.5659, 14738.81
639.0480, 14754.45
639.5302, 14742.22
640.0123, 14732.81
640.4944, 14727.53
640.9765, 14740.87
641.4586, 14814.53
641.9407, 14916.35
642.4229, 14981.36
642.9050, 14934.78
643.3871, 14889.44
643.8692, 14905.97
644.3513, 14975.33
644.8334, 15028.77
645.3156, 15029.76
645.7977, 15039.89
646.2798, 15086.84
646.7619, 15176.31
647.2440, 15233.26
647.7261, 15244.92
648.2083, 15254.12
648.6904, 15302.58
649.1725, 15385.05
649.6546, 15449.54
650.1367, 15487.48
650.6188, 15519.74
651.1010, 15568.29
651.5831, 15628.97
652.0652, 15693.26
652.5473, 15759.16
653.0294, 15826.84
653.5115, 15900.48
653.9937, 15976.14
654.4758, 16043.49
654.9579, 16097.59
655.4400, 16145.02
655.9221, 16183.14
656.4042, 16213.88
656.8864, 16256.51
657.3685, 16316.85
657.8506, 16377.87
658.3327, 16434.35
658.8148, 16486.14
659.2969, 16515.97
659.7791, 16520.95
660.2612, 16525.54
660.7433, 16570.63
661.2254, 16630.86
661.7075, 16639.89
662.1896, 16574.96
662.6718, 16504.07
663.1539, 16492.23
663.6360, 16504.64
664.1181, 16493.31
664.6002, 16438.44
665.0823, 16364.06
665.5645, 16246.77
666.0466, 16115.16
666.5287, 16045.25
667.0108, 16079.21
667.4929, 16102.04
667.9750, 16081.71
668.4572, 16025.44
668.9393, 15968.99
669.4214, 15911.25
669.9035, 15863.68
670.3856, 15835.79
670.8677, 15823.38
671.3499, 15819.05
671.8320, 15822.51
672.3141, 15826.07
672.7962, 15819.32
673.2783, 15812.08
673.7604, 15818.07
674.2426, 15848.61
674.7247, 15864.25
675.2068, 15840.30
675.6889, 15800.86
676.1710, 15772.02
676.6531, 15757.70
677.1353, 15748.88
677.6174, 15747.83
678.0995, 15749.53
678.5816, 15739.23
679.0637, 15714.64
679.5458, 15708.75
680.0280, 15747.36
680.5101, 15796.53
680.9922, 15772.33
681.4743, 15690.23
681.9564, 15624.91
682.4385, 15630.17
682.9207, 15664.01
683.4028, 15698.11
683.8849, 15730.70
684.3670, 15752.17
684.8491, 15747.52
685.3312, 15740.35
685.8134, 15744.96
686.2955, 15765.20
686.7776, 15784.88
687.2597, 15810.29
687.7418, 15825.33
688.2239, 15804.14
688.7061, 15745.14
689.1882, 15726.00
689.6703, 15763.34
690.1524, 15812.86
690.6345, 15810.49
691.1166, 15775.52
691.5988, 15757.31
692.0809, 15775.81
692.5630, 15808.57
693.0451, 15856.03
693.5272, 15904.92
694.0093, 15928.24
694.4915, 15888.22
694.9736, 15853.57
695.4557, 15842.08
695.9378, 15851.09
696.4199, 15872.55
696.9020, 15914.99
697.3842, 15949.99
697.8663, 15964.66
698.3484, 15961.29
698.8305, 15949.35
699.3126, 15928.29
699.7947, 15923.36
700.2769, 15972.49
700.7590, 16043.08
701.2411, 16080.18
701.7232, 16077.33
702.2053, 16070.27
702.6874, 16074.41
703.1696, 16087.78
703.6517, 16110.99
704.1338, 16159.06
704.6159, 16186.15
705.0980, 16176.07
705.5801, 16153.81
706.0623, 16144.57
706.5444, 16147.65
707.0265, 16171.44
707.5086, 16226.23
707.9907, 16285.82
708.4728, 16295.05
708.9550, 16263.72
709.4371, 16245.59
709.9192, 16264.35
710.4013, 16300.31
710.8834, 16342.46
711.3655, 16385.65
711.8477, 16415.51
712.3298, 16412.72
712.8119, 16408.28
713.2940, 16418.65
713.7761, 16442.65
714.2582, 16453.43
714.7404, 16447.78
715.2225, 16433.49
715.7046, 16407.65
716.1867, 16371.78
716.6688, 16367.58
717.1509, 16399.06
717.6331, 16426.20
718.1152, 16402.41
718.5973, 16354.42
719.0794, 16341.33
719.5615, 16370.20
720.0436, 16403.75
720.5258, 16415.29
721.0079, 16419.83
721.4900, 16433.13
721.9721, 16467.79
722.4542, 16490.62
722.9363, 16484.44
723.4185, 16472.87
723.9006, 16483.81
724.3827, 16531.85
724.8648, 16547.14
725.3469, 16509.34
725.8290, 16457.67
726.3112, 16460.66
726.7933, 16510.38
727.2754, 16567.27
727.7575, 16625.33
728.2396, 16673.81
728.7217, 16700.72
729.2039, 16709.08
729.6860, 16706.02
730.1681, 16678.39
730.6502, 16656.20
731.1323, 16650.71
731.6144, 16661.06
732.0966, 16678.75
732.5787, 16711.70
733.0608, 16738.17
733.5429, 16749.05
734.0250, 16746.48
734.5071, 16740.70
734.9893, 16731.24
735.4714, 16731.82
735.9535, 16752.58
736.4356, 16789.03
736.9177, 16845.66
737.3998, 16920.38
737.8820, 16970.09
738.3641, 16945.59
738.8462, 16903.08
739.3283, 16883.06
739.8104, 16896.13
740.2925, 16912.06
740.7747, 16934.36
741.2568, 16952.83
741.7389, 16958.37
742.2210, 16948.34
742.7031, 16942.81
743.1852, 16942.97
743.6674, 16947.11
744.1495, 16947.63
744.6316, 16950.60
745.1137, 16977.26
745.5958, 17041.25
746.0779, 17101.45
746.5601, 17122.07
747.0422, 17120.99
747.5243, 17122.52
748.0064, 17130.90
748.4885, 17145.82
748.9706, 17179.48
749.4528, 17214.15
749.9349, 17211.62
750.4170, 17153.45
750.8991, 17132.17
751.3812, 17182.97
751.8633, 17264.59
752.3455, 17274.79
752.8276, 17228.34
753.3097, 17203.82
753.7918, 17266.77
754.2739, 17342.94
754.7560, 17357.00
755.2382, 17325.57
755.7203, 17302.80
756.2024, 17321.70
756.6845, 17338.29
757.1666, 17325.96
757.6487, 17291.98
758.1309, 17296.33
758.6130, 17352.92
759.0951, 17412.13
759.5772, 17456.70
760.0593, 17485.32
760.5414, 17484.48
761.0236, 17455.52
761.5057, 17427.55
761.9878, 17420.62
762.4699, 17426.05
762.9520, 17436.89
763.4341, 17452.55
763.9163, 17466.44
764.3984, 17469.94
764.8805, 17475.83
765.3626, 17493.89
765.8447, 17528.18
766.3268, 17552.98
766.8090, 17562.58
767.2911, 17574.22
767.7732, 17611.77
768.2553, 17669.29
768.7374, 17685.76
769.2195, 17653.14
769.7017, 17620.84
770.1838, 17614.92
770.6659, 17561.74
771.1480, 17640.64
771.6301, 17690.17
772.1122, 17711.91
772.5944, 17622.63
773.0765, 17676.71
773.5586, 17673.33
774.0407, 17667.61
774.5228, 17741.87
775.0049, 17668.73
775.4871, 17741.72
775.9692, 17756.38
776.4513, 17797.74
776.9334, 17781.29
777.4155, 17782.69
777.8976, 17841.92
778.3798, 17869.13
778.8619, 17846.03
779.3440, 17889.08
779.8261, 17813.92
780.3082, 17842.50
780.7903, 17904.07
781.2725, 17941.11
781.7546, 17967.84
782.2367, 17978.97
782.7188, 17991.55
783.2009, 18007.76
783.6830, 18027.11
784.1652, 18052.23
784.6473, 18081.35
785.1294, 18100.97
785.6115, 18103.12
786.0936, 18097.61
786.5757, 18086.15
787.0579, 18075.83
787.5400, 18083.28
788.0221, 18139.60
788.5042, 18187.82
788.9863, 18202.93
789.4684, 18195.34
789.9506, 18197.87
790.4327, 18213.65
790.9148, 18231.71
791.3969, 18251.41
791.8790, 18269.31
792.3611, 18267.07
792.8433, 18248.82
793.3254, 18245.26
793.8075, 18291.84
794.2896, 18346.53
794.7717, 18365.93
795.2538, 18357.20
795.7360, 18349.56
796.2181, 18347.47
796.7002, 18353.89
797.1823, 18372.07
797.6644, 18400.40
798.1465, 18426.66
798.6287, 18451.11
799.1108, 18471.51
799.5929, 18486.42
800.0750, 18496.69
800.5571, 18504.97
801.0392, 18511.23
801.5214, 18515.30
802.0035, 18511.88
802.4856, 18510.20
802.9677, 18520.66
803.4498, 18542.56
803.9319, 18558.01
804.4141, 18542.64
804.8962, 18542.52
805.3783, 18583.31
805.8604, 18663.44
806.3425, 18703.86
806.8246, 18699.93
807.3068, 18691.00
807.7889, 18703.71
808.2710, 18729.27
808.7531, 18751.64
809.2352, 18770.07
809.7173, 18780.44
810.1995, 18766.59
810.6816, 18754.98
811.1637, 18765.71
811.6458, 18802.87
812.1279, 18835.40
812.6100, 18858.14
813.0922, 18881.72
813.5743, 18915.81
814.0564, 18959.13
814.5385, 18976.44
815.0206, 18966.55
815.5027, 18955.74
815.9849, 18975.10
816.4670, 19000.51
816.9491, 18992.92
817.4312, 18950.18
817.9133, 18912.04
818.3954, 18888.28
818.8776, 18881.76
819.3597, 18896.27
819.8418, 18931.70
820.3239, 18982.76
820.8060, 19058.28
821.2881, 19128.96
821.7703, 19176.35
822.2524, 19202.20
822.7345, 19207.96
823.2166, 19194.08
823.6987, 19181.15
824.1808, 19187.62
824.6630, 19201.22
825.1451, 19210.31
825.6272, 19213.42
826.1093, 19216.33
826.5914, 19212.26
827.0735, 19216.42
827.5557, 19243.75
828.0378, 19299.17
828.5199, 19305.46
829.0020, 19252.51
829.4841, 19209.45
829.9662, 19253.85
830.4484, 19341.25
830.9305, 19374.62
831.4126, 19348.49
831.8947, 19325.65
832.3768, 19340.91
832.8589, 19375.80
833.3411, 19426.17
833.8232, 19499.46
834.3053, 19536.63
834.7874, 19521.11
835.2695, 19497.98
835.7516, 19494.22
836.2338, 19508.82
836.7159, 19527.81
837.1980, 19551.44
837.6801, 19571.57
838.1622, 19582.16
838.6443, 19585.74
839.1265, 19583.03
839.6086, 19573.93
840.0907, 19567.01
840.5728, 19546.56
841.0549, 19547.62
841.5370, 19600.41
842.0192, 19711.07
842.5013, 19748.46
842.9834, 19696.60
843.4655, 19646.01
843.9476, 19672.20
844.4298, 19743.79
844.9119, 19785.93
845.3940, 19798.16
845.8762, 19806.09
846.3583, 19830.57
846.8404, 19852.04
847.3225, 19852.42
847.8046, 19828.25
848.2867, 19820.87
848.7689, 19832.87
849.2510, 19858.97
849.7331, 19899.47
850.2152, 19952.50
850.6973, 20010.92
851.1794, 20074.09
851.6616, 20116.06
852.1437, 20095.51
852.6258, 20062.16
853.1079, 20073.21
853.5900, 20125.19
854.0721, 20167.89
854.5543, 20185.66
855.0364, 20188.99
855.5185, 20175.60
856.0006, 20149.09
856.4827, 20143.57
856.9648, 20161.29
857.4470, 20185.33
857.9291, 20211.56
858.4112, 20236.31
858.8933, 20247.70
859.3754, 20249.14
859.8575, 20254.77
860.3397, 20284.28
860.8218, 20308.05
861.3039, 20296.80
861.7860, 20260.40
862.2681, 20268.20
862.7502, 20342.78
863.2324, 20410.82
863.7145, 20449.96
864.1966, 20467.02
864.6787, 20478.76
865.1608, 20486.27
865.6429, 20496.27
866.1251, 20522.10
866.6072, 20542.89
867.0893, 20525.81
867.5714, 20490.68
868.0535, 20491.62
868.5356, 20601.70
869.0178, 20669.53
869.4999, 20653.54
869.9820, 20589.00
870.4641, 20564.18
870.9462, 20578.52
871.4283, 20603.89
871.9105, 20633.52
872.3926, 20667.30
872.8747, 20714.43
873.3568, 20764.35
873.8389, 20796.47
874.3210, 20776.15
874.8032, 20770.06
875.2853, 20813.99
875.7674, 20872.57
876.2495, 20893.26
876.7316, 20866.50
877.2137, 20849.11
877.6959, 20848.87
878.1780, 20863.46
878.6601, 20905.72
879.1422, 20958.33
879.6243, 20977.13
880.1064, 20931.32
880.5886, 20897.29
881.0707, 20940.62
881.5528, 21002.91
882.0349, 21008.99
882.5170, 20898.73
882.9991, 20884.71
883.4813, 21003.77
883.9634, 21146.16
884.4455, 21180.60
884.9276, 21134.39
885.4097, 21109.28
885.8918, 21118.80
886.3740, 21141.16
886.8561, 21161.05
887.3382, 21185.37
887.8203, 21223.52
888.3024, 21285.92
888.7845, 21329.20
889.2667, 21346.75
889.7488, 21352.96
890.2309, 21350.68
890.7130, 21342.22
891.1951, 21363.79
891.6772, 21415.84
892.1594, 21454.73
892.6415, 21433.53
893.1236, 21391.61
893.6057, 21358.39
894.0878, 21336.60
894.5699, 21342.97
895.0521, 21412.13
895.5342, 21473.44
896.0163, 21494.12
896.4984, 21481.59
896.9805, 21505.65
897.4626, 21566.59
897.9448, 21611.24
898.4269, 21584.20
898.9090, 21540.13
899.3911, 21552.57
899.8732, 21607.16
900.3553, 21651.69
900.8375, 21654.71
901.3196, 21657.96
901.8017, 21672.83
902.2838, 21696.24
902.7659, 21724.99
903.2480, 21761.44
903.7302, 21773.01
904.2123, 21735.76
904.6944, 21691.87
905.1765, 21705.43
905.6586, 21759.04
906.1407, 21815.66
906.6229, 21873.90
907.1050, 21917.65
907.5871, 21927.26
908.0692, 21926.07
908.5513, 21950.40
909.0334, 22012.74
909.5156, 22031.67
909.9977, 21984.77
910.4798, 21933.91
910.9619, 21979.56
911.4440, 22074.18
911.9261, 22115.52
912.4083, 22071.25
912.8904, 22031.45
913.3725, 22035.73
913.8546, 22064.58
914.3367, 22106.34
914.8188, 22170.95
915.3010, 22201.05
915.7831, 22189.44
916.2652, 22169.50
916.7473, 22168.41
917.2294, 22179.27
917.7115, 22182.04
918.1937, 22176.84
918.6758, 22185.23
919.1579, 22239.77
919.6400, 22293.71
920.1221, 22314.84
920.6042, 22304.83
921.0864, 22307.20
921.5685, 22324.16
922.0506, 22346.39
922.5327, 22369.95
923.0148, 22395.67
923.4969, 22424.83
923.9791, 22457.45
924.4612, 22493.37
924.9433, 22542.42
925.4254, 22583.91
925.9075, 22605.52
926.3896, 22611.39
926.8718, 22615.32
927.3539, 22618.63
927.8360, 22615.69
928.3181, 22602.97
928.8002, 22588.27
929.2823, 22582.58
929.7645, 22585.80
930.2466, 22599.84
930.7287, 22630.47
931.2108, 22657.36
931.6929, 22661.27
932.1750, 22659.28
932.6572, 22670.92
933.1393, 22706.88
933.6214, 22730.03
934.1035, 22736.63
934.5856, 22740.98
935.0677, 22755.84
935.5499, 22779.29
936.0320, 22814.70
936.5141, 22861.96
936.9962, 22886.60
937.4783, 22826.76
937.9604, 22771.05
938.4426, 22793.70
938.9247, 22898.02
939.4068, 22954.18
939.8889, 22945.76
940.3710, 22942.79
940.8531, 22982.84
941.3353, 23049.99
941.8174, 23113.16
942.2995, 23169.46
942.7816, 23207.24
943.2637, 23212.44
943.7458, 23206.46
944.2280, 23187.97
944.7101, 23167.12
945.1922, 23170.55
945.6743, 23207.63
946.1564, 23235.87
946.6385, 23246.10
947.1207, 23248.37
947.6028, 23253.35
948.0849, 23263.30
948.5670, 23285.97
949.0491, 23330.62
949.5313, 23367.54
950.0134, 23374.10
950.4955, 23372.79
950.9776, 23385.83
951.4597, 23420.64
951.9418, 23437.87
952.4240, 23432.36
952.9061, 23432.14
953.3882, 23471.96
953.8703, 23529.86
954.3524, 23560.69
954.8345, 23564.20
955.3167, 23575.89
955.7988, 23633.72
956.2809, 23681.59
956.7630, 23683.52
957.2451, 23650.67
957.7272, 23651.04
958.2094, 23687.59
958.6915, 23736.49
959.1736, 23800.26
959.6557, 23856.77
960.1378, 23861.62
960.6199, 23833.30
961.1021, 23813.86
961.5842, 23821.02
962.0663, 23836.09
962.5484, 23859.52
963.0305, 23885.36
963.5126, 23903.59
963.9948, 23913.35
964.4769, 23932.54
964.9590, 23963.33
965.4411, 24003.00
965.9232, 24067.72
966.4053, 24129.83
966.8875, 24150.45
967.3696, 24116.11
967.8517, 24085.05
968.3338, 24057.14
968.8159, 24050.77
969.2980, 24085.02
969.7802, 24154.53
970.2623, 24189.23
970.7444, 24190.82
971.2265, 24191.38
971.7086, 24219.43
972.1907, 24247.77
972.6729, 24238.53
973.1550, 24207.68
973.6371, 24212.77
974.1192, 24299.54
974.6013, 24359.84
975.0834, 24365.03
975.5656, 24346.82
976.0477, 24366.82
976.5298, 24417.28
977.0119, 24462.48
977.4940, 24493.81
977.9761, 24517.54
978.4583, 24531.66
978.9404, 24543.92
979.4225, 24565.51
979.9046, 24608.58
980.3867, 24616.81
980.8688, 24575.38
981.3510, 24539.23
981.8331, 24557.15
982.3152, 24612.09
982.7973, 24662.97
983.2794, 24707.67
983.7615, 24738.98
984.2437, 24732.51
984.7258, 24732.05
985.2079, 24767.60
985.6900, 24827.09
986.1721, 24869.08
986.6542, 24889.99
987.1364, 24916.15
987.6185, 24958.24
988.1006, 25002.76
988.5827, 25033.86
989.0648, 25052.12
989.5469, 25056.41
990.0291, 25029.06
990.5112, 25021.31
990.9933, 25048.05
991.4754, 25096.02
991.9575, 25161.59
992.4396, 25246.13
992.9218, 25310.11
993.4039, 25352.03
993.8860, 25384.12
994.3681, 25402.04
994.8502, 25425.36
995.3323, 25486.18
995.8145, 25581.09
996.2966, 25636.39
996.7787, 25602.69
997.2608, 25600.65
997.7429, 25676.85
998.2250, 25797.33
998.7072, 25874.24
999.1893, 25916.26
999.6714, 25965.90
1000.154, 26041.59
1000.636, 26121.25
1001.118, 26183.48
1001.600, 26244.93
1002.082, 26330.19
1002.564, 26445.89
1003.046, 26567.25
1003.528, 26695.72
1004.010, 26819.96
1004.493, 26921.98
1004.975, 27013.82
1005.457, 27119.21
1005.939, 27239.28
1006.421, 27349.47
1006.903, 27410.49
1007.385, 27492.18
1007.867, 27641.23
1008.349, 27831.00
1008.832, 27935.00
1009.314, 27951.15
1009.796, 27975.82
1010.278, 28054.72
1010.760, 28130.25
1011.242, 28142.08
1011.724, 28106.81
1012.206, 28048.18
1012.689, 27964.19
1013.171, 27866.01
1013.653, 27735.50
1014.135, 27619.93
1014.617, 27591.33
1015.099, 27620.08
1015.581, 27533.92
1016.063, 27331.93
1016.545, 27153.77
1017.028, 27113.42
1017.510, 27104.82
1017.992, 27062.68
1018.474, 26991.72
1018.956, 26941.31
1019.438, 26920.89
1019.920, 26875.66
1020.402, 26776.01
1020.885, 26671.57
1021.367, 26646.52
1021.849, 26672.51
1022.331, 26696.13
1022.813, 26699.99
1023.295, 26705.51
1023.777, 26726.09
1024.259, 26742.12
1024.741, 26737.52
1025.224, 26712.14
1025.706, 26681.28
1026.188, 26645.24
1026.670, 26623.87
1027.152, 26638.27
1027.634, 26667.68
1028.116, 26703.66
1028.598, 26741.47
1029.080, 26759.95
1029.563, 26745.86
1030.045, 26741.51
1030.527, 26754.52
1031.009, 26784.47
1031.491, 26842.56
1031.973, 26915.10
1032.455, 26970.56
1032.937, 27000.65
1033.420, 27015.42
1033.902, 27023.16
1034.384, 27012.46
1034.866, 26963.59
1035.348, 26872.35
1035.830, 26860.73
1036.312, 26931.28
1036.794, 27000.72
1037.276, 27003.55
1037.759, 26989.00
1038.241, 27001.55
1038.723, 27039.26
1039.205, 27096.73
1039.687, 27222.32
1040.169, 27273.35
1040.651, 27205.50
1041.133, 27100.10
1041.615, 27084.18
1042.098, 27132.26
1042.580, 27159.27
1043.062, 27148.14
1043.544, 27150.01
1044.026, 27204.09
1044.508, 27271.93
1044.990, 27338.09
1045.472, 27400.40
1045.955, 27412.04
1046.437, 27369.13
1046.919, 27340.48
1047.401, 27371.75
1047.883, 27419.30
1048.365, 27428.35
1048.847, 27415.89
1049.329, 27414.24
1049.812, 27458.73
1050.294, 27469.43
1050.776, 27424.37
1051.258, 27378.19
1051.740, 27398.27
1052.222, 27465.77
1052.704, 27513.27
1053.186, 27536.33
1053.668, 27551.36
1054.151, 27559.06
1054.633, 27570.41
1055.115, 27593.46
1055.597, 27625.04
1056.079, 27655.17
1056.561, 27684.32
1057.043, 27704.82
1057.525, 27712.12
1058.007, 27715.02
1058.490, 27725.19
1058.972, 27736.56
1059.454, 27736.59
1059.936, 27698.39
1060.418, 27720.24
1060.900, 27836.28
1061.382, 27949.96
1061.864, 27976.71
1062.347, 27949.58
1062.829, 28005.05
1063.311, 28122.75
1063.793, 28195.97
1064.275, 28110.57
1064.757, 28036.93
1065.239, 28059.16
1065.721, 28127.32
1066.203, 28162.05
1066.686, 28162.24
1067.168, 28160.60
1067.650, 28160.68
1068.132, 28167.57
1068.614, 28186.99
1069.096, 28214.94
1069.578, 28250.59
1070.060, 28294.33
1070.542, 28331.49
1071.025, 28362.53
1071.507, 28382.89
1071.989, 28380.13
1072.471, 28378.17
1072.953, 28447.52
1073.435, 28556.00
1073.917, 28624.63
1074.399, 28590.68
1074.882, 28572.45
1075.364, 28595.09
1075.846, 28650.39
1076.328, 28749.98
1076.810, 28890.58
1077.292, 28971.18
1077.774, 28992.76
1078.256, 29017.46
1078.739, 29082.87
1079.221, 29171.53
1079.703, 29276.22
1080.185, 29393.52
1080.667, 29516.25
1081.149, 29651.91
1081.631, 29753.51
1082.113, 29802.70
1082.595, 29850.22
1083.078, 29994.09
1083.560, 30159.69
1084.042, 30225.49
1084.524, 30156.17
1085.006, 30126.28
1085.488, 30193.77
1085.970, 30254.41
1086.452, 30263.53
1086.934, 30233.77
1087.417, 30207.68
1087.899, 30178.68
1088.381, 30122.32
1088.863, 30025.63
1089.345, 29904.80
1089.827, 29717.52
1090.309, 29544.02
1090.791, 29475.00
1091.274, 29521.22
1091.756, 29531.10
1092.238, 29501.06
1092.720, 29465.88
1093.202, 29447.55
1093.684, 29438.54
1094.166, 29433.34
1094.648, 29432.14
1095.130, 29438.24
1095.613, 29459.75
1096.095, 29460.02
1096.577, 29424.07
1097.059, 29389.99
1097.541, 29419.16
1098.023, 29481.43
1098.505, 29527.71
1098.987, 29548.92
1099.470, 29574.09
1099.952, 29625.93
1100.434, 29659.36
1100.916, 29641.88
1101.398, 29601.51
1101.880, 29646.93
1102.362, 29755.39
1102.844, 29837.68
1103.327, 29853.68
1103.809, 29850.20
1104.291, 29829.90
1104.773, 29815.43
1105.255, 29829.87
1105.737, 29877.22
1106.219, 29912.12
1106.701, 29934.71
1107.183, 29956.32
1107.666, 29972.96
1108.148, 30002.85
1108.630, 30091.38
1109.112, 30203.22
1109.594, 30230.33
1110.076, 30127.11
1110.558, 30078.92
1111.040, 30117.26
1111.522, 30176.95
1112.005, 30167.55
1112.487, 30140.29
1112.969, 30191.59
1113.451, 30328.12
1113.933, 30393.58
1114.415, 30290.53
1114.897, 30222.95
1115.379, 30260.05
1115.862, 30355.64
1116.344, 30416.01
1116.826, 30447.04
1117.308, 30463.19
1117.790, 30459.77
1118.272, 30469.90
1118.754, 30529.68
1119.236, 30586.10
1119.719, 30602.13
1120.201, 30582.63
1120.683, 30581.45
1121.165, 30597.73
1121.647, 30623.48
1122.129, 30664.76
1122.611, 30702.85
1123.093, 30731.67
1123.575, 30746.67
1124.057, 30738.94
1124.540, 30698.89
1125.022, 30688.54
1125.504, 30711.90
1125.986, 30750.14
1126.468, 30793.52
1126.950, 30839.14
1127.432, 30894.71
1127.914, 30951.83
1128.397, 30967.13
1128.879, 30916.03
1129.361, 30883.75
1129.843, 30880.74
1130.325, 30913.41
1130.807, 31024.01
1131.289, 31160.61
1131.771, 31234.42
1132.254, 31229.54
1132.736, 31227.13
1133.218, 31248.13
1133.700, 31268.06
1134.182, 31280.57
1134.664, 31284.58
1135.146, 31273.57
1135.628, 31252.09
1136.110, 31229.28
1136.593, 31193.74
1137.075, 31194.91
1137.557, 31288.49
1138.039, 31390.36
1138.521, 31447.82
1139.003, 31466.61
1139.485, 31487.52
1139.967, 31510.62
1140.449, 31534.90
1140.932, 31551.32
1141.414, 31578.93
1141.896, 31652.27
1142.378, 31727.26
1142.860, 31744.11
1143.342, 31695.80
1143.824, 31657.00
1144.306, 31630.02
1144.789, 31647.58
1145.271, 31791.46
1145.753, 31939.07
1146.235, 31993.06
1146.717, 31967.72
1147.199, 31938.19
1147.681, 31899.33
1148.163, 31881.37
1148.646, 31887.98
1149.128, 31920.35
1149.610, 32010.87
1150.092, 32108.36
1150.574, 32147.68
1151.056, 32122.92
1151.538, 32109.57
1152.020, 32113.28
1152.502, 32126.42
1152.984, 32149.88
1153.467, 32175.20
1153.949, 32184.87
1154.431, 32188.95
1154.913, 32201.54
1155.395, 32221.76
1155.877, 32270.54
1156.359, 32364.11
1156.841, 32456.38
1157.324, 32533.65
1157.806, 32587.80
1158.288, 32573.57
1158.770, 32519.26
1159.252, 32501.94
1159.734, 32571.54
1160.216, 32644.28
1160.698, 32721.20
1161.181, 32773.58
1161.663, 32758.88
1162.145, 32696.79
1162.627, 32702.24
1163.109, 32764.31
1163.591, 32819.91
1164.073, 32841.93
1164.555, 32843.27
1165.037, 32808.04
1165.520, 32772.03
1166.002, 32777.24
1166.484, 32822.00
1166.966, 32900.39
1167.448, 33009.18
1167.930, 33089.30
1168.412, 33088.33
1168.894, 33062.25
1169.376, 33021.55
1169.859, 32984.57
1170.341, 32999.82
1170.823, 33066.24
1171.305, 33107.02
1171.787, 33106.90
1172.269, 33105.21
1172.751, 33129.95
1173.233, 33168.28
1173.716, 33209.08
1174.198, 33254.32
1174.680, 33331.97
1175.162, 33445.95
1175.644, 33494.94
1176.126, 33430.82
1176.608, 33359.79
1177.090, 33397.44
1177.573, 33469.27
1178.055, 33498.12
1178.537, 33477.65
1179.019, 33449.85
1179.501, 33412.21
1179.983, 33386.35
1180.465, 33373.21
1180.947, 33389.84
1181.429, 33475.94
1181.911, 33594.80
1182.394, 33696.67
1182.876, 33780.54
1183.358, 33826.93
1183.840, 33831.30
1184.322, 33824.30
1184.804, 33811.13
1185.286, 33809.31
1185.768, 33848.67
1186.251, 33915.14
1186.733, 33981.34
1187.215, 34069.21
1187.697, 34085.68
1188.179, 34009.35
1188.661, 33936.07
1189.143, 33958.67
1189.625, 34027.18
1190.108, 34079.86
1190.590, 34117.73
1191.072, 34153.53
1191.554, 34191.88
1192.036, 34224.24
1192.518, 34251.38
1193.000, 34267.50
1193.482, 34237.33
1193.964, 34207.73
1194.447, 34272.20
1194.929, 34422.33
1195.411, 34530.44
1195.893, 34559.85
1196.375, 34569.15
1196.857, 34563.30
1197.339, 34555.04
1197.821, 34566.36
1198.303, 34586.37
1198.786, 34588.21
1199.268, 34567.90
1199.750, 34587.57
1200.232, 34704.03
1200.714, 34766.48
1201.196, 34708.84
1201.678, 34616.48
1202.160, 34654.08
1202.643, 34766.52
1203.125, 34851.02
1203.607, 34883.90
1204.089, 34908.48
1204.571, 34933.09
1205.053, 34949.96
1205.535, 34950.10
1206.017, 34947.86
1206.500, 34980.32
1206.982, 35033.64
1207.464, 35077.63
1207.946, 35102.80
1208.428, 35125.16
1208.910, 35152.19
1209.392, 35167.78
1209.874, 35151.30
1210.356, 35125.80
1210.839, 35156.01
1211.321, 35226.05
1211.803, 35297.64
1212.285, 35375.98
1212.767, 35419.42
1213.249, 35417.51
1213.731, 35396.99
1214.213, 35360.56
1214.695, 35325.62
1215.178, 35347.83
1215.660, 35413.95
1216.142, 35483.95
1216.624, 35552.29
1217.106, 35612.15
1217.588, 35669.62
1218.070, 35707.28
1218.552, 35690.36
1219.035, 35648.02
1219.517, 35658.64
1219.999, 35713.97
1220.481, 35773.27
1220.963, 35834.65
1221.445, 35876.91
1221.927, 35889.30
1222.409, 35897.96
1222.891, 35940.50
1223.374, 35997.61
1223.856, 36019.99
1224.338, 36011.61
1224.820, 36011.57
1225.302, 36033.79
1225.784, 36068.23
1226.266, 36119.95
1226.748, 36170.40
1227.230, 36190.60
1227.713, 36194.08
1228.195, 36203.07
1228.677, 36220.52
1229.159, 36255.81
1229.641, 36331.57
1230.123, 36392.41
1230.605, 36430.56
1231.087, 36445.38
1231.570, 36413.98
1232.052, 36367.66
1232.534, 36369.81
1233.016, 36426.76
1233.498, 36469.32
1233.980, 36474.19
1234.462, 36486.14
1234.944, 36513.03
1235.427, 36559.04
1235.909, 36661.59
1236.391, 36773.86
1236.873, 36805.70
1237.355, 36738.44
1237.837, 36719.96
1238.319, 36789.39
1238.801, 36833.78
1239.283, 36803.77
1239.766, 36762.03
1240.248, 36817.61
1240.730, 36919.77
1241.212, 36992.07
1241.694, 37016.80
1242.176, 37059.27
1242.658, 37127.25
1243.140, 37201.79
1243.622, 37294.38
1244.105, 37353.68
1244.587, 37260.62
1245.069, 37116.20
1245.551, 37060.35
1246.033, 37134.90
1246.515, 37207.68
1246.997, 37280.31
1247.479, 37348.54
1247.962, 37419.98
1248.444, 37467.89
1248.926, 37413.23
1249.408, 37337.44
1249.890, 37365.57
1250.372, 37534.49
1250.854, 37617.50
1251.336, 37606.04
1251.818, 37589.00
1252.301, 37602.33
1252.783, 37640.66
1253.265, 37725.80
1253.747, 37817.73
1254.229, 37858.61
1254.711, 37839.87
1255.193, 37846.48
1255.675, 37879.13
1256.157, 37892.71
1256.640, 37832.60
1257.122, 37786.09
1257.604, 37839.47
1258.086, 37933.22
1258.568, 37990.96
1259.050, 38009.34
1259.532, 38030.54
1260.014, 38055.95
1260.497, 38109.77
1260.979, 38258.96
1261.461, 38376.27
1261.943, 38356.91
1262.425, 38291.45
1262.907, 38262.09
1263.389, 38269.14
1263.871, 38345.61
1264.354, 38480.13
1264.836, 38583.04
1265.318, 38590.99
1265.800, 38574.76
1266.282, 38542.07
1266.764, 38515.63
1267.246, 38517.46
1267.728, 38544.41
1268.210, 38575.81
1268.693, 38613.05
1269.175, 38666.26
1269.657, 38791.80
1270.139, 38855.39
1270.621, 38800.27
1271.103, 38730.28
1271.585, 38764.55
1272.067, 38864.25
1272.549, 38918.08
1273.032, 38929.01
1273.514, 38925.63
1273.996, 38885.58
1274.478, 38883.34
1274.960, 38929.48
1275.442, 39006.21
1275.924, 39124.46
1276.406, 39245.47
1276.889, 39283.43
1277.371, 39258.66
1277.853, 39259.43
1278.335, 39323.93
1278.817, 39368.02
1279.299, 39382.89
1279.781, 39384.58
1280.263, 39381.04
1280.745, 39378.12
1281.228, 39385.97
1281.710, 39400.46
1282.192, 39401.98
1282.674, 39375.66
1283.156, 39396.42
1283.638, 39473.68
1284.120, 39571.99
1284.602, 39677.24
1285.084, 39778.93
1285.567, 39886.01
1286.049, 39976.61
1286.531, 39995.30
1287.013, 39935.47
1287.495, 39905.60
1287.977, 39914.88
1288.459, 39926.73
1288.941, 39900.96
1289.424, 39885.59
1289.906, 39929.17
1290.388, 39987.36
1290.870, 39980.14
1291.352, 39920.53
1291.834, 39913.04
1292.316, 39963.73
1292.798, 40028.23
1293.281, 40105.34
1293.763, 40160.52
1294.245, 40177.88
1294.727, 40180.21
1295.209, 40202.53
1295.691, 40234.97
1296.173, 40235.13
1296.655, 40208.29
1297.137, 40223.20
1297.620, 40374.61
1298.102, 40462.92
1298.584, 40448.00
1299.066, 40398.64
1299.548, 40375.80
1300.030, 40384.54
1300.512, 40448.46
1300.994, 40557.21
1301.476, 40644.02
1301.959, 40694.53
1302.441, 40749.24
1302.923, 40818.62
1303.405, 40864.68
1303.887, 40814.35
1304.369, 40752.73
1304.851, 40782.84
1305.333, 40875.77
1305.816, 40896.07
1306.298, 40829.96
1306.780, 40850.66
1307.262, 40981.20
1307.744, 41101.10
1308.226, 41100.41
##END=



