##NAMES=Pharmacoalumite
##RRUFFID=R060411
##IDEAL CHEMISTRY=KAl_4_(As^5+^O_4_)_3_(OH)_4_&#183;6.5H_2_O
##LOCALITY=Maria Josefa, Rodalquilar, Almeria Province, Spain
##OWNER=RRUFF
##SOURCE=Bob Jenkins
##DESCRIPTION=Pale green, yellow and colorless transparent single cubes associated with quartz
##STATUS=The identification of this mineral is confirmed by single-crystal X-ray diffraction and chemical analysis.
##URL=rruff.info/R060411
##MEASURED CHEMISTRY=(K_0.75_Na_0.25_)_Σ=1_(Al_3.94_Fe^3+^_0.06_)_Σ=4_(As_1.00_O_4_)_3_(OH)_4_·6.5H_2_O ; H not measured but estimated by difference and stoichiometry
205.3492, 54.56826
205.8313, 55.70243
206.3134, 57.52774
206.7955, 58.44297
207.2776, 58.27563
207.7597, 57.99703
208.2419, 58.19525
208.7240, 58.45399
209.2061, 58.29350
209.6882, 57.45049
210.1703, 56.35035
210.6524, 55.75410
211.1346, 55.84866
211.6167, 55.98621
212.0988, 56.03283
212.5809, 55.98899
213.0630, 55.81447
213.5451, 55.47374
214.0273, 55.07684
214.5094, 54.89901
214.9915, 55.12468
215.4736, 55.23677
215.9557, 55.05779
216.4378, 54.76923
216.9200, 54.57646
217.4021, 54.57685
217.8842, 54.65666
218.3663, 54.47309
218.8484, 53.65185
219.3305, 53.11591
219.8127, 53.21483
220.2948, 53.52979
220.7769, 53.56580
221.2590, 53.09708
221.7411, 52.35526
222.2232, 52.02636
222.7054, 52.48267
223.1875, 52.95246
223.6696, 53.61275
224.1517, 54.18777
224.6338, 54.26419
225.1159, 53.65413
225.5980, 52.65917
226.0802, 52.15728
226.5623, 52.55323
227.0444, 52.98405
227.5265, 53.51003
228.0086, 54.00437
228.4907, 54.30315
228.9729, 54.33809
229.4550, 54.14716
229.9371, 53.79692
230.4192, 53.03540
230.9013, 52.51157
231.3834, 52.42049
231.8656, 52.60785
232.3477, 52.94350
232.8298, 53.42894
233.3119, 53.83513
233.7940, 53.48677
234.2761, 51.87689
234.7583, 50.89399
235.2404, 51.55225
235.7225, 53.06391
236.2046, 54.04589
236.6867, 54.00265
237.1688, 53.37736
237.6510, 52.78703
238.1331, 52.12167
238.6152, 51.90359
239.0973, 52.80034
239.5794, 54.24262
240.0615, 54.94004
240.5437, 54.39773
241.0258, 53.32483
241.5079, 52.57504
241.9900, 52.11769
242.4721, 51.89846
242.9542, 51.95123
243.4364, 52.22808
243.9185, 52.63620
244.4006, 53.21892
244.8827, 53.81733
245.3648, 54.30434
245.8469, 54.68590
246.3290, 54.93550
246.8112, 55.11494
247.2933, 55.16020
247.7754, 54.77372
248.2575, 53.59555
248.7396, 52.53716
249.2217, 52.37001
249.7039, 52.90188
250.1860, 53.52128
250.6681, 54.05611
251.1502, 54.44354
251.6323, 54.39568
252.1144, 53.64341
252.5966, 52.86523
253.0787, 52.51157
253.5608, 52.44014
254.0429, 52.31914
254.5250, 51.82348
255.0071, 51.12592
255.4893, 50.96634
255.9714, 51.74863
256.4535, 52.42895
256.9356, 52.39949
257.4177, 51.99109
257.8998, 51.74799
258.3820, 52.00308
258.8641, 52.62097
259.3462, 53.13443
259.8283, 53.52791
260.3104, 53.82720
260.7925, 54.13657
261.2747, 54.35502
261.7568, 54.31137
262.2389, 53.87333
262.7210, 53.20887
263.2031, 52.80563
263.6852, 52.77154
264.1674, 52.83940
264.6495, 53.15014
265.1316, 53.43170
265.6137, 53.29297
266.0958, 52.53778
266.5779, 51.53646
267.0601, 51.23275
267.5422, 52.19245
268.0243, 52.84585
268.5064, 52.59981
268.9885, 52.18493
269.4706, 52.33741
269.9528, 53.30106
270.4349, 54.61679
270.9170, 55.42066
271.3991, 55.54499
271.8812, 55.42691
272.3633, 54.89265
272.8455, 54.30559
273.3276, 53.91742
273.8097, 53.79710
274.2918, 53.88359
274.7739, 54.13548
275.2560, 54.79012
275.7382, 55.08245
276.2202, 54.78267
276.7024, 54.37334
277.1845, 54.03475
277.6666, 53.85740
278.1487, 53.98509
278.6308, 54.69172
279.1129, 56.35939
279.5951, 57.24257
280.0772, 56.50863
280.5593, 55.84942
281.0414, 56.42847
281.5235, 58.06157
282.0056, 59.59683
282.4878, 59.83842
282.9699, 58.49846
283.4520, 57.97535
283.9341, 58.97866
284.4162, 59.98219
284.8983, 60.19934
285.3805, 59.86346
285.8626, 59.77523
286.3447, 60.62776
286.8268, 62.39062
287.3089, 63.33461
287.7910, 62.57507
288.2732, 62.01481
288.7553, 62.15455
289.2374, 62.89288
289.7195, 64.04450
290.2016, 65.54478
290.6837, 67.26529
291.1659, 68.50777
291.6480, 68.90681
292.1301, 69.25010
292.6122, 69.51012
293.0943, 69.82729
293.5764, 70.36832
294.0586, 71.21133
294.5407, 72.33762
295.0228, 73.70415
295.5049, 75.65098
295.9870, 77.43185
296.4691, 79.00414
296.9513, 80.40539
297.4334, 81.61370
297.9155, 82.62698
298.3976, 83.59485
298.8797, 84.75058
299.3618, 86.04846
299.8440, 87.69857
300.3261, 90.05991
300.8082, 92.52840
301.2903, 94.59293
301.7724, 96.16761
302.2545, 97.59596
302.7367, 99.31168
303.2188, 101.4546
303.7009, 103.2934
304.1830, 104.4732
304.6651, 105.6715
305.1472, 107.3009
305.6294, 109.3702
306.1115, 111.6874
306.5936, 114.1233
307.0757, 116.7004
307.5578, 119.0741
308.0399, 120.9204
308.5221, 122.9209
309.0042, 125.6442
309.4863, 128.7974
309.9684, 131.4723
310.4505, 132.9741
310.9326, 133.5845
311.4148, 135.2603
311.8969, 138.9830
312.3790, 142.4702
312.8611, 144.9993
313.3432, 146.9681
313.8253, 149.1801
314.3075, 152.0311
314.7896, 155.0527
315.2717, 157.0205
315.7538, 157.0293
316.2359, 157.2922
316.7180, 158.0536
317.2001, 159.1203
317.6823, 160.4885
318.1644, 162.1309
318.6465, 163.5536
319.1286, 164.0194
319.6107, 163.2086
320.0928, 161.9971
320.5750, 160.0068
321.0571, 157.8817
321.5392, 156.1703
322.0213, 154.9043
322.5034, 153.6816
322.9855, 152.1481
323.4677, 150.2810
323.9498, 148.0155
324.4319, 145.3877
324.9140, 142.3966
325.3961, 138.7102
325.8782, 134.6003
326.3604, 130.7915
326.8425, 127.8333
327.3246, 125.6392
327.8067, 123.1557
328.2888, 120.3908
328.7709, 117.3792
329.2531, 113.8065
329.7352, 110.0577
330.2173, 106.7199
330.6994, 104.0701
331.1815, 102.0047
331.6636, 100.2347
332.1458, 99.56513
332.6279, 98.17819
333.1100, 95.57713
333.5921, 92.46351
334.0742, 89.31870
334.5563, 86.35339
335.0385, 83.78616
335.5206, 81.98379
336.0027, 81.21402
336.4848, 80.60551
336.9669, 80.40748
337.4490, 80.15352
337.9312, 79.50613
338.4133, 78.47404
338.8954, 77.29845
339.3775, 76.18477
339.8596, 75.12540
340.3417, 74.19849
340.8239, 73.23478
341.3060, 72.55288
341.7881, 72.42976
342.2702, 72.66980
342.7523, 72.89993
343.2344, 72.89388
343.7166, 72.68404
344.1987, 72.42686
344.6808, 71.94375
345.1629, 71.62373
345.6450, 71.52929
346.1271, 71.60726
346.6093, 71.80421
347.0914, 72.09750
347.5735, 72.49277
348.0556, 73.03646
348.5377, 74.08293
349.0198, 74.60587
349.5020, 74.14868
349.9841, 73.58404
350.4662, 73.54232
350.9483, 74.06161
351.4304, 74.73339
351.9125, 75.09233
352.3947, 75.05247
352.8768, 75.27389
353.3589, 75.93083
353.8410, 76.67113
354.3231, 77.48438
354.8052, 78.28300
355.2874, 78.91740
355.7695, 79.26395
356.2516, 79.37892
356.7337, 79.61040
357.2158, 80.26028
357.6979, 80.59477
358.1800, 80.21237
358.6621, 79.58469
359.1443, 79.20447
359.6264, 79.25978
360.1085, 79.63589
360.5906, 80.21883
361.0727, 81.25967
361.5548, 81.83306
362.0370, 81.45291
362.5191, 80.90864
363.0012, 80.65812
363.4833, 80.74926
363.9654, 80.97426
364.4475, 81.04475
364.9297, 80.92419
365.4118, 81.27333
365.8939, 82.40186
366.3760, 83.69900
366.8581, 84.96935
367.3402, 86.21151
367.8224, 87.47526
368.3045, 88.83961
368.7866, 90.19444
369.2687, 91.16383
369.7508, 91.54383
370.2329, 91.98204
370.7151, 92.67131
371.1972, 93.53372
371.6793, 94.55714
372.1614, 95.75010
372.6435, 96.95933
373.1256, 97.90218
373.6078, 98.53886
374.0899, 99.47006
374.5720, 101.0658
375.0541, 102.7917
375.5362, 104.2592
376.0183, 105.4766
376.5005, 106.6266
376.9826, 107.8674
377.4647, 109.1459
377.9468, 110.2607
378.4289, 111.1516
378.9110, 111.9809
379.3932, 112.8525
379.8753, 113.7424
380.3574, 114.6204
380.8395, 115.6100
381.3216, 116.4612
381.8037, 116.8740
382.2859, 116.8482
382.7680, 116.5076
383.2501, 115.9424
383.7322, 115.0221
384.2143, 113.5963
384.6964, 111.5896
385.1786, 109.3621
385.6607, 106.9028
386.1428, 104.3918
386.6249, 102.4126
387.1070, 101.2738
387.5891, 100.2257
388.0713, 98.26466
388.5534, 95.48694
389.0355, 92.79221
389.5176, 90.51279
389.9997, 88.30357
390.4818, 85.71299
390.9640, 82.74283
391.4461, 79.93156
391.9282, 77.63346
392.4103, 75.81480
392.8924, 74.15230
393.3745, 72.66216
393.8567, 71.29087
394.3388, 70.12764
394.8209, 69.05801
395.3030, 67.87244
395.7851, 66.47714
396.2672, 64.94854
396.7494, 63.36913
397.2315, 61.58667
397.7136, 60.15984
398.1957, 59.37652
398.6778, 58.76851
399.1599, 57.81364
399.6420, 56.54264
400.1241, 55.55682
400.6063, 55.49752
401.0884, 56.41712
401.5705, 56.41972
402.0526, 54.47871
402.5347, 52.89162
403.0168, 52.71022
403.4990, 53.27661
403.9811, 53.47001
404.4632, 52.75000
404.9453, 51.46906
405.4274, 50.46755
405.9095, 49.84583
406.3917, 49.37440
406.8738, 49.17479
407.3559, 49.01326
407.8380, 48.80695
408.3201, 48.49501
408.8022, 47.93113
409.2844, 46.82257
409.7665, 45.09572
410.2486, 44.11103
410.7307, 44.64146
411.2128, 45.11303
411.6949, 45.05756
412.1771, 44.63780
412.6592, 44.13176
413.1413, 43.65905
413.6234, 43.23254
414.1055, 42.86861
414.5876, 42.54342
415.0698, 42.35168
415.5519, 42.59014
416.0340, 42.78616
416.5161, 42.57722
416.9982, 41.93148
417.4803, 41.13972
417.9625, 40.35869
418.4446, 39.61220
418.9267, 39.00851
419.4088, 38.44809
419.8909, 38.24808
420.3730, 38.96923
420.8552, 40.15463
421.3373, 40.82903
421.8194, 40.37169
422.3015, 39.56993
422.7836, 39.42526
423.2657, 39.92884
423.7479, 40.34417
424.2300, 40.36773
424.7121, 40.15193
425.1942, 39.95530
425.6763, 39.78805
426.1584, 39.59192
426.6406, 39.28848
427.1227, 38.95477
427.6048, 38.71549
428.0869, 38.58928
428.5690, 38.56607
429.0511, 38.67436
429.5333, 38.91172
430.0154, 39.04314
430.4975, 38.91455
430.9796, 38.82439
431.4617, 39.11126
431.9438, 39.57894
432.4260, 39.65069
432.9081, 39.00655
433.3902, 38.00071
433.8723, 37.46985
434.3544, 37.63079
434.8365, 37.94552
435.3187, 38.65584
435.8008, 39.34216
436.2829, 39.66311
436.7650, 39.58149
437.2471, 39.22383
437.7292, 38.65750
438.2114, 37.86678
438.6935, 37.41805
439.1756, 37.46972
439.6577, 37.69628
440.1398, 38.19346
440.6219, 38.77099
441.1040, 39.24849
441.5862, 39.54731
442.0683, 39.56739
442.5504, 39.01563
443.0325, 37.58454
443.5146, 36.52437
443.9967, 35.90223
444.4789, 35.71608
444.9610, 36.29003
445.4431, 37.39256
445.9252, 38.27071
446.4073, 38.24894
446.8894, 37.58922
447.3716, 37.32495
447.8537, 37.59921
448.3358, 37.91316
448.8179, 38.05180
449.3000, 38.11294
449.7821, 38.16417
450.2643, 38.19208
450.7464, 38.34069
451.2285, 38.91103
451.7106, 39.77079
452.1927, 40.20203
452.6748, 39.96701
453.1570, 39.46880
453.6391, 38.93006
454.1212, 38.40163
454.6033, 38.25850
455.0854, 39.07451
455.5675, 39.95339
456.0497, 39.94531
456.5318, 39.17749
457.0139, 38.50548
457.4960, 38.34539
457.9781, 38.58282
458.4602, 38.95076
458.9424, 39.54629
459.4245, 40.04854
459.9066, 40.21528
460.3887, 40.36497
460.8708, 40.99467
461.3529, 42.09148
461.8351, 43.00706
462.3172, 43.09673
462.7993, 42.32916
463.2814, 41.68310
463.7635, 41.03113
464.2456, 40.63495
464.7278, 40.73913
465.2099, 41.07769
465.6920, 41.26116
466.1741, 41.14411
466.6562, 40.93829
467.1383, 41.02623
467.6205, 41.53951
468.1026, 41.93978
468.5847, 42.05114
469.0668, 42.18935
469.5489, 42.54255
470.0310, 43.04725
470.5132, 43.51582
470.9953, 43.85592
471.4774, 44.06279
471.9595, 44.09692
472.4416, 43.91561
472.9237, 43.71813
473.4059, 43.44317
473.8880, 43.27026
474.3701, 43.43810
474.8522, 43.98486
475.3343, 44.50968
475.8164, 44.76873
476.2986, 44.81023
476.7807, 44.74491
477.2628, 44.57964
477.7449, 44.32566
478.2270, 43.88120
478.7091, 43.34843
479.1913, 43.13061
479.6734, 43.30556
480.1555, 43.73429
480.6376, 44.60246
481.1197, 45.64662
481.6018, 46.27649
482.0839, 46.28709
482.5660, 45.99021
483.0482, 45.78153
483.5303, 45.63245
484.0124, 45.73677
484.4945, 46.21156
484.9766, 46.81128
485.4587, 47.59015
485.9409, 48.38587
486.4230, 48.83368
486.9051, 48.71309
487.3872, 48.22637
487.8693, 47.96676
488.3514, 48.09693
488.8336, 48.14914
489.3157, 47.89327
489.7978, 47.71372
490.2799, 47.90032
490.7620, 48.43282
491.2441, 49.09192
491.7263, 49.78865
492.2084, 50.46059
492.6905, 50.73973
493.1726, 50.41887
493.6547, 50.20362
494.1368, 50.45427
494.6190, 50.92308
495.1011, 51.42120
495.5832, 51.93462
496.0653, 52.32560
496.5474, 52.29595
497.0295, 52.05080
497.5117, 52.31506
497.9938, 53.31476
498.4759, 54.32753
498.9580, 54.82570
499.4401, 54.82682
499.9222, 54.53797
500.4044, 53.84793
500.8865, 52.99768
501.3686, 51.73622
501.8507, 50.44766
502.3328, 50.10742
502.8149, 51.08422
503.2971, 52.38791
503.7792, 52.57054
504.2613, 51.18649
504.7434, 50.25288
505.2255, 49.94346
505.7076, 49.85933
506.1898, 50.02592
506.6719, 50.24754
507.1540, 50.13937
507.6361, 49.48419
508.1182, 48.55534
508.6003, 48.05755
509.0825, 48.31268
509.5646, 48.13085
510.0467, 46.96995
510.5288, 45.71092
511.0109, 44.80967
511.4930, 44.23877
511.9752, 43.73777
512.4573, 43.12416
512.9394, 42.48461
513.4215, 42.07647
513.9036, 41.95683
514.3857, 41.68993
514.8679, 41.02001
515.3500, 40.17543
515.8321, 39.45818
516.3142, 38.88549
516.7963, 38.33556
517.2784, 37.58825
517.7606, 36.90814
518.2427, 36.76149
518.7248, 37.16140
519.2069, 37.59279
519.6890, 37.70341
520.1711, 37.57234
520.6533, 37.59167
521.1354, 37.92743
521.6175, 38.16828
522.0996, 38.32871
522.5817, 38.31630
523.0638, 37.91888
523.5460, 37.17408
524.0281, 36.42855
524.5102, 35.99192
524.9923, 35.86374
525.4744, 36.07209
525.9565, 36.95802
526.4387, 37.74217
526.9208, 38.34212
527.4029, 38.73263
527.8850, 38.77571
528.3671, 38.46574
528.8492, 38.21208
529.3314, 38.58862
529.8135, 39.50062
530.2956, 39.97700
530.7777, 39.80620
531.2598, 39.52381
531.7419, 39.40981
532.2241, 39.41613
532.7062, 39.49084
533.1883, 39.67172
533.6704, 39.82396
534.1525, 39.94946
534.6346, 39.96971
535.1168, 39.52789
535.5989, 38.48291
536.0810, 37.64178
536.5631, 37.92805
537.0452, 39.41011
537.5273, 40.40324
538.0095, 40.59255
538.4916, 40.69551
538.9737, 41.19666
539.4558, 41.70730
539.9379, 41.44794
540.4200, 40.22737
540.9022, 38.87113
541.3843, 38.57005
541.8664, 39.51582
542.3485, 40.44399
542.8306, 41.74968
543.3127, 42.57501
543.7948, 42.27024
544.2769, 41.42153
544.7590, 40.91140
545.2411, 41.07452
545.7233, 41.55218
546.2054, 41.96638
546.6875, 42.31737
547.1696, 42.59510
547.6517, 42.82134
548.1339, 42.92931
548.6160, 42.60832
549.0981, 42.09044
549.5802, 42.10701
550.0623, 43.35368
550.5444, 44.57336
551.0266, 44.91560
551.5087, 44.62573
551.9908, 44.17000
552.4729, 43.67373
552.9550, 43.32981
553.4371, 43.36326
553.9193, 43.78325
554.4014, 44.58827
554.8835, 46.48146
555.3656, 47.92876
555.8477, 47.97155
556.3298, 47.35448
556.8120, 47.27642
557.2941, 48.15585
557.7762, 49.28283
558.2583, 49.48618
558.7404, 48.56674
559.2225, 48.42587
559.7047, 49.74152
560.1868, 51.02760
560.6689, 51.39096
561.1510, 51.30951
561.6331, 51.63864
562.1152, 52.74109
562.5974, 54.00382
563.0795, 54.80738
563.5616, 55.29150
564.0437, 56.00376
564.5258, 57.09994
565.0079, 58.21142
565.4901, 58.87243
565.9722, 59.15001
566.4543, 60.10024
566.9364, 62.40076
567.4185, 64.59259
567.9006, 66.12436
568.3828, 67.20753
568.8649, 67.95536
569.3470, 68.47718
569.8291, 69.33105
570.3112, 71.25294
570.7933, 74.33813
571.2755, 76.88669
571.7576, 78.22629
572.2397, 79.88266
572.7218, 82.35419
573.2039, 85.26099
573.6860, 88.20992
574.1682, 91.10946
574.6503, 93.98509
575.1324, 96.81173
575.6145, 99.62798
576.0966, 102.5805
576.5787, 105.6429
577.0609, 108.9902
577.5430, 112.9636
578.0251, 117.1939
578.5072, 120.7431
578.9893, 123.2295
579.4714, 125.8534
579.9536, 129.0101
580.4357, 132.5839
580.9178, 136.6919
581.3999, 141.2069
581.8820, 145.4042
582.3641, 148.6201
582.8463, 151.1415
583.3284, 154.6730
583.8105, 159.8216
584.2926, 165.1877
584.7747, 170.9637
585.2568, 176.7033
585.7390, 182.2244
586.2211, 187.4198
586.7032, 192.0600
587.1853, 195.7994
587.6674, 199.0017
588.1495, 202.8906
588.6317, 207.7710
589.1138, 211.4592
589.5959, 213.0728
590.0780, 213.3114
590.5601, 213.2048
591.0422, 212.7560
591.5244, 211.1618
592.0065, 208.0043
592.4886, 203.7348
592.9707, 198.5663
593.4528, 192.6485
593.9349, 186.2363
594.4171, 179.4247
594.8992, 172.4749
595.3813, 165.8101
595.8634, 159.4980
596.3455, 153.2508
596.8276, 147.0366
597.3098, 140.9147
597.7919, 134.6718
598.2740, 128.5781
598.7561, 123.0476
599.2382, 118.2439
599.7203, 113.9894
600.2025, 109.9375
600.6846, 106.0892
601.1667, 103.1415
601.6488, 101.5852
602.1309, 100.1098
602.6130, 97.55983
603.0952, 94.48787
603.5773, 92.09104
604.0594, 90.71700
604.5415, 89.64191
605.0236, 88.51775
605.5057, 87.43980
605.9879, 86.53038
606.4700, 85.81981
606.9521, 85.38670
607.4342, 85.37461
607.9163, 85.67496
608.3984, 85.44380
608.8806, 83.99063
609.3627, 82.95166
609.8448, 82.78246
610.3269, 82.82491
610.8090, 82.58910
611.2911, 82.04955
611.7733, 81.43800
612.2554, 80.90055
612.7375, 80.41237
613.2196, 79.80267
613.7017, 79.01393
614.1838, 78.75768
614.6660, 79.58169
615.1481, 80.62221
615.6302, 80.83122
616.1123, 80.27104
616.5944, 79.66335
617.0765, 79.24094
617.5587, 78.73714
618.0408, 77.61854
618.5229, 76.32619
619.0050, 75.98158
619.4871, 76.95609
619.9692, 78.30947
620.4514, 78.78551
620.9335, 78.29354
621.4156, 77.61954
621.8977, 76.61375
622.3798, 75.59325
622.8619, 74.57156
623.3441, 73.61449
623.8262, 72.82167
624.3083, 72.21595
624.7904, 71.66867
625.2725, 71.06152
625.7546, 70.43355
626.2367, 69.96140
626.7188, 69.68099
627.2009, 69.21056
627.6830, 68.28529
628.1652, 67.09554
628.6473, 66.06182
629.1294, 65.22416
629.6115, 64.38830
630.0936, 63.55091
630.5757, 62.68159
631.0579, 61.67836
631.5400, 60.62217
632.0221, 59.67779
632.5042, 58.92921
632.9863, 58.40355
633.4684, 58.20709
633.9506, 58.42072
634.4327, 58.57880
634.9148, 58.85797
635.3969, 58.80595
635.8790, 57.90242
636.3611, 56.62828
636.8433, 55.87456
637.3254, 56.01934
637.8075, 56.21142
638.2896, 55.77630
638.7717, 54.97811
639.2538, 54.24553
639.7360, 53.65181
640.2181, 53.32546
640.7002, 53.41331
641.1823, 53.79099
641.6644, 53.95291
642.1465, 53.90535
642.6287, 53.60688
643.1108, 52.59223
643.5929, 51.72679
644.0750, 51.78238
644.5571, 52.50183
645.0392, 53.05263
645.5214, 52.96051
646.0035, 52.50990
646.4856, 52.12869
646.9677, 51.81692
647.4498, 51.59417
647.9319, 51.50295
648.4141, 51.42323
648.8962, 51.26518
649.3783, 51.03683
649.8604, 50.77448
650.3425, 50.49005
650.8246, 50.15865
651.3068, 49.65828
651.7889, 49.16463
652.2710, 48.92276
652.7531, 48.94341
653.2352, 49.08841
653.7173, 49.29830
654.1995, 49.46606
654.6816, 49.05326
655.1637, 47.65090
655.6458, 46.65116
656.1279, 46.60656
656.6100, 46.75446
657.0922, 46.76652
657.5743, 46.61274
658.0564, 46.26344
658.5385, 45.52066
659.0206, 44.83908
659.5027, 44.85671
659.9849, 45.28239
660.4670, 45.19081
660.9491, 44.35511
661.4312, 43.45449
661.9133, 43.12095
662.3954, 43.30779
662.8776, 43.35217
663.3597, 43.32801
663.8418, 43.05580
664.3239, 42.19885
664.8060, 41.32469
665.2881, 41.00389
665.7703, 41.14327
666.2524, 41.15153
666.7345, 40.59750
667.2166, 39.78318
667.6987, 39.22697
668.1808, 38.92602
668.6630, 38.81327
669.1451, 38.95316
669.6272, 39.09242
670.1093, 39.01539
670.5914, 38.71453
671.0735, 38.24747
671.5557, 37.38380
672.0378, 36.63726
672.5199, 36.13433
673.0020, 35.86132
673.4841, 36.00634
673.9662, 36.44051
674.4484, 36.52149
674.9305, 35.65036
675.4126, 34.21503
675.8947, 33.57011
676.3768, 33.91315
676.8589, 34.16442
677.3411, 33.97627
677.8232, 33.78844
678.3053, 34.09829
678.7874, 34.72562
679.2695, 34.99719
679.7516, 34.59867
680.2338, 34.01251
680.7159, 33.35766
681.1980, 32.76201
681.6801, 32.48784
682.1622, 32.54510
682.6443, 32.63131
683.1265, 32.49381
683.6086, 32.18716
684.0907, 31.97659
684.5728, 31.89364
685.0549, 31.83807
685.5370, 31.83846
686.0192, 31.82598
686.5013, 31.68659
686.9834, 31.49867
687.4655, 31.52758
687.9476, 32.08926
688.4297, 32.50196
688.9119, 31.96529
689.3940, 30.85189
689.8761, 29.96810
690.3582, 29.45909
690.8403, 29.25519
691.3224, 29.30139
691.8046, 29.60316
692.2867, 30.20552
692.7688, 31.44232
693.2509, 32.44511
693.7330, 33.61967
694.2151, 34.16213
694.6973, 33.13324
695.1794, 31.11702
695.6615, 29.50807
696.1436, 28.90911
696.6257, 28.89338
697.1078, 29.30678
697.5900, 29.92960
698.0721, 29.83460
698.5542, 28.83738
699.0363, 27.96989
699.5184, 27.98342
700.0005, 28.61768
700.4827, 28.96600
700.9648, 28.91315
701.4469, 28.74518
701.9290, 28.30798
702.4111, 27.90441
702.8932, 27.77231
703.3754, 27.80362
703.8575, 27.72847
704.3396, 27.42687
704.8217, 27.12326
705.3038, 27.16886
705.7859, 27.46715
706.2681, 27.47686
706.7502, 27.09221
707.2323, 26.90481
707.7144, 27.38494
708.1965, 28.15418
708.6786, 28.30546
709.1607, 27.61352
709.6428, 27.00347
710.1249, 26.39550
710.6071, 26.02120
711.0892, 26.27456
711.5713, 26.77232
712.0534, 26.79502
712.5355, 26.12264
713.0176, 25.36335
713.4998, 25.16121
713.9819, 25.45969
714.4640, 26.07793
714.9461, 27.11065
715.4282, 27.81277
715.9103, 27.81948
716.3925, 27.38250
716.8746, 26.78134
717.3567, 25.97057
717.8388, 25.41078
718.3209, 25.03586
718.8030, 25.03723
719.2852, 25.94163
719.7673, 27.07852
720.2494, 27.34814
720.7315, 26.62760
721.2136, 26.03484
721.6957, 26.80655
722.1779, 28.41998
722.6600, 28.83938
723.1421, 27.89800
723.6242, 27.25405
724.1063, 27.45591
724.5884, 27.99827
725.0706, 28.41503
725.5527, 28.71026
726.0348, 28.89855
726.5169, 28.86582
726.9990, 28.86929
727.4811, 29.21520
727.9633, 29.50278
728.4454, 29.07746
728.9275, 28.07845
729.4096, 27.43900
729.8917, 27.90099
730.3738, 28.83598
730.8560, 28.72689
731.3381, 27.52891
731.8202, 26.96558
732.3023, 27.51895
732.7844, 28.24199
733.2665, 28.44843
733.7487, 28.26454
734.2308, 28.19957
734.7129, 28.28481
735.1950, 28.42800
735.6771, 28.87207
736.1592, 29.14791
736.6414, 28.64207
737.1235, 27.67882
737.6056, 27.12806
738.0877, 27.38695
738.5698, 27.94141
739.0519, 28.01651
739.5341, 27.69201
740.0162, 27.79252
740.4983, 28.49301
740.9804, 28.94639
741.4625, 28.56887
741.9446, 27.84796
742.4268, 27.76490
742.9089, 28.50362
743.3910, 28.86788
743.8731, 28.40717
744.3552, 27.93486
744.8373, 27.84020
745.3195, 27.97936
745.8016, 28.18339
746.2837, 28.38079
746.7658, 28.47051
747.2479, 28.32488
747.7300, 28.02414
748.2122, 27.69954
748.6943, 27.34593
749.1764, 27.40135
749.6585, 28.11286
750.1406, 28.95137
750.6227, 29.42123
751.1049, 29.52076
751.5870, 29.42471
752.0691, 28.90488
752.5512, 28.51413
753.0333, 28.28498
753.5154, 28.27229
753.9976, 28.75612
754.4797, 29.50613
754.9618, 29.82286
755.4439, 29.26632
755.9260, 28.42832
756.4081, 28.02198
756.8903, 27.99691
757.3724, 28.16935
757.8545, 28.51989
758.3366, 29.05743
758.8187, 29.89001
759.3008, 30.77571
759.7830, 31.09251
760.2651, 30.53751
760.7472, 30.12090
761.2293, 30.08712
761.7114, 29.91220
762.1935, 29.14540
762.6757, 28.22155
763.1578, 27.70189
763.6399, 27.71717
764.1220, 28.05245
764.6041, 28.86642
765.0862, 29.72772
765.5684, 29.80821
766.0505, 29.28281
766.5326, 29.08222
767.0147, 29.51698
767.4968, 30.12303
767.9789, 30.38994
768.4611, 30.33310
768.9432, 30.27025
769.4253, 30.09742
769.9074, 30.09990
770.3895, 30.55105
770.8716, 30.98209
771.3538, 31.03596
771.8359, 30.79831
772.3180, 30.58899
772.8001, 30.51374
773.2822, 30.48091
773.7643, 30.38542
774.2465, 30.31606
774.7286, 30.57191
775.2107, 31.04392
775.6928, 31.01151
776.1749, 30.02241
776.6570, 28.77049
777.1392, 28.78279
777.6213, 30.34828
778.1034, 31.01725
778.5855, 30.30772
779.0676, 29.59908
779.5497, 29.52167
780.0319, 29.75732
780.5140, 29.89035
780.9961, 29.89871
781.4782, 30.01844
781.9603, 30.38313
782.4424, 30.79205
782.9246, 31.15731
783.4067, 31.48157
783.8888, 31.88147
784.3709, 32.30615
784.8530, 32.34871
785.3351, 31.52804
785.8173, 30.35000
786.2994, 30.23278
786.7815, 31.17935
787.2636, 31.77054
787.7457, 31.68855
788.2278, 31.39989
788.7100, 31.13328
789.1921, 30.96620
789.6742, 31.24621
790.1563, 32.50853
790.6384, 33.21643
791.1205, 32.81409
791.6026, 32.31631
792.0847, 32.26483
792.5668, 32.52046
793.0490, 32.85217
793.5311, 33.18423
794.0132, 33.33856
794.4953, 32.98389
794.9774, 32.44441
795.4595, 32.37114
795.9417, 32.68786
796.4238, 32.86686
796.9059, 32.73028
797.3880, 32.48504
797.8701, 32.34333
798.3522, 32.30373
798.8344, 32.35433
799.3165, 32.50491
799.7986, 32.72616
800.2807, 33.20838
800.7628, 33.58175
801.2449, 33.29839
801.7271, 32.74077
802.2092, 33.02808
802.6913, 34.82853
803.1734, 36.46357
803.6555, 37.02979
804.1376, 37.01808
804.6198, 36.66999
805.1019, 36.23504
805.5840, 36.34324
806.0661, 37.25277
806.5482, 38.23568
807.0303, 38.15239
807.5125, 37.16808
807.9946, 36.89915
808.4767, 37.44555
808.9588, 38.17306
809.4409, 38.97061
809.9230, 39.70555
810.4052, 40.25901
810.8873, 40.62292
811.3694, 40.71045
811.8515, 39.96095
812.3336, 39.69802
812.8157, 40.89620
813.2979, 42.08585
813.7800, 41.88331
814.2621, 40.65005
814.7442, 39.56808
815.2263, 39.07795
815.7084, 39.15441
816.1906, 40.25973
816.6727, 41.75489
817.1548, 42.18328
817.6369, 41.58230
818.1190, 40.95544
818.6011, 40.73166
819.0833, 40.85163
819.5654, 41.31220
820.0475, 42.14168
820.5296, 42.45278
821.0117, 41.90025
821.4938, 41.53984
821.9760, 41.70054
822.4581, 42.11127
822.9402, 42.72066
823.4223, 43.42200
823.9044, 43.71808
824.3865, 43.11079
824.8687, 42.69627
825.3508, 43.25226
825.8329, 43.92622
826.3150, 43.70192
826.7971, 42.85600
827.2792, 42.36017
827.7614, 42.64486
828.2435, 43.27424
828.7256, 43.91081
829.2077, 44.44698
829.6898, 44.31394
830.1719, 43.50243
830.6541, 42.90566
831.1362, 42.86379
831.6183, 43.14500
832.1004, 43.55757
832.5825, 44.09273
833.0646, 44.16253
833.5468, 43.13994
834.0289, 42.63494
834.5110, 43.22585
834.9931, 43.99627
835.4752, 44.35885
835.9573, 44.44367
836.4395, 44.69880
836.9216, 45.34940
837.4037, 45.80013
837.8858, 45.40401
838.3679, 44.91008
838.8500, 45.31926
839.3322, 46.27758
839.8143, 46.73720
840.2964, 46.35655
840.7785, 45.69778
841.2606, 45.27614
841.7427, 45.12013
842.2249, 45.40917
842.7070, 46.15616
843.1891, 47.03059
843.6712, 48.02767
844.1533, 48.87939
844.6354, 49.36863
845.1176, 49.51506
845.5997, 49.39385
846.0818, 48.27797
846.5639, 48.07013
847.0460, 49.26789
847.5281, 50.80204
848.0103, 52.38044
848.4924, 53.88837
848.9745, 55.19745
849.4566, 56.28285
849.9387, 57.27751
850.4208, 58.24298
850.9030, 59.16130
851.3851, 60.04919
851.8672, 60.87501
852.3493, 61.52295
852.8314, 62.00680
853.3135, 62.55030
853.7957, 63.31243
854.2778, 64.25350
854.7599, 65.39741
855.2420, 66.73395
855.7241, 67.60251
856.2062, 67.88908
856.6884, 67.88982
857.1705, 67.67508
857.6526, 67.38404
858.1347, 67.29183
858.6168, 67.47459
859.0989, 67.50986
859.5811, 67.70561
860.0632, 67.36243
860.5453, 65.74979
861.0274, 63.96252
861.5095, 63.15348
861.9916, 63.12742
862.4738, 62.68191
862.9559, 61.21883
863.4380, 59.57594
863.9201, 58.05251
864.4022, 56.81067
864.8843, 56.24916
865.3665, 56.16273
865.8486, 55.86033
866.3307, 55.05866
866.8128, 54.22452
867.2949, 54.10201
867.7770, 53.28273
868.2592, 53.88923
868.7413, 52.44427
869.2234, 51.57159
869.7055, 51.75012
870.1876, 52.29673
870.6697, 52.58689
871.1519, 52.69355
871.6340, 53.03408
872.1161, 53.77105
872.5981, 54.42883
873.0803, 55.00239
873.5624, 55.46952
874.0445, 55.76438
874.5266, 55.96935
875.0087, 56.22680
875.4908, 56.56036
875.9730, 56.78571
876.4551, 56.43687
876.9372, 56.39775
877.4193, 57.52910
877.9014, 59.12868
878.3835, 60.28083
878.8657, 60.89383
879.3478, 61.31413
879.8299, 61.67930
880.3120, 62.21934
880.7941, 63.31689
881.2762, 64.84957
881.7584, 66.59178
882.2405, 68.46666
882.7226, 69.68788
883.2047, 69.81644
883.6868, 69.82964
884.1689, 71.14880
884.6511, 73.71831
885.1332, 75.64223
885.6153, 76.73510
886.0974, 77.67360
886.5795, 78.41408
887.0616, 79.26561
887.5438, 80.45266
888.0259, 81.94702
888.5080, 83.71995
888.9901, 86.05504
889.4722, 87.97871
889.9543, 88.78389
890.4365, 89.77268
890.9186, 91.92163
891.4007, 94.51574
891.8828, 96.46704
892.3649, 97.69051
892.8470, 99.02033
893.3292, 100.9480
893.8113, 103.1619
894.2934, 105.6281
894.7755, 108.0517
895.2576, 109.6011
895.7397, 110.4537
896.2219, 111.9079
896.7040, 114.6499
897.1861, 117.8740
897.6682, 120.3341
898.1503, 122.1468
898.6324, 124.3744
899.1146, 127.0487
899.5967, 129.6693
900.0788, 132.1269
900.5609, 134.3618
901.0430, 136.2805
901.5251, 137.9361
902.0073, 139.6499
902.4894, 141.3859
902.9715, 143.2679
903.4536, 145.2466
903.9357, 147.4458
904.4178, 150.1272
904.9000, 152.9425
905.3821, 155.4906
905.8642, 157.7432
906.3463, 159.4207
906.8284, 159.7720
907.3105, 160.3455
907.7927, 162.3720
908.2748, 164.5897
908.7569, 165.5623
909.2390, 165.4641
909.7211, 165.4132
910.2032, 165.9273
910.6854, 166.4552
911.1675, 166.5457
911.6496, 166.2919
912.1317, 165.9393
912.6138, 165.3865
913.0959, 164.0820
913.5781, 161.9237
914.0602, 159.7894
914.5423, 158.5152
915.0244, 157.8373
915.5065, 157.0987
915.9886, 156.3024
916.4708, 154.6393
916.9529, 151.8184
917.4350, 149.1787
917.9171, 147.6247
918.3992, 146.3163
918.8813, 143.6389
919.3635, 139.2579
919.8456, 135.9658
920.3277, 134.5002
920.8098, 132.9144
921.2919, 131.0822
921.7740, 128.7374
922.2562, 125.3145
922.7383, 121.2424
923.2204, 117.8272
923.7025, 115.5032
924.1846, 113.1071
924.6667, 110.3169
925.1489, 107.4185
925.6310, 104.6637
926.1131, 101.8778
926.5952, 98.59229
927.0773, 94.90062
927.5594, 91.77837
928.0416, 90.02602
928.5237, 88.64475
929.0058, 86.90826
929.4879, 84.82625
929.9700, 82.20024
930.4521, 79.21432
930.9343, 76.59885
931.4164, 74.65012
931.8985, 72.76174
932.3806, 70.02982
932.8627, 68.24036
933.3448, 66.35709
933.8270, 64.08879
934.3091, 62.80657
934.7912, 60.76780
935.2733, 58.67762
935.7554, 56.98339
936.2375, 55.71796
936.7197, 55.17752
937.2018, 55.73303
937.6839, 54.70007
938.1660, 51.24193
938.6481, 48.32732
939.1302, 47.21515
939.6124, 46.64112
940.0945, 45.18935
940.5766, 43.01717
941.0587, 41.60085
941.5408, 41.45924
942.0229, 41.24069
942.5051, 40.99504
942.9872, 40.53606
943.4693, 39.60113
943.9514, 38.48750
944.4335, 37.56804
944.9156, 36.89166
945.3978, 36.39671
945.8799, 36.26915
946.3620, 36.06055
946.8441, 35.39675
947.3262, 34.65388
947.8083, 34.19963
948.2905, 34.01558
948.7726, 33.95711
949.2547, 33.97292
949.7368, 33.98061
950.2189, 33.95843
950.7010, 33.85369
951.1832, 33.54785
951.6653, 33.11097
952.1474, 32.72725
952.6295, 32.41588
953.1116, 32.05095
953.5938, 31.54923
954.0759, 30.95246
954.5580, 30.09455
955.0400, 29.16155
955.5222, 29.40356
956.0043, 30.82537
956.4864, 31.80260
956.9685, 31.78284
957.4506, 31.43817
957.9327, 31.45481
958.4149, 30.89680
958.8970, 31.15566
959.3791, 29.76440
959.8612, 28.71479
960.3433, 28.07899
960.8254, 27.83810
961.3076, 28.10690
961.7897, 28.62673
962.2718, 29.07908
962.7539, 29.46380
963.2360, 29.76671
963.7181, 30.19232
964.2003, 30.21176
964.6824, 29.44607
965.1645, 28.62661
965.6466, 27.99756
966.1287, 27.62452
966.6108, 27.73989
967.0930, 28.44817
967.5751, 28.72255
968.0572, 27.87115
968.5393, 27.14756
969.0214, 27.11185
969.5035, 27.36934
969.9857, 27.68824
970.4678, 27.95741
970.9499, 27.96112
971.4320, 27.58026
971.9141, 27.34333
972.3962, 27.73048
972.8784, 28.22852
973.3605, 28.34563
973.8426, 28.28449
974.3247, 28.42689
974.8068, 28.77112
975.2889, 29.00385
975.7711, 28.93470
976.2532, 28.79260
976.7353, 29.01788
977.2174, 29.25106
977.6995, 28.55999
978.1816, 27.26158
978.6638, 26.61264
979.1459, 26.91640
979.6280, 27.53757
980.1101, 28.02373
980.5922, 28.30189
981.0743, 28.10768
981.5565, 27.53239
982.0386, 27.03025
982.5207, 26.64853
983.0028, 26.89420
983.4849, 28.04186
983.9670, 29.05049
984.4492, 28.64491
984.9313, 29.25843
985.4134, 29.34385
985.8955, 28.67552
986.3776, 29.01117
986.8597, 27.52671
987.3419, 26.28999
987.8240, 26.35963
988.3061, 27.08023
988.7882, 27.55170
989.2703, 27.77403
989.7524, 28.11322
990.2346, 28.83404
990.7167, 29.05079
991.1988, 28.20446
991.6809, 27.47849
992.1630, 27.71149
992.6451, 28.39769
993.1273, 28.59134
993.6094, 28.18963
994.0915, 28.05389
994.5736, 28.38021
995.0557, 28.71672
995.5378, 28.90498
996.0200, 29.14872
996.5021, 29.78559
996.9842, 30.51748
997.4663, 30.67396
997.9484, 30.07288
998.4305, 29.60680
998.9127, 29.50446
999.3948, 29.57215
999.8769, 29.98035
1000.359, 30.31775
1000.841, 29.98176
1001.323, 29.28124
1001.805, 29.13955
1002.287, 29.90305
1002.770, 30.59198
1003.252, 30.58622
1003.734, 30.45128
1004.216, 30.59258
1004.698, 30.86217
1005.180, 31.06625
1005.662, 31.18326
1006.144, 31.35811
1006.627, 31.72246
1007.109, 31.62869
1007.591, 29.87559
1008.073, 27.92902
1008.555, 27.58493
1009.037, 28.35230
1009.519, 29.34168
1010.001, 30.27797
1010.483, 31.03685
1010.966, 31.55278
1011.448, 31.79391
1011.930, 31.50203
1012.412, 31.01586
1012.894, 31.13625
1013.376, 31.65887
1013.858, 31.78797
1014.340, 31.37958
1014.823, 30.90615
1015.305, 30.68531
1015.787, 30.65011
1016.269, 30.72910
1016.751, 30.89740
1017.233, 31.07804
1017.715, 31.26042
1018.197, 31.44610
1018.679, 31.62921
1019.162, 31.57314
1019.644, 31.04621
1020.126, 30.28898
1020.608, 29.71865
1021.090, 29.36642
1021.572, 29.92626
1022.054, 31.46954
1022.536, 32.00621
1023.018, 30.77374
1023.501, 29.52710
1023.983, 29.92636
1024.465, 31.34442
1024.947, 31.71754
1025.429, 30.91705
1025.911, 30.66084
1026.393, 31.14000
1026.875, 31.42566
1027.358, 31.14687
1027.840, 30.73047
1028.322, 30.56090
1028.804, 30.62016
1029.286, 30.92194
1029.768, 31.67765
1030.250, 31.69390
1030.732, 30.52762
1031.214, 29.80334
1031.697, 30.26600
1032.179, 31.10148
1032.661, 31.58340
1033.143, 31.71709
1033.625, 31.47950
1034.107, 30.52674
1034.589, 30.09112
1035.071, 30.45594
1035.553, 30.83175
1036.036, 30.81866
1036.518, 30.85596
1037.000, 31.64384
1037.482, 32.91971
1037.964, 33.09993
1038.446, 31.15457
1038.928, 30.15296
1039.410, 31.10130
1039.893, 31.63027
1040.375, 30.31102
1040.857, 28.73292
1041.339, 28.59776
1041.821, 29.61909
1042.303, 30.26048
1042.785, 30.53535
1043.267, 30.35495
1043.750, 29.16999
1044.232, 28.20871
1044.714, 28.08353
1045.196, 28.23939
1045.678, 28.09982
1046.160, 27.74743
1046.642, 27.68408
1047.124, 28.25359
1047.606, 28.43771
1048.089, 27.63871
1048.571, 27.00136
1049.053, 27.21567
1049.535, 27.62515
1050.017, 27.46850
1050.499, 26.90459
1050.981, 26.78348
1051.463, 27.62758
1051.945, 27.86320
1052.428, 26.46028
1052.910, 25.22738
1053.392, 25.24390
1053.874, 25.61555
1054.356, 25.40265
1054.838, 24.71861
1055.320, 24.23862
1055.802, 24.20626
1056.285, 24.00357
1056.767, 22.83166
1057.249, 22.20125
1057.731, 23.63675
1058.213, 25.35159
1058.695, 25.23160
1059.177, 23.82519
1059.659, 23.29891
1060.141, 24.39504
1060.624, 25.20881
1061.106, 24.78730
1061.588, 24.27608
1062.070, 24.22088
1062.552, 24.39059
1063.034, 24.67416
1063.516, 24.94072
1063.998, 24.92370
1064.480, 24.53307
1064.963, 24.07025
1065.445, 23.50238
1065.927, 23.07810
1066.409, 23.04295
1066.891, 23.11738
1067.373, 22.86869
1067.855, 22.54036
1068.337, 22.89834
1068.820, 24.18003
1069.302, 25.00573
1069.784, 24.53221
1070.266, 23.77443
1070.748, 23.00198
1071.230, 22.41675
1071.712, 22.22036
1072.194, 22.33472
1072.677, 22.69954
1073.159, 23.28244
1073.641, 23.47798
1074.123, 22.51157
1074.605, 21.74600
1075.087, 22.20211
1075.569, 22.85896
1076.051, 22.73374
1076.533, 22.17091
1077.016, 21.94557
1077.498, 22.18050
1077.980, 22.37906
1078.462, 22.16777
1078.944, 22.11489
1079.426, 22.64824
1079.908, 23.30132
1080.390, 23.82537
1080.872, 24.14414
1081.354, 24.15436
1081.837, 23.87034
1082.319, 23.45465
1082.801, 22.62268
1083.283, 22.34735
1083.765, 23.86900
1084.247, 25.29653
1084.729, 24.93819
1085.211, 23.81043
1085.694, 23.35308
1086.176, 23.63437
1086.658, 23.85404
1087.140, 23.64030
1087.622, 23.65116
1088.104, 24.51998
1088.586, 25.30361
1089.068, 25.11902
1089.551, 24.71748
1090.033, 25.17016
1090.515, 26.24495
1090.997, 26.75110
1091.479, 26.19064
1091.961, 25.89266
1092.443, 26.72704
1092.925, 27.50051
1093.407, 27.34391
1093.890, 27.03194
1094.372, 27.43545
1094.854, 28.30886
1095.336, 28.95951
1095.818, 29.26303
1096.300, 29.15481
1096.782, 27.98195
1097.264, 27.22912
1097.746, 27.77425
1098.229, 28.68288
1098.711, 29.44206
1099.193, 29.91885
1099.675, 29.92371
1100.157, 29.43196
1100.639, 28.95350
1101.121, 28.31270
1101.603, 28.13332
1102.086, 28.97860
1102.568, 29.91109
1103.050, 30.47318
1103.532, 30.68855
1104.014, 30.41424
1104.496, 29.75112
1104.978, 29.68650
1105.460, 31.06073
1105.943, 31.90221
1106.425, 31.16660
1106.907, 30.72925
1107.389, 31.82167
1107.871, 33.33377
1108.353, 34.08903
1108.835, 34.18348
1109.317, 34.27412
1109.799, 34.34886
1110.281, 34.57087
1110.764, 35.25802
1111.246, 35.68572
1111.728, 35.55960
1112.210, 35.18006
1112.692, 34.42730
1113.174, 33.67028
1113.656, 34.01065
1114.138, 35.88471
1114.621, 36.86889
1115.103, 36.64524
1115.585, 36.02910
1116.067, 34.86201
1116.549, 33.70979
1117.031, 32.92377
1117.513, 32.33172
1117.995, 31.65082
1118.478, 30.88242
1118.960, 30.19841
1119.442, 29.50084
1119.924, 29.15782
1120.406, 29.42422
1120.888, 29.59925
1121.370, 29.44064
1121.852, 28.93916
1122.334, 27.95619
1122.817, 26.65381
1123.299, 25.98952
1123.781, 26.21119
1124.263, 25.96451
1124.745, 25.00713
1125.227, 24.35339
1125.709, 24.34238
1126.191, 24.64854
1126.673, 25.06636
1127.156, 25.50198
1127.638, 25.80356
1128.120, 25.98993
1128.602, 25.20114
1129.084, 23.25405
1129.566, 22.43863
1130.048, 23.34590
1130.530, 24.17019
1131.013, 23.83475
1131.495, 23.03683
1131.977, 22.78084
1132.459, 22.97664
1132.941, 23.27374
1133.423, 23.64774
1133.905, 23.65647
1134.387, 23.27266
1134.870, 22.99940
1135.352, 23.03506
1135.834, 23.13094
1136.316, 23.04564
1136.798, 22.87029
1137.280, 22.79737
1137.762, 22.79967
1138.244, 22.71976
1138.726, 22.61139
1139.208, 22.90261
1139.691, 23.59875
1140.173, 23.82808
1140.655, 22.97497
1141.137, 22.08485
1141.619, 22.71229
1142.101, 24.04681
1142.583, 24.74139
1143.065, 24.95545
1143.548, 25.12753
1144.030, 25.25766
1144.512, 25.01233
1144.994, 24.28083
1145.476, 23.53026
1145.958, 22.98311
1146.440, 22.78441
1146.922, 23.43191
1147.405, 24.24488
1147.887, 24.06231
1148.369, 23.45480
1148.851, 24.03996
1149.333, 25.81863
1149.815, 26.65778
1150.297, 25.15657
1150.779, 23.62339
1151.261, 23.30863
1151.744, 23.57157
1152.226, 24.39864
1152.708, 25.20660
1153.190, 25.23562
1153.672, 24.66623
1154.154, 24.20935
1154.636, 24.01153
1155.118, 23.99648
1155.600, 24.09746
1156.083, 24.43719
1156.565, 25.36069
1157.047, 26.22972
1157.529, 26.73096
1158.011, 26.82065
1158.493, 26.19394
1158.975, 24.87254
1159.457, 24.41695
1159.940, 25.76116
1160.422, 26.59825
1160.904, 26.69899
1161.386, 26.50760
1161.868, 25.97558
1162.350, 25.44485
1162.832, 25.23298
1163.314, 25.26624
1163.796, 25.38310
1164.279, 25.72382
1164.761, 25.24201
1165.243, 23.54872
1165.725, 22.42875
1166.207, 22.30576
1166.689, 22.55306
1167.171, 22.90057
1167.653, 23.15785
1168.135, 23.03613
1168.618, 22.59405
1169.100, 22.04574
1169.582, 21.40137
1170.064, 21.44545
1170.546, 22.22587
1171.028, 22.75303
1171.510, 22.69785
1171.992, 22.45900
1172.474, 22.35179
1172.957, 22.28022
1173.439, 22.03299
1173.921, 21.69926
1174.403, 21.54587
1174.885, 21.54025
1175.367, 21.61785
1175.849, 21.71897
1176.331, 21.60523
1176.814, 21.18500
1177.296, 20.83359
1177.778, 20.94720
1178.260, 21.21370
1178.742, 21.42982
1179.224, 21.45619
1179.706, 20.95876
1180.188, 20.17632
1180.671, 19.47245
1181.153, 19.00616
1181.635, 19.11191
1182.117, 20.17039
1182.599, 20.97033
1183.081, 20.62652
1183.563, 20.09723
1184.045, 19.97383
1184.527, 19.96293
1185.010, 19.74437
1185.492, 19.38560
1185.974, 19.05755
1186.456, 18.77346
1186.938, 18.72037
1187.420, 19.26620
1187.902, 19.53056
1188.384, 19.20215
1188.866, 18.77170
1189.349, 18.27057
1189.831, 17.95195
1190.313, 18.24964
1190.795, 18.92053
1191.277, 18.93012
1191.759, 18.99050
1192.241, 19.08267
1192.723, 18.49149
1193.206, 18.75793
1193.688, 18.06143
1194.170, 17.57728
1194.652, 18.05674
1195.134, 18.85455
1195.616, 19.04388
1196.098, 18.78930
1196.580, 18.87924
1197.063, 19.23888
1197.545, 18.88649
1198.027, 17.88924
1198.509, 17.72614
1198.991, 18.73792
1199.473, 19.52930
1199.955, 19.10209
1200.437, 18.30855
1200.919, 18.28584
1201.401, 18.62997
1201.884, 18.70442
1202.366, 18.57088
1202.848, 18.25237
1203.330, 17.88070
1203.812, 17.86989
1204.294, 18.28355
1204.776, 18.43247
1205.258, 17.61809
1205.741, 17.02021
1206.223, 17.71957
1206.705, 18.57779
1207.187, 18.64649
1207.669, 18.41312
1208.151, 18.57424
1208.633, 19.01985
1209.115, 19.17714
1209.598, 18.90302
1210.080, 18.62505
1210.562, 18.32892
1211.044, 18.14834
1211.526, 18.19178
1212.008, 18.24293
1212.490, 17.98168
1212.972, 17.93650
1213.454, 18.95982
1213.937, 20.68839
1214.419, 21.26764
1214.901, 20.38666
1215.383, 19.98842
1215.865, 20.20701
1216.347, 20.04059
1216.829, 19.19595
1217.311, 18.61228
1217.793, 18.87792
1218.276, 19.34706
1218.758, 19.10659
1219.240, 18.47314
1219.722, 18.30399
1220.204, 18.52561
1220.686, 18.97258
1221.168, 19.55388
1221.650, 20.06653
1222.133, 20.43048
1222.615, 20.48112
1223.097, 20.08327
1223.579, 19.75449
1224.061, 20.09013
1224.543, 20.58475
1225.025, 20.87455
1225.507, 20.93383
1225.990, 20.53293
1226.472, 19.97553
1226.954, 19.94894
1227.436, 20.47627
1227.918, 20.61577
1228.400, 19.65633
1228.882, 19.22817
1229.364, 20.29226
1229.846, 21.19109
1230.328, 21.34007
1230.811, 21.00834
1231.293, 20.03856
1231.775, 18.99365
1232.257, 19.04765
1232.739, 20.18944
1233.221, 20.71668
1233.703, 20.41692
1234.185, 20.53298
1234.668, 21.29091
1235.150, 21.58334
1235.632, 20.96253
1236.114, 20.57110
1236.596, 21.36470
1237.078, 22.57915
1237.560, 22.97670
1238.042, 22.67453
1238.525, 21.70743
1239.007, 20.44572
1239.489, 20.18357
1239.971, 20.80987
1240.453, 21.41718
1240.935, 21.70166
1241.417, 21.71810
1241.899, 21.38066
1242.381, 21.20912
1242.864, 21.97522
1243.346, 22.68574
1243.828, 22.32606
1244.310, 21.60439
1244.792, 21.21922
1245.274, 21.19517
1245.756, 21.45988
1246.238, 21.99760
1246.720, 22.48888
1247.203, 23.09352
1247.685, 23.30013
1248.167, 22.95853
1248.649, 22.35597
1249.131, 21.20797
1249.613, 20.47346
1250.095, 21.11593
1250.577, 20.61298
1251.059, 20.75757
1251.542, 21.21856
1252.024, 21.10698
1252.506, 21.93830
1252.988, 22.42160
1253.470, 22.46106
1253.952, 22.73577
1254.434, 23.41711
1254.916, 23.71072
1255.399, 23.00619
1255.881, 22.13778
1256.363, 22.21757
1256.845, 22.71895
1257.327, 22.92118
1257.809, 23.00020
1258.291, 23.38294
1258.773, 23.83625
1259.255, 23.62302
1259.738, 22.75718
1260.220, 22.35437
1260.702, 22.98554
1261.184, 23.61847
1261.666, 23.94088
1262.148, 24.18200
1262.630, 24.55888
1263.112, 24.74310
1263.594, 24.11668
1264.077, 23.47270
1264.559, 24.25451
1265.041, 26.15629
1265.523, 26.38629
1266.005, 24.52198
1266.487, 23.54218
1266.969, 23.62975
1267.451, 23.58166
1267.934, 23.10305
1268.416, 22.88310
1268.898, 23.31959
1269.380, 23.98056
1269.862, 24.35989
1270.344, 24.62524
1270.826, 25.15456
1271.308, 25.75329
1271.791, 26.11589
1272.273, 26.21943
1272.755, 26.07663
1273.237, 25.68722
1273.719, 24.90563
1274.201, 23.62784
1274.683, 22.86317
1275.165, 23.50393
1275.647, 24.10013
1276.130, 24.10470
1276.612, 23.91508
1277.094, 23.53852
1277.576, 23.28796
1278.058, 23.68593
1278.540, 24.37005
1279.022, 24.26973
1279.504, 23.30326
1279.986, 22.67684
1280.469, 22.35774
1280.951, 22.75642
1281.433, 23.97832
1281.915, 25.01970
1282.397, 25.52609
1282.879, 25.54795
1283.361, 25.10396
1283.843, 24.35010
1284.326, 23.47150
1284.808, 22.46398
##END=



