##NAMES=Pharmacoalumite
##RRUFFID=R060411
##IDEAL CHEMISTRY=KAl_4_(As^5+^O_4_)_3_(OH)_4_&#183;6.5H_2_O
##LOCALITY=Maria Josefa, Rodalquilar, Almeria Province, Spain
##OWNER=RRUFF
##SOURCE=Bob Jenkins
##DESCRIPTION=Pale green, yellow and colorless transparent single cubes associated with quartz
##STATUS=The identification of this mineral is confirmed by single-crystal X-ray diffraction and chemical analysis.
##URL=rruff.info/R060411
##MEASURED CHEMISTRY=(K_0.75_Na_0.25_)_Σ=1_(Al_3.94_Fe^3+^_0.06_)_Σ=4_(As_1.00_O_4_)_3_(OH)_4_·6.5H_2_O ; H not measured but estimated by difference and stoichiometry
174.9236, 1241.288
175.4057, 1241.878
175.8878, 1242.272
176.3699, 1242.297
176.8520, 1241.152
177.3341, 1239.481
177.8163, 1238.719
178.2984, 1240.274
178.7805, 1242.775
179.2626, 1244.368
179.7447, 1245.000
180.2268, 1244.670
180.7090, 1242.912
181.1911, 1240.080
181.6732, 1237.274
182.1553, 1234.010
182.6374, 1231.240
183.1195, 1231.641
183.6017, 1235.660
184.0838, 1240.569
184.5659, 1242.950
185.0480, 1243.300
185.5301, 1244.273
186.0123, 1247.974
186.4944, 1253.352
186.9765, 1257.008
187.4586, 1258.764
187.9407, 1259.142
188.4228, 1258.109
188.9050, 1255.849
189.3871, 1254.458
189.8692, 1255.664
190.3513, 1258.863
190.8334, 1261.165
191.3155, 1262.469
191.7977, 1262.759
192.2798, 1261.423
192.7619, 1258.475
193.2440, 1256.078
193.7261, 1256.058
194.2082, 1258.110
194.6904, 1258.177
195.1725, 1255.564
195.6546, 1251.897
196.1367, 1250.445
196.6188, 1251.348
197.1009, 1252.399
197.5831, 1252.166
198.0652, 1250.652
198.5473, 1250.069
199.0294, 1250.758
199.5115, 1252.085
199.9937, 1252.789
200.4758, 1252.800
200.9579, 1252.530
201.4400, 1251.887
201.9221, 1250.752
202.4042, 1250.736
202.8864, 1252.102
203.3685, 1254.423
203.8506, 1256.865
204.3327, 1259.486
204.8148, 1261.872
205.2969, 1264.071
205.7791, 1266.279
206.2612, 1266.620
206.7433, 1264.229
207.2254, 1260.482
207.7075, 1259.225
208.1896, 1261.295
208.6718, 1263.409
209.1539, 1263.645
209.6360, 1261.584
210.1181, 1259.790
210.6002, 1258.341
211.0823, 1257.296
211.5645, 1256.957
212.0466, 1257.679
212.5287, 1258.337
213.0108, 1257.943
213.4929, 1255.727
213.9750, 1255.836
214.4572, 1259.789
214.9393, 1265.697
215.4214, 1267.692
215.9035, 1264.221
216.3856, 1259.975
216.8678, 1257.415
217.3499, 1256.736
217.8320, 1256.940
218.3141, 1258.234
218.7962, 1260.258
219.2783, 1261.934
219.7605, 1263.165
220.2426, 1264.124
220.7247, 1264.778
221.2068, 1264.828
221.6889, 1265.502
222.1710, 1267.477
222.6532, 1269.969
223.1353, 1270.066
223.6174, 1265.876
224.0995, 1262.490
224.5816, 1263.058
225.0637, 1270.417
225.5459, 1274.386
226.0280, 1273.362
226.5101, 1269.059
226.9922, 1266.914
227.4743, 1268.451
227.9564, 1269.717
228.4386, 1268.395
228.9207, 1262.388
229.4028, 1258.951
229.8849, 1258.787
230.3670, 1261.075
230.8492, 1263.878
231.3313, 1268.455
231.8134, 1271.608
232.2955, 1271.397
232.7776, 1265.161
233.2597, 1261.983
233.7419, 1263.401
234.2240, 1267.528
234.7061, 1269.257
235.1882, 1267.255
235.6703, 1264.953
236.1524, 1263.757
236.6346, 1263.957
237.1167, 1264.733
237.5988, 1266.479
238.0809, 1268.663
238.5630, 1270.007
239.0451, 1269.991
239.5273, 1269.872
240.0094, 1270.113
240.4915, 1270.706
240.9736, 1271.645
241.4557, 1273.202
241.9378, 1274.949
242.4200, 1275.969
242.9021, 1275.855
243.3842, 1275.628
243.8663, 1275.705
244.3484, 1276.301
244.8306, 1276.477
245.3127, 1275.803
245.7948, 1274.936
246.2769, 1275.228
246.7590, 1277.541
247.2411, 1279.567
247.7233, 1280.501
248.2054, 1280.141
248.6875, 1279.438
249.1696, 1278.137
249.6517, 1276.695
250.1338, 1275.926
250.6160, 1276.290
251.0981, 1276.499
251.5802, 1275.893
252.0623, 1274.021
252.5444, 1273.835
253.0265, 1276.335
253.5087, 1279.717
253.9908, 1281.320
254.4729, 1280.466
254.9550, 1279.249
255.4371, 1278.148
255.9192, 1277.152
256.4014, 1276.408
256.8835, 1275.776
257.3656, 1275.536
257.8477, 1276.074
258.3298, 1277.648
258.8120, 1279.478
259.2941, 1281.825
259.7762, 1284.846
260.2583, 1285.256
260.7404, 1281.561
261.2225, 1277.077
261.7047, 1275.399
262.1868, 1277.433
262.6689, 1279.879
263.1510, 1282.230
263.6331, 1284.447
264.1152, 1286.090
264.5974, 1286.962
265.0795, 1287.544
265.5616, 1288.330
266.0437, 1289.504
266.5258, 1290.357
267.0079, 1290.739
267.4901, 1290.707
267.9722, 1290.610
268.4543, 1290.471
268.9364, 1290.295
269.4185, 1290.055
269.9006, 1289.715
270.3828, 1289.503
270.8649, 1289.328
271.3470, 1289.309
271.8291, 1290.197
272.3112, 1292.330
272.7933, 1294.426
273.2755, 1295.455
273.7576, 1295.253
274.2397, 1294.936
274.7218, 1294.535
275.2039, 1294.121
275.6860, 1294.099
276.1682, 1294.649
276.6503, 1294.909
277.1324, 1294.086
277.6145, 1292.078
278.0966, 1290.783
278.5787, 1290.475
279.0609, 1290.893
279.5430, 1291.378
280.0251, 1291.887
280.5072, 1292.976
280.9893, 1295.555
281.4715, 1299.606
281.9536, 1301.873
282.4357, 1301.873
282.9178, 1300.718
283.3999, 1299.839
283.8820, 1299.159
284.3642, 1299.715
284.8463, 1302.981
285.3284, 1308.541
285.8105, 1311.223
286.2926, 1310.387
286.7747, 1308.561
287.2569, 1309.403
287.7390, 1312.800
288.2211, 1316.174
288.7032, 1318.550
289.1853, 1320.056
289.6674, 1321.221
290.1496, 1322.021
290.6317, 1322.760
291.1138, 1323.949
291.5959, 1325.499
292.0780, 1326.625
292.5602, 1326.716
293.0423, 1326.378
293.5244, 1327.146
294.0065, 1329.048
294.4886, 1331.620
294.9707, 1334.737
295.4529, 1338.270
295.9350, 1341.636
296.4171, 1344.560
296.8992, 1347.402
297.3813, 1351.062
297.8634, 1355.424
298.3456, 1359.351
298.8277, 1360.852
299.3098, 1361.291
299.7919, 1363.917
300.2740, 1370.041
300.7561, 1377.438
301.2383, 1383.091
301.7204, 1387.362
302.2025, 1391.500
302.6846, 1396.314
303.1667, 1401.525
303.6488, 1406.846
304.1310, 1412.217
304.6131, 1417.597
305.0952, 1422.814
305.5773, 1427.937
306.0594, 1433.125
306.5415, 1437.911
307.0237, 1443.103
307.5058, 1449.835
307.9879, 1458.316
308.4700, 1467.314
308.9521, 1476.223
309.4343, 1484.999
309.9164, 1493.765
310.3985, 1503.391
310.8806, 1512.548
311.3627, 1519.570
311.8448, 1524.416
312.3270, 1530.106
312.8091, 1539.479
313.2912, 1550.402
313.7733, 1560.360
314.2554, 1567.737
314.7375, 1574.553
315.2197, 1581.542
315.7018, 1588.807
316.1839, 1596.574
316.6660, 1606.396
317.1481, 1616.063
317.6302, 1623.647
318.1124, 1627.974
318.5945, 1631.138
319.0766, 1633.797
319.5587, 1635.857
320.0408, 1637.043
320.5229, 1636.426
321.0051, 1635.500
321.4872, 1635.236
321.9693, 1636.747
322.4514, 1637.104
322.9335, 1635.490
323.4156, 1632.350
323.8978, 1628.537
324.3799, 1624.135
324.8620, 1619.147
325.3441, 1613.565
325.8262, 1607.460
326.3083, 1600.710
326.7905, 1592.965
327.2726, 1584.651
327.7547, 1576.396
328.2368, 1568.019
328.7189, 1559.848
329.2010, 1552.236
329.6832, 1545.410
330.1653, 1537.382
330.6474, 1527.252
331.1295, 1516.581
331.6116, 1506.521
332.0938, 1497.404
332.5759, 1488.284
333.0580, 1478.704
333.5401, 1468.849
334.0222, 1460.937
334.5043, 1455.908
334.9865, 1451.423
335.4686, 1446.022
335.9507, 1439.318
336.4328, 1432.628
336.9149, 1425.758
337.3970, 1418.974
337.8792, 1413.275
338.3613, 1408.778
338.8434, 1404.810
339.3255, 1401.130
339.8076, 1397.777
340.2898, 1394.246
340.7719, 1390.195
341.2540, 1386.546
341.7361, 1385.053
342.2182, 1386.033
342.7003, 1386.475
343.1825, 1385.173
343.6646, 1382.385
344.1467, 1379.824
344.6288, 1377.461
345.1109, 1375.340
345.5930, 1373.194
346.0752, 1371.137
346.5573, 1370.205
347.0394, 1371.055
347.5215, 1372.792
348.0036, 1373.441
348.4857, 1373.005
348.9679, 1372.229
349.4500, 1371.490
349.9321, 1370.824
350.4142, 1370.385
350.8963, 1370.261
351.3784, 1370.202
351.8606, 1369.489
352.3427, 1368.442
352.8248, 1368.242
353.3069, 1371.056
353.7890, 1374.542
354.2711, 1374.972
354.7533, 1371.748
355.2354, 1368.444
355.7175, 1368.683
356.1996, 1370.902
356.6817, 1372.371
357.1638, 1371.039
357.6460, 1369.175
358.1281, 1368.656
358.6102, 1369.389
359.0923, 1369.941
359.5744, 1368.790
360.0565, 1367.373
360.5387, 1367.163
361.0208, 1369.841
361.5029, 1372.211
361.9850, 1372.042
362.4671, 1370.282
362.9492, 1369.848
363.4314, 1373.712
363.9135, 1377.759
364.3956, 1379.269
364.8777, 1375.958
365.3598, 1374.763
365.8419, 1378.936
366.3241, 1385.706
366.8062, 1390.892
367.2883, 1391.621
367.7704, 1392.917
368.2526, 1396.626
368.7347, 1403.488
369.2168, 1408.670
369.6989, 1410.390
370.1810, 1411.478
370.6631, 1414.320
371.1453, 1420.265
371.6274, 1425.986
372.1095, 1431.284
372.5916, 1436.138
373.0737, 1440.107
373.5558, 1442.375
374.0380, 1445.006
374.5201, 1449.394
375.0022, 1456.241
375.4843, 1462.190
375.9664, 1466.500
376.4485, 1470.410
376.9307, 1477.217
377.4128, 1487.912
377.8949, 1496.983
378.3770, 1501.138
378.8591, 1500.723
379.3412, 1503.619
379.8234, 1510.389
380.3055, 1518.383
380.7876, 1524.921
381.2697, 1530.073
381.7518, 1534.022
382.2339, 1536.863
382.7161, 1538.309
383.1982, 1538.784
383.6803, 1537.652
384.1624, 1535.433
384.6445, 1532.116
385.1266, 1527.904
385.6088, 1523.311
386.0909, 1518.466
386.5730, 1513.154
387.0551, 1507.256
387.5372, 1500.786
388.0193, 1493.639
388.5015, 1485.430
388.9836, 1476.753
389.4657, 1468.112
389.9478, 1459.519
390.4299, 1451.227
390.9120, 1443.318
391.3942, 1435.804
391.8763, 1428.829
392.3584, 1423.272
392.8405, 1417.458
393.3226, 1410.050
393.8047, 1401.472
394.2869, 1393.647
394.7690, 1387.361
395.2511, 1382.043
395.7332, 1377.227
396.2154, 1372.274
396.6975, 1369.041
397.1796, 1370.814
397.6617, 1374.077
398.1438, 1372.824
398.6259, 1359.559
399.1081, 1348.219
399.5902, 1343.577
400.0723, 1346.894
400.5544, 1348.132
401.0365, 1345.432
401.5186, 1341.997
402.0008, 1340.673
402.4829, 1343.542
402.9650, 1344.472
403.4471, 1342.319
403.9292, 1337.699
404.4113, 1333.198
404.8935, 1328.729
405.3756, 1324.512
405.8577, 1320.649
406.3398, 1317.191
406.8219, 1314.036
407.3040, 1311.191
407.7862, 1308.668
408.2683, 1306.476
408.7504, 1304.637
409.2325, 1302.998
409.7146, 1301.570
410.1967, 1300.333
410.6789, 1299.186
411.1610, 1298.152
411.6431, 1296.943
412.1252, 1295.281
412.6073, 1293.256
413.0894, 1290.900
413.5716, 1287.889
414.0537, 1285.389
414.5358, 1285.646
415.0179, 1287.820
415.5000, 1289.201
415.9821, 1287.365
416.4643, 1284.446
416.9464, 1282.654
417.4285, 1282.194
417.9106, 1282.042
418.3927, 1282.055
418.8748, 1281.798
419.3570, 1280.760
419.8391, 1277.720
420.3212, 1274.867
420.8033, 1272.462
421.2854, 1270.803
421.7675, 1271.138
422.2497, 1277.079
422.7318, 1282.737
423.2139, 1284.626
423.6960, 1280.167
424.1781, 1276.819
424.6602, 1276.038
425.1424, 1276.678
425.6245, 1277.110
426.1066, 1277.744
426.5887, 1277.606
427.0709, 1276.074
427.5530, 1273.142
428.0351, 1271.413
428.5172, 1271.366
428.9993, 1271.811
429.4814, 1271.869
429.9636, 1271.359
430.4457, 1271.170
430.9278, 1271.548
431.4099, 1272.102
431.8920, 1271.705
432.3741, 1270.157
432.8563, 1269.196
433.3384, 1269.734
433.8205, 1271.602
434.3026, 1274.032
434.7847, 1277.198
435.2668, 1279.652
435.7490, 1279.575
436.2311, 1277.482
436.7132, 1275.052
437.1953, 1272.210
437.6774, 1269.958
438.1595, 1270.231
438.6417, 1272.477
439.1238, 1274.405
439.6059, 1274.598
440.0880, 1273.800
440.5701, 1272.383
441.0522, 1270.170
441.5344, 1268.951
442.0165, 1271.477
442.4986, 1275.121
442.9807, 1276.649
443.4628, 1272.383
443.9449, 1268.355
444.4271, 1267.252
444.9092, 1268.597
445.3913, 1269.532
445.8734, 1268.866
446.3555, 1267.962
446.8376, 1267.523
447.3198, 1267.981
447.8019, 1268.118
448.2840, 1267.582
448.7661, 1266.845
449.2482, 1266.547
449.7303, 1266.725
450.2125, 1267.330
450.6946, 1268.624
451.1767, 1270.513
451.6588, 1271.389
452.1409, 1270.952
452.6230, 1270.232
453.1052, 1270.015
453.5873, 1270.357
454.0694, 1270.388
454.5515, 1269.975
455.0337, 1269.356
455.5158, 1268.842
455.9979, 1268.434
456.4800, 1268.274
456.9621, 1268.578
457.4442, 1269.120
457.9264, 1269.375
458.4085, 1269.355
458.8906, 1269.219
459.3727, 1268.896
459.8548, 1268.606
460.3369, 1268.757
460.8191, 1269.589
461.3012, 1270.554
461.7833, 1271.529
462.2654, 1272.316
462.7475, 1272.491
463.2296, 1270.754
463.7118, 1269.273
464.1939, 1269.664
464.6760, 1272.045
465.1581, 1273.729
465.6402, 1273.375
466.1223, 1272.281
466.6045, 1271.351
467.0866, 1269.743
467.5687, 1269.460
468.0508, 1271.426
468.5329, 1274.682
469.0150, 1277.244
469.4972, 1279.514
469.9793, 1280.376
470.4614, 1278.765
470.9435, 1274.437
471.4256, 1272.998
471.9077, 1275.412
472.3899, 1278.831
472.8720, 1280.512
473.3541, 1280.266
473.8362, 1281.290
474.3183, 1284.745
474.8004, 1288.577
475.2826, 1287.776
475.7647, 1282.707
476.2468, 1278.600
476.7289, 1278.414
477.2110, 1281.007
477.6931, 1284.752
478.1753, 1289.618
478.6574, 1293.043
479.1395, 1291.870
479.6216, 1288.198
480.1037, 1285.065
480.5858, 1283.234
481.0680, 1282.145
481.5501, 1281.723
482.0322, 1281.758
482.5143, 1281.807
482.9964, 1282.075
483.4786, 1282.022
483.9607, 1280.986
484.4428, 1278.819
484.9249, 1277.802
485.4070, 1279.762
485.8892, 1282.182
486.3713, 1283.259
486.8534, 1281.988
487.3355, 1280.772
487.8176, 1279.250
488.2997, 1277.948
488.7819, 1278.111
489.2640, 1280.360
489.7461, 1282.674
490.2282, 1284.518
490.7103, 1285.887
491.1924, 1286.503
491.6746, 1286.269
492.1567, 1285.639
492.6388, 1284.571
493.1209, 1283.215
493.6030, 1283.365
494.0851, 1285.711
494.5673, 1288.336
495.0494, 1287.557
495.5315, 1284.438
496.0136, 1282.847
496.4957, 1286.942
496.9778, 1292.107
497.4600, 1292.499
497.9421, 1288.575
498.4242, 1285.101
498.9063, 1285.246
499.3884, 1286.905
499.8705, 1288.431
500.3527, 1289.798
500.8348, 1290.249
501.3169, 1288.773
501.7990, 1286.416
502.2811, 1284.642
502.7632, 1284.632
503.2454, 1284.273
503.7275, 1282.638
504.2096, 1279.950
504.6917, 1278.662
505.1738, 1279.814
505.6559, 1280.998
506.1381, 1280.931
506.6202, 1279.338
507.1023, 1277.554
507.5844, 1275.379
508.0665, 1273.405
508.5486, 1272.595
509.0308, 1272.972
509.5129, 1273.459
509.9950, 1273.893
510.4771, 1274.112
510.9592, 1273.565
511.4413, 1272.318
511.9235, 1271.161
512.4056, 1270.465
512.8877, 1270.197
513.3698, 1270.540
513.8519, 1271.556
514.3340, 1272.232
514.8162, 1271.597
515.2983, 1270.282
515.7804, 1269.056
516.2625, 1268.372
516.7446, 1267.557
517.2267, 1266.179
517.7089, 1264.498
518.1910, 1263.145
518.6731, 1262.527
519.1552, 1262.040
519.6373, 1261.280
520.1194, 1260.104
520.6016, 1260.097
521.0837, 1262.055
521.5658, 1264.271
522.0479, 1265.384
522.5300, 1264.888
523.0121, 1265.167
523.4943, 1266.703
523.9764, 1268.627
524.4585, 1269.095
524.9406, 1268.055
525.4227, 1267.652
525.9048, 1269.216
526.3870, 1271.674
526.8691, 1272.097
527.3513, 1270.609
527.8334, 1269.012
528.3155, 1268.992
528.7976, 1269.529
529.2797, 1268.846
529.7618, 1266.465
530.2440, 1264.496
530.7261, 1264.984
531.2082, 1266.597
531.6903, 1267.624
532.1724, 1266.543
532.6545, 1265.808
533.1367, 1266.475
533.6188, 1268.169
534.1009, 1269.567
534.5830, 1270.921
535.0651, 1271.484
535.5472, 1270.652
536.0294, 1268.047
536.5115, 1266.858
536.9936, 1267.650
537.4757, 1269.080
537.9578, 1270.206
538.4399, 1271.107
538.9221, 1271.077
539.4042, 1269.660
539.8863, 1267.951
540.3684, 1268.451
540.8505, 1270.907
541.3326, 1272.207
541.8148, 1269.970
542.2969, 1266.466
542.7790, 1266.245
543.2611, 1268.910
543.7432, 1271.268
544.2253, 1270.304
544.7075, 1268.394
545.1896, 1268.286
545.6717, 1270.746
546.1538, 1272.774
546.6359, 1272.410
547.1180, 1271.060
547.6002, 1270.222
548.0823, 1270.180
548.5644, 1270.747
549.0465, 1272.385
549.5286, 1274.628
550.0107, 1276.112
550.4929, 1276.357
550.9750, 1276.518
551.4571, 1276.773
551.9392, 1277.115
552.4213, 1278.588
552.9034, 1281.534
553.3856, 1284.537
553.8677, 1286.377
554.3498, 1287.143
554.8319, 1288.065
555.3140, 1289.412
555.7961, 1290.392
556.2783, 1289.181
556.7604, 1286.688
557.2425, 1285.534
557.7246, 1287.381
558.2067, 1290.284
558.6888, 1292.636
559.1710, 1294.518
559.6531, 1296.141
560.1352, 1297.059
560.6173, 1298.188
561.0994, 1300.237
561.5815, 1303.413
562.0637, 1306.243
562.5458, 1307.810
563.0279, 1309.332
563.5100, 1311.735
563.9921, 1315.707
564.4742, 1319.301
564.9564, 1322.179
565.4385, 1324.848
565.9206, 1328.107
566.4027, 1331.910
566.8848, 1336.493
567.3669, 1342.599
567.8491, 1349.139
568.3312, 1351.364
568.8133, 1349.463
569.2954, 1348.712
569.7775, 1353.244
570.2596, 1361.039
570.7418, 1368.887
571.2239, 1376.710
571.7060, 1383.326
572.1881, 1386.462
572.6702, 1388.526
573.1523, 1392.311
573.6345, 1399.254
574.1166, 1406.589
574.5987, 1412.614
575.0808, 1418.429
575.5629, 1425.995
576.0450, 1437.066
576.5272, 1448.124
577.0093, 1458.209
577.4914, 1467.527
577.9735, 1477.938
578.4556, 1489.919
578.9377, 1501.847
579.4199, 1512.658
579.9020, 1522.178
580.3841, 1533.882
580.8662, 1547.867
581.3483, 1563.373
581.8304, 1580.015
582.3126, 1597.483
582.7947, 1614.451
583.2768, 1630.323
583.7589, 1646.726
584.2410, 1665.851
584.7231, 1686.731
585.2053, 1707.457
585.6874, 1726.051
586.1696, 1745.309
586.6517, 1767.780
587.1338, 1792.494
587.6159, 1815.236
588.0980, 1834.609
588.5801, 1851.957
589.0623, 1868.017
589.5444, 1883.104
590.0265, 1895.327
590.5086, 1905.524
590.9907, 1911.816
591.4728, 1912.757
591.9550, 1908.244
592.4371, 1899.268
592.9192, 1885.990
593.4013, 1868.469
593.8834, 1845.668
594.3655, 1818.235
594.8477, 1789.857
595.3298, 1761.658
595.8119, 1733.686
596.2940, 1705.811
596.7761, 1678.401
597.2582, 1651.824
597.7404, 1626.122
598.2225, 1601.460
598.7046, 1577.391
599.1867, 1554.021
599.6688, 1533.285
600.1509, 1516.850
600.6331, 1502.132
601.1152, 1487.833
601.5973, 1473.902
602.0794, 1459.850
602.5615, 1444.959
603.0436, 1430.753
603.5258, 1419.214
604.0079, 1410.643
604.4900, 1403.449
604.9721, 1397.712
605.4542, 1392.926
605.9363, 1388.258
606.4185, 1383.751
606.9006, 1379.212
607.3827, 1374.050
607.8648, 1369.239
608.3469, 1366.252
608.8290, 1364.986
609.3112, 1365.001
609.7933, 1368.574
610.2754, 1371.519
610.7575, 1369.834
611.2396, 1362.383
611.7217, 1356.150
612.2039, 1353.716
612.6860, 1352.851
613.1681, 1351.858
613.6502, 1350.610
614.1323, 1349.262
614.6144, 1347.530
615.0966, 1345.942
615.5787, 1345.358
616.0608, 1345.948
616.5429, 1346.615
617.0250, 1347.393
617.5071, 1347.801
617.9893, 1346.107
618.4714, 1342.643
618.9535, 1339.959
619.4356, 1339.926
619.9177, 1341.108
620.3998, 1342.155
620.8820, 1342.943
621.3641, 1342.616
621.8462, 1339.961
622.3283, 1336.493
622.8104, 1333.232
623.2925, 1330.241
623.7747, 1327.601
624.2568, 1325.326
624.7389, 1323.385
625.2210, 1321.825
625.7031, 1321.118
626.1852, 1319.711
626.6674, 1317.489
627.1495, 1314.586
627.6316, 1311.055
628.1137, 1306.865
628.5958, 1302.824
629.0779, 1299.133
629.5601, 1295.778
630.0422, 1292.758
630.5243, 1290.085
631.0064, 1287.642
631.4885, 1285.903
631.9706, 1284.028
632.4528, 1280.972
632.9349, 1276.855
633.4170, 1272.960
633.8991, 1269.590
634.3812, 1266.832
634.8633, 1264.859
635.3455, 1264.127
635.8276, 1262.815
636.3097, 1260.363
636.7918, 1257.786
637.2739, 1255.855
637.7560, 1254.564
638.2382, 1254.096
638.7203, 1254.759
639.2024, 1255.634
639.6845, 1255.064
640.1666, 1253.236
640.6487, 1251.834
641.1309, 1251.416
641.6130, 1251.532
642.0951, 1251.845
642.5772, 1252.206
643.0594, 1252.199
643.5415, 1252.141
644.0236, 1251.203
644.5057, 1248.030
644.9879, 1242.992
645.4700, 1239.617
645.9521, 1240.761
646.4342, 1241.907
646.9163, 1241.016
647.3984, 1237.764
647.8806, 1234.765
648.3627, 1231.984
648.8448, 1229.555
649.3269, 1227.407
649.8090, 1225.563
650.2911, 1225.214
650.7733, 1226.850
651.2554, 1228.204
651.7375, 1225.599
652.2196, 1220.629
652.7017, 1217.250
653.1838, 1216.985
653.6660, 1217.743
654.1481, 1218.590
654.6302, 1219.204
655.1123, 1219.032
655.5944, 1216.713
656.0765, 1214.773
656.5587, 1214.113
657.0408, 1214.499
657.5229, 1214.864
658.0050, 1215.579
658.4871, 1215.563
658.9692, 1214.297
659.4514, 1211.882
659.9335, 1209.401
660.4156, 1206.842
660.8977, 1204.377
661.3798, 1202.234
661.8619, 1200.312
662.3441, 1198.144
662.8262, 1195.698
663.3083, 1193.597
663.7904, 1193.571
664.2725, 1193.585
664.7546, 1190.819
665.2368, 1182.904
665.7189, 1177.218
666.2010, 1177.903
666.6831, 1181.327
667.1652, 1183.408
667.6473, 1184.157
668.1295, 1183.168
668.6116, 1179.600
669.0937, 1174.886
669.5758, 1171.896
670.0579, 1170.746
670.5400, 1170.064
671.0222, 1169.612
671.5043, 1169.177
671.9864, 1168.185
672.4685, 1166.733
672.9506, 1165.374
673.4327, 1164.338
673.9149, 1163.568
674.3970, 1163.352
674.8791, 1163.510
675.3612, 1162.913
675.8433, 1160.014
676.3254, 1157.157
676.8076, 1155.672
677.2897, 1155.869
677.7718, 1156.127
678.2539, 1157.004
678.7360, 1157.221
679.2181, 1155.468
679.7003, 1151.445
680.1824, 1149.105
680.6645, 1148.765
681.1466, 1149.342
681.6287, 1150.026
682.1108, 1150.673
682.5930, 1150.922
683.0751, 1150.765
683.5572, 1149.926
684.0393, 1147.336
684.5214, 1144.127
685.0035, 1141.911
685.4857, 1141.466
685.9678, 1141.726
686.4499, 1143.318
686.9320, 1145.307
687.4141, 1145.615
687.8962, 1143.169
688.3784, 1141.064
688.8605, 1140.059
689.3426, 1139.858
689.8247, 1139.538
690.3068, 1139.113
690.7889, 1138.442
691.2711, 1137.341
691.7532, 1136.013
692.2353, 1135.027
692.7174, 1134.295
693.1995, 1133.185
693.6816, 1130.443
694.1638, 1127.824
694.6459, 1126.995
695.1280, 1128.163
695.6101, 1128.860
696.0922, 1127.691
696.5743, 1126.583
697.0565, 1126.789
697.5386, 1128.990
698.0207, 1129.591
698.5028, 1128.160
698.9849, 1126.077
699.4670, 1124.596
699.9492, 1123.654
700.4313, 1122.532
700.9135, 1121.095
701.3956, 1119.780
701.8777, 1118.895
702.3598, 1118.476
702.8419, 1118.729
703.3240, 1120.237
703.8062, 1121.271
704.2883, 1120.289
704.7704, 1118.440
705.2525, 1117.427
705.7346, 1118.247
706.2167, 1119.077
706.6989, 1120.307
707.1810, 1121.216
707.6631, 1119.648
708.1452, 1115.047
708.6273, 1111.613
709.1094, 1110.890
709.5916, 1111.886
710.0737, 1112.600
710.5558, 1113.047
711.0379, 1113.296
711.5200, 1113.142
712.0021, 1112.977
712.4843, 1113.397
712.9664, 1114.203
713.4485, 1114.394
713.9306, 1113.214
714.4127, 1111.647
714.8948, 1109.721
715.3770, 1107.393
715.8591, 1106.862
716.3412, 1109.148
716.8233, 1111.219
717.3054, 1111.123
717.7875, 1108.965
718.2697, 1107.521
718.7518, 1106.843
719.2339, 1106.101
719.7160, 1104.169
720.1981, 1101.867
720.6802, 1100.653
721.1624, 1100.809
721.6445, 1100.944
722.1266, 1100.007
722.6087, 1098.825
723.0908, 1098.167
723.5729, 1098.695
724.0551, 1098.612
724.5372, 1097.412
725.0193, 1095.979
725.5014, 1095.251
725.9835, 1095.347
726.4656, 1095.469
726.9478, 1095.588
727.4299, 1095.573
727.9120, 1095.048
728.3941, 1094.210
728.8762, 1093.746
729.3583, 1093.966
729.8405, 1094.342
730.3226, 1094.751
730.8047, 1094.944
731.2868, 1094.501
731.7689, 1092.318
732.2510, 1090.623
732.7332, 1090.234
733.2153, 1090.592
733.6974, 1090.462
734.1795, 1089.268
734.6616, 1089.397
735.1437, 1092.188
735.6259, 1096.010
736.1080, 1095.924
736.5901, 1092.393
737.0722, 1089.533
737.5543, 1089.838
738.0364, 1091.428
738.5186, 1092.660
739.0007, 1093.391
739.4828, 1093.162
739.9649, 1090.808
740.4470, 1088.375
740.9291, 1086.694
741.4113, 1085.804
741.8934, 1085.316
742.3755, 1085.621
742.8576, 1085.620
743.3397, 1084.618
743.8218, 1082.844
744.3040, 1082.463
744.7861, 1083.526
745.2682, 1084.252
745.7503, 1082.777
746.2324, 1080.449
746.7145, 1079.603
747.1967, 1080.222
747.6788, 1080.898
748.1609, 1081.169
748.6430, 1080.980
749.1251, 1080.047
749.6072, 1078.029
750.0894, 1077.078
750.5715, 1077.978
751.0536, 1079.011
751.5357, 1079.000
752.0178, 1077.831
752.4999, 1077.147
752.9821, 1077.005
753.4642, 1076.991
753.9463, 1076.406
754.4284, 1075.739
754.9105, 1076.119
755.3926, 1077.772
755.8748, 1079.537
756.3569, 1081.483
756.8390, 1082.710
757.3211, 1082.223
757.8032, 1078.589
758.2853, 1076.077
758.7675, 1075.213
759.2496, 1075.222
759.7318, 1075.586
760.2139, 1076.407
760.6960, 1076.917
761.1781, 1077.161
761.6602, 1076.729
762.1423, 1074.163
762.6245, 1070.619
763.1066, 1069.147
763.5887, 1070.954
764.0708, 1073.086
764.5529, 1073.916
765.0350, 1073.718
765.5172, 1072.813
765.9993, 1069.541
766.4814, 1067.960
766.9635, 1069.045
767.4456, 1071.259
767.9277, 1072.562
768.4099, 1072.778
768.8920, 1073.413
769.3741, 1075.035
769.8562, 1076.296
770.3383, 1074.491
770.8204, 1070.717
771.3026, 1068.033
771.7847, 1067.935
772.2668, 1068.166
772.7489, 1066.871
773.2310, 1065.006
773.7131, 1064.081
774.1953, 1065.649
774.6774, 1066.602
775.1595, 1066.259
775.6416, 1065.366
776.1237, 1065.478
776.6058, 1066.820
777.0880, 1067.236
777.5701, 1065.735
778.0522, 1063.921
778.5343, 1065.252
779.0164, 1068.569
779.4985, 1070.476
779.9807, 1068.262
780.4628, 1065.808
780.9449, 1065.544
781.4270, 1066.737
781.9091, 1067.865
782.3912, 1068.310
782.8734, 1069.166
783.3555, 1071.321
783.8376, 1073.640
784.3197, 1072.677
784.8018, 1068.067
785.2839, 1064.610
785.7661, 1064.060
786.2482, 1065.080
786.7303, 1065.833
787.2124, 1066.340
787.6945, 1066.679
788.1766, 1067.169
788.6588, 1067.215
789.1409, 1066.345
789.6230, 1064.796
790.1051, 1063.177
790.5872, 1060.895
791.0693, 1059.621
791.5515, 1059.936
792.0336, 1061.361
792.5157, 1062.696
792.9978, 1063.947
793.4799, 1064.704
793.9620, 1064.613
794.4442, 1064.203
794.9263, 1064.204
795.4084, 1064.529
795.8905, 1064.939
796.3726, 1064.868
796.8547, 1065.318
797.3369, 1067.259
797.8190, 1070.097
798.3011, 1071.827
798.7832, 1072.114
799.2653, 1071.813
799.7474, 1070.813
800.2296, 1069.570
800.7117, 1069.546
801.1938, 1070.633
801.6759, 1071.710
802.1580, 1072.402
802.6401, 1072.760
803.1223, 1072.793
803.6044, 1072.540
804.0865, 1072.091
804.5686, 1070.882
805.0507, 1070.178
805.5328, 1070.928
806.0150, 1072.468
806.4971, 1072.909
806.9792, 1071.706
807.4613, 1071.230
807.9434, 1072.349
808.4255, 1074.346
808.9077, 1075.960
809.3898, 1077.090
809.8719, 1077.255
810.3540, 1075.121
810.8361, 1073.107
811.3182, 1073.728
811.8004, 1075.893
812.2825, 1077.046
812.7646, 1075.094
813.2467, 1073.849
813.7288, 1074.373
814.2109, 1075.922
814.6931, 1076.620
815.1752, 1076.430
815.6573, 1075.818
816.1394, 1074.620
816.6215, 1073.582
817.1037, 1074.591
817.5858, 1076.793
818.0679, 1077.933
818.5500, 1075.652
819.0322, 1073.603
819.5143, 1074.059
819.9964, 1075.930
820.4785, 1076.950
820.9606, 1076.569
821.4427, 1076.110
821.9249, 1075.872
822.4070, 1075.525
822.8891, 1074.055
823.3712, 1071.621
823.8533, 1070.047
824.3354, 1070.006
824.8176, 1070.692
825.2997, 1071.763
825.7818, 1072.819
826.2639, 1073.143
826.7460, 1071.648
827.2281, 1070.464
827.7103, 1070.198
828.1924, 1070.452
828.6745, 1070.720
829.1566, 1070.946
829.6387, 1071.444
830.1208, 1072.388
830.6030, 1073.265
831.0851, 1072.964
831.5672, 1071.932
832.0493, 1071.566
832.5314, 1072.660
833.0135, 1073.346
833.4957, 1071.588
833.9778, 1069.027
834.4599, 1067.569
834.9420, 1068.854
835.4241, 1069.471
835.9063, 1068.996
836.3884, 1068.387
836.8705, 1069.369
837.3526, 1071.850
837.8347, 1071.408
838.3168, 1066.900
838.7990, 1062.735
839.2811, 1065.123
839.7632, 1070.044
840.2453, 1071.633
840.7274, 1067.675
841.2095, 1064.042
841.6917, 1062.647
842.1738, 1062.418
842.6559, 1062.543
843.1380, 1063.168
843.6201, 1063.493
844.1022, 1063.363
844.5844, 1063.461
845.0665, 1064.576
845.5486, 1066.423
846.0307, 1068.331
846.5128, 1070.261
846.9949, 1071.832
847.4771, 1072.789
847.9592, 1073.299
848.4413, 1073.386
848.9234, 1072.937
849.4055, 1072.617
849.8876, 1071.844
850.3698, 1072.164
850.8519, 1074.972
851.3340, 1079.995
851.8161, 1083.758
852.2982, 1086.257
852.7803, 1087.907
853.2625, 1088.943
853.7446, 1089.314
854.2267, 1088.569
854.7088, 1086.858
855.1909, 1085.854
855.6730, 1086.293
856.1552, 1087.445
856.6373, 1089.506
857.1194, 1092.196
857.6015, 1093.071
858.0836, 1091.972
858.5657, 1090.328
859.0479, 1088.144
859.5300, 1086.312
860.0121, 1087.354
860.4942, 1090.425
860.9763, 1092.544
861.4584, 1091.687
861.9406, 1090.048
862.4227, 1088.279
862.9048, 1086.501
863.3869, 1084.967
863.8690, 1083.332
864.3511, 1082.943
864.8333, 1084.751
865.3154, 1087.149
865.7975, 1086.091
866.2796, 1082.439
866.7617, 1079.862
867.2438, 1079.295
867.7260, 1080.754
868.2081, 1086.908
868.6902, 1094.301
869.1723, 1097.673
869.6544, 1091.111
870.1365, 1087.305
870.6187, 1087.703
871.1008, 1090.203
871.5829, 1092.131
872.0650, 1093.525
872.5471, 1095.009
873.0292, 1096.662
873.5114, 1098.528
873.9935, 1100.568
874.4756, 1102.892
874.9577, 1105.719
875.4399, 1109.344
875.9220, 1112.763
876.4041, 1115.517
876.8862, 1118.132
877.3683, 1120.855
877.8505, 1123.626
878.3326, 1127.015
878.8147, 1131.111
879.2968, 1135.001
879.7789, 1137.380
880.2610, 1139.184
880.7432, 1142.073
881.2253, 1146.126
881.7074, 1150.307
882.1895, 1154.123
882.6716, 1157.947
883.1537, 1161.830
883.6359, 1165.794
884.1180, 1170.902
884.6001, 1177.582
885.0822, 1183.697
885.5643, 1187.527
886.0464, 1190.494
886.5286, 1196.379
887.0107, 1204.583
887.4928, 1212.679
887.9749, 1219.332
888.4570, 1225.372
888.9391, 1230.863
889.4213, 1236.021
889.9034, 1241.491
890.3855, 1247.008
890.8676, 1253.362
891.3497, 1260.862
891.8318, 1269.079
892.3140, 1277.926
892.7961, 1287.115
893.2782, 1295.476
893.7603, 1302.307
894.2424, 1308.865
894.7245, 1315.398
895.2067, 1322.378
895.6888, 1330.494
896.1709, 1340.612
896.6530, 1350.557
897.1351, 1360.094
897.6172, 1369.709
898.0994, 1379.754
898.5815, 1390.229
899.0636, 1400.728
899.5457, 1411.039
900.0278, 1422.145
900.5099, 1436.238
900.9921, 1450.654
901.4742, 1462.975
901.9563, 1472.557
902.4384, 1482.157
902.9205, 1491.881
903.4026, 1501.738
903.8848, 1512.114
904.3669, 1522.717
904.8490, 1531.164
905.3311, 1537.536
905.8132, 1544.972
906.2953, 1557.303
906.7775, 1570.224
907.2596, 1579.418
907.7417, 1585.598
908.2238, 1591.649
908.7059, 1598.957
909.1880, 1605.381
909.6702, 1610.703
910.1523, 1614.768
910.6344, 1616.812
911.1165, 1616.886
911.5986, 1617.252
912.0807, 1618.961
912.5629, 1620.145
913.0450, 1618.491
913.5271, 1614.986
914.0092, 1611.029
914.4913, 1607.056
914.9734, 1602.669
915.4556, 1598.209
915.9377, 1592.954
916.4198, 1586.042
916.9019, 1577.379
917.3840, 1568.664
917.8661, 1559.944
918.3483, 1551.239
918.8304, 1542.874
919.3125, 1534.242
919.7946, 1524.674
920.2767, 1514.183
920.7589, 1502.555
921.2410, 1488.940
921.7231, 1474.930
922.2052, 1460.722
922.6873, 1446.483
923.1694, 1434.220
923.6516, 1424.107
924.1337, 1413.015
924.6158, 1398.759
925.0979, 1383.160
925.5800, 1368.263
926.0621, 1354.129
926.5443, 1340.724
927.0264, 1328.402
927.5085, 1316.421
927.9906, 1304.837
928.4727, 1293.188
928.9548, 1280.786
929.4370, 1267.670
929.9191, 1254.077
930.4012, 1239.928
930.8833, 1226.482
931.3654, 1215.492
931.8475, 1206.029
932.3297, 1196.778
932.8118, 1187.731
933.2939, 1178.104
933.7761, 1166.357
934.2582, 1155.303
934.7403, 1147.198
935.2224, 1142.075
935.7045, 1134.782
936.1866, 1125.182
936.6688, 1115.546
937.1509, 1107.591
937.6330, 1100.369
938.1151, 1092.672
938.5972, 1084.636
939.0793, 1077.435
939.5615, 1072.353
940.0436, 1066.883
940.5257, 1060.116
941.0078, 1052.781
941.4899, 1047.062
941.9720, 1042.927
942.4542, 1039.522
942.9363, 1036.812
943.4184, 1034.107
943.9005, 1030.521
944.3826, 1026.508
944.8647, 1022.560
945.3469, 1018.543
945.8290, 1015.135
946.3111, 1012.347
946.7932, 1010.148
947.2753, 1009.126
947.7574, 1009.107
948.2396, 1006.216
948.7217, 1000.303
949.2038, 994.6290
949.6859, 992.2224
950.1680, 990.8588
950.6501, 988.3877
951.1323, 984.8000
951.6144, 982.2445
952.0965, 981.6887
952.5786, 980.9565
953.0607, 979.2643
953.5428, 977.0273
954.0250, 975.6019
954.5071, 974.8317
954.9892, 973.7826
955.4713, 971.8436
955.9534, 969.9433
956.4355, 968.7850
956.9177, 968.1009
957.3998, 967.5264
957.8819, 967.5010
958.3640, 966.5397
958.8461, 964.2404
959.3282, 961.7593
959.8104, 960.5032
960.2925, 960.1190
960.7746, 959.3210
961.2567, 958.0096
961.7388, 957.0313
962.2209, 957.6022
962.7031, 958.1119
963.1852, 957.0504
963.6673, 954.5208
964.1494, 953.5206
964.6315, 954.5546
965.1136, 955.3749
965.5958, 955.1440
966.0779, 954.1465
966.5600, 952.6163
967.0421, 950.8063
967.5242, 949.4830
968.0063, 949.6648
968.4885, 949.3778
968.9706, 947.0102
969.4527, 944.2675
969.9348, 943.3113
970.4169, 944.6184
970.8990, 945.4684
971.3812, 945.6962
971.8633, 945.5159
972.3454, 945.1515
972.8275, 944.5034
973.3096, 943.2536
973.7917, 941.3900
974.2739, 939.7247
974.7560, 938.0650
975.2381, 937.2554
975.7202, 938.0096
976.2023, 939.8415
976.6844, 940.2496
977.1666, 939.2538
977.6487, 937.9362
978.1308, 936.7745
978.6129, 935.4718
979.0950, 933.2268
979.5771, 930.7631
980.0593, 929.2452
980.5414, 929.7961
981.0235, 930.1221
981.5056, 929.9420
981.9877, 929.7736
982.4698, 930.3575
982.9520, 931.4867
983.4341, 931.7301
983.9162, 931.0013
984.3983, 930.3068
984.8804, 931.1419
985.3625, 931.6265
985.8447, 929.8299
986.3268, 925.8749
986.8089, 923.5799
987.2910, 923.2781
987.7731, 923.8666
988.2552, 925.3378
988.7374, 927.0474
989.2195, 927.5865
989.7016, 927.2794
990.1837, 926.9557
990.6658, 927.0256
991.1479, 926.8632
991.6301, 925.8146
992.1122, 924.6679
992.5944, 924.1528
993.0765, 924.3228
993.5586, 925.1915
994.0407, 926.9550
994.5228, 927.7845
995.0049, 924.7988
995.4871, 920.8115
995.9692, 919.8856
996.4513, 921.7297
996.9334, 923.1428
997.4155, 923.0908
997.8976, 922.3802
998.3798, 920.5627
998.8619, 918.6663
999.3440, 919.9500
999.8261, 923.9469
1000.308, 925.8901
1000.790, 923.9353
1001.272, 921.6738
1001.755, 922.6497
1002.237, 924.6102
1002.719, 925.0212
1003.201, 922.8508
1003.683, 921.5129
1004.165, 921.3342
1004.647, 921.1550
1005.129, 920.2184
1005.612, 918.7009
1006.094, 916.7189
1006.576, 914.4996
1007.058, 912.9913
1007.540, 913.1541
1008.022, 913.6433
1008.504, 914.1770
1008.986, 914.5827
1009.468, 914.4150
1009.951, 913.5318
1010.433, 913.3416
1010.915, 914.1895
1011.397, 915.0968
1011.879, 914.6406
1012.361, 913.7485
1012.843, 913.6965
1013.325, 914.8018
1013.807, 915.4959
1014.290, 915.3787
1014.772, 915.0026
1015.254, 914.5723
1015.736, 914.0776
1016.218, 913.3250
1016.700, 912.4011
1017.182, 911.8115
1017.664, 912.0333
1018.147, 912.3366
1018.629, 912.5204
1019.111, 912.3875
1019.593, 911.5060
1020.075, 909.2074
1020.557, 908.4726
1021.039, 909.8207
1021.521, 911.1671
1022.003, 910.1043
1022.486, 907.8471
1022.968, 906.6592
1023.450, 906.5668
1023.932, 906.2620
1024.414, 904.7099
1024.896, 903.5009
1025.378, 903.2599
1025.860, 903.6512
1026.343, 903.6617
1026.825, 903.3333
1027.307, 903.3063
1027.789, 903.8278
1028.271, 904.4560
1028.753, 904.9112
1029.235, 905.1926
1029.717, 905.2082
1030.199, 904.7120
1030.682, 905.0428
1031.164, 906.7849
1031.646, 907.7196
1032.128, 905.9805
1032.610, 902.6007
1033.092, 899.5325
1033.574, 897.0754
1034.056, 896.4329
1034.539, 900.5525
1035.021, 903.6230
1035.503, 903.0994
1035.985, 901.0285
1036.467, 900.1127
1036.949, 900.3965
1037.431, 900.3079
1037.913, 899.7049
1038.396, 898.3962
1038.878, 894.9592
1039.360, 891.6245
1039.842, 890.7883
1040.324, 892.6581
1040.806, 894.1160
1041.288, 895.2118
1041.770, 895.3111
1042.252, 893.8987
1042.734, 891.8157
1043.217, 890.7479
1043.699, 890.4175
1044.181, 890.1144
1044.663, 889.7256
1045.145, 889.0792
1045.627, 887.8284
1046.109, 886.5014
1046.591, 885.1661
1047.074, 883.7395
1047.556, 885.3780
1048.038, 890.1096
1048.520, 893.4980
1049.002, 891.2621
1049.484, 887.5710
1049.966, 885.7018
1050.448, 885.3085
1050.931, 885.2651
1051.413, 885.4747
1051.895, 886.0649
1052.377, 887.4551
1052.859, 888.2341
1053.341, 886.0152
1053.823, 882.0494
1054.305, 878.8157
1054.787, 876.6030
1055.270, 875.6869
1055.752, 877.3672
1056.234, 879.1454
1056.716, 880.0840
1057.198, 880.2432
1057.680, 879.5857
1058.162, 878.1765
1058.644, 877.0974
1059.126, 876.7724
1059.609, 876.6728
1060.091, 876.5253
1060.573, 876.2416
1061.055, 875.6898
1061.537, 874.7899
1062.019, 873.8148
1062.501, 872.5938
1062.983, 871.9705
1063.466, 873.2416
1063.948, 875.1101
1064.430, 874.8788
1064.912, 873.1606
1065.394, 871.7701
1065.876, 871.8925
1066.358, 871.7255
1066.840, 870.6129
1067.323, 869.4929
1067.805, 869.5682
1068.287, 870.7054
1068.769, 872.1366
1069.251, 873.7855
1069.733, 875.2002
1070.215, 876.2327
1070.697, 876.7279
1071.179, 876.3909
1071.661, 875.3704
1072.144, 874.0323
1072.626, 872.1788
1073.108, 871.6818
1073.590, 873.5338
1074.072, 875.3962
1074.554, 873.7527
1075.036, 870.6074
1075.518, 868.6225
1076.001, 868.5398
1076.483, 868.4656
1076.965, 868.0743
1077.447, 868.1002
1077.929, 869.3744
1078.411, 871.0759
1078.893, 870.4294
1079.375, 868.0871
1079.858, 866.1844
1080.340, 865.8395
1080.822, 865.6623
1081.304, 864.9020
1081.786, 864.2796
1082.268, 864.8622
1082.750, 866.6916
1083.232, 865.7562
1083.714, 862.0059
1084.197, 859.9278
1084.679, 865.5938
1085.161, 871.5412
1085.643, 871.4471
1086.125, 866.9244
1086.607, 863.9227
1087.089, 862.7982
1087.571, 862.6812
1088.054, 863.6498
1088.536, 864.8426
1089.018, 865.5895
1089.500, 865.7303
1089.982, 864.4962
1090.464, 861.7769
1090.946, 860.6907
1091.428, 863.2609
1091.911, 865.1075
1092.393, 864.5236
1092.875, 862.7288
1093.357, 862.7693
1093.839, 864.0915
1094.321, 864.9296
1094.803, 864.6432
1095.285, 864.3312
1095.767, 864.5800
1096.250, 864.9368
1096.732, 865.1548
1097.214, 865.2321
1097.696, 864.8856
1098.178, 864.1511
1098.660, 863.7228
1099.142, 863.9387
1099.624, 864.6169
1100.106, 866.0957
1100.589, 867.7669
1101.071, 868.6475
1101.553, 868.5068
1102.035, 868.2704
1102.517, 867.9367
1102.999, 867.6175
1103.481, 867.3748
1103.963, 867.2182
1104.446, 867.2981
1104.928, 867.5006
1105.410, 867.3492
1105.892, 866.0198
1106.374, 865.6061
1106.856, 866.6375
1107.338, 868.1584
1107.820, 869.1283
1108.302, 869.5232
1108.785, 869.0902
1109.267, 867.8097
1109.749, 866.8990
1110.231, 867.1556
1110.713, 867.6102
1111.195, 868.0782
1111.677, 868.3925
1112.159, 867.8591
1112.641, 866.6630
1113.124, 865.8613
1113.606, 865.6624
1114.088, 866.1621
1114.570, 868.4448
1115.052, 870.6266
1115.534, 871.1669
1116.016, 870.1298
1116.498, 868.5311
1116.981, 866.3238
1117.463, 864.6302
1117.945, 864.2619
1118.427, 864.0876
1118.909, 863.1874
1119.391, 861.6664
1119.873, 859.4901
1120.355, 855.9329
1120.838, 854.1366
1121.320, 854.4265
1121.802, 855.0342
1122.284, 855.0168
1122.766, 854.3721
1123.248, 851.9767
1123.730, 848.9750
1124.212, 848.4027
1124.694, 854.9573
1125.177, 858.1430
1125.659, 856.3248
1126.141, 852.8395
1126.623, 851.1586
1127.105, 850.5857
1127.587, 848.9135
1128.069, 846.2793
1128.551, 844.6394
1129.033, 846.4631
1129.516, 847.2648
1129.998, 845.2389
1130.480, 842.1586
1130.962, 840.9274
1131.444, 841.3156
1131.926, 842.5317
1132.408, 844.5428
1132.890, 845.4835
1133.373, 842.6141
1133.855, 839.9500
1134.337, 840.3508
1134.819, 842.6621
1135.301, 842.4498
1135.783, 839.8438
1136.265, 838.5388
1136.747, 839.9527
1137.229, 840.9946
1137.712, 837.6639
1138.194, 833.7614
1138.676, 833.1904
1139.158, 835.9772
1139.640, 837.5795
1140.122, 837.9617
1140.604, 837.4430
1141.086, 835.5895
1141.569, 833.9233
1142.051, 834.6303
1142.533, 836.3331
1143.015, 837.2371
1143.497, 837.0912
1143.979, 835.6625
1144.461, 832.3931
1144.943, 830.0933
1145.426, 831.2037
1145.908, 833.7474
1146.390, 834.4468
1146.872, 834.1360
1147.354, 834.5821
1147.836, 837.8775
1148.318, 839.2911
1148.800, 838.2061
1149.282, 836.4410
1149.765, 835.4426
1150.247, 834.9371
1150.729, 834.3685
1151.211, 833.7332
1151.693, 833.0457
1152.175, 832.4672
1152.657, 831.5886
1153.139, 830.1190
1153.621, 828.7177
1154.104, 828.2172
1154.586, 828.4299
1155.068, 828.8662
1155.550, 829.4532
1156.032, 829.8124
1156.514, 829.3724
1156.996, 829.1611
1157.478, 829.5594
1157.961, 830.2766
1158.443, 831.0476
1158.925, 831.7314
1159.407, 831.2062
1159.889, 829.2675
1160.371, 827.9362
1160.853, 829.1407
1161.335, 830.5575
1161.818, 831.2099
1162.300, 831.0828
1162.782, 829.6089
1163.264, 826.9928
1163.746, 825.9033
1164.228, 827.1504
1164.710, 828.5131
1165.192, 828.7693
1165.674, 828.1650
1166.156, 826.5704
1166.639, 824.2504
1167.121, 822.7064
1167.603, 821.9492
1168.085, 821.3428
1168.567, 820.6475
1169.049, 820.1608
1169.531, 820.4030
1170.013, 820.8033
1170.496, 820.6089
1170.978, 821.0394
1171.460, 820.0183
1171.942, 821.3928
1172.424, 822.4023
1172.906, 822.2543
1173.388, 821.6564
1173.870, 821.1616
1174.353, 820.7184
1174.835, 820.3215
1175.317, 820.0624
1175.799, 819.1777
1176.281, 817.5437
1176.763, 816.2758
1177.245, 816.0350
1177.727, 816.4457
1178.209, 817.8735
1178.692, 819.3879
1179.174, 819.1963
1179.656, 815.9492
1180.138, 814.4988
1180.620, 815.2038
1181.102, 815.7670
1181.584, 814.2982
1182.066, 811.9115
1182.548, 809.3058
1183.031, 807.0071
1183.513, 806.3428
1183.995, 808.6849
1184.477, 809.7235
1184.959, 808.9567
1185.441, 808.2066
1185.923, 809.6510
1186.405, 811.7106
1186.888, 812.2910
1187.370, 811.5549
1187.852, 810.1887
1188.334, 807.5592
1188.816, 805.9490
1189.298, 805.6376
1189.780, 806.1309
1190.262, 807.6937
1190.745, 809.2888
1191.227, 809.1039
1191.709, 807.3601
1192.191, 805.6777
1192.673, 803.7320
1193.155, 803.4375
1193.637, 805.6586
1194.119, 807.9122
1194.601, 806.4542
1195.084, 803.4660
1195.566, 802.6639
1196.048, 804.1049
1196.530, 805.0695
1197.012, 804.6719
1197.494, 804.5482
1197.976, 805.1498
1198.458, 805.7750
1198.941, 804.9188
1199.423, 803.6232
1199.905, 804.1681
1200.387, 806.7029
1200.869, 807.6744
1201.351, 805.6220
1201.833, 803.5563
1202.315, 802.0948
1202.797, 801.1809
1203.280, 800.8920
1203.762, 801.0388
1204.244, 801.5220
1204.726, 802.3799
1205.208, 802.2390
1205.690, 800.0703
1206.172, 798.6568
1206.654, 799.1111
1207.136, 800.2133
1207.619, 799.5284
1208.101, 798.0621
1208.583, 797.7567
1209.065, 799.1697
1209.547, 799.8102
1210.029, 798.6999
1210.511, 798.1977
1210.993, 799.4216
1211.476, 801.2503
1211.958, 801.5697
1212.440, 801.0386
1212.922, 800.9512
1213.404, 801.7936
1213.886, 801.6722
1214.368, 799.8119
1214.850, 798.4680
1215.333, 798.7415
1215.815, 799.8308
1216.297, 800.7962
1216.779, 801.3376
1217.261, 800.7793
1217.743, 798.6034
1218.225, 796.7564
1218.707, 795.2884
1219.189, 794.4783
1219.672, 794.5711
1220.154, 795.2375
1220.636, 796.1358
1221.118, 797.0764
1221.600, 797.6139
1222.082, 797.2115
1222.564, 798.0983
1223.046, 801.1732
1223.528, 803.0663
1224.011, 801.5869
1224.493, 798.4240
1224.975, 795.6335
1225.457, 793.5256
1225.939, 792.7054
1226.421, 794.0250
1226.903, 794.7366
1227.385, 794.6775
1227.868, 794.4980
1228.350, 794.4569
1228.832, 794.6141
1229.314, 795.0998
1229.796, 795.8317
1230.278, 796.7539
1230.760, 798.2654
1231.242, 798.7716
1231.724, 798.2714
1232.207, 796.7411
1232.689, 793.1730
1233.171, 789.6280
1233.653, 788.8095
1234.135, 789.8359
1234.617, 791.4630
1235.099, 794.3552
1235.581, 794.6057
1236.063, 791.7704
1236.546, 789.4561
1237.028, 790.5732
1237.510, 792.6532
1237.992, 793.3807
1238.474, 793.1784
1238.956, 792.5768
1239.438, 791.2847
1239.920, 791.4766
1240.403, 793.3092
1240.885, 794.3483
1241.367, 791.7940
1241.849, 789.0389
1242.331, 789.8181
1242.813, 791.9105
1243.295, 791.8128
1243.777, 788.8047
1244.260, 787.0943
1244.742, 786.6539
1245.224, 787.2720
1245.706, 789.7580
1246.188, 792.2430
1246.670, 793.8282
1247.152, 794.4141
1247.634, 793.7725
1248.116, 791.7374
1248.599, 791.1834
1249.081, 792.0195
1249.563, 792.5448
1250.045, 791.3575
1250.527, 790.0383
1251.009, 789.5112
1251.491, 789.2013
1251.973, 788.3776
1252.455, 787.0873
1252.938, 786.6760
1253.420, 787.0771
1253.902, 787.6752
1254.384, 788.2186
1254.866, 788.7982
1255.348, 789.6718
1255.830, 790.3868
1256.313, 790.2864
1256.795, 789.6077
1257.277, 790.3050
1257.759, 791.9630
1258.241, 792.4146
1258.723, 788.7106
1259.205, 786.5540
1259.687, 787.5713
1260.169, 789.4877
1260.651, 790.5451
1261.134, 790.8502
1261.616, 790.5224
1262.098, 789.7303
1262.580, 789.0507
1263.062, 788.3962
1263.544, 788.5052
1264.026, 789.9629
1264.508, 790.9257
1264.991, 788.7638
1265.473, 785.6437
1265.955, 786.4522
1266.437, 789.7556
1266.919, 791.6673
1267.401, 790.0153
1267.883, 789.1873
1268.365, 789.4834
1268.848, 789.7283
1269.330, 788.5945
1269.812, 787.2347
1270.294, 787.9235
1270.776, 789.3542
1271.258, 788.2205
1271.740, 782.3504
1272.222, 780.7078
1272.704, 783.8275
1273.187, 787.2897
1273.669, 788.0794
1274.151, 787.8146
1274.633, 787.5998
1275.115, 787.3848
1275.597, 787.0811
1276.079, 786.6823
1276.561, 786.3461
1277.043, 786.0721
1277.526, 785.5251
1278.008, 783.8896
1278.490, 782.6603
1278.972, 782.8997
1279.454, 783.9325
1279.936, 785.6202
1280.418, 787.8341
1280.900, 786.3434
1281.383, 781.7761
1281.865, 778.1807
1282.347, 777.7111
1282.829, 778.3004
1283.311, 779.8481
1283.793, 781.4971
1284.275, 783.1445
1284.757, 784.2844
1285.240, 781.4097
1285.722, 776.0906
1286.204, 773.6064
1286.686, 778.5788
1287.168, 781.8392
1287.650, 782.0897
1288.132, 781.2368
1288.614, 780.0701
1289.096, 779.0613
1289.578, 779.6459
1290.061, 781.0204
1290.543, 781.5110
1291.025, 780.2948
1291.507, 779.0065
1291.989, 777.5692
1292.471, 776.3423
1292.953, 775.3183
1293.435, 774.8726
1293.918, 775.5422
1294.400, 777.0357
1294.882, 779.1888
1295.364, 782.1193
1295.846, 784.2952
1296.328, 785.7479
1296.810, 785.6226
1297.292, 782.7815
1297.775, 779.4172
1298.257, 776.7883
1298.739, 775.0096
1299.221, 774.2176
1299.703, 774.2871
1300.185, 774.4547
1300.667, 774.5651
1301.149, 773.2872
1301.631, 768.8253
1302.114, 766.0894
1302.596, 767.6291
##END=



