##NAMES=Pharmacosiderite
##RRUFFID=R050574
##IDEAL CHEMISTRY=KFe^3+^_4_(As^5+^O_4_)_3_(OH)_4_&#183;6-7H_2_O
##LOCALITY=Cornwall, England
##OWNER=RRUFF
##SOURCE=University of Arizona Mineral Museum
##DESCRIPTION=Druse of bluish-green cubes
##STATUS=The identification of this mineral is confirmed by single-crystal X-ray diffraction and chemical analysis.
##URL=rruff.info/R050574
##MEASURED CHEMISTRY=K_1.27_(Fe^3+^_3.73_Fe^2+^_0.27_)_Σ=4_(As_1.00_O_4_)_3_(OH)_4_·6H_2_O
132.8808, 364.4677
133.3629, 380.3797
133.8450, 396.7289
134.3271, 412.4698
134.8093, 427.7861
135.2914, 442.2695
135.7735, 455.1683
136.2556, 466.9542
136.7377, 475.8237
137.2198, 477.7218
137.7020, 469.3329
138.1841, 464.4713
138.6662, 473.0766
139.1483, 492.7265
139.6304, 510.9909
140.1125, 522.3110
140.5947, 531.2297
141.0768, 543.8924
141.5589, 560.7673
142.0410, 579.7406
142.5231, 599.6418
143.0052, 620.4348
143.4874, 642.1541
143.9695, 665.2129
144.4516, 689.0056
144.9337, 712.1525
145.4158, 734.2870
145.8979, 758.1362
146.3801, 787.9400
146.8622, 824.3708
147.3443, 857.6439
147.8264, 881.5287
148.3085, 903.5217
148.7906, 928.6877
149.2728, 957.9073
149.7549, 988.3242
150.2370, 1018.747
150.7191, 1050.645
151.2012, 1075.067
151.6833, 1087.549
152.1655, 1093.990
152.6476, 1095.508
153.1297, 1092.850
153.6118, 1089.667
154.0939, 1091.368
154.5760, 1100.226
155.0582, 1106.705
155.5403, 1109.306
156.0224, 1109.926
156.5045, 1109.464
156.9866, 1108.156
157.4688, 1105.872
157.9509, 1101.786
158.4330, 1093.545
158.9151, 1089.491
159.3972, 1093.719
159.8793, 1098.797
160.3615, 1097.956
160.8436, 1090.939
161.3257, 1084.701
161.8078, 1090.302
162.2899, 1116.627
162.7720, 1135.162
163.2542, 1143.790
163.7363, 1147.827
164.2184, 1149.536
164.7005, 1149.894
165.1826, 1149.947
165.6647, 1151.093
166.1469, 1153.689
166.6290, 1156.708
167.1111, 1160.956
167.5932, 1165.018
168.0753, 1167.238
168.5574, 1167.682
169.0396, 1168.496
169.5217, 1172.631
170.0038, 1182.074
170.4859, 1189.310
170.9680, 1195.392
171.4501, 1198.831
171.9323, 1195.826
172.4144, 1186.973
172.8965, 1179.597
173.3786, 1182.401
173.8607, 1199.011
174.3428, 1214.151
174.8250, 1229.273
175.3071, 1242.070
175.7892, 1248.972
176.2713, 1250.305
176.7534, 1251.687
177.2355, 1258.938
177.7177, 1273.478
178.1998, 1287.766
178.6819, 1300.468
179.1640, 1313.825
179.6461, 1330.823
180.1282, 1351.248
180.6104, 1370.287
181.0925, 1382.533
181.5746, 1387.297
182.0567, 1398.030
182.5388, 1416.578
183.0209, 1439.734
183.5031, 1466.141
183.9852, 1495.456
184.4673, 1526.251
184.9494, 1558.729
185.4315, 1592.118
185.9136, 1620.000
186.3958, 1636.893
186.8779, 1652.284
187.3600, 1674.055
187.8421, 1702.001
188.3242, 1730.116
188.8063, 1755.374
189.2885, 1777.072
189.7706, 1794.862
190.2527, 1806.552
190.7348, 1816.137
191.2169, 1828.791
191.6990, 1843.764
192.1812, 1851.653
192.6633, 1845.196
193.1454, 1827.628
193.6275, 1811.109
194.1096, 1798.455
194.5917, 1783.840
195.0739, 1760.405
195.5560, 1729.407
196.0381, 1702.603
196.5202, 1688.204
197.0023, 1679.752
197.4844, 1663.200
197.9666, 1634.138
198.4487, 1605.410
198.9308, 1586.898
199.4129, 1577.225
199.8950, 1567.824
200.3771, 1555.331
200.8593, 1541.742
201.3414, 1531.001
201.8235, 1524.641
202.3056, 1515.132
202.7877, 1493.483
203.2698, 1462.739
203.7520, 1439.836
204.2341, 1432.636
204.7162, 1431.709
205.1983, 1425.506
205.6804, 1413.782
206.1625, 1401.434
206.6447, 1390.790
207.1268, 1381.767
207.6089, 1373.677
208.0910, 1365.516
208.5731, 1359.851
209.0552, 1358.631
209.5374, 1361.567
210.0195, 1367.560
210.5016, 1378.158
210.9837, 1391.548
211.4658, 1401.957
211.9479, 1407.568
212.4301, 1412.187
212.9122, 1417.463
213.3943, 1423.839
213.8764, 1433.234
214.3585, 1448.644
214.8406, 1467.492
215.3228, 1483.371
215.8049, 1494.626
216.2870, 1506.407
216.7691, 1520.358
217.2512, 1537.177
217.7333, 1559.262
218.2155, 1589.806
218.6976, 1625.033
219.1797, 1657.685
219.6618, 1686.431
220.1439, 1717.181
220.6260, 1753.009
221.1082, 1793.109
221.5903, 1837.916
222.0724, 1890.833
222.5545, 1944.404
223.0366, 1986.448
223.5187, 2014.584
224.0009, 2045.655
224.4830, 2084.218
224.9651, 2131.045
225.4472, 2188.668
225.9293, 2260.187
226.4114, 2336.231
226.8936, 2407.391
227.3757, 2473.742
227.8578, 2539.887
228.3399, 2608.244
228.8220, 2676.196
229.3041, 2739.843
229.7863, 2798.332
230.2684, 2857.855
230.7505, 2922.380
231.2326, 2991.879
231.7147, 3066.849
232.1968, 3153.096
232.6790, 3238.624
233.1611, 3313.511
233.6432, 3378.047
234.1253, 3439.166
234.6074, 3498.573
235.0895, 3557.228
235.5717, 3621.009
236.0538, 3697.365
236.5359, 3766.747
237.0180, 3814.039
237.5001, 3843.584
237.9822, 3867.915
238.4644, 3899.400
238.9465, 3929.600
239.4286, 3936.469
239.9107, 3915.931
240.3928, 3880.859
240.8749, 3833.525
241.3571, 3778.295
241.8392, 3721.821
242.3213, 3667.282
242.8034, 3611.609
243.2855, 3549.552
243.7676, 3480.370
244.2498, 3408.829
244.7319, 3337.295
245.2140, 3264.574
245.6961, 3188.094
246.1782, 3104.786
246.6603, 3022.856
247.1425, 2950.458
247.6246, 2887.535
248.1067, 2831.184
248.5888, 2783.395
249.0709, 2740.623
249.5530, 2698.328
250.0352, 2656.060
250.5173, 2616.519
250.9994, 2582.147
251.4815, 2552.636
251.9636, 2525.939
252.4457, 2501.546
252.9279, 2480.460
253.4100, 2464.728
253.8921, 2453.935
254.3742, 2442.325
254.8563, 2424.847
255.3384, 2404.852
255.8206, 2389.684
256.3027, 2380.376
256.7848, 2375.655
257.2669, 2376.211
257.7490, 2380.706
258.2311, 2385.966
258.7133, 2391.242
259.1954, 2396.721
259.6775, 2403.409
260.1596, 2411.637
260.6417, 2417.786
261.1238, 2417.727
261.6060, 2414.113
262.0881, 2413.600
262.5702, 2419.961
263.0523, 2426.264
263.5344, 2428.303
264.0165, 2425.943
264.4987, 2416.503
264.9808, 2392.886
265.4629, 2366.443
265.9450, 2360.119
266.4271, 2380.653
266.9092, 2402.324
267.3914, 2414.425
267.8735, 2418.220
268.3556, 2415.990
268.8377, 2407.366
269.3198, 2395.508
269.8019, 2383.702
270.2841, 2371.306
270.7662, 2363.256
271.2483, 2364.938
271.7304, 2369.899
272.2125, 2368.091
272.6946, 2357.576
273.1768, 2347.894
273.6589, 2349.355
274.1410, 2362.234
274.6231, 2371.104
275.1052, 2372.310
275.5873, 2371.435
276.0695, 2370.212
276.5516, 2369.698
277.0337, 2374.640
277.5158, 2389.048
277.9979, 2411.613
278.4800, 2433.295
278.9622, 2453.741
279.4443, 2473.779
279.9264, 2493.213
280.4085, 2512.535
280.8906, 2534.265
281.3727, 2560.433
281.8549, 2586.153
282.3370, 2599.312
282.8191, 2591.125
283.3012, 2586.909
283.7833, 2593.064
284.2654, 2602.765
284.7476, 2611.035
285.2297, 2616.175
285.7118, 2614.527
286.1939, 2601.174
286.6760, 2573.205
287.1581, 2541.253
287.6403, 2500.796
288.1224, 2460.498
288.6045, 2425.745
289.0866, 2396.445
289.5687, 2369.344
290.0508, 2341.300
290.5330, 2312.597
291.0151, 2293.631
291.4972, 2287.159
291.9793, 2286.633
292.4614, 2293.613
292.9435, 2304.878
293.4257, 2316.294
293.9078, 2325.863
294.3899, 2333.673
294.8720, 2339.462
295.3541, 2335.729
295.8362, 2341.828
296.3184, 2364.136
296.8005, 2392.681
297.2826, 2419.041
297.7647, 2441.442
298.2468, 2463.475
298.7289, 2491.758
299.2111, 2530.880
299.6932, 2559.295
300.1753, 2568.373
300.6574, 2574.935
301.1395, 2586.008
301.6216, 2600.971
302.1038, 2616.431
302.5859, 2631.835
303.0680, 2645.747
303.5501, 2644.655
304.0322, 2619.382
304.5143, 2590.644
304.9965, 2563.819
305.4786, 2537.811
305.9607, 2513.410
306.4428, 2492.296
306.9249, 2466.253
307.4070, 2415.902
307.8892, 2332.122
308.3713, 2256.193
308.8534, 2206.132
309.3355, 2162.093
309.8176, 2109.825
310.2997, 2047.714
310.7819, 1986.671
311.2640, 1938.017
311.7461, 1900.603
312.2282, 1858.883
312.7103, 1809.632
313.1924, 1758.169
313.6746, 1704.466
314.1567, 1651.096
314.6388, 1605.605
315.1209, 1576.186
315.6030, 1555.327
316.0851, 1530.549
316.5673, 1501.737
317.0494, 1469.378
317.5315, 1427.347
318.0136, 1384.047
318.4957, 1354.209
318.9778, 1344.699
319.4600, 1339.308
319.9421, 1324.794
320.4242, 1303.817
320.9063, 1288.781
321.3884, 1286.309
321.8705, 1287.170
322.3527, 1275.574
322.8348, 1250.478
323.3169, 1228.442
323.7990, 1216.078
324.2811, 1208.494
324.7632, 1198.875
325.2454, 1186.340
325.7275, 1176.020
326.2096, 1173.547
326.6917, 1179.016
327.1738, 1179.989
327.6559, 1171.615
328.1381, 1163.630
328.6202, 1163.791
329.1023, 1168.581
329.5844, 1167.662
330.0665, 1154.967
330.5486, 1135.342
331.0308, 1123.191
331.5129, 1125.820
331.9950, 1126.406
332.4771, 1121.295
332.9592, 1115.137
333.4413, 1113.507
333.9235, 1117.127
334.4056, 1120.992
334.8877, 1118.386
335.3698, 1106.814
335.8519, 1100.332
336.3340, 1104.029
336.8162, 1107.237
337.2983, 1104.465
337.7804, 1097.627
338.2625, 1091.541
338.7446, 1089.320
339.2267, 1090.336
339.7089, 1092.443
340.1910, 1099.974
340.6731, 1101.115
341.1552, 1089.960
341.6373, 1074.519
342.1194, 1061.687
342.6016, 1053.477
343.0837, 1048.013
343.5658, 1043.079
344.0479, 1038.566
344.5300, 1035.692
345.0121, 1036.733
345.4943, 1037.259
345.9764, 1033.899
346.4585, 1027.799
346.9406, 1022.938
347.4227, 1022.652
347.9048, 1024.884
348.3870, 1023.555
348.8691, 1016.986
349.3512, 1013.302
349.8333, 1020.262
350.3154, 1031.302
350.7975, 1037.696
351.2797, 1037.229
351.7618, 1034.351
352.2439, 1031.310
352.7260, 1028.445
353.2081, 1027.506
353.6902, 1029.741
354.1724, 1032.473
354.6545, 1031.524
355.1366, 1027.069
355.6187, 1023.671
356.1008, 1022.253
356.5829, 1022.386
357.0651, 1023.523
357.5472, 1025.691
358.0293, 1029.837
358.5114, 1037.575
358.9935, 1047.839
359.4756, 1052.851
359.9578, 1046.671
360.4399, 1043.238
360.9220, 1046.647
361.4041, 1055.057
361.8862, 1067.788
362.3683, 1084.286
362.8505, 1099.401
363.3326, 1103.523
363.8147, 1086.681
364.2968, 1085.432
364.7789, 1113.344
365.2610, 1142.533
365.7432, 1156.691
366.2253, 1158.070
366.7074, 1157.673
367.1895, 1162.884
367.6716, 1173.552
368.1537, 1189.780
368.6359, 1217.562
369.1180, 1241.615
369.6001, 1255.046
370.0822, 1265.596
370.5643, 1281.046
371.0464, 1303.527
371.5286, 1329.413
372.0107, 1355.355
372.4928, 1381.485
372.9749, 1404.599
373.4570, 1419.746
373.9391, 1437.555
374.4213, 1466.628
374.9034, 1503.735
375.3855, 1538.758
375.8676, 1566.313
376.3497, 1589.496
376.8318, 1612.215
377.3140, 1634.099
377.7961, 1660.468
378.2782, 1696.590
378.7603, 1737.337
379.2424, 1771.976
379.7245, 1797.697
380.2067, 1825.699
380.6888, 1863.651
381.1709, 1907.064
381.6530, 1948.799
382.1351, 1987.552
382.6172, 2021.222
383.0994, 2045.547
383.5815, 2059.292
384.0636, 2080.465
384.5457, 2116.187
385.0278, 2152.228
385.5099, 2181.220
385.9921, 2204.782
386.4742, 2227.343
386.9563, 2251.210
387.4384, 2275.102
387.9205, 2295.601
388.4026, 2312.497
388.8848, 2325.906
389.3669, 2332.496
389.8490, 2338.260
390.3311, 2347.909
390.8132, 2361.410
391.2953, 2375.710
391.7775, 2388.792
392.2596, 2400.480
392.7417, 2406.744
393.2238, 2403.230
393.7059, 2400.426
394.1880, 2405.085
394.6702, 2410.684
395.1523, 2408.509
395.6344, 2395.226
396.1165, 2377.628
396.5986, 2363.151
397.0807, 2351.733
397.5629, 2342.911
398.0450, 2341.728
398.5271, 2336.112
399.0092, 2309.959
399.4913, 2268.561
399.9734, 2238.495
400.4556, 2241.891
400.9377, 2254.333
401.4198, 2243.191
401.9019, 2209.467
402.3840, 2178.143
402.8661, 2162.471
403.3483, 2157.191
403.8304, 2148.069
404.3125, 2133.116
404.7946, 2119.452
405.2767, 2110.303
405.7589, 2102.634
406.2410, 2092.834
406.7231, 2080.364
407.2052, 2067.288
407.6873, 2055.935
408.1694, 2046.706
408.6516, 2031.620
409.1337, 1999.800
409.6158, 1974.994
410.0979, 1967.326
410.5800, 1969.106
411.0621, 1970.208
411.5443, 1966.578
412.0264, 1959.628
412.5085, 1950.864
412.9906, 1938.948
413.4727, 1929.969
413.9548, 1924.597
414.4370, 1922.196
414.9191, 1924.098
415.4012, 1928.957
415.8833, 1933.425
416.3654, 1936.303
416.8475, 1937.102
417.3297, 1933.749
417.8118, 1925.491
418.2939, 1918.648
418.7760, 1913.978
419.2581, 1913.567
419.7402, 1921.177
420.2224, 1938.483
420.7045, 1953.198
421.1866, 1960.461
421.6687, 1961.318
422.1508, 1953.066
422.6329, 1935.663
423.1151, 1925.279
423.5972, 1937.212
424.0793, 1968.464
424.5614, 1988.538
425.0435, 1990.001
425.5256, 1990.548
426.0078, 1994.406
426.4899, 2000.663
426.9720, 2008.342
427.4541, 2017.056
427.9362, 2025.887
428.4183, 2033.239
428.9005, 2037.936
429.3826, 2046.819
429.8647, 2062.865
430.3468, 2079.985
430.8289, 2097.813
431.3110, 2115.016
431.7932, 2128.771
432.2753, 2137.020
432.7574, 2144.666
433.2395, 2161.877
433.7216, 2190.756
434.2037, 2215.992
434.6859, 2230.131
435.1680, 2244.244
435.6501, 2268.450
436.1322, 2301.230
436.6143, 2331.541
437.0964, 2352.310
437.5786, 2368.679
438.0607, 2386.822
438.5428, 2406.916
439.0249, 2428.729
439.5070, 2451.302
439.9891, 2476.140
440.4713, 2508.296
440.9534, 2551.216
441.4355, 2591.207
441.9176, 2621.712
442.3997, 2650.002
442.8818, 2682.267
443.3640, 2719.632
443.8461, 2762.258
444.3282, 2811.732
444.8103, 2866.768
445.2924, 2912.956
445.7745, 2935.596
446.2567, 2967.133
446.7388, 3014.877
447.2209, 3071.716
447.7030, 3130.501
448.1851, 3189.785
448.6672, 3251.829
449.1494, 3319.838
449.6315, 3393.730
450.1136, 3469.945
450.5957, 3549.977
451.0778, 3629.309
451.5599, 3702.388
452.0421, 3774.420
452.5242, 3851.093
453.0063, 3930.846
453.4884, 4022.771
453.9705, 4139.443
454.4526, 4274.776
454.9348, 4409.029
455.4169, 4536.108
455.8990, 4665.901
456.3811, 4807.363
456.8632, 4961.689
457.3453, 5128.779
457.8275, 5310.345
458.3096, 5503.339
458.7917, 5698.522
459.2738, 5904.943
459.7559, 6140.812
460.2380, 6412.561
460.7202, 6705.837
461.2023, 6991.150
461.6844, 7252.632
462.1665, 7550.431
462.6486, 7895.261
463.1307, 8262.000
463.6129, 8649.573
464.0950, 9050.658
464.5771, 9455.031
465.0592, 9852.717
465.5413, 10258.68
466.0234, 10702.83
466.5056, 11187.84
466.9877, 11678.83
467.4698, 12164.94
467.9519, 12662.33
468.4340, 13180.69
468.9161, 13720.45
469.3983, 14282.91
469.8804, 14867.15
470.3625, 15475.24
470.8446, 16127.66
471.3267, 16810.87
471.8088, 17474.74
472.2910, 18091.53
472.7731, 18676.04
473.2552, 19251.27
473.7373, 19860.29
474.2194, 20364.18
474.7015, 20744.83
475.1837, 21033.30
475.6658, 21266.72
476.1479, 21425.94
476.6300, 21455.91
477.1121, 21321.33
477.5942, 21035.60
478.0764, 20628.57
478.5585, 20085.13
479.0406, 19461.80
479.5227, 18729.64
480.0048, 17946.32
480.4869, 17127.49
480.9691, 16282.38
481.4512, 15442.27
481.9333, 14615.88
482.4154, 13813.29
482.8975, 13055.43
483.3796, 12341.05
483.8618, 11657.55
484.3439, 10989.55
484.8260, 10355.29
485.3081, 9789.711
485.7902, 9293.156
486.2723, 8836.105
486.7545, 8422.872
487.2366, 8039.706
487.7187, 7680.447
488.2008, 7339.775
488.6829, 7013.200
489.1650, 6697.566
489.6472, 6397.400
490.1293, 6132.425
490.6114, 5925.107
491.0935, 5711.769
491.5756, 5463.500
492.0577, 5228.064
492.5399, 5041.857
493.0220, 4898.875
493.5041, 4763.461
493.9862, 4610.709
494.4683, 4451.671
494.9504, 4310.429
495.4326, 4188.982
495.9147, 4068.128
496.3968, 3934.496
496.8789, 3805.024
497.3610, 3707.151
497.8431, 3644.673
498.3253, 3571.003
498.8074, 3457.211
499.2895, 3338.876
499.7716, 3251.171
500.2537, 3189.581
500.7358, 3127.524
501.2180, 3049.673
501.7001, 2964.934
502.1822, 2896.118
502.6643, 2854.188
503.1464, 2809.090
503.6285, 2762.168
504.1107, 2710.802
504.5928, 2648.077
505.0749, 2579.429
505.5570, 2519.960
506.0391, 2479.502
506.5212, 2449.308
507.0034, 2410.310
507.4855, 2361.356
507.9676, 2318.923
508.4497, 2290.908
508.9318, 2265.987
509.4139, 2231.468
509.8961, 2188.650
510.3782, 2148.797
510.8603, 2112.703
511.3424, 2082.368
511.8245, 2063.454
512.3066, 2051.957
512.7888, 2036.994
513.2709, 2014.261
513.7530, 1986.336
514.2351, 1957.094
514.7172, 1927.245
515.1993, 1894.190
515.6815, 1852.149
516.1636, 1813.330
516.6457, 1782.055
517.1278, 1757.255
517.6099, 1737.466
518.0920, 1722.618
518.5742, 1707.957
519.0563, 1684.885
519.5384, 1653.745
520.0205, 1629.426
520.5026, 1616.449
520.9847, 1605.240
521.4669, 1587.879
521.9490, 1566.577
522.4311, 1547.218
522.9132, 1532.085
523.3953, 1517.128
523.8774, 1498.226
524.3596, 1478.591
524.8417, 1466.674
525.3238, 1463.521
525.8059, 1456.846
526.2880, 1432.156
526.7701, 1389.656
527.2523, 1362.699
527.7344, 1367.708
528.2165, 1369.117
528.6986, 1356.804
529.1807, 1340.883
529.6628, 1333.000
530.1450, 1334.560
530.6271, 1335.343
531.1092, 1324.056
531.5913, 1304.680
532.0734, 1292.426
532.5555, 1289.004
533.0377, 1283.798
533.5198, 1269.705
534.0019, 1252.030
534.4840, 1241.251
534.9661, 1238.787
535.4482, 1237.169
535.9304, 1237.865
536.4125, 1236.055
536.8946, 1225.486
537.3767, 1207.848
537.8588, 1189.969
538.3409, 1175.662
538.8231, 1164.802
539.3052, 1157.813
539.7873, 1157.770
540.2694, 1154.200
540.7515, 1143.171
541.2336, 1131.439
541.7158, 1122.068
542.1979, 1114.767
542.6800, 1108.325
543.1621, 1102.675
543.6442, 1096.873
544.1263, 1088.695
544.6085, 1078.949
545.0906, 1073.534
545.5727, 1075.641
546.0548, 1075.618
546.5369, 1061.161
547.0190, 1031.815
547.5012, 1013.816
547.9833, 1014.468
548.4654, 1017.782
548.9475, 1021.758
549.4296, 1023.672
549.9117, 1018.689
550.3939, 1006.574
550.8760, 994.3687
551.3581, 990.1743
551.8402, 993.1935
552.3223, 992.2573
552.8044, 985.7240
553.2866, 978.7288
553.7687, 972.2271
554.2508, 966.7535
554.7329, 963.3599
555.2150, 962.2786
555.6971, 960.8282
556.1793, 959.0284
556.6614, 955.3765
557.1435, 946.0931
557.6256, 932.3757
558.1077, 921.3261
558.5898, 916.6722
559.0720, 916.3630
559.5541, 916.2825
560.0362, 917.7613
560.5183, 916.2847
561.0004, 909.5595
561.4825, 902.5773
561.9647, 896.3406
562.4468, 891.8600
562.9289, 891.3632
563.4110, 896.4627
563.8931, 901.8008
564.3752, 900.3859
564.8574, 892.8686
565.3395, 883.8541
565.8216, 873.2429
566.3037, 863.3733
566.7858, 855.6580
567.2679, 850.2059
567.7501, 846.8235
568.2322, 848.1101
568.7143, 847.6835
569.1964, 840.6013
569.6785, 832.8986
570.1606, 832.1970
570.6428, 838.0844
571.1249, 843.5515
571.6070, 843.2050
572.0891, 838.5713
572.5712, 835.0150
573.0533, 832.3798
573.5355, 831.3849
574.0176, 834.6014
574.4997, 837.3257
574.9818, 834.7263
575.4639, 828.2050
575.9460, 824.6044
576.4282, 831.0471
576.9103, 837.1274
577.3924, 830.4197
577.8745, 816.4229
578.3566, 811.0308
578.8387, 818.8308
579.3209, 828.3726
579.8030, 826.4186
580.2851, 812.3596
580.7672, 801.9006
581.2493, 793.6652
581.7314, 791.0798
582.2136, 801.3924
582.6957, 813.5179
583.1778, 815.4226
583.6599, 806.1409
584.1420, 796.0883
584.6241, 793.7889
585.1063, 795.9630
585.5884, 795.4384
586.0705, 792.2097
586.5526, 788.9931
587.0347, 786.9918
587.5168, 785.1507
587.9990, 781.0213
588.4811, 772.8024
588.9632, 770.8661
589.4453, 783.7531
589.9274, 794.2142
590.4095, 791.9651
590.8917, 782.5842
591.3738, 774.5217
591.8559, 770.7485
592.3380, 770.1207
592.8201, 772.6976
593.3022, 778.0220
593.7844, 780.2342
594.2665, 779.2567
594.7486, 774.9893
595.2307, 764.1015
595.7128, 751.7637
596.1949, 747.3169
596.6771, 752.9742
597.1592, 755.9578
597.6413, 750.2585
598.1234, 742.3628
598.6055, 737.1839
599.0876, 734.4874
599.5698, 732.2360
600.0519, 729.4836
600.5340, 727.0020
601.0161, 726.5201
601.4982, 728.7451
601.9803, 728.8859
602.4625, 724.3584
602.9446, 721.4208
603.4267, 726.5043
603.9088, 733.4116
604.3909, 731.9567
604.8730, 718.3939
605.3552, 706.3314
605.8373, 704.7006
606.3194, 708.1471
606.8015, 710.8168
607.2836, 711.7754
607.7657, 709.5721
608.2479, 703.0241
608.7300, 694.4443
609.2121, 689.3904
609.6942, 690.5984
610.1763, 688.6110
610.6584, 678.1039
611.1406, 669.8751
611.6227, 669.8526
612.1048, 674.4910
612.5869, 677.6641
613.0690, 677.4793
613.5511, 675.8862
614.0333, 675.1437
614.5154, 673.9757
614.9975, 669.1833
615.4796, 660.5457
615.9617, 650.5032
616.4438, 639.6769
616.9260, 629.7969
617.4081, 625.9658
617.8902, 632.7750
618.3723, 637.3140
618.8544, 640.1343
619.3365, 640.3389
619.8187, 635.3872
620.3008, 627.8741
620.7829, 622.8626
621.2650, 622.5445
621.7471, 623.3246
622.2292, 621.2445
622.7114, 617.1334
623.1935, 613.7957
623.6756, 611.5764
624.1577, 609.5040
624.6398, 607.0051
625.1219, 604.1801
625.6041, 601.2440
626.0862, 596.4717
626.5683, 594.6869
627.0504, 600.0298
627.5325, 604.5192
628.0146, 601.6017
628.4968, 594.5472
628.9789, 591.1035
629.4610, 594.9159
629.9431, 600.2151
630.4252, 600.0259
630.9073, 595.2211
631.3895, 588.7502
631.8716, 580.1462
632.3537, 575.6349
632.8358, 581.1915
633.3179, 592.0746
633.8000, 594.4245
634.2822, 583.1163
634.7643, 574.3720
635.2464, 570.1465
635.7285, 567.8919
636.2106, 566.2075
636.6927, 565.2495
637.1749, 565.9216
637.6570, 568.6690
638.1391, 571.9764
638.6212, 574.3649
639.1033, 575.7626
639.5854, 575.3962
640.0676, 572.8346
640.5497, 570.9108
641.0318, 572.0347
641.5139, 574.2467
641.9960, 572.6258
642.4781, 565.9954
642.9603, 558.9728
643.4424, 549.9034
643.9245, 542.4953
644.4066, 539.7630
644.8887, 540.0401
645.3708, 539.8461
645.8530, 537.8939
646.3351, 536.4537
646.8172, 539.5554
647.2993, 545.8128
647.7814, 547.3932
648.2635, 543.4110
648.7457, 538.5723
649.2278, 534.1232
649.7099, 531.2711
650.1920, 533.1628
650.6741, 542.0660
651.1563, 547.6765
651.6384, 548.2343
652.1205, 546.7694
652.6026, 543.4471
653.0847, 539.5912
653.5668, 536.6642
654.0490, 535.1885
654.5311, 535.4869
655.0132, 540.0264
655.4953, 546.6085
655.9774, 546.4193
656.4595, 538.9522
656.9417, 531.3384
657.4238, 525.9721
657.9059, 522.4873
658.3880, 520.3415
658.8701, 519.5746
659.3522, 520.3658
659.8344, 525.4825
660.3165, 528.9130
660.7986, 528.3207
661.2807, 524.9677
661.7628, 518.4340
662.2449, 509.7648
662.7271, 504.9786
663.2092, 511.3768
663.6913, 523.6064
664.1734, 530.0751
664.6555, 531.0447
665.1376, 530.5164
665.6198, 529.5712
666.1019, 527.8757
666.5840, 524.5037
667.0661, 519.2826
667.5482, 517.4776
668.0303, 522.4763
668.5125, 526.2148
668.9946, 526.6646
669.4767, 525.6901
669.9588, 524.6572
670.4409, 523.8093
670.9230, 523.0440
671.4052, 522.4459
671.8873, 521.6958
672.3694, 519.8566
672.8515, 517.4003
673.3336, 516.9308
673.8157, 519.1609
674.2979, 520.0870
674.7800, 515.6058
675.2621, 507.3033
675.7442, 504.3531
676.2263, 510.5095
676.7084, 516.1029
677.1906, 521.9103
677.6727, 525.8704
678.1548, 526.1614
678.6369, 523.6926
679.1190, 520.2668
679.6011, 515.7288
680.0833, 512.9182
680.5654, 515.4238
681.0475, 520.8773
681.5296, 525.4254
682.0117, 528.4816
682.4938, 529.0545
682.9760, 526.1064
683.4581, 522.1347
683.9402, 523.3475
684.4223, 532.4599
684.9044, 537.9809
685.3865, 537.3295
685.8687, 536.2314
686.3508, 538.0980
686.8329, 540.4158
687.3150, 538.3182
687.7971, 530.1163
688.2792, 526.3644
688.7614, 536.5118
689.2435, 549.6625
689.7256, 555.6027
690.2077, 555.5665
690.6898, 554.0656
691.1719, 552.7993
691.6541, 551.5651
692.1362, 550.0539
692.6183, 548.2897
693.1004, 546.9359
693.5825, 546.1421
694.0646, 545.2938
694.5468, 544.1212
695.0289, 542.8792
695.5110, 541.3181
695.9931, 539.5486
696.4752, 539.8367
696.9573, 543.8127
697.4395, 548.4212
697.9216, 552.4357
698.4037, 556.2531
698.8858, 562.1937
699.3679, 569.1046
699.8500, 570.7487
700.3322, 561.0614
700.8143, 546.6225
701.2964, 541.0555
701.7785, 544.0971
702.2606, 550.1028
702.7427, 559.2498
703.2249, 566.8447
703.7070, 568.9454
704.1891, 566.7086
704.6712, 564.9896
705.1533, 562.9210
705.6354, 562.7396
706.1176, 566.6141
706.5997, 570.3732
707.0818, 569.8726
707.5639, 567.8563
708.0460, 570.5353
708.5281, 580.4459
709.0103, 590.4378
709.4924, 593.8983
709.9745, 593.2789
710.4566, 593.7581
710.9387, 595.2190
711.4208, 593.3884
711.9030, 585.9022
712.3851, 578.0851
712.8672, 578.6124
713.3493, 588.6893
713.8314, 596.3972
714.3135, 603.1226
714.7957, 605.2316
715.2778, 596.5826
715.7599, 586.6544
716.2420, 584.9925
716.7241, 591.2887
717.2062, 596.3128
717.6884, 594.6243
718.1705, 593.1005
718.6526, 597.9832
719.1347, 605.1006
719.6168, 607.6406
720.0989, 605.0416
720.5811, 602.0280
721.0632, 602.0201
721.5453, 604.1653
722.0274, 607.4351
722.5095, 612.1423
722.9916, 611.5086
723.4738, 602.4542
723.9559, 593.5930
724.4380, 590.4717
724.9201, 591.9315
725.4022, 594.4579
725.8843, 598.9974
726.3665, 602.4470
726.8486, 606.8938
727.3307, 607.8392
727.8128, 597.0763
728.2949, 583.0042
728.7770, 581.5293
729.2592, 596.9722
729.7413, 612.6079
730.2234, 613.0316
730.7055, 605.1499
731.1876, 600.2375
731.6697, 598.4659
732.1519, 599.3948
732.6340, 603.0379
733.1161, 606.6359
733.5982, 606.5492
734.0803, 603.1010
734.5624, 603.9398
735.0446, 612.4778
735.5267, 618.3205
736.0088, 617.9196
736.4909, 615.4486
736.9730, 613.4313
737.4551, 611.7849
737.9373, 609.9335
738.4194, 606.7359
738.9015, 605.0077
739.3836, 606.4431
739.8657, 609.6116
740.3478, 614.6571
740.8300, 620.0972
741.3121, 622.1201
741.7942, 618.7911
742.2763, 612.8641
742.7584, 606.0272
743.2405, 599.4283
743.7227, 601.8820
744.2048, 614.6445
744.6869, 625.8687
745.1690, 630.6421
745.6511, 630.4656
746.1332, 626.7393
746.6154, 618.2903
747.0975, 614.0472
747.5796, 616.0900
748.0617, 619.6780
748.5438, 624.7936
749.0259, 630.3785
749.5081, 636.3248
749.9902, 642.0870
750.4723, 645.6986
750.9544, 646.0811
751.4365, 644.3625
751.9186, 638.2237
752.4008, 631.9732
752.8829, 634.9747
753.3650, 646.0970
753.8471, 653.3545
754.3292, 649.0555
754.8113, 639.9199
755.2935, 639.6808
755.7756, 648.5172
756.2577, 655.5664
756.7398, 660.5566
757.2219, 662.2205
757.7040, 657.8472
758.1862, 651.7670
758.6683, 651.6677
759.1504, 659.2627
759.6325, 665.5914
760.1146, 671.5055
760.5967, 675.1230
761.0789, 672.1349
761.5610, 669.0052
762.0431, 674.0536
762.5252, 686.4879
763.0073, 696.6640
763.4894, 697.6029
763.9716, 696.7834
764.4537, 701.7589
764.9358, 710.1821
765.4179, 718.3377
765.9000, 725.2438
766.3821, 728.7195
766.8643, 726.8720
767.3464, 723.6586
767.8285, 727.9816
768.3106, 740.4940
768.7927, 752.8123
769.2748, 764.5674
769.7570, 776.2968
770.2391, 788.1028
770.7212, 800.1621
771.2033, 812.7193
771.6854, 825.6751
772.1675, 839.5821
772.6497, 855.6659
773.1318, 871.1235
773.6139, 883.8427
774.0960, 896.2909
774.5781, 910.7792
775.0602, 927.5293
775.5424, 945.7223
776.0245, 964.1411
776.5066, 985.0465
776.9887, 1012.613
777.4708, 1043.594
777.9529, 1072.621
778.4351, 1098.803
778.9172, 1119.993
779.3993, 1134.574
779.8814, 1149.514
780.3635, 1180.998
780.8456, 1229.955
781.3278, 1264.146
781.8099, 1278.961
782.2920, 1295.066
782.7741, 1321.882
783.2562, 1352.453
783.7383, 1376.803
784.2205, 1394.004
784.7026, 1416.464
785.1847, 1451.558
785.6668, 1481.941
786.1489, 1498.483
786.6310, 1513.335
787.1132, 1539.209
787.5953, 1572.423
788.0774, 1599.218
788.5595, 1614.634
789.0416, 1621.853
789.5237, 1619.190
790.0059, 1612.135
790.4880, 1608.705
790.9701, 1608.006
791.4522, 1604.375
791.9343, 1595.403
792.4164, 1583.853
792.8986, 1574.267
793.3807, 1565.449
793.8628, 1549.501
794.3449, 1525.959
794.8270, 1498.462
795.3091, 1466.539
795.7913, 1435.389
796.2734, 1410.938
796.7555, 1392.219
797.2376, 1371.306
797.7197, 1349.102
798.2018, 1323.084
798.6840, 1288.429
799.1661, 1255.013
799.6482, 1227.475
800.1303, 1205.313
800.6124, 1188.178
801.0945, 1176.819
801.5767, 1165.583
802.0588, 1150.634
802.5409, 1136.282
803.0230, 1128.359
803.5051, 1122.577
803.9872, 1110.220
804.4694, 1090.163
804.9515, 1070.205
805.4336, 1056.927
805.9157, 1047.132
806.3978, 1034.118
806.8799, 1019.038
807.3621, 1009.064
807.8442, 1005.326
808.3263, 1000.428
808.8084, 989.2287
809.2905, 974.4456
809.7726, 961.9617
810.2548, 951.2054
810.7369, 945.9615
811.2190, 948.8161
811.7011, 952.0855
812.1832, 952.7543
812.6653, 952.2958
813.1475, 952.6097
813.6296, 953.6962
814.1117, 954.4622
814.5938, 953.2430
815.0759, 953.7497
815.5580, 958.1168
816.0402, 963.7378
816.5223, 968.6385
817.0044, 972.8080
817.4865, 977.1829
817.9686, 982.4495
818.4507, 986.6146
818.9329, 986.9631
819.4150, 986.0803
819.8971, 985.9423
820.3792, 987.7170
820.8613, 994.9891
821.3434, 1008.657
821.8256, 1023.293
822.3077, 1034.537
822.7898, 1041.468
823.2719, 1036.852
823.7540, 1020.989
824.2361, 1019.839
824.7183, 1041.201
825.2004, 1063.193
825.6825, 1068.665
826.1646, 1063.274
826.6467, 1065.152
827.1288, 1077.878
827.6110, 1088.443
828.0931, 1095.412
828.5752, 1102.202
829.0573, 1110.681
829.5394, 1119.374
830.0215, 1126.147
830.5037, 1130.906
830.9858, 1137.170
831.4679, 1145.958
831.9500, 1155.851
832.4321, 1167.032
832.9142, 1178.573
833.3964, 1188.993
833.8785, 1199.074
834.3606, 1210.802
834.8427, 1224.621
835.3248, 1242.099
835.8069, 1268.690
836.2891, 1297.350
836.7712, 1317.093
837.2533, 1329.850
837.7354, 1341.967
838.2175, 1355.948
838.6996, 1375.042
839.1818, 1403.129
839.6639, 1438.099
840.1460, 1475.458
840.6281, 1514.706
841.1102, 1547.045
841.5923, 1569.876
842.0745, 1590.641
842.5566, 1612.074
843.0387, 1638.509
843.5208, 1682.993
844.0029, 1753.605
844.4850, 1808.992
844.9672, 1836.505
845.4493, 1870.339
845.9314, 1926.198
846.4135, 1991.107
846.8956, 2051.615
847.3777, 2107.984
847.8599, 2166.336
848.3420, 2228.212
848.8241, 2290.715
849.3062, 2349.043
849.7883, 2411.590
850.2704, 2490.108
850.7526, 2576.224
851.2347, 2650.626
851.7168, 2706.837
852.1989, 2764.678
852.6810, 2837.615
853.1631, 2916.474
853.6453, 2988.540
854.1274, 3061.222
854.6095, 3150.976
855.0916, 3258.071
855.5737, 3367.301
856.0558, 3468.371
856.5380, 3561.403
857.0201, 3642.390
857.5022, 3715.453
857.9843, 3795.430
858.4664, 3883.518
858.9485, 3978.137
859.4307, 4079.362
859.9128, 4178.823
860.3949, 4264.841
860.8770, 4337.771
861.3591, 4401.999
861.8412, 4455.199
862.3234, 4511.473
862.8055, 4577.426
863.2876, 4639.262
863.7697, 4685.527
864.2518, 4718.806
864.7339, 4747.309
865.2161, 4764.395
865.6982, 4791.022
866.1803, 4837.284
866.6624, 4881.071
867.1445, 4917.433
867.6266, 4945.985
868.1088, 4960.168
868.5909, 4961.299
869.0730, 4978.128
869.5551, 5039.457
870.0372, 5087.247
870.5193, 5082.218
871.0015, 5071.813
871.4836, 5101.915
871.9657, 5158.635
872.4478, 5200.457
872.9299, 5212.502
873.4120, 5230.089
873.8942, 5281.721
874.3763, 5346.251
874.8584, 5400.699
875.3405, 5452.278
875.8226, 5521.346
876.3047, 5607.313
876.7869, 5683.568
877.2690, 5730.541
877.7511, 5765.326
878.2332, 5818.999
878.7153, 5881.787
879.1974, 5923.315
879.6796, 5942.315
880.1617, 5951.072
880.6438, 5954.595
881.1259, 5950.572
881.6080, 5936.581
882.0901, 5912.531
882.5723, 5879.584
883.0544, 5839.198
883.5365, 5774.492
884.0186, 5680.411
884.5007, 5570.440
884.9828, 5452.035
885.4650, 5325.821
885.9471, 5191.478
886.4292, 5048.192
886.9113, 4902.147
887.3934, 4757.382
887.8755, 4601.187
888.3577, 4423.223
888.8398, 4238.281
889.3219, 4056.699
889.8040, 3879.024
890.2861, 3714.457
890.7682, 3575.699
891.2504, 3430.385
891.7325, 3261.443
892.2146, 3101.076
892.6967, 2971.932
893.1788, 2859.976
893.6609, 2744.593
894.1431, 2622.900
894.6252, 2500.898
895.1073, 2370.720
895.5894, 2253.688
896.0715, 2168.518
896.5536, 2095.150
897.0358, 2010.671
897.5179, 1919.858
898.0000, 1843.757
898.4821, 1790.911
898.9642, 1739.535
899.4464, 1668.666
899.9285, 1594.012
900.4106, 1534.166
900.8927, 1484.257
901.3748, 1431.222
901.8569, 1374.141
902.3391, 1324.742
902.8212, 1291.536
903.3033, 1265.296
903.7854, 1232.516
904.2675, 1195.952
904.7496, 1164.147
905.2318, 1137.265
905.7139, 1112.463
906.1960, 1088.801
906.6781, 1065.147
907.1602, 1040.370
907.6423, 1014.626
908.1245, 986.7661
908.6066, 957.0121
909.0887, 935.8201
909.5708, 925.7962
910.0529, 911.5306
910.5350, 882.7842
911.0172, 851.6867
911.4993, 840.2501
911.9814, 849.1343
912.4635, 845.1159
912.9456, 824.5121
913.4277, 803.0514
913.9099, 781.5525
914.3920, 765.0073
914.8741, 758.9255
915.3562, 759.5299
915.8383, 755.4095
916.3204, 744.0313
916.8026, 735.4141
917.2847, 733.5296
917.7668, 728.6016
918.2489, 714.5541
918.7310, 698.6921
919.2131, 688.3763
919.6953, 682.5952
920.1774, 674.9094
920.6595, 660.3452
921.1416, 651.5001
921.6237, 655.2057
922.1058, 658.8928
922.5880, 657.2831
923.0701, 651.3685
923.5522, 640.6923
924.0343, 625.9771
924.5164, 616.1627
924.9985, 619.0821
925.4807, 620.5418
925.9628, 613.4631
926.4449, 604.1760
926.9270, 596.5043
927.4091, 591.3002
927.8912, 590.1006
928.3734, 593.2884
928.8555, 594.9464
929.3376, 590.2231
929.8197, 584.4234
930.3018, 581.3033
930.7839, 579.7110
931.2661, 578.3816
931.7482, 577.0521
932.2303, 575.6512
932.7124, 574.1073
933.1945, 572.8753
933.6766, 573.2875
934.1588, 573.4998
934.6409, 569.9338
935.1230, 564.6608
935.6051, 563.0633
936.0872, 565.2777
936.5693, 565.7216
937.0515, 560.4794
937.5336, 554.2131
938.0157, 553.3950
938.4978, 556.0771
938.9799, 559.7203
939.4620, 562.9183
939.9442, 559.3416
940.4263, 547.9173
940.9084, 538.2493
941.3905, 539.1415
941.8726, 545.1288
942.3547, 543.7349
942.8369, 537.0948
943.3190, 537.2343
943.8011, 544.4645
944.2832, 549.5383
944.7653, 548.8144
945.2474, 544.9189
945.7296, 539.7333
946.2117, 534.8835
946.6938, 537.9633
947.1759, 548.7899
947.6580, 557.0020
948.1401, 561.4059
948.6223, 560.8757
949.1044, 553.8478
949.5865, 546.1183
950.0686, 546.6891
950.5507, 554.7253
951.0328, 559.2640
951.5150, 560.2888
951.9971, 557.1632
952.4792, 548.2178
952.9613, 540.9033
953.4434, 539.6663
953.9255, 543.2534
954.4077, 550.1914
954.8898, 561.2281
955.3719, 565.9850
955.8540, 561.9031
956.3361, 559.5623
956.8182, 561.9713
957.3004, 565.0502
957.7825, 565.6132
958.2646, 564.8752
958.7467, 566.1564
959.2288, 570.4333
959.7109, 572.7037
960.1931, 573.2236
960.6752, 570.9522
961.1573, 562.7342
961.6394, 555.2944
962.1215, 554.0611
962.6036, 558.1680
963.0858, 564.9017
963.5679, 578.1351
964.0500, 584.2746
964.5321, 577.5445
965.0142, 571.7363
965.4963, 572.3259
965.9785, 574.4473
966.4606, 572.4319
966.9427, 567.6702
967.4248, 567.5772
967.9069, 576.6566
968.3890, 582.3033
968.8712, 581.6187
969.3533, 580.4313
969.8354, 579.2419
970.3175, 579.7741
970.7996, 585.5349
971.2817, 595.4414
971.7639, 601.0423
972.2460, 597.4029
972.7281, 596.1496
973.2102, 603.0438
973.6923, 607.6978
974.1744, 601.1187
974.6566, 592.0071
975.1387, 592.8057
975.6208, 603.0560
976.1029, 608.7588
976.5850, 602.6319
977.0671, 598.5502
977.5493, 600.2465
978.0314, 603.8802
978.5135, 608.5817
978.9956, 613.1029
979.4777, 615.3108
979.9598, 615.2675
980.4420, 616.8635
980.9241, 624.4929
981.4062, 629.1276
981.8883, 624.0175
982.3704, 619.2055
982.8525, 624.4987
983.3347, 633.2591
983.8168, 633.4630
984.2989, 623.8459
984.7810, 616.6998
985.2631, 616.5519
985.7452, 618.6441
986.2274, 621.9827
986.7095, 626.1794
987.1916, 632.3804
987.6737, 638.6279
988.1558, 641.9962
988.6379, 641.9266
989.1201, 639.0091
989.6022, 627.2590
990.0843, 620.8330
990.5664, 632.9660
991.0485, 646.3393
991.5306, 644.2630
992.0128, 633.3508
992.4949, 627.4854
992.9770, 629.4621
993.4591, 633.4305
993.9412, 638.7424
994.4233, 643.2936
994.9055, 646.5779
995.3876, 648.2429
995.8697, 647.1796
996.3518, 644.5418
996.8339, 641.8568
997.3160, 639.5244
997.7982, 639.8665
998.2803, 646.4632
998.7624, 652.7472
999.2445, 654.2232
999.7266, 654.8437
1000.209, 660.3785
1000.691, 667.2469
1001.173, 665.8943
1001.655, 654.2721
1002.137, 647.1717
1002.619, 657.7643
1003.101, 665.9769
1003.584, 656.3175
1004.066, 643.9298
1004.548, 643.9086
1005.030, 651.8613
1005.512, 656.4105
1005.994, 654.9653
1006.476, 653.9726
1006.958, 657.3122
1007.440, 660.4113
1007.923, 662.4684
1008.405, 661.9203
1008.887, 655.1573
1009.369, 645.4651
1009.851, 639.0052
1010.333, 637.1274
1010.815, 638.0519
1011.297, 640.7751
1011.780, 646.4751
1012.262, 661.7692
1012.744, 674.7966
1013.226, 671.3922
1013.708, 659.4118
1014.190, 656.0020
1014.672, 664.4323
1015.154, 669.9507
1015.636, 665.8752
1016.119, 659.2870
1016.601, 650.5241
1017.083, 642.9279
1017.565, 639.1871
1018.047, 638.5283
1018.529, 639.6942
1019.011, 642.4084
1019.493, 645.2211
1019.976, 646.8423
1020.458, 649.5834
1020.940, 658.1790
1021.422, 664.3592
1021.904, 657.7825
1022.386, 646.4864
1022.868, 645.4068
1023.350, 656.1353
1023.832, 663.3815
1024.315, 660.5067
1024.797, 657.0531
1025.279, 655.8720
1025.761, 654.9016
1026.243, 652.3032
1026.725, 649.3173
1027.207, 647.3914
1027.689, 646.7820
1028.172, 648.5879
1028.654, 657.3060
1029.136, 662.1555
1029.618, 659.0205
1030.100, 653.5129
1030.582, 644.7690
1031.064, 637.8481
1031.546, 641.6321
1032.028, 655.4359
1032.510, 663.7688
1032.993, 664.3642
1033.475, 660.0760
1033.957, 644.0803
1034.439, 631.6204
1034.921, 633.1670
1035.403, 639.4094
1035.885, 639.8958
1036.367, 634.8854
1036.850, 629.5166
1037.332, 621.2291
1037.814, 617.1940
1038.296, 621.7038
1038.778, 625.0424
1039.260, 623.3049
1039.742, 619.4976
1040.224, 616.1765
1040.707, 613.2880
1041.189, 610.6204
1041.671, 608.2797
1042.153, 605.9453
1042.635, 603.7162
1043.117, 601.2540
1043.599, 597.8376
1044.081, 595.0777
1044.563, 594.8529
1045.046, 596.2195
1045.528, 596.0622
1046.010, 594.3176
1046.492, 591.1470
1046.974, 585.9158
1047.456, 580.9630
1047.938, 577.0889
1048.420, 573.0349
1048.903, 567.1693
1049.385, 561.3816
1049.867, 560.7990
1050.349, 566.2541
1050.831, 567.3422
1051.313, 563.6152
1051.795, 556.8117
1052.277, 545.7657
1052.760, 539.1783
1053.242, 544.3353
1053.724, 551.9136
1054.206, 543.7191
1054.688, 521.6412
1055.170, 513.8123
1055.652, 520.8729
1056.134, 525.1937
1056.616, 523.9150
1057.099, 521.1963
1057.581, 519.0369
1058.063, 517.8888
1058.545, 519.3832
1059.027, 521.5688
1059.509, 514.5467
1059.991, 500.1570
1060.473, 493.6196
1060.955, 495.9785
1061.438, 498.4709
1061.920, 497.5580
1062.402, 494.4710
1062.884, 489.9363
1063.366, 485.0366
1063.848, 482.9313
1064.330, 482.0613
1064.812, 476.8258
1065.294, 468.1839
1065.777, 461.9142
1066.259, 459.5036
1066.741, 457.7559
1067.223, 454.7026
1067.705, 449.8068
1068.187, 438.6816
1068.669, 427.6113
1069.151, 430.1750
1069.634, 440.6078
1070.116, 444.7400
1070.598, 440.4666
1071.080, 433.7693
1071.562, 427.1649
1072.044, 422.3406
1072.526, 423.2792
1073.008, 424.2371
1073.490, 417.3642
1073.973, 408.0833
1074.455, 405.0361
1074.937, 407.3750
1075.419, 408.2106
1075.901, 404.9551
1076.383, 403.0652
1076.865, 409.0070
1077.347, 412.6753
1077.830, 404.0114
1078.312, 393.9550
1078.794, 394.2585
1079.276, 400.9881
1079.758, 404.4630
1080.240, 402.9535
1080.722, 400.3657
1081.204, 397.6903
1081.687, 394.0631
1082.169, 388.3864
1082.651, 382.6513
1083.133, 377.2247
1083.615, 372.9770
1084.097, 371.5444
1084.579, 372.8394
1085.061, 373.3241
1085.543, 373.5648
1086.026, 371.7299
1086.508, 365.1947
1086.990, 360.6694
1087.472, 361.7305
1087.954, 364.1884
1088.436, 364.0355
1088.918, 361.9640
1089.400, 360.8821
1089.882, 361.7111
1090.365, 359.0418
1090.847, 351.2959
1091.329, 346.0602
1091.811, 345.4402
1092.293, 347.2041
1092.775, 350.2758
1093.257, 353.4177
1093.739, 354.5822
1094.221, 353.6558
1094.704, 347.4544
1095.186, 336.1762
1095.668, 331.2882
1096.150, 334.4398
1096.632, 337.6820
1097.114, 337.2159
1097.596, 333.2481
1098.078, 324.3866
1098.561, 314.4185
1099.043, 313.6544
1099.525, 319.0161
1100.007, 321.5620
1100.489, 320.9394
1100.971, 319.3842
1101.453, 317.7471
1101.935, 316.6746
1102.417, 317.0557
1102.900, 316.9132
1103.382, 311.9605
1103.864, 306.8459
1104.346, 310.1168
1104.828, 316.7437
1105.310, 316.9687
1105.792, 310.5067
1106.274, 303.1963
1106.757, 296.9052
1107.239, 292.6707
1107.721, 292.8094
1108.203, 293.1085
1108.685, 291.0856
1109.167, 287.8246
1109.649, 283.2306
1110.131, 278.7094
1110.614, 277.6314
1111.096, 280.7943
1111.578, 282.0322
1112.060, 278.9691
1112.542, 275.6211
1113.024, 269.8556
1113.506, 267.3269
1113.988, 274.6009
1114.470, 284.0631
1114.953, 286.7435
1115.435, 283.3924
1115.917, 279.8450
1116.399, 276.2643
1116.881, 271.6461
1117.363, 264.5475
1117.845, 260.8591
1118.327, 263.1969
1118.809, 266.9378
1119.292, 268.6849
1119.774, 268.7841
1120.256, 267.6323
1120.738, 265.3506
1121.220, 264.1922
1121.702, 264.1586
1122.184, 266.0072
1122.666, 269.6892
1123.148, 271.4027
1123.631, 269.3075
1124.113, 263.8271
1124.595, 253.7421
1125.077, 242.9638
1125.559, 240.1839
1126.041, 242.3712
1126.523, 241.8395
1127.005, 239.9711
1127.488, 245.0548
1127.970, 257.3339
1128.452, 263.8761
1128.934, 255.0789
1129.416, 245.4251
1129.898, 248.1096
1130.380, 253.7064
1130.862, 254.7047
1131.344, 252.7332
1131.827, 249.2359
1132.309, 245.3639
1132.791, 243.7890
1133.273, 245.6984
1133.755, 245.4493
1134.237, 238.2022
1134.719, 233.1743
1135.201, 235.0275
1135.684, 237.8944
1136.166, 238.5175
1136.648, 237.5916
1137.130, 235.5032
1137.612, 232.5525
1138.094, 232.8701
1138.576, 238.4741
1139.058, 241.4438
1139.541, 240.3824
1140.023, 240.5181
1140.505, 244.4860
1140.987, 246.2691
1141.469, 240.1695
1141.951, 230.8282
1142.433, 228.8431
1142.915, 233.1868
1143.397, 233.3622
1143.880, 229.9010
1144.362, 227.8918
1144.844, 227.9757
1145.326, 228.0652
1145.808, 227.2433
1146.290, 226.4297
1146.772, 226.6217
1147.254, 227.1399
1147.736, 227.9486
1148.219, 227.7968
1148.701, 222.6517
1149.183, 215.6851
1149.665, 215.3974
1150.147, 221.2976
1150.629, 222.6698
1151.111, 213.5215
1151.593, 205.4078
1152.075, 204.3451
1152.558, 205.8138
1153.040, 208.4663
1153.522, 211.4482
1154.004, 214.9356
1154.486, 217.9637
1154.968, 218.2852
1155.450, 215.4732
1155.932, 213.4667
1156.415, 211.0603
1156.897, 212.3458
1157.379, 221.0712
1157.861, 226.4142
1158.343, 223.5179
1158.825, 216.9175
1159.307, 210.1452
1159.789, 204.1498
1160.271, 202.2456
1160.754, 204.3951
1161.236, 206.0619
1161.718, 207.2374
1162.200, 208.2180
1162.682, 209.0296
1163.164, 209.3765
1163.646, 209.1142
1164.128, 207.8064
1164.611, 203.7073
1165.093, 200.0940
1165.575, 204.5637
1166.057, 211.3982
1166.539, 210.1551
1167.021, 203.6644
1167.503, 199.1618
1167.985, 198.2308
1168.468, 200.0616
1168.950, 205.5946
1169.432, 209.0556
1169.914, 205.5023
1170.396, 201.9017
1170.878, 202.2111
1171.360, 203.6531
1171.842, 204.0084
1172.324, 203.5496
1172.807, 203.0232
1173.289, 202.4473
1173.771, 202.1572
1174.253, 202.6152
1174.735, 202.1019
1175.217, 200.0948
1175.699, 198.2707
1176.181, 197.0778
1176.663, 196.6444
1177.146, 196.9944
1177.628, 198.4141
1178.110, 203.1795
1178.592, 209.8351
1179.074, 206.8780
1179.556, 196.8440
1180.038, 192.8531
1180.520, 195.6793
1181.002, 197.9032
1181.485, 196.6634
1181.967, 195.1401
1182.449, 195.7689
1182.931, 197.2996
1183.413, 200.1707
1183.895, 201.7737
1184.377, 197.7134
1184.859, 191.6776
1185.342, 189.4363
1185.824, 190.4628
1186.306, 189.8090
1186.788, 185.6169
1187.270, 183.9849
1187.752, 188.4690
1188.234, 191.9837
1188.716, 192.0840
1189.198, 192.4755
1189.681, 196.2911
1190.163, 199.2231
1190.645, 194.8561
1191.127, 185.8719
1191.609, 185.3246
1192.091, 193.8272
1192.573, 197.2953
1193.055, 195.4326
1193.538, 191.8238
1194.020, 187.4155
1194.502, 183.7624
1194.984, 181.6874
1195.466, 182.4161
1195.948, 190.2543
1196.430, 198.0531
1196.912, 192.9222
1197.395, 182.5521
1197.877, 177.0921
1198.359, 176.0717
1198.841, 176.7040
1199.323, 178.4759
1199.805, 182.7435
1200.287, 192.1047
1200.769, 196.2378
1201.251, 185.0718
1201.734, 177.5628
1202.216, 185.8891
1202.698, 193.9836
1203.180, 190.0922
1203.662, 181.1064
1204.144, 176.4384
1204.626, 175.6971
1205.108, 176.0148
1205.590, 177.5104
1206.073, 179.3584
1206.555, 181.6145
1207.037, 181.5288
1207.519, 178.4693
1208.001, 176.6434
1208.483, 178.6644
1208.965, 182.1577
1209.447, 185.0622
1209.929, 186.7018
1210.412, 184.6864
1210.894, 181.5646
1211.376, 182.4970
1211.858, 185.2803
1212.340, 183.5947
1212.822, 177.5502
1213.304, 174.6456
1213.786, 178.5674
1214.269, 182.0349
1214.751, 183.2307
1215.233, 183.0350
1215.715, 179.2775
1216.197, 177.1574
1216.679, 181.7554
1217.161, 187.7128
1217.643, 187.2175
1218.125, 181.3171
1218.608, 176.5662
1219.090, 172.9637
1219.572, 170.6245
1220.054, 169.5697
1220.536, 171.7811
1221.018, 177.3554
1221.500, 180.2226
1221.982, 176.9457
1222.465, 172.2496
1222.947, 170.4150
1223.429, 170.9622
1223.911, 174.0866
1224.393, 178.5709
1224.875, 184.8290
1225.357, 190.2238
1225.839, 189.3452
1226.322, 183.1310
1226.804, 178.9870
1227.286, 179.0065
1227.768, 179.6355
1228.250, 180.8968
1228.732, 181.7554
1229.214, 181.5416
1229.696, 181.8930
1230.178, 184.2940
1230.661, 186.2472
1231.143, 184.8410
1231.625, 180.8064
1232.107, 175.1324
1232.589, 168.6232
##END=



