##NAMES=Pharmacolite
##RRUFFID=R070517
##IDEAL CHEMISTRY=Ca(As^5+^O_3_OH)&#183;2H_2_O
##LOCALITY=Getchell mine, Adam Peak, Potosi District, Humboldt County, Nevada, USA
##OWNER=RRUFF
##SOURCE=James Shigley
##DESCRIPTION=Spherical aggregates of white acicular crystals
##STATUS=The identification of this mineral has been confirmed only by single crystal X-ray diffraction.
##URL=rruff.info/R070517
146.9522, 2188.331
147.4343, 2256.050
147.9164, 2324.001
148.3985, 2392.379
148.8806, 2457.316
149.3627, 2513.066
149.8449, 2555.816
150.3270, 2589.353
150.8091, 2626.663
151.2912, 2675.561
151.7733, 2715.734
152.2554, 2738.680
152.7376, 2751.658
153.2197, 2765.576
153.7018, 2788.111
154.1839, 2815.021
154.6660, 2825.530
155.1481, 2808.801
155.6303, 2787.440
156.1124, 2758.341
156.5945, 2729.743
157.0766, 2714.810
157.5587, 2724.250
158.0408, 2753.481
158.5230, 2766.668
159.0051, 2733.519
159.4872, 2716.141
159.9693, 2733.000
160.4514, 2762.303
160.9335, 2787.383
161.4157, 2803.322
161.8978, 2810.701
162.3799, 2815.260
162.8620, 2807.688
163.3441, 2807.335
163.8262, 2820.839
164.3084, 2844.397
164.7905, 2872.578
165.2726, 2903.237
165.7547, 2935.846
166.2368, 2951.196
166.7189, 2940.234
167.2011, 2923.505
167.6832, 2892.688
168.1653, 2860.044
168.6474, 2851.086
169.1295, 2888.226
169.6116, 2970.035
170.0938, 3013.029
170.5759, 2983.416
171.0580, 2955.092
171.5401, 2951.576
172.0222, 2967.243
172.5043, 2985.220
172.9865, 2993.216
173.4686, 2991.152
173.9507, 2992.830
174.4328, 2990.437
174.9149, 2998.293
175.3970, 3022.139
175.8792, 3060.287
176.3613, 3109.081
176.8434, 3167.854
177.3255, 3236.559
177.8076, 3291.981
178.2897, 3311.452
178.7719, 3343.080
179.2540, 3408.947
179.7361, 3502.776
180.2182, 3607.746
180.7003, 3715.317
181.1824, 3826.002
181.6646, 3897.740
182.1467, 3930.276
182.6288, 3935.634
183.1109, 3909.243
183.5930, 3858.495
184.0751, 3799.274
184.5573, 3742.475
185.0394, 3688.245
185.5215, 3630.939
186.0036, 3549.483
186.4857, 3485.712
186.9678, 3457.177
187.4500, 3460.089
187.9321, 3482.407
188.4142, 3517.356
188.8963, 3564.609
189.3784, 3617.302
189.8605, 3677.967
190.3427, 3739.749
190.8248, 3816.489
191.3069, 3894.688
191.7890, 3941.952
192.2711, 3936.943
192.7532, 3881.570
193.2354, 3795.406
193.7175, 3666.102
194.1996, 3527.028
194.6817, 3383.222
195.1638, 3239.230
195.6459, 3103.174
196.1281, 2979.787
196.6102, 2869.472
197.0923, 2776.656
197.5744, 2702.105
198.0565, 2639.776
198.5386, 2589.087
199.0207, 2548.733
199.5029, 2517.124
199.9850, 2493.762
200.4671, 2477.681
200.9492, 2462.845
201.4313, 2453.070
201.9134, 2440.229
202.3956, 2420.205
202.8777, 2395.330
203.3598, 2368.813
203.8419, 2341.099
204.3240, 2314.798
204.8061, 2302.389
205.2883, 2311.477
205.7704, 2322.329
206.2525, 2328.853
206.7346, 2333.697
207.2167, 2343.422
207.6988, 2362.144
208.1810, 2385.001
208.6631, 2395.031
209.1452, 2382.593
209.6273, 2371.600
210.1094, 2364.524
210.5915, 2362.251
211.0737, 2366.985
211.5558, 2379.990
212.0379, 2398.847
212.5200, 2417.852
213.0021, 2438.680
213.4842, 2457.047
213.9664, 2468.706
214.4485, 2478.525
214.9306, 2491.187
215.4127, 2507.894
215.8948, 2532.266
216.3769, 2572.565
216.8591, 2631.660
217.3412, 2701.312
217.8233, 2791.049
218.3054, 2886.797
218.7875, 2978.556
219.2696, 3063.828
219.7518, 3130.727
220.2339, 3158.667
220.7160, 3130.942
221.1981, 3093.400
221.6802, 3045.605
222.1623, 2989.264
222.6445, 2922.598
223.1266, 2845.831
223.6087, 2767.975
224.0908, 2700.585
224.5729, 2645.660
225.0550, 2599.324
225.5371, 2556.970
226.0193, 2525.701
226.5014, 2514.281
226.9835, 2522.735
227.4656, 2539.207
227.9477, 2550.431
228.4298, 2553.820
228.9120, 2562.758
229.3941, 2583.707
229.8762, 2604.622
230.3583, 2618.319
230.8404, 2624.306
231.3225, 2625.493
231.8047, 2624.104
232.2868, 2619.600
232.7689, 2616.169
233.2510, 2621.385
233.7331, 2620.670
234.2152, 2603.809
234.6974, 2573.734
235.1795, 2541.850
235.6616, 2517.106
236.1437, 2499.625
236.6258, 2477.399
237.1079, 2449.511
237.5901, 2418.592
238.0722, 2385.825
238.5543, 2350.695
239.0364, 2310.488
239.5185, 2262.124
240.0006, 2208.076
240.4828, 2167.247
240.9649, 2150.857
241.4470, 2135.337
241.9291, 2118.496
242.4112, 2099.400
242.8933, 2075.875
243.3755, 2046.145
243.8576, 2013.971
244.3397, 1992.070
244.8218, 1987.766
245.3039, 1985.846
245.7860, 1986.632
246.2682, 1988.483
246.7503, 1989.994
247.2324, 1990.594
247.7145, 1990.177
248.1966, 1988.456
248.6787, 1984.627
249.1608, 1980.672
249.6430, 1973.855
250.1251, 1968.611
250.6072, 1969.421
251.0893, 1977.006
251.5714, 1987.514
252.0535, 1995.909
252.5357, 2003.521
253.0178, 2005.363
253.4999, 1993.256
253.9820, 1982.320
254.4641, 1981.837
254.9462, 1992.333
255.4284, 2007.944
255.9105, 2022.275
256.3926, 2034.373
256.8747, 2050.491
257.3568, 2079.988
257.8390, 2105.261
258.3211, 2118.246
258.8032, 2120.641
259.2853, 2118.938
259.7674, 2116.272
260.2495, 2113.019
260.7316, 2117.823
261.2137, 2136.885
261.6959, 2157.173
262.1780, 2173.608
262.6601, 2187.911
263.1422, 2203.121
263.6243, 2220.446
264.1064, 2240.295
264.5886, 2265.072
265.0707, 2299.246
265.5528, 2329.596
266.0349, 2348.798
266.5170, 2363.057
266.9991, 2379.633
267.4813, 2401.313
267.9634, 2426.309
268.4455, 2450.973
268.9276, 2474.113
269.4097, 2501.707
269.8918, 2538.004
270.3740, 2578.934
270.8561, 2623.510
271.3382, 2672.539
271.8203, 2719.400
272.3024, 2757.400
272.7845, 2786.539
273.2667, 2813.182
273.7488, 2843.272
274.2309, 2866.251
274.7130, 2869.932
275.1951, 2853.460
275.6772, 2836.596
276.1594, 2833.747
276.6415, 2841.085
277.1236, 2843.133
277.6057, 2833.146
278.0878, 2825.655
278.5699, 2836.847
279.0521, 2863.801
279.5342, 2891.052
280.0163, 2909.657
280.4984, 2926.455
280.9805, 2952.974
281.4626, 2991.092
281.9448, 3032.633
282.4269, 3072.326
282.9090, 3110.153
283.3911, 3147.190
283.8732, 3181.843
284.3553, 3216.850
284.8375, 3256.274
285.3196, 3299.275
285.8017, 3340.567
286.2838, 3379.025
286.7659, 3412.157
287.2480, 3433.133
287.7302, 3444.437
288.2123, 3442.235
288.6944, 3417.671
289.1765, 3378.465
289.6586, 3343.128
290.1407, 3320.429
290.6229, 3302.402
291.1050, 3269.575
291.5871, 3209.536
292.0692, 3157.973
292.5513, 3125.591
293.0334, 3101.396
293.5156, 3072.496
293.9977, 3035.831
294.4798, 2997.205
294.9619, 2964.910
295.4440, 2941.043
295.9261, 2918.007
296.4083, 2885.295
296.8904, 2861.503
297.3725, 2863.799
297.8546, 2888.944
298.3367, 2918.828
298.8188, 2937.678
299.3010, 2945.107
299.7831, 2950.736
300.2652, 2950.155
300.7473, 2952.441
301.2294, 2961.101
301.7115, 2974.445
302.1937, 2988.495
302.6758, 3000.373
303.1579, 3012.562
303.6400, 3036.513
304.1221, 3090.588
304.6042, 3127.295
305.0864, 3126.572
305.5685, 3113.096
306.0506, 3113.469
306.5327, 3136.438
307.0148, 3164.764
307.4969, 3171.104
307.9791, 3149.859
308.4612, 3127.455
308.9433, 3107.911
309.4254, 3087.830
309.9075, 3064.794
310.3896, 3038.954
310.8717, 3012.616
311.3539, 2988.883
311.8360, 2967.277
312.3181, 2941.610
312.8002, 2908.915
313.2823, 2875.745
313.7644, 2843.276
314.2466, 2813.067
314.7287, 2789.521
315.2108, 2777.611
315.6929, 2772.246
316.1750, 2762.468
316.6571, 2746.321
317.1393, 2736.849
317.6214, 2748.116
318.1035, 2768.809
318.5856, 2777.603
319.0677, 2763.316
319.5498, 2749.751
320.0320, 2755.690
320.5141, 2778.083
320.9962, 2804.149
321.4783, 2831.195
321.9604, 2856.950
322.4425, 2875.150
322.9247, 2881.279
323.4068, 2897.038
323.8889, 2938.754
324.3710, 2989.816
324.8531, 3026.220
325.3352, 3043.051
325.8174, 3054.103
326.2995, 3073.532
326.7816, 3102.729
327.2637, 3135.684
327.7458, 3178.112
328.2279, 3219.164
328.7101, 3250.571
329.1922, 3274.331
329.6743, 3299.407
330.1564, 3332.183
330.6385, 3371.550
331.1206, 3407.400
331.6028, 3439.464
332.0849, 3468.826
332.5670, 3492.059
333.0491, 3514.100
333.5312, 3541.487
334.0133, 3576.596
334.4955, 3616.363
334.9776, 3654.942
335.4597, 3690.959
335.9418, 3728.634
336.4239, 3767.764
336.9060, 3808.912
337.3882, 3851.874
337.8703, 3896.910
338.3524, 3945.093
338.8345, 3999.646
339.3166, 4060.777
339.7987, 4114.294
340.2809, 4159.732
340.7630, 4197.291
341.2451, 4225.623
341.7272, 4247.273
342.2093, 4267.873
342.6914, 4295.452
343.1736, 4317.795
343.6557, 4306.877
344.1378, 4256.266
344.6199, 4210.901
345.1020, 4191.019
345.5841, 4185.536
346.0663, 4181.018
346.5484, 4176.055
347.0305, 4172.973
347.5126, 4173.497
347.9947, 4177.216
348.4768, 4180.315
348.9590, 4178.507
349.4411, 4184.798
349.9232, 4217.904
350.4053, 4276.753
350.8874, 4344.263
351.3695, 4425.747
351.8517, 4509.069
352.3338, 4591.053
352.8159, 4668.447
353.2980, 4727.566
353.7801, 4761.265
354.2622, 4768.372
354.7444, 4729.427
355.2265, 4621.995
355.7086, 4504.425
356.1907, 4391.696
356.6728, 4279.821
357.1549, 4156.580
357.6371, 4016.826
358.1192, 3879.579
358.6013, 3784.796
359.0834, 3762.350
359.5655, 3729.230
360.0476, 3674.854
360.5297, 3619.713
361.0118, 3577.687
361.4940, 3548.793
361.9761, 3524.249
362.4582, 3497.199
362.9403, 3467.684
363.4224, 3434.329
363.9045, 3389.456
364.3867, 3351.554
364.8688, 3328.186
365.3509, 3314.831
365.8330, 3305.913
366.3151, 3300.771
366.7972, 3295.394
367.2794, 3282.791
367.7615, 3262.142
368.2436, 3242.509
368.7257, 3229.882
369.2078, 3216.239
369.6899, 3191.802
370.1721, 3155.578
370.6542, 3120.574
371.1363, 3095.924
371.6184, 3077.041
372.1005, 3055.925
372.5826, 3031.948
373.0648, 3002.802
373.5469, 2964.346
374.0290, 2917.309
374.5111, 2873.379
374.9932, 2833.357
375.4753, 2796.345
375.9575, 2764.491
376.4396, 2735.239
376.9217, 2700.010
377.4038, 2653.705
377.8859, 2602.730
378.3680, 2563.950
378.8502, 2551.242
379.3323, 2532.310
379.8144, 2501.625
380.2965, 2467.816
380.7786, 2436.677
381.2607, 2409.820
381.7429, 2388.274
382.2250, 2375.169
382.7071, 2371.932
383.1892, 2357.621
383.6713, 2316.280
384.1534, 2280.297
384.6356, 2261.539
385.1177, 2253.749
385.5998, 2246.697
386.0819, 2235.867
386.5640, 2222.531
387.0461, 2208.794
387.5283, 2194.585
388.0104, 2180.243
388.4925, 2165.043
388.9746, 2150.403
389.4567, 2136.714
389.9388, 2124.039
390.4210, 2114.234
390.9031, 2110.820
391.3852, 2110.652
391.8673, 2105.779
392.3494, 2094.552
392.8315, 2083.556
393.3137, 2078.278
393.7958, 2077.877
394.2779, 2076.552
394.7600, 2069.974
395.2421, 2066.466
395.7242, 2074.927
396.2064, 2089.824
396.6885, 2097.734
397.1706, 2092.941
397.6527, 2080.905
398.1348, 2071.974
398.6169, 2068.722
399.0991, 2063.862
399.5812, 2053.874
400.0633, 2045.083
400.5454, 2045.122
401.0275, 2051.635
401.5096, 2053.426
401.9918, 2039.512
402.4739, 2012.532
402.9560, 1998.938
403.4381, 2008.781
403.9202, 2018.306
404.4023, 2023.942
404.8845, 2025.374
405.3666, 2021.618
405.8487, 2012.164
406.3308, 2000.312
406.8129, 1988.458
407.2950, 1976.697
407.7772, 1969.543
408.2592, 1968.999
408.7414, 1971.708
409.2235, 1976.423
409.7056, 1982.373
410.1877, 1985.748
410.6698, 1979.103
411.1519, 1973.094
411.6341, 1985.442
412.1162, 2013.813
412.5983, 2031.418
413.0804, 2021.737
413.5625, 1994.136
414.0446, 1977.138
414.5268, 1979.311
415.0089, 1974.804
415.4910, 1952.971
415.9731, 1925.193
416.4552, 1904.735
416.9373, 1893.134
417.4195, 1881.583
417.9016, 1860.615
418.3837, 1829.226
418.8658, 1801.078
419.3479, 1778.301
419.8300, 1756.546
420.3122, 1733.555
420.7943, 1711.285
421.2764, 1693.221
421.7585, 1680.981
422.2406, 1671.520
422.7227, 1660.146
423.2049, 1646.687
423.6870, 1632.323
424.1691, 1613.998
424.6512, 1598.211
425.1333, 1592.043
425.6154, 1593.587
426.0976, 1591.356
426.5797, 1575.039
427.0618, 1553.876
427.5439, 1542.310
428.0260, 1540.631
428.5081, 1540.810
428.9903, 1537.958
429.4724, 1534.444
429.9545, 1537.573
430.4366, 1552.679
430.9187, 1563.684
431.4008, 1562.373
431.8830, 1556.579
432.3651, 1554.753
432.8472, 1558.760
433.3293, 1567.329
433.8114, 1579.750
434.2935, 1596.460
434.7757, 1611.391
435.2578, 1627.770
435.7399, 1638.669
436.2220, 1636.322
436.7041, 1629.390
437.1862, 1629.568
437.6684, 1641.542
438.1505, 1660.786
438.6326, 1682.767
439.1147, 1708.545
439.5968, 1726.903
440.0789, 1730.884
440.5611, 1732.717
441.0432, 1738.911
441.5253, 1749.671
442.0074, 1765.442
442.4895, 1792.297
442.9716, 1820.758
443.4538, 1835.085
443.9359, 1836.801
444.4180, 1846.616
444.9001, 1877.232
445.3822, 1917.839
445.8643, 1943.632
446.3465, 1949.303
446.8286, 1956.842
447.3107, 1974.433
447.7928, 1992.417
448.2749, 2002.900
448.7570, 2004.817
449.2392, 1999.237
449.7213, 1985.941
450.2034, 1966.021
450.6855, 1950.704
451.1676, 1948.895
451.6497, 1939.599
452.1319, 1913.871
452.6140, 1882.540
453.0961, 1857.541
453.5782, 1841.391
454.0603, 1824.959
454.5424, 1796.391
455.0246, 1757.184
455.5067, 1725.058
455.9888, 1703.027
456.4709, 1684.306
456.9530, 1669.368
457.4351, 1654.007
457.9172, 1627.760
458.3994, 1576.259
458.8815, 1529.598
459.3636, 1514.912
459.8457, 1521.184
460.3278, 1519.367
460.8099, 1500.052
461.2921, 1474.844
461.7742, 1459.230
462.2563, 1456.245
462.7384, 1450.824
463.2205, 1443.720
463.7026, 1433.718
464.1848, 1415.393
464.6669, 1394.461
465.1490, 1382.621
465.6311, 1386.490
466.1132, 1397.908
466.5953, 1398.776
467.0775, 1385.540
467.5596, 1374.066
468.0417, 1367.943
468.5238, 1362.813
469.0059, 1357.168
469.4880, 1350.570
469.9702, 1341.868
470.4523, 1327.122
470.9344, 1311.631
471.4165, 1303.635
471.8986, 1303.068
472.3807, 1306.803
472.8629, 1315.809
473.3450, 1325.924
473.8271, 1327.756
474.3092, 1319.652
474.7913, 1310.848
475.2734, 1298.513
475.7556, 1289.207
476.2377, 1291.074
476.7198, 1302.559
477.2019, 1314.817
477.6840, 1321.827
478.1661, 1324.020
478.6483, 1323.227
479.1304, 1315.622
479.6125, 1311.302
480.0946, 1311.862
480.5767, 1315.606
481.0588, 1322.848
481.5410, 1332.773
482.0231, 1341.185
482.5052, 1342.651
482.9873, 1339.868
483.4694, 1343.004
483.9515, 1353.652
484.4337, 1363.386
484.9158, 1367.341
485.3979, 1367.629
485.8800, 1368.445
486.3621, 1367.672
486.8442, 1372.493
487.3264, 1391.937
487.8085, 1415.462
488.2906, 1429.065
488.7727, 1431.173
489.2548, 1429.548
489.7369, 1430.046
490.2191, 1432.832
490.7012, 1440.564
491.1833, 1467.904
491.6654, 1481.999
492.1475, 1470.202
492.6296, 1447.979
493.1118, 1428.421
493.5939, 1414.945
494.0760, 1407.262
494.5581, 1410.331
495.0402, 1421.021
495.5223, 1415.591
496.0045, 1387.137
496.4866, 1360.513
496.9687, 1353.490
497.4508, 1356.847
497.9329, 1353.655
498.4150, 1340.488
498.8972, 1325.013
499.3793, 1307.672
499.8614, 1291.602
500.3435, 1282.897
500.8256, 1282.216
501.3077, 1283.320
501.7899, 1280.526
502.2720, 1273.990
502.7541, 1269.129
503.2362, 1268.361
503.7183, 1266.367
504.2004, 1261.100
504.6826, 1254.846
505.1647, 1249.848
505.6468, 1246.630
506.1289, 1244.568
506.6110, 1244.120
507.0931, 1244.741
507.5752, 1241.350
508.0573, 1231.755
508.5395, 1223.989
509.0216, 1224.137
509.5037, 1228.525
509.9858, 1230.752
510.4679, 1230.227
510.9500, 1227.759
511.4322, 1221.381
511.9143, 1214.273
512.3964, 1211.562
512.8785, 1213.779
513.3607, 1217.282
513.8428, 1219.066
514.3249, 1219.280
514.8070, 1219.649
515.2891, 1222.697
515.7712, 1222.543
516.2534, 1214.814
516.7355, 1205.897
517.2176, 1203.083
517.6997, 1206.771
518.1818, 1209.390
518.6639, 1200.824
519.1461, 1185.299
519.6282, 1181.028
520.1103, 1190.415
520.5924, 1201.062
521.0745, 1207.932
521.5566, 1211.705
522.0388, 1213.818
522.5209, 1213.190
523.0030, 1214.048
523.4851, 1222.770
523.9672, 1230.553
524.4493, 1223.799
524.9315, 1204.691
525.4136, 1190.850
525.8957, 1195.413
526.3778, 1213.703
526.8599, 1225.516
527.3420, 1226.608
527.8242, 1228.632
528.3063, 1235.535
528.7884, 1241.598
529.2705, 1241.825
529.7526, 1236.906
530.2347, 1232.274
530.7169, 1231.077
531.1990, 1232.486
531.6810, 1236.640
532.1631, 1243.481
532.6453, 1245.443
533.1274, 1237.681
533.6095, 1226.255
534.0916, 1220.852
534.5737, 1221.712
535.0558, 1226.183
535.5380, 1238.366
536.0201, 1250.175
536.5022, 1255.707
536.9843, 1256.533
537.4664, 1257.660
537.9485, 1261.679
538.4307, 1265.763
538.9128, 1263.672
539.3949, 1253.654
539.8770, 1244.920
540.3591, 1237.378
540.8412, 1232.164
541.3234, 1230.257
541.8055, 1230.968
542.2876, 1232.709
542.7697, 1235.707
543.2518, 1238.463
543.7339, 1238.616
544.2161, 1237.449
544.6982, 1239.981
545.1803, 1247.851
545.6624, 1253.854
546.1445, 1249.034
546.6266, 1232.272
547.1088, 1223.809
547.5909, 1229.321
548.0730, 1235.398
548.5551, 1243.367
549.0372, 1247.839
549.5193, 1241.004
550.0015, 1221.819
550.4836, 1199.875
550.9657, 1180.220
551.4478, 1164.807
551.9299, 1169.680
552.4120, 1202.078
552.8942, 1228.654
553.3763, 1229.346
553.8584, 1215.069
554.3405, 1208.557
554.8226, 1213.072
555.3047, 1215.325
555.7869, 1210.592
556.2690, 1202.139
556.7511, 1190.660
557.2332, 1177.992
557.7153, 1169.944
558.1974, 1170.585
558.6796, 1176.605
559.1617, 1178.096
559.6438, 1173.515
560.1259, 1168.311
560.6080, 1159.078
561.0901, 1152.866
561.5723, 1156.432
562.0544, 1166.650
562.5365, 1173.212
563.0186, 1170.480
563.5007, 1163.782
563.9828, 1157.589
564.4650, 1152.161
564.9471, 1149.063
565.4292, 1149.073
565.9113, 1148.950
566.3934, 1144.042
566.8755, 1133.225
567.3577, 1130.415
567.8398, 1142.979
568.3219, 1153.682
568.8040, 1156.863
569.2861, 1156.072
569.7682, 1154.966
570.2504, 1154.697
570.7325, 1155.581
571.2146, 1160.757
571.6967, 1167.967
572.1788, 1163.070
572.6609, 1142.042
573.1431, 1128.154
573.6252, 1138.249
574.1073, 1158.195
574.5894, 1159.920
575.0715, 1138.459
575.5536, 1118.956
576.0358, 1104.094
576.5179, 1095.535
577.0000, 1096.734
577.4821, 1105.581
577.9642, 1117.934
578.4464, 1132.101
578.9285, 1143.537
579.4106, 1139.217
579.8927, 1112.653
580.3748, 1101.282
580.8569, 1118.379
581.3391, 1138.613
581.8212, 1148.807
582.3033, 1151.050
582.7854, 1149.801
583.2675, 1145.552
583.7496, 1139.214
584.2318, 1127.297
584.7139, 1114.910
585.1960, 1113.524
585.6781, 1124.377
586.1602, 1136.691
586.6423, 1141.224
587.1245, 1139.003
587.6066, 1138.210
588.0887, 1142.488
588.5708, 1142.314
589.0529, 1131.441
589.5350, 1120.065
590.0172, 1115.377
590.4993, 1117.620
590.9814, 1123.568
591.4635, 1133.794
591.9456, 1144.744
592.4277, 1152.075
592.9099, 1155.787
593.3920, 1155.580
593.8741, 1151.067
594.3562, 1143.415
594.8383, 1132.478
595.3204, 1116.336
595.8026, 1111.844
596.2847, 1128.948
596.7668, 1144.405
597.2489, 1148.918
597.7310, 1148.960
598.2131, 1154.529
598.6953, 1167.126
599.1774, 1176.493
599.6595, 1169.205
600.1416, 1150.754
600.6237, 1142.053
601.1058, 1144.182
601.5880, 1148.171
602.0701, 1150.772
602.5522, 1152.366
603.0343, 1153.119
603.5164, 1152.171
603.9985, 1154.012
604.4807, 1162.282
604.9628, 1170.414
605.4449, 1173.174
605.9270, 1173.121
606.4091, 1176.377
606.8912, 1185.362
607.3734, 1194.892
607.8555, 1196.147
608.3376, 1189.476
608.8197, 1188.860
609.3018, 1197.953
609.7839, 1205.303
610.2661, 1203.356
610.7482, 1195.859
611.2303, 1190.580
611.7124, 1187.918
612.1945, 1186.781
612.6766, 1188.949
613.1588, 1190.933
613.6409, 1186.784
614.1230, 1179.300
614.6051, 1178.900
615.0872, 1191.879
615.5693, 1210.171
616.0515, 1216.862
616.5336, 1209.881
617.0157, 1205.133
617.4978, 1203.919
617.9799, 1205.157
618.4620, 1211.005
618.9442, 1218.321
619.4263, 1220.284
619.9084, 1213.230
620.3905, 1206.223
620.8726, 1205.997
621.3547, 1206.695
621.8369, 1198.567
622.3190, 1182.937
622.8011, 1172.060
623.2832, 1174.966
623.7653, 1185.134
624.2474, 1182.682
624.7296, 1162.206
625.2117, 1147.781
625.6938, 1144.829
626.1759, 1145.688
626.6580, 1147.528
627.1401, 1149.272
627.6223, 1147.702
628.1044, 1138.657
628.5865, 1131.984
629.0686, 1139.194
629.5507, 1150.064
630.0328, 1146.225
630.5149, 1126.991
630.9970, 1108.188
631.4791, 1101.747
631.9612, 1104.917
632.4434, 1107.366
632.9255, 1108.796
633.4076, 1110.314
633.8897, 1113.743
634.3718, 1115.632
634.8539, 1112.837
635.3361, 1106.676
635.8182, 1101.356
636.3003, 1097.370
636.7824, 1095.588
637.2645, 1097.649
637.7466, 1101.970
638.2288, 1106.355
638.7109, 1110.221
639.1930, 1113.156
639.6751, 1114.919
640.1572, 1115.360
640.6393, 1113.078
641.1215, 1104.635
641.6036, 1101.882
642.0857, 1113.951
642.5678, 1125.545
643.0499, 1125.037
643.5320, 1115.774
644.0142, 1110.072
644.4963, 1112.736
644.9784, 1118.428
645.4605, 1123.931
645.9426, 1129.829
646.4247, 1139.613
646.9069, 1152.623
647.3890, 1158.979
647.8711, 1149.156
648.3532, 1128.494
648.8353, 1122.009
649.3174, 1136.878
649.7996, 1146.581
650.2817, 1140.437
650.7638, 1134.473
651.2459, 1141.536
651.7280, 1157.528
652.2101, 1168.327
652.6923, 1165.914
653.1744, 1163.392
653.6565, 1169.390
654.1386, 1180.106
654.6207, 1191.490
655.1028, 1202.048
655.5850, 1208.361
656.0671, 1207.030
656.5492, 1201.299
657.0313, 1203.099
657.5134, 1215.433
657.9955, 1225.004
658.4777, 1228.208
658.9598, 1230.242
659.4419, 1233.572
659.9240, 1238.547
660.4061, 1246.331
660.8882, 1257.692
661.3704, 1270.950
661.8525, 1289.303
662.3346, 1306.873
662.8167, 1313.063
663.2988, 1309.699
663.7809, 1310.552
664.2631, 1325.352
664.7452, 1347.826
665.2273, 1361.963
665.7094, 1366.374
666.1915, 1372.110
666.6736, 1382.756
667.1558, 1391.156
667.6379, 1386.932
668.1200, 1377.146
668.6021, 1380.467
669.0842, 1407.753
669.5663, 1430.031
670.0485, 1436.827
670.5306, 1435.320
671.0127, 1429.668
671.4948, 1421.769
671.9769, 1413.329
672.4590, 1405.019
672.9412, 1399.401
673.4233, 1404.253
673.9054, 1419.071
674.3875, 1421.256
674.8696, 1404.181
675.3517, 1389.257
675.8339, 1391.528
676.3160, 1404.062
676.7981, 1407.406
677.2802, 1395.734
677.7623, 1390.249
678.2444, 1397.995
678.7266, 1408.763
679.2087, 1417.956
679.6908, 1424.813
680.1729, 1428.194
680.6550, 1427.600
681.1371, 1427.149
681.6193, 1430.353
682.1014, 1437.480
682.5835, 1451.032
683.0656, 1471.515
683.5477, 1492.225
684.0298, 1510.996
684.5120, 1526.261
684.9941, 1533.873
685.4762, 1528.500
685.9583, 1533.159
686.4404, 1554.625
686.9225, 1577.476
687.4047, 1594.324
687.8868, 1610.391
688.3689, 1634.440
688.8510, 1667.753
689.3331, 1699.134
689.8152, 1717.426
690.2974, 1730.905
690.7795, 1749.729
691.2616, 1774.880
691.7437, 1811.367
692.2258, 1861.664
692.7079, 1917.789
693.1901, 1970.720
693.6722, 2020.198
694.1543, 2070.679
694.6364, 2123.343
695.1185, 2175.222
695.6006, 2220.846
696.0828, 2268.855
696.5649, 2327.851
697.0470, 2397.109
697.5291, 2467.163
698.0112, 2533.937
698.4933, 2600.919
698.9755, 2670.692
699.4576, 2742.373
699.9397, 2813.200
700.4218, 2883.146
700.9039, 2956.043
701.3860, 3036.082
701.8682, 3119.421
702.3503, 3194.838
702.8324, 3261.146
703.3145, 3326.377
703.7966, 3394.923
704.2787, 3458.100
704.7609, 3508.799
705.2430, 3548.485
705.7251, 3583.137
706.2072, 3610.945
706.6893, 3636.862
707.1714, 3669.407
707.6536, 3694.520
708.1357, 3702.299
708.6178, 3692.456
709.0999, 3666.894
709.5820, 3625.785
710.0641, 3573.523
710.5463, 3512.876
711.0284, 3445.606
711.5105, 3377.871
711.9926, 3310.248
712.4747, 3242.166
712.9568, 3172.958
713.4390, 3104.413
713.9211, 3040.208
714.4032, 2984.215
714.8853, 2919.950
715.3674, 2838.696
715.8495, 2759.616
716.3317, 2686.459
716.8138, 2619.811
717.2959, 2562.512
717.7780, 2514.285
718.2601, 2462.347
718.7422, 2392.628
719.2244, 2321.055
719.7065, 2266.238
720.1886, 2223.436
720.6707, 2178.554
721.1528, 2127.753
721.6349, 2077.382
722.1171, 2034.506
722.5992, 1997.505
723.0813, 1955.904
723.5634, 1907.959
724.0455, 1862.229
724.5276, 1820.490
725.0098, 1781.304
725.4919, 1742.824
725.9740, 1705.558
726.4561, 1671.344
726.9382, 1645.729
727.4203, 1615.852
727.9025, 1571.219
728.3846, 1526.223
728.8667, 1495.637
729.3488, 1476.332
729.8309, 1455.137
730.3130, 1425.142
730.7951, 1393.030
731.2772, 1366.829
731.7593, 1345.761
732.2415, 1326.283
732.7236, 1308.096
733.2057, 1294.833
733.6878, 1289.624
734.1699, 1287.589
734.6520, 1279.391
735.1342, 1264.356
735.6163, 1245.393
736.0984, 1213.655
736.5805, 1188.831
737.0626, 1178.660
737.5447, 1176.911
738.0269, 1179.734
738.5090, 1186.064
738.9911, 1185.635
739.4732, 1167.597
739.9553, 1147.422
740.4374, 1137.167
740.9196, 1133.483
741.4017, 1130.279
741.8838, 1126.207
742.3659, 1123.338
742.8480, 1124.168
743.3301, 1126.296
743.8123, 1120.894
744.2944, 1107.309
744.7765, 1102.010
745.2586, 1112.349
745.7407, 1118.091
746.2228, 1099.468
746.7050, 1064.746
747.1871, 1048.044
747.6692, 1065.384
748.1513, 1074.347
748.6334, 1069.472
749.1155, 1060.073
749.5977, 1046.521
750.0798, 1033.486
750.5619, 1029.153
751.0440, 1036.245
751.5261, 1044.500
752.0082, 1046.678
752.4904, 1045.956
752.9725, 1047.581
753.4546, 1050.236
753.9367, 1047.192
754.4188, 1036.440
754.9009, 1026.778
755.3831, 1029.980
755.8652, 1043.722
756.3473, 1046.460
756.8294, 1035.020
757.3115, 1025.781
757.7936, 1023.543
758.2758, 1023.735
758.7579, 1021.607
759.2400, 1017.821
759.7221, 1017.909
760.2042, 1029.021
760.6863, 1034.157
761.1685, 1025.319
761.6506, 1013.932
762.1327, 1008.205
762.6148, 1007.122
763.0969, 1006.625
763.5790, 1005.415
764.0612, 1002.828
764.5433, 996.7001
765.0254, 989.5388
765.5075, 985.5038
765.9896, 984.7310
766.4717, 986.8577
766.9539, 991.8719
767.4360, 996.8817
767.9181, 997.6500
768.4002, 994.2947
768.8823, 991.9786
769.3644, 989.9330
769.8466, 991.6241
770.3287, 1000.885
770.8108, 1010.931
771.2929, 1013.257
771.7750, 1008.900
772.2571, 1009.173
772.7393, 1020.672
773.2214, 1028.541
773.7035, 1027.645
774.1856, 1023.339
774.6677, 1018.124
775.1498, 1013.401
775.6320, 1011.433
776.1141, 1013.526
776.5962, 1016.567
777.0783, 1017.599
777.5604, 1017.767
778.0425, 1019.229
778.5247, 1021.846
779.0068, 1024.387
779.4889, 1026.360
779.9710, 1027.484
780.4531, 1027.156
780.9352, 1025.483
781.4174, 1024.290
781.8995, 1023.086
782.3816, 1024.302
782.8637, 1028.843
783.3458, 1035.876
783.8279, 1046.475
784.3101, 1060.023
784.7922, 1066.712
785.2743, 1061.988
785.7564, 1056.931
786.2385, 1049.988
786.7206, 1046.093
787.2028, 1049.343
787.6849, 1058.326
788.1670, 1070.555
788.6491, 1086.379
789.1312, 1098.431
789.6133, 1099.390
790.0955, 1094.745
790.5776, 1089.702
791.0597, 1085.445
791.5418, 1083.716
792.0239, 1085.142
792.5060, 1089.538
792.9882, 1097.108
793.4703, 1107.342
793.9524, 1119.278
794.4345, 1133.502
794.9166, 1140.546
795.3987, 1135.695
795.8809, 1130.404
796.3630, 1135.072
796.8451, 1147.983
797.3272, 1159.095
797.8093, 1170.201
798.2914, 1176.310
798.7736, 1167.933
799.2557, 1164.663
799.7378, 1183.828
800.2199, 1211.834
800.7020, 1224.136
801.1841, 1214.545
801.6663, 1204.864
802.1484, 1202.922
802.6305, 1205.749
803.1126, 1215.171
803.5947, 1226.178
804.0768, 1228.359
804.5590, 1221.187
805.0411, 1216.938
805.5232, 1225.973
806.0053, 1242.578
806.4874, 1257.105
806.9695, 1270.004
807.4517, 1284.560
807.9338, 1301.312
808.4159, 1314.975
808.8980, 1321.600
809.3801, 1324.106
809.8622, 1330.315
810.3444, 1342.569
810.8265, 1347.446
811.3086, 1338.362
811.7907, 1334.784
812.2728, 1350.000
812.7549, 1370.968
813.2371, 1378.027
813.7192, 1370.440
814.2013, 1371.913
814.6834, 1393.135
815.1655, 1412.617
815.6476, 1419.980
816.1298, 1425.854
816.6119, 1441.571
817.0940, 1464.763
817.5761, 1484.684
818.0582, 1496.602
818.5403, 1505.354
819.0225, 1510.580
819.5046, 1517.332
819.9867, 1534.714
820.4688, 1560.164
820.9509, 1584.668
821.4330, 1604.616
821.9152, 1621.078
822.3973, 1634.553
822.8794, 1645.708
823.3615, 1655.955
823.8436, 1665.346
824.3257, 1679.585
824.8079, 1700.956
825.2900, 1723.556
825.7721, 1742.551
826.2542, 1758.431
826.7363, 1772.874
827.2184, 1784.565
827.7006, 1797.795
828.1826, 1810.350
828.6647, 1827.646
829.1469, 1856.874
829.6290, 1890.392
830.1111, 1916.199
830.5932, 1932.328
831.0753, 1951.432
831.5574, 1976.189
832.0396, 2003.841
832.5217, 2037.790
833.0038, 2070.839
833.4859, 2094.973
833.9680, 2109.980
834.4501, 2119.326
834.9323, 2120.501
835.4144, 2126.092
835.8965, 2153.847
836.3786, 2189.796
836.8607, 2210.601
837.3428, 2218.214
837.8250, 2228.645
838.3071, 2248.800
838.7892, 2271.329
839.2713, 2284.705
839.7534, 2292.754
840.2355, 2312.533
840.7177, 2344.142
841.1998, 2385.747
841.6819, 2439.523
842.1640, 2486.249
842.6461, 2505.239
843.1282, 2505.610
843.6104, 2530.383
844.0925, 2591.958
844.5746, 2640.450
845.0567, 2658.121
845.5388, 2685.531
846.0209, 2750.123
846.5031, 2833.382
846.9852, 2903.401
847.4673, 2956.766
847.9494, 3019.722
848.4315, 3100.431
848.9136, 3183.569
849.3958, 3257.074
849.8779, 3336.024
850.3600, 3437.373
850.8421, 3557.885
851.3242, 3681.649
851.8063, 3804.864
852.2885, 3923.460
852.7706, 4032.266
853.2527, 4137.104
853.7348, 4244.246
854.2169, 4352.365
854.6990, 4457.260
855.1812, 4557.824
855.6633, 4657.084
856.1454, 4756.121
856.6275, 4857.348
857.1096, 4965.153
857.5917, 5078.602
858.0739, 5197.474
858.5560, 5320.871
859.0381, 5439.711
859.5202, 5547.593
860.0023, 5644.466
860.4844, 5731.281
860.9666, 5808.335
861.4487, 5871.853
861.9308, 5926.167
862.4129, 5949.855
862.8950, 5937.554
863.3771, 5884.538
863.8593, 5782.428
864.3414, 5631.928
864.8235, 5451.941
865.3056, 5220.197
865.7877, 4997.748
866.2698, 4794.003
866.7520, 4600.101
867.2341, 4413.542
867.7162, 4233.119
868.1983, 4055.710
868.6804, 3880.834
869.1625, 3709.833
869.6447, 3537.392
870.1268, 3375.294
870.6089, 3229.663
871.0910, 3097.323
871.5731, 2975.023
872.0552, 2861.897
872.5374, 2760.685
873.0195, 2674.529
873.5016, 2597.894
873.9837, 2532.891
874.4658, 2471.327
874.9479, 2403.084
875.4301, 2329.696
875.9122, 2256.889
876.3943, 2187.344
876.8764, 2121.606
877.3585, 2059.889
877.8406, 2003.021
878.3228, 1954.991
878.8049, 1913.611
879.2870, 1869.425
879.7691, 1820.616
880.2512, 1773.023
880.7333, 1730.088
881.2155, 1693.590
881.6976, 1667.553
882.1797, 1651.839
882.6618, 1642.641
883.1439, 1640.668
883.6260, 1638.603
884.1082, 1633.628
884.5903, 1627.384
885.0724, 1621.739
885.5545, 1616.658
886.0366, 1611.466
886.5187, 1605.925
887.0009, 1601.065
887.4830, 1599.738
887.9651, 1595.049
888.4472, 1579.527
888.9293, 1559.150
889.4114, 1547.663
889.8936, 1548.717
890.3757, 1543.272
890.8578, 1531.119
891.3399, 1511.827
891.8220, 1475.724
892.3041, 1439.837
892.7863, 1420.985
893.2684, 1416.296
893.7505, 1411.461
894.2326, 1404.469
894.7147, 1393.728
895.1968, 1377.117
895.6790, 1358.002
896.1611, 1337.596
896.6432, 1316.853
897.1253, 1297.055
897.6074, 1278.398
898.0895, 1259.936
898.5717, 1238.343
899.0538, 1219.972
899.5359, 1214.469
900.0180, 1213.608
900.5001, 1204.831
900.9822, 1188.684
901.4644, 1171.414
901.9465, 1155.846
902.4286, 1144.948
902.9107, 1145.990
903.3928, 1152.134
903.8749, 1147.686
904.3571, 1135.469
904.8392, 1128.570
905.3213, 1129.022
905.8034, 1124.698
906.2855, 1106.198
906.7676, 1080.476
907.2498, 1060.584
907.7319, 1046.337
908.2140, 1036.295
908.6961, 1030.489
909.1782, 1025.182
909.6603, 1018.819
910.1425, 1013.798
910.6246, 1013.631
911.1067, 1016.685
911.5888, 1012.136
912.0709, 997.7507
912.5530, 986.8688
913.0352, 981.3254
913.5173, 978.8180
913.9994, 979.7659
914.4815, 980.9775
914.9636, 976.3237
915.4457, 964.6650
915.9279, 958.0918
916.4100, 961.1906
916.8921, 961.0461
917.3742, 951.5028
917.8563, 942.1697
918.3384, 941.1860
918.8206, 945.4328
919.3027, 947.1201
919.7848, 947.3481
920.2669, 941.6514
920.7490, 920.9432
921.2311, 905.1732
921.7133, 905.0624
922.1954, 910.2230
922.6775, 911.0408
923.1596, 907.5575
923.6417, 903.6697
924.1238, 899.0325
924.6060, 896.4554
925.0881, 900.3741
925.5702, 903.0069
926.0523, 898.7750
926.5344, 890.0258
927.0165, 878.5078
927.4986, 865.5313
927.9807, 857.9397
928.4628, 861.2751
928.9449, 867.8730
929.4271, 877.5334
929.9092, 884.4771
930.3913, 881.7254
930.8734, 870.9614
931.3555, 854.2882
931.8376, 832.9767
932.3198, 820.2308
932.8019, 836.7813
933.2840, 857.2167
933.7661, 850.0491
934.2482, 828.5214
934.7303, 813.9391
935.2125, 808.9831
935.6946, 807.6400
936.1767, 806.9309
936.6588, 809.1153
937.1409, 821.5735
937.6230, 836.1557
938.1052, 834.3431
938.5873, 820.8298
939.0694, 811.7888
939.5515, 810.3637
940.0336, 809.6096
940.5157, 804.6154
940.9979, 798.4153
941.4800, 796.7884
941.9621, 798.2875
942.4442, 796.5039
942.9263, 791.7545
943.4084, 790.3116
943.8906, 794.1146
944.3727, 796.2972
944.8548, 789.5677
945.3369, 778.7158
945.8190, 779.3882
946.3011, 790.5021
946.7833, 790.7073
947.2654, 777.7349
947.7475, 770.0457
948.2296, 776.2318
948.7117, 785.0726
949.1938, 782.3836
949.6760, 771.0046
950.1581, 769.4454
950.6402, 779.4728
951.1223, 782.5843
951.6044, 775.3033
952.0865, 766.2752
952.5687, 758.7421
953.0508, 755.1751
953.5329, 760.6980
954.0150, 775.2183
954.4971, 782.0754
954.9792, 780.2407
955.4614, 773.3024
955.9435, 758.2753
956.4256, 746.7643
956.9077, 747.5342
957.3898, 754.7941
957.8719, 756.0621
958.3541, 749.5697
958.8362, 750.0681
959.3183, 763.7932
959.8004, 770.9032
960.2825, 763.7120
960.7646, 753.8058
961.2468, 749.7106
961.7289, 749.1948
962.2110, 745.5322
962.6931, 735.8916
963.1752, 732.3913
963.6573, 739.5738
964.1395, 746.0870
964.6216, 748.7646
965.1037, 749.9694
965.5858, 752.6241
966.0679, 755.5106
966.5500, 753.2487
967.0322, 740.1827
967.5143, 734.5359
967.9964, 741.1622
968.4785, 749.6790
968.9606, 762.7446
969.4427, 771.6238
969.9249, 763.5012
970.4070, 742.6741
970.8891, 731.8607
971.3712, 739.1241
971.8533, 744.6681
972.3354, 743.1608
972.8176, 743.2358
973.2997, 750.8472
973.7818, 760.4333
974.2639, 765.9343
974.7460, 767.3151
975.2281, 767.6539
975.7103, 766.9722
976.1924, 766.0780
976.6745, 764.9716
977.1566, 763.8651
977.6387, 761.5066
978.1208, 760.0313
978.6030, 763.7075
979.0851, 771.9839
979.5672, 776.3546
980.0493, 769.0220
980.5314, 766.1817
981.0135, 777.5404
981.4957, 789.2712
981.9778, 791.5572
982.4599, 789.0833
982.9420, 789.1003
983.4241, 792.4446
983.9063, 795.8585
984.3884, 797.1619
984.8705, 799.9535
985.3526, 806.4999
985.8347, 813.9547
986.3168, 822.1611
986.7990, 828.9221
987.2811, 830.3250
987.7632, 826.0555
988.2453, 821.5049
988.7274, 815.1099
989.2095, 813.4639
989.6917, 822.0663
990.1738, 833.8889
990.6559, 846.0524
991.1380, 856.1689
991.6201, 858.7482
992.1022, 853.4258
992.5844, 853.9343
993.0665, 870.1529
993.5486, 887.8612
994.0307, 897.7584
994.5128, 908.6412
994.9949, 928.0516
995.4771, 954.1233
995.9592, 982.9035
996.4413, 1013.371
996.9234, 1045.110
997.4055, 1077.309
997.8876, 1111.589
998.3698, 1145.825
998.8519, 1185.083
999.3340, 1238.976
999.8161, 1299.821
1000.298, 1349.804
1000.780, 1385.577
1001.262, 1430.399
1001.745, 1502.794
1002.227, 1576.720
1002.709, 1633.384
1003.191, 1690.276
1003.673, 1765.584
1004.155, 1852.904
1004.637, 1938.677
1005.119, 2019.909
1005.602, 2089.995
1006.084, 2154.145
1006.566, 2196.625
1007.048, 2207.613
1007.530, 2194.849
1008.012, 2167.042
1008.494, 2120.653
1008.976, 2042.262
1009.458, 1929.915
1009.941, 1814.132
1010.423, 1708.701
1010.905, 1602.052
1011.387, 1481.286
1011.869, 1362.927
1012.351, 1255.237
1012.833, 1162.320
1013.315, 1092.530
1013.797, 1046.853
1014.280, 1003.602
1014.762, 950.3022
1015.244, 902.8423
1015.726, 868.0142
1016.208, 841.6993
1016.690, 821.3885
1017.172, 806.8261
1017.654, 800.2128
1018.137, 801.4906
1018.619, 800.6806
1019.101, 792.4612
1019.583, 784.0793
1020.065, 779.7007
1020.547, 774.7944
1021.029, 766.3553
1021.511, 754.8271
1021.993, 738.4565
1022.476, 717.8578
1022.958, 707.1262
1023.440, 718.9891
1023.922, 728.9592
1024.404, 729.2432
1024.886, 725.5852
1025.368, 719.3616
1025.850, 712.9545
1026.333, 710.0497
1026.815, 710.7116
1027.297, 709.8226
1027.779, 701.2444
1028.261, 698.3862
1028.743, 709.1865
1029.225, 720.9787
1029.707, 728.5895
1030.189, 731.8578
1030.672, 729.8293
1031.154, 722.9948
1031.636, 716.6240
1032.118, 711.3711
1032.600, 706.7574
1033.082, 699.9492
1033.564, 697.0766
1034.046, 706.7279
1034.528, 717.7968
1035.011, 715.5433
1035.493, 701.6730
1035.975, 693.6539
1036.457, 694.9982
1036.939, 697.8771
1037.421, 707.1381
1037.903, 711.4799
1038.385, 701.2206
1038.868, 688.8333
1039.350, 687.3703
1039.832, 694.3102
1040.314, 696.7743
1040.796, 690.7201
1041.278, 689.7009
1041.760, 698.3289
1042.242, 704.5081
1042.724, 705.2847
1043.207, 701.4152
1043.689, 690.4317
1044.171, 676.3713
1044.653, 673.1095
1045.135, 684.8302
1045.617, 690.8741
1046.099, 687.4446
1046.581, 688.1581
1047.063, 700.0760
1047.546, 709.0944
1048.028, 702.7469
1048.510, 688.5012
1048.992, 684.0739
1049.474, 690.7625
1049.956, 693.5960
1050.438, 691.6992
1050.920, 689.6697
1051.403, 688.5529
1051.885, 686.5525
1052.367, 681.8372
1052.849, 677.4451
1053.331, 679.1180
1053.813, 686.3541
1054.295, 690.7935
1054.777, 692.2305
1055.260, 694.1119
1055.742, 697.2102
1056.224, 697.2489
1056.706, 691.4766
1057.188, 685.8478
1057.670, 689.1420
1058.152, 698.2714
1058.634, 699.9786
1059.116, 694.9960
1059.599, 691.9870
1060.081, 691.6579
1060.563, 689.0563
1061.045, 682.2146
1061.527, 676.0367
1062.009, 675.9138
1062.491, 678.6151
1062.973, 675.1168
1063.455, 668.6030
1063.938, 672.5042
1064.420, 684.8403
1064.902, 691.2697
1065.384, 688.2611
1065.866, 684.9610
1066.348, 688.1292
1066.830, 694.0548
1067.312, 699.8187
1067.795, 703.5120
1068.277, 700.3382
1068.759, 692.3382
1069.241, 683.0063
1069.723, 674.3915
1070.205, 671.8506
1070.687, 679.2015
1071.169, 685.6788
1071.651, 678.8438
1072.134, 668.6812
1072.616, 664.5231
1073.098, 665.1227
1073.580, 669.7724
1074.062, 676.6495
1074.544, 682.1470
1075.026, 685.1639
1075.508, 685.0280
1075.990, 677.9652
1076.473, 671.7585
1076.955, 671.2919
1077.437, 674.0456
1077.919, 679.7731
1078.401, 685.9389
1078.883, 688.2192
1079.365, 685.9021
1079.847, 682.1105
1080.329, 674.8259
1080.812, 670.5309
1081.294, 674.0316
1081.776, 677.9023
1082.258, 676.9103
1082.740, 674.1645
1083.222, 674.9991
1083.704, 678.8979
1084.186, 678.4914
1084.669, 667.9645
1085.151, 662.3895
1085.633, 668.3893
1086.115, 670.9425
1086.597, 661.2581
1087.079, 650.9547
1087.561, 649.6469
1088.043, 655.9722
1088.526, 666.9573
1089.008, 685.9866
1089.490, 692.3797
1089.972, 680.5342
1090.454, 673.0897
1090.936, 676.1374
1091.418, 680.7859
1091.900, 681.6803
1092.382, 679.9028
1092.865, 676.2150
1093.347, 671.3847
1093.829, 676.1103
1094.311, 690.9594
1094.793, 698.3450
1095.275, 695.9098
1095.757, 691.6990
1096.239, 689.2435
1096.721, 685.2252
1097.204, 674.9874
1097.686, 662.9081
1098.168, 660.1038
1098.650, 664.7682
1099.132, 672.0237
1099.614, 680.3232
1100.096, 684.0806
1100.578, 682.4857
1101.061, 682.3570
1101.543, 689.0997
1102.025, 694.4924
1102.507, 685.0203
1102.989, 671.0170
1103.471, 665.8072
1103.953, 668.2969
1104.435, 680.2054
1104.917, 696.5562
1105.400, 701.0690
1105.882, 687.0496
1106.364, 674.5438
1106.846, 678.0479
1107.328, 685.2621
1107.810, 690.4044
1108.292, 693.3008
1108.774, 692.5685
1109.256, 690.1896
1109.739, 689.2399
1110.221, 690.2684
1110.703, 693.1819
1111.185, 702.3001
1111.667, 706.6512
1112.149, 698.3669
1112.631, 691.4803
1113.113, 693.2291
1113.596, 699.3052
1114.078, 707.5145
1114.560, 716.0206
1115.042, 717.2780
1115.524, 697.8417
1116.006, 710.4774
1116.488, 717.6619
1116.970, 719.7056
1117.453, 700.2403
1117.935, 709.2944
1118.417, 707.3735
1118.899, 705.3143
1119.381, 719.3102
1119.863, 704.6437
1120.345, 719.0393
1120.827, 722.2885
1121.309, 731.1119
1121.792, 728.8987
1122.274, 730.5153
1122.756, 743.8284
1123.238, 751.1699
1123.720, 748.9390
1124.202, 760.0457
1124.684, 748.2279
1125.166, 757.1363
1125.648, 775.1696
1126.131, 775.1479
1126.613, 788.0863
1127.095, 796.5307
1127.577, 783.4103
1128.059, 808.6837
1128.541, 817.8191
1129.023, 810.3717
1129.505, 835.3165
1129.988, 830.8694
1130.470, 835.5982
1130.952, 837.5211
1131.434, 839.1195
1131.916, 840.4808
1132.398, 841.7957
1132.880, 845.4495
1133.362, 857.2689
1133.844, 863.9330
1134.327, 857.6819
1134.809, 849.6539
1135.291, 846.2118
1135.773, 843.8480
1136.255, 838.5418
1136.737, 830.6761
1137.219, 822.4093
1137.701, 812.8177
1138.183, 806.3450
1138.666, 804.4548
1139.148, 802.5741
1139.630, 800.7744
1140.112, 796.1164
1140.594, 785.9551
1141.076, 774.3564
1141.558, 768.3154
1142.040, 765.7106
1142.523, 751.3069
1143.005, 726.0192
1143.487, 717.4207
1143.969, 726.3899
1144.451, 730.5759
1144.933, 723.1868
1145.415, 713.3361
1145.897, 707.3809
1146.380, 705.4421
1146.862, 711.6309
1147.344, 719.2874
1147.826, 714.5119
1148.308, 702.8791
1148.790, 696.6780
1149.272, 695.4123
1149.754, 690.4590
1150.236, 679.0673
1150.719, 669.2210
1151.201, 666.0746
1151.683, 665.3569
1152.165, 665.7657
1152.647, 666.6182
1153.129, 668.9677
1153.611, 670.4230
1154.093, 666.3875
1154.575, 658.0106
1155.058, 653.1577
1155.540, 652.7813
1156.022, 656.0043
1156.504, 668.0849
1156.986, 674.2516
1157.468, 667.3578
1157.950, 661.0571
1158.432, 664.8091
1158.915, 672.4971
1159.397, 674.4800
1159.879, 671.2830
1160.361, 666.8373
1160.843, 661.0806
1161.325, 656.3138
1161.807, 652.7474
1162.289, 652.0475
1162.771, 654.6852
1163.254, 659.1521
1163.736, 664.8758
1164.218, 668.5369
1164.700, 664.3474
1165.182, 655.3755
1165.664, 642.0963
1166.146, 630.7888
1166.628, 637.5712
1167.110, 657.4404
1167.593, 671.2042
1168.075, 673.2003
1168.557, 671.1285
1169.039, 668.2635
1169.521, 663.7869
1170.003, 653.7941
1170.485, 645.9485
1170.967, 646.7060
1171.450, 651.5010
1171.932, 656.2160
1172.414, 660.0369
1172.896, 660.7225
1173.378, 656.4310
1173.860, 657.0074
1174.342, 667.2813
1174.824, 670.7164
1175.306, 661.8383
1175.789, 653.9999
1176.271, 654.1024
1176.753, 656.7759
1177.235, 655.4090
1177.717, 652.2571
1178.199, 655.6060
1178.681, 664.3480
1179.163, 670.7904
1179.646, 674.4056
1180.128, 673.1121
1180.610, 667.3187
1181.092, 662.1257
1181.574, 660.1456
1182.056, 659.9040
1182.538, 660.7429
1183.020, 661.8083
1183.502, 662.4583
1183.984, 662.6163
1184.467, 661.7376
1184.949, 660.5286
1185.431, 661.8283
1185.913, 664.5541
1186.395, 660.0493
1186.877, 639.7740
1187.359, 630.6142
1187.841, 648.8855
1188.324, 663.4785
1188.806, 663.4668
1189.288, 660.4195
1189.770, 660.6640
1190.252, 662.2776
1190.734, 662.2198
1191.216, 660.9201
1191.698, 662.7789
1192.181, 668.3604
1192.663, 664.7619
1193.145, 651.3642
1193.627, 647.6584
1194.109, 658.3348
1194.591, 667.7733
1195.073, 666.2537
1195.555, 659.2803
1196.037, 649.6444
1196.520, 642.2448
1197.002, 649.5785
1197.484, 660.9789
1197.966, 656.5358
1198.448, 643.3425
1198.930, 641.3381
1199.412, 652.1790
1199.894, 659.0660
1200.376, 653.8232
1200.859, 650.9422
1201.341, 661.5367
1201.823, 666.7910
1202.305, 653.1336
1202.787, 638.3530
1203.269, 633.9601
1203.751, 636.8450
1204.233, 644.7625
1204.716, 656.0552
1205.198, 652.7149
1205.680, 631.4907
1206.162, 622.3163
1206.644, 627.1237
1207.126, 630.9835
1207.608, 630.0496
1208.090, 630.8738
1208.573, 637.8406
1209.055, 642.2881
1209.537, 629.0681
1210.019, 611.1227
1210.501, 612.7404
1210.983, 622.1092
1211.465, 618.9837
1211.947, 608.8116
1212.429, 605.9674
1212.911, 612.1099
1213.394, 620.6583
1213.876, 630.7119
1214.358, 637.9921
1214.840, 639.6015
1215.322, 640.3495
1215.804, 646.4742
1216.286, 646.2531
1216.768, 626.3616
1217.251, 604.0729
1217.733, 602.5960
1218.215, 617.2011
1218.697, 626.3282
1219.179, 630.0382
1219.661, 624.6289
1220.143, 610.3223
1220.625, 606.1407
1221.108, 614.9304
1221.590, 622.1780
1222.072, 620.7679
1222.554, 614.0762
1223.036, 600.9067
1223.518, 592.0323
1224.000, 606.3075
1224.482, 627.2814
1224.964, 636.2692
1225.447, 637.5618
1225.929, 640.1531
1226.411, 643.1586
1226.893, 638.4084
1227.375, 622.7377
1227.857, 611.7042
1228.339, 610.4235
1228.821, 610.0627
1229.303, 609.8190
1229.786, 609.9653
1230.268, 610.6650
1230.750, 611.9113
1231.232, 614.3102
1231.714, 615.8333
1232.196, 610.1928
1232.678, 599.5644
1233.160, 598.7955
1233.643, 606.0476
1234.125, 615.9829
1234.607, 625.4401
1235.089, 622.6633
1235.571, 606.4880
1236.053, 595.9301
1236.535, 603.4415
1237.017, 613.5171
1237.500, 617.9268
1237.982, 617.6862
1238.464, 608.6249
1238.946, 599.8380
1239.428, 601.4355
1239.910, 607.9654
1240.392, 608.0295
1240.874, 602.4792
1241.356, 601.5400
1241.839, 606.7136
1242.321, 611.7351
1242.803, 617.3265
1243.285, 617.6739
1243.767, 611.2983
1244.249, 602.8529
1244.731, 594.6274
1245.213, 590.3107
1245.695, 595.4783
1246.178, 603.3425
1246.660, 601.9758
1247.142, 596.8589
1247.624, 596.5606
1248.106, 598.8082
1248.588, 597.3018
1249.070, 594.0630
1249.552, 598.8541
1250.035, 614.3708
1250.517, 623.6105
1250.999, 617.9348
1251.481, 612.5679
1251.963, 608.3631
1252.445, 606.6391
1252.927, 608.3109
1253.409, 611.9481
1253.891, 617.4938
1254.374, 621.7969
1254.856, 618.9113
1255.338, 610.5430
1255.820, 603.2278
1256.302, 597.2034
1256.784, 594.0766
1257.266, 593.2069
1257.748, 592.4009
1258.230, 591.1031
1258.713, 589.3719
1259.195, 587.1259
1259.677, 585.8967
1260.159, 586.2441
1260.641, 588.3012
1261.123, 593.4572
1261.605, 598.8094
1262.087, 604.7207
1262.570, 607.7728
1263.052, 602.4778
1263.534, 593.2896
1264.016, 592.8265
1264.498, 601.1399
1264.980, 602.1307
1265.462, 595.8201
1265.944, 592.6964
1266.427, 593.6639
1266.909, 596.2079
1267.391, 599.2967
1267.873, 601.7577
1268.355, 602.9800
1268.837, 602.2637
1269.319, 596.4564
1269.801, 591.2859
##END=



