##NAMES=Phenakite
##RRUFFID=R040132
##IDEAL CHEMISTRY=Be_2_SiO_4_
##LOCALITY=Krager√∏, Telemark, Norway
##OWNER=RRUFF
##SOURCE=University of Arizona Mineral Museum
##DESCRIPTION=Colorless fragments
##STATUS=The identification of this mineral has been confirmed by X-ray diffraction and chemical analysis
##URL=rruff.info/R040132
##MEASURED CHEMISTRY=Be_2.02_Si_0.99_O_4_
131.8235, 265.8907
132.3056, 277.8628
132.7877, 289.8517
133.2699, 301.4994
133.7520, 312.8869
134.2341, 323.0369
134.7162, 331.1414
135.1983, 337.2359
135.6804, 343.6202
136.1626, 350.2518
136.6447, 357.1276
137.1268, 364.1826
137.6089, 371.3022
138.0910, 378.8252
138.5731, 387.7684
139.0553, 399.5684
139.5374, 406.2496
140.0195, 405.8759
140.5016, 400.2492
140.9837, 395.5866
141.4658, 389.9359
141.9480, 388.2476
142.4301, 394.4430
142.9122, 411.6830
143.3943, 430.0306
143.8764, 448.3798
144.3585, 466.6065
144.8407, 486.9818
145.3228, 511.5868
145.8049, 536.6229
146.2870, 558.2692
146.7691, 573.9025
147.2512, 589.2896
147.7334, 606.5361
148.2155, 627.7437
148.6976, 641.9139
149.1797, 640.4962
149.6618, 634.5178
150.1439, 638.5038
150.6261, 654.1415
151.1082, 678.1866
151.5903, 711.5885
152.0724, 760.5799
152.5545, 804.5907
153.0366, 833.0107
153.5188, 855.5955
154.0009, 891.3622
154.4830, 945.9741
154.9651, 1012.480
155.4472, 1088.943
155.9293, 1180.733
156.4115, 1273.669
156.8936, 1346.969
157.3757, 1414.839
157.8578, 1526.921
158.3399, 1649.988
158.8221, 1849.092
159.3042, 2169.109
159.7863, 2884.983
160.2684, 3464.629
160.7505, 3764.794
161.2326, 3791.512
161.7148, 3564.301
162.1969, 2836.734
162.6790, 1954.547
163.1611, 1260.445
163.6432, 940.2453
164.1253, 770.2007
164.6075, 660.7697
165.0896, 609.7789
165.5717, 582.6428
166.0538, 570.9928
166.5359, 569.2582
167.0180, 569.3454
167.5002, 570.0032
167.9823, 569.8902
168.4644, 567.3541
168.9465, 561.8723
169.4286, 556.7643
169.9107, 554.0226
170.3929, 553.4392
170.8750, 554.5115
171.3571, 559.7372
171.8392, 565.2962
172.3213, 566.2855
172.8034, 560.9113
173.2856, 554.8354
173.7677, 553.3423
174.2498, 555.5874
174.7319, 558.6723
175.2140, 561.1277
175.6961, 563.2464
176.1783, 565.7715
176.6604, 569.5170
177.1425, 572.4301
177.6246, 569.8059
178.1067, 562.7545
178.5888, 558.3343
179.0710, 566.4885
179.5531, 581.0800
180.0352, 587.5774
180.5173, 578.9424
180.9994, 564.2073
181.4815, 558.0379
181.9637, 560.2129
182.4458, 565.4614
182.9279, 570.1824
183.4100, 574.4667
183.8921, 578.8964
184.3742, 584.6879
184.8564, 590.2815
185.3385, 590.5376
185.8206, 585.0147
186.3027, 579.5439
186.7848, 582.3401
187.2669, 591.9477
187.7491, 597.2515
188.2312, 591.3566
188.7133, 578.0389
189.1954, 571.3813
189.6775, 572.0670
190.1596, 576.6163
190.6418, 582.6711
191.1239, 590.0911
191.6060, 594.6544
192.0881, 593.3035
192.5702, 586.8160
193.0524, 581.6257
193.5345, 577.5110
194.0166, 575.2733
194.4987, 576.7018
194.9808, 581.9664
195.4629, 588.3638
195.9451, 596.2933
196.4272, 605.7356
196.9093, 608.5218
197.3914, 602.4505
197.8735, 592.7817
198.3556, 589.6724
198.8378, 593.8735
199.3199, 599.8283
199.8020, 605.6734
200.2841, 611.5842
200.7662, 613.2281
201.2483, 608.4116
201.7305, 600.9673
202.2126, 600.1570
202.6947, 606.5120
203.1768, 617.5219
203.6589, 631.1237
204.1410, 646.5676
204.6232, 670.0121
205.1053, 705.1416
205.5874, 747.2530
206.0695, 780.8825
206.5516, 805.0986
207.0337, 823.2747
207.5159, 835.4623
207.9980, 838.8940
208.4801, 848.6923
208.9622, 868.1470
209.4443, 895.3410
209.9264, 920.0409
210.4086, 939.7319
210.8907, 962.1027
211.3728, 992.8699
211.8549, 1033.484
212.3370, 1078.204
212.8191, 1125.475
213.3013, 1175.710
213.7834, 1234.783
214.2655, 1299.426
214.7476, 1378.586
215.2297, 1482.745
215.7118, 1623.773
216.1940, 1757.982
216.6761, 1866.644
217.1582, 1953.266
217.6403, 2078.428
218.1224, 2210.136
218.6045, 2420.595
219.0867, 2765.179
219.5688, 3206.188
220.0509, 3906.135
220.5330, 5135.607
221.0151, 6945.037
221.4972, 7588.315
221.9794, 6633.806
222.4615, 5003.750
222.9436, 3612.626
223.4257, 2427.302
223.9078, 1548.131
224.3899, 1057.511
224.8721, 976.9418
225.3542, 917.6292
225.8363, 880.8517
226.3184, 863.5424
226.8005, 861.5396
227.2827, 873.7405
227.7648, 903.9521
228.2469, 956.1097
228.7290, 1032.646
229.2111, 1116.967
229.6932, 1242.176
230.1754, 1347.445
230.6575, 1344.373
231.1396, 1172.641
231.6217, 998.1640
232.1038, 861.4294
232.5859, 764.1342
233.0681, 697.5472
233.5502, 672.3198
234.0323, 670.2124
234.5144, 664.9235
234.9965, 652.6106
235.4786, 643.7533
235.9608, 642.4485
236.4429, 650.8374
236.9250, 656.8514
237.4071, 659.9564
237.8892, 660.9625
238.3713, 660.5549
238.8535, 655.9954
239.3356, 654.7280
239.8177, 660.9008
240.2998, 678.7596
240.7819, 687.1098
241.2640, 681.2402
241.7462, 668.7399
242.2283, 662.5654
242.7104, 664.7006
243.1925, 669.9987
243.6746, 678.1917
244.1567, 692.3501
244.6389, 698.0153
245.1210, 689.6452
245.6031, 676.0844
246.0852, 673.3425
246.5673, 685.7477
247.0494, 701.6573
247.5316, 717.7401
248.0137, 734.8475
248.4958, 749.0056
248.9779, 758.3915
249.4600, 765.7824
249.9421, 775.9661
250.4243, 789.3033
250.9064, 804.8591
251.3885, 821.8948
251.8706, 839.4356
252.3527, 861.6166
252.8348, 886.3749
253.3170, 916.9010
253.7991, 967.0101
254.2812, 1064.574
254.7633, 1127.196
255.2454, 1115.129
255.7275, 1003.391
256.2097, 908.9787
256.6918, 833.0626
257.1739, 774.6881
257.6560, 732.8234
258.1381, 711.5536
258.6202, 698.3331
259.1024, 688.4692
259.5845, 681.5370
260.0666, 680.4913
260.5487, 687.1937
261.0308, 698.3830
261.5129, 708.9049
261.9951, 719.2294
262.4772, 727.5196
262.9593, 732.2197
263.4414, 732.1221
263.9235, 734.5687
264.4056, 740.4634
264.8878, 748.0992
265.3699, 754.3771
265.8520, 758.6053
266.3341, 763.5883
266.8162, 770.1593
267.2983, 778.0778
267.7805, 788.6805
268.2626, 801.7794
268.7447, 817.7107
269.2268, 837.6396
269.7089, 862.4550
270.1910, 887.9533
270.6732, 912.0200
271.1553, 933.9659
271.6374, 959.4412
272.1195, 986.8274
272.6016, 1020.202
273.0837, 1062.418
273.5659, 1111.632
274.0480, 1179.999
274.5301, 1288.705
275.0122, 1440.377
275.4943, 1532.607
275.9764, 1551.153
276.4586, 1537.042
276.9407, 1547.365
277.4228, 1583.009
277.9049, 1635.115
278.3870, 1738.682
278.8691, 1885.377
279.3513, 1858.677
279.8334, 1622.146
280.3155, 1305.894
280.7976, 1070.709
281.2798, 920.0238
281.7619, 816.5976
282.2440, 757.8544
282.7261, 739.0655
283.2082, 726.0971
283.6903, 719.5413
284.1725, 716.6295
284.6546, 714.7704
285.1367, 713.9352
285.6188, 712.9147
286.1009, 710.9268
286.5830, 708.3752
287.0652, 707.3394
287.5473, 708.0673
288.0294, 708.8858
288.5115, 707.1543
288.9936, 703.3209
289.4757, 701.2181
289.9579, 703.3193
290.4400, 707.7645
290.9221, 708.8812
291.4042, 706.4176
291.8863, 703.7725
292.3684, 705.6506
292.8506, 710.7195
293.3327, 713.0195
293.8148, 708.5318
294.2969, 701.3679
294.7790, 700.0535
295.2611, 704.6050
295.7433, 710.4658
296.2254, 714.5329
296.7075, 716.9055
297.1896, 717.6621
297.6717, 716.1410
298.1538, 713.6556
298.6360, 712.0684
299.1181, 711.3305
299.6002, 711.0347
300.0823, 711.0245
300.5644, 711.2111
301.0465, 711.4860
301.5287, 712.0932
302.0108, 712.4355
302.4929, 711.3014
302.9750, 708.9987
303.4571, 707.3564
303.9392, 707.9728
304.4214, 709.8685
304.9035, 711.6799
305.3856, 712.7259
305.8677, 714.1255
306.3498, 718.5783
306.8319, 724.7081
307.3141, 727.7054
307.7962, 719.1063
308.2783, 708.5762
308.7604, 706.7863
309.2425, 720.0154
309.7246, 733.2236
310.2068, 736.2670
310.6889, 731.7269
311.1710, 726.3997
311.6531, 721.9178
312.1352, 718.9025
312.6173, 718.4577
313.0995, 721.9655
313.5816, 724.4997
314.0637, 721.5094
314.5458, 716.0788
315.0279, 713.9803
315.5100, 718.8069
315.9922, 726.5068
316.4743, 736.9631
316.9564, 752.5565
317.4385, 760.9074
317.9206, 750.7375
318.4027, 732.5087
318.8849, 720.8417
319.3670, 724.9634
319.8491, 731.6450
320.3312, 735.9753
320.8133, 737.0522
321.2954, 739.1218
321.7776, 745.4893
322.2597, 752.3240
322.7418, 755.5432
323.2239, 749.5961
323.7060, 744.9352
324.1881, 744.5856
324.6703, 749.0300
325.1524, 752.7424
325.6345, 755.0078
326.1166, 756.5406
326.5987, 757.9498
327.0808, 760.4733
327.5630, 761.3972
328.0451, 759.3936
328.5272, 754.6835
329.0093, 752.1037
329.4914, 752.5450
329.9735, 754.3499
330.4557, 756.3678
330.9378, 757.5453
331.4199, 760.8680
331.9020, 767.2890
332.3841, 776.1635
332.8662, 784.5814
333.3484, 793.1222
333.8305, 800.2018
334.3126, 804.9520
334.7947, 806.9920
335.2768, 807.5449
335.7589, 805.9157
336.2411, 803.2469
336.7232, 801.9098
337.2053, 801.3445
337.6874, 803.8005
338.1695, 810.3580
338.6516, 821.0319
339.1338, 835.9626
339.6159, 856.5087
340.0980, 878.9671
340.5801, 897.2818
341.0622, 911.6363
341.5443, 921.8522
342.0265, 925.3784
342.5086, 923.4432
342.9907, 927.0125
343.4728, 935.5783
343.9549, 951.5609
344.4370, 975.0117
344.9192, 1006.570
345.4013, 1055.979
345.8834, 1138.305
346.3655, 1237.171
346.8476, 1318.612
347.3297, 1383.566
347.8119, 1402.209
348.2940, 1315.007
348.7761, 1153.765
349.2582, 1014.944
349.7403, 922.5619
350.2225, 865.0054
350.7046, 833.7607
351.1867, 826.2059
351.6688, 824.3107
352.1509, 816.9692
352.6331, 806.4479
353.1152, 795.3895
353.5973, 782.3420
354.0794, 772.7498
354.5615, 774.0737
355.0436, 783.4115
355.5258, 791.9288
356.0079, 794.5962
356.4900, 794.4165
356.9721, 793.8796
357.4542, 793.3911
357.9363, 792.4652
358.4185, 789.3363
358.9006, 785.7416
359.3827, 784.6869
359.8648, 790.4354
360.3469, 796.5757
360.8290, 798.8934
361.3112, 796.2253
361.7933, 795.8051
362.2754, 801.3765
362.7575, 809.8289
363.2396, 817.8154
363.7217, 827.2090
364.2039, 833.3340
364.6860, 830.5638
365.1681, 818.7724
365.6502, 818.3780
366.1323, 836.6492
366.6144, 863.9540
367.0966, 893.8181
367.5787, 922.9878
368.0608, 958.1733
368.5429, 1004.543
369.0250, 1058.954
369.5071, 1104.191
369.9893, 1137.120
370.4714, 1164.406
370.9535, 1186.941
371.4356, 1194.084
371.9177, 1220.701
372.3998, 1271.647
372.8820, 1340.320
373.3641, 1408.480
373.8462, 1467.628
374.3283, 1547.850
374.8104, 1664.870
375.2925, 1823.180
375.7747, 1980.664
376.2568, 2142.955
376.7389, 2295.942
377.2210, 2406.957
377.7031, 2471.460
378.1852, 2557.293
378.6674, 2676.118
379.1495, 2833.250
379.6316, 3033.862
380.1137, 3267.623
380.5958, 3623.398
381.0779, 4202.423
381.5601, 4987.016
382.0422, 5918.423
382.5243, 7238.380
383.0064, 8395.505
383.4885, 8346.104
383.9706, 7199.236
384.4528, 5766.117
384.9349, 4319.118
385.4170, 3008.730
385.8991, 2075.220
386.3812, 1591.109
386.8633, 1337.751
387.3455, 1181.473
387.8276, 1101.277
388.3097, 1047.092
388.7918, 1006.622
389.2739, 974.9011
389.7560, 948.6535
390.2382, 927.7358
390.7203, 910.9529
391.2024, 898.4730
391.6845, 889.5383
392.1666, 883.1466
392.6487, 881.8210
393.1309, 880.4075
393.6130, 874.9581
394.0951, 866.1699
394.5772, 862.5317
395.0593, 874.4399
395.5414, 886.9673
396.0236, 890.6368
396.5057, 870.4688
396.9878, 857.6235
397.4699, 859.6575
397.9520, 871.7578
398.4341, 878.8959
398.9163, 881.7535
399.3984, 878.8397
399.8805, 867.5546
400.3626, 841.2803
400.8447, 826.7810
401.3268, 828.6975
401.8090, 838.9866
402.2911, 846.6794
402.7732, 850.9984
403.2553, 854.6253
403.7374, 858.6774
404.2195, 862.9799
404.7017, 863.5415
405.1838, 859.0035
405.6659, 854.3936
406.1480, 854.8753
406.6301, 860.5274
407.1122, 865.7681
407.5944, 869.9966
408.0765, 872.8320
408.5586, 871.8533
409.0407, 867.1597
409.5228, 864.3981
410.0049, 868.3751
410.4871, 877.1915
410.9692, 886.7252
411.4513, 897.4900
411.9334, 905.2495
412.4155, 903.4310
412.8976, 894.4387
413.3798, 885.3904
413.8619, 879.4029
414.3440, 874.9418
414.8261, 869.5098
415.3082, 863.0782
415.7903, 859.4077
416.2725, 862.7790
416.7546, 869.5385
417.2367, 875.6628
417.7188, 879.5049
418.2009, 882.7347
418.6830, 885.6562
419.1652, 888.4563
419.6473, 891.7068
420.1294, 895.5103
420.6115, 899.9045
421.0937, 905.1453
421.5758, 911.9070
422.0579, 917.9063
422.5400, 922.3353
423.0221, 925.9446
423.5042, 929.9980
423.9864, 931.2962
424.4685, 936.6377
424.9506, 948.6676
425.4327, 967.8125
425.9148, 985.6537
426.3969, 998.6943
426.8791, 1014.392
427.3612, 1041.376
427.8433, 1086.236
428.3254, 1120.719
428.8075, 1137.498
429.2896, 1142.421
429.7718, 1155.492
430.2539, 1178.047
430.7360, 1201.629
431.2181, 1218.296
431.7002, 1229.146
432.1823, 1250.144
432.6645, 1282.291
433.1466, 1324.075
433.6287, 1366.968
434.1108, 1414.490
434.5929, 1486.263
435.0750, 1602.373
435.5572, 1742.081
436.0393, 1871.416
436.5214, 1990.620
437.0035, 2105.301
437.4856, 2216.664
437.9677, 2326.060
438.4499, 2431.742
438.9320, 2520.608
439.4141, 2627.266
439.8962, 2752.910
440.3783, 2912.751
440.8604, 3149.832
441.3426, 3412.958
441.8247, 3808.825
442.3068, 4472.773
442.7889, 5510.864
443.2710, 6372.019
443.7531, 7148.017
444.2353, 7576.930
444.7174, 7382.003
445.1995, 5852.921
445.6816, 4429.816
446.1637, 3316.743
446.6458, 2511.435
447.1280, 1910.788
447.6101, 1581.615
448.0922, 1382.844
448.5743, 1250.723
449.0564, 1207.289
449.5385, 1169.783
450.0207, 1137.110
450.5028, 1108.466
450.9849, 1081.468
451.4670, 1055.184
451.9491, 1036.619
452.4312, 1030.662
452.9134, 1035.686
453.3955, 1038.075
453.8776, 1037.258
454.3597, 1037.784
454.8418, 1047.461
455.3239, 1063.239
455.8061, 1070.744
456.2882, 1062.592
456.7703, 1051.376
457.2524, 1056.397
457.7345, 1074.595
458.2166, 1093.705
458.6988, 1103.339
459.1809, 1111.504
459.6630, 1126.055
460.1451, 1147.944
460.6272, 1176.314
461.1093, 1205.769
461.5915, 1242.702
462.0736, 1294.641
462.5557, 1371.744
463.0378, 1456.765
463.5199, 1575.101
464.0020, 1712.060
464.4842, 1764.873
464.9663, 1650.993
465.4484, 1491.565
465.9305, 1347.087
466.4126, 1208.375
466.8947, 1102.592
467.3769, 1036.786
467.8590, 1000.957
468.3411, 980.5726
468.8232, 983.2308
469.3053, 986.4830
469.7874, 983.7786
470.2696, 975.6404
470.7517, 972.7749
471.2338, 976.9922
471.7159, 980.9359
472.1980, 975.9717
472.6801, 962.4254
473.1623, 955.7072
473.6444, 959.2151
474.1265, 967.9249
474.6086, 972.7916
475.0907, 974.6595
475.5728, 978.9875
476.0550, 992.8824
476.5371, 1009.649
477.0192, 1016.684
477.5013, 1013.494
477.9834, 1010.047
478.4655, 1012.384
478.9477, 1019.626
479.4298, 1030.751
479.9119, 1048.046
480.3940, 1066.032
480.8761, 1081.973
481.3582, 1096.303
481.8404, 1110.063
482.3225, 1130.559
482.8046, 1144.791
483.2867, 1147.004
483.7688, 1135.676
484.2509, 1115.875
484.7331, 1076.271
485.2152, 1034.528
485.6973, 1006.913
486.1794, 1002.502
486.6615, 996.5723
487.1436, 984.3636
487.6258, 967.8926
488.1079, 957.0315
488.5900, 953.1706
489.0721, 951.2899
489.5542, 948.9247
490.0363, 946.0605
490.5185, 943.2712
491.0006, 940.5381
491.4827, 938.0693
491.9648, 935.5571
492.4470, 933.3154
492.9291, 933.3288
493.4112, 937.4148
493.8933, 943.1338
494.3754, 946.7026
494.8575, 948.3851
495.3397, 949.6293
495.8218, 950.3717
496.3039, 951.7023
496.7860, 955.5895
497.2681, 963.5570
497.7502, 969.3730
498.2324, 967.6528
498.7145, 962.4097
499.1966, 959.0671
499.6787, 960.3473
500.1608, 962.6589
500.6429, 965.7507
501.1251, 969.4331
501.6072, 971.2701
502.0893, 967.7280
502.5714, 965.3167
503.0535, 967.8463
503.5356, 980.1542
504.0178, 985.1300
504.4999, 978.6633
504.9820, 968.5637
505.4641, 966.8384
505.9462, 974.6457
506.4283, 984.8063
506.9105, 995.6097
507.3926, 1007.080
507.8747, 1018.623
508.3568, 1030.159
508.8389, 1044.258
509.3210, 1065.509
509.8032, 1091.011
510.2853, 1110.393
510.7674, 1119.689
511.2495, 1134.345
511.7316, 1173.693
512.2137, 1230.130
512.6959, 1287.424
513.1780, 1336.637
513.6601, 1386.797
514.1422, 1441.582
514.6243, 1501.594
515.1064, 1570.277
515.5886, 1654.785
516.0707, 1744.659
516.5528, 1833.366
517.0349, 1922.880
517.5170, 2006.974
517.9991, 2076.151
518.4813, 2142.480
518.9634, 2219.681
519.4455, 2301.812
519.9276, 2403.378
520.4097, 2517.863
520.8918, 2650.695
521.3740, 2846.805
521.8561, 3100.262
522.3382, 3436.711
522.8203, 3926.504
523.3024, 4551.284
523.7845, 5117.697
524.2667, 5663.376
524.7488, 5969.434
525.2309, 5672.811
525.7130, 4897.515
526.1951, 4075.422
526.6772, 3274.893
527.1594, 2567.825
527.6415, 2058.185
528.1236, 1729.138
528.6057, 1496.790
529.0878, 1360.630
529.5699, 1275.775
530.0521, 1215.647
530.5342, 1179.474
531.0163, 1152.256
531.4984, 1134.791
531.9805, 1121.139
532.4626, 1104.895
532.9448, 1076.738
533.4269, 1056.362
533.9090, 1049.580
534.3911, 1052.570
534.8732, 1050.349
535.3553, 1039.738
535.8375, 1029.845
536.3196, 1025.874
536.8017, 1028.293
537.2838, 1024.290
537.7659, 1011.944
538.2480, 999.3904
538.7302, 995.6443
539.2123, 999.7808
539.6944, 1006.575
540.1765, 1017.050
540.6586, 1025.728
541.1407, 1022.463
541.6229, 1010.246
542.1050, 999.8151
542.5871, 998.8264
543.0692, 1000.957
543.5513, 999.8206
544.0334, 995.1451
544.5156, 993.0137
544.9977, 1000.927
545.4798, 1009.884
545.9619, 1012.488
546.4440, 1002.147
546.9261, 993.1683
547.4083, 985.5811
547.8904, 980.9813
548.3725, 983.1458
548.8546, 1000.613
549.3367, 1010.430
549.8188, 1003.487
550.3010, 981.9795
550.7831, 973.0942
551.2652, 980.0247
551.7473, 988.9388
552.2294, 988.6234
552.7115, 980.3163
553.1937, 976.8651
553.6758, 979.8983
554.1579, 985.2482
554.6400, 988.2886
555.1221, 989.5200
555.6042, 990.3267
556.0864, 991.2291
556.5685, 991.9152
557.0506, 991.8558
557.5327, 991.2578
558.0148, 990.8907
558.4969, 991.4080
558.9791, 992.0632
559.4612, 992.0088
559.9433, 990.6806
560.4254, 991.1464
560.9075, 995.5190
561.3896, 1001.063
561.8718, 1005.446
562.3539, 1008.487
562.8360, 1010.435
563.3181, 1009.906
563.8002, 1008.936
564.2823, 1013.740
564.7645, 1026.128
565.2466, 1035.833
565.7287, 1037.202
566.2108, 1032.404
566.6929, 1032.113
567.1750, 1036.442
567.6572, 1042.800
568.1393, 1051.188
568.6214, 1059.619
569.1035, 1062.976
569.5856, 1059.360
570.0677, 1055.319
570.5499, 1055.487
571.0320, 1058.965
571.5141, 1064.306
571.9962, 1071.403
572.4783, 1079.833
572.9604, 1088.474
573.4426, 1097.868
573.9247, 1111.114
574.4068, 1133.195
574.8889, 1155.085
575.3710, 1174.316
575.8531, 1191.631
576.3353, 1201.510
576.8174, 1203.807
577.2995, 1198.735
577.7816, 1185.462
578.2637, 1163.541
578.7458, 1137.071
579.2280, 1103.895
579.7101, 1071.456
580.1922, 1055.493
580.6743, 1053.512
581.1564, 1051.419
581.6385, 1039.791
582.1207, 1025.898
582.6028, 1018.855
583.0849, 1018.414
583.5670, 1022.066
584.0491, 1033.952
584.5313, 1045.770
585.0134, 1050.133
585.4955, 1043.208
585.9776, 1037.787
586.4597, 1038.487
586.9418, 1041.788
587.4240, 1043.618
587.9061, 1041.359
588.3882, 1041.644
588.8703, 1046.705
589.3524, 1054.349
589.8345, 1057.095
590.3167, 1052.998
590.7988, 1051.686
591.2809, 1059.818
591.7630, 1074.543
592.2451, 1078.179
592.7272, 1070.189
593.2094, 1064.216
593.6915, 1075.880
594.1736, 1096.771
594.6557, 1109.060
595.1378, 1107.031
595.6199, 1107.561
596.1021, 1125.123
596.5842, 1152.707
597.0663, 1180.430
597.5485, 1201.834
598.0306, 1225.803
598.5127, 1268.473
598.9948, 1319.582
599.4769, 1334.750
599.9590, 1285.256
600.4412, 1231.923
600.9233, 1192.664
601.4054, 1167.567
601.8875, 1152.454
602.3696, 1148.957
602.8517, 1151.770
603.3339, 1158.177
603.8160, 1167.853
604.2981, 1174.760
604.7802, 1176.873
605.2623, 1180.708
605.7444, 1195.300
606.2266, 1218.495
606.7087, 1243.912
607.1908, 1272.863
607.6729, 1299.848
608.1550, 1317.354
608.6371, 1328.793
609.1193, 1345.863
609.6014, 1378.089
610.0835, 1412.823
610.5656, 1439.605
611.0477, 1454.466
611.5298, 1489.352
612.0120, 1553.251
612.4941, 1628.734
612.9762, 1704.629
613.4583, 1780.584
613.9404, 1863.135
614.4225, 1965.142
614.9047, 2050.500
615.3868, 2068.665
615.8689, 2021.778
616.3510, 1932.366
616.8331, 1790.983
617.3152, 1631.966
617.7974, 1499.094
618.2795, 1392.414
618.7616, 1304.662
619.2437, 1233.093
619.7258, 1178.560
620.2079, 1144.897
620.6901, 1132.257
621.1722, 1124.165
621.6543, 1117.701
622.1364, 1111.945
622.6185, 1106.713
623.1006, 1103.843
623.5828, 1096.711
624.0649, 1080.770
624.5470, 1064.739
625.0291, 1060.666
625.5112, 1071.385
625.9933, 1078.710
626.4755, 1078.681
626.9576, 1074.363
627.4397, 1071.247
627.9218, 1069.325
628.4039, 1068.529
628.8860, 1071.993
629.3682, 1074.895
629.8503, 1067.907
630.3324, 1052.580
630.8145, 1040.798
631.2966, 1041.101
631.7787, 1046.420
632.2609, 1051.946
632.7430, 1056.737
633.2251, 1063.030
633.7072, 1074.910
634.1893, 1086.119
634.6714, 1091.491
635.1536, 1089.231
635.6357, 1084.391
636.1178, 1075.122
636.5999, 1065.801
637.0820, 1066.720
637.5641, 1078.442
638.0463, 1086.308
638.5284, 1084.616
639.0105, 1077.049
639.4926, 1069.160
639.9747, 1061.344
640.4568, 1056.063
640.9390, 1056.050
641.4211, 1058.371
641.9032, 1059.579
642.3853, 1059.428
642.8674, 1062.513
643.3495, 1075.218
643.8317, 1088.749
644.3138, 1096.993
644.7959, 1096.077
645.2780, 1095.740
645.7601, 1096.153
646.2422, 1096.992
646.7244, 1097.773
647.2065, 1098.319
647.6886, 1099.738
648.1707, 1102.321
648.6528, 1105.713
649.1349, 1109.314
649.6171, 1113.130
650.0992, 1117.302
650.5813, 1121.771
651.0634, 1126.706
651.5455, 1132.147
652.0276, 1138.201
652.5098, 1145.185
652.9919, 1151.737
653.4740, 1160.469
653.9561, 1174.521
654.4382, 1195.778
654.9203, 1212.408
655.4025, 1218.111
655.8846, 1222.743
656.3667, 1232.688
656.8488, 1249.181
657.3309, 1267.892
657.8130, 1289.706
658.2952, 1312.031
658.7773, 1330.284
659.2594, 1345.071
659.7415, 1361.865
660.2236, 1382.502
660.7057, 1405.240
661.1879, 1427.580
661.6700, 1449.816
662.1521, 1472.518
662.6342, 1495.164
663.1163, 1519.057
663.5984, 1543.589
664.0806, 1569.358
664.5627, 1600.915
665.0448, 1642.893
665.5269, 1687.566
666.0090, 1735.595
666.4911, 1790.023
666.9733, 1822.401
667.4554, 1831.498
667.9375, 1820.971
668.4196, 1791.194
668.9017, 1742.312
669.3839, 1682.622
669.8660, 1610.983
670.3481, 1538.700
670.8302, 1477.897
671.3123, 1426.720
671.7944, 1380.083
672.2766, 1331.238
672.7587, 1295.842
673.2408, 1288.378
673.7229, 1301.020
674.2050, 1318.198
674.6871, 1354.053
675.1693, 1373.823
675.6514, 1359.064
676.1335, 1317.976
676.6156, 1292.591
677.0977, 1285.938
677.5798, 1288.329
678.0620, 1298.020
678.5441, 1314.091
679.0262, 1324.516
679.5083, 1328.737
679.9904, 1338.000
680.4725, 1364.786
680.9547, 1401.618
681.4368, 1435.795
681.9189, 1465.276
682.4010, 1494.864
682.8831, 1522.511
683.3652, 1554.194
683.8474, 1597.238
684.3295, 1676.164
684.8116, 1730.160
685.2937, 1745.708
685.7758, 1733.731
686.2579, 1705.640
686.7401, 1659.084
687.2222, 1601.526
687.7043, 1529.112
688.1864, 1451.831
688.6685, 1394.562
689.1506, 1356.496
689.6328, 1324.711
690.1149, 1291.595
690.5970, 1262.197
691.0791, 1245.118
691.5612, 1238.932
692.0433, 1236.701
692.5255, 1236.131
693.0076, 1236.999
693.4897, 1238.893
693.9718, 1241.676
694.4539, 1247.034
694.9360, 1258.917
695.4182, 1269.911
695.9003, 1274.332
696.3824, 1267.670
696.8645, 1274.760
697.3466, 1298.659
697.8287, 1328.291
698.3109, 1352.762
698.7930, 1372.706
699.2751, 1390.410
699.7572, 1404.748
700.2393, 1421.880
700.7214, 1452.190
701.2036, 1488.831
701.6857, 1520.544
702.1678, 1548.877
702.6499, 1565.108
703.1320, 1566.448
703.6141, 1553.190
704.0963, 1525.245
704.5784, 1473.599
705.0605, 1421.851
705.5426, 1373.578
706.0247, 1328.961
706.5068, 1289.595
706.9890, 1255.176
707.4711, 1226.727
707.9532, 1207.779
708.4353, 1194.668
708.9174, 1176.740
709.3995, 1154.799
709.8817, 1137.549
710.3638, 1135.105
710.8459, 1137.472
711.3280, 1135.469
711.8101, 1127.397
712.2922, 1121.399
712.7744, 1119.723
713.2565, 1120.971
713.7386, 1124.572
714.2207, 1133.201
714.7028, 1136.948
715.1849, 1134.566
715.6671, 1129.518
716.1492, 1123.388
716.6313, 1116.830
717.1134, 1119.006
717.5955, 1134.087
718.0776, 1149.818
718.5598, 1147.056
719.0419, 1134.435
719.5240, 1128.905
720.0061, 1143.772
720.4882, 1158.140
720.9703, 1160.295
721.4525, 1155.160
721.9346, 1153.996
722.4167, 1163.077
722.8988, 1169.919
723.3809, 1171.297
723.8630, 1168.809
724.3452, 1168.321
724.8273, 1169.654
725.3094, 1174.233
725.7915, 1184.099
726.2736, 1197.182
726.7557, 1206.305
727.2379, 1212.471
727.7200, 1223.573
728.2021, 1256.772
728.6842, 1288.463
729.1663, 1298.511
729.6484, 1284.724
730.1306, 1263.757
730.6127, 1232.054
731.0948, 1201.279
731.5769, 1177.046
732.0590, 1159.092
732.5411, 1148.641
733.0233, 1147.256
733.5054, 1149.862
733.9875, 1154.293
734.4696, 1159.554
734.9517, 1156.613
735.4338, 1143.218
735.9160, 1129.170
736.3981, 1123.826
736.8802, 1124.448
737.3623, 1127.302
737.8444, 1132.626
738.3266, 1137.658
738.8087, 1142.024
739.2908, 1145.284
739.7729, 1146.618
740.2551, 1144.585
740.7372, 1143.619
741.2193, 1145.588
741.7014, 1147.751
742.1835, 1142.519
742.6656, 1129.803
743.1478, 1120.475
743.6299, 1117.522
744.1120, 1120.367
744.5941, 1131.501
745.0762, 1148.141
745.5583, 1162.008
746.0405, 1171.297
746.5226, 1174.385
747.0047, 1165.470
747.4868, 1147.579
747.9689, 1138.076
748.4510, 1144.413
748.9332, 1152.494
749.4153, 1158.598
749.8974, 1162.768
750.3795, 1165.677
750.8616, 1167.212
751.3438, 1168.297
751.8259, 1168.057
752.3080, 1168.085
752.7901, 1172.469
753.2722, 1181.185
753.7543, 1191.982
754.2365, 1206.465
754.7186, 1220.274
755.2007, 1228.724
755.6828, 1230.082
756.1649, 1234.024
756.6470, 1244.337
757.1292, 1255.839
757.6113, 1265.366
758.0934, 1272.201
758.5755, 1279.733
759.0576, 1287.440
759.5397, 1297.850
760.0219, 1314.574
760.5040, 1336.292
760.9861, 1357.449
761.4682, 1376.075
761.9503, 1399.121
762.4324, 1434.693
762.9146, 1476.917
763.3967, 1519.670
763.8788, 1568.431
764.3609, 1606.199
764.8430, 1629.962
765.3251, 1641.035
765.8073, 1637.168
766.2894, 1611.670
766.7715, 1598.890
767.2536, 1606.870
767.7357, 1623.383
768.2178, 1624.481
768.7000, 1615.250
769.1821, 1616.948
769.6642, 1638.496
770.1463, 1670.047
770.6284, 1704.531
771.1105, 1742.721
771.5927, 1786.110
772.0748, 1831.247
772.5569, 1886.620
773.0390, 1954.373
773.5211, 2033.052
774.0032, 2121.870
774.4854, 2225.585
774.9675, 2323.100
775.4496, 2413.874
775.9317, 2489.376
776.4138, 2532.471
776.8959, 2542.024
777.3781, 2513.986
777.8602, 2429.927
778.3423, 2320.312
778.8244, 2193.038
779.3065, 2057.267
779.7886, 1949.322
780.2708, 1887.250
780.7529, 1848.908
781.2350, 1828.012
781.7171, 1823.479
782.1992, 1823.961
782.6813, 1827.309
783.1635, 1844.304
783.6456, 1886.543
784.1277, 1945.669
784.6098, 2002.156
785.0919, 2054.265
785.5740, 2087.787
786.0562, 2099.317
786.5383, 2084.540
787.0204, 2032.250
787.5025, 1942.046
787.9846, 1851.782
788.4667, 1761.993
788.9489, 1682.862
789.4310, 1619.691
789.9131, 1573.791
790.3952, 1527.068
790.8773, 1478.120
791.3594, 1436.637
791.8416, 1412.728
792.3237, 1401.931
792.8058, 1393.201
793.2879, 1385.901
793.7700, 1380.694
794.2521, 1375.768
794.7343, 1374.615
795.2164, 1381.625
795.6985, 1399.846
796.1806, 1414.500
796.6627, 1420.596
797.1448, 1426.669
797.6270, 1438.109
798.1091, 1455.445
798.5912, 1474.167
799.0733, 1494.592
799.5554, 1515.500
800.0375, 1533.274
800.5197, 1551.091
801.0018, 1576.025
801.4839, 1609.488
801.9660, 1645.110
802.4481, 1680.482
802.9302, 1715.422
803.4124, 1750.880
803.8945, 1793.511
804.3766, 1821.948
804.8587, 1839.718
805.3408, 1838.572
805.8229, 1805.809
806.3051, 1741.635
806.7872, 1677.447
807.2693, 1614.989
807.7514, 1557.014
808.2335, 1504.546
808.7156, 1458.201
809.1978, 1419.233
809.6799, 1388.598
810.1620, 1362.983
810.6441, 1341.952
811.1262, 1324.805
811.6083, 1310.842
812.0905, 1298.730
812.5726, 1293.227
813.0547, 1297.277
813.5368, 1302.535
814.0189, 1297.343
814.5010, 1283.857
814.9832, 1275.119
815.4653, 1273.858
815.9474, 1274.639
816.4295, 1271.888
816.9116, 1268.430
817.3937, 1268.355
817.8759, 1276.812
818.3580, 1280.422
818.8401, 1270.487
819.3222, 1258.440
819.8043, 1255.553
820.2864, 1264.153
820.7686, 1271.416
821.2507, 1276.249
821.7328, 1279.283
822.2149, 1280.745
822.6970, 1281.019
823.1791, 1281.361
823.6613, 1282.573
824.1434, 1282.107
824.6255, 1274.794
825.1076, 1266.454
825.5897, 1263.668
826.0718, 1270.922
826.5540, 1279.657
827.0361, 1292.159
827.5182, 1303.582
828.0003, 1307.299
828.4824, 1303.380
828.9645, 1299.605
829.4467, 1296.601
829.9288, 1296.154
830.4109, 1305.380
830.8930, 1316.884
831.3751, 1317.669
831.8572, 1296.801
832.3394, 1282.421
832.8215, 1292.131
833.3036, 1308.984
833.7857, 1312.737
834.2678, 1294.647
834.7499, 1290.544
835.2321, 1306.725
835.7142, 1327.641
836.1963, 1332.719
836.6784, 1325.855
837.1605, 1320.205
837.6426, 1317.597
838.1248, 1319.760
838.6069, 1334.415
839.0890, 1351.563
839.5711, 1359.154
840.0532, 1343.561
840.5353, 1339.730
841.0175, 1357.969
841.4996, 1379.904
841.9817, 1385.586
842.4638, 1374.353
842.9459, 1362.693
843.4280, 1350.543
843.9102, 1346.501
844.3923, 1369.871
844.8744, 1404.531
845.3565, 1422.732
845.8386, 1414.848
846.3207, 1406.558
846.8029, 1407.382
847.2850, 1412.936
847.7671, 1419.306
848.2492, 1426.162
848.7313, 1435.035
849.2134, 1447.060
849.6956, 1458.040
850.1777, 1463.046
850.6598, 1463.526
851.1419, 1463.117
851.6240, 1461.718
852.1061, 1465.181
852.5883, 1479.718
853.0704, 1500.109
853.5525, 1522.879
854.0346, 1549.755
854.5167, 1570.352
854.9988, 1578.747
855.4810, 1587.853
855.9631, 1608.668
856.4452, 1641.535
856.9273, 1667.812
857.4094, 1686.417
857.8915, 1705.986
858.3737, 1732.602
858.8558, 1765.059
859.3379, 1802.510
859.8200, 1844.699
860.3021, 1889.611
860.7842, 1926.890
861.2664, 1974.639
861.7485, 2041.666
862.2306, 2129.555
862.7127, 2222.038
863.1948, 2314.614
863.6769, 2434.879
864.1591, 2599.389
864.6412, 2807.920
865.1233, 3055.840
865.6054, 3347.272
866.0875, 3707.296
866.5696, 4162.745
867.0518, 4687.209
867.5339, 5265.831
868.0160, 5907.833
868.4981, 6598.193
868.9802, 7337.935
869.4623, 8125.948
869.9445, 8948.660
870.4266, 9814.457
870.9087, 10748.90
871.3908, 11765.83
871.8729, 12875.82
872.3550, 14097.04
872.8372, 15420.33
873.3193, 16760.40
873.8014, 18173.31
874.2835, 19900.97
874.7656, 21912.48
875.2477, 24387.97
875.7299, 27486.38
876.2120, 31056.19
876.6941, 34979.50
877.1762, 39241.74
877.6583, 42395.13
878.1404, 44114.66
878.6226, 44018.80
879.1047, 40853.76
879.5869, 35462.31
880.0690, 29942.56
880.5511, 24445.23
881.0332, 19681.00
881.5153, 15910.65
881.9974, 12987.55
882.4796, 10659.07
882.9617, 8972.014
883.4438, 7629.062
883.9259, 6610.317
884.4080, 5832.288
884.8901, 5221.788
885.3723, 4751.404
885.8544, 4358.306
886.3365, 4043.358
886.8186, 3771.528
887.3007, 3534.889
887.7828, 3334.291
888.2650, 3171.300
888.7471, 3058.690
889.2292, 2951.909
889.7113, 2846.893
890.1934, 2747.565
890.6755, 2655.064
891.1577, 2571.498
891.6398, 2501.458
892.1219, 2447.499
892.6040, 2401.839
893.0861, 2366.424
893.5682, 2333.207
894.0504, 2293.306
894.5325, 2237.913
895.0146, 2196.767
895.4967, 2173.295
895.9788, 2157.798
896.4609, 2144.105
896.9431, 2131.879
897.4252, 2121.088
897.9073, 2111.782
898.3894, 2096.977
898.8715, 2059.294
899.3536, 2022.135
899.8358, 2007.407
900.3179, 2019.112
900.8000, 2029.232
901.2821, 2032.738
901.7642, 2036.761
902.2463, 2042.521
902.7285, 2051.072
903.2106, 2072.257
903.6927, 2105.833
904.1748, 2146.235
904.6569, 2188.400
905.1390, 2237.498
905.6212, 2300.111
906.1033, 2374.183
906.5854, 2454.414
907.0675, 2538.992
907.5496, 2629.685
908.0317, 2727.504
908.5139, 2830.899
908.9960, 2934.181
909.4781, 3036.932
909.9602, 3155.598
910.4423, 3295.017
910.9244, 3452.115
911.4066, 3620.176
911.8887, 3802.525
912.3708, 4008.134
912.8529, 4240.225
913.3350, 4495.909
913.8171, 4785.509
914.2993, 5087.189
914.7814, 5388.492
915.2635, 5696.344
915.7456, 5916.512
916.2277, 6039.635
916.7098, 6055.250
917.1920, 5917.148
917.6741, 5676.966
918.1562, 5393.990
918.6383, 5057.965
919.1204, 4772.127
919.6025, 4563.050
920.0847, 4421.859
920.5668, 4342.673
921.0489, 4324.840
921.5310, 4393.912
922.0131, 4559.808
922.4952, 4726.918
922.9774, 4869.781
923.4595, 4938.897
923.9416, 4836.667
924.4237, 4566.200
924.9058, 4257.087
925.3879, 3915.511
925.8701, 3589.806
926.3522, 3285.015
926.8343, 3005.517
927.3164, 2798.384
927.7985, 2665.514
928.2806, 2577.769
928.7628, 2533.294
929.2449, 2516.696
929.7270, 2502.530
930.2091, 2495.978
930.6912, 2510.720
931.1733, 2567.934
931.6555, 2629.116
932.1376, 2676.707
932.6197, 2723.559
933.1018, 2790.368
933.5839, 2878.069
934.0660, 2985.852
934.5482, 3119.042
935.0303, 3258.174
935.5124, 3384.887
935.9945, 3500.388
936.4766, 3611.578
936.9587, 3739.875
937.4409, 3813.922
937.9230, 3794.550
938.4051, 3722.845
938.8872, 3623.232
939.3693, 3486.918
939.8514, 3365.082
940.3336, 3257.398
940.8157, 3175.616
941.2978, 3130.807
941.7799, 3117.123
942.2620, 3123.801
942.7441, 3150.693
943.2263, 3209.725
943.7084, 3318.041
944.1905, 3446.625
944.6726, 3579.171
945.1547, 3719.896
945.6368, 3893.388
946.1190, 4101.156
946.6011, 4340.594
947.0832, 4608.302
947.5653, 4910.237
948.0474, 5298.843
948.5295, 5728.815
949.0117, 6094.766
949.4938, 6455.289
949.9759, 6617.720
950.4580, 6535.853
950.9401, 6261.469
951.4222, 5835.769
951.9044, 5254.335
952.3865, 4686.589
952.8686, 4151.723
953.3507, 3672.950
953.8328, 3272.927
954.3149, 2944.730
954.7971, 2683.171
955.2792, 2502.465
955.7613, 2352.543
956.2434, 2230.597
956.7255, 2129.459
957.2076, 2049.897
957.6898, 1990.897
958.1719, 1922.299
958.6540, 1843.896
959.1361, 1778.503
959.6182, 1749.175
960.1003, 1733.383
960.5825, 1712.569
961.0646, 1686.568
961.5467, 1659.022
962.0288, 1625.146
962.5109, 1598.738
962.9930, 1585.649
963.4752, 1580.397
963.9573, 1569.122
964.4394, 1553.177
964.9215, 1540.096
965.4036, 1531.687
965.8857, 1528.337
966.3679, 1539.386
966.8500, 1551.875
967.3321, 1548.004
967.8142, 1509.968
968.2963, 1483.788
968.7784, 1471.616
969.2606, 1467.762
969.7427, 1469.659
970.2248, 1475.310
970.7069, 1477.136
971.1890, 1474.597
971.6711, 1471.414
972.1533, 1472.615
972.6354, 1471.842
973.1175, 1461.381
973.5996, 1441.697
974.0817, 1434.851
974.5638, 1444.154
975.0460, 1454.785
975.5281, 1461.699
976.0102, 1465.109
976.4923, 1464.660
976.9744, 1461.110
977.4565, 1456.683
977.9387, 1449.591
978.4208, 1445.017
978.9029, 1445.625
979.3850, 1449.461
979.8671, 1454.295
980.3492, 1460.309
980.8314, 1466.106
981.3135, 1471.511
981.7956, 1476.862
982.2777, 1483.233
982.7598, 1489.548
983.2419, 1492.594
983.7241, 1490.763
984.2062, 1495.648
984.6883, 1517.927
985.1704, 1540.506
985.6525, 1555.893
986.1346, 1564.738
986.6168, 1571.521
987.0989, 1576.520
987.5810, 1588.401
988.0631, 1615.059
988.5452, 1648.550
989.0273, 1685.485
989.5095, 1722.971
989.9916, 1753.010
990.4737, 1765.767
990.9558, 1784.802
991.4379, 1815.439
991.9200, 1849.408
992.4022, 1875.604
992.8843, 1893.903
993.3664, 1903.469
993.8485, 1902.983
994.3306, 1900.541
994.8127, 1904.435
995.2949, 1906.952
995.7770, 1901.177
996.2591, 1886.600
996.7412, 1864.739
997.2233, 1832.292
997.7054, 1805.291
998.1876, 1795.548
998.6697, 1797.345
999.1518, 1798.447
999.6339, 1799.602
1000.116, 1803.755
1000.598, 1814.250
1001.080, 1825.658
1001.562, 1834.473
1002.044, 1843.795
1002.527, 1859.481
1003.009, 1881.511
1003.491, 1908.758
1003.973, 1940.883
1004.455, 1976.654
1004.937, 2014.188
1005.419, 2054.282
1005.901, 2095.653
1006.384, 2134.767
1006.866, 2189.579
1007.348, 2262.391
1007.830, 2348.836
1008.312, 2451.264
1008.794, 2565.496
1009.276, 2665.910
1009.758, 2754.625
1010.240, 2852.378
1010.723, 2985.147
1011.205, 3117.088
1011.687, 3221.460
1012.169, 3307.741
1012.651, 3402.530
1013.133, 3508.794
1013.615, 3618.009
1014.097, 3726.892
1014.580, 3844.379
1015.062, 3983.126
1015.544, 4137.338
1016.026, 4303.541
1016.508, 4485.853
1016.990, 4645.027
1017.472, 4759.833
1017.954, 4851.079
1018.436, 4940.452
1018.919, 5024.357
1019.401, 5034.574
1019.883, 4971.028
1020.365, 4857.795
1020.847, 4703.715
1021.329, 4510.738
1021.811, 4258.035
1022.293, 3970.199
1022.776, 3702.068
1023.258, 3468.842
1023.740, 3247.577
1024.222, 3034.294
1024.704, 2834.643
1025.186, 2656.090
1025.668, 2498.596
1026.150, 2372.983
1026.632, 2281.779
1027.115, 2196.336
1027.597, 2088.818
1028.079, 1990.460
1028.561, 1925.099
1029.043, 1890.950
1029.525, 1855.151
1030.007, 1818.297
1030.489, 1779.469
1030.972, 1735.474
1031.454, 1692.604
1031.936, 1658.454
1032.418, 1631.651
1032.900, 1609.714
1033.382, 1593.215
1033.864, 1579.834
1034.346, 1571.179
1034.828, 1562.817
1035.311, 1549.875
1035.793, 1532.737
1036.275, 1512.445
1036.757, 1488.879
1037.239, 1471.768
1037.721, 1475.411
1038.203, 1481.526
1038.685, 1477.287
1039.167, 1463.039
1039.650, 1446.556
1040.132, 1425.831
1040.614, 1412.819
1041.096, 1414.144
1041.578, 1421.256
1042.060, 1421.993
1042.542, 1418.236
1043.024, 1413.388
1043.507, 1408.014
1043.989, 1402.491
1044.471, 1396.419
1044.953, 1390.673
1045.435, 1385.405
1045.917, 1380.776
1046.399, 1379.632
1046.881, 1381.842
1047.364, 1383.505
1047.846, 1382.652
1048.328, 1379.732
1048.810, 1372.679
1049.292, 1363.553
1049.774, 1361.295
1050.256, 1369.163
1050.738, 1372.205
1051.220, 1366.671
1051.703, 1357.295
1052.185, 1346.793
1052.667, 1338.738
1053.149, 1341.625
1053.631, 1360.828
1054.113, 1373.035
1054.595, 1368.450
1055.077, 1359.305
1055.559, 1349.785
1056.042, 1340.702
1056.524, 1338.500
1057.006, 1342.398
1057.488, 1346.021
1057.970, 1345.872
1058.452, 1344.382
1058.934, 1341.418
1059.416, 1338.691
1059.899, 1339.914
1060.381, 1347.460
1060.863, 1349.849
1061.345, 1345.077
1061.827, 1339.682
1062.309, 1340.536
1062.791, 1345.027
1063.273, 1351.197
1063.755, 1358.631
1064.238, 1359.899
1064.720, 1345.876
1065.202, 1334.723
1065.684, 1332.891
1066.166, 1336.740
1066.648, 1335.384
1067.130, 1330.283
1067.612, 1328.066
1068.094, 1330.989
1068.577, 1336.961
1069.059, 1354.258
1069.541, 1367.290
1070.023, 1358.536
1070.505, 1321.346
1070.987, 1302.089
1071.469, 1301.771
1071.951, 1306.931
1072.434, 1308.305
1072.916, 1309.930
1073.398, 1319.540
1073.880, 1333.910
1074.362, 1341.468
1074.844, 1333.670
1075.326, 1329.953
1075.808, 1334.882
1076.291, 1340.757
1076.773, 1333.748
1077.255, 1319.143
1077.737, 1312.885
1078.219, 1317.602
1078.701, 1323.770
1079.183, 1328.387
1079.665, 1331.373
1080.147, 1333.542
1080.630, 1334.303
1081.112, 1327.375
1081.594, 1313.239
1082.076, 1307.314
1082.558, 1318.984
1083.040, 1334.147
1083.522, 1342.517
1084.004, 1345.681
1084.486, 1345.339
1084.969, 1340.870
1085.451, 1334.921
1085.933, 1326.507
1086.415, 1320.500
1086.897, 1322.737
1087.379, 1328.838
1087.861, 1331.931
1088.343, 1332.048
1088.826, 1330.117
1089.308, 1318.896
1089.790, 1316.944
1090.272, 1332.129
1090.754, 1352.154
1091.236, 1357.080
1091.718, 1349.664
1092.200, 1342.519
1092.682, 1337.669
1093.165, 1331.396
1093.647, 1314.659
1094.129, 1302.118
1094.611, 1305.119
1095.093, 1321.025
1095.575, 1333.145
1096.057, 1341.543
1096.539, 1344.156
1097.022, 1338.585
1097.504, 1330.093
1097.986, 1320.085
1098.468, 1312.237
1098.950, 1312.693
1099.432, 1328.037
1099.914, 1335.402
1100.396, 1332.386
1100.879, 1328.793
1101.361, 1331.663
1101.843, 1338.807
1102.325, 1349.196
1102.807, 1360.653
1103.289, 1365.177
1103.771, 1352.504
1104.253, 1342.456
1104.735, 1339.011
1105.218, 1338.711
1105.700, 1336.785
1106.182, 1333.756
1106.664, 1332.107
1107.146, 1332.098
1107.628, 1333.403
1108.110, 1337.173
1108.592, 1340.843
1109.074, 1342.660
1109.557, 1343.192
1110.039, 1344.698
1110.521, 1347.203
1111.003, 1349.869
1111.485, 1352.881
1111.967, 1354.592
1112.449, 1351.590
1112.931, 1347.464
1113.414, 1346.320
1113.896, 1349.172
1114.378, 1352.229
1114.860, 1355.917
1115.342, 1357.958
1115.824, 1357.280
1116.306, 1353.998
1116.788, 1342.608
1117.271, 1329.443
1117.753, 1328.566
1118.235, 1361.639
1118.717, 1381.443
1119.199, 1383.024
1119.681, 1375.095
1120.163, 1363.335
1120.645, 1349.432
1121.127, 1336.585
1121.609, 1325.529
1122.092, 1321.544
1122.574, 1336.647
1123.056, 1347.667
1123.538, 1343.750
1124.020, 1333.908
1124.502, 1338.742
1124.984, 1355.836
1125.466, 1363.835
1125.949, 1358.074
1126.431, 1349.472
1126.913, 1342.152
1127.395, 1337.831
1127.877, 1340.017
1128.359, 1347.202
1128.841, 1346.175
1129.323, 1336.287
1129.806, 1330.003
1130.288, 1332.974
1130.770, 1338.923
1131.252, 1344.517
1131.734, 1347.813
1132.216, 1345.705
1132.698, 1336.510
1133.180, 1325.227
1133.662, 1309.304
1134.145, 1302.508
1134.627, 1321.637
1135.109, 1349.952
1135.591, 1361.934
1136.073, 1361.469
1136.555, 1358.084
1137.037, 1349.098
1137.519, 1345.854
1138.001, 1350.428
1138.484, 1357.813
1138.966, 1366.701
1139.448, 1373.331
1139.930, 1362.654
1140.412, 1336.810
1140.894, 1321.965
1141.376, 1341.408
1141.858, 1357.153
1142.341, 1358.820
1142.823, 1351.980
1143.305, 1344.972
1143.787, 1338.275
1144.269, 1334.504
1144.751, 1334.407
1145.233, 1333.688
1145.715, 1327.873
1146.198, 1322.768
1146.680, 1320.860
1147.162, 1322.224
1147.644, 1330.162
1148.126, 1343.722
1148.608, 1348.785
1149.090, 1337.537
1149.572, 1325.849
1150.054, 1324.848
1150.536, 1329.812
1151.019, 1337.467
1151.501, 1348.135
1151.983, 1353.385
1152.465, 1353.177
1152.947, 1349.333
1153.429, 1339.364
1153.911, 1330.112
1154.393, 1329.097
1154.876, 1333.109
1155.358, 1337.150
1155.840, 1342.768
1156.322, 1340.598
1156.804, 1328.487
1157.286, 1319.480
1157.768, 1328.611
1158.250, 1343.722
1158.733, 1348.925
1159.215, 1346.488
1159.697, 1347.063
1160.179, 1355.586
1160.661, 1359.268
1161.143, 1355.154
1161.625, 1350.132
1162.107, 1354.219
1162.589, 1361.871
1163.072, 1363.147
1163.554, 1357.672
1164.036, 1352.748
1164.518, 1349.118
1165.000, 1348.776
1165.482, 1354.862
1165.964, 1360.232
1166.446, 1346.856
1166.928, 1323.883
1167.411, 1312.153
1167.893, 1316.622
1168.375, 1324.286
1168.857, 1335.105
1169.339, 1342.904
1169.821, 1343.807
1170.303, 1341.012
1170.785, 1345.792
1171.268, 1355.052
1171.750, 1357.983
1172.232, 1347.868
1172.714, 1339.695
1173.196, 1339.636
1173.678, 1343.535
1174.160, 1350.364
1174.642, 1359.289
1175.125, 1365.721
1175.607, 1369.095
1176.089, 1365.773
1176.571, 1343.230
1177.053, 1327.961
1177.535, 1338.235
1178.017, 1356.459
1178.499, 1367.212
1178.981, 1370.642
1179.464, 1373.867
1179.946, 1376.702
1180.428, 1374.534
1180.910, 1352.512
1181.392, 1337.775
1181.874, 1355.584
1182.356, 1384.466
1182.838, 1389.105
1183.320, 1368.392
1183.803, 1359.279
1184.285, 1364.953
1184.767, 1371.430
1185.249, 1369.003
1185.731, 1362.983
1186.213, 1353.245
1186.695, 1343.433
1187.177, 1344.614
1187.660, 1357.748
1188.142, 1366.825
1188.624, 1368.872
1189.106, 1369.183
1189.588, 1372.466
1190.070, 1375.885
1190.552, 1377.365
1191.034, 1376.813
1191.516, 1373.999
1191.999, 1368.478
1192.481, 1364.948
1192.963, 1364.791
1193.445, 1366.029
1193.927, 1364.319
1194.409, 1364.607
1194.891, 1375.093
1195.373, 1396.464
1195.855, 1404.674
1196.338, 1398.507
1196.820, 1389.631
1197.302, 1380.802
1197.784, 1374.963
1198.266, 1378.377
1198.748, 1385.148
1199.230, 1386.730
1199.712, 1380.340
1200.195, 1382.847
1200.677, 1395.797
1201.159, 1406.873
1201.641, 1409.477
1202.123, 1406.837
1202.605, 1399.234
1203.087, 1390.117
1203.569, 1385.114
1204.052, 1385.468
1204.534, 1387.675
1205.016, 1391.863
1205.498, 1397.238
1205.980, 1404.431
1206.462, 1411.643
1206.944, 1420.596
1207.426, 1427.395
1207.908, 1420.447
1208.391, 1387.124
1208.873, 1377.256
1209.355, 1396.398
1209.837, 1419.800
1210.319, 1424.791
1210.801, 1423.715
1211.283, 1433.833
1211.765, 1450.139
1212.247, 1452.043
1212.730, 1432.227
1213.212, 1418.499
1213.694, 1414.446
1214.176, 1413.354
1214.658, 1406.547
1215.140, 1400.492
1215.622, 1406.599
1216.104, 1421.728
1216.587, 1423.869
1217.069, 1406.043
1217.551, 1397.034
1218.033, 1403.409
1218.515, 1411.318
1218.997, 1401.534
1219.479, 1387.344
1219.961, 1384.600
1220.443, 1393.889
1220.926, 1401.620
1221.408, 1407.087
1221.890, 1410.730
1222.372, 1411.819
1222.854, 1414.028
1223.336, 1427.034
1223.818, 1440.271
1224.300, 1439.521
1224.782, 1422.477
1225.265, 1411.509
1225.747, 1407.903
1226.229, 1403.965
1226.711, 1395.964
1227.193, 1390.486
1227.675, 1398.728
1228.157, 1412.189
1228.639, 1421.415
1229.122, 1425.245
1229.604, 1423.606
1230.086, 1415.498
1230.568, 1408.524
1231.050, 1405.684
1231.532, 1405.071
1232.014, 1405.163
1232.496, 1405.832
1232.979, 1407.153
1233.461, 1409.274
1233.943, 1409.913
1234.425, 1408.744
1234.907, 1409.631
1235.389, 1416.897
1235.871, 1422.923
1236.353, 1416.117
1236.835, 1405.796
1237.318, 1406.074
1237.800, 1419.868
1238.282, 1422.906
1238.764, 1414.702
1239.246, 1405.142
1239.728, 1397.498
1240.210, 1393.676
1240.692, 1397.161
1241.175, 1404.739
1241.657, 1412.798
1242.139, 1422.431
1242.621, 1423.139
1243.103, 1414.839
1243.585, 1407.504
1244.067, 1407.365
1244.549, 1410.049
1245.031, 1413.423
1245.514, 1417.450
1245.996, 1423.873
1246.478, 1433.935
1246.960, 1426.983
1247.442, 1403.757
1247.924, 1386.064
1248.406, 1391.012
1248.888, 1402.261
1249.370, 1415.661
1249.853, 1427.033
1250.335, 1429.717
1250.817, 1424.081
1251.299, 1423.945
1251.781, 1429.286
1252.263, 1430.934
1252.745, 1416.972
1253.227, 1405.479
1253.710, 1405.937
1254.192, 1412.054
1254.674, 1417.145
1255.156, 1421.195
1255.638, 1424.984
1256.120, 1428.225
1256.602, 1427.281
1257.084, 1414.303
1257.567, 1404.329
1258.049, 1402.688
1258.531, 1405.399
1259.013, 1405.826
1259.495, 1405.997
1259.977, 1417.188
1260.459, 1438.500
1260.941, 1451.195
1261.423, 1437.009
1261.906, 1425.925
1262.388, 1424.417
1262.870, 1429.178
1263.352, 1441.483
1263.834, 1454.561
1264.316, 1447.787
1264.798, 1421.617
1265.280, 1404.458
1265.762, 1407.793
1266.245, 1418.070
1266.727, 1437.002
1267.209, 1452.690
1267.691, 1442.619
1268.173, 1421.156
1268.655, 1411.341
1269.137, 1414.878
1269.619, 1424.047
1270.102, 1443.088
1270.584, 1451.639
1271.066, 1443.712
1271.548, 1429.863
1272.030, 1417.175
1272.512, 1410.437
1272.994, 1421.057
1273.476, 1447.449
1273.958, 1456.725
1274.441, 1444.159
1274.923, 1433.546
1275.405, 1430.024
1275.887, 1430.248
1276.369, 1435.174
1276.851, 1438.701
1277.333, 1431.754
1277.815, 1416.985
1278.297, 1412.431
1278.780, 1418.552
1279.262, 1426.970
1279.744, 1436.758
1280.226, 1442.179
1280.708, 1433.656
1281.190, 1423.542
1281.672, 1420.512
1282.154, 1423.290
1282.637, 1429.693
1283.119, 1438.786
1283.601, 1440.201
1284.083, 1430.543
1284.565, 1422.387
1285.047, 1426.498
1285.529, 1430.376
1286.011, 1426.609
1286.494, 1419.177
1286.976, 1419.245
1287.458, 1425.373
1287.940, 1434.525
1288.422, 1447.220
1288.904, 1453.007
1289.386, 1440.280
1289.868, 1430.554
1290.350, 1432.064
1290.833, 1438.770
1291.315, 1438.730
1291.797, 1434.818
1292.279, 1432.614
1292.761, 1433.268
1293.243, 1434.501
1293.725, 1436.489
1294.207, 1437.668
1294.689, 1437.505
1295.172, 1436.385
1295.654, 1433.893
1296.136, 1431.336
1296.618, 1431.051
1297.100, 1433.651
1297.582, 1432.889
1298.064, 1427.980
1298.546, 1424.603
1299.029, 1424.493
1299.511, 1426.637
1299.993, 1429.889
1300.475, 1434.907
1300.957, 1445.655
1301.439, 1459.783
1301.921, 1459.664
##END=



