##NAMES=Phenakite
##RRUFFID=R050137
##IDEAL CHEMISTRY=Be_2_SiO_4_
##LOCALITY=Mount Antero area, Chaffee County, Colorado, USA
##OWNER=RRUFF
##SOURCE=Dave Bunk Minerals
##DESCRIPTION=Colorless tabular hexagonal crystal
##STATUS=The identification of this mineral has been confirmed by X-ray diffraction and chemical analysis
##URL=rruff.info/R050137
##MEASURED CHEMISTRY=Be_2.00_Si_1.00_O_4_
93.08527, 0.0000000E+00
93.56738, 83.84395
94.04950, 84.43722
94.53162, 85.31575
95.01373, 85.49062
95.49585, 85.42077
95.97797, 85.19908
96.46008, 84.81843
96.94220, 84.43274
97.42432, 83.96877
97.90643, 83.42007
98.38855, 82.80721
98.87067, 82.14253
99.35278, 81.44598
99.83490, 80.74944
100.3170, 80.09274
100.7991, 79.40897
101.2813, 78.63258
101.7634, 77.56825
102.2455, 76.47102
102.7276, 75.62268
103.2097, 75.16887
103.6918, 75.06847
104.1740, 75.18362
104.6561, 75.87693
105.1382, 76.35416
105.6203, 76.33004
106.1024, 75.82762
106.5845, 74.96329
107.0667, 73.59014
107.5488, 71.88906
108.0309, 70.66695
108.5130, 70.06559
108.9951, 69.91584
109.4772, 70.18110
109.9594, 71.03772
110.4415, 71.72367
110.9236, 71.60367
111.4057, 70.93835
111.8878, 70.17290
112.3699, 69.43350
112.8521, 68.73888
113.3342, 68.27933
113.8163, 68.15025
114.2984, 68.19154
114.7805, 68.45059
115.2626, 68.84799
115.7448, 69.16911
116.2269, 69.16148
116.7090, 68.69180
117.1911, 68.35625
117.6732, 68.31461
118.1553, 68.26882
118.6375, 67.97549
119.1196, 67.42295
119.6017, 66.84792
120.0838, 66.64793
120.5659, 67.19465
121.0480, 67.57630
121.5302, 67.75225
122.0123, 67.78111
122.4944, 67.72770
122.9765, 67.61907
123.4586, 67.43299
123.9407, 67.04300
124.4228, 66.18754
124.9050, 65.63994
125.3871, 65.97261
125.8692, 66.90418
126.3513, 67.47172
126.8334, 67.01303
127.3155, 66.03598
127.7977, 65.64134
128.2798, 66.15034
128.7619, 66.77538
129.2440, 66.68639
129.7261, 65.75697
130.2083, 64.92603
130.6904, 64.64116
131.1725, 64.69153
131.6546, 64.99208
132.1367, 65.63900
132.6188, 66.37249
133.1010, 66.49688
133.5831, 65.51393
134.0652, 64.71245
134.5473, 64.47894
135.0294, 64.62392
135.5115, 64.86699
135.9937, 65.00595
136.4758, 65.06832
136.9579, 65.50371
137.4400, 66.55647
137.9221, 67.77245
138.4042, 69.15266
138.8864, 70.61917
139.3685, 72.08958
139.8506, 73.53117
140.3327, 75.00267
140.8148, 75.85192
141.2969, 76.03082
141.7791, 75.77141
142.2612, 74.94174
142.7433, 73.63204
143.2254, 72.40379
143.7075, 71.91496
144.1896, 72.32088
144.6718, 72.63817
145.1539, 72.71732
145.6360, 72.72500
146.1181, 72.86605
146.6002, 73.19907
147.0823, 73.58442
147.5645, 73.80125
148.0466, 73.87354
148.5287, 74.07138
149.0108, 74.48747
149.4929, 75.10936
149.9750, 75.93391
150.4572, 77.10469
150.9393, 78.29182
151.4214, 79.24570
151.9035, 79.97069
152.3856, 80.56156
152.8677, 80.92010
153.3499, 80.99612
153.8320, 81.58797
154.3141, 83.16028
154.7962, 85.10258
155.2783, 87.01529
155.7604, 88.89436
156.2425, 91.15141
156.7247, 93.94051
157.2068, 96.19796
157.6889, 102.0460
158.1710, 108.4936
158.6531, 119.7541
159.1352, 142.0775
159.6174, 176.2639
160.0995, 214.6297
160.5816, 241.9228
161.0637, 261.5539
161.5458, 262.0921
162.0279, 231.4758
162.5101, 187.4613
162.9922, 146.6984
163.4743, 116.1578
163.9564, 94.66743
164.4385, 79.24930
164.9206, 72.29984
165.4028, 67.66315
165.8849, 65.39776
166.3670, 64.74179
166.8491, 64.34438
167.3312, 63.61219
167.8133, 62.66614
168.2955, 61.87939
168.7776, 61.25518
169.2597, 60.75130
169.7418, 60.28716
170.2239, 59.89827
170.7060, 59.81907
171.1882, 60.42362
171.6703, 61.27195
172.1524, 61.48065
172.6345, 60.67302
173.1166, 59.71669
173.5987, 59.46783
174.0809, 59.99903
174.5630, 60.55052
175.0451, 60.77177
175.5272, 60.81392
176.0093, 60.81002
176.4914, 60.81367
176.9736, 60.75347
177.4557, 60.45161
177.9378, 59.73978
178.4199, 59.21127
178.9020, 59.08383
179.3841, 59.20094
179.8663, 59.42597
180.3484, 59.70533
180.8305, 60.03527
181.3126, 60.42513
181.7947, 61.08680
182.2768, 61.47962
182.7590, 61.33775
183.2411, 60.93562
183.7232, 60.60899
184.2053, 60.55163
184.6874, 60.72142
185.1695, 60.86009
185.6517, 60.84635
186.1338, 60.93036
186.6159, 61.24958
187.0980, 61.68559
187.5801, 62.03836
188.0622, 62.17069
188.5444, 62.10191
189.0265, 62.10220
189.5086, 62.22071
189.9907, 62.34502
190.4728, 62.46895
190.9549, 62.57478
191.4371, 62.59578
191.9192, 62.44142
192.4013, 62.15564
192.8834, 62.24443
193.3655, 63.04744
193.8476, 63.85707
194.3298, 64.25166
194.8119, 64.28540
195.2940, 64.31406
195.7761, 64.54334
196.2582, 65.00352
196.7403, 65.63884
197.2225, 66.13103
197.7046, 67.02284
198.1867, 68.34229
198.6688, 70.08601
199.1509, 73.43181
199.6330, 79.85458
200.1152, 88.49184
200.5973, 97.48540
201.0794, 108.2487
201.5615, 118.1310
202.0436, 123.6787
202.5257, 124.4158
203.0079, 122.7905
203.4900, 117.9747
203.9721, 112.1453
204.4542, 108.1620
204.9363, 107.3593
205.4184, 108.7155
205.9006, 110.3569
206.3827, 112.1841
206.8648, 114.5587
207.3469, 117.3644
207.8290, 120.7885
208.3111, 125.1963
208.7933, 130.9021
209.2754, 137.5459
209.7575, 144.3354
210.2396, 152.2543
210.7217, 158.5234
211.2038, 161.9436
211.6860, 163.6514
212.1681, 164.9070
212.6502, 166.2664
213.1323, 167.8706
213.6144, 170.3050
214.0965, 173.5029
214.5787, 177.8160
215.0608, 182.7630
215.5429, 188.9171
216.0250, 196.2545
216.5071, 204.4810
216.9892, 214.6340
217.4714, 233.0153
217.9535, 252.9422
218.4356, 290.0130
218.9177, 340.3476
219.3998, 410.5350
219.8819, 521.6613
220.3641, 691.6558
220.8462, 901.4472
221.3283, 1020.067
221.8104, 1030.670
222.2925, 975.9320
222.7746, 816.4337
223.2568, 600.1750
223.7389, 406.2783
224.2210, 278.5994
224.7031, 209.9408
225.1852, 166.0636
225.6673, 153.6023
226.1495, 152.1447
226.6316, 156.8260
227.1137, 168.4287
227.5958, 188.5459
228.0779, 217.2201
228.5600, 256.1719
229.0422, 311.6979
229.5243, 416.4646
230.0064, 495.2910
230.4885, 517.2037
230.9706, 490.3041
231.4527, 432.8041
231.9349, 342.0909
232.4170, 236.5214
232.8991, 161.2470
233.3812, 121.6982
233.8633, 97.62082
234.3454, 83.35482
234.8276, 77.49252
235.3097, 74.37481
235.7918, 72.46126
236.2739, 71.62225
236.7560, 71.59950
237.2381, 72.82022
237.7203, 73.57871
238.2024, 72.26067
238.6845, 69.21562
239.1666, 66.85571
239.6487, 66.16167
240.1308, 66.41326
240.6130, 66.71329
241.0951, 67.06151
241.5772, 67.32107
242.0593, 67.31185
242.5414, 67.05819
243.0235, 66.95158
243.5057, 67.26913
243.9878, 67.60275
244.4699, 67.52479
244.9520, 67.02048
245.4341, 66.57584
245.9162, 66.68653
246.3984, 67.34863
246.8805, 67.84429
247.3626, 67.77141
247.8447, 67.76802
248.3268, 68.25225
248.8089, 69.21296
249.2911, 70.35947
249.7732, 71.25089
250.2553, 71.84464
250.7374, 73.23825
251.2195, 75.44089
251.7016, 78.65588
252.1838, 82.65849
252.6659, 87.62761
253.1480, 94.30396
253.6301, 104.6711
254.1122, 119.3086
254.5943, 129.3692
255.0765, 135.2429
255.5586, 135.4379
256.0407, 126.2742
256.5228, 110.3340
257.0049, 94.06786
257.4870, 82.46690
257.9691, 75.58183
258.4513, 70.90487
258.9334, 70.17711
259.4155, 70.25808
259.8976, 70.88796
260.3797, 71.68896
260.8618, 72.10874
261.3440, 71.67497
261.8261, 70.42583
262.3082, 69.47604
262.7903, 69.03178
263.2724, 68.71575
263.7545, 68.28135
264.2367, 67.93564
264.7188, 68.13628
265.2009, 69.26073
265.6830, 71.12299
266.1651, 72.15742
266.6472, 71.23356
267.1294, 70.65383
267.6115, 70.88222
268.0936, 71.67385
268.5757, 72.65989
269.0578, 73.64375
269.5399, 74.62634
270.0221, 75.60410
270.5042, 76.41631
270.9863, 77.41311
271.4684, 78.52562
271.9505, 79.87553
272.4326, 81.50181
272.9148, 83.42256
273.3969, 85.83504
273.8790, 89.27052
274.3611, 93.58902
274.8432, 99.28429
275.3253, 106.2529
275.8075, 114.6718
276.2896, 124.4315
276.7717, 135.5426
277.2538, 148.8664
277.7359, 166.5175
278.2180, 198.3515
278.7002, 218.5785
279.1823, 226.6768
279.6644, 223.2521
280.1465, 204.7473
280.6286, 171.2644
281.1107, 133.0889
281.5929, 104.7033
282.0750, 89.47204
282.5571, 77.88298
283.0392, 71.03064
283.5213, 67.01425
284.0034, 64.85623
284.4856, 64.20333
284.9677, 64.21524
285.4498, 64.02715
285.9319, 63.57434
286.4140, 63.25994
286.8961, 63.07086
287.3783, 63.02163
287.8604, 63.20842
288.3425, 63.59352
288.8246, 63.94441
289.3067, 64.04601
289.7888, 63.88921
290.2710, 63.82533
290.7531, 63.68537
291.2352, 63.77376
291.7173, 64.24071
292.1994, 65.08511
292.6815, 66.20466
293.1637, 67.43053
293.6458, 68.92871
294.1279, 71.53210
294.6100, 75.85693
295.0921, 80.47006
295.5742, 85.93395
296.0564, 91.35482
296.5385, 94.33269
297.0206, 93.56906
297.5027, 89.70993
297.9848, 84.43456
298.4669, 76.27711
298.9491, 69.44884
299.4312, 65.60007
299.9133, 63.91888
300.3954, 62.93354
300.8775, 62.18006
301.3596, 61.70748
301.8418, 61.61421
302.3239, 61.78383
302.8060, 62.52708
303.2881, 64.68067
303.7702, 67.20667
304.2523, 68.61122
304.7345, 68.51915
305.2166, 67.50612
305.6987, 65.97240
306.1808, 63.81841
306.6629, 62.40779
307.1451, 62.48377
307.6272, 63.08988
308.1093, 63.23867
308.5914, 62.80444
309.0735, 62.20086
309.5556, 61.69230
310.0378, 61.31610
310.5199, 61.30233
311.0020, 61.99054
311.4841, 62.80229
311.9662, 63.19453
312.4483, 63.21144
312.9305, 63.43988
313.4126, 64.38146
313.8947, 65.83186
314.3768, 66.81635
314.8589, 67.07935
315.3410, 67.16184
315.8232, 67.34911
316.3053, 67.59106
316.7874, 67.66373
317.2695, 67.37303
317.7516, 66.96445
318.2337, 67.04057
318.7159, 67.69329
319.1980, 68.50398
319.6801, 69.39226
320.1622, 70.32307
320.6443, 71.28943
321.1264, 72.34017
321.6086, 73.25099
322.0907, 73.46470
322.5728, 72.85173
323.0549, 72.67753
323.5370, 73.49944
324.0191, 74.79395
324.5013, 75.82597
324.9834, 76.45403
325.4655, 77.14260
325.9476, 78.31235
326.4297, 79.98396
326.9118, 82.14966
327.3940, 85.43520
327.8761, 88.77584
328.3582, 91.39123
328.8403, 93.22475
329.3224, 94.34579
329.8045, 94.67126
330.2867, 94.26213
330.7688, 93.82922
331.2509, 93.14572
331.7330, 92.65745
332.2151, 92.69379
332.6972, 93.13110
333.1794, 93.54517
333.6615, 93.68713
334.1436, 93.74055
334.6257, 94.29887
335.1078, 95.81843
335.5899, 96.84853
336.0721, 96.56197
336.5542, 95.59846
337.0363, 94.99867
337.5184, 95.07951
338.0005, 95.56303
338.4826, 96.07378
338.9648, 96.60448
339.4469, 97.18700
339.9290, 97.60973
340.4111, 98.20765
340.8932, 99.20710
341.3753, 100.6625
341.8575, 102.6757
342.3396, 105.0858
342.8217, 107.9732
343.3038, 113.2703
343.7859, 120.2940
344.2680, 130.1747
344.7502, 143.4155
345.2323, 160.0652
345.7144, 181.1101
346.1965, 208.5671
346.6786, 240.2352
347.1607, 262.6778
347.6429, 284.8976
348.1250, 290.1799
348.6071, 264.6959
349.0892, 220.9182
349.5713, 177.7420
350.0534, 142.0030
350.5356, 113.9290
351.0177, 94.01262
351.4998, 85.84868
351.9819, 79.77149
352.4640, 76.15829
352.9461, 73.90820
353.4283, 72.13109
353.9104, 70.60725
354.3925, 69.40187
354.8746, 68.62560
355.3567, 68.39326
355.8388, 68.03296
356.3210, 67.32607
356.8031, 66.70035
357.2852, 66.36848
357.7673, 66.31950
358.2494, 66.50362
358.7315, 66.93589
359.2137, 67.55284
359.6958, 67.66710
360.1779, 66.66099
360.6600, 65.90143
361.1421, 65.58403
361.6242, 65.69855
362.1064, 66.13869
362.5885, 66.85719
363.0706, 68.04168
363.5527, 70.14827
364.0348, 74.34391
364.5169, 77.71455
364.9991, 80.48893
365.4812, 82.34289
365.9633, 82.78597
366.4454, 81.88293
366.9275, 80.33835
367.4096, 78.81882
367.8918, 77.18324
368.3739, 76.39915
368.8560, 77.16744
369.3381, 78.02258
369.8202, 78.21536
370.3023, 78.04507
370.7845, 78.31068
371.2666, 79.59724
371.7487, 81.69814
372.2308, 83.42595
372.7129, 84.48349
373.1950, 85.53861
373.6772, 86.72119
374.1593, 87.94382
374.6414, 88.97898
375.1235, 89.76541
375.6056, 90.68645
376.0877, 92.38855
376.5699, 95.00689
377.0520, 98.07745
377.5341, 100.9287
378.0162, 104.6965
378.4983, 109.3114
378.9804, 115.2297
379.4626, 123.8527
379.9447, 136.2437
380.4268, 152.3657
380.9089, 172.4732
381.3910, 198.0952
381.8731, 226.1410
382.3553, 263.3255
382.8374, 300.3514
383.3195, 322.9713
383.8016, 324.2544
384.2837, 307.0204
384.7658, 272.6442
385.2480, 214.2033
385.7301, 162.3697
386.2122, 128.3099
386.6943, 104.7444
387.1764, 88.46443
387.6585, 78.85479
388.1407, 72.98809
388.6228, 68.92759
389.1049, 66.57411
389.5870, 64.80669
390.0691, 63.62743
390.5512, 62.83488
391.0334, 62.32082
391.5155, 62.03278
391.9976, 61.77424
392.4797, 61.45447
392.9618, 61.10563
393.4439, 60.80912
393.9261, 60.58535
394.4082, 60.29575
394.8903, 59.78469
395.3724, 59.17915
395.8545, 58.67602
396.3366, 58.26165
396.8188, 58.01693
397.3009, 58.06427
397.7830, 58.35118
398.2651, 58.67997
398.7472, 59.05582
399.2293, 59.33091
399.7115, 59.16908
400.1936, 58.54286
400.6757, 58.15868
401.1578, 58.39431
401.6399, 58.90277
402.1220, 59.37444
402.6042, 59.76563
403.0863, 59.78345
403.5684, 59.06005
404.0505, 57.66837
404.5326, 56.65678
405.0147, 56.04310
405.4969, 55.77886
405.9790, 56.02644
406.4611, 56.60942
406.9432, 57.10457
407.4253, 57.32045
407.9074, 57.38069
408.3896, 57.56291
408.8717, 57.92400
409.3538, 58.30259
409.8359, 58.63145
410.3180, 59.00894
410.8001, 59.61749
411.2823, 60.43170
411.7644, 61.17389
412.2465, 61.58638
412.7286, 61.67488
413.2107, 61.34462
413.6928, 60.22589
414.1750, 59.14433
414.6571, 58.32952
415.1392, 57.75332
415.6213, 57.31435
416.1034, 56.95576
416.5855, 56.74865
417.0677, 56.92135
417.5498, 57.85798
418.0319, 58.50688
418.5140, 58.60878
418.9961, 58.57977
419.4782, 58.65790
419.9604, 58.90837
420.4425, 59.32552
420.9246, 59.83172
421.4067, 60.40611
421.8888, 61.60443
422.3709, 63.89083
422.8531, 66.29638
423.3352, 68.06699
423.8173, 69.82996
424.2994, 72.63667
424.7815, 77.03329
425.2636, 82.52464
425.7458, 88.50613
426.2279, 95.38934
426.7100, 101.0861
427.1921, 105.3204
427.6742, 107.8379
428.1563, 107.7600
428.6385, 105.1706
429.1206, 102.4019
429.6027, 101.0414
430.0848, 100.8445
430.5669, 100.8542
431.0490, 100.8557
431.5312, 101.4258
432.0133, 103.1282
432.4954, 105.6951
432.9775, 108.7891
433.4596, 112.6901
433.9417, 116.7152
434.4239, 120.0910
434.9060, 122.9631
435.3881, 126.1146
435.8702, 129.7931
436.3523, 133.9584
436.8344, 138.2311
437.3166, 142.1718
437.7987, 148.1389
438.2808, 155.9955
438.7629, 166.5823
439.2450, 179.6879
439.7271, 195.6099
440.2093, 217.3855
440.6914, 247.1412
441.1735, 285.0713
441.6556, 332.3701
442.1377, 391.7658
442.6198, 455.7143
443.1020, 536.4568
443.5841, 616.8361
444.0662, 674.0785
444.5483, 699.8425
445.0304, 689.3755
445.5125, 630.6160
445.9947, 491.9416
446.4768, 376.6587
446.9589, 282.5607
447.4410, 208.9859
447.9231, 159.9045
448.4052, 131.2528
448.8874, 114.2877
449.3695, 103.5946
449.8516, 98.19176
450.3337, 92.41969
450.8158, 85.31438
451.2979, 79.41921
451.7801, 75.17612
452.2622, 72.20837
452.7443, 70.43111
453.2264, 69.75658
453.7085, 69.56106
454.1906, 69.10904
454.6728, 68.38258
455.1549, 68.01050
455.6370, 68.21147
456.1191, 68.56538
456.6012, 68.88728
457.0833, 69.16676
457.5655, 69.36408
458.0476, 69.35361
458.5297, 69.37057
459.0118, 69.66240
459.4939, 70.22060
459.9760, 71.26991
460.4582, 72.79874
460.9403, 75.01216
461.4224, 78.09750
461.9045, 82.08608
462.3866, 86.55563
462.8687, 91.99291
463.3508, 97.56860
463.8329, 102.6872
464.3151, 107.2790
464.7972, 109.3255
465.2793, 106.9211
465.7614, 100.3547
466.2435, 93.38123
466.7256, 84.72787
467.2078, 77.16813
467.6899, 71.70877
468.1720, 68.00125
468.6541, 65.72678
469.1362, 64.77416
469.6183, 64.50978
470.1005, 64.02554
470.5826, 63.20674
471.0647, 62.55584
471.5468, 62.07651
472.0289, 61.73450
472.5110, 61.54197
472.9932, 61.47156
473.4753, 61.44320
473.9574, 61.39365
474.4395, 61.41884
474.9216, 61.83057
475.4037, 62.75698
475.8859, 63.83051
476.3680, 64.45875
476.8501, 65.59792
477.3322, 68.26390
477.8143, 72.33517
478.2964, 76.52412
478.7786, 80.02518
479.2607, 82.78633
479.7428, 84.29002
480.2249, 84.47095
480.7070, 83.51353
481.1891, 81.02331
481.6713, 77.63990
482.1534, 73.92614
482.6355, 69.74550
483.1176, 66.06227
483.5997, 63.85741
484.0818, 62.86253
484.5640, 62.03955
485.0461, 61.19869
485.5282, 60.42350
486.0103, 59.82658
486.4924, 59.39068
486.9745, 58.97057
487.4567, 58.40145
487.9388, 57.97323
488.4209, 58.05286
488.9030, 58.46283
489.3851, 58.63798
489.8672, 58.29790
490.3494, 57.67484
490.8315, 57.22622
491.3136, 56.95564
491.7957, 56.89388
492.2778, 57.26624
492.7599, 57.66899
493.2421, 57.76989
493.7242, 57.62195
494.2063, 57.53028
494.6884, 57.73731
495.1705, 58.15264
495.6526, 58.26482
496.1348, 57.64552
496.6169, 57.42232
497.0990, 58.11385
497.5811, 58.98420
498.0632, 59.40258
498.5453, 59.28300
499.0275, 58.99421
499.5096, 58.83310
499.9917, 58.79546
500.4738, 58.85493
500.9559, 59.04635
501.4380, 59.26554
501.9202, 59.49183
502.4023, 59.70227
502.8844, 59.77889
503.3665, 59.53969
503.8486, 59.62540
504.3307, 60.57472
504.8129, 62.28143
505.2950, 64.36332
505.7771, 66.71098
506.2592, 69.52444
506.7413, 73.40825
507.2234, 78.23611
507.7056, 81.97020
508.1877, 84.17872
508.6698, 85.51669
509.1519, 86.08870
509.6340, 86.09846
510.1161, 85.87664
510.5983, 85.53922
511.0804, 85.23759
511.5625, 85.20565
512.0446, 85.34806
512.5267, 86.07423
513.0089, 87.60201
513.4910, 89.43417
513.9731, 91.43448
514.4552, 93.51538
514.9373, 95.58355
515.4194, 97.56896
515.9016, 99.51427
516.3837, 101.4488
516.8658, 103.1565
517.3479, 105.4340
517.8300, 108.1366
518.3121, 111.7005
518.7943, 116.0494
519.2764, 121.4127
519.7585, 128.6453
520.2406, 137.4658
520.7227, 148.7731
521.2048, 164.6675
521.6870, 185.2242
522.1691, 209.7243
522.6512, 239.1285
523.1333, 271.5524
523.6154, 306.6063
524.0975, 347.3617
524.5797, 376.3506
525.0618, 390.5370
525.5439, 387.7417
526.0260, 359.5379
526.5081, 307.1381
526.9902, 249.7623
527.4724, 199.2712
527.9545, 156.0142
528.4366, 123.9177
528.9187, 107.7530
529.4008, 95.50879
529.8829, 87.27843
530.3651, 81.43368
530.8472, 76.73270
531.3293, 72.82311
531.8114, 69.79480
532.2935, 67.82162
532.7756, 66.85830
533.2578, 65.96097
533.7399, 65.09386
534.2220, 64.35773
534.7041, 63.75054
535.1862, 63.28940
535.6683, 63.09204
536.1505, 63.17577
536.6326, 63.15219
537.1147, 62.48294
537.5968, 61.35687
538.0789, 60.68924
538.5610, 60.61007
539.0432, 60.79955
539.5253, 61.24703
540.0074, 61.78121
540.4895, 61.97462
540.9716, 61.51218
541.4537, 61.19945
541.9359, 61.74885
542.4180, 62.64803
542.9001, 62.89919
543.3822, 62.30060
543.8643, 61.58538
544.3464, 61.51255
544.8286, 62.11199
545.3107, 62.27803
545.7928, 61.69977
546.2749, 61.12565
546.7570, 60.82396
547.2391, 60.59121
547.7213, 60.04222
548.2034, 59.12573
548.6855, 58.34027
549.1676, 58.38864
549.6497, 59.34434
550.1318, 59.94245
550.6140, 60.19407
551.0961, 60.03658
551.5782, 58.99594
552.0603, 57.76061
552.5424, 57.32560
553.0245, 58.03967
553.5067, 59.07635
553.9888, 59.83703
554.4709, 60.31578
554.9530, 60.43090
555.4351, 60.10073
555.9172, 59.67976
556.3994, 59.39800
556.8815, 59.26456
557.3636, 59.26028
557.8457, 59.28840
558.3278, 59.56033
558.8099, 60.30209
559.2921, 61.28696
559.7742, 62.23307
560.2563, 63.06046
560.7384, 63.77281
561.2205, 64.39133
561.7026, 64.61211
562.1848, 65.12244
562.6669, 64.60751
563.1490, 64.16467
563.6311, 63.74159
564.1132, 63.56469
564.5953, 64.06116
565.0775, 65.26722
565.5596, 66.44060
566.0417, 66.52458
566.5238, 65.68784
567.0059, 65.83804
567.4880, 67.43184
567.9702, 69.03104
568.4523, 69.68495
568.9344, 69.92537
569.4165, 70.42829
569.8986, 71.26615
570.3807, 72.40784
570.8629, 73.89642
571.3450, 75.65261
571.8271, 77.39095
572.3092, 79.10259
572.7913, 81.31430
573.2734, 84.41859
573.7556, 88.39526
574.2377, 93.19984
574.7198, 99.72301
575.2019, 105.8302
575.6840, 112.2493
576.1661, 117.4946
576.6483, 120.4357
577.1304, 120.8335
577.6125, 118.7660
578.0946, 114.1007
578.5767, 107.1090
579.0588, 99.00455
579.5410, 88.39656
580.0231, 79.86980
580.5052, 75.71868
580.9873, 73.47469
581.4694, 71.59296
581.9515, 69.89738
582.4337, 68.45789
582.9158, 67.37023
583.3979, 66.54379
583.8800, 65.85046
584.3621, 65.28651
584.8442, 64.94321
585.3264, 64.91962
585.8085, 65.06015
586.2906, 65.04887
586.7727, 64.84295
587.2548, 64.62837
587.7369, 64.19990
588.2191, 63.95905
588.7012, 64.29223
589.1833, 65.04884
589.6654, 65.81706
590.1475, 66.37949
590.6296, 66.79344
591.1118, 67.15808
591.5939, 67.40789
592.0760, 67.80198
592.5581, 68.02528
593.0402, 68.74437
593.5223, 70.31972
594.0045, 72.63464
594.4866, 75.26637
594.9687, 77.74041
595.4508, 81.13245
595.9329, 86.63087
596.4150, 94.15279
596.8972, 103.3006
597.3793, 114.3161
597.8614, 125.8748
598.3435, 137.8353
598.8256, 149.8355
599.3077, 156.6001
599.7899, 158.6892
600.2720, 154.9293
600.7541, 141.2667
601.2362, 123.0282
601.7183, 106.4208
602.2004, 93.34499
602.6826, 83.49669
603.1647, 76.82200
603.6468, 73.26252
604.1289, 70.86036
604.6110, 69.98880
605.0931, 69.73964
605.5753, 70.02203
606.0574, 70.64518
606.5395, 71.53084
607.0216, 72.63710
607.5037, 73.71262
607.9858, 74.30357
608.4680, 74.82806
608.9501, 76.24477
609.4322, 78.60053
609.9143, 80.89082
610.3964, 82.30553
610.8785, 83.77036
611.3607, 87.22216
611.8428, 92.85452
612.3249, 99.54103
612.8070, 107.6639
613.2891, 116.3637
613.7712, 126.0237
614.2534, 135.7716
614.7355, 144.2493
615.2176, 150.8129
615.6997, 154.3961
616.1818, 152.5649
616.6639, 144.4574
617.1461, 134.7919
617.6282, 122.4559
618.1103, 110.1672
618.5924, 98.31224
619.0745, 87.54103
619.5566, 78.93148
620.0388, 72.98160
620.5209, 68.64902
621.0030, 65.35178
621.4851, 62.95595
621.9672, 61.20409
622.4493, 60.06342
622.9315, 59.30579
623.4136, 58.83663
623.8957, 58.59326
624.3778, 58.18572
624.8599, 57.42023
625.3420, 56.76768
625.8242, 56.26627
626.3063, 55.91151
626.7884, 55.79286
627.2705, 55.83780
627.7526, 55.78647
628.2347, 55.41719
628.7169, 54.90118
629.1990, 54.77372
629.6811, 55.15078
630.1632, 55.37158
630.6453, 55.26135
631.1274, 54.98000
631.6096, 54.59122
632.0917, 54.13873
632.5738, 53.79901
633.0559, 53.65570
633.5380, 53.61737
634.0201, 53.67218
634.5023, 53.77209
634.9844, 53.78373
635.4665, 53.67252
635.9486, 53.54886
636.4307, 53.50916
636.9128, 53.55228
637.3950, 53.80598
637.8771, 54.97121
638.3592, 55.47507
638.8413, 54.33641
639.3234, 52.90825
639.8055, 52.64283
640.2877, 53.57571
640.7698, 54.40910
641.2519, 53.91602
641.7340, 52.70832
642.2161, 52.41562
642.6982, 53.09560
643.1804, 53.93029
643.6625, 54.84088
644.1446, 55.52372
644.6267, 55.33712
645.1088, 54.27650
645.5909, 53.68935
646.0731, 54.21973
646.5552, 54.79957
647.0373, 54.74416
647.5194, 54.32533
648.0015, 54.02112
648.4836, 53.99500
648.9658, 54.21421
649.4479, 54.72213
649.9300, 55.52951
650.4121, 55.83343
650.8942, 55.09124
651.3763, 54.77134
651.8585, 55.96332
652.3406, 57.38571
652.8227, 57.59867
653.3048, 56.46726
653.7869, 55.55493
654.2690, 55.89241
654.7512, 56.83421
655.2333, 57.65012
655.7154, 58.30233
656.1975, 58.73720
656.6796, 58.91841
657.1617, 58.92863
657.6439, 58.85511
658.1260, 58.58434
658.6081, 58.71124
659.0902, 59.42303
659.5723, 60.26231
660.0544, 61.14490
660.5366, 62.02964
661.0187, 63.03544
661.5008, 64.13860
661.9829, 64.81464
662.4650, 63.98215
662.9471, 62.22292
663.4293, 62.13286
663.9114, 63.96892
664.3935, 66.08400
664.8756, 67.81341
665.3577, 69.37819
665.8398, 71.31340
666.3220, 73.77010
666.8041, 75.54984
667.2862, 76.30160
667.7683, 76.47202
668.2504, 76.25605
668.7325, 75.69444
669.2147, 74.83070
669.6968, 73.68198
670.1789, 72.18459
670.6610, 70.11604
671.1431, 67.42580
671.6252, 65.28421
672.1074, 63.81500
672.5895, 62.64997
673.0716, 61.70026
673.5537, 60.94328
674.0358, 60.39891
674.5179, 60.07098
675.0001, 59.83319
675.4822, 59.59553
675.9643, 59.44363
676.4464, 59.50562
676.9285, 59.74353
677.4106, 60.00873
677.8928, 60.23987
678.3749, 60.48873
678.8570, 60.83394
679.3391, 61.28273
679.8212, 61.77993
680.3033, 62.16189
680.7855, 62.80156
681.2676, 64.04214
681.7497, 65.45145
682.2318, 66.36906
682.7139, 66.74051
683.1960, 67.51608
683.6782, 69.64812
684.1603, 72.49772
684.6424, 75.02851
685.1245, 77.21479
685.6066, 79.12960
686.0887, 80.82067
686.5709, 82.16859
687.0530, 83.06379
687.5351, 83.61229
688.0172, 83.01208
688.4993, 80.05483
688.9814, 77.49978
689.4636, 76.41248
689.9457, 76.10802
690.4278, 75.73879
690.9099, 75.14698
691.3920, 74.76552
691.8741, 74.98874
692.3563, 75.68642
692.8384, 76.55735
693.3205, 77.60716
693.8026, 78.56861
694.2847, 79.18169
694.7668, 79.94678
695.2490, 81.55302
695.7311, 84.04721
696.2132, 86.50478
696.6953, 88.80207
697.1774, 91.14971
697.6595, 93.47770
698.1417, 95.96660
698.6238, 98.70301
699.1059, 101.7806
699.5880, 105.5296
700.0701, 110.2255
700.5522, 115.8055
701.0344, 122.2834
701.5165, 129.9825
701.9986, 136.9428
702.4807, 143.3288
702.9628, 147.9749
703.4449, 149.9985
703.9271, 149.4578
704.4092, 145.5851
704.8913, 136.3300
705.3734, 126.0036
705.8555, 115.7770
706.3376, 105.9270
706.8198, 96.58696
707.3019, 87.96896
707.7840, 81.00504
708.2661, 76.51667
708.7482, 73.90737
709.2303, 71.40006
709.7125, 68.95808
710.1946, 66.77915
710.6767, 64.67141
711.1588, 63.13489
711.6409, 62.70999
712.1230, 63.07910
712.6052, 63.47060
713.0873, 63.83674
713.5694, 64.04243
714.0515, 63.91948
714.5336, 63.66131
715.0157, 63.50504
715.4979, 63.46138
715.9800, 63.38931
716.4621, 63.18922
716.9442, 62.99652
717.4263, 63.17348
717.9084, 63.83934
718.3906, 64.36169
718.8727, 64.62840
719.3548, 64.85633
719.8369, 65.17970
720.3190, 65.52682
720.8011, 65.74714
721.2833, 65.76366
721.7654, 65.91682
722.2475, 66.25835
722.7296, 66.89716
723.2117, 67.99310
723.6938, 69.50371
724.1760, 71.21927
724.6581, 73.05217
725.1402, 75.16560
725.6223, 77.79803
726.1044, 80.93410
726.5865, 84.79026
727.0687, 89.67371
727.5508, 94.84820
728.0329, 100.9006
728.5150, 106.6228
728.9971, 111.2635
729.4792, 114.7065
729.9614, 115.5407
730.4435, 112.6264
730.9256, 107.3316
731.4077, 99.69693
731.8898, 90.81225
732.3719, 83.08265
732.8541, 77.22216
733.3362, 72.69553
733.8183, 69.00856
734.3004, 66.13934
734.7825, 63.80704
735.2646, 62.08921
735.7468, 60.75887
736.2289, 60.05130
736.7110, 59.48269
737.1931, 58.57191
737.6752, 57.47856
738.1573, 56.90609
738.6395, 57.40080
739.1216, 58.00768
739.6037, 58.02878
740.0858, 57.77372
740.5679, 57.72128
741.0500, 57.93031
741.5322, 58.21374
742.0143, 58.44886
742.4964, 58.64915
742.9785, 58.86256
743.4606, 59.11914
743.9427, 59.27386
744.4249, 59.27045
744.9070, 59.22058
745.3891, 59.07597
745.8712, 58.95973
746.3533, 59.08311
746.8354, 59.49546
747.3176, 60.06994
747.7997, 60.83828
748.2818, 61.67327
748.7639, 62.45055
749.2460, 63.17826
749.7281, 63.75808
750.2103, 64.16547
750.6924, 64.92490
751.1745, 67.15215
751.6566, 70.87075
752.1387, 72.31123
752.6208, 70.42043
753.1030, 68.73689
753.5851, 68.50784
754.0672, 69.03571
754.5493, 69.64909
755.0314, 70.33640
755.5135, 71.08042
755.9957, 71.68459
756.4778, 72.55354
756.9599, 73.91012
757.4420, 75.67818
757.9241, 77.72378
758.4063, 80.04383
758.8884, 82.70689
759.3705, 85.72847
759.8526, 89.24313
760.3347, 93.69762
760.8168, 99.13566
761.2990, 104.9952
761.7811, 111.1707
762.2632, 117.7503
762.7453, 125.2301
763.2274, 133.1213
763.7095, 140.0779
764.1917, 146.4808
764.6738, 151.0591
765.1559, 153.3587
765.6380, 153.8376
766.1201, 152.5034
766.6022, 149.6949
767.0844, 145.5783
767.5665, 140.2766
768.0486, 135.1635
768.5307, 131.6794
769.0128, 129.7944
769.4949, 129.2740
769.9771, 130.1093
770.4592, 132.3969
770.9413, 136.2139
771.4234, 141.4484
771.9055, 147.9807
772.3876, 155.8658
772.8698, 165.1289
773.3519, 175.1549
773.8340, 187.3240
774.3161, 202.8760
774.7982, 220.1527
775.2803, 239.4490
775.7625, 259.1994
776.2446, 275.0048
776.7267, 285.1772
777.2088, 288.4929
777.6909, 281.7426
778.1730, 266.4933
778.6552, 247.5511
779.1373, 225.5314
779.6194, 204.1180
780.1015, 185.1825
780.5836, 169.0860
781.0657, 156.9258
781.5479, 149.3199
782.0300, 144.2417
782.5121, 141.5060
782.9942, 141.3997
783.4763, 145.1512
783.9584, 151.0962
784.4406, 157.4407
784.9227, 163.8364
785.4048, 169.3698
785.8869, 174.8265
786.3690, 178.1192
786.8511, 176.7509
787.3333, 171.2384
787.8154, 162.5451
788.2975, 151.1199
788.7796, 138.9239
789.2617, 127.8039
789.7438, 117.7689
790.2260, 109.3502
790.7081, 102.7784
791.1902, 97.09354
791.6723, 91.90179
792.1544, 87.83242
792.6365, 85.82510
793.1187, 85.20026
793.6008, 84.17989
794.0829, 82.35751
794.5650, 80.53748
795.0471, 78.71603
795.5292, 77.27441
796.0114, 76.76357
796.4935, 76.89574
796.9756, 76.93509
797.4577, 76.58962
797.9398, 76.20846
798.4219, 76.25987
798.9041, 76.66502
799.3862, 76.91958
799.8683, 76.98507
800.3504, 77.30213
800.8325, 78.02210
801.3146, 79.06395
801.7968, 80.40282
802.2789, 82.05537
802.7610, 83.57372
803.2431, 84.61905
803.7252, 86.00704
804.2073, 88.75845
804.6895, 91.17482
805.1716, 91.94106
805.6537, 91.19505
806.1358, 89.61309
806.6179, 87.36443
807.1000, 84.82970
807.5822, 82.17677
808.0643, 79.56929
808.5464, 77.33234
809.0285, 75.49038
809.5106, 74.01827
809.9927, 72.89816
810.4749, 72.09132
810.9570, 71.61814
811.4391, 71.54386
811.9212, 70.89946
812.4033, 69.24345
812.8854, 67.83861
813.3676, 66.97826
813.8497, 66.58868
814.3318, 66.89925
814.8139, 67.74375
815.2960, 68.08492
815.7781, 67.17635
816.2603, 66.36611
816.7424, 66.32077
817.2245, 66.64331
817.7066, 66.98138
818.1887, 67.27132
818.6708, 67.55970
819.1530, 67.88147
819.6351, 68.07420
820.1172, 67.78590
820.5993, 67.11933
821.0814, 66.79307
821.5635, 66.87556
822.0457, 66.84608
822.5278, 66.40141
823.0099, 65.90654
823.4920, 65.89975
823.9741, 66.43909
824.4562, 66.91541
824.9384, 67.49773
825.4205, 67.79909
825.9026, 67.37096
826.3847, 66.94761
826.8668, 67.28590
827.3489, 68.17127
827.8311, 68.69511
828.3132, 68.27687
828.7953, 67.99308
829.2774, 69.04287
829.7595, 70.52570
830.2416, 70.99586
830.7238, 70.54759
831.2059, 70.12853
831.6880, 70.17963
832.1701, 70.52909
832.6522, 70.98555
833.1343, 71.53997
833.6165, 71.93784
834.0985, 72.14346
834.5806, 72.32003
835.0627, 72.48567
835.5449, 72.68350
836.0270, 72.92661
836.5091, 73.22855
836.9912, 73.71152
837.4733, 74.70031
837.9554, 75.41973
838.4376, 75.61696
838.9197, 75.59189
839.4018, 75.40086
839.8839, 75.19936
840.3660, 75.28073
840.8481, 75.76181
841.3303, 76.34550
841.8124, 76.65907
842.2945, 76.97435
842.7766, 77.96793
843.2587, 79.44690
843.7408, 80.37418
844.2230, 80.41389
844.7051, 80.28861
845.1872, 80.78246
845.6693, 81.80259
846.1514, 82.67366
846.6335, 83.27969
847.1157, 84.17278
847.5978, 85.66180
848.0799, 87.14176
848.5620, 87.89286
849.0441, 88.37696
849.5262, 89.86874
850.0084, 93.04459
850.4905, 95.42484
850.9726, 95.47443
851.4547, 95.71117
851.9368, 97.89145
852.4189, 101.0758
852.9011, 103.6796
853.3832, 105.4506
853.8653, 107.5484
854.3474, 110.9759
854.8295, 115.0239
855.3116, 118.4585
855.7938, 121.6433
856.2759, 125.5789
856.7580, 130.4719
857.2401, 136.3324
857.7222, 143.1793
858.2043, 151.0108
858.6865, 159.4688
859.1686, 167.9666
859.6507, 180.0086
860.1328, 194.7334
860.6149, 214.7280
861.0970, 240.2654
861.5792, 272.2553
862.0613, 312.1357
862.5434, 359.7353
863.0255, 412.7389
863.5076, 476.4139
863.9897, 538.2431
864.4719, 600.0484
864.9540, 654.0203
865.4361, 691.6057
865.9182, 715.5887
866.4003, 733.4184
866.8824, 747.2098
867.3646, 763.9798
867.8467, 789.8073
868.3288, 823.5458
868.8109, 863.0137
869.2930, 908.4018
869.7751, 961.1193
870.2573, 1021.552
870.7394, 1088.502
871.2215, 1160.107
871.7036, 1237.066
872.1857, 1323.755
872.6678, 1416.937
873.1500, 1532.108
873.6321, 1662.665
874.1142, 1832.370
874.5963, 2045.973
875.0784, 2315.307
875.5605, 2675.727
876.0427, 3132.684
876.5248, 3655.544
877.0069, 4355.671
877.4890, 4991.842
877.9711, 5572.523
878.4532, 5963.056
878.9354, 5992.203
879.4175, 5661.872
879.8996, 5122.161
880.3817, 4347.463
880.8638, 3542.286
881.3459, 2844.231
881.8281, 2251.975
882.3102, 1786.273
882.7923, 1437.968
883.2744, 1173.110
883.7565, 975.2735
884.2386, 827.5245
884.7208, 711.8729
885.2029, 626.1945
885.6850, 553.9459
886.1671, 495.5038
886.6492, 446.7014
887.1313, 407.1185
887.6135, 374.3444
888.0956, 346.3107
888.5777, 322.9110
889.0598, 302.4587
889.5419, 285.7930
890.0240, 270.8654
890.5062, 257.7184
890.9883, 246.2090
891.4704, 236.9106
891.9525, 228.8739
892.4346, 220.6347
892.9167, 211.9507
893.3989, 204.1898
893.8810, 197.9065
894.3631, 192.5213
894.8452, 187.8461
895.3273, 183.7291
895.8094, 180.1424
896.2916, 176.9452
896.7737, 173.7813
897.2558, 170.3911
897.7379, 167.2737
898.2200, 165.1285
898.7021, 163.7130
899.1843, 162.3509
899.6664, 161.0750
900.1485, 160.3983
900.6306, 160.5042
901.1127, 161.3926
901.5948, 163.1333
902.0770, 165.6297
902.5591, 168.4692
903.0412, 171.9722
903.5233, 174.2223
904.0054, 174.3252
904.4875, 174.3966
904.9697, 175.8656
905.4518, 178.1667
905.9339, 179.8577
906.4160, 180.3808
906.8981, 182.3165
907.3802, 186.5815
907.8624, 191.1950
908.3445, 194.7453
908.8266, 198.9358
909.3087, 205.5422
909.7908, 214.3507
910.2729, 223.6355
910.7551, 232.2192
911.2372, 242.4751
911.7193, 255.9034
912.2014, 271.5815
912.6835, 287.3946
913.1656, 304.7624
913.6478, 327.8700
914.1299, 357.6620
914.6120, 390.6249
915.0941, 425.9290
915.5762, 459.6239
916.0583, 485.6555
916.5405, 503.0652
917.0226, 505.8877
917.5047, 493.1935
917.9868, 468.4281
918.4689, 432.6692
918.9510, 390.4978
919.4332, 349.6801
919.9153, 309.7288
920.3974, 278.2203
920.8795, 256.0524
921.3616, 240.2272
921.8438, 231.1203
922.3259, 226.3852
922.8080, 225.0822
923.2901, 226.5362
923.7722, 225.8405
924.2543, 223.2484
924.7365, 218.2211
925.2186, 208.9423
925.7007, 199.2116
926.1828, 189.9682
926.6649, 181.7888
927.1470, 175.2088
927.6292, 170.3004
928.1113, 166.9850
928.5934, 165.2665
929.0755, 165.0358
929.5576, 166.4638
930.0397, 169.1634
930.5219, 172.5986
931.0040, 176.8823
931.4861, 182.5623
931.9682, 189.8591
932.4503, 198.4264
932.9324, 207.6414
933.4146, 218.1272
933.8967, 230.7358
934.3788, 245.7122
934.8609, 264.4355
935.3430, 286.9848
935.8251, 311.5112
936.3073, 337.1520
936.7894, 361.2831
937.2715, 378.7702
937.7536, 389.7033
938.2357, 389.3166
938.7178, 376.5814
939.2000, 355.9605
939.6821, 327.2434
940.1642, 295.5818
940.6463, 265.9924
941.1284, 238.6919
941.6105, 214.4081
942.0927, 192.6878
942.5748, 175.0892
943.0569, 163.3586
943.5390, 153.8455
944.0211, 144.8399
944.5032, 136.8352
944.9854, 130.5717
945.4675, 126.0838
945.9496, 123.0480
946.4317, 121.9182
946.9138, 121.5772
947.3959, 121.4677
947.8781, 122.1156
948.3602, 124.4441
948.8423, 127.8803
949.3244, 131.1500
949.8065, 133.9904
950.2886, 135.5695
950.7708, 135.9984
951.2529, 134.3192
951.7350, 128.6245
952.2171, 120.5552
952.6992, 112.4438
953.1813, 105.0117
953.6635, 98.39709
954.1456, 92.64922
954.6277, 87.92517
955.1098, 84.77221
955.5919, 82.72596
956.0740, 80.53671
956.5562, 78.22743
957.0383, 76.56542
957.5204, 75.80447
958.0025, 75.20022
958.4846, 73.98741
958.9667, 72.38991
959.4489, 71.15043
959.9310, 70.27845
960.4131, 69.51741
960.8952, 68.81438
961.3773, 68.42554
961.8594, 68.62574
962.3416, 68.84657
962.8237, 68.14202
963.3058, 66.48888
963.7879, 65.66982
964.2700, 66.14352
964.7521, 66.44450
965.2343, 66.36445
965.7164, 66.06104
966.1985, 65.42459
966.6806, 64.70320
967.1627, 64.47365
967.6448, 64.89329
968.1270, 64.99082
968.6091, 64.19527
969.0912, 63.72975
969.5733, 64.28982
970.0554, 65.01909
970.5375, 65.23954
971.0197, 65.02058
971.5018, 64.70062
971.9839, 64.36523
972.4660, 63.90017
972.9481, 62.83449
973.4302, 62.07389
973.9124, 62.72308
974.3945, 63.78058
974.8766, 63.75528
975.3587, 62.70042
975.8408, 61.83309
976.3229, 61.74004
976.8051, 62.01569
977.2872, 62.33423
977.7693, 62.79137
978.2514, 63.71983
978.7335, 64.86049
979.2156, 65.45472
979.6978, 65.39393
980.1799, 65.46287
980.6620, 66.31525
981.1441, 67.47072
981.6262, 68.08537
982.1083, 68.34327
982.5905, 68.93901
983.0726, 69.85844
983.5547, 70.41530
984.0368, 70.34884
984.5189, 70.39858
985.0010, 71.39475
985.4832, 73.09072
985.9653, 74.74988
986.4474, 76.37523
986.9295, 77.22311
987.4116, 77.08158
987.8937, 77.09377
988.3759, 77.76407
988.8580, 79.03248
989.3401, 80.89989
989.8222, 83.33877
990.3043, 85.64366
990.7864, 87.67353
991.2686, 90.13143
991.7507, 93.54906
992.2328, 96.53472
992.7149, 98.15420
993.1970, 98.95429
993.6791, 100.0201
994.1613, 101.5547
994.6434, 101.7777
995.1255, 99.86448
995.6076, 97.88853
996.0897, 96.10259
996.5718, 94.38962
997.0540, 92.59978
997.5361, 90.86301
998.0182, 89.50354
998.5003, 88.62381
998.9824, 87.60972
999.4645, 86.04704
999.9467, 84.76823
1000.429, 84.21639
1000.911, 83.91459
1001.393, 83.36547
1001.875, 82.75761
1002.357, 82.63844
1002.839, 83.17142
1003.321, 83.89420
1003.804, 84.33162
1004.286, 85.25121
1004.768, 87.44120
1005.250, 90.13601
1005.732, 92.51736
1006.214, 94.56471
1006.696, 96.47817
1007.178, 98.22232
1007.661, 100.5658
1008.143, 104.2947
1008.625, 108.6105
1009.107, 113.0829
1009.589, 117.4230
1010.071, 121.2981
1010.553, 124.6032
1011.035, 127.2610
1011.517, 129.2048
1012.000, 130.4997
1012.482, 131.1860
1012.964, 131.2657
1013.446, 130.1966
1013.928, 128.6274
1014.410, 128.1210
1014.892, 128.9678
1015.374, 130.5621
1015.857, 132.5237
1016.339, 135.0126
1016.821, 138.4742
1017.303, 142.5643
1017.785, 146.6370
1018.267, 150.5011
1018.749, 153.6029
1019.231, 155.7502
1019.713, 156.6951
1020.196, 156.2856
1020.678, 154.4005
1021.160, 150.5228
1021.642, 144.8797
1022.124, 138.7375
1022.606, 132.1621
1023.088, 124.9845
1023.570, 117.1044
1024.052, 109.5395
1024.535, 103.0406
1025.017, 97.53419
1025.499, 92.85149
1025.981, 89.00868
1026.463, 85.55724
1026.945, 82.47726
1027.427, 79.75100
1027.909, 77.35672
1028.392, 75.41151
1028.874, 74.08362
1029.356, 73.18388
1029.838, 72.21025
1030.320, 71.25063
1030.802, 69.49209
1031.284, 66.49020
1031.766, 64.29867
1032.249, 63.74947
1032.731, 63.76612
1033.213, 63.47735
1033.695, 62.90690
1034.177, 62.06041
1034.659, 60.65005
1035.141, 60.04375
1035.623, 60.81801
1036.105, 61.09362
1036.588, 59.96108
1037.070, 58.61709
1037.552, 58.13932
1038.034, 58.33021
1038.516, 58.40218
1038.998, 58.25076
1039.480, 58.26810
1039.962, 58.56880
1040.444, 58.86627
1040.927, 59.25444
1041.409, 59.42920
1041.891, 59.00299
1042.373, 58.13559
1042.855, 57.45495
1043.337, 56.92925
1043.819, 56.66178
1044.301, 56.92903
1044.784, 57.08961
1045.266, 56.81548
1045.748, 56.50013
1046.230, 56.46917
1046.712, 56.66610
1047.194, 56.92137
1047.676, 57.32063
1048.158, 57.49622
1048.641, 57.27155
1049.123, 57.00346
1049.605, 56.86465
1050.087, 56.67371
1050.569, 56.07830
1051.051, 55.32436
1051.533, 55.18084
1052.015, 55.97026
1052.497, 56.45688
1052.979, 56.36298
1053.462, 56.00557
1053.944, 55.10853
1054.426, 54.33439
1054.908, 54.40915
1055.390, 55.03672
1055.872, 55.41364
1056.354, 55.38416
1056.836, 55.26307
1057.319, 54.82155
1057.801, 54.69712
1058.283, 55.51887
1058.765, 56.43007
1059.247, 56.73679
1059.729, 56.53952
1060.211, 56.13563
1060.693, 55.55376
1061.176, 55.09966
1061.658, 54.63042
1062.140, 54.61346
1062.622, 55.78542
1063.104, 57.00803
1063.586, 57.21826
1064.068, 56.76166
1064.550, 56.47770
1065.032, 56.53524
1065.515, 56.52275
1065.997, 56.16234
1066.479, 55.86490
1066.961, 55.80474
1067.443, 55.89298
1067.925, 56.10451
1068.407, 56.38591
1068.889, 56.64907
1069.371, 56.88141
1069.854, 57.18375
1070.336, 57.70486
1070.818, 58.15696
1071.300, 58.49816
1071.782, 58.63761
1072.264, 58.27872
1072.746, 57.77686
1073.228, 57.70331
1073.711, 58.12549
1074.193, 58.67462
1074.675, 59.37057
1075.157, 59.87865
1075.639, 60.03811
1076.121, 59.95800
1076.603, 59.53714
1077.085, 59.03542
1077.568, 58.78373
1078.050, 58.82338
1078.532, 59.06843
1079.014, 59.61271
1079.496, 60.05483
1079.978, 60.01557
1080.460, 60.00978
1080.942, 60.51329
1081.424, 61.20477
1081.906, 61.64240
1082.389, 61.83025
1082.871, 62.05401
1083.353, 62.41229
1083.835, 62.78802
1084.317, 63.27039
1084.799, 63.58744
1085.281, 63.20498
1085.763, 62.82899
1086.245, 63.39284
1086.728, 64.68983
1087.210, 65.95580
1087.692, 67.06820
1088.174, 67.54073
1088.656, 66.28635
1089.138, 65.39910
1089.620, 66.53344
1090.102, 68.17295
1090.585, 68.71219
1091.067, 68.53175
1091.549, 68.89608
1092.031, 70.10452
1092.513, 71.07001
1092.995, 70.80302
1093.477, 70.94900
1093.959, 72.84929
1094.442, 74.89147
1094.924, 75.56824
1095.406, 75.51546
1095.888, 75.98328
1096.370, 77.15430
1096.852, 78.37965
1097.334, 79.74783
1097.816, 80.71464
1098.298, 80.43790
1098.781, 80.39837
1099.263, 82.12796
1099.745, 84.37188
1100.227, 85.10683
1100.709, 84.45827
1101.191, 84.65096
1101.673, 86.63737
1102.155, 88.62407
1102.637, 90.12886
1103.120, 91.49580
1103.602, 92.90159
1104.084, 94.24336
1104.566, 95.29746
1105.048, 96.18745
1105.530, 97.38267
1106.012, 98.98119
1106.494, 100.7958
1106.977, 103.0837
1107.459, 105.2220
1107.941, 106.7836
1108.423, 108.3011
1108.905, 110.3441
1109.387, 112.6468
1109.869, 114.4568
1110.351, 115.5717
1110.833, 117.2186
1111.316, 119.8553
1111.798, 122.5730
1112.280, 124.9102
1112.762, 127.5630
1113.244, 131.3808
1113.726, 135.5166
1114.208, 138.5480
1114.690, 140.4144
1115.172, 142.9613
1115.655, 146.7945
1116.137, 150.3765
1116.619, 153.2761
1117.101, 156.3983
1117.583, 160.0708
1118.065, 164.1540
1118.547, 168.7475
1119.029, 173.6583
1119.512, 177.9647
1119.994, 181.5266
1120.476, 184.8226
1120.958, 187.7305
1121.440, 190.5964
1121.922, 193.4520
1122.404, 196.4350
1122.886, 199.9430
1123.369, 203.4712
1123.851, 205.8213
1124.333, 207.0289
1124.815, 206.6572
1125.297, 204.0793
1125.779, 201.9152
1126.261, 200.6935
1126.743, 199.8657
1127.225, 199.4218
1127.708, 198.5638
1128.190, 195.9441
1128.672, 191.7760
1129.154, 188.2303
1129.636, 185.3723
1130.118, 182.7601
1130.600, 180.4481
1131.082, 177.7177
1131.564, 174.2139
1132.047, 170.6521
1132.529, 167.8221
1133.011, 165.3704
1133.493, 162.2543
1133.975, 158.4883
1134.457, 154.9582
1134.939, 151.6939
1135.421, 148.5740
1135.904, 145.5648
1136.386, 142.6193
1136.868, 139.6980
1137.350, 136.8635
1137.832, 134.3046
1138.314, 131.8862
1138.796, 128.7137
1139.278, 125.0678
1139.760, 122.5817
1140.243, 121.3298
1140.725, 120.0896
1141.207, 118.3145
1141.689, 116.2297
1142.171, 113.8643
1142.653, 111.6567
1143.135, 110.7035
1143.617, 110.3985
1144.099, 109.1764
1144.582, 107.2794
1145.064, 105.8926
1145.546, 105.2894
1146.028, 105.0305
1146.510, 104.9338
1146.992, 104.6056
1147.474, 103.4794
1147.956, 102.0113
1148.439, 100.4599
1148.921, 99.16737
1149.403, 98.91201
1149.885, 99.43353
1150.367, 99.61881
1150.849, 99.06358
1151.331, 98.37911
1151.813, 97.88764
1152.296, 97.49255
1152.778, 97.14052
1153.260, 96.83192
1153.742, 96.73263
1154.224, 96.60151
1154.706, 95.85153
1155.188, 94.52357
1155.670, 93.64384
1156.152, 93.69559
1156.635, 93.96165
1157.117, 94.42284
1157.599, 94.74763
1158.081, 94.64320
1158.563, 94.39936
1159.045, 94.45598
1159.527, 94.62225
1160.009, 94.19187
1160.491, 92.89587
1160.974, 91.89119
1161.456, 91.56656
1161.938, 91.14993
1162.420, 90.25202
1162.902, 89.48660
1163.384, 89.43620
1163.866, 89.52743
1164.348, 88.78153
1164.831, 88.59475
1165.313, 88.26919
1165.795, 87.40792
1166.277, 87.52312
1166.759, 86.51379
1167.241, 85.96227
1167.723, 86.63584
1168.205, 87.31106
1168.688, 86.89253
1169.170, 85.80836
1169.652, 84.99454
1170.134, 84.44509
1170.616, 84.94749
1171.098, 86.62389
1171.580, 87.36277
1172.062, 86.75280
1172.544, 86.12589
1173.026, 86.14959
1173.509, 86.39528
1173.991, 86.32144
1174.473, 86.15881
1174.955, 86.78452
1175.437, 86.48037
1175.919, 87.77794
1176.401, 86.70665
1176.883, 86.42247
1177.366, 87.25777
1177.848, 87.86553
1178.330, 87.33998
1178.812, 86.71999
1179.294, 87.40421
1179.776, 88.60876
1180.258, 89.29886
1180.740, 89.56702
1181.223, 89.29795
1181.705, 88.84476
1182.187, 89.27062
1182.669, 90.79466
1183.151, 92.00417
1183.633, 91.86994
1184.115, 91.52460
1184.597, 91.45151
1185.079, 91.74394
1185.562, 92.84791
1186.044, 94.12064
1186.526, 94.58809
1187.008, 94.40992
1187.490, 94.50068
1187.972, 95.03077
1188.454, 95.98219
1188.936, 98.01921
1189.418, 99.54877
1189.901, 99.59250
1190.383, 99.47750
1190.865, 100.2124
1191.347, 101.2514
1191.829, 101.6777
1192.311, 101.5420
1192.793, 101.6533
1193.275, 102.0050
1193.758, 102.6187
1194.240, 103.4992
1194.722, 104.6907
1195.204, 106.3828
1195.686, 107.8958
1196.168, 108.6053
1196.650, 110.1938
1197.132, 110.2989
1197.615, 112.3177
1198.097, 113.4646
1198.579, 113.7514
1199.061, 113.8157
1199.543, 113.7595
1200.025, 114.2500
1200.507, 115.5404
1200.989, 116.9947
1201.471, 118.0784
1201.953, 118.8605
1202.436, 119.2180
1202.918, 119.4772
1203.400, 120.6378
1203.882, 122.2796
1204.364, 123.2375
1204.846, 123.4223
1205.328, 123.3659
1205.810, 123.2875
1206.293, 123.1422
1206.775, 122.5963
1207.257, 122.3603
1207.739, 123.3954
1208.221, 124.6530
1208.703, 125.1107
1209.185, 125.0649
1209.667, 124.9954
1210.150, 125.0030
1210.632, 125.1607
1211.114, 125.5978
1211.596, 125.7815
1212.078, 125.4042
1212.560, 124.9996
1213.042, 124.6790
1213.524, 124.4483
1214.006, 124.1527
1214.489, 124.5391
1214.971, 123.7771
1215.453, 123.8929
1215.935, 123.9199
1216.417, 123.3796
1216.899, 123.8915
1217.381, 123.3591
1217.863, 122.4022
1218.345, 120.9944
1218.828, 120.1454
1219.310, 120.6795
1219.792, 121.7287
1220.274, 121.8124
1220.756, 121.1555
1221.238, 120.8360
1221.720, 120.7577
1222.202, 120.2120
1222.685, 119.2755
1223.167, 118.8845
1223.649, 119.2638
1224.131, 119.7039
1224.613, 119.7425
1225.095, 119.5361
1225.577, 119.1655
1226.059, 118.7357
1226.542, 118.4920
1227.024, 118.1937
1227.506, 117.0603
1227.988, 115.6734
1228.470, 115.7301
1228.952, 117.4609
1229.434, 118.7238
1229.916, 118.3640
1230.398, 117.9781
1230.880, 118.2537
1231.363, 118.4662
1231.845, 118.0757
1232.327, 117.6053
1232.809, 117.6060
1233.291, 117.8996
1233.773, 118.0211
1234.255, 117.9567
1234.737, 117.9063
1235.220, 117.8609
1235.702, 117.9115
1236.184, 118.2124
1236.666, 118.0236
1237.148, 116.9177
1237.630, 115.9302
1238.112, 116.0026
1238.594, 116.5828
1239.077, 116.6249
1239.559, 116.1483
1240.041, 114.9888
1240.523, 113.3895
1241.005, 112.6491
1241.487, 112.7299
1241.969, 112.3729
1242.451, 111.2264
1242.933, 110.4084
1243.416, 110.9186
1243.898, 111.3315
1244.380, 109.8519
1244.862, 107.9232
1245.344, 106.8550
1245.826, 106.3858
1246.308, 106.4323
1246.790, 106.5975
1247.272, 105.8891
1247.755, 104.1668
1248.237, 103.2196
1248.719, 104.1704
1249.201, 104.9399
1249.683, 105.2530
1250.165, 105.2128
1250.647, 104.5097
1251.129, 103.8971
1251.612, 104.1750
1252.094, 103.3739
1252.576, 104.2127
1253.058, 102.6630
1253.540, 101.8928
1254.022, 101.9820
1254.504, 102.0130
1254.986, 101.8978
1255.469, 101.8285
1255.951, 101.8669
1256.433, 102.0579
1256.915, 102.4766
1257.397, 102.6999
1257.879, 101.7753
1258.361, 100.4707
1258.843, 100.2852
1259.325, 100.8056
1259.807, 101.4332
1260.290, 101.9935
1260.772, 102.3523
1261.254, 102.4622
1261.736, 102.2388
1262.218, 101.5267
1262.700, 100.9221
1263.182, 100.6719
1263.664, 100.6346
1264.147, 100.9495
1264.629, 101.2426
1265.111, 101.1082
1265.593, 100.8370
1266.075, 100.9768
1266.557, 100.8647
1267.039, 100.9025
1267.521, 101.1333
1268.004, 101.1580
1268.486, 101.8063
1268.968, 102.2357
1269.450, 102.2526
1269.932, 102.1151
1270.414, 101.9520
1270.896, 101.8095
1271.378, 101.7725
1271.860, 101.7267
1272.343, 101.2015
1272.825, 100.5605
1273.307, 100.8285
1273.789, 101.7388
1274.271, 102.6141
1274.753, 103.2677
1275.235, 103.5792
1275.717, 103.5111
1276.199, 103.3475
1276.682, 103.1351
1277.164, 103.0453
1277.646, 102.9632
1278.128, 103.2626
1278.610, 104.7917
1279.092, 106.3111
1279.574, 106.1855
1280.056, 106.9482
1280.539, 107.0003
1281.021, 106.4313
1281.503, 106.5426
1281.985, 104.9467
1282.467, 104.2362
1282.949, 104.7616
1283.431, 105.3603
1283.913, 105.6801
1284.396, 105.7674
1284.878, 105.6215
1285.360, 105.5265
1285.842, 105.9609
1286.324, 106.6990
1286.806, 107.3664
##END=



