##NAMES=Phillipsite-Na
##RRUFFID=R061094
##IDEAL CHEMISTRY=Na_6_(Si_10_Al_6_)O_32_&#183;12H_2_O
##LOCALITY=Faraglione dei Ciccopi, Aci Castello, Catania Province, Sicily, Italy
##OWNER=RRUFF
##SOURCE=Michael Scott
##DESCRIPTION=Spherical aggregates of translucent white blocky, pseudotetragonal crystals, associated with chabazite-Na, R070440
##STATUS=The identification of this mineral is confirmed by single-crystal X-ray diffraction and chemical analysis.
##URL=rruff.info/R061094
##MEASURED CHEMISTRY=(Na_2.76_K_1.26_[box]_1.14_Ca_0.84_)_Σ=6_(Si_10.30_Al_5.70_)O_32_·7.58H_2_O
127.3502, 6116.946
127.8323, 6101.985
128.3144, 6067.129
128.7965, 6038.001
129.2787, 6015.548
129.7608, 5998.505
130.2429, 5987.769
130.7250, 5982.032
131.2071, 5972.868
131.6892, 5950.738
132.1714, 5917.150
132.6535, 5888.103
133.1356, 5864.657
133.6177, 5845.292
134.0998, 5826.849
134.5819, 5807.882
135.0640, 5792.235
135.5462, 5784.775
136.0283, 5785.641
136.5104, 5785.044
136.9925, 5777.944
137.4746, 5764.863
137.9567, 5766.249
138.4389, 5790.026
138.9210, 5814.593
139.4031, 5806.341
139.8852, 5755.603
140.3673, 5705.671
140.8494, 5673.294
141.3316, 5664.803
141.8137, 5651.705
142.2958, 5636.241
142.7779, 5616.660
143.2600, 5585.059
143.7421, 5532.970
144.2243, 5483.168
144.7064, 5448.454
145.1885, 5438.250
145.6706, 5424.960
146.1527, 5406.030
146.6348, 5382.190
147.1170, 5359.099
147.5991, 5333.814
148.0812, 5311.032
148.5633, 5294.572
149.0454, 5293.687
149.5275, 5287.590
150.0097, 5272.155
150.4918, 5245.689
150.9739, 5218.717
151.4560, 5183.803
151.9381, 5150.636
152.4202, 5129.583
152.9024, 5136.409
153.3845, 5141.650
153.8666, 5136.320
154.3487, 5114.996
154.8308, 5094.830
155.3129, 5077.322
155.7950, 5062.275
156.2772, 5049.762
156.7593, 5047.478
157.2414, 5042.357
157.7235, 5027.507
158.2056, 4993.259
158.6877, 4961.940
159.1699, 4939.908
159.6520, 4925.947
160.1341, 4914.913
160.6162, 4905.204
161.0983, 4897.895
161.5804, 4893.785
162.0626, 4901.891
162.5447, 4905.702
163.0268, 4896.354
163.5089, 4874.504
163.9910, 4852.319
164.4731, 4830.534
164.9553, 4812.863
165.4374, 4803.651
165.9195, 4821.826
166.4016, 4836.731
166.8837, 4822.791
167.3658, 4774.354
167.8480, 4729.706
168.3301, 4717.093
168.8122, 4725.058
169.2943, 4732.364
169.7764, 4727.292
170.2585, 4717.230
170.7407, 4710.595
171.2228, 4710.758
171.7049, 4707.191
172.1870, 4686.265
172.6691, 4652.744
173.1512, 4623.016
173.6334, 4609.426
174.1155, 4604.558
174.5976, 4597.970
175.0797, 4586.232
175.5618, 4573.899
176.0439, 4568.649
176.5260, 4569.249
177.0082, 4566.149
177.4903, 4546.632
177.9724, 4518.200
178.4545, 4498.317
178.9366, 4498.776
179.4187, 4505.837
179.9009, 4495.507
180.3830, 4467.655
180.8651, 4438.168
181.3472, 4422.925
181.8293, 4418.554
182.3114, 4413.273
182.7936, 4396.103
183.2757, 4375.463
183.7578, 4374.927
184.2399, 4397.285
184.7220, 4423.025
185.2041, 4426.614
185.6863, 4410.458
186.1684, 4392.741
186.6505, 4381.031
187.1326, 4374.460
187.6147, 4369.999
188.0968, 4368.021
188.5790, 4366.129
189.0611, 4360.565
189.5432, 4351.301
190.0253, 4340.184
190.5074, 4324.415
190.9895, 4305.828
191.4717, 4299.151
191.9538, 4310.224
192.4359, 4328.675
192.9180, 4329.953
193.4001, 4312.913
193.8822, 4292.960
194.3644, 4281.873
194.8465, 4279.545
195.3286, 4275.170
195.8107, 4266.410
196.2928, 4254.825
196.7749, 4245.418
197.2570, 4238.302
197.7392, 4232.782
198.2213, 4231.041
198.7034, 4233.958
199.1855, 4227.018
199.6676, 4200.225
200.1497, 4159.013
200.6319, 4146.064
201.1140, 4168.611
201.5961, 4199.968
202.0782, 4208.229
202.5603, 4188.991
203.0424, 4171.699
203.5246, 4166.276
204.0067, 4172.503
204.4888, 4174.653
204.9709, 4173.305
205.4530, 4167.012
205.9352, 4149.883
206.4173, 4116.379
206.8994, 4092.471
207.3815, 4091.927
207.8636, 4118.466
208.3457, 4133.396
208.8279, 4133.930
209.3100, 4125.860
209.7921, 4119.180
210.2742, 4114.129
210.7563, 4109.879
211.2384, 4107.904
211.7206, 4110.933
212.2027, 4102.959
212.6848, 4077.331
213.1669, 4044.170
213.6490, 4031.682
214.1311, 4049.083
214.6133, 4067.195
215.0954, 4068.854
215.5775, 4046.280
216.0596, 4032.879
216.5417, 4033.481
217.0238, 4043.966
217.5059, 4050.275
217.9881, 4053.056
218.4702, 4050.645
218.9523, 4039.114
219.4344, 4009.743
219.9165, 3996.204
220.3986, 4009.818
220.8808, 4043.720
221.3629, 4053.646
221.8450, 4027.019
222.3271, 3993.759
222.8092, 3975.587
223.2913, 3979.188
223.7735, 3983.107
224.2556, 3984.042
224.7377, 3982.241
225.2198, 3982.872
225.7019, 3986.383
226.1840, 3991.494
226.6662, 3997.356
227.1483, 4004.485
227.6304, 4010.901
228.1125, 4016.172
228.5946, 4020.184
229.0767, 4024.445
229.5589, 4030.719
230.0410, 4035.467
230.5231, 4035.006
231.0052, 4027.909
231.4873, 4018.121
231.9694, 4003.947
232.4516, 3984.013
232.9337, 3976.325
233.4158, 3989.883
233.8979, 4008.404
234.3800, 4010.361
234.8621, 3983.250
235.3443, 3961.614
235.8264, 3955.929
236.3085, 3969.932
236.7906, 3978.560
237.2727, 3978.471
237.7548, 3975.301
238.2369, 3978.300
238.7191, 3995.923
239.2012, 4005.766
239.6833, 3997.609
240.1654, 3962.892
240.6475, 3945.160
241.1296, 3953.929
241.6118, 3974.167
242.0939, 3979.596
242.5760, 3959.009
243.0581, 3941.460
243.5402, 3937.555
244.0223, 3952.154
244.5045, 3964.998
244.9866, 3975.564
245.4687, 3984.697
245.9508, 3994.228
246.4329, 4005.576
246.9150, 4015.258
247.3972, 4022.709
247.8793, 4030.010
248.3614, 4028.490
248.8435, 4011.896
249.3256, 3988.655
249.8077, 3978.786
250.2899, 3985.938
250.7720, 4000.391
251.2541, 4020.085
251.7362, 4051.544
252.2183, 4071.176
252.7004, 4075.101
253.1826, 4068.081
253.6647, 4061.179
254.1468, 4050.343
254.6289, 4045.942
255.1110, 4054.010
255.5931, 4080.563
256.0753, 4105.244
256.5574, 4130.684
257.0395, 4153.401
257.5216, 4161.436
258.0037, 4148.866
258.4858, 4132.130
258.9680, 4118.694
259.4501, 4107.249
259.9322, 4103.598
260.4143, 4112.380
260.8964, 4128.051
261.3785, 4130.196
261.8607, 4109.775
262.3428, 4093.426
262.8249, 4099.029
263.3070, 4102.176
263.7891, 4147.750
264.2712, 4173.781
264.7534, 4181.317
265.2355, 4114.971
265.7176, 4144.029
266.1997, 4134.853
266.6818, 4124.110
267.1639, 4166.596
267.6461, 4110.995
268.1282, 4152.638
268.6103, 4155.462
269.0924, 4176.052
269.5745, 4158.172
270.0566, 4152.175
270.5387, 4153.948
271.0208, 4161.400
271.5030, 4165.949
271.9851, 4166.461
272.4672, 4163.799
272.9493, 4158.732
273.4314, 4148.484
273.9135, 4144.565
274.3957, 4160.948
274.8778, 4202.803
275.3599, 4223.921
275.8420, 4211.899
276.3241, 4180.416
276.8062, 4175.081
277.2884, 4201.792
277.7705, 4230.702
278.2526, 4239.094
278.7347, 4225.385
279.2168, 4218.460
279.6989, 4223.551
280.1811, 4236.097
280.6632, 4243.573
281.1453, 4245.330
281.6274, 4245.405
282.1095, 4245.137
282.5916, 4244.482
283.0738, 4248.448
283.5559, 4259.589
284.0380, 4273.631
284.5201, 4279.862
285.0022, 4277.987
285.4843, 4272.033
285.9665, 4259.207
286.4486, 4241.292
286.9307, 4240.418
287.4128, 4265.273
287.8949, 4301.439
288.3770, 4317.835
288.8592, 4314.636
289.3413, 4304.563
289.8234, 4295.069
290.3055, 4285.908
290.7876, 4274.521
291.2697, 4258.246
291.7519, 4243.390
292.2340, 4244.675
292.7161, 4261.245
293.1982, 4277.009
293.6803, 4278.736
294.1624, 4270.774
294.6446, 4266.961
295.1267, 4268.917
295.6088, 4275.814
296.0909, 4289.103
296.5730, 4307.523
297.0551, 4324.410
297.5373, 4336.631
298.0194, 4343.949
298.5015, 4344.215
298.9836, 4334.800
299.4657, 4323.987
299.9478, 4326.080
300.4300, 4337.423
300.9121, 4343.320
301.3942, 4322.066
301.8763, 4293.004
302.3584, 4292.149
302.8405, 4332.421
303.3227, 4375.536
303.8048, 4377.558
304.2869, 4349.657
304.7690, 4325.536
305.2511, 4325.882
305.7332, 4339.470
306.2154, 4355.410
306.6975, 4373.484
307.1796, 4388.943
307.6617, 4395.665
308.1438, 4396.430
308.6259, 4397.701
309.1081, 4401.169
309.5901, 4407.309
310.0723, 4416.606
310.5544, 4429.110
311.0365, 4444.497
311.5186, 4467.169
312.0007, 4492.453
312.4828, 4511.747
312.9650, 4514.263
313.4471, 4514.901
313.9292, 4526.433
314.4113, 4553.244
314.8934, 4571.803
315.3755, 4561.133
315.8577, 4537.314
316.3398, 4523.567
316.8219, 4535.196
317.3040, 4552.682
317.7861, 4566.689
318.2682, 4575.748
318.7504, 4587.421
319.2325, 4609.691
319.7146, 4634.218
320.1967, 4651.123
320.6788, 4651.582
321.1609, 4650.082
321.6431, 4650.729
322.1252, 4653.807
322.6073, 4658.051
323.0894, 4660.655
323.5715, 4665.395
324.0536, 4675.809
324.5358, 4703.021
325.0179, 4724.782
325.5000, 4737.544
325.9821, 4741.011
326.4642, 4736.053
326.9464, 4710.355
327.4285, 4683.195
327.9106, 4668.875
328.3927, 4678.487
328.8748, 4687.698
329.3569, 4693.104
329.8391, 4695.308
330.3212, 4702.007
330.8033, 4721.633
331.2854, 4738.443
331.7675, 4741.054
332.2496, 4717.438
332.7318, 4701.184
333.2139, 4692.738
333.6960, 4655.453
334.1781, 4697.371
334.6602, 4719.746
335.1423, 4723.627
335.6245, 4653.625
336.1066, 4679.028
336.5887, 4666.197
337.0708, 4651.799
337.5529, 4690.630
338.0350, 4631.375
338.5172, 4669.361
338.9993, 4681.593
339.4814, 4686.011
339.9635, 4677.209
340.4456, 4677.777
340.9277, 4692.851
341.4099, 4711.741
341.8920, 4710.081
342.3741, 4685.112
342.8562, 4664.368
343.3383, 4668.203
343.8204, 4693.283
344.3026, 4698.028
344.7847, 4677.769
345.2668, 4648.403
345.7489, 4630.086
346.2310, 4622.353
346.7131, 4621.546
347.1953, 4631.437
347.6774, 4647.318
348.1595, 4654.041
348.6416, 4651.304
349.1237, 4642.552
349.6058, 4624.880
350.0880, 4603.072
350.5700, 4591.979
351.0522, 4608.180
351.5343, 4633.442
352.0164, 4637.629
352.4985, 4621.361
352.9806, 4602.425
353.4627, 4592.707
353.9449, 4590.253
354.4270, 4592.013
354.9091, 4598.559
355.3912, 4607.180
355.8733, 4581.811
356.3554, 4626.186
356.8376, 4651.018
357.3197, 4657.355
357.8018, 4589.810
358.2839, 4617.670
358.7660, 4607.295
359.2481, 4595.354
359.7303, 4636.642
360.2124, 4579.842
360.6945, 4620.286
361.1766, 4621.912
361.6587, 4641.304
362.1408, 4608.322
362.6230, 4606.416
363.1051, 4606.007
363.5872, 4609.140
364.0693, 4613.830
364.5514, 4616.042
365.0335, 4611.471
365.5157, 4607.362
365.9978, 4606.787
366.4799, 4611.353
366.9620, 4614.663
367.4441, 4610.563
367.9262, 4606.228
368.4084, 4611.417
368.8905, 4644.646
369.3726, 4666.180
369.8547, 4661.022
370.3368, 4623.936
370.8189, 4609.150
371.3011, 4633.976
371.7832, 4666.391
372.2653, 4676.041
372.7474, 4649.538
373.2295, 4628.631
373.7116, 4622.118
374.1938, 4627.926
374.6759, 4628.625
375.1580, 4622.711
375.6401, 4615.427
376.1222, 4610.006
376.6043, 4606.495
377.0865, 4605.976
377.5686, 4608.291
378.0507, 4614.107
378.5328, 4628.473
379.0149, 4653.313
379.4970, 4672.030
379.9792, 4669.971
380.4613, 4649.490
380.9434, 4635.130
381.4255, 4627.812
381.9076, 4628.107
382.3897, 4641.971
382.8719, 4667.154
383.3540, 4686.761
383.8361, 4687.776
384.3182, 4678.052
384.8003, 4675.191
385.2824, 4679.957
385.7646, 4687.979
386.2467, 4698.282
386.7288, 4708.788
387.2109, 4714.963
387.6930, 4704.779
388.1751, 4696.115
388.6573, 4714.584
389.1394, 4757.360
389.6215, 4790.937
390.1036, 4779.241
390.5857, 4752.813
391.0678, 4745.544
391.5499, 4788.033
392.0320, 4825.735
392.5142, 4824.102
392.9963, 4793.007
393.4784, 4764.359
393.9605, 4739.363
394.4426, 4728.508
394.9247, 4741.688
395.4069, 4761.516
395.8890, 4814.202
396.3711, 4847.344
396.8532, 4861.993
397.3353, 4802.758
397.8174, 4838.928
398.2996, 4836.865
398.7817, 4833.234
399.2638, 4882.832
399.7459, 4834.343
400.2280, 4883.097
400.7101, 4893.033
401.1923, 4920.736
401.6744, 4909.968
402.1565, 4953.543
402.6386, 4981.689
403.1207, 4988.915
403.6028, 5001.534
404.0850, 5023.835
404.5671, 5043.926
405.0492, 5051.462
405.5313, 5043.817
406.0134, 5038.176
406.4955, 5035.735
406.9777, 5037.272
407.4598, 5048.543
407.9419, 5071.313
408.4240, 5088.186
408.9061, 5083.614
409.3882, 5061.983
409.8704, 5051.511
410.3525, 5055.658
410.8346, 5064.832
411.3167, 5068.408
411.7988, 5066.545
412.2809, 5060.334
412.7631, 5042.877
413.2452, 5023.863
413.7273, 5023.937
414.2094, 5043.140
414.6915, 5059.247
415.1736, 5048.081
415.6558, 5023.233
416.1379, 5006.225
416.6200, 5010.094
417.1021, 5016.528
417.5842, 5010.253
418.0663, 4994.523
418.5485, 4983.795
419.0306, 4991.456
419.5127, 5002.595
419.9948, 5005.723
420.4769, 4993.174
420.9590, 4984.243
421.4412, 4988.586
421.9233, 4999.717
422.4054, 5005.692
422.8875, 4993.670
423.3696, 4985.725
423.8517, 4992.202
424.3339, 5019.246
424.8160, 5034.855
425.2981, 5032.545
425.7802, 5022.644
426.2623, 5013.727
426.7444, 5001.070
427.2266, 4997.608
427.7087, 5003.962
428.1908, 5020.784
428.6729, 5058.337
429.1550, 5130.379
429.6371, 5193.488
430.1193, 5213.073
430.6014, 5182.687
431.0835, 5160.359
431.5656, 5150.707
432.0477, 5150.448
432.5298, 5152.553
433.0119, 5156.866
433.4940, 5169.245
433.9762, 5201.235
434.4583, 5244.517
434.9404, 5265.408
435.4225, 5261.486
435.9046, 5252.077
436.3867, 5249.587
436.8689, 5256.852
437.3510, 5282.847
437.8331, 5349.104
438.3152, 5418.358
438.7973, 5443.213
439.2794, 5430.520
439.7616, 5419.770
440.2437, 5435.472
440.7258, 5464.742
441.2079, 5497.115
441.6900, 5533.729
442.1721, 5565.927
442.6543, 5589.949
443.1364, 5606.788
443.6185, 5618.365
444.1006, 5613.720
444.5827, 5614.108
445.0648, 5630.407
445.5470, 5666.833
446.0291, 5698.640
446.5112, 5716.347
446.9933, 5731.928
447.4754, 5756.648
447.9576, 5800.333
448.4397, 5838.269
448.9218, 5864.048
449.4039, 5880.793
449.8860, 5906.735
450.3681, 5946.953
450.8503, 5986.148
451.3324, 6013.814
451.8145, 6026.497
452.2966, 6048.171
452.7787, 6083.169
453.2608, 6121.512
453.7430, 6146.794
454.2251, 6158.706
454.7072, 6169.060
455.1893, 6179.731
455.6714, 6192.801
456.1535, 6216.556
456.6357, 6251.214
457.1178, 6289.790
457.5999, 6327.591
458.0820, 6364.455
458.5641, 6398.503
459.0462, 6428.125
459.5284, 6457.485
460.0105, 6491.447
460.4926, 6528.741
460.9747, 6564.147
461.4568, 6598.458
461.9389, 6627.581
462.4211, 6643.274
462.9032, 6639.459
463.3853, 6649.209
463.8674, 6703.621
464.3495, 6772.670
464.8316, 6821.042
465.3138, 6806.693
465.7959, 6806.375
466.2780, 6850.553
466.7601, 6936.162
467.2422, 6996.180
467.7243, 7009.082
468.2065, 7015.386
468.6886, 7035.961
469.1707, 7075.433
469.6528, 7120.783
470.1349, 7177.570
470.6170, 7236.229
471.0992, 7276.119
471.5813, 7292.468
472.0634, 7308.999
472.5455, 7334.404
473.0276, 7367.656
473.5097, 7396.889
473.9918, 7420.235
474.4739, 7451.469
474.9561, 7514.020
475.4382, 7599.701
475.9203, 7665.975
476.4024, 7698.600
476.8845, 7717.527
477.3666, 7748.319
477.8488, 7789.313
478.3309, 7833.809
478.8130, 7883.966
479.2951, 7932.468
479.7772, 7972.569
480.2593, 8003.999
480.7415, 8026.144
481.2236, 8024.916
481.7057, 8018.855
482.1878, 8029.821
482.6699, 8095.098
483.1520, 8147.330
483.6342, 8152.102
484.1163, 8118.785
484.5984, 8105.851
485.0805, 8149.136
485.5626, 8192.317
486.0447, 8209.011
486.5269, 8184.601
487.0090, 8166.107
487.4911, 8157.744
487.9732, 8152.714
488.4553, 8142.386
488.9374, 8128.974
489.4196, 8103.499
489.9017, 8058.320
490.3838, 7998.608
490.8659, 7955.160
491.3480, 7929.851
491.8301, 7912.175
492.3123, 7897.690
492.7944, 7884.969
493.2765, 7865.939
493.7586, 7840.270
494.2407, 7806.257
494.7228, 7759.844
495.2050, 7703.083
495.6871, 7642.780
496.1692, 7575.865
496.6513, 7510.523
497.1334, 7456.600
497.6155, 7414.198
498.0977, 7369.760
498.5798, 7309.568
499.0619, 7246.871
499.5440, 7196.025
500.0261, 7171.911
500.5082, 7141.806
500.9904, 7094.993
501.4725, 7036.145
501.9546, 6974.741
502.4367, 6908.533
502.9188, 6843.604
503.4009, 6780.975
503.8831, 6720.182
504.3652, 6663.986
504.8473, 6613.401
505.3294, 6565.735
505.8115, 6520.799
506.2936, 6480.784
506.7758, 6432.812
507.2579, 6372.444
507.7400, 6305.890
508.2221, 6248.553
508.7042, 6200.763
509.1863, 6155.024
509.6685, 6108.453
510.1506, 6061.188
510.6327, 6011.106
511.1148, 5957.872
511.5969, 5910.157
512.0790, 5887.236
512.5612, 5873.660
513.0433, 5839.592
513.5254, 5758.788
514.0075, 5679.977
514.4896, 5644.345
514.9717, 5640.506
515.4539, 5635.081
515.9360, 5620.076
516.4181, 5594.774
516.9002, 5552.118
517.3823, 5485.133
517.8644, 5437.124
518.3466, 5426.239
518.8287, 5431.311
519.3108, 5434.002
519.7929, 5442.237
520.2750, 5433.978
520.7571, 5396.884
521.2393, 5343.852
521.7214, 5318.450
522.2035, 5331.438
522.6856, 5341.276
523.1677, 5324.847
523.6498, 5283.567
524.1320, 5254.885
524.6141, 5239.893
525.0962, 5232.251
525.5783, 5228.190
526.0604, 5226.322
526.5425, 5221.448
527.0247, 5213.264
527.5068, 5200.113
527.9889, 5175.646
528.4710, 5143.618
528.9531, 5115.585
529.4352, 5098.890
529.9174, 5088.397
530.3995, 5080.786
530.8816, 5076.010
531.3637, 5073.174
531.8458, 5077.211
532.3279, 5080.455
532.8101, 5076.202
533.2922, 5047.490
533.7743, 5030.154
534.2564, 5036.270
534.7385, 5056.028
535.2206, 5064.138
535.7027, 5053.331
536.1848, 5042.755
536.6669, 5041.291
537.1490, 5049.681
537.6312, 5040.573
538.1133, 5006.719
538.5954, 4975.964
539.0775, 4982.830
539.5596, 5023.045
540.0417, 5045.558
540.5239, 5038.111
541.0060, 5017.919
541.4881, 5011.301
541.9702, 5014.939
542.4523, 5016.130
542.9344, 5003.359
543.4166, 4988.173
543.8987, 4982.590
544.3808, 4986.646
544.8629, 4993.787
545.3450, 5008.996
545.8271, 5020.918
546.3093, 5018.686
546.7914, 4986.217
547.2735, 4963.440
547.7556, 4962.296
548.2377, 4975.440
548.7198, 4990.269
549.2020, 5017.741
549.6841, 5030.595
550.1662, 5014.711
550.6483, 4973.433
551.1304, 4958.729
551.6125, 4977.819
552.0947, 5004.972
552.5768, 5025.147
553.0589, 5038.226
553.5410, 5041.805
554.0231, 5033.004
554.5052, 5023.347
554.9874, 5033.152
555.4695, 5056.405
555.9516, 5071.483
556.4337, 5068.706
556.9158, 5055.644
557.3979, 5035.095
557.8801, 5009.756
558.3622, 4992.112
558.8443, 4992.133
559.3264, 4999.997
559.8085, 5011.255
560.2906, 5027.931
560.7728, 5036.936
561.2549, 5023.824
561.7370, 5006.713
562.2191, 5004.789
562.7012, 5037.504
563.1833, 5058.430
563.6655, 5061.513
564.1476, 5050.456
564.6297, 5034.601
565.1118, 5011.745
565.5939, 4990.965
566.0760, 4976.841
566.5582, 4968.857
567.0403, 4958.398
567.5224, 4945.055
568.0045, 4932.937
568.4866, 4925.653
568.9688, 4922.701
569.4509, 4923.581
569.9330, 4929.403
570.4151, 4935.727
570.8972, 4935.482
571.3793, 4932.600
571.8615, 4934.986
572.3436, 4950.874
572.8257, 4968.579
573.3078, 4981.359
573.7899, 4989.663
574.2720, 4999.383
574.7542, 5018.801
575.2363, 5034.541
575.7184, 5038.037
576.2005, 5020.884
576.6826, 5014.279
577.1647, 5025.769
577.6469, 5040.470
578.1290, 5037.338
578.6111, 5011.999
579.0932, 4993.712
579.5753, 4989.127
580.0574, 4994.703
580.5396, 5004.993
581.0217, 5019.609
581.5038, 5029.448
581.9859, 5024.974
582.4680, 5013.820
582.9501, 5008.306
583.4323, 5008.760
583.9144, 5012.697
584.3965, 5026.504
584.8786, 5038.892
585.3607, 5036.090
585.8428, 5003.371
586.3250, 4977.700
586.8071, 4978.760
587.2892, 4993.225
587.7713, 4998.510
588.2534, 4975.821
588.7355, 4963.129
589.2177, 4972.564
589.6998, 5000.143
590.1819, 5013.284
590.6640, 5006.893
591.1461, 4998.700
591.6282, 4998.981
592.1104, 5007.597
592.5925, 5015.300
593.0746, 5021.872
593.5567, 5027.218
594.0388, 5031.804
594.5209, 5034.941
595.0031, 5034.734
595.4852, 5030.234
595.9673, 5022.780
596.4494, 5008.538
596.9315, 4992.109
597.4136, 4984.792
597.8958, 5000.042
598.3779, 5017.988
598.8600, 5030.156
599.3421, 5036.281
599.8242, 5039.376
600.3063, 5034.074
600.7885, 5031.091
601.2706, 5037.458
601.7527, 5061.260
602.2348, 5071.030
602.7169, 5061.249
603.1990, 5044.932
603.6812, 5038.101
604.1633, 5041.037
604.6454, 5047.593
605.1275, 5058.776
605.6096, 5069.058
606.0917, 5063.052
606.5739, 5044.455
607.0560, 5032.913
607.5381, 5048.012
608.0202, 5070.643
608.5023, 5080.848
608.9844, 5078.224
609.4666, 5069.703
609.9487, 5053.701
610.4308, 5036.707
610.9129, 5023.507
611.3950, 5015.316
611.8771, 5010.212
612.3593, 5006.803
612.8414, 5007.291
613.3235, 5015.746
613.8056, 5040.176
614.2877, 5053.868
614.7698, 5048.709
615.2520, 5032.022
615.7341, 5027.598
616.2162, 5036.258
616.6983, 5043.164
617.1804, 5033.797
617.6625, 5017.780
618.1446, 5029.646
618.6267, 5067.715
619.1088, 5093.794
619.5909, 5057.585
620.0731, 5002.259
620.5552, 4982.455
621.0373, 5018.968
621.5194, 5052.139
622.0015, 5051.114
622.4836, 5034.715
622.9658, 5025.990
623.4479, 5037.387
623.9300, 5046.717
624.4121, 5050.943
624.8942, 5051.415
625.3763, 5050.800
625.8585, 5046.406
626.3406, 5048.721
626.8227, 5065.423
627.3048, 5093.132
627.7869, 5109.384
628.2690, 5113.917
628.7512, 5109.544
629.2333, 5090.555
629.7154, 5065.780
630.1975, 5056.331
630.6796, 5067.511
631.1617, 5076.803
631.6439, 5059.598
632.1260, 5033.105
632.6081, 5019.067
633.0902, 5036.749
633.5723, 5052.648
634.0544, 5060.901
634.5366, 5060.912
635.0187, 5050.422
635.5008, 5018.771
635.9829, 4992.092
636.4650, 4979.173
636.9471, 4977.941
637.4293, 4970.449
637.9114, 4954.495
638.3935, 4941.593
638.8756, 4942.860
639.3577, 4954.220
639.8398, 4953.989
640.3220, 4939.662
640.8041, 4929.065
641.2862, 4947.067
641.7683, 4977.044
642.2504, 4992.737
642.7325, 4983.027
643.2147, 4967.868
643.6968, 4950.118
644.1789, 4935.466
644.6610, 4932.385
645.1431, 4958.454
645.6252, 4978.622
646.1074, 4983.544
646.5895, 4977.029
647.0716, 4976.782
647.5537, 4986.899
648.0358, 4993.689
648.5179, 4989.399
649.0001, 4975.620
649.4822, 4967.779
649.9643, 4966.082
650.4464, 4967.789
650.9285, 4973.099
651.4106, 4979.687
651.8928, 4983.306
652.3749, 4983.735
652.8570, 4979.125
653.3391, 4960.713
653.8212, 4939.167
654.3033, 4927.434
654.7855, 4941.183
655.2676, 4951.113
655.7497, 4942.890
656.2318, 4927.413
656.7139, 4929.421
657.1960, 4962.033
657.6782, 4988.372
658.1603, 4996.525
658.6424, 4990.823
659.1245, 4995.902
659.6066, 5013.201
660.0887, 5028.653
660.5709, 5031.991
661.0530, 5027.384
661.5351, 5026.808
662.0172, 5030.678
662.4993, 5031.543
662.9814, 5021.154
663.4636, 5005.795
663.9457, 4991.162
664.4278, 4976.512
664.9099, 4967.837
665.3920, 4969.773
665.8741, 4977.783
666.3563, 4986.416
666.8384, 4997.701
667.3205, 5005.923
667.8026, 5011.461
668.2847, 5013.139
668.7668, 5004.430
669.2490, 4982.551
669.7311, 4971.758
670.2132, 4986.178
670.6953, 5014.854
671.1774, 5030.933
671.6595, 5035.233
672.1417, 5034.759
672.6238, 5027.322
673.1059, 5021.452
673.5880, 5029.411
674.0701, 5052.339
674.5522, 5069.106
675.0344, 5064.674
675.5165, 5054.601
675.9986, 5049.779
676.4807, 5053.904
676.9628, 5057.603
677.4449, 5061.948
677.9271, 5064.487
678.4092, 5060.378
678.8913, 5047.588
679.3734, 5043.266
679.8555, 5052.764
680.3376, 5066.605
680.8198, 5069.221
681.3019, 5062.024
681.7840, 5050.320
682.2661, 5029.207
682.7482, 5011.301
683.2303, 5010.460
683.7125, 5023.137
684.1946, 5036.624
684.6767, 5053.439
685.1588, 5062.855
685.6409, 5053.879
686.1230, 5023.751
686.6052, 5015.245
687.0873, 5044.060
687.5694, 5072.412
688.0515, 5077.361
688.5336, 5055.471
689.0157, 5039.472
689.4979, 5028.608
689.9800, 5026.843
690.4621, 5047.889
690.9442, 5081.160
691.4263, 5097.181
691.9084, 5087.095
692.3906, 5070.003
692.8727, 5055.595
693.3548, 5046.346
693.8369, 5045.661
694.3190, 5063.093
694.8011, 5079.873
695.2833, 5093.482
695.7654, 5102.934
696.2475, 5105.800
696.7296, 5098.790
697.2117, 5091.313
697.6938, 5083.907
698.1760, 5078.164
698.6581, 5083.313
699.1402, 5099.751
699.6223, 5115.055
700.1044, 5118.427
700.5865, 5116.867
701.0686, 5126.837
701.5507, 5147.600
702.0328, 5163.769
702.5150, 5161.630
702.9971, 5153.418
703.4792, 5148.952
703.9613, 5150.713
704.4434, 5150.907
704.9255, 5146.052
705.4077, 5140.529
705.8898, 5137.709
706.3719, 5138.975
706.8540, 5138.924
707.3361, 5137.283
707.8182, 5134.585
708.3004, 5129.175
708.7825, 5122.169
709.2646, 5124.704
709.7467, 5145.499
710.2288, 5163.746
710.7109, 5143.406
711.1931, 5102.450
711.6752, 5078.698
712.1573, 5101.204
712.6394, 5130.785
713.1215, 5156.335
713.6036, 5176.077
714.0858, 5183.895
714.5679, 5173.947
715.0500, 5160.305
715.5321, 5144.386
716.0142, 5127.307
716.4963, 5123.169
716.9785, 5134.678
717.4606, 5142.211
717.9427, 5127.797
718.4248, 5101.022
718.9069, 5086.756
719.3890, 5085.757
719.8712, 5091.123
720.3533, 5102.464
720.8354, 5115.079
721.3175, 5124.413
721.7996, 5129.658
722.2817, 5131.942
722.7639, 5125.929
723.2460, 5120.319
723.7281, 5122.942
724.2102, 5139.280
724.6923, 5150.042
725.1744, 5155.530
725.6566, 5152.801
726.1387, 5129.059
726.6208, 5088.131
727.1029, 5069.073
727.5850, 5086.750
728.0671, 5116.396
728.5493, 5133.155
729.0314, 5138.459
729.5135, 5135.576
729.9956, 5119.902
730.4777, 5102.749
730.9598, 5086.877
731.4420, 5073.229
731.9241, 5064.631
732.4062, 5059.926
732.8883, 5062.120
733.3704, 5074.433
733.8525, 5094.187
734.3347, 5108.281
734.8168, 5116.489
735.2989, 5119.756
735.7810, 5119.429
736.2631, 5114.180
736.7452, 5096.581
737.2274, 5068.301
737.7095, 5046.233
738.1916, 5045.883
738.6737, 5052.741
739.1558, 5054.180
739.6379, 5047.160
740.1201, 5049.309
740.6022, 5074.633
741.0843, 5100.818
741.5664, 5115.417
742.0485, 5116.250
742.5306, 5114.363
743.0128, 5109.000
743.4949, 5103.283
743.9770, 5102.035
744.4591, 5103.381
744.9412, 5096.844
745.4233, 5077.303
745.9055, 5065.094
746.3876, 5087.630
746.8697, 5125.190
747.3518, 5151.019
747.8339, 5151.958
748.3160, 5148.765
748.7982, 5144.163
749.2803, 5138.756
749.7624, 5133.452
750.2445, 5128.474
750.7266, 5122.630
751.2087, 5114.899
751.6909, 5107.205
752.1730, 5099.958
752.6551, 5094.651
753.1372, 5104.194
753.6193, 5148.156
754.1014, 5193.395
754.5836, 5193.208
755.0657, 5162.369
755.5478, 5142.316
756.0299, 5168.672
756.5120, 5192.003
756.9941, 5190.819
757.4763, 5167.578
757.9584, 5144.655
758.4405, 5118.799
758.9226, 5099.248
759.4047, 5086.502
759.8868, 5082.719
760.3690, 5109.812
760.8511, 5167.680
761.3332, 5217.492
761.8153, 5227.604
762.2974, 5217.395
762.7795, 5212.910
763.2617, 5215.079
763.7438, 5217.958
764.2259, 5221.113
764.7080, 5222.005
765.1901, 5218.495
765.6722, 5209.252
766.1544, 5200.718
766.6365, 5191.828
767.1186, 5185.343
767.6007, 5184.097
768.0828, 5188.077
768.5649, 5191.862
769.0471, 5195.605
769.5292, 5196.626
770.0113, 5191.313
770.4934, 5181.891
770.9755, 5169.604
771.4576, 5151.890
771.9398, 5144.500
772.4219, 5171.118
772.9040, 5203.449
773.3861, 5213.560
773.8682, 5172.330
774.3503, 5154.310
774.8325, 5171.611
775.3146, 5197.646
775.7967, 5195.700
776.2788, 5165.705
776.7609, 5152.836
777.2430, 5168.533
777.7252, 5189.733
778.2073, 5180.239
778.6894, 5155.720
779.1715, 5147.087
779.6536, 5177.917
780.1357, 5204.897
780.6179, 5202.593
781.1000, 5185.235
781.5821, 5177.729
782.0642, 5187.207
782.5463, 5198.102
783.0284, 5212.235
783.5105, 5223.636
783.9926, 5214.434
784.4747, 5185.548
784.9568, 5165.984
785.4390, 5168.689
785.9211, 5180.317
786.4032, 5182.727
786.8853, 5179.153
787.3674, 5177.405
787.8495, 5183.091
788.3317, 5188.840
788.8138, 5192.969
789.2959, 5194.608
789.7780, 5190.227
790.2601, 5170.520
790.7422, 5162.830
791.2244, 5177.945
791.7065, 5208.246
792.1886, 5231.955
792.6707, 5248.499
793.1528, 5252.910
793.6349, 5233.121
794.1171, 5205.991
794.5992, 5193.541
795.0813, 5192.143
795.5634, 5186.857
796.0455, 5165.334
796.5276, 5144.792
797.0098, 5132.835
797.4919, 5129.106
797.9740, 5127.516
798.4561, 5128.977
798.9382, 5130.856
799.4203, 5132.538
799.9025, 5133.743
800.3846, 5132.369
800.8667, 5128.600
801.3488, 5125.383
801.8309, 5124.030
802.3130, 5124.400
802.7952, 5125.985
803.2773, 5128.802
803.7594, 5134.284
804.2415, 5155.681
804.7236, 5166.784
805.2057, 5150.436
805.6879, 5106.153
806.1700, 5088.637
806.6521, 5105.767
807.1342, 5120.648
807.6163, 5099.262
808.0984, 5057.439
808.5806, 5057.267
809.0627, 5096.384
809.5448, 5128.916
810.0269, 5112.867
810.5090, 5085.021
810.9911, 5076.859
811.4733, 5092.898
811.9554, 5101.057
812.4375, 5084.134
812.9196, 5070.939
813.4017, 5079.588
813.8839, 5111.806
814.3660, 5115.420
814.8481, 5087.027
815.3302, 5057.347
815.8123, 5050.086
816.2944, 5058.384
816.7766, 5071.069
817.2587, 5087.503
817.7408, 5103.695
818.2229, 5117.068
818.7050, 5129.984
819.1871, 5144.509
819.6693, 5161.955
820.1514, 5176.945
820.6335, 5188.752
821.1156, 5199.740
821.5977, 5212.089
822.0798, 5225.465
822.5620, 5233.266
823.0441, 5234.842
823.5262, 5237.375
824.0083, 5247.653
824.4904, 5261.496
824.9725, 5275.048
825.4547, 5287.772
825.9368, 5296.972
826.4189, 5292.499
826.9010, 5291.599
827.3831, 5308.399
827.8652, 5349.998
828.3474, 5365.254
828.8295, 5347.606
829.3116, 5324.947
829.7937, 5322.536
830.2758, 5333.035
830.7579, 5331.121
831.2401, 5315.288
831.7222, 5298.638
832.2043, 5287.304
832.6864, 5281.717
833.1685, 5284.237
833.6506, 5297.132
834.1328, 5306.239
834.6149, 5307.800
835.0970, 5308.607
835.5791, 5312.786
836.0612, 5320.513
836.5433, 5327.861
837.0255, 5334.810
837.5076, 5342.668
837.9897, 5357.970
838.4718, 5372.664
838.9539, 5372.516
839.4360, 5355.983
839.9182, 5339.142
840.4003, 5326.303
840.8824, 5317.616
841.3645, 5313.933
841.8466, 5315.481
842.3287, 5317.744
842.8109, 5321.134
843.2930, 5323.431
843.7751, 5322.878
844.2572, 5319.775
844.7393, 5314.958
845.2214, 5308.494
845.7036, 5302.701
846.1857, 5296.664
846.6678, 5293.998
847.1499, 5300.752
847.6320, 5318.463
848.1141, 5328.274
848.5963, 5323.640
849.0784, 5316.251
849.5605, 5309.361
850.0426, 5303.370
850.5247, 5313.147
851.0068, 5340.266
851.4890, 5359.715
851.9711, 5344.046
852.4532, 5315.281
852.9353, 5306.059
853.4174, 5315.668
853.8995, 5323.767
854.3817, 5312.471
854.8638, 5305.045
855.3459, 5318.583
855.8280, 5351.320
856.3101, 5361.657
856.7922, 5341.499
857.2744, 5326.682
857.7565, 5341.381
858.2386, 5374.046
858.7207, 5389.847
859.2028, 5390.506
859.6849, 5386.389
860.1671, 5383.144
860.6492, 5377.738
861.1313, 5363.147
861.6134, 5341.795
862.0955, 5336.766
862.5776, 5361.687
863.0598, 5381.795
863.5419, 5384.070
864.0240, 5373.929
864.5061, 5375.026
864.9882, 5386.389
865.4703, 5392.256
865.9524, 5379.338
866.4345, 5361.161
866.9166, 5348.992
867.3987, 5343.394
867.8809, 5345.858
868.3630, 5367.733
868.8451, 5385.457
869.3272, 5396.238
869.8093, 5398.149
870.2914, 5381.552
870.7736, 5342.894
871.2557, 5313.684
871.7378, 5303.986
872.2199, 5308.118
872.7020, 5324.977
873.1841, 5348.292
873.6663, 5362.292
874.1484, 5355.941
874.6305, 5344.600
875.1126, 5327.611
875.5947, 5311.042
876.0768, 5306.652
876.5590, 5319.642
877.0411, 5329.374
877.5232, 5329.513
878.0053, 5331.365
878.4874, 5362.558
878.9695, 5411.954
879.4517, 5441.273
879.9338, 5435.371
880.4159, 5419.179
880.8980, 5406.764
881.3801, 5395.363
881.8622, 5381.026
882.3444, 5347.418
882.8265, 5338.529
883.3086, 5365.382
883.7907, 5401.510
884.2728, 5419.453
884.7549, 5419.883
885.2371, 5403.792
885.7192, 5368.487
886.2013, 5339.128
886.6834, 5346.465
887.1655, 5368.198
887.6476, 5381.594
888.1298, 5383.037
888.6119, 5373.934
889.0940, 5339.147
889.5761, 5311.915
890.0582, 5322.256
890.5403, 5374.550
891.0225, 5388.272
891.5046, 5361.159
891.9867, 5327.426
892.4688, 5314.006
892.9509, 5312.048
893.4330, 5312.192
893.9152, 5313.622
894.3973, 5315.707
894.8794, 5311.622
895.3615, 5315.191
895.8436, 5337.354
896.3257, 5376.410
896.8079, 5393.322
897.2900, 5385.944
897.7721, 5372.644
898.2542, 5357.304
898.7363, 5345.968
899.2184, 5355.240
899.7006, 5380.087
900.1827, 5399.022
900.6648, 5399.019
901.1469, 5394.787
901.6290, 5388.989
902.1111, 5383.768
902.5933, 5387.283
903.0754, 5402.606
903.5575, 5414.853
904.0396, 5419.399
904.5217, 5419.168
905.0038, 5422.333
905.4860, 5425.426
905.9681, 5418.253
906.4502, 5385.665
906.9323, 5356.760
907.4144, 5340.983
907.8965, 5339.282
908.3787, 5355.343
908.8608, 5404.854
909.3429, 5425.669
909.8250, 5402.762
910.3071, 5369.931
910.7892, 5381.659
911.2714, 5421.949
911.7535, 5440.933
912.2356, 5424.363
912.7177, 5406.766
913.1998, 5412.756
913.6819, 5426.609
914.1641, 5433.922
914.6462, 5431.843
915.1283, 5427.291
915.6104, 5418.030
916.0925, 5411.677
916.5746, 5418.030
917.0568, 5432.974
917.5389, 5436.988
918.0210, 5430.022
918.5031, 5424.751
918.9852, 5438.459
919.4673, 5450.354
919.9495, 5439.935
920.4316, 5405.953
920.9137, 5393.313
921.3958, 5416.226
921.8779, 5432.780
922.3600, 5420.531
922.8422, 5390.765
923.3243, 5386.053
923.8064, 5402.599
924.2885, 5420.097
924.7706, 5425.958
925.2527, 5430.028
925.7349, 5442.050
926.2170, 5457.318
926.6991, 5461.360
927.1812, 5442.096
927.6633, 5433.849
928.1454, 5445.744
928.6276, 5466.408
929.1097, 5477.177
929.5918, 5478.688
930.0739, 5471.722
930.5560, 5453.013
931.0381, 5437.611
931.5203, 5441.542
932.0024, 5453.386
932.4845, 5460.427
932.9666, 5458.129
933.4487, 5455.985
933.9308, 5455.824
934.4130, 5452.318
934.8951, 5433.370
935.3772, 5404.806
935.8593, 5404.627
936.3414, 5434.938
936.8235, 5463.606
937.3057, 5461.356
937.7878, 5451.667
938.2699, 5454.679
938.7520, 5472.849
939.2341, 5479.532
939.7162, 5465.456
940.1984, 5457.365
940.6805, 5469.374
941.1626, 5495.208
941.6447, 5517.216
942.1268, 5533.795
942.6089, 5535.904
943.0911, 5497.417
943.5732, 5463.679
944.0553, 5471.142
944.5374, 5504.925
945.0195, 5524.567
945.5016, 5517.570
945.9838, 5519.484
946.4659, 5540.935
946.9480, 5564.044
947.4301, 5552.611
947.9122, 5517.290
948.3943, 5498.987
948.8764, 5512.192
949.3585, 5525.460
949.8406, 5511.603
950.3228, 5491.603
950.8049, 5487.478
951.2870, 5506.724
951.7691, 5522.938
952.2512, 5538.627
952.7333, 5544.666
953.2155, 5524.802
953.6976, 5490.674
954.1797, 5475.803
954.6618, 5480.594
955.1439, 5495.344
955.6260, 5530.007
956.1082, 5558.285
956.5903, 5559.396
957.0724, 5537.941
957.5545, 5525.435
958.0366, 5523.589
958.5187, 5524.893
959.0009, 5528.489
959.4830, 5531.759
959.9651, 5525.453
960.4472, 5514.755
960.9293, 5512.928
961.4114, 5531.217
961.8936, 5551.398
962.3757, 5565.921
962.8578, 5578.958
963.3399, 5598.812
963.8220, 5631.515
964.3041, 5635.658
964.7863, 5601.330
965.2684, 5567.515
965.7505, 5585.703
966.2326, 5628.262
966.7147, 5651.632
967.1968, 5648.850
967.6790, 5639.479
968.1611, 5619.198
968.6432, 5606.088
969.1253, 5614.415
969.6074, 5641.807
970.0895, 5635.582
970.5717, 5593.748
971.0538, 5569.407
971.5359, 5613.701
972.0180, 5673.795
972.5001, 5681.479
972.9822, 5653.330
973.4644, 5635.597
973.9465, 5659.180
974.4286, 5671.328
974.9107, 5657.732
975.3928, 5633.849
975.8749, 5623.633
976.3571, 5626.650
976.8392, 5643.958
977.3213, 5680.863
977.8034, 5705.222
978.2855, 5663.245
978.7676, 5607.014
979.2498, 5596.886
979.7319, 5659.960
980.2140, 5702.584
980.6961, 5717.166
981.1782, 5719.661
981.6603, 5716.264
982.1425, 5708.785
982.6246, 5707.762
983.1067, 5712.205
983.5888, 5714.492
984.0709, 5702.266
984.5530, 5694.391
985.0352, 5709.611
985.5173, 5739.264
985.9994, 5750.609
986.4815, 5739.484
986.9636, 5719.435
987.4457, 5686.401
987.9279, 5660.366
988.4100, 5683.765
988.8921, 5736.636
989.3742, 5774.454
989.8563, 5783.303
990.3384, 5784.979
990.8206, 5780.250
991.3027, 5778.284
991.7848, 5788.849
992.2669, 5815.282
992.7490, 5820.113
993.2311, 5801.162
993.7133, 5780.181
994.1954, 5771.846
994.6775, 5772.015
995.1596, 5776.571
995.6417, 5785.436
996.1238, 5798.505
996.6060, 5834.587
997.0881, 5849.666
997.5702, 5824.909
998.0523, 5780.866
998.5344, 5762.974
999.0165, 5769.083
999.4987, 5780.041
999.9808, 5792.732
1000.463, 5803.173
1000.945, 5804.466
1001.427, 5803.626
1001.909, 5810.331
1002.391, 5835.291
1002.873, 5839.136
1003.356, 5814.442
1003.838, 5786.806
1004.320, 5774.913
1004.802, 5774.932
1005.284, 5772.527
1005.766, 5769.106
1006.248, 5775.209
1006.730, 5809.606
1007.213, 5841.340
1007.695, 5857.182
1008.177, 5858.727
1008.659, 5846.472
1009.141, 5817.055
1009.623, 5796.123
1010.105, 5790.457
1010.587, 5792.071
1011.069, 5793.011
1011.552, 5793.407
1012.034, 5792.915
1012.516, 5789.557
1012.998, 5791.485
1013.480, 5805.813
1013.962, 5818.619
1014.444, 5821.218
1014.926, 5814.260
1015.409, 5803.334
1015.891, 5788.957
1016.373, 5777.369
1016.855, 5770.122
1017.337, 5769.379
1017.819, 5782.892
1018.301, 5804.814
1018.783, 5814.290
1019.265, 5805.040
1019.748, 5796.741
1020.230, 5790.972
1020.712, 5791.171
1021.194, 5805.832
1021.676, 5829.683
1022.158, 5852.906
1022.640, 5874.907
1023.122, 5887.721
1023.604, 5882.461
1024.087, 5870.859
1024.569, 5858.058
1025.051, 5844.264
1025.533, 5842.787
1026.015, 5853.994
1026.497, 5861.607
1026.979, 5851.014
1027.461, 5836.503
1027.943, 5830.205
1028.426, 5831.937
1028.908, 5841.223
1029.390, 5868.850
1029.872, 5887.678
1030.354, 5896.562
1030.836, 5893.636
1031.318, 5867.315
1031.800, 5826.596
1032.283, 5804.593
1032.765, 5806.143
1033.247, 5811.970
1033.729, 5804.593
1034.211, 5802.701
1034.693, 5823.859
1035.175, 5864.492
1035.657, 5891.468
1036.140, 5904.722
1036.622, 5900.964
1037.104, 5867.519
1037.586, 5831.586
1038.068, 5837.104
1038.550, 5866.134
1039.032, 5885.737
1039.514, 5882.853
1039.996, 5874.053
1040.479, 5855.099
1040.961, 5838.889
1041.443, 5841.555
1041.925, 5859.128
1042.407, 5868.269
1042.889, 5868.141
1043.371, 5864.849
1043.853, 5857.762
1044.335, 5853.103
1044.818, 5856.944
1045.300, 5866.890
1045.782, 5871.636
1046.264, 5869.245
1046.746, 5872.620
1047.228, 5887.041
1047.710, 5903.758
1048.192, 5913.484
1048.675, 5916.336
1049.157, 5909.919
1049.639, 5884.887
1050.121, 5878.426
1050.603, 5909.012
1051.085, 5937.748
1051.567, 5936.070
1052.049, 5910.268
1052.531, 5898.968
1053.014, 5900.990
1053.496, 5907.373
1053.978, 5910.975
1054.460, 5920.026
1054.942, 5948.520
1055.424, 5983.364
1055.906, 5996.024
1056.388, 5981.593
1056.870, 5968.560
1057.353, 5960.280
1057.835, 5954.932
1058.317, 5947.387
1058.799, 5943.197
1059.281, 5952.807
1059.763, 5978.085
1060.245, 5995.918
1060.727, 5999.365
1061.210, 5998.688
1061.692, 5995.031
1062.174, 5991.469
1062.656, 6002.694
1063.138, 6023.171
1063.620, 6030.212
1064.102, 6007.895
1064.584, 5984.874
1065.067, 5968.652
1065.549, 5964.082
1066.031, 5978.485
1066.513, 6018.764
1066.995, 6035.939
1067.477, 6028.196
1067.959, 6017.049
1068.441, 6013.511
1068.923, 6018.661
1069.406, 6039.547
1069.888, 6071.400
1070.370, 6093.276
1070.852, 6095.979
1071.334, 6100.452
1071.816, 6110.737
1072.298, 6122.714
1072.780, 6134.083
1073.262, 6141.938
1073.745, 6135.993
1074.227, 6112.673
1074.709, 6095.280
1075.191, 6099.812
1075.673, 6108.623
1076.155, 6111.260
1076.637, 6109.815
1077.119, 6122.945
1077.601, 6149.302
1078.084, 6165.151
1078.566, 6153.220
1079.048, 6137.670
1079.530, 6139.246
1080.012, 6149.659
1080.494, 6156.734
1080.976, 6156.264
1081.458, 6161.225
1081.941, 6172.860
1082.423, 6184.612
1082.905, 6191.252
1083.387, 6194.431
1083.869, 6197.597
1084.351, 6200.190
1084.833, 6198.779
1085.315, 6189.041
1085.797, 6179.531
1086.280, 6171.426
1086.762, 6165.027
1087.244, 6160.162
1087.726, 6157.327
1088.208, 6158.119
1088.690, 6162.581
1089.172, 6172.731
1089.654, 6200.866
1090.136, 6224.655
1090.619, 6224.954
1091.101, 6205.967
1091.583, 6208.770
1092.065, 6234.632
1092.547, 6238.810
1093.029, 6189.342
1093.511, 6137.314
1093.993, 6145.440
1094.476, 6181.664
1094.958, 6199.854
1095.440, 6180.684
1095.922, 6177.634
1096.404, 6195.824
1096.886, 6214.859
1097.368, 6217.821
1097.850, 6211.471
1098.333, 6211.146
1098.815, 6213.769
1099.297, 6207.090
1099.779, 6160.851
1100.261, 6141.653
1100.743, 6175.473
1101.225, 6223.041
1101.707, 6224.161
1102.189, 6189.176
1102.672, 6170.291
1103.154, 6173.321
1103.636, 6180.744
1104.118, 6185.443
1104.600, 6187.888
1105.082, 6188.295
1105.564, 6187.012
1106.046, 6184.681
1106.528, 6181.466
1107.011, 6174.972
1107.493, 6162.555
1107.975, 6152.657
1108.457, 6152.953
1108.939, 6160.657
1109.421, 6173.983
1109.903, 6194.489
1110.385, 6212.001
1110.868, 6228.434
1111.350, 6233.015
1111.832, 6212.591
1112.314, 6182.341
1112.796, 6166.832
1113.278, 6162.773
1113.760, 6163.570
1114.242, 6177.707
1114.724, 6178.948
1115.207, 6157.826
1115.689, 6136.325
1116.171, 6139.151
1116.653, 6158.931
1117.135, 6172.393
1117.617, 6178.410
1118.099, 6177.291
1118.581, 6163.457
1119.063, 6149.253
1119.546, 6139.842
1120.028, 6132.724
1120.510, 6120.600
1120.992, 6104.784
1121.474, 6101.417
1121.956, 6113.940
1122.438, 6130.239
1122.920, 6148.137
1123.403, 6160.677
1123.885, 6158.920
1124.367, 6145.711
1124.849, 6138.814
1125.331, 6138.990
1125.813, 6136.337
1126.295, 6125.325
1126.777, 6115.714
1127.260, 6119.924
1127.742, 6131.352
1128.224, 6144.357
1128.706, 6163.410
1129.188, 6157.938
1129.670, 6118.648
1130.152, 6085.568
1130.634, 6085.319
1131.116, 6102.383
1131.599, 6111.939
1132.081, 6116.266
1132.563, 6120.635
1133.045, 6135.369
1133.527, 6134.544
1134.009, 6105.961
1134.491, 6080.123
1134.973, 6093.232
1135.455, 6130.534
1135.938, 6144.729
1136.420, 6137.238
1136.902, 6128.169
1137.384, 6131.093
1137.866, 6128.014
1138.348, 6107.684
1138.830, 6084.909
1139.312, 6088.702
1139.795, 6113.466
1140.277, 6117.655
1140.759, 6095.356
1141.241, 6080.750
1141.723, 6116.451
1142.205, 6146.875
1142.687, 6131.455
1143.169, 6085.713
1143.651, 6067.406
1144.134, 6076.083
1144.616, 6076.697
1145.098, 6057.936
1145.580, 6038.187
1146.062, 6029.253
1146.544, 6029.877
1147.026, 6041.740
1147.508, 6064.687
1147.990, 6087.596
1148.473, 6112.660
1148.955, 6118.827
1149.437, 6087.305
1149.919, 6048.019
1150.401, 6033.456
1150.883, 6035.167
1151.365, 6042.277
1151.847, 6058.461
1152.330, 6062.907
1152.812, 6053.296
1153.294, 6039.607
1153.776, 6020.176
1154.258, 6006.004
1154.740, 6026.568
1155.222, 6066.051
1155.704, 6085.071
1156.186, 6050.727
1156.669, 6027.950
1157.151, 6022.826
1157.633, 6023.247
1158.115, 6016.594
1158.597, 6007.145
1159.079, 6005.243
1159.561, 6010.083
1160.043, 6013.721
1160.526, 6014.316
1161.008, 6011.123
1161.490, 6003.068
1161.972, 5992.464
1162.454, 5981.367
1162.936, 5970.559
1163.418, 5960.733
1163.900, 5952.064
1164.382, 5952.917
1164.865, 5983.984
1165.347, 6004.186
1165.829, 5992.150
1166.311, 5965.711
1166.793, 5976.438
1167.275, 6013.989
1167.757, 6026.020
1168.239, 5997.442
1168.721, 5968.465
1169.204, 5956.932
1169.686, 5957.338
1170.168, 5970.484
1170.650, 5991.419
1171.132, 5989.753
1171.614, 5968.782
1172.096, 5955.524
1172.578, 5960.044
1173.061, 5971.769
1173.543, 5988.186
1174.025, 6005.169
1174.507, 6020.715
1174.989, 6034.401
1175.471, 6038.116
1175.953, 6032.037
1176.435, 6022.054
1176.917, 6009.021
1177.400, 5996.270
1177.882, 5985.267
1178.364, 5977.119
1178.846, 5974.061
1179.328, 5978.248
1179.810, 5974.646
1180.292, 5963.181
1180.774, 5951.028
1181.256, 5941.886
1181.739, 5935.037
1182.221, 5930.368
1182.703, 5927.555
1183.185, 5926.073
1183.667, 5926.193
1184.149, 5923.957
1184.631, 5918.181
1185.113, 5918.082
1185.596, 5937.200
1186.078, 5960.501
1186.560, 5976.316
1187.042, 5983.985
1187.524, 5982.593
1188.006, 5967.846
1188.488, 5962.919
1188.970, 5972.071
1189.453, 5983.593
1189.935, 5988.079
1190.417, 5987.297
1190.899, 5980.950
1191.381, 5970.271
1191.863, 5963.535
1192.345, 5961.387
1192.827, 5963.403
1193.309, 5971.474
1193.792, 5976.629
1194.274, 5960.386
1194.756, 5940.032
1195.238, 5939.058
1195.720, 5960.164
1196.202, 5973.425
1196.684, 5975.538
1197.166, 5976.179
1197.648, 5978.109
1198.131, 5979.651
1198.613, 5976.577
1199.095, 5972.632
1199.577, 5975.210
1200.059, 5987.551
1200.541, 5984.911
1201.023, 5958.770
1201.505, 5944.011
1201.988, 5957.348
1202.470, 5983.518
1202.952, 6009.048
1203.434, 6027.452
1203.916, 6026.189
1204.398, 5993.370
1204.880, 5975.690
1205.362, 5978.238
1205.844, 5982.954
1206.327, 5978.727
1206.809, 5973.351
1207.291, 5982.831
1207.773, 5999.872
1208.255, 6011.645
1208.737, 6014.144
1209.219, 6010.771
1209.701, 5996.686
1210.183, 5992.442
1210.666, 6025.262
1211.148, 6064.990
1211.630, 6048.982
1212.112, 6002.037
1212.594, 5975.935
1213.076, 6004.796
1213.558, 6019.987
1214.040, 6018.448
1214.523, 6013.638
1215.005, 6017.800
1215.487, 6024.140
1215.969, 6019.848
1216.451, 6008.710
1216.933, 6000.947
1217.415, 6001.141
1217.897, 5999.842
1218.380, 5995.555
1218.862, 5993.667
1219.344, 6003.109
1219.826, 6015.173
1220.308, 6012.088
1220.790, 5999.607
1221.272, 6000.342
1221.754, 6028.132
1222.236, 6045.430
1222.719, 6047.189
1223.201, 6043.700
1223.683, 6044.229
1224.165, 6046.104
1224.647, 6044.497
1225.129, 6040.535
1225.611, 6041.080
1226.093, 6048.777
1226.575, 6054.466
1227.058, 6055.716
1227.540, 6060.303
1228.022, 6090.762
1228.504, 6120.019
1228.986, 6100.977
1229.468, 6042.250
1229.950, 6024.865
1230.432, 6073.959
1230.915, 6088.144
1231.397, 6042.509
1231.879, 5995.444
1232.361, 6027.840
1232.843, 6083.483
1233.325, 6093.806
1233.807, 6060.025
1234.289, 6045.922
1234.771, 6058.347
1235.254, 6068.717
1235.736, 6070.746
1236.218, 6072.038
1236.700, 6084.636
1237.182, 6098.043
1237.664, 6100.959
1238.146, 6092.863
1238.628, 6083.650
1239.110, 6072.810
1239.593, 6063.319
1240.075, 6054.639
1240.557, 6052.504
1241.039, 6072.305
1241.521, 6093.758
1242.003, 6093.726
1242.485, 6074.604
1242.967, 6065.490
1243.449, 6066.378
1243.932, 6081.949
1244.414, 6118.298
1244.896, 6148.462
1245.378, 6143.284
1245.860, 6124.469
1246.342, 6108.190
1246.824, 6095.438
1247.306, 6085.430
1247.789, 6078.396
1248.271, 6085.610
1248.753, 6116.692
1249.235, 6138.141
1249.717, 6108.136
1250.199, 6072.701
1250.681, 6066.174
1251.163, 6085.092
1251.646, 6111.620
1252.128, 6143.733
1252.610, 6164.714
1253.092, 6167.509
1253.574, 6163.897
1254.056, 6157.480
1254.538, 6150.146
1255.020, 6142.440
1255.502, 6135.009
1255.984, 6131.469
1256.467, 6131.598
1256.949, 6135.175
1257.431, 6144.234
1257.913, 6150.062
1258.395, 6144.166
1258.877, 6138.919
1259.359, 6140.731
1259.841, 6147.912
1260.324, 6159.371
1260.806, 6170.983
1261.288, 6168.058
1261.770, 6139.312
1262.252, 6116.411
1262.734, 6106.271
1263.216, 6105.423
1263.698, 6115.137
1264.181, 6130.686
1264.663, 6139.197
1265.145, 6143.951
1265.627, 6153.392
1266.109, 6173.873
1266.591, 6186.234
1267.073, 6187.487
1267.555, 6184.460
1268.037, 6179.294
1268.520, 6173.687
1269.002, 6169.820
1269.484, 6168.011
1269.966, 6169.494
##END=



