##NAMES=Phillipsite-Ca
##RRUFFID=R050078
##IDEAL CHEMISTRY=Ca_3_(Si_10_Al_6_)O_32_&#183;12H_2_O
##LOCALITY=Grant County, Oregon, USA
##OWNER=RRUFF
##SOURCE=Rock Currier
##DESCRIPTION=White tabular hexagonal
##STATUS=The identification of this mineral has been confirmed by X-ray diffraction and chemical analysis
##URL=rruff.info/R050078
##MEASURED CHEMISTRY=(Ca_0.90_K_0.75_[box]_0.25_Na_0.10_)_Σ=2_(Si_5.35_Al_2.65_)_Σ=8_O_16_·6H_2_O
145.1252, 2548.890
145.6074, 2638.676
146.0895, 2743.842
146.5716, 2857.227
147.0537, 2977.284
147.5358, 3102.818
148.0179, 3209.657
148.5001, 3281.299
148.9822, 3346.713
149.4643, 3434.815
149.9464, 3545.781
150.4285, 3644.489
150.9106, 3702.621
151.3928, 3719.667
151.8749, 3723.821
152.3570, 3715.713
152.8391, 3695.726
153.3212, 3658.841
153.8033, 3604.175
154.2855, 3550.077
154.7676, 3510.745
155.2497, 3484.236
155.7318, 3462.536
156.2139, 3456.666
156.6960, 3449.018
157.1782, 3412.961
157.6603, 3342.963
158.1424, 3274.100
158.6245, 3234.106
159.1066, 3216.383
159.5887, 3208.743
160.0709, 3213.439
160.5530, 3224.662
161.0351, 3235.641
161.5172, 3247.208
161.9993, 3254.599
162.4814, 3251.077
162.9636, 3241.016
163.4457, 3231.737
163.9278, 3221.860
164.4099, 3215.413
164.8920, 3222.800
165.3741, 3249.650
165.8563, 3274.438
166.3384, 3281.432
166.8205, 3277.585
167.3026, 3273.719
167.7847, 3272.386
168.2668, 3274.366
168.7490, 3282.941
169.2311, 3302.181
169.7132, 3318.746
170.1953, 3324.208
170.6774, 3322.880
171.1595, 3321.230
171.6417, 3323.124
172.1238, 3326.211
172.6059, 3325.314
173.0880, 3321.886
173.5701, 3310.749
174.0522, 3279.863
174.5344, 3242.410
175.0165, 3219.429
175.4986, 3226.758
175.9807, 3251.573
176.4628, 3257.264
176.9449, 3233.742
177.4271, 3208.867
177.9092, 3193.136
178.3913, 3182.880
178.8734, 3173.265
179.3555, 3161.664
179.8376, 3149.281
180.3197, 3139.469
180.8019, 3132.544
181.2840, 3127.990
181.7661, 3124.460
182.2482, 3123.008
182.7303, 3126.323
183.2124, 3137.459
183.6946, 3151.383
184.1767, 3152.081
184.6588, 3128.849
185.1409, 3110.997
185.6230, 3106.675
186.1051, 3110.920
186.5873, 3119.603
187.0694, 3131.945
187.5515, 3144.425
188.0336, 3146.535
188.5157, 3129.009
188.9978, 3117.075
189.4800, 3121.872
189.9621, 3131.820
190.4442, 3134.139
190.9263, 3122.734
191.4084, 3103.549
191.8905, 3090.617
192.3727, 3084.930
192.8548, 3084.560
193.3369, 3091.243
193.8190, 3101.054
194.3011, 3112.552
194.7832, 3125.339
195.2654, 3134.521
195.7475, 3126.578
196.2296, 3082.442
196.7117, 3057.657
197.1938, 3074.717
197.6759, 3102.421
198.1581, 3112.378
198.6402, 3095.280
199.1223, 3064.826
199.6044, 3046.602
200.0865, 3047.450
200.5686, 3047.473
201.0508, 3045.074
201.5329, 3041.205
202.0150, 3037.488
202.4971, 3034.088
202.9792, 3028.547
203.4613, 3016.425
203.9435, 2994.731
204.4256, 2972.942
204.9077, 2952.830
205.3898, 2931.900
205.8719, 2907.438
206.3540, 2879.349
206.8362, 2850.824
207.3183, 2825.747
207.8004, 2804.363
208.2825, 2786.705
208.7646, 2779.563
209.2467, 2770.492
209.7289, 2750.752
210.2110, 2720.331
210.6931, 2686.359
211.1752, 2656.662
211.6573, 2631.825
212.1395, 2609.968
212.6216, 2594.184
213.1037, 2578.640
213.5858, 2559.997
214.0679, 2538.684
214.5500, 2517.614
215.0322, 2499.959
215.5143, 2486.493
215.9964, 2471.603
216.4785, 2452.205
216.9606, 2434.180
217.4427, 2422.322
217.9249, 2414.241
218.4070, 2402.853
218.8891, 2381.168
219.3712, 2348.744
219.8533, 2322.213
220.3354, 2303.774
220.8176, 2289.561
221.2997, 2281.164
221.7818, 2276.286
222.2639, 2271.124
222.7460, 2263.274
223.2281, 2252.711
223.7103, 2239.944
224.1924, 2225.337
224.6745, 2207.628
225.1566, 2181.168
225.6387, 2152.442
226.1208, 2131.652
226.6030, 2125.513
227.0851, 2129.977
227.5672, 2127.793
228.0493, 2111.635
228.5314, 2098.454
229.0135, 2093.662
229.4957, 2092.291
229.9778, 2089.176
230.4599, 2082.062
230.9420, 2071.140
231.4241, 2056.202
231.9062, 2033.471
232.3884, 2013.304
232.8705, 1997.260
233.3526, 1983.834
233.8347, 1970.297
234.3168, 1956.036
234.7989, 1944.815
235.2811, 1946.646
235.7632, 1975.753
236.2453, 1983.149
236.7274, 1945.234
237.2095, 1900.656
237.6916, 1876.009
238.1738, 1875.821
238.6559, 1884.855
239.1380, 1884.112
239.6201, 1870.242
240.1022, 1858.931
240.5843, 1849.060
241.0665, 1843.209
241.5486, 1845.158
242.0307, 1853.558
242.5128, 1862.195
242.9949, 1865.725
243.4770, 1864.056
243.9592, 1858.198
244.4413, 1844.193
244.9234, 1829.360
245.4055, 1814.918
245.8876, 1801.706
246.3697, 1791.279
246.8519, 1785.356
247.3340, 1783.362
247.8161, 1780.393
248.2982, 1775.407
248.7803, 1770.808
249.2624, 1768.579
249.7446, 1767.063
250.2267, 1763.310
250.7088, 1754.998
251.1909, 1744.199
251.6730, 1738.103
252.1551, 1742.149
252.6373, 1739.427
253.1194, 1717.585
253.6015, 1689.825
254.0836, 1670.686
254.5657, 1666.074
255.0478, 1669.331
255.5300, 1670.907
256.0121, 1671.067
256.4942, 1668.447
256.9763, 1660.584
257.4584, 1650.909
257.9406, 1641.823
258.4227, 1633.860
258.9048, 1625.562
259.3869, 1613.540
259.8690, 1597.372
260.3511, 1587.354
260.8333, 1590.314
261.3154, 1595.893
261.7975, 1597.793
262.2796, 1595.574
262.7617, 1589.556
263.2438, 1577.100
263.7260, 1559.862
264.2081, 1547.677
264.6902, 1542.197
265.1723, 1541.279
265.6544, 1546.016
266.1365, 1554.259
266.6187, 1558.559
267.1008, 1553.027
267.5829, 1541.610
268.0650, 1532.339
268.5471, 1525.548
269.0292, 1520.461
269.5114, 1518.742
269.9935, 1518.251
270.4756, 1514.961
270.9577, 1506.003
271.4398, 1495.329
271.9219, 1486.409
272.4041, 1479.190
272.8862, 1475.639
273.3683, 1478.873
273.8504, 1485.559
274.3325, 1489.725
274.8146, 1492.466
275.2968, 1490.150
275.7789, 1475.386
276.2610, 1452.041
276.7431, 1436.494
277.2252, 1436.142
277.7073, 1444.170
278.1895, 1448.813
278.6716, 1448.898
279.1537, 1451.473
279.6358, 1464.589
280.1179, 1480.606
280.6000, 1485.315
281.0822, 1474.844
281.5643, 1457.464
282.0464, 1439.306
282.5285, 1419.356
283.0106, 1412.842
283.4927, 1434.539
283.9749, 1462.184
284.4570, 1476.411
284.9391, 1475.676
285.4212, 1467.259
285.9033, 1455.100
286.3854, 1439.547
286.8676, 1430.307
287.3497, 1430.991
287.8318, 1433.823
288.3139, 1437.904
288.7960, 1441.360
289.2781, 1438.761
289.7603, 1426.004
290.2424, 1406.745
290.7245, 1396.817
291.2066, 1406.899
291.6887, 1412.440
292.1708, 1404.400
292.6530, 1391.742
293.1351, 1387.393
293.6172, 1395.698
294.0993, 1408.144
294.5814, 1408.986
295.0635, 1386.325
295.5457, 1374.693
296.0278, 1382.300
296.5099, 1394.181
296.9920, 1401.280
297.4741, 1401.859
297.9562, 1397.410
298.4384, 1388.315
298.9205, 1372.879
299.4026, 1364.758
299.8847, 1368.777
300.3668, 1375.029
300.8489, 1382.203
301.3311, 1388.959
301.8131, 1393.242
302.2953, 1393.398
302.7774, 1390.328
303.2595, 1388.855
303.7416, 1391.766
304.2237, 1392.013
304.7058, 1384.244
305.1880, 1375.050
305.6701, 1372.569
306.1522, 1380.006
306.6343, 1391.125
307.1164, 1394.061
307.5985, 1384.710
308.0807, 1382.488
308.5628, 1401.602
309.0449, 1421.405
309.5270, 1429.534
310.0091, 1424.963
310.4912, 1414.529
310.9734, 1402.185
311.4555, 1388.236
311.9376, 1375.803
312.4197, 1362.691
312.9018, 1355.174
313.3839, 1359.019
313.8661, 1370.938
314.3482, 1382.545
314.8303, 1392.497
315.3124, 1398.777
315.7945, 1395.562
316.2766, 1380.952
316.7588, 1367.960
317.2409, 1363.327
317.7230, 1365.152
318.2051, 1370.814
318.6872, 1382.228
319.1693, 1393.519
319.6515, 1400.692
320.1336, 1404.061
320.6157, 1404.776
321.0978, 1402.430
321.5799, 1398.795
322.0620, 1397.460
322.5442, 1399.398
323.0263, 1397.951
323.5084, 1386.265
323.9905, 1372.239
324.4726, 1366.976
324.9547, 1372.293
325.4369, 1381.263
325.9190, 1388.309
326.4011, 1393.275
326.8832, 1393.627
327.3653, 1387.878
327.8474, 1379.114
328.3296, 1365.134
328.8117, 1349.030
329.2938, 1339.647
329.7759, 1342.775
330.2580, 1355.439
330.7401, 1364.063
331.2223, 1368.779
331.7044, 1369.252
332.1865, 1361.389
332.6686, 1351.100
333.1507, 1345.325
333.6328, 1345.964
334.1150, 1348.852
334.5971, 1347.774
335.0792, 1341.412
335.5613, 1334.496
336.0434, 1323.032
336.5255, 1314.554
337.0077, 1314.449
337.4898, 1321.227
337.9719, 1329.758
338.4540, 1337.193
338.9361, 1342.915
339.4182, 1340.689
339.9004, 1324.275
340.3825, 1308.927
340.8646, 1296.835
341.3467, 1288.975
341.8288, 1287.793
342.3109, 1295.132
342.7931, 1304.875
343.2752, 1308.253
343.7573, 1304.831
344.2394, 1297.791
344.7215, 1283.705
345.2036, 1269.532
345.6858, 1261.706
346.1679, 1260.334
346.6500, 1258.623
347.1321, 1249.488
347.6142, 1236.776
348.0963, 1232.376
348.5785, 1239.674
349.0606, 1248.308
349.5427, 1247.812
350.0248, 1241.821
350.5069, 1241.460
350.9890, 1253.737
351.4712, 1268.343
351.9533, 1279.007
352.4354, 1285.354
352.9175, 1284.592
353.3996, 1273.252
353.8817, 1256.472
354.3639, 1248.258
354.8460, 1251.497
355.3281, 1255.031
355.8102, 1256.832
356.2923, 1257.453
356.7744, 1257.279
357.2566, 1256.455
357.7387, 1255.322
358.2208, 1253.902
358.7029, 1251.505
359.1850, 1253.128
359.6671, 1263.755
360.1493, 1272.851
360.6314, 1271.924
361.1135, 1265.895
361.5956, 1267.381
362.0777, 1284.972
362.5598, 1311.645
363.0420, 1320.766
363.5241, 1296.299
364.0062, 1279.719
364.4883, 1279.688
364.9704, 1286.255
365.4525, 1291.295
365.9347, 1293.017
366.4168, 1294.784
366.8989, 1301.045
367.3810, 1312.241
367.8631, 1321.500
368.3452, 1329.529
368.8274, 1334.138
369.3095, 1331.945
369.7916, 1325.783
370.2737, 1322.410
370.7558, 1325.830
371.2379, 1333.145
371.7201, 1339.137
372.2022, 1343.441
372.6843, 1350.210
373.1664, 1364.733
373.6485, 1380.395
374.1306, 1386.486
374.6128, 1379.864
375.0949, 1373.846
375.5770, 1373.057
376.0591, 1378.127
376.5412, 1392.410
377.0233, 1417.528
377.5055, 1444.773
377.9876, 1466.355
378.4697, 1481.599
378.9518, 1491.021
379.4339, 1486.543
379.9160, 1483.454
380.3982, 1494.989
380.8803, 1515.884
381.3624, 1529.554
381.8445, 1526.197
382.3266, 1512.458
382.8087, 1508.485
383.2909, 1522.545
383.7730, 1536.369
384.2551, 1551.071
384.7372, 1564.374
385.2193, 1573.807
385.7014, 1579.380
386.1836, 1583.646
386.6657, 1588.482
387.1478, 1593.633
387.6299, 1604.179
388.1120, 1628.835
388.5941, 1648.775
389.0763, 1654.749
389.5584, 1652.907
390.0405, 1652.055
390.5226, 1655.083
391.0047, 1663.327
391.4868, 1681.816
391.9690, 1712.108
392.4511, 1737.205
392.9332, 1752.423
393.4153, 1760.314
393.8974, 1759.035
394.3795, 1749.015
394.8617, 1749.078
395.3438, 1777.254
395.8259, 1818.336
396.3080, 1846.186
396.7901, 1857.949
397.2722, 1867.031
397.7544, 1883.261
398.2365, 1904.509
398.7186, 1919.766
399.2007, 1923.301
399.6828, 1927.264
400.1649, 1935.253
400.6471, 1946.984
401.1292, 1962.658
401.6113, 1982.458
402.0934, 2004.476
402.5755, 2026.787
403.0576, 2051.760
403.5398, 2068.774
404.0219, 2069.615
404.5040, 2071.411
404.9861, 2084.191
405.4682, 2105.447
405.9503, 2126.530
406.4325, 2141.390
406.9146, 2153.338
407.3967, 2174.699
407.8788, 2211.048
408.3609, 2245.397
408.8430, 2277.841
409.3252, 2305.198
409.8073, 2321.825
410.2894, 2327.838
410.7715, 2334.687
411.2536, 2351.169
411.7357, 2376.667
412.2179, 2409.694
412.7000, 2454.289
413.1821, 2496.163
413.6642, 2519.555
414.1463, 2533.501
414.6284, 2555.388
415.1106, 2590.750
415.5927, 2632.259
416.0748, 2684.421
416.5569, 2739.645
417.0390, 2769.195
417.5211, 2758.872
418.0033, 2735.477
418.4854, 2740.218
418.9675, 2784.493
419.4496, 2818.990
419.9317, 2836.045
420.4138, 2847.617
420.8960, 2862.720
421.3781, 2879.892
421.8602, 2891.760
422.3423, 2893.155
422.8244, 2886.542
423.3065, 2882.378
423.7887, 2879.706
424.2708, 2881.387
424.7529, 2896.209
425.2350, 2909.438
425.7171, 2906.925
426.1992, 2887.889
426.6814, 2864.928
427.1635, 2849.332
427.6456, 2840.501
428.1277, 2832.750
428.6098, 2825.943
429.0919, 2820.541
429.5741, 2820.634
430.0562, 2821.229
430.5383, 2813.725
431.0204, 2793.121
431.5025, 2770.508
431.9846, 2751.735
432.4668, 2738.008
432.9489, 2735.120
433.4310, 2746.215
433.9131, 2762.921
434.3952, 2776.141
434.8773, 2785.499
435.3595, 2793.899
435.8416, 2801.981
436.3237, 2808.645
436.8058, 2809.547
437.2879, 2808.424
437.7701, 2814.019
438.2522, 2830.786
438.7343, 2857.181
439.2164, 2890.579
439.6985, 2944.545
440.1806, 2980.406
440.6628, 2980.176
441.1449, 2978.395
441.6270, 2994.995
442.1091, 3030.994
442.5912, 3079.444
443.0733, 3138.356
443.5555, 3204.226
444.0376, 3261.583
444.5197, 3305.124
445.0018, 3355.158
445.4839, 3426.614
445.9660, 3505.374
446.4482, 3578.669
446.9303, 3644.463
447.4124, 3706.281
447.8945, 3761.558
448.3766, 3815.342
448.8587, 3879.457
449.3409, 3956.372
449.8230, 4034.115
450.3051, 4101.240
450.7872, 4160.393
451.2693, 4234.953
451.7514, 4334.665
452.2336, 4437.021
452.7157, 4533.899
453.1978, 4629.057
453.6799, 4730.407
454.1620, 4839.302
454.6441, 4943.950
455.1263, 5026.748
455.6084, 5081.510
456.0905, 5148.947
456.5726, 5221.479
457.0547, 5315.313
457.5368, 5455.930
458.0190, 5616.555
458.5011, 5754.506
458.9832, 5850.525
459.4653, 5924.760
459.9474, 6003.384
460.4295, 6086.101
460.9117, 6173.432
461.3938, 6266.466
461.8759, 6362.969
462.3580, 6469.414
462.8401, 6581.322
463.3222, 6672.979
463.8044, 6722.104
464.2865, 6760.595
464.7686, 6814.667
465.2507, 6882.417
465.7328, 6954.193
466.2149, 7025.929
466.6971, 7099.206
467.1792, 7177.831
467.6613, 7279.464
468.1434, 7346.540
468.6255, 7350.988
469.1076, 7346.055
469.5898, 7364.107
470.0719, 7402.049
470.5540, 7441.736
471.0361, 7472.505
471.5182, 7495.661
472.0003, 7514.145
472.4825, 7524.124
472.9646, 7539.610
473.4467, 7574.043
473.9288, 7607.269
474.4109, 7625.771
474.8930, 7629.385
475.3752, 7627.066
475.8573, 7619.493
476.3394, 7611.005
476.8215, 7613.970
477.3036, 7628.784
477.7857, 7630.319
478.2679, 7602.172
478.7500, 7555.980
479.2321, 7520.160
479.7142, 7500.698
480.1963, 7475.668
480.6784, 7434.935
481.1606, 7390.884
481.6427, 7359.986
482.1248, 7339.292
482.6069, 7308.648
483.0890, 7251.919
483.5711, 7173.493
484.0533, 7096.862
484.5354, 7028.954
485.0175, 6950.636
485.4996, 6850.807
485.9817, 6746.763
486.4638, 6658.027
486.9460, 6583.439
487.4281, 6499.577
487.9102, 6378.772
488.3923, 6234.942
488.8744, 6115.372
489.3565, 6026.436
489.8387, 5927.477
490.3208, 5794.466
490.8029, 5640.176
491.2850, 5493.658
491.7671, 5357.345
492.2492, 5220.965
492.7314, 5074.643
493.2135, 4931.280
493.6956, 4813.072
494.1777, 4718.165
494.6598, 4615.966
495.1419, 4481.246
495.6241, 4320.852
496.1062, 4175.575
496.5883, 4056.073
497.0704, 3938.596
497.5525, 3812.122
498.0346, 3691.935
498.5168, 3597.314
498.9989, 3526.393
499.4810, 3454.024
499.9631, 3356.046
500.4452, 3240.006
500.9273, 3134.490
501.4095, 3038.965
501.8916, 2956.261
502.3737, 2892.931
502.8558, 2840.139
503.3379, 2784.128
503.8200, 2724.356
504.3022, 2663.559
504.7843, 2600.146
505.2664, 2537.905
505.7485, 2482.945
506.2306, 2434.857
506.7127, 2388.815
507.1949, 2341.261
507.6770, 2293.071
508.1591, 2248.549
508.6412, 2207.785
509.1233, 2170.676
509.6054, 2141.732
510.0876, 2112.774
510.5697, 2074.876
511.0518, 2030.191
511.5339, 1990.637
512.0161, 1966.221
512.4982, 1952.189
512.9803, 1935.681
513.4624, 1916.453
513.9445, 1896.688
514.4266, 1876.025
514.9088, 1856.230
515.3909, 1840.574
515.8730, 1829.611
516.3551, 1815.430
516.8372, 1790.664
517.3193, 1765.275
517.8015, 1751.308
518.2836, 1745.941
518.7657, 1734.620
519.2478, 1708.945
519.7299, 1676.098
520.2120, 1653.505
520.6942, 1647.618
521.1763, 1639.768
521.6584, 1626.466
522.1405, 1614.676
522.6226, 1612.664
523.1047, 1615.207
523.5869, 1607.835
524.0690, 1579.422
524.5511, 1545.122
525.0332, 1534.461
525.5153, 1547.214
525.9974, 1545.523
526.4796, 1513.993
526.9617, 1475.769
527.4438, 1455.960
527.9259, 1452.360
528.4080, 1449.761
528.8901, 1449.632
529.3723, 1446.419
529.8544, 1435.218
530.3365, 1418.857
530.8186, 1403.076
531.3007, 1389.742
531.7828, 1376.423
532.2650, 1358.530
532.7471, 1333.663
533.2292, 1319.053
533.7113, 1328.521
534.1934, 1332.367
534.6755, 1317.312
535.1577, 1293.054
535.6398, 1272.555
536.1219, 1259.498
536.6040, 1249.921
537.0861, 1242.077
537.5682, 1234.834
538.0504, 1223.413
538.5325, 1206.612
539.0146, 1191.421
539.4967, 1184.647
539.9788, 1183.539
540.4609, 1174.581
540.9431, 1150.241
541.4252, 1129.174
541.9073, 1112.026
542.3894, 1101.809
542.8715, 1108.219
543.3536, 1127.186
543.8358, 1137.081
544.3179, 1117.741
544.8000, 1078.326
545.2821, 1061.383
545.7642, 1077.273
546.2463, 1087.227
546.7285, 1076.221
547.2106, 1059.467
547.6927, 1047.992
548.1748, 1041.991
548.6569, 1036.623
549.1390, 1031.987
549.6211, 1025.461
550.1032, 1011.216
550.5853, 991.6978
551.0674, 977.8989
551.5496, 974.3510
552.0317, 977.1916
552.5138, 980.4377
552.9959, 984.3472
553.4780, 987.8174
553.9601, 992.2278
554.4423, 994.8245
554.9244, 995.4681
555.4065, 993.2750
555.8886, 986.3722
556.3707, 973.9457
556.8528, 959.4930
557.3350, 945.6671
557.8171, 932.9279
558.2992, 926.4435
558.7813, 929.1836
559.2634, 930.1830
559.7455, 920.8641
560.2277, 904.3018
560.7098, 890.4692
561.1919, 875.3923
561.6740, 870.0480
562.1561, 889.4265
562.6382, 913.2078
563.1204, 917.6359
563.6025, 902.6926
564.0846, 884.6497
564.5667, 874.5353
565.0488, 871.8514
565.5309, 876.4052
566.0131, 895.3594
566.4952, 903.4097
566.9773, 885.5863
567.4594, 863.8677
567.9415, 850.6221
568.4236, 845.6072
568.9058, 844.1407
569.3879, 846.3224
569.8700, 849.3220
570.3521, 851.1895
570.8342, 851.5701
571.3163, 848.3759
571.7985, 840.6398
572.2806, 832.5571
572.7627, 829.6611
573.2448, 832.8616
573.7269, 832.5004
574.2090, 823.5718
574.6912, 817.2308
575.1733, 817.2026
575.6554, 820.7115
576.1375, 826.9443
576.6196, 834.7908
577.1017, 837.5482
577.5839, 821.9860
578.0660, 796.5441
578.5481, 794.6775
579.0302, 820.3652
579.5123, 837.5736
579.9944, 825.9743
580.4766, 799.7745
580.9587, 785.8295
581.4408, 785.0281
581.9229, 788.9221
582.4050, 799.5989
582.8871, 811.7485
583.3693, 826.5208
583.8514, 839.3398
584.3335, 839.0510
584.8156, 820.3536
585.2977, 796.5646
585.7798, 790.2167
586.2620, 803.1208
586.7441, 812.3385
587.2262, 815.0236
587.7083, 816.9572
588.1904, 826.3555
588.6725, 835.9072
589.1547, 831.1465
589.6368, 803.3676
590.1189, 779.2836
590.6010, 771.8321
591.0831, 775.2330
591.5652, 786.0310
592.0474, 801.5638
592.5295, 813.1888
593.0116, 814.7332
593.4937, 809.4707
593.9758, 808.0193
594.4579, 814.0106
594.9401, 815.1837
595.4222, 802.9454
595.9043, 792.6109
596.3864, 794.3225
596.8685, 804.0402
597.3506, 810.9709
597.8328, 810.8240
598.3149, 807.2383
598.7970, 802.0319
599.2791, 796.0665
599.7612, 791.5703
600.2433, 788.9569
600.7255, 787.2532
601.2076, 785.2737
601.6897, 783.4826
602.1718, 785.7733
602.6539, 799.9772
603.1360, 807.4126
603.6182, 800.7917
604.1003, 791.6696
604.5824, 789.5552
605.0645, 793.4633
605.5466, 795.5636
606.0287, 790.5002
606.5109, 782.3760
606.9930, 776.3590
607.4751, 772.5489
607.9572, 772.8952
608.4393, 779.1594
608.9214, 784.4313
609.4036, 780.1644
609.8857, 766.3193
610.3678, 761.4816
610.8499, 772.9237
611.3320, 783.2494
611.8141, 787.8581
612.2963, 789.8248
612.7784, 792.4257
613.2605, 795.8981
613.7426, 797.8887
614.2247, 795.0963
614.7068, 790.8240
615.1890, 796.9022
615.6711, 814.2958
616.1532, 818.1647
616.6353, 795.2106
617.1174, 767.2977
617.5995, 760.8740
618.0817, 776.4686
618.5638, 785.0472
619.0459, 779.1910
619.5280, 773.4522
620.0101, 776.2905
620.4922, 780.9784
620.9744, 775.8409
621.4565, 760.6517
621.9386, 749.6847
622.4207, 758.5939
622.9028, 780.7914
623.3849, 789.1818
623.8671, 781.3822
624.3492, 773.5148
624.8313, 769.9465
625.3134, 768.8796
625.7955, 769.0315
626.2776, 770.3137
626.7598, 770.2931
627.2419, 766.3848
627.7240, 763.5317
628.2061, 763.5414
628.6882, 766.4780
629.1703, 774.3654
629.6525, 786.5341
630.1346, 796.2043
630.6167, 795.5057
631.0988, 786.7695
631.5809, 783.3410
632.0630, 786.3745
632.5452, 790.5941
633.0273, 797.9802
633.5094, 802.3704
633.9915, 794.0416
634.4736, 773.8957
634.9557, 760.0491
635.4379, 758.9442
635.9200, 762.1092
636.4021, 768.6357
636.8842, 774.9109
637.3663, 773.3676
637.8484, 763.4336
638.3306, 755.3248
638.8127, 760.8188
639.2948, 776.7265
639.7769, 782.4667
640.2590, 774.9960
640.7411, 768.2037
641.2233, 766.3431
641.7054, 766.4937
642.1875, 765.2755
642.6696, 762.9015
643.1517, 762.2671
643.6339, 767.6213
644.1160, 770.9598
644.5981, 764.4936
645.0802, 754.5090
645.5623, 751.9268
646.0444, 758.2436
646.5266, 764.7809
647.0087, 763.0258
647.4908, 755.0215
647.9729, 750.1075
648.4550, 748.4153
648.9371, 749.7594
649.4193, 756.8127
649.9014, 763.9468
650.3835, 765.1649
650.8656, 761.2913
651.3477, 758.0148
651.8298, 756.9697
652.3120, 755.9313
652.7941, 755.6049
653.2762, 753.7993
653.7583, 745.0721
654.2404, 730.3383
654.7225, 719.1843
655.2047, 720.1868
655.6868, 729.5391
656.1689, 735.3213
656.6510, 737.5465
657.1331, 735.6451
657.6152, 727.2202
658.0974, 717.9016
658.5795, 710.8250
659.0616, 706.6708
659.5437, 709.5630
660.0258, 726.5359
660.5079, 742.3044
660.9901, 754.2672
661.4722, 760.8174
661.9543, 756.4518
662.4364, 744.0446
662.9185, 736.2405
663.4006, 742.7375
663.8828, 755.2136
664.3649, 755.3105
664.8470, 742.6912
665.3291, 727.7203
665.8112, 709.5103
666.2933, 694.8110
666.7755, 688.1079
667.2576, 689.2661
667.7397, 696.6245
668.2218, 718.5637
668.7039, 733.0319
669.1860, 733.7302
669.6682, 727.1034
670.1503, 713.4742
670.6324, 697.1646
671.1145, 687.4413
671.5966, 689.1859
672.0787, 696.7490
672.5609, 703.4555
673.0430, 709.2105
673.5251, 714.3564
674.0072, 719.8748
674.4893, 718.2573
674.9714, 701.3472
675.4536, 677.1313
675.9357, 667.0882
676.4178, 679.6036
676.8999, 687.9841
677.3820, 689.3733
677.8641, 688.7286
678.3463, 687.8914
678.8284, 687.0389
679.3105, 685.2785
679.7926, 682.3385
680.2747, 681.7747
680.7568, 691.0936
681.2390, 704.2548
681.7211, 705.0311
682.2032, 693.4218
682.6853, 681.2770
683.1674, 673.0065
683.6495, 668.9556
684.1317, 670.3669
684.6138, 678.9312
685.0959, 683.9681
685.5780, 682.2438
686.0601, 680.8928
686.5422, 685.9481
687.0244, 689.5664
687.5065, 678.7297
687.9886, 654.0885
688.4707, 638.6010
688.9528, 655.9799
689.4349, 680.9517
689.9171, 682.5800
690.3992, 667.7869
690.8813, 656.9188
691.3634, 655.5779
691.8455, 658.7509
692.3276, 661.7252
692.8098, 664.5707
693.2919, 667.8801
693.7740, 671.8067
694.2561, 675.9174
694.7382, 682.5126
695.2203, 687.0646
695.7025, 682.4059
696.1846, 672.4713
696.6667, 672.6135
697.1488, 697.6970
697.6309, 716.9696
698.1130, 706.7378
698.5952, 685.5654
699.0773, 676.4761
699.5594, 680.6249
700.0415, 687.1679
700.5236, 689.4186
701.0057, 690.3006
701.4879, 696.5790
701.9700, 708.6290
702.4521, 719.4142
702.9342, 730.7970
703.4163, 734.0203
703.8984, 718.2165
704.3806, 692.9219
704.8627, 681.4580
705.3448, 688.3453
705.8269, 694.9042
706.3090, 696.0550
706.7911, 698.7465
707.2733, 711.8049
707.7554, 727.7280
708.2375, 732.9230
708.7196, 723.6061
709.2017, 709.7510
709.6838, 699.0043
710.1660, 691.3324
710.6481, 686.4845
711.1302, 684.5032
711.6123, 687.0761
712.0944, 695.7474
712.5765, 704.9758
713.0587, 706.8257
713.5408, 700.5735
714.0229, 702.5593
714.5050, 722.1785
714.9871, 737.2083
715.4692, 745.0458
715.9514, 746.4541
716.4335, 738.4859
716.9156, 723.8616
717.3977, 713.2521
717.8798, 711.0073
718.3619, 714.1439
718.8441, 722.8128
719.3262, 734.2579
719.8083, 744.7747
720.2904, 753.3378
720.7725, 758.6986
721.2546, 759.9408
721.7368, 757.5919
722.2189, 752.1374
722.7010, 742.8484
723.1831, 735.2670
723.6652, 729.0563
724.1473, 726.1386
724.6295, 729.8624
725.1116, 736.7847
725.5937, 739.9282
726.0758, 738.6341
726.5579, 735.6862
727.0400, 730.0356
727.5222, 724.4367
728.0043, 719.4268
728.4864, 715.9722
728.9685, 715.2114
729.4506, 717.4931
729.9327, 722.8553
730.4149, 736.1078
730.8970, 750.5083
731.3791, 746.2745
731.8612, 725.9540
732.3433, 715.1580
732.8254, 722.3707
733.3076, 733.8878
733.7897, 735.2422
734.2718, 727.5394
734.7539, 725.7390
735.2360, 735.2806
735.7181, 741.6208
736.2003, 740.9629
736.6824, 738.7808
737.1645, 736.5951
737.6466, 735.7087
738.1287, 740.1074
738.6108, 755.2097
739.0930, 765.0261
739.5751, 753.7260
740.0572, 736.9101
740.5393, 733.9379
741.0214, 742.7233
741.5035, 751.0962
741.9857, 753.3251
742.4678, 751.6701
742.9499, 747.6476
743.4320, 741.7441
743.9141, 741.2737
744.3962, 747.2082
744.8784, 754.0193
745.3605, 760.6591
745.8426, 765.5953
746.3247, 766.0981
746.8068, 761.4574
747.2889, 759.0490
747.7711, 760.1533
748.2532, 761.6671
748.7353, 764.2781
749.2174, 765.9413
749.6995, 764.0876
750.1816, 759.4103
750.6638, 755.3281
751.1459, 753.5586
751.6280, 752.7612
752.1101, 749.7139
752.5922, 747.4556
753.0743, 754.1243
753.5565, 768.9424
754.0386, 780.0225
754.5207, 779.6923
755.0028, 776.4357
755.4849, 790.8295
755.9670, 826.7352
756.4492, 841.5774
756.9313, 826.4274
757.4134, 810.8443
757.8955, 807.8110
758.3776, 811.1391
758.8597, 811.3453
759.3419, 808.0150
759.8240, 806.4190
760.3061, 810.0659
760.7882, 811.8138
761.2703, 807.5012
761.7524, 800.9191
762.2346, 794.2286
762.7167, 789.0269
763.1988, 789.4603
763.6809, 800.3788
764.1630, 813.4589
764.6451, 820.8727
765.1273, 822.6564
765.6094, 816.9693
766.0915, 804.4807
766.5736, 792.7084
767.0557, 786.3506
767.5378, 783.3010
768.0200, 778.9788
768.5021, 773.0536
768.9842, 768.1888
769.4663, 765.6155
769.9484, 761.4283
770.4305, 751.2034
770.9127, 740.3098
771.3948, 737.3054
771.8769, 742.8377
772.3590, 746.8777
772.8411, 748.6708
773.3232, 748.3276
773.8054, 746.3382
774.2875, 741.9370
774.7696, 732.8129
775.2517, 720.0931
775.7338, 708.8527
776.2159, 702.1700
776.6981, 697.4629
777.1802, 689.5652
777.6623, 681.9808
778.1444, 686.2241
778.6265, 701.5498
779.1086, 711.6392
779.5908, 707.0441
780.0729, 694.1198
780.5550, 684.4285
781.0371, 678.4849
781.5192, 670.3301
782.0013, 658.1534
782.4835, 648.6675
782.9656, 646.0025
783.4477, 645.7934
783.9298, 642.5233
784.4119, 636.1456
784.8940, 629.6801
785.3762, 620.5286
785.8583, 614.8573
786.3404, 616.8922
786.8225, 621.0555
787.3046, 624.4097
787.7867, 625.4809
788.2689, 621.7303
788.7510, 611.4531
789.2331, 598.1987
789.7152, 579.6379
790.1973, 562.6737
790.6794, 561.5712
791.1616, 573.3777
791.6437, 582.4297
792.1258, 582.0193
792.6079, 575.6443
793.0900, 566.9490
793.5721, 556.3328
794.0543, 546.7218
794.5364, 537.1187
795.0185, 536.1428
795.5006, 550.7347
795.9827, 564.9406
796.4648, 560.7208
796.9470, 540.5753
797.4291, 531.5842
797.9112, 549.1611
798.3933, 555.7945
798.8754, 540.0956
799.3575, 522.7284
799.8397, 512.7294
800.3218, 510.4263
800.8039, 517.4473
801.2860, 536.3329
801.7681, 548.8905
802.2502, 541.7867
802.7324, 528.0529
803.2145, 514.9946
803.6966, 505.6521
804.1787, 506.5462
804.6608, 517.8583
805.1429, 529.5721
805.6251, 534.2282
806.1072, 532.3889
806.5893, 522.3472
807.0714, 505.6628
807.5535, 494.9522
808.0356, 492.5710
808.5178, 492.8905
808.9999, 492.9456
809.4820, 491.5044
809.9641, 484.2497
810.4462, 466.7856
810.9283, 460.0699
811.4105, 470.8244
811.8926, 481.3764
812.3747, 485.1807
812.8568, 485.1814
813.3389, 483.7995
813.8210, 481.1143
814.3032, 480.1237
814.7853, 485.1990
815.2674, 487.0270
815.7495, 480.1427
816.2316, 470.4358
816.7137, 464.1005
817.1959, 459.8770
817.6780, 450.5641
818.1601, 430.9336
818.6422, 416.2249
819.1243, 424.1284
819.6064, 442.4863
820.0886, 453.9406
820.5707, 458.3389
821.0528, 459.0579
821.5349, 457.5437
822.0170, 456.4126
822.4991, 458.7590
822.9813, 463.7821
823.4634, 469.7227
823.9455, 477.0359
824.4276, 474.3144
824.9097, 455.9798
825.3918, 440.7065
825.8740, 444.8221
826.3561, 461.0527
826.8382, 463.9809
827.3203, 442.6123
827.8024, 433.4474
828.2845, 446.6871
828.7667, 459.7231
829.2488, 466.2223
829.7309, 467.1379
830.2130, 461.5594
830.6951, 449.6295
831.1772, 441.2980
831.6594, 441.4945
832.1415, 442.6233
832.6236, 440.2599
833.1057, 438.0500
833.5878, 441.4182
834.0699, 448.5066
834.5521, 451.9292
835.0342, 447.7875
835.5163, 442.7029
835.9984, 443.4260
836.4805, 446.8590
836.9626, 447.0512
837.4448, 445.1131
837.9269, 447.4081
838.4090, 455.7349
838.8911, 463.0619
839.3732, 461.4637
839.8553, 453.3478
840.3375, 446.2147
840.8196, 439.9740
841.3017, 441.2817
841.7838, 453.4276
842.2659, 462.2767
842.7480, 456.7612
843.2302, 443.3442
843.7123, 438.8537
844.1944, 447.4154
844.6765, 451.0011
845.1586, 446.6276
845.6407, 441.7270
846.1229, 437.9482
846.6050, 435.3472
847.0871, 433.7820
847.5692, 433.3331
848.0513, 434.9092
848.5334, 445.2524
849.0156, 448.6746
849.4977, 433.2264
849.9798, 416.1636
850.4619, 409.5736
850.9440, 412.3275
851.4261, 420.5556
851.9083, 433.4612
852.3904, 446.0194
852.8725, 458.5668
853.3546, 466.1882
853.8367, 458.7194
854.3188, 443.8668
854.8010, 439.1997
855.2831, 446.5560
855.7652, 451.6800
856.2473, 443.2675
856.7294, 429.2694
857.2115, 423.8017
857.6937, 425.1222
858.1758, 424.8415
858.6579, 422.3202
859.1400, 424.0357
859.6221, 433.8181
860.1042, 443.0916
860.5864, 437.3805
861.0685, 417.7529
861.5506, 415.5765
862.0327, 437.3846
862.5148, 450.3299
862.9969, 443.3721
863.4791, 433.6658
863.9612, 435.4428
864.4433, 444.9563
864.9254, 448.5697
865.4075, 443.3915
865.8896, 438.3236
866.3718, 428.6072
866.8539, 424.6291
867.3360, 435.2268
867.8181, 450.1221
868.3002, 458.0741
868.7823, 458.5308
869.2645, 456.8566
869.7466, 454.4383
870.2287, 450.0962
870.7108, 438.9290
871.1929, 429.3585
871.6750, 431.4905
872.1572, 440.9904
872.6393, 447.4851
873.1214, 447.5907
873.6035, 443.0010
874.0856, 429.8448
874.5677, 416.8469
875.0499, 413.3906
875.5320, 417.8225
876.0141, 429.2685
876.4962, 445.3540
876.9783, 456.4828
877.4604, 455.6421
877.9426, 448.6483
878.4247, 444.9996
878.9068, 443.1915
879.3889, 435.9711
879.8710, 423.6172
880.3531, 415.2142
880.8353, 414.5720
881.3174, 417.8251
881.7995, 421.0571
882.2816, 423.8727
882.7637, 422.6441
883.2458, 416.2292
883.7280, 415.6293
884.2101, 425.4429
884.6922, 431.2721
885.1743, 420.9902
885.6564, 403.9601
886.1385, 401.4166
886.6207, 417.5503
887.1028, 429.4623
887.5849, 438.0044
888.0670, 440.7313
888.5491, 430.3317
889.0313, 419.7137
889.5134, 422.3186
889.9955, 434.7552
890.4776, 441.3472
890.9597, 437.7493
891.4418, 434.2523
891.9240, 430.2511
892.4061, 428.8406
892.8882, 436.2285
893.3703, 444.7281
893.8524, 441.7517
894.3345, 426.8048
894.8167, 415.8888
895.2988, 417.3475
895.7809, 422.0936
896.2630, 429.4456
896.7451, 434.4886
897.2272, 428.9724
897.7094, 417.0892
898.1915, 411.3539
898.6736, 416.3058
899.1557, 420.1425
899.6378, 406.4574
900.1199, 392.0156
900.6021, 404.4741
901.0842, 430.2356
901.5663, 437.6862
902.0484, 424.1879
902.5305, 410.5806
903.0126, 409.6316
903.4948, 416.2751
903.9769, 426.0203
904.4590, 436.9223
904.9411, 442.5779
905.4232, 443.0186
905.9053, 439.8139
906.3875, 433.5400
906.8696, 427.9075
907.3517, 426.7924
907.8338, 428.5585
908.3159, 427.2114
908.7980, 422.7068
909.2802, 422.3653
909.7623, 427.7608
910.2444, 430.5322
910.7265, 425.6665
911.2086, 419.1792
911.6907, 420.1431
912.1729, 428.4482
912.6550, 434.9312
913.1371, 440.5160
913.6192, 440.5967
914.1013, 430.0316
914.5834, 422.3150
915.0656, 429.0217
915.5477, 442.9695
916.0298, 446.9723
916.5119, 436.9587
916.9940, 432.4132
917.4761, 441.2248
917.9583, 444.3245
918.4404, 430.7331
918.9225, 415.4721
919.4046, 410.3565
919.8867, 413.5054
920.3688, 417.7739
920.8510, 425.1916
921.3331, 428.0056
921.8152, 418.8610
922.2973, 412.1040
922.7794, 418.2242
923.2615, 427.7969
923.7437, 428.0227
924.2258, 419.5697
924.7079, 415.6049
925.1900, 423.6536
925.6721, 430.8755
926.1542, 430.2557
926.6364, 428.4398
927.1185, 431.2658
927.6006, 436.5119
928.0827, 440.1182
928.5648, 441.0908
929.0469, 440.0732
929.5291, 435.0093
930.0112, 430.8818
930.4933, 432.0166
930.9754, 435.8177
931.4575, 440.4676
931.9396, 444.6374
932.4218, 445.6693
932.9039, 442.6663
933.3860, 438.8024
933.8681, 435.6754
934.3502, 434.1394
934.8323, 436.6430
935.3145, 441.1401
935.7966, 443.0480
936.2787, 442.2793
936.7608, 442.2257
937.2429, 444.7397
937.7250, 447.6246
938.2072, 446.0290
938.6893, 443.6950
939.1714, 451.7625
939.6535, 467.1758
940.1356, 477.4824
940.6177, 480.0200
941.0999, 479.2520
941.5820, 478.4165
942.0641, 475.6539
942.5462, 463.6564
943.0283, 446.1463
943.5104, 445.2513
943.9926, 460.4964
944.4747, 473.8679
944.9568, 479.8558
945.4389, 481.0728
945.9210, 478.9444
946.4031, 475.8900
946.8853, 479.7631
947.3674, 490.5250
947.8495, 498.8385
948.3316, 504.2336
948.8137, 504.7723
949.2958, 498.7181
949.7780, 492.7409
950.2601, 495.1759
950.7422, 503.5619
951.2243, 503.8441
951.7064, 494.2999
952.1885, 486.7823
952.6707, 480.6116
953.1528, 484.8964
953.6349, 508.3968
954.1170, 534.8007
954.5991, 540.9974
955.0812, 528.1060
955.5634, 522.1185
956.0455, 526.0162
956.5276, 527.5203
957.0097, 523.8728
957.4918, 520.4177
957.9739, 520.5168
958.4561, 521.9050
958.9382, 520.2415
959.4203, 514.9542
959.9024, 514.8886
960.3845, 522.1661
960.8666, 530.7109
961.3488, 543.2382
961.8309, 551.8284
962.3130, 549.4375
962.7951, 540.9426
963.2772, 535.8480
963.7593, 534.8292
964.2415, 533.5749
964.7236, 529.6826
965.2057, 529.0542
965.6878, 536.1596
966.1699, 543.4423
966.6520, 544.3552
967.1342, 542.3055
967.6163, 545.5575
968.0984, 556.1052
968.5805, 564.6589
969.0626, 571.3289
969.5447, 575.2562
970.0269, 574.8309
970.5090, 572.8549
970.9911, 570.7352
971.4732, 568.8535
971.9553, 568.3660
972.4374, 570.4721
972.9196, 570.0298
973.4017, 565.4192
973.8838, 559.3147
974.3659, 547.6710
974.8480, 539.1104
975.3301, 544.2759
975.8123, 558.8164
976.2944, 567.8112
976.7765, 566.1316
977.2586, 568.2036
977.7407, 582.1881
978.2228, 594.5119
978.7050, 599.3974
979.1871, 599.6188
979.6692, 598.3538
980.1513, 595.1415
980.6334, 585.9599
981.1155, 565.0723
981.5977, 553.6666
982.0798, 566.4113
982.5619, 580.3503
983.0440, 583.5958
983.5261, 582.0439
984.0082, 582.2017
984.4904, 584.1851
984.9725, 584.8145
985.4546, 581.3247
985.9367, 582.2444
986.4188, 594.0215
986.9009, 607.2773
987.3831, 619.2011
987.8652, 627.7346
988.3473, 628.3966
988.8294, 623.3040
989.3115, 622.1016
989.7936, 629.8105
990.2758, 635.2993
990.7579, 632.6922
991.2400, 627.8191
991.7221, 619.9316
992.2042, 614.9202
992.6863, 624.2993
993.1685, 643.9712
993.6506, 652.7283
994.1327, 639.6541
994.6148, 626.4799
995.0969, 620.7350
995.5790, 620.4265
996.0612, 627.5943
996.5433, 637.2220
997.0254, 646.3429
997.5075, 652.3364
997.9896, 646.5286
998.4717, 619.5441
998.9539, 600.0540
999.4360, 608.6274
999.9181, 621.3759
1000.400, 621.9645
1000.882, 616.5844
1001.364, 612.6869
1001.847, 611.6229
1002.329, 613.8104
1002.811, 621.3759
1003.293, 625.9438
1003.775, 616.2132
1004.257, 610.1213
1004.739, 626.6228
1005.221, 649.7679
1005.703, 656.3436
1006.186, 648.8920
1006.668, 649.6925
1007.150, 670.1809
1007.632, 685.6890
1008.114, 680.7612
1008.596, 671.8169
1009.078, 668.1751
1009.560, 667.5505
1010.043, 665.0325
1010.525, 662.0762
1011.007, 666.7064
1011.489, 684.6245
1011.971, 698.2003
1012.453, 695.6224
1012.935, 691.3390
1013.417, 697.3821
1013.899, 704.1431
1014.382, 696.8853
1014.864, 679.9951
1015.346, 671.9391
1015.828, 679.4545
1016.310, 688.6808
1016.792, 697.3570
1017.274, 702.7719
1017.756, 696.5810
1018.239, 691.7850
1018.721, 706.0612
1019.203, 733.1265
1019.685, 752.4639
1020.167, 759.7828
1020.649, 757.0406
1021.131, 730.4987
1021.613, 711.8852
1022.095, 722.9852
1022.578, 742.5152
1023.060, 752.7196
1023.542, 754.3302
1024.024, 752.3767
1024.506, 746.5139
1024.988, 745.3865
1025.470, 757.1601
1025.952, 766.2839
1026.435, 764.1566
1026.917, 759.6778
1027.399, 759.7393
1027.881, 763.1270
1028.363, 767.4162
1028.845, 773.0519
1029.327, 772.7895
1029.809, 754.1055
1030.292, 744.9227
1030.774, 761.0372
1031.256, 780.6629
1031.738, 786.5436
1032.220, 786.6077
1032.702, 798.4678
1033.184, 824.9407
1033.666, 840.0022
1034.148, 838.7034
1034.630, 829.1821
1035.113, 799.5354
1035.595, 776.3041
1036.077, 775.5184
1036.559, 789.4464
1037.041, 812.2112
1037.523, 844.4170
1038.005, 855.9244
1038.487, 825.4506
1038.970, 808.5886
1039.452, 819.4687
1039.934, 830.0942
1040.416, 826.6132
1040.898, 818.0131
1041.380, 813.8294
1041.862, 814.0983
1042.344, 820.1016
1042.826, 840.6135
1043.309, 846.8240
1043.791, 830.5514
1044.273, 812.6100
1044.755, 794.8652
1045.237, 786.9830
1045.719, 802.7823
1046.201, 835.7758
1046.683, 856.7859
1047.166, 866.8841
1047.648, 858.3938
1048.130, 819.4400
1048.612, 798.9938
1049.094, 818.4435
1049.576, 843.6824
1050.058, 846.3189
1050.540, 832.9300
1051.022, 819.1180
1051.505, 803.4881
1051.987, 803.8895
1052.469, 823.7820
1052.951, 837.5807
1053.433, 838.6136
1053.915, 836.2514
1054.397, 836.3606
1054.879, 838.3872
1055.361, 842.2904
1055.844, 847.4781
1056.326, 845.5340
1056.808, 836.4903
1057.290, 831.7106
1057.772, 833.1510
1058.254, 836.7128
1058.736, 840.2242
1059.218, 845.2644
1059.701, 855.1852
1060.183, 867.2126
1060.665, 871.2842
1061.147, 868.6608
1061.629, 864.8505
1062.111, 861.0844
1062.593, 861.2446
1063.075, 866.7037
1063.557, 874.1255
1064.040, 881.8441
1064.522, 886.2393
1065.004, 873.1545
1065.486, 854.1556
1065.968, 864.2231
1066.450, 895.3602
1066.932, 910.6465
1067.414, 902.0378
1067.896, 890.6521
1068.379, 889.7394
1068.861, 896.2360
1069.343, 913.8662
1069.825, 931.3141
1070.307, 929.5205
1070.789, 916.4812
1071.271, 907.4456
1071.753, 905.4509
1072.236, 907.9857
1072.718, 914.0085
1073.200, 923.9524
1073.682, 943.3503
1074.164, 961.2554
1074.646, 970.1079
1075.128, 971.0487
1075.610, 960.8440
1076.093, 945.2527
1076.575, 938.6757
1077.057, 945.1873
1077.539, 950.7809
1078.021, 946.0866
1078.503, 943.5159
1078.985, 952.6268
1079.467, 962.1238
1079.949, 963.1877
1080.432, 958.5870
1080.914, 951.1003
1081.396, 941.8048
1081.878, 941.6090
1082.360, 969.5789
1082.842, 980.4873
1083.324, 946.4790
1083.806, 919.2632
1084.288, 927.9609
1084.771, 950.7665
1085.253, 966.6104
1085.735, 975.8297
1086.217, 980.8574
1086.699, 982.3920
1087.181, 977.1498
1087.663, 958.6174
1088.145, 946.8622
1088.628, 949.4227
1089.110, 955.7219
1089.592, 958.2748
1090.074, 959.1074
1090.556, 963.2110
1091.038, 970.8766
1091.520, 974.1846
1092.002, 973.8862
1092.484, 961.3699
1092.967, 932.3621
1093.449, 910.8831
1093.931, 909.6367
1094.413, 917.7428
1094.895, 920.8366
1095.377, 922.3872
1095.859, 942.2111
1096.341, 975.0121
1096.823, 971.0514
1097.306, 931.5935
1097.788, 910.1373
1098.270, 922.9425
1098.752, 940.5836
1099.234, 940.2797
1099.716, 929.8153
1100.198, 918.5517
1100.680, 907.2014
1101.163, 893.2379
1101.645, 881.5024
1102.127, 889.9976
1102.609, 914.8812
1103.091, 924.5942
1103.573, 903.1025
1104.055, 886.4977
1104.537, 921.2794
1105.020, 956.5875
1105.502, 936.5103
1105.984, 896.6281
1106.466, 878.2415
1106.948, 878.0051
1107.430, 879.5043
1107.912, 878.7520
1108.394, 877.1862
1108.876, 876.6243
1109.359, 873.4775
1109.841, 864.0242
1110.323, 854.2852
1110.805, 847.6898
1111.287, 843.1035
1111.769, 838.1844
1112.251, 833.6132
1112.733, 833.5325
1113.215, 839.9954
1113.698, 846.9205
1114.180, 858.7128
1114.662, 863.5407
1115.144, 856.2598
1115.626, 844.6317
1116.108, 832.0931
1116.590, 820.2426
1117.072, 811.2443
1117.555, 805.0757
1118.037, 810.8304
1118.519, 833.0683
1119.001, 839.1623
1119.483, 822.3389
1119.965, 810.1464
1120.447, 815.2471
1120.929, 820.9113
1121.411, 808.3011
1121.894, 787.4974
1122.376, 790.7191
1122.858, 810.1561
1123.340, 798.4803
1123.822, 761.5443
1124.304, 742.7221
1124.786, 750.0640
1125.268, 760.4158
1125.750, 760.6069
1126.233, 758.8950
1126.715, 768.8058
1127.197, 778.6048
1127.679, 766.3235
1128.161, 746.1595
1128.643, 743.5865
1129.125, 753.2870
1129.607, 753.8755
1130.090, 740.5764
1130.572, 727.7234
1131.054, 721.6407
1131.536, 719.2005
1132.018, 723.5877
1132.500, 725.6894
1132.982, 716.1132
1133.464, 702.9771
1133.947, 693.3854
1134.429, 689.3198
1134.911, 696.4231
1135.393, 722.3079
1135.875, 735.4198
1136.357, 723.2492
1136.839, 713.0499
1137.321, 714.4064
1137.803, 710.7806
1138.286, 687.6082
1138.768, 660.2811
1139.250, 652.2952
1139.732, 661.5254
1140.214, 668.2105
1140.696, 672.4676
1141.178, 673.0054
1141.660, 669.4782
1142.142, 664.9485
1142.625, 660.3141
1143.107, 656.4108
1143.589, 653.9003
1144.071, 652.4576
1144.553, 651.6743
1145.035, 651.4329
1145.517, 651.7459
1145.999, 652.2307
1146.482, 653.5509
1146.964, 654.0397
1147.446, 644.3513
1147.928, 622.2410
1148.410, 607.5975
1148.892, 622.5613
1149.374, 638.1714
1149.856, 622.4806
1150.339, 600.8592
1150.821, 599.0350
1151.303, 608.2559
1151.785, 615.6946
1152.267, 618.7668
1152.749, 616.6111
1153.231, 607.6509
1153.713, 598.9496
1154.195, 592.6500
1154.677, 585.9848
1155.160, 577.5666
1155.642, 569.0252
1156.124, 557.6483
1156.606, 549.9340
1157.088, 559.1066
1157.570, 582.4355
1158.052, 585.8549
1158.534, 563.4503
1159.017, 548.2106
1159.499, 542.4286
1159.981, 541.1246
1160.463, 543.7230
1160.945, 542.3524
1161.427, 530.5128
1161.909, 515.2849
1162.391, 507.1826
1162.874, 505.9510
1163.356, 513.6391
1163.838, 526.8707
1164.320, 535.7778
1164.802, 538.9962
1165.284, 535.6469
1165.766, 526.4027
1166.248, 519.2394
1166.730, 521.3524
1167.213, 522.3771
1167.695, 512.2358
1168.177, 498.7998
1168.659, 485.6366
1169.141, 475.9846
1169.623, 474.5568
1170.105, 479.4145
1170.587, 485.1099
1171.069, 491.2108
1171.552, 493.6625
1172.034, 490.0158
1172.516, 485.3396
1172.998, 478.2373
1173.480, 473.5982
1173.962, 476.2563
1174.444, 478.2105
1174.926, 469.5452
1175.409, 454.6593
1175.891, 450.1811
1176.373, 457.3454
1176.855, 454.5445
1177.337, 441.2856
1177.819, 444.4263
1178.301, 468.2899
1178.783, 480.3554
1179.266, 464.7476
1179.748, 444.6109
1180.230, 443.7401
1180.712, 454.3927
1181.194, 470.8283
1181.676, 485.6117
1182.158, 483.6735
1182.640, 470.4195
1183.122, 455.3163
1183.604, 442.2849
1184.087, 437.8193
1184.569, 445.7495
1185.051, 451.0039
1185.533, 445.6398
1186.015, 437.6022
1186.497, 423.8255
1186.979, 415.3451
1187.461, 424.8422
1187.944, 440.9740
1188.426, 447.3560
1188.908, 445.4991
1189.390, 445.5268
1189.872, 450.0096
1190.354, 445.6197
1190.836, 428.3692
1191.318, 421.5474
1191.801, 432.1216
1192.283, 440.4034
1192.765, 435.0091
1193.247, 423.4089
1193.729, 413.3533
1194.211, 406.4517
1194.693, 409.4225
1195.175, 417.6355
1195.657, 418.2296
1196.140, 412.9415
1196.622, 409.7145
1197.104, 409.2813
1197.586, 404.8452
1198.068, 392.3783
1198.550, 386.6377
1199.032, 406.3302
1199.514, 423.1038
1199.996, 417.5115
1200.479, 406.0677
1200.961, 398.8111
1201.443, 396.0517
1201.925, 398.2255
1202.407, 404.5523
1202.889, 409.6475
1203.371, 414.3239
1203.853, 414.5102
1204.336, 408.0024
1204.818, 404.1151
1205.300, 404.7691
1205.782, 408.6320
1206.264, 415.6946
1206.746, 420.9892
1207.228, 417.8032
1207.710, 410.0826
1208.193, 408.5940
1208.675, 410.4211
1209.157, 404.7400
1209.639, 395.3197
1210.121, 395.6053
1210.603, 405.5739
1211.085, 415.1952
1211.567, 420.6016
1212.049, 421.0654
1212.531, 411.1562
1213.014, 402.9944
1213.496, 406.1921
1213.978, 409.8300
1214.460, 406.7137
1214.942, 399.3613
1215.424, 387.2416
1215.906, 374.3332
1216.388, 374.9734
1216.871, 392.1065
1217.353, 406.2378
1217.835, 420.5338
1218.317, 414.7109
1218.799, 381.6670
1219.281, 359.9048
1219.763, 365.9921
1220.245, 379.2154
1220.728, 380.7840
1221.210, 377.7599
1221.692, 385.0280
1222.174, 395.2607
1222.656, 389.8050
1223.138, 377.0986
1223.620, 373.9306
1224.102, 380.7059
1224.584, 395.4986
1225.067, 415.7155
1225.549, 421.0758
1226.031, 390.6958
1226.513, 368.2953
1226.995, 377.9295
1227.477, 386.3228
1227.959, 370.3149
1228.441, 356.9153
1228.923, 370.6302
1229.406, 395.9908
1229.888, 406.8788
1230.370, 404.2713
1230.852, 395.5396
1231.334, 379.9444
1231.816, 380.4020
1232.298, 397.2380
1232.780, 406.2852
1233.263, 401.4852
1233.745, 388.0107
1234.227, 368.3324
1234.709, 352.6940
1235.191, 352.9246
1235.673, 361.2728
1236.155, 372.8139
##END=



