##NAMES=Philipsbornite
##RRUFFID=R150127
##IDEAL CHEMISTRY=Pb^2+^Al_3_(As^5+^O_4_)(As^5+^O_3_OH)(OH)_6_
##LOCALITY=Tsumeb mine, Tsumeb, Namibia
##OWNER=RRUFF
##SOURCE=Shields Flynn
##DESCRIPTION=Aggregates of colorless cubic crystals with brown coating, associated with cuprian adamite
##STATUS=The identification of this mineral is confirmed by single-crystal X-ray diffraction and chemical analysis.
##URL=rruff.info/R150127
##MEASURED CHEMISTRY=Pb_1.00_(Al_2.81_Fe_0.26_)_Î£=3.07_(As_0.96_O_4_)(AsO_3_OH)(OH)_6_
93.97052, 3598.514
94.45264, 3595.327
94.93475, 3583.195
95.41687, 3569.600
95.89898, 3556.794
96.38110, 3545.736
96.86321, 3538.030
97.34533, 3532.010
97.82745, 3519.312
98.30956, 3504.411
98.79168, 3486.937
99.27380, 3470.244
99.75591, 3453.761
100.2380, 3437.557
100.7201, 3422.775
101.2023, 3409.378
101.6844, 3398.177
102.1665, 3390.426
102.6486, 3388.089
103.1307, 3387.276
103.6128, 3384.018
104.0950, 3377.586
104.5771, 3371.509
105.0592, 3369.066
105.5413, 3367.505
106.0234, 3362.463
106.5055, 3349.184
106.9877, 3330.273
107.4698, 3316.903
107.9519, 3311.802
108.4340, 3309.098
108.9161, 3309.057
109.3982, 3309.554
109.8804, 3306.123
110.3625, 3293.761
110.8446, 3270.414
111.3267, 3248.785
111.8088, 3228.447
112.2909, 3209.831
112.7731, 3193.263
113.2552, 3178.783
113.7373, 3165.954
114.2194, 3154.281
114.7015, 3143.246
115.1836, 3134.605
115.6658, 3130.192
116.1479, 3127.169
116.6300, 3122.443
117.1121, 3114.801
117.5942, 3105.907
118.0763, 3100.084
118.5584, 3098.890
119.0406, 3096.761
119.5227, 3090.345
120.0048, 3081.460
120.4869, 3075.289
120.9690, 3074.962
121.4511, 3078.340
121.9333, 3080.249
122.4154, 3079.929
122.8975, 3079.380
123.3796, 3080.565
123.8617, 3083.700
124.3438, 3086.576
124.8260, 3087.010
125.3081, 3086.999
125.7902, 3088.598
126.2723, 3092.948
126.7544, 3098.724
127.2365, 3102.919
127.7187, 3104.976
128.2008, 3106.218
128.6829, 3107.235
129.1650, 3107.845
129.6471, 3107.560
130.1292, 3105.774
130.6114, 3102.745
131.0935, 3102.180
131.5756, 3106.670
132.0577, 3111.345
132.5398, 3115.108
133.0219, 3118.090
133.5041, 3120.931
133.9862, 3124.219
134.4683, 3128.094
134.9504, 3131.593
135.4325, 3134.737
135.9146, 3137.584
136.3968, 3139.495
136.8789, 3140.659
137.3610, 3142.735
137.8431, 3148.113
138.3252, 3157.884
138.8073, 3165.121
139.2895, 3167.612
139.7716, 3168.101
140.2537, 3169.946
140.7358, 3174.081
141.2179, 3178.731
141.7000, 3181.021
142.1821, 3181.132
142.6643, 3182.339
143.1464, 3186.797
143.6285, 3193.623
144.1106, 3199.622
144.5927, 3203.782
145.0748, 3207.209
145.5570, 3210.696
146.0391, 3214.270
146.5212, 3218.441
147.0033, 3224.222
147.4854, 3231.922
147.9675, 3238.238
148.4497, 3240.692
148.9318, 3242.752
149.4139, 3246.528
149.8960, 3252.390
150.3781, 3258.925
150.8602, 3263.870
151.3424, 3266.278
151.8245, 3269.217
152.3066, 3273.898
152.7887, 3278.650
153.2708, 3282.715
153.7529, 3285.706
154.2351, 3286.999
154.7172, 3284.918
155.1993, 3275.500
155.6814, 3267.171
156.1635, 3262.880
156.6456, 3259.156
157.1278, 3251.573
157.6099, 3237.792
158.0920, 3219.208
158.5741, 3201.603
159.0562, 3186.951
159.5383, 3170.919
160.0205, 3151.215
160.5026, 3129.259
160.9847, 3108.085
161.4668, 3089.258
161.9489, 3072.927
162.4310, 3059.115
162.9131, 3049.652
163.3953, 3040.765
163.8774, 3030.290
164.3595, 3018.362
164.8416, 3006.396
165.3237, 2994.624
165.8058, 2983.690
166.2880, 2974.823
166.7701, 2968.993
167.2522, 2964.585
167.7343, 2959.876
168.2164, 2954.780
168.6985, 2949.853
169.1807, 2944.873
169.6628, 2940.386
170.1449, 2937.292
170.6270, 2936.350
171.1091, 2936.778
171.5912, 2936.657
172.0734, 2935.235
172.5555, 2934.732
173.0376, 2936.361
173.5197, 2939.218
174.0018, 2942.070
174.4839, 2944.223
174.9661, 2945.781
175.4482, 2947.328
175.9303, 2949.136
176.4124, 2950.622
176.8945, 2951.071
177.3766, 2951.129
177.8588, 2951.849
178.3409, 2954.002
178.8230, 2957.601
179.3051, 2961.911
179.7872, 2966.101
180.2693, 2971.781
180.7515, 2980.336
181.2336, 2990.967
181.7157, 3001.758
182.1978, 3011.215
182.6799, 3019.330
183.1620, 3025.597
183.6441, 3027.282
184.1263, 3029.899
184.6084, 3037.057
185.0905, 3048.235
185.5726, 3059.690
186.0547, 3067.752
186.5368, 3071.779
187.0190, 3077.644
187.5011, 3086.131
187.9832, 3095.755
188.4653, 3105.328
188.9474, 3114.713
189.4296, 3124.892
189.9117, 3137.284
190.3938, 3151.786
190.8759, 3165.438
191.3580, 3176.927
191.8401, 3187.820
192.3223, 3199.938
192.8044, 3213.599
193.2865, 3228.026
193.7686, 3242.494
194.2507, 3257.107
194.7328, 3272.414
195.2150, 3289.616
195.6971, 3307.497
196.1792, 3323.830
196.6613, 3338.449
197.1434, 3351.313
197.6255, 3361.625
198.1077, 3370.251
198.5898, 3379.162
199.0719, 3390.215
199.5540, 3402.647
200.0361, 3413.163
200.5182, 3421.741
201.0004, 3428.027
201.4825, 3432.444
201.9646, 3434.850
202.4467, 3434.866
202.9288, 3432.580
203.4109, 3427.930
203.8930, 3419.384
204.3752, 3404.197
204.8573, 3387.621
205.3394, 3371.618
205.8215, 3355.997
206.3036, 3339.796
206.7857, 3322.277
207.2679, 3303.398
207.7500, 3284.126
208.2321, 3263.215
208.7142, 3243.015
209.1963, 3224.078
209.6784, 3206.530
210.1606, 3190.433
210.6427, 3175.904
211.1248, 3163.145
211.6069, 3150.897
212.0890, 3138.375
212.5711, 3127.021
213.0533, 3117.548
213.5354, 3109.818
214.0175, 3103.127
214.4996, 3096.894
214.9817, 3091.121
215.4638, 3085.851
215.9460, 3081.394
216.4281, 3077.041
216.9102, 3071.798
217.3923, 3066.072
217.8744, 3061.520
218.3565, 3059.882
218.8387, 3061.621
219.3208, 3062.505
219.8029, 3061.242
220.2850, 3060.266
220.7671, 3061.278
221.2492, 3064.212
221.7314, 3067.641
222.2135, 3070.365
222.6956, 3072.318
223.1777, 3074.626
223.6598, 3077.759
224.1419, 3080.900
224.6240, 3083.481
225.1062, 3085.476
225.5883, 3087.025
226.0704, 3087.993
226.5525, 3088.527
227.0346, 3089.707
227.5167, 3091.957
227.9989, 3094.665
228.4810, 3097.456
228.9631, 3100.328
229.4452, 3102.887
229.9273, 3105.341
230.4094, 3107.184
230.8916, 3107.023
231.3737, 3102.747
231.8558, 3097.388
232.3379, 3094.806
232.8200, 3095.446
233.3021, 3095.730
233.7843, 3092.407
234.2664, 3087.403
234.7485, 3083.651
235.2306, 3082.261
235.7127, 3082.114
236.1948, 3081.725
236.6770, 3080.994
237.1591, 3080.423
237.6412, 3080.776
238.1233, 3081.281
238.6054, 3080.954
239.0875, 3079.197
239.5697, 3076.907
240.0518, 3075.085
240.5339, 3073.196
241.0160, 3073.587
241.4981, 3079.604
241.9802, 3087.217
242.4624, 3092.397
242.9445, 3093.415
243.4266, 3092.518
243.9087, 3093.282
244.3908, 3095.677
244.8729, 3099.923
245.3550, 3107.485
245.8372, 3116.002
246.3193, 3123.409
246.8014, 3128.985
247.2835, 3133.644
247.7656, 3139.015
248.2477, 3145.263
248.7299, 3151.833
249.2120, 3158.345
249.6941, 3165.220
250.1762, 3173.282
250.6583, 3182.720
251.1404, 3192.078
251.6226, 3198.789
252.1047, 3201.476
252.5868, 3204.506
253.0689, 3207.716
253.5510, 3211.720
254.0331, 3217.453
254.5153, 3224.967
254.9974, 3232.978
255.4795, 3239.271
255.9616, 3241.940
256.4437, 3247.127
256.9258, 3257.010
257.4080, 3267.472
257.8901, 3276.181
258.3722, 3282.554
258.8543, 3287.207
259.3364, 3291.008
259.8185, 3294.346
260.3007, 3295.583
260.7828, 3294.745
261.2649, 3292.300
261.7470, 3288.427
262.2291, 3283.192
262.7112, 3276.695
263.1934, 3268.948
263.6755, 3259.709
264.1576, 3249.899
264.6397, 3239.697
265.1218, 3228.927
265.6039, 3217.645
266.0861, 3205.804
266.5682, 3193.059
267.0503, 3178.867
267.5324, 3162.799
268.0145, 3148.375
268.4966, 3136.763
268.9788, 3125.374
269.4609, 3112.953
269.9430, 3099.613
270.4251, 3086.026
270.9072, 3072.480
271.3893, 3058.983
271.8715, 3048.285
272.3536, 3042.838
272.8357, 3037.167
273.3178, 3028.383
273.7999, 3017.362
274.2820, 3006.892
274.7642, 2998.908
275.2463, 2993.178
275.7284, 2987.088
276.2105, 2979.561
276.6926, 2972.866
277.1747, 2968.215
277.6568, 2964.951
278.1389, 2961.658
278.6211, 2957.575
279.1032, 2952.871
279.5853, 2948.188
280.0674, 2943.664
280.5495, 2938.996
281.0316, 2933.783
281.5138, 2928.421
281.9959, 2923.417
282.4780, 2918.881
282.9601, 2915.203
283.4422, 2913.761
283.9243, 2915.769
284.4065, 2917.348
284.8886, 2917.525
285.3707, 2916.865
285.8528, 2916.024
286.3349, 2915.154
286.8170, 2914.562
287.2992, 2914.855
287.7813, 2916.201
288.2634, 2917.743
288.7455, 2919.942
289.2276, 2922.024
289.7097, 2922.823
290.1919, 2922.038
290.6740, 2920.735
291.1561, 2920.238
291.6382, 2920.688
292.1203, 2920.811
292.6024, 2917.972
293.0846, 2916.165
293.5667, 2920.917
294.0488, 2932.788
294.5309, 2944.602
295.0130, 2949.292
295.4951, 2946.632
295.9773, 2945.690
296.4594, 2947.460
296.9415, 2950.537
297.4236, 2953.815
297.9057, 2957.270
298.3878, 2961.708
298.8700, 2968.316
299.3521, 2976.419
299.8342, 2982.093
300.3163, 2982.641
300.7984, 2983.206
301.2805, 2986.930
301.7627, 2993.356
302.2448, 3000.397
302.7269, 3007.175
303.2090, 3013.727
303.6911, 3020.181
304.1732, 3026.207
304.6554, 3032.728
305.1375, 3040.486
305.6196, 3049.099
306.1017, 3057.536
306.5838, 3065.341
307.0659, 3072.939
307.5481, 3081.302
308.0302, 3090.854
308.5123, 3099.567
308.9944, 3105.801
309.4765, 3110.964
309.9586, 3117.497
310.4408, 3126.099
310.9229, 3135.668
311.4050, 3144.786
311.8871, 3153.469
312.3692, 3162.100
312.8513, 3171.581
313.3335, 3180.637
313.8156, 3187.157
314.2977, 3190.703
314.7798, 3194.424
315.2619, 3202.365
315.7440, 3213.969
316.2262, 3221.206
316.7083, 3219.802
317.1904, 3216.343
317.6725, 3216.936
318.1546, 3221.431
318.6367, 3224.709
319.1188, 3222.934
319.6010, 3217.073
320.0831, 3212.769
320.5652, 3213.629
321.0473, 3212.445
321.5294, 3204.019
322.0115, 3189.958
322.4937, 3175.783
322.9758, 3164.227
323.4579, 3154.006
323.9400, 3141.960
324.4221, 3127.031
324.9042, 3112.839
325.3864, 3101.917
325.8685, 3092.422
326.3506, 3080.433
326.8327, 3064.406
327.3148, 3046.699
327.7969, 3031.121
328.2791, 3018.174
328.7612, 3004.146
329.2433, 2987.197
329.7254, 2969.406
330.2075, 2953.103
330.6896, 2938.688
331.1718, 2925.434
331.6539, 2912.459
332.1360, 2899.825
332.6181, 2888.767
333.1002, 2880.706
333.5823, 2873.258
334.0645, 2864.002
334.5466, 2853.295
335.0287, 2844.041
335.5108, 2838.809
335.9929, 2836.832
336.4750, 2832.425
336.9572, 2823.745
337.4393, 2814.809
337.9214, 2807.423
338.4035, 2801.042
338.8856, 2794.343
339.3677, 2786.651
339.8499, 2778.418
340.3320, 2770.966
340.8141, 2764.894
341.2962, 2758.412
341.7783, 2750.041
342.2604, 2741.469
342.7426, 2735.290
343.2247, 2732.272
343.7068, 2730.510
344.1889, 2727.450
344.6710, 2722.636
345.1531, 2717.617
345.6353, 2711.349
346.1174, 2705.662
346.5995, 2702.898
347.0816, 2702.760
347.5637, 2701.965
348.0458, 2697.335
348.5280, 2688.586
349.0101, 2681.837
349.4922, 2678.558
349.9743, 2675.450
350.4564, 2670.529
350.9385, 2664.697
351.4207, 2660.212
351.9028, 2658.495
352.3849, 2658.958
352.8670, 2659.097
353.3491, 2658.833
353.8312, 2658.355
354.3134, 2657.699
354.7955, 2656.844
355.2776, 2655.802
355.7597, 2654.570
356.2418, 2653.031
356.7239, 2650.907
357.2061, 2647.487
357.6882, 2644.965
358.1703, 2643.460
358.6524, 2642.647
359.1345, 2642.780
359.6166, 2643.574
360.0987, 2643.965
360.5808, 2642.773
361.0630, 2639.728
361.5451, 2637.643
362.0272, 2637.346
362.5093, 2637.070
362.9914, 2636.393
363.4735, 2635.288
363.9557, 2633.658
364.4378, 2631.346
364.9199, 2628.754
365.4020, 2627.701
365.8841, 2630.398
366.3662, 2631.594
366.8484, 2628.974
367.3305, 2625.519
367.8126, 2624.472
368.2947, 2626.772
368.7768, 2630.396
369.2589, 2632.142
369.7411, 2631.186
370.2232, 2630.557
370.7053, 2630.953
371.1874, 2631.177
371.6695, 2630.467
372.1516, 2628.909
372.6338, 2627.128
373.1159, 2625.569
373.5980, 2624.234
374.0801, 2623.444
374.5622, 2624.056
375.0443, 2624.118
375.5265, 2622.647
376.0086, 2620.313
376.4907, 2618.049
376.9728, 2616.168
377.4549, 2614.905
377.9370, 2615.103
378.4192, 2617.591
378.9013, 2619.174
379.3834, 2617.794
379.8655, 2615.901
380.3476, 2615.571
380.8297, 2617.206
381.3119, 2619.222
381.7940, 2620.221
382.2761, 2620.218
382.7582, 2619.306
383.2403, 2616.426
383.7224, 2613.952
384.2046, 2613.794
384.6867, 2615.420
385.1688, 2616.856
385.6509, 2616.793
386.1330, 2615.839
386.6151, 2615.284
387.0973, 2615.093
387.5794, 2615.421
388.0615, 2617.659
388.5436, 2620.091
389.0257, 2619.711
389.5078, 2614.209
389.9900, 2608.944
390.4721, 2609.302
390.9542, 2614.614
391.4363, 2619.823
391.9184, 2623.683
392.4005, 2626.186
392.8827, 2627.172
393.3648, 2626.570
393.8469, 2625.942
394.3290, 2626.026
394.8111, 2626.439
395.2932, 2626.569
395.7754, 2626.331
396.2575, 2625.967
396.7396, 2625.669
397.2217, 2625.449
397.7038, 2625.261
398.1859, 2624.072
398.6681, 2623.828
399.1501, 2626.387
399.6323, 2631.122
400.1144, 2635.865
400.5965, 2639.680
401.0786, 2642.557
401.5607, 2644.171
402.0428, 2642.876
402.5250, 2643.337
403.0071, 2647.586
403.4892, 2653.431
403.9713, 2658.654
404.4534, 2662.652
404.9355, 2665.530
405.4177, 2667.211
405.8998, 2667.241
406.3819, 2668.349
406.8640, 2670.845
407.3461, 2673.965
407.8282, 2677.810
408.3104, 2681.998
408.7925, 2685.736
409.2746, 2688.534
409.7567, 2690.582
410.2388, 2692.801
410.7209, 2695.501
411.2031, 2697.965
411.6852, 2699.936
412.1673, 2701.754
412.6494, 2703.790
413.1315, 2706.121
413.6136, 2708.495
414.0958, 2710.733
414.5779, 2713.108
415.0600, 2714.281
415.5421, 2713.023
416.0242, 2711.680
416.5063, 2710.954
416.9885, 2710.883
417.4706, 2711.334
417.9527, 2712.256
418.4348, 2713.620
418.9169, 2715.529
419.3990, 2718.638
419.8812, 2720.794
420.3633, 2721.450
420.8454, 2720.857
421.3275, 2718.703
421.8096, 2714.853
422.2917, 2711.050
422.7739, 2709.233
423.2560, 2709.305
423.7381, 2709.384
424.2202, 2709.359
424.7023, 2709.005
425.1844, 2708.462
425.6666, 2707.560
426.1487, 2705.635
426.6308, 2701.508
427.1129, 2696.592
427.5950, 2692.945
428.0771, 2690.586
428.5593, 2689.089
429.0414, 2688.991
429.5235, 2689.246
430.0056, 2687.570
430.4877, 2683.155
430.9698, 2678.683
431.4520, 2676.379
431.9341, 2674.852
432.4162, 2670.724
432.8983, 2662.892
433.3804, 2654.545
433.8625, 2649.840
434.3447, 2649.504
434.8268, 2646.622
435.3089, 2638.739
435.7910, 2630.126
436.2731, 2623.678
436.7552, 2619.023
437.2374, 2614.160
437.7195, 2607.792
438.2016, 2600.613
438.6837, 2595.412
439.1658, 2594.754
439.6479, 2592.791
440.1301, 2588.021
440.6122, 2582.434
441.0943, 2577.914
441.5764, 2574.855
442.0585, 2572.495
442.5406, 2570.220
443.0227, 2568.300
443.5049, 2564.527
443.9870, 2556.282
444.4691, 2548.914
444.9512, 2544.319
445.4333, 2541.706
445.9154, 2539.645
446.3976, 2537.476
446.8797, 2535.263
447.3618, 2533.093
447.8439, 2530.843
448.3260, 2528.987
448.8081, 2527.868
449.2903, 2526.964
449.7724, 2526.234
450.2545, 2525.535
450.7366, 2524.209
451.2187, 2520.969
451.7008, 2516.522
452.1830, 2514.427
452.6651, 2515.888
453.1472, 2516.840
453.6293, 2513.340
454.1114, 2508.171
454.5935, 2505.516
455.0757, 2507.121
455.5578, 2509.713
456.0399, 2511.063
456.5220, 2511.205
457.0041, 2509.959
457.4862, 2506.636
457.9684, 2503.266
458.4505, 2503.176
458.9326, 2506.357
459.4147, 2508.206
459.8968, 2507.010
460.3789, 2504.813
460.8611, 2502.954
461.3432, 2501.653
461.8253, 2501.448
462.3074, 2503.003
462.7895, 2505.577
463.2716, 2506.036
463.7538, 2502.243
464.2359, 2499.296
464.7180, 2497.438
465.2001, 2496.845
465.6822, 2498.434
466.1643, 2502.005
466.6465, 2505.358
467.1286, 2505.882
467.6107, 2503.138
468.0928, 2501.729
468.5749, 2503.329
469.0570, 2504.457
469.5392, 2503.996
470.0213, 2502.506
470.5034, 2500.449
470.9855, 2497.943
471.4676, 2496.235
471.9497, 2498.042
472.4319, 2504.357
472.9140, 2509.878
473.3961, 2515.094
473.8782, 2518.114
474.3603, 2516.564
474.8424, 2511.472
475.3246, 2506.949
475.8067, 2506.054
476.2888, 2507.177
476.7709, 2506.365
477.2530, 2503.140
477.7351, 2501.080
478.2173, 2502.451
478.6994, 2505.733
479.1815, 2508.226
479.6636, 2509.352
480.1457, 2511.409
480.6278, 2517.116
481.1100, 2524.126
481.5920, 2527.362
482.0742, 2525.761
482.5563, 2524.231
483.0384, 2527.567
483.5205, 2535.677
484.0026, 2541.398
484.4847, 2543.046
484.9669, 2544.263
485.4490, 2546.262
485.9311, 2548.898
486.4132, 2551.874
486.8953, 2555.082
487.3774, 2558.440
487.8596, 2561.841
488.3417, 2565.567
488.8238, 2568.589
489.3059, 2570.319
489.7880, 2572.034
490.2701, 2573.272
490.7523, 2575.031
491.2344, 2579.688
491.7165, 2589.126
492.1986, 2601.075
492.6807, 2608.910
493.1628, 2610.811
493.6450, 2613.604
494.1271, 2619.095
494.6092, 2625.669
495.0913, 2632.493
495.5734, 2639.435
496.0555, 2646.570
496.5377, 2653.804
497.0198, 2661.227
497.5019, 2669.253
497.9840, 2678.126
498.4661, 2686.489
498.9482, 2693.283
499.4304, 2699.274
499.9125, 2705.785
500.3946, 2712.698
500.8767, 2720.641
501.3588, 2730.567
501.8409, 2741.617
502.3231, 2752.553
502.8052, 2763.106
503.2873, 2773.242
503.7694, 2783.052
504.2515, 2792.597
504.7336, 2800.478
505.2158, 2803.920
505.6979, 2808.974
506.1800, 2818.207
506.6621, 2830.316
507.1442, 2843.720
507.6263, 2857.740
508.1085, 2871.473
508.5906, 2883.503
509.0727, 2893.763
509.5548, 2902.552
510.0369, 2907.534
510.5190, 2913.335
511.0012, 2922.918
511.4833, 2934.472
511.9654, 2944.436
512.4475, 2950.955
512.9296, 2955.364
513.4117, 2960.094
513.8939, 2965.317
514.3760, 2969.731
514.8581, 2973.216
515.3402, 2975.586
515.8223, 2976.643
516.3044, 2976.498
516.7866, 2975.843
517.2687, 2975.656
517.7508, 2974.727
518.2329, 2971.498
518.7150, 2966.002
519.1971, 2958.858
519.6793, 2950.048
520.1614, 2940.113
520.6435, 2930.723
521.1256, 2923.021
521.6077, 2912.473
522.0898, 2896.633
522.5720, 2878.858
523.0541, 2862.025
523.5362, 2846.329
524.0183, 2830.300
524.5004, 2812.806
524.9825, 2794.436
525.4647, 2777.902
525.9468, 2765.640
526.4289, 2751.934
526.9110, 2734.861
527.3931, 2717.163
527.8752, 2701.325
528.3574, 2687.475
528.8395, 2673.853
529.3216, 2658.742
529.8037, 2642.518
530.2858, 2627.460
530.7679, 2614.380
531.2501, 2600.672
531.7322, 2583.346
532.2143, 2565.742
532.6964, 2551.368
533.1785, 2541.021
533.6606, 2532.087
534.1428, 2523.864
534.6249, 2515.603
535.1070, 2504.687
535.5891, 2490.478
536.0712, 2477.792
536.5533, 2471.036
537.0355, 2469.055
537.5176, 2464.418
537.9997, 2455.726
538.4818, 2446.346
538.9639, 2435.977
539.4460, 2425.977
539.9282, 2418.173
540.4103, 2412.867
540.8924, 2408.925
541.3745, 2405.455
541.8566, 2402.517
542.3387, 2397.938
542.8209, 2388.531
543.3029, 2381.358
543.7850, 2379.729
544.2672, 2380.155
544.7493, 2378.498
545.2314, 2373.716
545.7135, 2368.316
546.1956, 2365.352
546.6777, 2364.551
547.1599, 2362.798
547.6420, 2359.849
548.1241, 2356.142
548.6062, 2350.636
549.0883, 2344.840
549.5704, 2341.424
550.0526, 2341.553
550.5347, 2342.599
551.0168, 2343.820
551.4989, 2344.612
551.9810, 2343.234
552.4631, 2339.269
552.9453, 2335.128
553.4274, 2333.202
553.9095, 2333.496
554.3916, 2332.726
554.8737, 2330.194
555.3558, 2327.593
555.8380, 2324.968
556.3201, 2322.700
556.8022, 2321.546
557.2843, 2321.552
557.7664, 2321.640
558.2485, 2320.347
558.7307, 2317.586
559.2128, 2316.101
559.6949, 2316.766
560.1770, 2317.517
560.6591, 2318.122
561.1412, 2318.217
561.6234, 2317.121
562.1055, 2314.568
562.5876, 2311.949
563.0697, 2311.028
563.5518, 2311.059
564.0339, 2309.115
564.5161, 2304.414
564.9982, 2299.972
565.4803, 2297.813
565.9624, 2297.775
566.4445, 2298.567
566.9266, 2301.274
567.4088, 2303.259
567.8909, 2303.426
568.3730, 2302.465
568.8551, 2300.867
569.3372, 2298.909
569.8193, 2297.341
570.3015, 2296.964
570.7836, 2297.695
571.2657, 2298.068
571.7478, 2298.551
572.2299, 2297.954
572.7120, 2294.441
573.1942, 2290.834
573.6763, 2290.283
574.1584, 2292.972
574.6405, 2295.819
575.1226, 2295.672
575.6047, 2293.388
576.0869, 2292.880
576.5690, 2294.729
577.0511, 2295.838
577.5332, 2293.983
578.0153, 2290.957
578.4974, 2289.817
578.9796, 2291.075
579.4617, 2292.125
579.9438, 2292.072
580.4259, 2291.257
580.9080, 2289.902
581.3901, 2288.120
581.8723, 2286.175
582.3544, 2284.170
582.8365, 2282.259
583.3186, 2280.907
583.8007, 2279.644
584.2828, 2279.797
584.7650, 2283.485
585.2471, 2286.772
585.7292, 2286.720
586.2113, 2283.866
586.6934, 2280.565
587.1755, 2278.165
587.6577, 2276.480
588.1398, 2275.456
588.6219, 2275.347
589.1040, 2273.881
589.5861, 2268.699
590.0682, 2263.999
590.5504, 2264.422
591.0325, 2269.141
591.5146, 2272.842
591.9967, 2273.308
592.4788, 2272.618
592.9609, 2272.710
593.4431, 2273.111
593.9252, 2272.062
594.4073, 2268.827
594.8894, 2264.939
595.3715, 2262.401
595.8536, 2261.167
596.3358, 2261.627
596.8179, 2266.836
597.3000, 2270.114
597.7821, 2267.378
598.2642, 2261.872
598.7463, 2258.227
599.2285, 2258.018
599.7106, 2259.523
600.1927, 2261.090
600.6748, 2262.687
601.1569, 2263.385
601.6390, 2262.985
602.1212, 2262.009
602.6033, 2260.843
603.0854, 2259.234
603.5675, 2256.352
604.0496, 2251.110
604.5317, 2247.514
605.0139, 2249.677
605.4960, 2253.796
605.9781, 2253.555
606.4602, 2248.644
606.9423, 2244.089
607.4244, 2243.696
607.9066, 2246.376
608.3887, 2247.150
608.8708, 2244.138
609.3529, 2241.868
609.8350, 2240.734
610.3171, 2240.205
610.7993, 2240.264
611.2814, 2240.624
611.7635, 2240.608
612.2456, 2239.755
612.7277, 2238.316
613.2098, 2236.685
613.6920, 2234.805
614.1741, 2233.175
614.6562, 2231.722
615.1383, 2230.793
615.6204, 2231.270
616.1025, 2232.813
616.5847, 2233.228
617.0668, 2231.451
617.5489, 2229.028
618.0310, 2226.812
618.5131, 2224.687
618.9952, 2222.328
619.4774, 2219.647
619.9595, 2216.839
620.4416, 2213.923
620.9237, 2210.745
621.4058, 2209.785
621.8879, 2214.687
622.3701, 2217.320
622.8522, 2214.474
623.3343, 2209.473
623.8164, 2205.594
624.2985, 2203.519
624.7806, 2202.056
625.2628, 2200.092
625.7448, 2198.041
626.2269, 2197.391
626.7090, 2198.333
627.1912, 2198.614
627.6733, 2196.958
628.1554, 2194.281
628.6375, 2192.363
629.1196, 2191.449
629.6017, 2190.014
630.0839, 2186.871
630.5660, 2183.977
631.0481, 2182.652
631.5302, 2182.676
632.0123, 2183.404
632.4944, 2184.539
632.9766, 2185.871
633.4587, 2187.359
633.9408, 2189.419
634.4229, 2189.392
634.9050, 2185.809
635.3871, 2181.968
635.8693, 2179.005
636.3514, 2176.835
636.8335, 2175.604
637.3156, 2175.681
637.7977, 2175.192
638.2798, 2171.559
638.7620, 2166.837
639.2441, 2165.356
639.7262, 2167.512
640.2083, 2170.026
640.6904, 2170.881
641.1725, 2170.394
641.6547, 2169.615
642.1368, 2168.906
642.6189, 2167.289
643.1010, 2162.871
643.5831, 2159.220
644.0652, 2159.958
644.5474, 2163.319
645.0295, 2164.356
645.5116, 2160.174
645.9937, 2153.938
646.4758, 2150.691
646.9579, 2150.412
647.4401, 2150.812
647.9222, 2151.923
648.4043, 2152.913
648.8864, 2153.137
649.3685, 2152.735
649.8506, 2152.135
650.3328, 2151.640
650.8149, 2150.558
651.2970, 2147.427
651.7791, 2144.230
652.2612, 2144.332
652.7433, 2147.391
653.2255, 2149.204
653.7076, 2146.422
654.1897, 2140.489
654.6718, 2136.763
655.1539, 2135.827
655.6360, 2135.681
656.1182, 2136.655
656.6003, 2137.835
657.0824, 2138.804
657.5645, 2139.554
658.0466, 2140.212
658.5287, 2140.999
659.0109, 2141.407
659.4930, 2141.153
659.9751, 2140.124
660.4572, 2137.419
660.9393, 2132.772
661.4214, 2128.933
661.9036, 2128.650
662.3857, 2131.469
662.8678, 2132.387
663.3499, 2128.962
663.8320, 2126.905
664.3141, 2128.270
664.7963, 2130.007
665.2784, 2129.385
665.7605, 2126.739
666.2426, 2124.413
666.7247, 2123.986
667.2068, 2124.482
667.6890, 2123.742
668.1711, 2121.844
668.6532, 2121.877
669.1353, 2125.579
669.6174, 2128.764
670.0995, 2126.423
670.5817, 2119.336
671.0638, 2115.841
671.5459, 2119.512
672.0280, 2122.515
672.5101, 2121.584
672.9922, 2119.193
673.4744, 2118.358
673.9565, 2119.146
674.4386, 2119.122
674.9207, 2116.073
675.4028, 2111.425
675.8849, 2110.323
676.3671, 2113.893
676.8492, 2115.908
677.3313, 2113.741
677.8134, 2111.286
678.2955, 2112.428
678.7776, 2115.985
679.2598, 2117.624
679.7419, 2114.970
680.2240, 2111.958
680.7061, 2110.634
681.1882, 2110.556
681.6703, 2111.354
682.1525, 2112.803
682.6346, 2114.112
683.1167, 2114.627
683.5988, 2114.477
684.0809, 2114.297
684.5630, 2114.217
685.0452, 2113.829
685.5273, 2112.192
686.0094, 2111.018
686.4915, 2112.228
686.9736, 2114.775
687.4557, 2115.314
687.9379, 2111.258
688.4200, 2107.148
688.9021, 2107.585
689.3842, 2110.946
689.8663, 2113.816
690.3484, 2115.547
690.8306, 2116.032
691.3127, 2115.106
691.7948, 2112.950
692.2769, 2110.365
692.7590, 2105.904
693.2411, 2103.434
693.7233, 2104.682
694.2054, 2106.462
694.6875, 2107.162
695.1696, 2106.792
695.6517, 2105.722
696.1339, 2103.926
696.6160, 2102.132
697.0981, 2101.253
697.5802, 2101.058
698.0623, 2100.491
698.5444, 2099.322
699.0266, 2098.994
699.5087, 2101.033
699.9908, 2104.362
700.4729, 2104.854
700.9550, 2099.504
701.4371, 2095.837
701.9193, 2094.751
702.4014, 2094.603
702.8835, 2094.681
703.3656, 2094.856
703.8477, 2095.178
704.3298, 2095.697
704.8120, 2096.125
705.2941, 2096.281
705.7762, 2096.086
706.2583, 2094.960
706.7404, 2092.756
707.2225, 2090.261
707.7046, 2087.531
708.1867, 2085.106
708.6688, 2084.607
709.1509, 2087.359
709.6331, 2088.528
710.1152, 2085.726
710.5973, 2083.249
711.0794, 2084.226
711.5615, 2087.172
712.0436, 2089.382
712.5258, 2089.856
713.0079, 2089.071
713.4900, 2086.874
713.9721, 2083.728
714.4542, 2082.396
714.9363, 2083.223
715.4185, 2084.271
715.9006, 2084.926
716.3827, 2085.060
716.8648, 2084.178
717.3469, 2081.991
717.8290, 2080.675
718.3112, 2081.684
718.7933, 2082.255
719.2754, 2080.407
719.7575, 2077.511
720.2396, 2075.723
720.7217, 2075.519
721.2039, 2075.524
721.6860, 2074.356
722.1681, 2072.318
722.6502, 2070.404
723.1323, 2068.488
723.6144, 2067.803
724.0966, 2069.341
724.5787, 2071.390
725.0608, 2071.852
725.5429, 2070.771
726.0250, 2070.008
726.5071, 2069.629
726.9893, 2069.645
727.4714, 2070.349
727.9535, 2071.295
728.4356, 2071.750
728.9177, 2071.816
729.3998, 2072.583
729.8820, 2075.170
730.3641, 2078.369
730.8462, 2079.116
731.3283, 2077.305
731.8104, 2075.558
732.2925, 2073.801
732.7747, 2073.553
733.2568, 2076.896
733.7389, 2082.958
734.2210, 2087.051
734.7031, 2088.092
735.1852, 2088.789
735.6674, 2089.056
736.1495, 2089.678
736.6316, 2091.782
737.1137, 2094.811
737.5958, 2097.176
738.0779, 2098.092
738.5601, 2098.182
739.0422, 2098.425
739.5243, 2098.749
740.0064, 2098.283
740.4885, 2096.819
740.9706, 2095.171
741.4528, 2093.383
741.9349, 2092.011
742.4170, 2092.583
742.8991, 2095.885
743.3812, 2098.283
743.8633, 2099.546
744.3455, 2099.806
744.8276, 2098.905
745.3097, 2097.151
745.7918, 2094.433
746.2739, 2090.955
746.7560, 2088.505
747.2382, 2090.199
747.7203, 2094.052
748.2024, 2092.970
748.6845, 2086.792
749.1666, 2082.588
749.6487, 2083.156
750.1309, 2085.494
750.6130, 2086.208
751.0951, 2085.183
751.5772, 2084.256
752.0593, 2082.516
752.5414, 2081.990
753.0236, 2084.235
753.5057, 2087.036
753.9878, 2088.347
754.4699, 2088.183
754.9520, 2087.858
755.4341, 2088.266
755.9163, 2088.500
756.3984, 2086.716
756.8805, 2083.542
757.3626, 2082.314
757.8447, 2083.749
758.3268, 2084.205
758.8090, 2080.698
759.2911, 2074.702
759.7732, 2071.116
760.2553, 2071.127
760.7374, 2071.533
761.2195, 2073.996
761.7017, 2075.158
762.1838, 2071.597
762.6659, 2066.383
763.1480, 2064.985
763.6301, 2069.077
764.1122, 2072.966
764.5944, 2071.667
765.0765, 2067.898
765.5586, 2065.632
766.0407, 2064.914
766.5228, 2065.218
767.0049, 2066.414
767.4871, 2067.418
767.9692, 2066.716
768.4513, 2064.199
768.9334, 2061.985
769.4155, 2060.133
769.8976, 2058.417
770.3798, 2056.300
770.8619, 2054.643
771.3440, 2054.417
771.8261, 2055.385
772.3082, 2056.269
772.7903, 2057.327
773.2725, 2057.234
773.7546, 2053.872
774.2367, 2049.288
774.7188, 2046.529
775.2009, 2046.002
775.6830, 2047.139
776.1652, 2049.841
776.6473, 2052.691
777.1294, 2051.823
777.6115, 2046.459
778.0936, 2042.606
778.5757, 2040.787
779.0579, 2040.274
779.5400, 2041.816
780.0221, 2043.946
780.5042, 2043.996
780.9863, 2041.386
781.4684, 2039.232
781.9506, 2038.113
782.4327, 2037.845
782.9148, 2039.174
783.3969, 2040.950
783.8790, 2041.353
784.3611, 2039.931
784.8433, 2037.464
785.3254, 2034.140
785.8075, 2030.641
786.2896, 2028.865
786.7717, 2028.812
787.2538, 2031.272
787.7360, 2037.390
788.2181, 2043.154
788.7002, 2044.406
789.1823, 2041.818
789.6644, 2041.048
790.1465, 2044.511
790.6286, 2046.235
791.1107, 2043.945
791.5928, 2041.495
792.0750, 2041.386
792.5571, 2043.081
793.0392, 2045.288
793.5213, 2047.684
794.0034, 2049.271
794.4855, 2048.031
794.9677, 2045.852
795.4498, 2046.755
795.9319, 2050.485
796.4140, 2053.916
796.8961, 2055.800
797.3782, 2056.399
797.8604, 2055.777
798.3425, 2053.797
798.8246, 2053.774
799.3067, 2057.103
799.7888, 2059.832
800.2709, 2060.756
800.7531, 2060.884
801.2352, 2060.456
801.7173, 2059.747
802.1994, 2059.861
802.6815, 2060.940
803.1636, 2063.109
803.6458, 2067.188
804.1279, 2071.923
804.6100, 2075.940
805.0921, 2079.151
805.5742, 2082.090
806.0563, 2085.037
806.5385, 2087.690
807.0206, 2088.997
807.5027, 2089.190
807.9848, 2091.817
808.4669, 2097.624
808.9490, 2102.808
809.4312, 2105.499
809.9133, 2106.948
810.3954, 2109.109
810.8775, 2112.265
811.3596, 2114.141
811.8417, 2113.001
812.3239, 2112.807
812.8060, 2114.690
813.2881, 2117.962
813.7702, 2122.328
814.2523, 2127.466
814.7344, 2132.562
815.2166, 2137.003
815.6987, 2141.661
816.1808, 2148.292
816.6629, 2155.544
817.1450, 2159.834
817.6271, 2161.097
818.1093, 2162.656
818.5914, 2166.417
819.0735, 2171.459
819.5556, 2175.929
820.0377, 2179.559
820.5198, 2184.342
821.0020, 2191.062
821.4841, 2197.487
821.9662, 2202.946
822.4483, 2207.540
822.9304, 2211.057
823.4125, 2213.564
823.8947, 2216.486
824.3768, 2220.151
824.8589, 2224.243
825.3410, 2228.380
825.8231, 2233.088
826.3052, 2239.982
826.7874, 2248.185
827.2695, 2254.147
827.7516, 2255.606
828.2337, 2255.456
828.7158, 2257.244
829.1979, 2260.914
829.6801, 2266.836
830.1622, 2275.017
830.6443, 2282.665
831.1264, 2288.372
831.6085, 2292.717
832.0906, 2296.452
832.5728, 2299.230
833.0549, 2303.691
833.5370, 2311.257
834.0191, 2318.388
834.5012, 2323.986
834.9833, 2329.052
835.4655, 2334.514
835.9476, 2340.264
836.4297, 2345.567
836.9118, 2349.660
837.3939, 2354.148
837.8760, 2360.108
838.3582, 2366.844
838.8403, 2373.806
839.3224, 2380.798
839.8045, 2387.509
840.2866, 2393.781
840.7687, 2400.010
841.2509, 2406.559
841.7330, 2413.461
842.2151, 2420.582
842.6972, 2427.793
843.1793, 2436.957
843.6614, 2449.276
844.1436, 2462.007
844.6257, 2471.691
845.1078, 2478.424
845.5899, 2486.261
846.0720, 2495.390
846.5541, 2505.291
847.0363, 2516.967
847.5184, 2528.379
848.0005, 2537.194
848.4826, 2544.985
848.9647, 2555.702
849.4468, 2571.024
849.9290, 2586.229
850.4111, 2597.979
850.8932, 2609.094
851.3753, 2623.001
851.8574, 2638.679
852.3395, 2653.172
852.8217, 2665.634
853.3038, 2678.117
853.7859, 2692.545
854.2680, 2708.399
854.7501, 2723.999
855.2322, 2739.382
855.7144, 2753.983
856.1965, 2767.268
856.6786, 2781.428
857.1607, 2798.303
857.6428, 2817.004
858.1249, 2834.913
858.6071, 2852.251
859.0892, 2868.135
859.5713, 2880.598
860.0534, 2893.893
860.5355, 2910.871
861.0176, 2928.765
861.4998, 2944.337
861.9819, 2957.252
862.4640, 2968.973
862.9461, 2979.061
863.4282, 2989.420
863.9103, 3001.253
864.3925, 3014.205
864.8746, 3028.614
865.3567, 3043.791
865.8388, 3057.160
866.3209, 3067.311
866.8030, 3074.465
867.2852, 3077.926
867.7673, 3078.418
868.2494, 3080.036
868.7315, 3083.068
869.2136, 3085.074
869.6957, 3084.749
870.1779, 3084.060
870.6600, 3085.871
871.1421, 3090.217
871.6242, 3092.616
872.1063, 3091.339
872.5884, 3091.143
873.0705, 3095.110
873.5526, 3098.191
874.0347, 3097.080
874.5168, 3092.760
874.9990, 3087.624
875.4811, 3081.763
875.9632, 3076.040
876.4453, 3071.288
876.9274, 3066.308
877.4095, 3060.213
877.8917, 3053.266
878.3738, 3046.004
878.8559, 3038.556
879.3380, 3030.663
879.8201, 3022.373
880.3022, 3013.221
880.7844, 3002.230
881.2665, 2989.664
881.7486, 2976.339
882.2307, 2962.449
882.7128, 2948.865
883.1949, 2936.299
883.6771, 2923.901
884.1592, 2909.745
884.6413, 2893.393
885.1234, 2878.708
885.6055, 2867.418
886.0876, 2853.297
886.5698, 2832.688
887.0519, 2809.778
887.5340, 2788.551
888.0161, 2769.020
888.4982, 2750.466
888.9803, 2733.927
889.4625, 2716.897
889.9446, 2697.958
890.4267, 2679.247
890.9088, 2662.646
891.3909, 2647.333
891.8730, 2631.663
892.3552, 2615.073
892.8373, 2598.416
893.3194, 2582.379
893.8015, 2566.396
894.2836, 2549.881
894.7657, 2533.009
895.2479, 2516.334
895.7300, 2500.026
896.2121, 2483.623
896.6942, 2466.653
897.1763, 2450.191
897.6584, 2436.989
898.1406, 2426.707
898.6227, 2415.653
899.1048, 2403.524
899.5869, 2390.456
900.0690, 2376.429
900.5511, 2361.428
901.0333, 2345.043
901.5154, 2327.105
901.9975, 2311.650
902.4796, 2299.406
902.9617, 2288.220
903.4438, 2279.117
903.9260, 2269.556
904.4081, 2257.365
904.8902, 2243.490
905.3723, 2230.465
905.8544, 2218.614
906.3365, 2207.599
906.8187, 2196.565
907.3008, 2187.217
907.7829, 2182.530
908.2650, 2179.243
908.7471, 2172.557
909.2292, 2162.082
909.7114, 2151.334
910.1935, 2142.249
910.6756, 2134.036
911.1577, 2126.157
911.6398, 2118.407
912.1219, 2110.373
912.6041, 2102.128
913.0862, 2094.236
913.5683, 2086.979
914.0504, 2079.462
914.5325, 2069.609
915.0146, 2058.372
915.4968, 2051.630
915.9789, 2049.580
916.4610, 2046.175
916.9431, 2039.616
917.4252, 2032.610
917.9073, 2027.502
918.3895, 2023.557
918.8716, 2017.912
919.3537, 2009.142
919.8358, 2002.197
920.3179, 1998.336
920.8000, 1994.457
921.2822, 1988.756
921.7643, 1982.767
922.2464, 1978.589
922.7285, 1976.109
923.2106, 1972.436
923.6927, 1964.946
924.1749, 1959.212
924.6570, 1959.376
925.1391, 1959.588
925.6212, 1953.984
926.1033, 1945.141
926.5854, 1939.415
927.0676, 1938.758
927.5497, 1938.009
928.0318, 1932.716
928.5139, 1926.683
928.9960, 1924.569
929.4781, 1924.311
929.9603, 1921.234
930.4424, 1915.120
930.9245, 1909.806
931.4066, 1907.803
931.8887, 1907.444
932.3708, 1906.968
932.8530, 1905.915
933.3351, 1901.498
933.8172, 1893.849
934.2993, 1887.649
934.7814, 1884.690
935.2635, 1883.547
935.7457, 1882.979
936.2278, 1882.685
936.7099, 1880.663
937.1920, 1876.237
937.6741, 1873.053
938.1563, 1871.928
938.6384, 1871.206
939.1205, 1870.392
939.6026, 1869.070
940.0847, 1866.312
940.5668, 1861.789
941.0490, 1857.843
941.5311, 1854.188
942.0132, 1851.485
942.4953, 1851.166
942.9774, 1850.681
943.4595, 1847.429
943.9417, 1842.610
944.4238, 1839.646
944.9059, 1839.737
945.3880, 1839.624
945.8701, 1838.375
946.3522, 1836.313
946.8344, 1833.097
947.3165, 1829.527
947.7986, 1826.180
948.2807, 1823.482
948.7628, 1822.646
949.2449, 1825.205
949.7271, 1827.555
950.2092, 1825.399
950.6913, 1821.301
951.1734, 1819.041
951.6555, 1818.559
952.1376, 1818.699
952.6198, 1818.980
953.1019, 1818.912
953.5840, 1817.871
954.0661, 1816.345
954.5482, 1815.913
955.0303, 1816.235
955.5124, 1814.634
955.9945, 1810.731
956.4766, 1807.444
956.9587, 1806.360
957.4409, 1806.509
957.9230, 1806.377
958.4051, 1805.971
958.8872, 1806.000
959.3693, 1806.677
959.8514, 1806.915
960.3336, 1806.600
960.8157, 1805.475
961.2978, 1803.006
961.7799, 1799.792
962.2620, 1797.518
962.7441, 1796.389
963.2263, 1795.591
963.7084, 1795.668
964.1905, 1795.348
964.6726, 1793.697
965.1547, 1792.018
965.6368, 1791.969
966.1190, 1792.982
966.6011, 1792.255
967.0832, 1787.827
967.5653, 1784.935
968.0474, 1786.679
968.5295, 1788.098
969.0117, 1785.207
969.4938, 1780.919
969.9759, 1779.478
970.4580, 1781.113
970.9401, 1782.656
971.4222, 1782.731
971.9044, 1782.351
972.3865, 1782.392
972.8686, 1782.124
973.3507, 1780.298
973.8328, 1777.612
974.3149, 1775.596
974.7971, 1774.742
975.2792, 1774.845
975.7613, 1776.870
976.2434, 1778.522
976.7255, 1775.737
977.2076, 1770.550
977.6898, 1766.916
978.1719, 1765.377
978.6540, 1765.987
979.1361, 1768.750
979.6182, 1771.114
980.1003, 1768.785
980.5825, 1763.900
981.0646, 1764.883
981.5467, 1770.750
982.0288, 1773.018
982.5109, 1770.020
982.9930, 1766.384
983.4752, 1765.061
983.9573, 1765.202
984.4394, 1765.460
984.9215, 1765.847
985.4036, 1764.784
985.8857, 1761.813
986.3679, 1760.173
986.8500, 1760.836
987.3321, 1762.774
987.8142, 1765.805
988.2963, 1768.857
988.7784, 1768.150
989.2606, 1761.760
989.7427, 1758.607
990.2248, 1760.709
990.7069, 1762.119
991.1890, 1760.604
991.6711, 1758.058
992.1533, 1755.756
992.6354, 1753.895
993.1175, 1753.729
993.5996, 1756.436
994.0817, 1758.715
994.5638, 1760.774
995.0460, 1762.121
995.5281, 1762.511
996.0102, 1762.135
996.4923, 1760.904
996.9744, 1758.984
997.4565, 1757.432
997.9387, 1756.474
998.4208, 1755.856
998.9029, 1755.869
999.3850, 1755.829
999.8671, 1755.474
1000.349, 1754.705
1000.831, 1753.063
1001.313, 1750.701
1001.796, 1749.243
1002.278, 1750.177
1002.760, 1750.922
1003.242, 1749.398
1003.724, 1747.634
1004.206, 1748.356
1004.688, 1750.047
1005.170, 1748.709
1005.653, 1743.840
1006.135, 1740.634
1006.617, 1743.914
1007.099, 1748.121
1007.581, 1747.783
1008.063, 1745.252
1008.545, 1743.409
1009.027, 1742.519
1009.509, 1742.192
1009.992, 1742.268
1010.474, 1742.637
1010.956, 1743.605
1011.438, 1744.365
1011.920, 1742.881
1012.402, 1740.473
1012.884, 1741.009
1013.366, 1744.050
1013.849, 1745.109
1014.331, 1742.281
1014.813, 1738.799
1015.295, 1738.526
1015.777, 1740.101
1016.259, 1740.132
1016.741, 1738.897
1017.223, 1737.390
1017.705, 1735.877
1018.188, 1735.611
1018.670, 1737.324
1019.152, 1738.917
1019.634, 1736.928
1020.116, 1732.479
1020.598, 1731.352
1021.080, 1733.419
1021.562, 1735.615
1022.044, 1737.497
1022.527, 1737.394
1023.009, 1733.973
1023.491, 1729.896
1023.973, 1729.859
1024.455, 1733.492
1024.937, 1734.257
1025.419, 1731.725
1025.901, 1730.086
1026.384, 1730.309
1026.866, 1730.553
1027.348, 1729.557
1027.830, 1728.149
1028.312, 1727.937
1028.794, 1728.996
1029.276, 1729.639
1029.758, 1730.133
1030.240, 1729.062
1030.723, 1725.232
1031.205, 1722.062
1031.687, 1722.233
1032.169, 1724.003
1032.651, 1723.611
1033.133, 1720.549
1033.615, 1719.673
1034.097, 1722.338
1034.579, 1724.160
1035.062, 1723.858
1035.544, 1723.204
1036.026, 1723.425
1036.508, 1724.021
1036.990, 1723.756
1037.472, 1722.201
1037.954, 1722.204
1038.436, 1725.693
1038.919, 1727.620
1039.401, 1726.311
1039.883, 1724.092
1040.365, 1721.591
1040.847, 1719.500
1041.329, 1719.855
1041.811, 1723.692
1042.293, 1724.552
1042.776, 1719.102
1043.258, 1715.221
1043.740, 1715.990
1044.222, 1717.149
1044.704, 1715.499
1045.186, 1712.445
1045.668, 1710.923
1046.150, 1711.374
1046.632, 1711.541
1047.115, 1711.197
1047.597, 1710.519
1048.079, 1709.348
1048.561, 1708.040
1049.043, 1706.762
1049.525, 1705.540
1050.007, 1704.445
1050.489, 1703.522
1050.971, 1702.308
1051.454, 1699.314
1051.936, 1697.927
1052.418, 1700.828
1052.900, 1704.064
1053.382, 1704.665
1053.864, 1703.571
1054.346, 1702.814
1054.828, 1702.699
1055.311, 1702.098
1055.793, 1699.424
1056.275, 1697.971
1056.757, 1699.789
1057.239, 1702.346
1057.721, 1704.384
1058.203, 1705.530
1058.685, 1705.003
1059.167, 1702.762
1059.650, 1701.392
1060.132, 1703.163
1060.614, 1704.019
1061.096, 1701.364
1061.578, 1698.241
1062.060, 1697.167
1062.542, 1697.145
1063.024, 1696.042
1063.506, 1693.649
1063.989, 1692.099
1064.471, 1691.900
1064.953, 1693.037
1065.435, 1697.085
1065.917, 1700.896
1066.399, 1701.804
1066.881, 1700.976
1067.363, 1700.300
1067.846, 1700.084
1068.328, 1699.849
1068.810, 1699.848
1069.292, 1699.056
1069.774, 1695.520
1070.256, 1692.559
1070.738, 1693.755
1071.220, 1696.512
1071.703, 1697.025
1072.185, 1694.982
1072.667, 1692.385
1073.149, 1689.401
1073.631, 1687.266
1074.113, 1686.951
1074.595, 1687.275
1075.077, 1688.139
1075.559, 1688.635
1076.042, 1687.281
1076.524, 1684.380
1077.006, 1681.852
1077.488, 1680.061
1077.970, 1679.615
1078.452, 1681.403
1078.934, 1683.977
1079.416, 1687.275
1079.898, 1690.178
1080.380, 1691.341
1080.863, 1690.943
1081.345, 1690.085
1081.827, 1689.105
1082.309, 1687.673
1082.791, 1684.334
1083.273, 1681.989
1083.755, 1683.392
1084.237, 1685.941
1084.720, 1687.168
1085.202, 1686.971
1085.684, 1685.836
1086.166, 1683.770
1086.648, 1681.879
1087.130, 1680.594
1087.612, 1679.626
1088.094, 1679.200
1088.577, 1678.672
1089.059, 1677.469
1089.541, 1675.687
1090.023, 1673.222
1090.505, 1670.039
1090.987, 1668.523
1091.469, 1670.989
1091.951, 1673.428
1092.433, 1674.811
1092.916, 1674.875
1093.398, 1672.521
1093.880, 1669.128
1094.362, 1666.805
1094.844, 1665.864
1095.326, 1665.555
1095.808, 1666.528
1096.290, 1666.806
1096.772, 1665.295
1097.255, 1663.366
1097.737, 1661.156
1098.219, 1659.490
1098.701, 1659.922
1099.183, 1662.103
1099.665, 1663.037
1100.147, 1661.062
1100.629, 1659.815
1101.112, 1660.936
1101.594, 1662.142
1102.076, 1661.746
1102.558, 1661.294
1103.040, 1663.334
1103.522, 1666.852
1104.004, 1667.510
1104.486, 1663.412
1104.969, 1660.517
1105.451, 1659.857
1105.933, 1660.586
1106.415, 1663.584
1106.897, 1666.775
1107.379, 1668.798
1107.861, 1669.669
1108.343, 1669.490
1108.825, 1668.096
1109.307, 1666.674
1109.790, 1664.808
1110.272, 1663.662
1110.754, 1665.066
1111.236, 1665.579
1111.718, 1661.690
1112.200, 1656.269
1112.682, 1654.633
1113.164, 1657.133
1113.647, 1657.219
1114.129, 1652.551
1114.611, 1649.385
1115.093, 1648.663
1115.575, 1648.824
1116.057, 1649.648
1116.539, 1650.656
1117.021, 1651.481
1117.504, 1652.038
1117.986, 1651.657
1118.468, 1649.824
1118.950, 1648.199
1119.432, 1646.341
1119.914, 1645.652
1120.396, 1647.003
1120.878, 1649.027
1121.360, 1651.056
1121.843, 1652.503
1122.325, 1651.316
1122.807, 1646.715
1123.289, 1644.470
1123.771, 1645.469
1124.253, 1645.630
1124.735, 1643.606
1125.217, 1642.091
1125.699, 1642.841
1126.182, 1645.068
1126.664, 1647.654
1127.146, 1650.511
1127.628, 1651.998
1128.110, 1652.037
1128.592, 1651.268
1129.074, 1649.715
1129.556, 1647.567
1130.039, 1644.727
1130.521, 1642.481
1131.003, 1642.499
1131.485, 1643.985
1131.967, 1643.818
1132.449, 1642.172
1132.931, 1642.432
1133.413, 1644.744
1133.896, 1647.070
1134.378, 1648.784
1134.860, 1649.185
1135.342, 1647.574
1135.824, 1645.141
1136.306, 1643.888
1136.788, 1643.680
1137.270, 1644.179
1137.752, 1645.250
1138.234, 1646.204
1138.717, 1646.988
1139.199, 1648.525
1139.681, 1651.307
1140.163, 1653.231
1140.645, 1651.233
1141.127, 1647.493
1141.609, 1646.067
1142.091, 1645.985
1142.574, 1645.346
1143.056, 1643.958
1143.538, 1641.341
1144.020, 1637.782
1144.502, 1636.723
1144.984, 1641.695
1145.466, 1647.503
1145.948, 1648.736
1146.431, 1647.635
1146.913, 1646.348
1147.395, 1645.213
1147.877, 1644.431
1148.359, 1644.017
1148.841, 1643.813
1149.323, 1643.702
1149.805, 1644.104
1150.287, 1646.411
1150.770, 1648.042
1151.252, 1646.399
1151.734, 1643.692
1152.216, 1642.262
1152.698, 1641.841
1153.180, 1641.040
1153.662, 1639.581
1154.144, 1639.077
1154.626, 1640.893
1155.109, 1642.590
1155.591, 1644.058
1156.073, 1644.416
1156.555, 1642.110
1157.037, 1639.036
1157.519, 1637.422
1158.001, 1637.348
1158.483, 1638.336
1158.966, 1642.250
1159.448, 1643.122
1159.930, 1637.070
1160.412, 1632.756
1160.894, 1632.748
1161.376, 1634.961
1161.858, 1639.289
1162.340, 1643.953
1162.822, 1644.788
1163.305, 1641.343
1163.787, 1638.912
1164.269, 1637.762
1164.751, 1636.823
1165.233, 1635.818
1165.715, 1635.470
1166.197, 1636.233
1166.679, 1637.520
1167.161, 1638.688
1167.644, 1639.744
1168.126, 1640.812
1168.608, 1641.908
1169.090, 1642.504
1169.572, 1642.584
1170.054, 1641.385
1170.536, 1638.646
1171.018, 1636.942
1171.500, 1638.118
1171.983, 1640.834
1172.465, 1643.930
1172.947, 1646.439
1173.429, 1643.837
1173.911, 1637.806
1174.393, 1634.709
1174.875, 1634.991
1175.357, 1636.321
1175.840, 1637.713
1176.322, 1638.564
1176.804, 1637.854
1177.286, 1637.581
1177.768, 1641.783
1178.250, 1646.865
1178.732, 1647.372
1179.214, 1644.687
1179.697, 1641.631
1180.179, 1638.971
1180.661, 1637.050
1181.143, 1636.074
1181.625, 1635.275
1182.107, 1633.861
1182.589, 1632.867
1183.071, 1633.075
1183.553, 1633.933
1184.036, 1635.755
1184.518, 1637.445
1185.000, 1636.588
1185.482, 1633.066
1185.964, 1630.974
1186.446, 1632.423
1186.928, 1633.451
1187.410, 1633.488
1187.892, 1632.893
1188.375, 1630.920
1188.857, 1629.205
1189.339, 1629.759
1189.821, 1631.612
1190.303, 1631.768
1190.785, 1629.697
1191.267, 1629.233
1191.749, 1631.249
1192.232, 1632.362
1192.714, 1631.801
1193.196, 1630.814
1193.678, 1629.685
1194.160, 1629.499
1194.642, 1631.976
1195.124, 1636.027
1195.606, 1637.016
1196.089, 1635.084
1196.571, 1634.401
1197.053, 1635.062
1197.535, 1634.662
1198.017, 1632.689
1198.499, 1631.410
1198.981, 1632.301
1199.463, 1633.572
1199.945, 1632.602
1200.427, 1630.540
1200.910, 1629.750
1201.392, 1629.642
1201.874, 1628.625
1202.356, 1627.068
1202.838, 1626.654
1203.320, 1627.704
1203.802, 1628.967
1204.284, 1629.952
1204.767, 1630.217
1205.249, 1628.724
1205.731, 1627.125
1206.213, 1627.203
1206.695, 1627.679
1207.177, 1626.508
1207.659, 1624.425
1208.141, 1624.022
1208.624, 1625.958
1209.106, 1626.837
1209.588, 1625.078
1210.070, 1623.344
1210.552, 1621.390
1211.034, 1620.516
1211.516, 1621.559
1211.998, 1623.883
1212.480, 1628.149
1212.963, 1632.918
1213.445, 1632.178
1213.927, 1624.046
1214.409, 1620.063
1214.891, 1621.380
1215.373, 1622.280
1215.855, 1621.728
1216.337, 1620.427
1216.819, 1618.639
1217.302, 1616.830
1217.784, 1615.379
1218.266, 1614.710
1218.748, 1617.445
1219.230, 1622.246
1219.712, 1620.899
1220.194, 1614.597
1220.676, 1612.190
1221.159, 1615.023
1221.641, 1616.859
1222.123, 1614.259
1222.605, 1611.689
1223.087, 1614.383
1223.569, 1618.710
1224.051, 1620.546
1224.533, 1621.422
1225.016, 1623.619
1225.498, 1626.324
1225.980, 1627.913
1226.462, 1627.953
1226.944, 1626.110
1227.426, 1621.310
1227.908, 1617.411
1228.390, 1615.223
1228.872, 1614.863
1229.354, 1618.446
1229.837, 1621.857
1230.319, 1621.305
1230.801, 1618.695
1231.283, 1617.702
1231.765, 1618.254
1232.247, 1617.423
1232.729, 1613.956
1233.211, 1613.214
1233.694, 1616.175
1234.176, 1619.474
1234.658, 1622.469
1235.140, 1623.880
1235.622, 1622.637
1236.104, 1619.864
1236.586, 1617.097
1237.068, 1614.645
1237.551, 1614.107
1238.033, 1615.047
1238.515, 1615.899
1238.997, 1616.279
1239.479, 1614.988
1239.961, 1612.022
1240.443, 1609.898
1240.925, 1610.328
1241.407, 1611.499
1241.890, 1611.558
1242.372, 1611.633
1242.854, 1613.447
1243.336, 1615.462
1243.818, 1615.495
1244.300, 1614.268
1244.782, 1613.528
1245.264, 1613.590
1245.746, 1614.225
1246.229, 1616.723
1246.711, 1617.286
1247.193, 1612.777
1247.675, 1609.638
1248.157, 1611.231
1248.639, 1613.431
1249.121, 1613.288
1249.603, 1611.937
1250.085, 1611.402
1250.568, 1611.628
1251.050, 1611.760
1251.532, 1611.793
1252.014, 1611.604
1252.496, 1611.163
1252.978, 1611.052
1253.460, 1611.443
1253.942, 1611.316
1254.425, 1609.853
1254.907, 1608.796
1255.389, 1611.498
1255.871, 1615.581
1256.353, 1616.493
1256.835, 1615.485
1257.317, 1614.127
1257.799, 1613.143
1258.281, 1614.123
1258.764, 1616.849
1259.246, 1618.259
1259.728, 1616.726
1260.210, 1615.014
1260.692, 1614.174
1261.174, 1613.772
1261.656, 1614.030
1262.138, 1614.207
1262.620, 1613.288
1263.103, 1612.181
1263.585, 1612.568
1264.067, 1614.207
1264.549, 1614.980
1265.031, 1614.283
1265.513, 1614.861
1265.995, 1617.090
1266.477, 1618.845
1266.960, 1619.605
1267.442, 1620.312
1267.924, 1621.620
1268.406, 1621.846
1268.888, 1618.404
1269.370, 1613.554
1269.852, 1612.967
1270.334, 1614.945
1270.817, 1615.044
1271.299, 1613.926
1271.781, 1614.427
1272.263, 1616.422
1272.745, 1617.178
1273.227, 1615.652
1273.709, 1614.400
1274.191, 1615.837
1274.673, 1616.711
1275.156, 1614.553
1275.638, 1612.235
1276.120, 1611.278
1276.602, 1611.488
1277.084, 1613.178
1277.566, 1615.652
1278.048, 1616.730
1278.530, 1616.243
1279.012, 1615.847
1279.495, 1615.147
1279.977, 1615.906
1280.459, 1618.771
1280.941, 1621.036
1281.423, 1621.697
1281.905, 1621.669
1282.387, 1621.722
1282.869, 1621.357
1283.352, 1619.020
1283.834, 1615.849
1284.316, 1614.169
1284.798, 1614.059
##END=



