##NAMES=Phlogopite
##RRUFFID=R050485
##IDEAL CHEMISTRY=KMg_3_(Si_3_Al)O_10_(OH)_2_
##LOCALITY=Libby, Montana, USA
##OWNER=RRUFF
##SOURCE=California Institute of Technology
##DESCRIPTION=Green micaceous fragment
##STATUS=The identification of this mineral has been confirmed by X-ray diffraction and chemical analysis
##URL=rruff.info/R050485
##MEASURED CHEMISTRY=(K_0.92_Na_0.06_Ca_0.02_)(Mg_0.80_Fe^2+^_0.17_Ti_0.02_Cr_0.01_)_3_(Si_2.83_Al_1.17_)O_10_(OH)_2_
93.78320, 263.1283
94.26532, 264.9407
94.74744, 266.1039
95.22955, 265.9421
95.71167, 265.1355
96.19379, 263.1507
96.67590, 260.2841
97.15802, 257.4488
97.64014, 254.7739
98.12225, 252.1966
98.60437, 249.6722
99.08649, 247.3605
99.56860, 245.0187
100.0507, 242.2811
100.5328, 238.7400
101.0150, 234.8926
101.4971, 231.0789
101.9792, 227.2792
102.4613, 223.6350
102.9434, 219.8196
103.4255, 216.2885
103.9077, 213.4769
104.3898, 211.5595
104.8719, 210.2191
105.3540, 208.8032
105.8361, 207.0567
106.3182, 205.6552
106.8004, 204.9439
107.2825, 204.5301
107.7646, 203.9146
108.2467, 202.7661
108.7288, 201.1313
109.2109, 199.7121
109.6931, 198.3658
110.1752, 197.3418
110.6573, 196.8476
111.1394, 196.7609
111.6215, 196.7642
112.1036, 196.5628
112.5858, 196.1000
113.0679, 195.9437
113.5500, 196.3708
114.0321, 196.8788
114.5142, 197.0639
114.9964, 196.8623
115.4785, 196.5834
115.9606, 196.6779
116.4427, 197.1220
116.9248, 197.2910
117.4069, 196.7462
117.8891, 195.8444
118.3712, 195.3638
118.8533, 195.6277
119.3354, 196.0874
119.8175, 196.2047
120.2996, 196.0071
120.7818, 195.7572
121.2639, 195.5945
121.7460, 195.5160
122.2281, 195.5969
122.7102, 195.9822
123.1923, 196.4557
123.6745, 196.9616
124.1566, 197.4768
124.6387, 197.9267
125.1208, 198.2388
125.6029, 198.5106
126.0850, 198.3805
126.5672, 197.4772
127.0493, 196.4296
127.5314, 195.8047
128.0135, 195.8170
128.4956, 196.2072
128.9777, 196.2444
129.4599, 195.2450
129.9420, 194.6452
130.4241, 194.9352
130.9062, 195.6303
131.3883, 195.9589
131.8705, 195.4450
132.3526, 194.2971
132.8347, 193.7048
133.3168, 193.9635
133.7989, 194.3383
134.2810, 194.6064
134.7632, 194.7579
135.2453, 194.7635
135.7274, 194.5596
136.2095, 194.1872
136.6916, 193.8363
137.1737, 193.3050
137.6559, 192.9246
138.1380, 193.2098
138.6201, 194.3370
139.1022, 195.2925
139.5843, 195.2706
140.0664, 194.6747
140.5486, 193.9845
141.0307, 193.1663
141.5128, 192.4207
141.9949, 192.4891
142.4770, 194.1831
142.9591, 195.4709
143.4413, 195.3096
143.9234, 194.1861
144.4055, 192.9875
144.8876, 192.3316
145.3697, 192.2215
145.8518, 192.1690
146.3340, 192.3141
146.8161, 192.3945
147.2982, 192.3554
147.7803, 192.1828
148.2624, 191.8559
148.7445, 191.3005
149.2267, 190.3608
149.7088, 189.8996
150.1909, 190.1501
150.6730, 190.5726
151.1551, 190.9441
151.6372, 191.2009
152.1194, 191.3237
152.6015, 191.2876
153.0836, 191.0485
153.5657, 190.7047
154.0478, 189.9880
154.5299, 189.2914
155.0121, 189.0785
155.4942, 189.4873
155.9763, 190.1484
156.4584, 190.5141
156.9405, 190.5750
157.4227, 190.6137
157.9048, 190.8539
158.3869, 191.1181
158.8690, 190.9624
159.3511, 190.0927
159.8332, 189.0401
160.3154, 188.4258
160.7975, 188.2421
161.2796, 188.2581
161.7617, 188.4999
162.2438, 188.9295
162.7259, 189.0067
163.2081, 188.1928
163.6902, 187.3135
164.1723, 187.0059
164.6544, 187.3276
165.1365, 187.8991
165.6186, 188.3704
166.1008, 188.7512
166.5829, 188.9757
167.0650, 188.8250
167.5471, 188.6536
168.0292, 188.7648
168.5113, 189.2142
168.9935, 189.7068
169.4756, 189.6928
169.9577, 188.7187
170.4398, 188.1096
170.9219, 188.0713
171.4040, 188.3140
171.8862, 188.6334
172.3683, 188.9472
172.8504, 189.2598
173.3325, 189.5901
173.8146, 190.1975
174.2967, 190.4789
174.7789, 190.1456
175.2610, 189.5683
175.7431, 189.1372
176.2252, 189.0191
176.7073, 189.1995
177.1894, 189.6599
177.6716, 190.7981
178.1537, 191.7022
178.6358, 192.1307
179.1179, 192.2123
179.6000, 192.1696
180.0821, 192.0736
180.5643, 191.9724
181.0464, 192.0072
181.5285, 192.1929
182.0106, 192.4606
182.4927, 192.8879
182.9749, 193.4138
183.4570, 193.7375
183.9391, 193.6036
184.4212, 193.2377
184.9033, 193.1465
185.3854, 193.4582
185.8676, 193.8453
186.3497, 194.0623
186.8318, 194.1070
187.3139, 194.0626
187.7960, 193.8331
188.2781, 193.5954
188.7603, 193.5754
189.2424, 193.8786
189.7245, 194.2692
190.2066, 194.4984
190.6887, 194.6035
191.1708, 194.3898
191.6530, 193.4770
192.1351, 192.3688
192.6172, 191.4856
193.0993, 190.9855
193.5814, 190.7475
194.0635, 190.5952
194.5457, 190.7227
195.0278, 190.5190
195.5099, 189.7462
195.9920, 188.6961
196.4741, 187.6103
196.9562, 186.5899
197.4384, 185.6552
197.9205, 184.8542
198.4026, 184.1729
198.8847, 183.6842
199.3668, 183.5810
199.8489, 183.5973
200.3311, 183.4332
200.8132, 182.9353
201.2953, 182.1754
201.7774, 181.4432
202.2595, 180.6909
202.7416, 180.0238
203.2238, 179.4876
203.7059, 179.0333
204.1880, 178.5389
204.6701, 177.9238
205.1522, 177.2880
205.6344, 177.1089
206.1165, 177.8443
206.5986, 178.4570
207.0807, 178.7122
207.5628, 178.6940
208.0449, 178.5735
208.5271, 178.4458
209.0092, 178.2693
209.4913, 177.8607
209.9734, 176.8634
210.4555, 176.1011
210.9376, 176.0611
211.4198, 176.5153
211.9019, 176.8365
212.3840, 176.7071
212.8661, 176.2289
213.3482, 175.7146
213.8303, 175.0430
214.3125, 174.5240
214.7946, 174.4071
215.2767, 174.6321
215.7588, 174.8935
216.2409, 175.1307
216.7230, 175.2611
217.2052, 175.1838
217.6873, 174.8509
218.1694, 174.4080
218.6515, 173.8564
219.1336, 173.2066
219.6157, 172.8100
220.0979, 173.0116
220.5800, 173.4065
221.0621, 173.5432
221.5442, 173.3411
222.0263, 173.0144
222.5084, 172.7005
222.9906, 172.3816
223.4727, 172.2636
223.9548, 172.7164
224.4369, 173.2141
224.9190, 173.3377
225.4011, 172.9991
225.8833, 172.4825
226.3654, 172.1026
226.8475, 171.8804
227.3296, 171.7005
227.8117, 171.4510
228.2938, 171.2940
228.7760, 171.4267
229.2581, 171.8699
229.7402, 172.3392
230.2223, 172.3849
230.7044, 171.7858
231.1866, 171.4763
231.6687, 171.9359
232.1508, 172.4270
232.6329, 172.4503
233.1150, 171.9334
233.5971, 171.2051
234.0793, 170.6876
234.5614, 170.3668
235.0435, 170.3274
235.5256, 170.8111
236.0077, 171.3551
236.4898, 171.6895
236.9720, 171.7606
237.4541, 171.6739
237.9362, 171.5545
238.4183, 171.3570
238.9004, 171.2452
239.3825, 171.2472
239.8647, 171.2956
240.3468, 171.4068
240.8289, 171.5521
241.3110, 171.6113
241.7931, 171.4051
242.2752, 170.7473
242.7574, 170.3796
243.2395, 170.5283
243.7216, 170.7507
244.2037, 170.7068
244.6858, 170.3884
245.1679, 170.0904
245.6501, 170.1677
246.1322, 170.7733
246.6143, 171.1313
247.0964, 171.1554
247.5785, 171.0288
248.0606, 170.7463
248.5428, 170.3669
249.0249, 170.1696
249.5070, 170.5095
249.9891, 171.5230
250.4712, 171.9467
250.9533, 171.3538
251.4355, 170.5460
251.9176, 169.9560
252.3997, 169.6396
252.8818, 169.5950
253.3639, 169.8944
253.8460, 170.5442
254.3282, 170.9705
254.8103, 171.1030
255.2924, 171.0773
255.7745, 170.9001
256.2566, 170.5999
256.7387, 170.3703
257.2209, 170.3729
257.7030, 170.5783
258.1851, 170.7121
258.6672, 170.9288
259.1493, 170.9487
259.6314, 170.3284
260.1136, 169.1648
260.5957, 168.3655
261.0778, 168.6174
261.5599, 169.6119
262.0420, 170.2482
262.5241, 170.4063
263.0063, 170.3371
263.4884, 170.1381
263.9705, 169.8258
264.4526, 169.5390
264.9347, 169.3174
265.4168, 169.1885
265.8990, 169.2068
266.3811, 169.4763
266.8632, 169.6698
267.3453, 169.4029
267.8275, 168.7593
268.3096, 168.4262
268.7917, 168.8293
269.2738, 169.5162
269.7559, 169.8818
270.2380, 169.8889
270.7202, 169.7364
271.2023, 169.4946
271.6844, 169.1831
272.1665, 168.9238
272.6486, 168.7233
273.1307, 168.6279
273.6129, 168.7235
274.0950, 169.0072
274.5771, 169.2087
275.0592, 169.0287
275.5413, 168.5612
276.0234, 168.3816
276.5056, 168.7408
276.9877, 169.1950
277.4698, 169.3911
277.9519, 169.3670
278.4340, 169.3196
278.9161, 169.4140
279.3983, 169.5956
279.8804, 169.5938
280.3625, 169.2585
280.8446, 168.9487
281.3267, 168.9279
281.8088, 169.0964
282.2910, 169.2204
282.7731, 169.1522
283.2552, 168.9436
283.7373, 168.7702
284.2194, 168.6598
284.7015, 168.5305
285.1837, 168.3131
285.6658, 168.0584
286.1479, 167.8515
286.6300, 167.7614
287.1121, 167.7130
287.5942, 167.5227
288.0764, 167.1314
288.5585, 166.7344
289.0406, 166.3200
289.5227, 165.9699
290.0048, 165.7717
290.4869, 165.7509
290.9691, 165.9068
291.4512, 166.3435
291.9333, 167.2640
292.4154, 167.8094
292.8975, 167.4808
293.3796, 166.8629
293.8618, 166.3237
294.3439, 165.9585
294.8260, 165.7703
295.3081, 165.7905
295.7902, 166.0517
296.2723, 166.3662
296.7545, 166.7915
297.2366, 167.2000
297.7187, 167.5620
298.2008, 167.8545
298.6829, 167.9984
299.1650, 167.7708
299.6472, 167.0846
300.1293, 166.8449
300.6114, 167.8435
301.0935, 168.6385
301.5756, 168.3580
302.0577, 167.2406
302.5399, 166.1991
303.0220, 166.0610
303.5041, 166.7748
303.9862, 167.1633
304.4683, 166.9977
304.9504, 166.7449
305.4326, 166.4897
305.9147, 166.2831
306.3968, 166.1989
306.8789, 166.2877
307.3610, 166.5307
307.8431, 166.8625
308.3253, 167.4074
308.8074, 167.8418
309.2895, 168.0805
309.7716, 168.1771
310.2537, 168.1948
310.7358, 168.1637
311.2180, 168.0591
311.7001, 167.8039
312.1822, 167.2944
312.6643, 166.8559
313.1464, 166.4119
313.6285, 166.1279
314.1107, 166.2334
314.5928, 166.7736
315.0749, 167.4220
315.5570, 167.6778
316.0392, 167.4081
316.5213, 167.2268
317.0034, 167.3716
317.4855, 167.4854
317.9676, 167.2988
318.4497, 166.8337
318.9319, 166.3761
319.4140, 166.1750
319.8961, 166.2304
320.3782, 166.5483
320.8603, 167.5303
321.3424, 168.4040
321.8246, 168.8519
322.3067, 168.9485
322.7888, 168.9294
323.2709, 168.9688
323.7530, 169.0404
324.2351, 168.9096
324.7173, 168.2110
325.1994, 167.8423
325.6815, 168.4488
326.1636, 169.4204
326.6457, 169.8446
327.1278, 169.1889
327.6100, 167.9546
328.0921, 167.3690
328.5742, 167.6800
329.0563, 168.1330
329.5384, 168.7696
330.0205, 169.3341
330.5027, 169.5560
330.9848, 169.3606
331.4669, 168.9883
331.9490, 168.7529
332.4311, 168.6695
332.9132, 168.6600
333.3954, 168.7583
333.8775, 168.8997
334.3596, 169.0516
334.8417, 169.2129
335.3238, 169.4045
335.8059, 169.6959
336.2881, 170.0921
336.7702, 170.3044
337.2523, 170.1425
337.7344, 169.9971
338.2165, 170.0636
338.6986, 170.2843
339.1808, 170.5065
339.6629, 170.6095
340.1450, 170.6492
340.6271, 170.8543
341.1092, 171.3141
341.5913, 171.7671
342.0735, 172.2250
342.5556, 172.5838
343.0377, 172.6714
343.5198, 172.3757
344.0019, 171.9314
344.4840, 171.7512
344.9662, 171.9170
345.4483, 171.9812
345.9304, 171.5179
346.4125, 171.0769
346.8946, 171.1477
347.3767, 171.8025
347.8589, 172.5192
348.3410, 172.7264
348.8231, 172.4420
349.3052, 172.3861
349.7873, 172.9879
350.2694, 173.4498
350.7516, 173.0517
351.2337, 171.9900
351.7158, 171.1216
352.1979, 171.1790
352.6800, 171.8374
353.1621, 171.9558
353.6443, 171.2666
354.1264, 170.6103
354.6085, 170.5735
355.0906, 170.8747
355.5727, 171.0877
356.0548, 171.0317
356.5370, 170.8787
357.0191, 170.9120
357.5012, 171.1636
357.9833, 171.2500
358.4654, 170.8961
358.9475, 170.3567
359.4297, 169.9657
359.9118, 169.7927
360.3939, 169.5679
360.8760, 168.9174
361.3581, 167.9791
361.8402, 167.5222
362.3224, 167.9722
362.8045, 168.5645
363.2866, 168.3521
363.7687, 167.4333
364.2508, 166.7815
364.7329, 167.1121
365.2151, 167.8461
365.6972, 167.9264
366.1793, 167.1723
366.6614, 166.3290
367.1436, 165.9615
367.6257, 165.9531
368.1078, 165.9394
368.5899, 165.8890
369.0720, 165.8067
369.5541, 165.6117
370.0363, 165.3437
370.5184, 165.3143
371.0005, 165.7979
371.4826, 166.4926
371.9647, 166.7114
372.4468, 166.3311
372.9290, 165.8589
373.4111, 165.4206
373.8932, 165.0339
374.3753, 164.7096
374.8574, 164.4352
375.3395, 164.3239
375.8217, 164.6588
376.3038, 165.5406
376.7859, 165.9042
377.2680, 165.1067
377.7501, 164.1179
378.2322, 163.8237
378.7144, 164.2267
379.1965, 164.7428
379.6786, 164.9778
380.1607, 164.9347
380.6428, 164.7436
381.1249, 164.1452
381.6071, 163.7061
382.0892, 163.7308
382.5713, 164.0437
383.0534, 164.3511
383.5355, 164.5413
384.0176, 164.5668
384.4998, 164.3027
384.9819, 163.2980
385.4640, 162.7576
385.9461, 163.0712
386.4282, 163.6356
386.9103, 164.0466
387.3925, 164.1914
387.8746, 163.9889
388.3567, 163.2484
388.8388, 161.7804
389.3209, 161.1935
389.8030, 162.1328
390.2852, 163.1385
390.7673, 163.8093
391.2494, 164.1096
391.7315, 164.0213
392.2136, 163.5055
392.6957, 162.7106
393.1779, 162.2223
393.6600, 162.2796
394.1421, 162.3256
394.6242, 162.3193
395.1063, 162.2737
395.5884, 162.1358
396.0706, 161.9195
396.5527, 161.7953
397.0348, 162.0920
397.5169, 163.0363
397.9990, 163.4846
398.4811, 162.8484
398.9633, 162.2352
399.4454, 162.1547
399.9275, 162.4723
400.4096, 162.7686
400.8917, 162.7746
401.3738, 162.5267
401.8560, 162.1427
402.3381, 161.4738
402.8202, 160.9613
403.3023, 160.7045
403.7844, 160.6632
404.2665, 160.8716
404.7487, 161.3592
405.2308, 161.8653
405.7129, 162.0285
406.1950, 161.8287
406.6771, 161.7042
407.1592, 161.8714
407.6414, 161.9844
408.1235, 161.6911
408.6056, 161.0759
409.0877, 160.6112
409.5698, 160.7503
410.0519, 161.2056
410.5341, 161.1883
411.0162, 160.5083
411.4983, 160.0278
411.9804, 160.6931
412.4625, 161.8022
412.9446, 162.1045
413.4268, 160.9961
413.9089, 159.7316
414.3910, 159.3879
414.8731, 159.7899
415.3553, 160.0705
415.8374, 159.8910
416.3195, 159.5820
416.8016, 159.7022
417.2837, 160.2777
417.7658, 160.6904
418.2480, 160.7879
418.7301, 160.6327
419.2122, 160.1421
419.6943, 159.3401
420.1764, 158.7456
420.6585, 158.8678
421.1407, 159.6117
421.6228, 159.8557
422.1049, 159.0525
422.5870, 158.4006
423.0691, 158.5391
423.5512, 159.1274
424.0334, 159.5700
424.5155, 159.6328
424.9976, 159.3948
425.4797, 158.9874
425.9618, 158.2822
426.4439, 157.6604
426.9261, 157.0210
427.4082, 156.5368
427.8903, 156.3397
428.3724, 156.4243
428.8545, 156.7411
429.3366, 157.3095
429.8188, 158.1000
430.3009, 158.3822
430.7830, 157.6837
431.2651, 156.9646
431.7472, 156.1812
432.2293, 155.5321
432.7115, 155.2786
433.1936, 155.5099
433.6757, 156.0396
434.1578, 156.6775
434.6399, 157.6133
435.1220, 157.9730
435.6042, 156.9734
436.0863, 155.9773
436.5684, 155.7154
437.0505, 156.0563
437.5326, 156.3997
438.0147, 156.3184
438.4969, 155.9297
438.9790, 155.6545
439.4611, 155.5386
439.9432, 155.4213
440.4253, 155.2013
440.9074, 154.9612
441.3896, 154.7915
441.8717, 154.7167
442.3538, 154.6823
442.8359, 154.6674
443.3180, 154.6625
443.8001, 154.6167
444.2823, 154.5450
444.7644, 154.3847
445.2465, 153.9702
445.7286, 153.3733
446.2107, 152.9613
446.6928, 152.9491
447.1750, 153.0887
447.6571, 153.1731
448.1392, 153.1922
448.6213, 153.1213
449.1034, 152.9315
449.5855, 152.6555
450.0677, 152.3668
450.5498, 151.9870
451.0319, 151.7514
451.5140, 151.6651
451.9961, 151.7812
452.4782, 152.3899
452.9604, 153.4768
453.4425, 154.2859
453.9246, 153.9376
454.4067, 152.2573
454.8888, 151.2798
455.3709, 151.3629
455.8531, 151.6269
456.3352, 151.9011
456.8173, 152.1097
457.2994, 152.1456
457.7815, 151.9570
458.2636, 151.6629
458.7458, 151.5339
459.2279, 151.7480
459.7100, 151.7489
460.1921, 151.3249
460.6742, 150.8773
461.1563, 150.6371
461.6385, 150.5950
462.1206, 150.6088
462.6027, 150.5416
463.0848, 150.4436
463.5669, 150.6374
464.0491, 151.3797
464.5312, 151.8792
465.0133, 151.7636
465.4954, 151.3419
465.9775, 150.8490
466.4597, 150.3209
466.9418, 149.9057
467.4239, 149.8315
467.9060, 150.0334
468.3881, 150.0006
468.8702, 149.4495
469.3524, 149.0671
469.8345, 149.8047
470.3166, 151.2343
470.7987, 152.0638
471.2808, 151.5378
471.7629, 150.6230
472.2451, 150.0336
472.7272, 149.7719
473.2093, 149.9413
473.6914, 150.7488
474.1735, 151.7142
474.6556, 151.7577
475.1378, 150.4886
475.6199, 149.7665
476.1020, 150.3255
476.5841, 151.2306
477.0662, 151.7343
477.5483, 151.7560
478.0305, 151.4729
478.5126, 150.9639
478.9947, 150.2847
479.4768, 149.9551
479.9589, 150.3253
480.4410, 150.6168
480.9232, 150.6810
481.4053, 150.6442
481.8874, 150.6394
482.3695, 150.6986
482.8516, 150.7646
483.3337, 150.7626
483.8159, 150.6816
484.2980, 150.6275
484.7801, 150.6605
485.2622, 150.6504
485.7443, 150.3774
486.2264, 150.0739
486.7086, 150.1784
487.1907, 150.9592
487.6728, 151.9054
488.1549, 152.2605
488.6370, 151.9925
489.1191, 151.6137
489.6013, 151.0922
490.0834, 150.6602
490.5655, 150.5219
491.0476, 150.6502
491.5297, 150.8626
492.0118, 151.1871
492.4940, 151.5005
492.9761, 151.6142
493.4582, 151.5349
493.9403, 151.4324
494.4224, 151.3587
494.9045, 151.3492
495.3867, 151.5144
495.8688, 151.9206
496.3509, 152.3003
496.8330, 152.6405
497.3151, 152.8958
497.7972, 152.9853
498.2794, 152.9172
498.7615, 152.8127
499.2436, 152.7907
499.7257, 152.8364
500.2078, 152.6772
500.6899, 151.9433
501.1721, 151.4517
501.6542, 151.4754
502.1363, 151.7363
502.6184, 151.9724
503.1005, 152.0984
503.5826, 152.1215
504.0648, 151.9960
504.5469, 151.6866
505.0290, 151.5967
505.5111, 151.8678
505.9932, 152.1961
506.4753, 152.5599
506.9575, 152.8741
507.4396, 152.9869
507.9217, 152.8084
508.4038, 152.5284
508.8859, 152.3588
509.3680, 152.2965
509.8502, 152.2966
510.3323, 152.3687
510.8144, 152.4685
511.2965, 152.4595
511.7786, 151.8507
512.2607, 152.4948
512.7429, 152.8443
513.2250, 152.9149
513.7071, 151.8715
514.1892, 152.2666
514.6713, 152.0852
515.1534, 151.8802
515.6356, 152.4778
516.1177, 151.2085
516.5998, 151.8960
517.0819, 152.2889
517.5640, 152.4029
518.0461, 151.4030
518.5283, 151.8415
519.0104, 151.7036
519.4925, 151.5420
519.9746, 152.1830
520.4567, 151.3450
520.9388, 151.9733
521.4210, 152.0163
521.9031, 152.3272
522.3852, 152.0580
522.8673, 151.9680
523.3494, 151.7843
523.8315, 151.4016
524.3137, 151.1083
524.7958, 151.3536
525.2779, 151.9567
525.7600, 152.3188
526.2421, 152.4558
526.7242, 152.2796
527.2064, 151.4584
527.6885, 150.4547
528.1706, 149.8366
528.6527, 149.6731
529.1348, 149.7441
529.6169, 150.1118
530.0991, 150.5815
530.5812, 150.8638
531.0633, 150.9221
531.5454, 150.7386
532.0275, 150.2137
532.5096, 149.4344
532.9918, 149.0201
533.4739, 149.2753
533.9560, 149.4450
534.4381, 149.2954
534.9202, 149.0266
535.4023, 148.8349
535.8845, 148.7674
536.3666, 148.7892
536.8487, 148.8777
537.3308, 149.0325
537.8129, 149.1486
538.2951, 149.1881
538.7772, 149.2366
539.2593, 149.3074
539.7415, 149.3994
540.2236, 149.5512
540.7057, 149.7656
541.1878, 149.8965
541.6699, 149.7649
542.1520, 149.4036
542.6342, 149.0038
543.1163, 148.5059
543.5984, 148.1497
544.0805, 148.1890
544.5626, 148.4619
545.0447, 148.7031
545.5269, 148.9744
546.0090, 149.0242
546.4911, 148.4925
546.9732, 147.6842
547.4553, 147.2406
547.9374, 147.2984
548.4196, 147.4653
548.9017, 147.3819
549.3838, 147.0449
549.8659, 146.5992
550.3480, 145.6308
550.8301, 145.0600
551.3123, 145.4967
551.7944, 146.3131
552.2765, 146.7537
552.7586, 146.6150
553.2407, 146.1857
553.7228, 145.7923
554.2050, 145.4401
554.6871, 145.0094
555.1692, 144.3333
555.6513, 143.8239
556.1334, 143.7766
556.6155, 143.9034
557.0977, 143.8116
557.5798, 143.3775
558.0619, 142.8763
558.5440, 142.6006
559.0261, 142.4703
559.5082, 142.0835
559.9904, 141.2817
560.4725, 140.7215
560.9546, 141.1413
561.4367, 142.2652
561.9188, 142.6655
562.4009, 141.6857
562.8831, 140.7899
563.3652, 140.6260
563.8473, 140.8258
564.3294, 140.9326
564.8115, 140.8314
565.2936, 140.5430
565.7758, 140.0375
566.2579, 139.3114
566.7400, 138.9645
567.2221, 139.4411
567.7042, 139.7746
568.1863, 139.8253
568.6685, 139.6460
569.1506, 139.2387
569.6327, 138.6290
570.1148, 137.9675
570.5969, 137.3833
571.0790, 136.8716
571.5612, 136.4158
572.0433, 136.0231
572.5254, 135.6521
573.0075, 135.0906
573.4896, 134.6323
573.9717, 134.8501
574.4539, 136.0746
574.9360, 136.9381
575.4181, 136.5079
575.9002, 135.4642
576.3823, 134.6855
576.8644, 134.2819
577.3466, 134.1139
577.8287, 134.1109
578.3108, 134.2395
578.7929, 134.3333
579.2750, 134.3653
579.7571, 134.3967
580.2393, 134.6381
580.7214, 134.7264
581.2035, 134.1207
581.6856, 133.0029
582.1677, 132.2286
582.6498, 132.5402
583.1320, 133.5827
583.6141, 134.1229
584.0962, 134.0550
584.5783, 133.8436
585.0604, 133.4203
585.5425, 133.0565
586.0247, 133.1055
586.5068, 133.5230
586.9889, 133.7009
587.4710, 133.2237
587.9531, 132.4714
588.4352, 131.7147
588.9174, 131.0299
589.3995, 130.8399
589.8816, 131.4217
590.3637, 132.3183
590.8458, 132.7497
591.3279, 132.5690
591.8101, 132.2812
592.2922, 131.7238
592.7743, 131.2186
593.2564, 130.9229
593.7385, 130.8099
594.2206, 130.8414
594.7028, 131.0019
595.1849, 131.1800
595.6670, 131.1880
596.1491, 131.0115
596.6312, 130.7570
597.1133, 130.2940
597.5955, 129.9364
598.0776, 129.8932
598.5597, 130.0540
599.0418, 130.2287
599.5239, 130.4165
600.0060, 130.4978
600.4882, 130.2726
600.9703, 129.8799
601.4524, 129.6683
601.9345, 129.7081
602.4166, 129.8551
602.8987, 130.0027
603.3809, 130.1483
603.8630, 130.2496
604.3451, 130.2244
604.8272, 130.2648
605.3093, 130.5119
605.7914, 130.7746
606.2736, 130.8311
606.7557, 130.6798
607.2378, 130.5206
607.7199, 130.5306
608.2020, 130.6706
608.6841, 130.7552
609.1663, 130.7914
609.6484, 130.7510
610.1305, 130.5342
610.6126, 130.3038
611.0947, 130.2795
611.5768, 130.4464
612.0590, 130.4052
612.5411, 129.7118
613.0232, 128.9126
613.5053, 128.7078
613.9874, 128.9913
614.4695, 129.1758
614.9517, 129.0097
615.4338, 128.6765
615.9159, 128.4767
616.3980, 128.4703
616.8801, 128.3947
617.3622, 128.0366
617.8444, 127.8407
618.3265, 128.0761
618.8086, 128.5717
619.2907, 129.1504
619.7728, 129.7383
620.2549, 130.0707
620.7371, 129.5870
621.2192, 128.3388
621.7013, 127.7197
622.1834, 127.9857
622.6655, 128.4533
623.1476, 128.8953
623.6298, 129.2329
624.1119, 129.3074
624.5940, 129.0455
625.0761, 128.7073
625.5582, 128.2641
626.0403, 127.8911
626.5225, 127.9191
627.0046, 128.3028
627.4867, 128.5824
627.9688, 128.4400
628.4509, 128.0358
628.9330, 127.9006
629.4152, 128.2472
629.8973, 128.4814
630.3794, 128.4619
630.8615, 128.4561
631.3436, 128.7508
631.8257, 129.1795
632.3079, 129.2764
632.7900, 128.7215
633.2721, 128.0024
633.7542, 127.8382
634.2363, 128.1714
634.7184, 128.4956
635.2006, 128.7277
635.6827, 128.8987
636.1648, 129.0542
636.6469, 129.1723
637.1291, 129.1410
637.6112, 128.6670
638.0933, 128.3984
638.5754, 128.7074
639.0576, 129.2421
639.5397, 129.6720
640.0218, 129.9087
640.5039, 129.9162
640.9860, 129.6191
641.4681, 129.1125
641.9503, 128.8854
642.4324, 128.3106
642.9145, 128.9841
643.3966, 129.3621
643.8787, 129.4605
644.3608, 128.4419
644.8430, 128.8657
645.3251, 128.7115
645.8072, 128.5335
646.2893, 129.1603
646.7714, 128.3042
647.2535, 128.9182
647.7357, 128.9454
648.2178, 129.2411
648.6999, 128.9553
649.1820, 128.8491
649.6641, 129.5483
650.1462, 129.6508
650.6284, 128.8728
651.1105, 128.3355
651.5926, 128.3903
652.0747, 128.7156
652.5568, 129.0326
653.0389, 129.2765
653.5211, 129.4801
654.0032, 129.7381
654.4853, 129.9445
654.9674, 129.6501
655.4495, 128.7755
655.9316, 128.3300
656.4138, 128.8474
656.8959, 129.6982
657.3780, 130.0800
657.8601, 130.0146
658.3422, 129.8495
658.8243, 129.4136
659.3065, 129.1118
659.7886, 129.2306
660.2707, 129.6130
660.7528, 130.0648
661.2349, 130.5003
661.7170, 130.7878
662.1992, 130.7090
662.6813, 130.2922
663.1634, 130.2375
663.6455, 130.7399
664.1276, 131.2204
664.6097, 131.5019
665.0919, 131.6740
665.5740, 131.7951
666.0561, 131.8718
666.5382, 131.9184
667.0203, 132.0107
667.5024, 132.0238
667.9846, 131.6516
668.4667, 131.0625
668.9488, 130.9033
669.4309, 131.4342
669.9130, 132.1735
670.3951, 132.4832
670.8773, 132.3134
671.3594, 132.1248
671.8415, 131.7714
672.3236, 131.5780
672.8057, 131.8270
673.2878, 132.1476
673.7700, 132.0697
674.2521, 131.5600
674.7342, 131.1201
675.2163, 131.2260
675.6984, 131.6275
676.1805, 131.8050
676.6627, 131.7653
677.1448, 131.7400
677.6269, 131.8369
678.1090, 131.9330
678.5911, 131.8533
679.0732, 131.5647
679.5554, 131.2576
680.0375, 130.8729
680.5196, 130.5356
681.0017, 130.3956
681.4838, 130.2806
681.9659, 129.8824
682.4481, 129.1852
682.9302, 128.6062
683.4123, 128.6354
683.8944, 129.0836
684.3765, 129.1752
684.8586, 128.8644
685.3408, 128.4503
685.8229, 127.9848
686.3050, 127.5156
686.7871, 127.0947
687.2692, 126.7201
687.7513, 126.4044
688.2335, 126.2297
688.7156, 126.0295
689.1977, 125.6661
689.6798, 125.2384
690.1619, 124.9278
690.6440, 124.7626
691.1262, 124.5707
691.6083, 124.1366
692.0904, 123.5273
692.5725, 123.2425
693.0546, 123.3806
693.5367, 123.5618
694.0189, 123.7024
694.5010, 123.8316
694.9831, 124.0962
695.4652, 124.4370
695.9473, 124.3908
696.4294, 123.3474
696.9116, 122.3472
697.3937, 122.3336
697.8758, 122.8037
698.3579, 122.7796
698.8400, 122.0630
699.3221, 121.1681
699.8043, 120.5546
700.2864, 120.2132
700.7685, 120.0831
701.2506, 120.1941
701.7327, 120.4509
702.2148, 120.9610
702.6970, 121.5075
703.1791, 122.1156
703.6612, 122.6657
704.1433, 122.7377
704.6254, 121.8576
705.1075, 120.8694
705.5897, 120.4460
706.0718, 120.4271
706.5539, 120.5669
707.0360, 120.7953
707.5181, 120.9215
708.0002, 120.7725
708.4824, 120.4113
708.9645, 120.1412
709.4466, 119.8923
709.9287, 119.8745
710.4108, 120.3553
710.8929, 120.8309
711.3751, 121.0226
711.8572, 120.9826
712.3393, 120.8913
712.8214, 120.8433
713.3035, 120.6836
713.7856, 120.0909
714.2678, 119.3341
714.7499, 119.0255
715.2320, 119.2308
715.7141, 119.5850
716.1962, 119.8812
716.6783, 120.0872
717.1605, 120.0861
717.6426, 119.6817
718.1247, 119.4554
718.6068, 119.6223
719.0889, 119.7353
719.5710, 119.5271
720.0532, 119.1459
720.5353, 118.8605
721.0174, 118.7579
721.4995, 118.7000
721.9816, 118.5246
722.4637, 118.3331
722.9459, 118.3369
723.4280, 118.5414
723.9101, 118.8410
724.3922, 119.2077
724.8743, 119.5694
725.3564, 119.7996
725.8386, 119.9148
726.3207, 119.8355
726.8028, 119.2552
727.2849, 118.8394
727.7670, 118.9294
728.2491, 119.2232
728.7313, 119.3530
729.2134, 119.2517
729.6955, 119.1054
730.1776, 119.0008
730.6597, 118.9557
731.1418, 119.0422
731.6240, 119.2308
732.1061, 119.3572
732.5882, 119.3642
733.0703, 119.2873
733.5524, 119.1595
734.0345, 118.9783
734.5167, 118.8128
734.9988, 118.5056
735.4809, 118.4304
735.9631, 118.9484
736.4452, 119.4891
736.9273, 119.4486
737.4094, 118.9277
737.8915, 118.6519
738.3737, 119.2553
738.8558, 119.9158
739.3379, 119.4985
739.8200, 118.3843
740.3021, 117.8004
740.7842, 117.9903
741.2664, 118.2663
741.7485, 118.0468
742.2306, 117.4819
742.7127, 117.3286
743.1948, 117.9667
743.6769, 118.3227
744.1591, 118.1287
744.6412, 117.8625
745.1233, 117.7055
745.6054, 117.6741
746.0875, 117.8017
746.5696, 118.1470
747.0518, 118.4375
747.5339, 118.4000
748.0160, 118.1949
748.4981, 118.0669
748.9802, 118.0390
749.4623, 118.0998
749.9445, 118.2517
750.4266, 118.4459
750.9087, 118.6061
751.3908, 118.7556
751.8729, 118.7573
752.3550, 118.4778
752.8372, 118.2253
753.3193, 118.1538
753.8014, 118.1243
754.2835, 117.9597
754.7656, 117.6431
755.2477, 117.3701
755.7299, 117.0956
756.2120, 117.0196
756.6941, 117.5419
757.1762, 118.3890
757.6583, 118.9159
758.1404, 118.9456
758.6226, 118.6810
759.1047, 118.2955
759.5868, 117.8076
760.0689, 117.2778
760.5510, 116.5543
761.0331, 116.2226
761.5153, 116.7602
761.9974, 117.3534
762.4795, 117.3301
762.9616, 116.8805
763.4437, 116.6355
763.9258, 116.8454
764.4080, 117.0588
764.8901, 117.0698
765.3722, 116.9621
765.8543, 116.6897
766.3364, 116.3713
766.8185, 116.4176
767.3007, 117.0696
767.7828, 117.9595
768.2649, 118.4227
768.7470, 118.4390
769.2291, 118.5275
769.7112, 118.7836
770.1934, 118.9022
770.6755, 118.6598
771.1576, 118.2416
771.6397, 117.9878
772.1218, 117.9361
772.6039, 117.7565
773.0861, 117.1529
773.5682, 116.6721
774.0503, 116.7085
774.5324, 117.0007
775.0145, 117.1857
775.4966, 117.1841
775.9788, 117.1266
776.4609, 117.1147
776.9430, 117.1308
777.4251, 117.1179
777.9072, 117.0790
778.3893, 117.1489
778.8715, 117.4327
779.3536, 117.5478
779.8357, 117.0758
780.3178, 116.1308
780.7999, 115.5028
781.2820, 115.3098
781.7642, 115.2542
782.2463, 115.4200
782.7284, 115.6247
783.2105, 115.8449
783.6926, 115.9948
784.1747, 115.8735
784.6569, 115.3755
785.1390, 114.9131
785.6211, 114.8634
786.1032, 115.0998
786.5853, 115.4745
787.0674, 115.9339
787.5496, 116.2021
788.0317, 116.1500
788.5138, 115.9208
788.9959, 115.7187
789.4780, 115.5533
789.9601, 115.2631
790.4423, 114.6003
790.9244, 114.2177
791.4065, 114.5150
791.8886, 114.9491
792.3707, 115.0380
792.8528, 114.8389
793.3350, 114.8068
793.8171, 115.2126
794.2992, 115.6590
794.7813, 116.0030
795.2634, 116.1857
795.7455, 116.0828
796.2277, 115.7206
796.7098, 115.2260
797.1919, 114.6520
797.6740, 114.1468
798.1561, 114.0630
798.6382, 114.4211
799.1204, 114.6532
799.6025, 114.7576
800.0846, 114.6243
800.5667, 114.0121
801.0488, 113.2567
801.5309, 113.0319
802.0131, 113.4234
802.4952, 113.6736
802.9773, 113.7020
803.4594, 113.5923
803.9415, 113.2428
804.4236, 112.8543
804.9058, 112.6481
805.3879, 112.6600
805.8700, 112.8389
806.3521, 113.2912
806.8342, 113.6916
807.3163, 113.3426
807.7985, 112.4723
808.2806, 112.0871
808.7627, 112.3753
809.2448, 112.8310
809.7269, 113.1300
810.2090, 113.2797
810.6912, 113.2941
811.1733, 113.1212
811.6554, 112.9364
812.1375, 112.6240
812.6196, 112.4368
813.1017, 112.5334
813.5839, 112.7769
814.0660, 113.0422
814.5481, 113.3182
815.0302, 113.3968
815.5123, 113.0284
815.9944, 112.5804
816.4766, 112.3137
816.9587, 112.1901
817.4408, 112.1378
817.9229, 112.1344
818.4050, 112.1856
818.8871, 112.3149
819.3693, 112.4674
819.8514, 112.4955
820.3335, 112.3962
820.8156, 112.2085
821.2977, 111.8817
821.7798, 111.6380
822.2620, 111.6184
822.7441, 111.7937
823.2262, 112.1144
823.7083, 112.8348
824.1904, 113.1083
824.6725, 112.6379
825.1547, 112.0210
825.6368, 111.2884
826.1189, 110.6937
826.6010, 110.6445
827.0831, 111.1655
827.5652, 111.6619
828.0474, 111.6728
828.5295, 111.5157
829.0116, 111.6081
829.4937, 111.8365
829.9758, 111.9007
830.4579, 111.7411
830.9401, 111.4740
831.4222, 111.1707
831.9043, 110.8732
832.3864, 110.6988
832.8685, 110.6471
833.3506, 110.7538
833.8328, 111.1630
834.3149, 111.4640
834.7971, 111.3587
835.2792, 111.0360
835.7613, 110.8118
836.2434, 110.6745
836.7255, 110.7033
837.2076, 111.1333
837.6898, 111.4824
838.1719, 111.4462
838.6540, 111.2381
839.1361, 111.0419
839.6182, 110.9414
840.1003, 111.1032
840.5825, 111.7752
841.0646, 112.5156
841.5467, 112.7458
842.0288, 112.5397
842.5109, 111.9581
842.9930, 111.0533
843.4752, 110.5478
843.9573, 110.9473
844.4394, 111.7610
844.9215, 111.8690
845.4036, 111.0303
845.8857, 110.7463
846.3679, 111.3588
846.8500, 111.9203
847.3321, 112.1106
847.8142, 112.0641
848.2963, 111.7863
848.7784, 111.3108
849.2606, 111.1943
849.7427, 112.0119
850.2248, 112.6225
850.7069, 112.3524
851.1890, 111.8224
851.6711, 111.6620
852.1533, 111.8420
852.6354, 112.0032
853.1175, 111.9695
853.5996, 111.8834
854.0817, 111.9615
854.5638, 112.1029
855.0460, 111.9364
855.5281, 111.4951
856.0102, 111.3814
856.4923, 111.8735
856.9744, 112.4329
857.4565, 112.3323
857.9387, 111.6017
858.4208, 111.0956
858.9029, 110.7928
859.3850, 110.7826
859.8671, 111.3838
860.3492, 111.9531
860.8314, 111.9435
861.3135, 111.5399
861.7956, 111.2280
862.2777, 111.0300
862.7598, 110.9804
863.2419, 111.1078
863.7241, 111.3678
864.2062, 111.9618
864.6883, 112.5812
865.1704, 112.6454
865.6525, 112.0578
866.1346, 111.4521
866.6168, 111.3545
867.0989, 111.5116
867.5810, 111.5782
868.0631, 111.5580
868.5452, 111.3988
869.0273, 111.1062
869.5095, 110.9741
869.9916, 111.2511
870.4737, 111.7252
870.9558, 111.8080
871.4379, 111.4034
871.9200, 111.1612
872.4022, 111.1738
872.8843, 111.1873
873.3664, 111.0654
873.8485, 110.9036
874.3306, 110.8732
874.8127, 110.9828
875.2949, 110.9748
875.7770, 110.5509
876.2591, 110.3732
876.7412, 111.0054
877.2233, 111.6635
877.7054, 111.5198
878.1876, 110.7963
878.6697, 110.3006
879.1518, 110.3847
879.6339, 110.6080
880.1160, 110.6222
880.5981, 110.5609
881.0803, 110.6206
881.5624, 110.7785
882.0445, 110.9277
882.5266, 111.0279
883.0087, 111.0755
883.4908, 111.0599
883.9730, 110.9927
884.4551, 110.8680
884.9372, 110.6687
885.4193, 110.7717
885.9014, 111.3446
886.3835, 111.8662
886.8657, 111.9414
887.3478, 111.7290
887.8299, 111.6684
888.3120, 111.8267
888.7941, 111.9574
889.2762, 112.2920
889.7584, 112.3165
890.2405, 111.5678
890.7226, 110.6468
891.2047, 110.1463
891.6868, 110.0885
892.1689, 110.1825
892.6511, 110.4410
893.1332, 110.6907
893.6153, 110.8614
894.0974, 110.9683
894.5795, 110.9962
895.0616, 110.9782
895.5438, 111.0306
896.0259, 111.2013
896.5080, 111.2734
896.9901, 110.9462
897.4722, 110.3721
897.9543, 109.8557
898.4365, 109.4152
898.9186, 109.1026
899.4007, 108.9342
899.8828, 108.9239
900.3649, 109.1070
900.8470, 109.4181
901.3292, 109.6260
901.8113, 109.7173
902.2934, 109.7595
902.7755, 109.7346
903.2576, 109.7103
903.7397, 109.7143
904.2219, 109.7443
904.7040, 109.8207
905.1861, 109.9660
905.6682, 109.9844
906.1503, 109.7766
906.6324, 109.5711
907.1146, 109.4272
907.5967, 109.3040
908.0788, 109.1403
908.5609, 108.9692
909.0430, 108.8702
909.5251, 108.8407
910.0073, 108.9911
910.4894, 109.6525
910.9715, 110.3010
911.4536, 110.3014
911.9357, 109.9032
912.4178, 109.6341
912.9000, 109.6419
913.3821, 109.8459
913.8642, 110.2901
914.3463, 110.7050
914.8284, 110.4175
915.3105, 109.6255
915.7927, 109.3012
916.2748, 109.5622
916.7569, 109.7741
917.2390, 109.5823
917.7211, 109.1957
918.2032, 108.9355
918.6854, 108.8023
919.1675, 108.8684
919.6496, 109.2432
920.1317, 109.4736
920.6138, 109.3953
921.0959, 109.2086
921.5781, 109.0627
922.0602, 108.9531
922.5423, 108.8571
923.0244, 108.7190
923.5065, 108.6947
923.9886, 108.9453
924.4708, 109.1348
924.9529, 109.0622
925.4350, 108.8754
925.9171, 108.7245
926.3992, 108.6415
926.8813, 108.6836
927.3635, 108.9798
927.8456, 109.2811
928.3277, 109.4978
928.8098, 109.6078
929.2919, 109.5751
929.7740, 109.4153
930.2562, 109.1264
930.7383, 108.7096
931.2204, 108.3702
931.7025, 108.3752
932.1846, 108.5600
932.6667, 108.6230
933.1489, 108.5918
933.6310, 108.5659
934.1132, 108.5739
934.5953, 108.6748
935.0774, 108.9356
935.5595, 109.2252
936.0416, 109.1978
936.5237, 108.8503
937.0059, 108.5699
937.4880, 108.3651
937.9701, 108.3004
938.4522, 108.4560
938.9343, 108.6309
939.4164, 108.5673
939.8986, 108.2847
940.3807, 108.1153
940.8628, 108.0160
941.3449, 108.1274
941.8270, 108.7768
942.3091, 109.2717
942.7913, 109.0971
943.2734, 108.6045
943.7555, 108.3370
944.2376, 108.3369
944.7197, 108.4355
945.2018, 108.8077
945.6840, 109.0204
946.1661, 108.7769
946.6482, 108.4090
947.1303, 108.1871
947.6124, 108.1162
948.0945, 108.0991
948.5767, 108.0949
949.0588, 108.1770
949.5409, 108.5262
950.0230, 108.8655
950.5051, 108.9227
950.9872, 108.7610
951.4694, 108.4210
951.9515, 107.9856
952.4336, 107.8009
952.9157, 108.1808
953.3978, 108.7054
953.8799, 108.6848
954.3621, 108.3442
954.8442, 108.3438
955.3263, 108.6757
955.8084, 108.9004
956.2905, 108.8439
956.7726, 108.6410
957.2548, 108.4213
957.7369, 108.2010
958.2190, 108.0375
958.7011, 107.9288
959.1832, 107.9149
959.6653, 108.0108
960.1475, 108.1735
960.6296, 108.4252
961.1117, 108.6315
961.5938, 108.4958
962.0759, 107.9439
962.5580, 107.7842
963.0402, 108.2363
963.5223, 108.6265
964.0044, 108.8898
964.4865, 108.9530
964.9686, 108.6358
965.4507, 108.0822
965.9329, 107.7391
966.4150, 107.6310
966.8971, 107.6665
967.3792, 108.0849
967.8613, 108.3473
968.3434, 107.9695
968.8256, 107.5551
969.3077, 107.8857
969.7898, 108.7923
970.2719, 109.2572
970.7540, 108.7500
971.2361, 108.3293
971.7183, 108.6274
972.2004, 108.9941
972.6825, 108.8618
973.1646, 108.4706
973.6467, 108.2013
974.1288, 108.1533
974.6110, 108.3262
975.0931, 108.8989
975.5752, 109.3916
976.0573, 109.3150
976.5394, 108.9003
977.0215, 108.3849
977.5037, 107.8613
977.9858, 107.4408
978.4679, 107.1716
978.9500, 107.1603
979.4321, 107.6803
979.9142, 108.3609
980.3964, 108.3764
980.8785, 107.9028
981.3606, 107.4998
981.8427, 107.2754
982.3248, 107.3659
982.8069, 107.8584
983.2891, 108.4893
983.7712, 108.9320
984.2533, 109.1713
984.7354, 109.0303
985.2175, 108.4946
985.6996, 108.0989
986.1818, 107.9658
986.6639, 107.9350
987.1460, 107.9103
987.6281, 107.8785
988.1102, 107.8205
988.5923, 107.7493
989.0745, 107.4776
989.5566, 106.7639
990.0387, 106.6284
990.5208, 107.6964
991.0029, 108.8260
991.4850, 108.9814
991.9672, 108.3931
992.4493, 107.9270
992.9314, 107.4771
993.4135, 107.4189
993.8956, 108.2193
994.3777, 108.7827
994.8599, 108.5671
995.3420, 108.1206
995.8241, 107.9637
996.3062, 108.0433
996.7883, 107.9952
997.2704, 107.6701
997.7526, 107.4325
998.2347, 107.2267
998.7168, 107.2365
999.1989, 107.8214
999.6810, 108.5068
1000.163, 108.6561
1000.645, 108.2777
1001.127, 107.9435
1001.609, 107.7620
1002.092, 107.7532
1002.574, 108.2179
1003.056, 108.5783
1003.538, 108.1424
1004.020, 107.3799
1004.502, 107.1709
1004.984, 107.6287
1005.466, 108.0270
1005.949, 107.9376
1006.431, 107.7233
1006.913, 107.5980
1007.395, 107.5325
1007.877, 107.5462
1008.359, 107.5794
1008.841, 107.4569
1009.323, 107.1497
1009.805, 106.9399
1010.288, 107.0851
1010.770, 107.3954
1011.252, 107.7663
1011.734, 108.0798
1012.216, 108.0273
1012.698, 107.6903
1013.180, 107.4870
1013.662, 107.5829
1014.145, 107.7127
1014.627, 107.5233
1015.109, 107.2562
1015.591, 107.5805
1016.073, 108.2304
1016.555, 108.1845
1017.037, 107.4287
1017.519, 106.8997
1018.001, 107.0702
1018.484, 107.6392
1018.966, 108.3977
1019.448, 109.1504
1019.930, 109.0135
1020.412, 108.1023
1020.894, 107.4689
1021.376, 107.2958
1021.858, 107.3749
1022.341, 107.6124
1022.823, 107.8667
1023.305, 107.8813
1023.787, 107.6950
1024.269, 107.7220
1024.751, 107.9783
1025.233, 108.1340
1025.715, 108.1122
1026.198, 108.0957
1026.680, 108.2270
1027.162, 108.3521
1027.644, 108.1313
1028.126, 107.5512
1028.608, 107.3258
1029.090, 107.5816
1029.572, 107.5321
1030.054, 106.8450
1030.536, 106.3294
1031.019, 106.5962
1031.501, 107.3249
1031.983, 107.8781
1032.465, 108.2800
1032.947, 108.2231
1033.429, 107.4020
1033.911, 106.9602
1034.393, 107.4203
1034.876, 107.8002
1035.358, 107.2114
1035.840, 106.1776
1036.322, 106.0066
1036.804, 106.9577
1037.286, 107.5108
1037.768, 107.3835
1038.250, 107.3742
1038.733, 107.8230
1039.215, 108.2322
1039.697, 108.2427
1040.179, 107.9486
1040.661, 107.5422
1041.143, 106.9047
1041.625, 106.5941
1042.107, 107.1211
1042.589, 107.2711
1043.072, 106.2612
1043.554, 105.3215
1044.036, 105.4763
1044.518, 106.3174
1045.000, 106.8621
1045.482, 107.0336
1045.964, 107.0847
1046.446, 107.0522
1046.928, 106.8731
1047.411, 106.2384
1047.893, 105.7251
1048.375, 105.9285
1048.857, 106.5428
1049.339, 106.8143
1049.821, 106.6154
1050.303, 106.3709
1050.785, 106.0895
1051.268, 105.8434
1051.750, 105.5059
1052.232, 105.3489
1052.714, 105.8942
1053.196, 106.7089
1053.678, 106.6808
1054.160, 105.4541
1054.642, 104.7610
1055.125, 105.5613
1055.607, 106.2313
1056.089, 105.8761
1056.571, 105.4194
1057.053, 105.8736
1057.535, 106.7575
1058.017, 106.8265
1058.499, 105.7586
1058.981, 105.0555
1059.464, 105.3815
1059.946, 105.8890
1060.428, 106.4047
1060.910, 106.8075
1061.392, 106.9651
1061.874, 106.9538
1062.356, 106.9289
1062.838, 106.9209
1063.320, 106.9060
1063.803, 106.9128
1064.285, 106.8635
1064.767, 106.6696
1065.249, 106.4541
1065.731, 106.3794
1066.213, 106.3444
1066.695, 106.0545
1067.177, 105.4637
1067.660, 105.1619
1068.142, 105.7200
1068.624, 106.1833
1069.106, 105.9403
1069.588, 105.5709
1070.070, 105.5909
1070.552, 105.8367
1071.034, 105.9518
1071.516, 105.8702
1071.999, 105.7467
1072.481, 105.6151
1072.963, 105.4943
1073.445, 105.4198
1073.927, 105.3332
1074.409, 105.0726
1074.891, 104.8183
1075.373, 104.9825
1075.855, 105.5559
1076.338, 105.8355
1076.820, 105.2918
1077.302, 104.8103
1077.784, 104.9420
1078.266, 105.1799
1078.748, 105.1186
1079.230, 104.9032
1079.712, 104.7402
1080.195, 104.6853
1080.677, 104.8188
1081.159, 105.3247
1081.641, 105.6902
1082.123, 105.5653
1082.605, 105.3223
1083.087, 105.1646
1083.569, 105.0980
1084.052, 105.1847
1084.534, 105.3587
1085.016, 105.3156
1085.498, 104.8458
1085.980, 104.4670
1086.462, 104.4376
1086.944, 104.5376
1087.426, 104.6223
1087.908, 104.7559
1088.391, 105.1832
1088.873, 105.7429
1089.355, 105.8236
1089.837, 105.1393
1090.319, 104.4713
1090.801, 104.0203
1091.283, 103.8053
1091.765, 104.1270
1092.248, 104.4597
1092.730, 104.0745
1093.212, 103.2735
1093.694, 103.0630
1094.176, 103.7901
1094.658, 104.1474
1095.140, 103.1295
1095.622, 102.3342
1096.104, 102.7989
1096.587, 103.5073
1097.069, 103.5476
1097.551, 103.1381
1098.033, 102.8928
1098.515, 102.9281
1098.997, 102.8039
1099.479, 102.0646
1099.961, 101.5980
1100.443, 102.0342
1100.926, 102.5112
1101.408, 102.3587
1101.890, 101.8647
1102.372, 101.4911
1102.854, 101.2962
1103.336, 101.2325
1103.818, 101.4433
1104.300, 101.5610
1104.783, 101.4456
1105.265, 101.2855
1105.747, 101.1936
1106.229, 101.1066
1106.711, 100.8980
1107.193, 100.5944
1107.675, 100.4275
1108.157, 100.4609
1108.640, 100.5624
1109.122, 100.9182
1109.604, 101.0862
1110.086, 100.6710
1110.568, 100.1711
1111.050, 100.0476
1111.532, 100.2507
1112.014, 100.5685
1112.496, 101.1560
1112.979, 101.4065
1113.461, 100.9400
1113.943, 100.6224
1114.425, 100.8483
1114.907, 101.1008
1115.389, 101.0295
1115.871, 100.7174
1116.353, 100.3025
1116.835, 99.72109
1117.318, 99.42429
1117.800, 99.59086
1118.282, 99.71665
1118.764, 99.74214
1119.246, 99.68291
1119.728, 99.44605
1120.210, 99.22975
1120.692, 99.38176
1121.175, 99.89201
1121.657, 100.1937
1122.139, 100.1929
1122.621, 100.2752
1123.103, 100.6010
1123.585, 100.6652
1124.067, 100.1224
1124.549, 99.48291
1125.031, 99.31867
1125.514, 99.54028
1125.996, 99.74746
1126.478, 99.95049
1126.960, 100.0503
1127.442, 99.99728
1127.924, 100.0751
1128.406, 100.4143
1128.888, 100.7331
1129.370, 100.8302
1129.853, 100.6998
1130.335, 100.2824
1130.817, 99.57776
1131.299, 98.91207
1131.781, 98.26026
1132.263, 98.24409
1132.745, 99.03325
1133.227, 99.72072
1133.710, 99.78984
1134.192, 99.44146
1134.674, 98.87308
1135.156, 98.18951
1135.638, 97.83889
1136.120, 97.78853
1136.602, 97.74749
1137.084, 97.69926
1137.567, 97.94138
1138.049, 98.57854
1138.531, 99.05672
1139.013, 98.76086
1139.495, 98.18455
1139.977, 98.40662
1140.459, 99.10434
1140.941, 99.38542
1141.423, 99.26531
1141.906, 98.95615
1142.388, 98.56898
1142.870, 98.38886
1143.352, 98.61512
1143.834, 98.96397
1144.316, 99.20391
1144.798, 99.27514
1145.280, 98.91824
1145.762, 98.39515
1146.245, 98.25367
1146.727, 98.47763
1147.209, 98.74228
1147.691, 98.91899
1148.173, 98.92563
1148.655, 98.50739
1149.137, 98.11037
1149.619, 98.24875
1150.102, 98.52664
1150.584, 98.43528
1151.066, 98.13303
1151.548, 98.04621
1152.030, 98.23000
1152.512, 98.36085
1152.994, 98.34792
1153.476, 98.14969
1153.958, 97.37606
1154.441, 96.81749
1154.923, 97.29336
1155.405, 98.08215
1155.887, 98.30887
1156.369, 98.02009
1156.851, 97.71602
1157.333, 97.47456
1157.815, 97.28350
1158.297, 97.15938
1158.780, 97.06135
1159.262, 96.85959
1159.744, 96.79680
1160.226, 97.27869
1160.708, 97.92658
1161.190, 97.94453
1161.672, 97.26538
1162.154, 96.91410
1162.637, 97.16972
1163.119, 97.21043
1163.601, 96.72639
1164.083, 96.47799
1164.565, 96.91124
1165.047, 97.52055
1165.529, 97.82056
1166.011, 97.83146
1166.494, 97.59377
1166.976, 97.01829
1167.458, 96.62350
1167.940, 96.40017
1168.422, 96.44519
1168.904, 96.83145
1169.386, 97.25570
1169.868, 97.55782
1170.350, 97.59204
1170.833, 96.95747
1171.315, 95.88040
1171.797, 95.89214
1172.279, 96.86095
1172.761, 97.23982
1173.243, 96.88892
1173.725, 96.48550
1174.207, 96.29793
1174.689, 96.33012
1175.172, 96.65038
1175.654, 96.99265
1176.136, 96.81565
1176.618, 96.34941
1177.100, 96.07375
1177.582, 95.98706
1178.064, 96.00460
1178.546, 96.10461
1179.029, 96.33536
1179.511, 96.73714
1179.993, 96.99953
1180.475, 96.69020
1180.957, 96.29025
1181.439, 96.28422
1181.921, 96.46227
1182.403, 96.63897
1182.885, 96.74045
1183.368, 96.70125
1183.850, 96.50166
1184.332, 96.10737
1184.814, 95.29945
1185.296, 94.67068
1185.778, 94.48191
1186.260, 94.52449
1186.742, 94.72382
1187.225, 95.04842
1187.707, 95.65079
1188.189, 96.35259
1188.671, 96.52819
1189.153, 95.95976
1189.635, 95.49437
1190.117, 95.19609
1190.599, 94.98409
1191.082, 94.88253
1191.564, 94.81243
1192.046, 94.71969
1192.528, 94.65757
1193.010, 94.75191
1193.492, 94.95090
1193.974, 94.76267
1194.456, 94.06111
1194.938, 93.62688
1195.421, 93.49661
1195.903, 93.70081
1196.385, 94.30652
1196.867, 94.82690
1197.349, 94.89059
1197.831, 94.68613
1198.313, 94.48637
1198.795, 94.33240
1199.277, 94.53966
1199.760, 94.99913
1200.242, 95.08077
1200.724, 94.77086
1201.206, 94.51345
1201.688, 94.48159
1202.170, 94.60307
1202.652, 94.88811
1203.134, 95.11662
1203.617, 94.94656
1204.099, 94.59557
1204.581, 94.29389
1205.063, 94.09084
1205.545, 94.11501
1206.027, 94.29086
1206.509, 94.30656
1206.991, 94.03844
1207.474, 93.76191
1207.956, 93.56139
1208.438, 93.47164
1208.920, 93.69205
1209.402, 93.84836
1209.884, 93.53735
1210.366, 93.02647
1210.848, 92.73518
1211.330, 92.67892
1211.813, 92.64539
1212.295, 92.65356
1212.777, 92.59977
1213.259, 92.35460
1213.741, 92.26939
1214.223, 92.60050
1214.705, 92.83077
1215.187, 92.49667
1215.669, 91.98352
1216.152, 92.06898
1216.634, 92.69001
1217.116, 92.67809
1217.598, 91.95577
1218.080, 91.59300
1218.562, 91.70602
1219.044, 91.92908
1219.526, 92.13933
1220.009, 92.28577
1220.491, 92.33460
1220.973, 92.26054
1221.455, 91.83585
1221.937, 91.33595
1222.419, 91.63656
1222.901, 92.41779
1223.383, 92.86247
1223.865, 92.87773
1224.348, 92.56596
1224.830, 92.00330
1225.312, 91.59141
1225.794, 91.61826
1226.276, 91.85648
1226.758, 92.22829
1227.240, 92.63501
1227.722, 93.19279
1228.204, 93.58517
1228.687, 93.32712
1229.169, 92.53985
1229.651, 91.68305
1230.133, 90.77586
1230.615, 90.21224
1231.097, 90.24595
1231.579, 90.36071
1232.061, 90.51343
1232.544, 90.65835
1233.026, 90.78536
1233.508, 90.88396
1233.990, 90.93612
1234.472, 90.95307
1234.954, 90.97424
1235.436, 90.99383
1235.918, 91.06979
1236.401, 91.20958
1236.883, 91.35505
1237.365, 91.50060
1237.847, 91.43186
1238.329, 91.01909
1238.811, 90.67001
1239.293, 90.95971
1239.775, 91.44180
1240.257, 90.97348
1240.740, 90.06726
1241.222, 90.02041
1241.704, 90.57822
1242.186, 90.82339
1242.668, 90.65579
1243.150, 90.58723
1243.632, 90.84904
1244.114, 91.10998
1244.596, 91.18710
1245.079, 91.14604
1245.561, 90.90658
1246.043, 90.68736
1246.525, 90.74299
1247.007, 90.89902
1247.489, 90.87544
1247.971, 90.67525
1248.453, 90.49975
1248.936, 90.41100
1249.418, 90.23413
1249.900, 89.88509
1250.382, 89.61203
1250.864, 89.50575
1251.346, 89.37048
1251.828, 89.01623
1252.310, 88.78493
1252.792, 89.21105
1253.275, 90.06026
1253.757, 90.26875
1254.239, 89.91137
1254.721, 89.99902
1255.203, 90.50474
1255.685, 90.81618
1256.167, 90.79807
1256.649, 90.57002
1257.131, 90.19155
1257.614, 89.82052
1258.096, 89.59208
1258.578, 89.47523
1259.060, 89.47057
1259.542, 89.52388
1260.024, 89.61264
1260.506, 89.68551
1260.988, 89.61449
1261.471, 89.44625
1261.953, 89.44036
1262.435, 89.71050
1262.917, 89.92809
1263.399, 90.07461
1263.881, 90.06689
1264.363, 89.68272
1264.845, 89.38599
1265.328, 89.49107
1265.810, 89.69952
1266.292, 89.63895
1266.774, 89.41331
1267.256, 89.49149
1267.738, 89.93301
1268.220, 90.01282
1268.702, 89.71838
1269.184, 89.45816
1269.667, 89.30515
1270.149, 89.11559
1270.631, 88.82445
1271.113, 88.63969
1271.595, 88.81816
1272.077, 89.05994
1272.559, 88.78871
1273.041, 88.39294
1273.523, 88.54665
1274.006, 88.96389
1274.488, 89.09472
1274.970, 88.95576
1275.452, 88.86333
1275.934, 88.90285
1276.416, 88.90843
1276.898, 88.65757
1277.380, 88.61000
1277.863, 89.07279
1278.345, 89.53828
1278.827, 89.84287
1279.309, 89.96803
1279.791, 89.84697
1280.273, 89.56604
1280.755, 89.27022
1281.237, 88.96410
1281.719, 89.15946
1282.202, 89.92119
1282.684, 90.11811
1283.166, 89.64660
1283.648, 89.29832
1284.130, 89.31990
1284.612, 89.42879
1285.094, 89.43356
1285.576, 89.39575
1286.059, 89.46399
1286.541, 89.46520
1287.023, 89.22796
1287.505, 88.76567
##END=



