##NAMES=Phlogopite
##RRUFFID=R050485
##IDEAL CHEMISTRY=KMg_3_(Si_3_Al)O_10_(OH)_2_
##LOCALITY=Libby, Montana, USA
##OWNER=RRUFF
##SOURCE=California Institute of Technology
##DESCRIPTION=Green micaceous fragment
##STATUS=The identification of this mineral has been confirmed by X-ray diffraction and chemical analysis
##URL=rruff.info/R050485
##MEASURED CHEMISTRY=(K_0.92_Na_0.06_Ca_0.02_)(Mg_0.80_Fe^2+^_0.17_Ti_0.02_Cr_0.01_)_3_(Si_2.83_Al_1.17_)O_10_(OH)_2_
156.090, 2558.846
156.572, 2538.623
157.054, 2518.975
157.536, 2517.057
158.018, 2532.176
158.501, 2555.759
158.983, 2584.040
159.465, 2616.286
159.947, 2641.480
160.429, 2656.923
160.911, 2667.640
161.393, 2674.375
161.875, 2677.829
162.358, 2684.237
162.840, 2700.607
163.322, 2726.080
163.804, 2743.182
164.286, 2743.251
164.768, 2740.106
165.250, 2747.216
165.732, 2765.250
166.214, 2782.556
166.697, 2789.489
167.179, 2786.482
167.661, 2780.826
168.143, 2768.768
168.625, 2756.749
169.107, 2751.347
169.589, 2753.206
170.071, 2759.038
170.553, 2768.220
171.036, 2779.828
171.518, 2788.483
172.000, 2793.368
172.482, 2794.841
172.964, 2790.069
173.446, 2777.492
173.928, 2769.777
174.411, 2784.116
174.893, 2814.659
175.375, 2836.317
175.857, 2835.631
176.339, 2826.733
176.821, 2828.275
177.303, 2843.016
177.785, 2860.870
178.267, 2871.081
178.749, 2876.727
179.232, 2889.570
179.714, 2920.747
180.196, 2957.938
180.678, 2981.054
181.160, 2985.568
181.642, 2989.415
182.124, 3010.908
182.607, 3044.580
183.089, 3075.451
183.571, 3094.148
184.053, 3109.216
184.535, 3136.594
185.017, 3180.943
185.499, 3223.775
185.981, 3245.670
186.463, 3253.222
186.945, 3261.635
187.428, 3275.199
187.910, 3292.498
188.392, 3312.898
188.874, 3338.133
189.356, 3360.502
189.838, 3371.565
190.320, 3374.867
190.802, 3378.250
191.285, 3395.222
191.767, 3410.473
192.249, 3392.636
192.731, 3331.037
193.213, 3268.234
193.695, 3244.704
194.177, 3245.208
194.659, 3235.592
195.141, 3195.130
195.624, 3141.175
196.106, 3103.804
196.588, 3088.323
197.070, 3073.129
197.552, 3037.763
198.034, 2990.774
198.516, 2949.365
198.998, 2923.769
199.480, 2905.081
199.963, 2879.003
200.445, 2843.868
200.927, 2807.502
201.409, 2772.844
201.891, 2740.819
202.373, 2715.372
202.855, 2702.321
203.337, 2694.509
203.820, 2681.164
204.302, 2661.021
204.784, 2641.503
205.266, 2627.319
205.748, 2617.286
206.230, 2610.040
206.712, 2609.487
207.194, 2609.246
207.676, 2598.209
208.159, 2574.052
208.641, 2553.916
209.123, 2554.201
209.605, 2565.200
210.087, 2569.047
210.569, 2558.248
211.051, 2541.524
211.533, 2527.993
212.016, 2517.830
212.498, 2508.994
212.980, 2500.610
213.462, 2492.809
213.944, 2485.550
214.426, 2476.974
214.908, 2470.758
215.390, 2472.687
215.872, 2482.982
216.355, 2491.585
216.837, 2492.234
217.319, 2487.997
217.801, 2485.195
218.283, 2485.889
218.765, 2486.333
219.247, 2483.675
219.730, 2477.964
220.212, 2469.697
220.694, 2456.820
221.176, 2442.644
221.658, 2433.438
222.140, 2431.348
222.622, 2431.209
223.104, 2429.852
223.586, 2427.422
224.068, 2424.681
224.551, 2421.212
225.033, 2418.274
225.515, 2418.442
225.997, 2423.880
226.479, 2427.730
226.961, 2423.738
227.443, 2414.266
227.925, 2408.797
228.408, 2412.089
228.890, 2419.530
229.372, 2422.635
229.854, 2420.446
230.336, 2417.559
230.818, 2416.553
231.300, 2416.365
231.782, 2413.151
232.264, 2403.838
232.747, 2394.783
233.229, 2400.208
233.711, 2424.708
234.193, 2439.218
234.675, 2424.511
235.157, 2395.587
235.639, 2378.836
236.121, 2382.133
236.604, 2394.640
237.086, 2401.782
237.568, 2403.035
238.050, 2404.076
238.532, 2408.009
239.014, 2411.510
239.496, 2408.123
239.978, 2396.059
240.460, 2385.218
240.943, 2389.547
241.425, 2412.993
241.907, 2425.873
242.389, 2418.637
242.871, 2404.253
243.353, 2392.693
243.835, 2385.585
244.317, 2383.501
244.799, 2388.708
245.282, 2403.022
245.764, 2408.657
246.246, 2396.405
246.728, 2382.998
247.210, 2380.266
247.692, 2387.774
248.174, 2397.896
248.656, 2405.158
249.139, 2409.449
249.621, 2410.225
250.103, 2402.843
250.585, 2396.955
251.067, 2398.016
251.549, 2404.474
252.031, 2411.698
252.513, 2417.098
252.995, 2420.519
253.478, 2420.266
253.960, 2410.602
254.442, 2404.104
254.924, 2404.955
255.406, 2411.111
255.888, 2418.831
256.370, 2426.166
256.852, 2433.858
257.335, 2444.785
257.817, 2471.521
258.299, 2486.526
258.781, 2477.415
259.263, 2458.900
259.745, 2446.875
260.227, 2447.738
260.709, 2458.554
261.191, 2474.308
261.674, 2508.725
262.156, 2525.746
262.638, 2512.019
263.120, 2489.691
263.602, 2476.081
264.084, 2475.685
264.566, 2482.358
265.048, 2487.306
265.530, 2488.997
266.013, 2492.756
266.495, 2501.989
266.977, 2510.382
267.459, 2512.463
267.941, 2508.978
268.423, 2506.283
268.905, 2511.680
269.388, 2526.588
269.870, 2539.484
270.352, 2550.613
270.834, 2559.261
271.316, 2563.765
271.798, 2565.280
272.280, 2566.633
272.762, 2570.113
273.244, 2575.420
273.727, 2579.161
274.209, 2577.441
274.691, 2579.831
275.173, 2594.799
275.655, 2615.137
276.137, 2628.658
276.619, 2628.353
277.101, 2618.104
277.583, 2605.074
278.066, 2584.912
278.548, 2573.329
279.030, 2583.886
279.512, 2603.027
279.994, 2616.532
280.476, 2619.429
280.958, 2617.053
281.440, 2616.783
281.922, 2619.193
282.405, 2617.086
282.887, 2605.138
283.369, 2589.078
283.851, 2574.035
284.333, 2559.919
284.815, 2549.332
285.297, 2546.719
285.779, 2550.282
286.262, 2549.900
286.744, 2541.335
287.226, 2530.500
287.708, 2525.702
288.190, 2527.122
288.672, 2525.112
289.154, 2512.655
289.636, 2494.914
290.118, 2481.245
290.601, 2473.472
291.083, 2467.851
291.565, 2459.624
292.047, 2449.140
292.529, 2444.592
293.011, 2456.849
293.493, 2469.110
293.975, 2461.635
294.458, 2435.283
294.940, 2411.483
295.422, 2406.198
295.904, 2418.484
296.386, 2429.375
296.868, 2439.294
297.350, 2447.472
297.832, 2452.229
298.315, 2454.881
298.797, 2459.172
299.279, 2467.635
299.761, 2477.935
300.243, 2481.288
300.725, 2468.970
301.207, 2460.784
301.689, 2460.876
302.171, 2465.471
302.654, 2471.315
303.136, 2477.120
303.618, 2481.085
304.100, 2479.288
304.582, 2463.474
305.064, 2458.122
305.546, 2472.444
306.028, 2489.003
306.510, 2495.575
306.993, 2491.441
307.475, 2484.638
307.957, 2483.963
308.439, 2490.711
308.921, 2493.437
309.403, 2485.606
309.885, 2479.781
310.367, 2481.966
310.849, 2489.549
311.332, 2496.711
311.814, 2500.624
312.296, 2500.642
312.778, 2492.262
313.260, 2467.695
313.742, 2448.516
314.224, 2441.692
314.707, 2443.204
315.189, 2449.398
315.671, 2459.759
316.153, 2471.747
316.635, 2483.050
317.117, 2494.282
317.599, 2499.735
318.081, 2490.133
318.563, 2479.175
319.046, 2481.603
319.528, 2499.970
320.010, 2516.679
320.492, 2516.504
320.974, 2503.769
321.456, 2494.661
321.938, 2491.009
322.420, 2493.924
322.902, 2508.653
323.385, 2533.325
323.867, 2553.531
324.349, 2564.028
324.831, 2568.400
325.313, 2570.134
325.795, 2569.546
326.277, 2567.219
326.759, 2562.399
327.241, 2555.875
327.724, 2554.059
328.206, 2561.563
328.688, 2569.017
329.170, 2571.028
329.652, 2569.325
330.134, 2568.789
330.616, 2572.029
331.098, 2577.213
331.581, 2578.896
332.063, 2570.206
332.545, 2566.973
333.027, 2574.844
333.509, 2586.329
333.991, 2593.975
334.473, 2595.930
334.955, 2595.000
335.438, 2594.671
335.920, 2594.688
336.402, 2596.235
336.884, 2601.052
337.366, 2605.643
337.848, 2607.498
338.330, 2607.477
338.812, 2607.899
339.294, 2609.333
339.777, 2612.699
340.259, 2627.139
340.741, 2665.210
341.223, 2695.902
341.705, 2706.549
342.187, 2706.912
342.669, 2709.472
343.151, 2719.230
343.634, 2732.473
344.116, 2743.806
344.598, 2753.169
345.080, 2761.563
345.562, 2768.177
346.044, 2774.755
346.526, 2782.065
347.008, 2790.080
347.490, 2801.245
347.973, 2821.498
348.455, 2846.363
348.937, 2861.115
349.419, 2861.344
349.901, 2857.982
350.383, 2862.382
350.865, 2872.894
351.347, 2879.218
351.829, 2878.065
352.312, 2873.119
352.794, 2865.725
353.276, 2856.701
353.758, 2849.828
354.240, 2847.402
354.722, 2848.897
355.204, 2851.978
355.686, 2864.958
356.168, 2869.313
356.651, 2854.949
357.133, 2831.393
357.615, 2809.342
358.097, 2792.470
358.579, 2783.091
359.061, 2786.635
359.543, 2816.048
360.026, 2827.100
360.508, 2807.628
360.990, 2782.890
361.472, 2764.698
361.954, 2754.550
362.436, 2750.403
362.918, 2751.869
363.400, 2758.186
363.882, 2760.292
364.365, 2757.041
364.847, 2750.760
365.329, 2738.135
365.811, 2724.578
366.293, 2717.986
366.775, 2722.502
367.257, 2730.365
367.739, 2729.178
368.221, 2717.786
368.704, 2710.263
369.186, 2715.327
369.668, 2720.933
370.150, 2714.423
370.632, 2695.337
371.114, 2677.363
371.596, 2669.683
372.078, 2667.610
372.560, 2660.864
373.043, 2647.600
373.525, 2634.568
374.007, 2626.467
374.489, 2623.586
374.971, 2624.991
375.453, 2640.035
375.935, 2650.652
376.417, 2641.073
376.900, 2618.196
377.382, 2601.116
377.864, 2599.232
378.346, 2607.024
378.828, 2611.016
379.310, 2607.684
379.792, 2605.154
380.274, 2600.094
380.757, 2598.059
381.239, 2609.216
381.721, 2631.811
382.203, 2648.473
382.685, 2637.814
383.167, 2596.138
383.649, 2572.594
384.131, 2581.510
384.613, 2594.827
385.095, 2609.068
385.578, 2621.385
386.060, 2627.123
386.542, 2622.593
387.024, 2614.137
387.506, 2614.893
387.988, 2627.093
388.470, 2637.478
388.953, 2643.829
389.435, 2645.533
389.917, 2639.472
390.399, 2625.008
390.881, 2614.168
391.363, 2619.598
391.845, 2633.196
392.327, 2633.407
392.809, 2614.801
393.292, 2598.546
393.774, 2605.301
394.256, 2632.620
394.738, 2651.346
395.220, 2654.998
395.702, 2654.638
396.184, 2656.113
396.666, 2658.488
397.148, 2657.959
397.631, 2652.291
398.113, 2645.342
398.595, 2646.267
399.077, 2667.359
399.559, 2677.250
400.041, 2668.447
400.523, 2654.140
401.005, 2641.571
401.487, 2632.777
401.970, 2629.104
402.452, 2633.771
402.934, 2646.183
403.416, 2647.078
403.898, 2620.109
404.380, 2604.472
404.862, 2621.034
405.344, 2652.027
405.827, 2673.578
406.309, 2676.174
406.791, 2670.553
407.273, 2669.922
407.755, 2674.218
408.237, 2676.402
408.719, 2673.473
409.201, 2669.560
409.684, 2670.409
410.166, 2675.691
410.648, 2676.986
411.130, 2665.813
411.612, 2652.266
412.094, 2649.489
412.576, 2657.531
413.058, 2667.050
413.540, 2672.115
414.022, 2673.530
414.505, 2675.757
414.987, 2678.040
415.469, 2681.875
415.951, 2693.171
416.433, 2703.723
416.915, 2700.446
417.397, 2681.012
417.879, 2659.363
418.362, 2655.553
418.844, 2676.492
419.326, 2683.558
419.808, 2656.169
420.290, 2634.871
420.772, 2639.053
421.254, 2659.623
421.736, 2676.698
422.219, 2678.832
422.701, 2673.457
423.183, 2676.431
423.665, 2690.056
424.147, 2698.471
424.629, 2693.409
425.111, 2683.674
425.593, 2679.771
426.075, 2682.591
426.558, 2681.418
427.040, 2666.263
427.522, 2645.523
428.004, 2631.138
428.486, 2624.466
428.968, 2626.871
429.450, 2642.961
429.932, 2670.260
430.414, 2683.825
430.897, 2674.956
431.379, 2664.219
431.861, 2657.341
432.343, 2652.644
432.825, 2646.734
433.307, 2638.703
433.789, 2631.891
434.271, 2631.738
434.754, 2640.696
435.236, 2647.668
435.718, 2651.026
436.200, 2653.967
436.682, 2658.521
437.164, 2663.624
437.646, 2666.939
438.128, 2667.402
438.611, 2665.071
439.093, 2659.871
439.575, 2651.588
440.057, 2641.155
440.539, 2625.011
441.021, 2610.145
441.503, 2605.631
441.985, 2612.588
442.467, 2617.817
442.949, 2615.102
443.432, 2607.563
443.914, 2598.268
444.396, 2587.702
444.878, 2578.667
445.360, 2573.541
445.842, 2571.703
446.324, 2568.247
446.806, 2556.679
447.289, 2551.644
447.771, 2564.536
448.253, 2581.662
448.735, 2586.453
449.217, 2575.198
449.699, 2557.179
450.181, 2542.744
450.663, 2531.658
451.146, 2526.664
451.628, 2539.802
452.110, 2544.927
452.592, 2519.513
453.074, 2482.479
453.556, 2469.595
454.038, 2503.019
454.520, 2545.996
455.002, 2544.293
455.485, 2501.532
455.967, 2476.418
456.449, 2488.815
456.931, 2516.810
457.413, 2539.037
457.895, 2556.130
458.377, 2560.039
458.859, 2533.475
459.341, 2505.419
459.824, 2501.805
460.306, 2518.521
460.788, 2536.363
461.270, 2545.318
461.752, 2546.021
462.234, 2539.656
462.716, 2512.890
463.198, 2499.546
463.681, 2510.807
464.163, 2526.984
464.645, 2534.736
465.127, 2533.341
465.609, 2529.549
466.091, 2529.238
466.573, 2530.924
467.055, 2526.391
467.538, 2511.778
468.020, 2501.678
468.502, 2507.940
468.984, 2519.382
469.466, 2521.963
469.948, 2511.696
470.430, 2504.068
470.912, 2513.309
471.394, 2529.712
471.876, 2532.918
472.359, 2519.794
472.841, 2507.329
473.323, 2511.322
473.805, 2530.749
474.287, 2536.536
474.769, 2512.454
475.251, 2496.550
475.733, 2506.980
476.216, 2527.266
476.698, 2535.282
477.180, 2525.493
477.662, 2511.400
478.144, 2510.368
478.626, 2523.875
479.108, 2536.198
479.590, 2547.557
480.073, 2557.293
480.555, 2566.688
481.037, 2574.139
481.519, 2575.699
482.001, 2566.773
482.483, 2559.110
482.965, 2566.128
483.447, 2584.615
483.929, 2602.592
484.412, 2618.097
484.894, 2628.240
485.376, 2627.257
485.858, 2613.034
486.340, 2608.250
486.822, 2616.953
487.304, 2631.430
487.786, 2654.943
488.268, 2680.224
488.751, 2691.400
489.233, 2681.629
489.715, 2665.049
490.197, 2670.131
490.679, 2708.491
491.161, 2729.761
491.643, 2715.265
492.125, 2698.488
492.608, 2693.991
493.090, 2698.963
493.572, 2704.736
494.054, 2707.250
494.536, 2708.821
495.018, 2712.885
495.500, 2719.163
495.982, 2723.751
496.465, 2723.875
496.947, 2724.986
497.429, 2737.297
497.911, 2763.565
498.393, 2778.849
498.875, 2768.015
499.357, 2756.941
499.839, 2762.966
500.321, 2782.587
500.803, 2806.703
501.286, 2831.208
501.768, 2852.055
502.250, 2857.886
502.732, 2839.698
503.214, 2830.440
503.696, 2841.681
504.178, 2854.226
504.660, 2855.601
505.143, 2849.717
505.625, 2850.738
506.107, 2871.365
506.589, 2896.933
507.071, 2903.383
507.553, 2892.260
508.035, 2884.449
508.517, 2886.468
509.000, 2895.787
509.482, 2911.560
509.964, 2936.511
510.446, 2952.100
510.928, 2947.962
511.410, 2941.824
511.892, 2946.464
512.374, 2958.406
512.856, 2967.633
513.339, 2969.038
513.821, 2964.784
514.303, 2958.626
514.785, 2948.832
515.267, 2942.618
515.749, 2943.776
516.231, 2945.902
516.713, 2944.028
517.195, 2940.161
517.678, 2941.221
518.160, 2955.340
518.642, 2970.463
519.124, 2968.958
519.606, 2953.979
520.088, 2944.469
520.570, 2947.297
521.052, 2956.073
521.534, 2963.355
522.017, 2969.946
522.499, 2969.978
522.981, 2954.720
523.463, 2941.544
523.945, 2941.271
524.427, 2949.155
524.909, 2956.408
525.391, 2959.110
525.874, 2957.654
526.356, 2950.316
526.838, 2934.999
527.320, 2929.277
527.802, 2944.126
528.284, 2956.594
528.766, 2947.675
529.248, 2926.267
529.731, 2915.268
530.213, 2931.105
530.695, 2945.623
531.177, 2927.909
531.659, 2891.956
532.141, 2875.726
532.623, 2889.908
533.105, 2913.079
533.588, 2921.342
534.070, 2913.087
534.552, 2905.346
535.034, 2895.785
535.516, 2889.313
535.998, 2891.195
536.480, 2895.277
536.962, 2892.272
537.444, 2879.793
537.927, 2867.198
538.409, 2866.176
538.891, 2875.217
539.373, 2882.457
539.855, 2887.559
540.337, 2889.813
540.819, 2886.630
541.301, 2880.667
541.783, 2878.857
542.266, 2885.799
542.748, 2888.818
543.230, 2880.322
543.712, 2866.777
544.194, 2853.963
544.676, 2843.697
545.158, 2839.197
545.640, 2844.218
546.122, 2856.602
546.605, 2861.193
547.087, 2851.489
547.569, 2845.546
548.051, 2850.576
548.533, 2857.372
549.015, 2856.511
549.497, 2848.440
549.979, 2845.066
550.461, 2861.688
550.944, 2883.622
551.426, 2883.679
551.908, 2863.198
552.390, 2845.912
552.872, 2842.835
553.354, 2847.406
553.836, 2847.654
554.318, 2841.740
554.801, 2835.507
555.283, 2829.151
555.765, 2822.292
556.247, 2814.447
556.729, 2806.009
557.211, 2798.453
557.693, 2792.768
558.175, 2785.922
558.657, 2770.609
559.140, 2746.138
559.622, 2728.632
560.104, 2722.961
560.586, 2720.140
561.068, 2715.030
561.550, 2707.408
562.032, 2695.796
562.515, 2673.357
562.997, 2654.662
563.479, 2651.924
563.961, 2655.900
564.443, 2651.546
564.925, 2635.936
565.407, 2616.784
565.889, 2601.936
566.371, 2591.100
566.854, 2577.659
567.336, 2557.971
567.818, 2541.561
568.300, 2533.756
568.782, 2527.891
569.264, 2516.794
569.746, 2499.764
570.228, 2484.502
570.710, 2476.983
571.193, 2473.622
571.675, 2469.163
572.157, 2463.422
572.639, 2456.930
573.121, 2449.496
573.603, 2442.427
574.085, 2438.635
574.567, 2441.596
575.049, 2440.068
575.532, 2435.634
576.014, 2425.483
576.496, 2401.411
576.978, 2371.533
577.460, 2351.687
577.942, 2349.528
578.424, 2356.892
578.906, 2367.254
579.388, 2379.416
579.871, 2377.039
580.353, 2352.739
580.835, 2328.368
581.317, 2322.560
581.799, 2332.177
582.281, 2334.983
582.763, 2326.386
583.245, 2316.725
583.728, 2307.193
584.210, 2299.092
584.692, 2295.656
585.174, 2296.039
585.656, 2294.117
586.138, 2283.985
586.620, 2268.074
587.102, 2257.160
587.585, 2252.177
588.067, 2249.113
588.549, 2248.421
589.031, 2247.986
589.513, 2245.464
589.995, 2240.976
590.477, 2237.244
590.959, 2234.893
591.442, 2233.765
591.924, 2233.936
592.406, 2235.234
592.888, 2238.557
593.370, 2244.129
593.852, 2247.290
594.334, 2239.702
594.816, 2218.659
595.299, 2210.695
595.781, 2227.790
596.263, 2241.620
596.745, 2243.504
597.227, 2237.141
597.709, 2223.330
598.191, 2200.835
598.673, 2187.408
599.155, 2202.916
599.638, 2230.045
600.120, 2240.950
600.602, 2235.420
601.084, 2229.219
601.566, 2231.138
602.048, 2237.205
602.530, 2237.691
603.012, 2229.918
603.494, 2221.962
603.977, 2211.330
604.459, 2203.030
604.941, 2201.027
605.423, 2202.894
605.905, 2203.525
606.387, 2200.642
606.869, 2197.229
607.351, 2194.842
607.833, 2194.400
608.316, 2201.900
608.798, 2219.090
609.280, 2230.221
609.762, 2221.498
610.244, 2197.450
610.726, 2182.693
611.208, 2185.714
611.690, 2186.779
612.172, 2181.640
612.655, 2176.760
613.137, 2177.085
613.619, 2182.196
614.101, 2188.892
614.583, 2195.894
615.065, 2202.652
615.547, 2209.076
616.029, 2214.869
616.512, 2217.349
616.994, 2215.805
617.476, 2210.781
617.958, 2200.218
618.440, 2184.575
618.922, 2181.213
619.404, 2205.667
619.886, 2221.674
620.369, 2215.356
620.851, 2200.138
621.333, 2186.506
621.815, 2177.553
622.297, 2175.714
622.779, 2186.106
623.261, 2202.292
623.743, 2207.333
624.226, 2200.879
624.708, 2195.885
625.190, 2196.399
625.672, 2199.491
626.154, 2202.389
626.636, 2205.151
627.118, 2205.942
627.600, 2203.973
628.082, 2200.892
628.565, 2196.235
629.047, 2191.358
629.529, 2186.026
630.011, 2181.170
630.493, 2181.992
630.975, 2197.739
631.457, 2222.264
631.939, 2232.037
632.421, 2225.774
632.904, 2215.024
633.386, 2200.707
633.868, 2187.800
634.350, 2183.940
634.832, 2189.911
635.314, 2196.910
635.796, 2205.309
636.278, 2213.601
636.760, 2221.250
637.243, 2228.247
637.725, 2234.948
638.207, 2241.310
638.689, 2246.015
639.171, 2245.712
639.653, 2242.316
640.135, 2247.104
640.617, 2261.927
641.099, 2272.548
641.582, 2270.614
642.064, 2264.429
642.546, 2268.401
643.028, 2285.176
643.510, 2295.211
643.992, 2292.784
644.474, 2287.602
644.956, 2280.445
645.439, 2275.224
645.921, 2279.946
646.403, 2296.073
646.885, 2311.422
647.367, 2311.069
647.849, 2298.267
648.331, 2288.872
648.813, 2282.905
649.295, 2280.798
649.778, 2283.059
650.260, 2288.903
650.742, 2296.865
651.224, 2306.503
651.706, 2320.425
652.188, 2347.073
652.670, 2369.333
653.153, 2375.257
653.635, 2372.730
654.117, 2375.010
654.599, 2385.586
655.081, 2394.956
655.563, 2390.871
656.045, 2377.567
656.527, 2371.014
657.009, 2371.875
657.492, 2373.651
657.974, 2373.575
658.456, 2373.046
658.938, 2374.073
659.420, 2376.458
659.902, 2381.583
660.384, 2389.805
660.866, 2400.306
661.348, 2417.201
661.831, 2434.181
662.313, 2440.665
662.795, 2434.831
663.277, 2430.188
663.759, 2440.983
664.241, 2461.080
664.723, 2474.854
665.205, 2482.392
665.688, 2492.489
666.170, 2509.052
666.652, 2528.910
667.134, 2548.308
667.616, 2568.781
668.098, 2581.250
668.580, 2576.202
669.062, 2575.046
669.544, 2586.157
670.027, 2602.978
670.509, 2619.382
670.991, 2633.708
671.473, 2644.428
671.955, 2651.199
672.437, 2653.271
672.919, 2642.742
673.401, 2624.145
673.883, 2624.552
674.366, 2654.932
674.848, 2692.219
675.330, 2707.341
675.812, 2698.692
676.294, 2692.374
676.776, 2690.503
677.258, 2687.967
677.740, 2682.540
678.222, 2676.785
678.705, 2673.361
679.187, 2672.251
679.669, 2670.803
680.151, 2667.551
680.633, 2663.619
681.115, 2661.850
681.597, 2659.980
682.080, 2651.220
682.562, 2634.264
683.044, 2616.444
683.526, 2604.722
684.008, 2598.842
684.490, 2597.383
684.972, 2603.921
685.454, 2605.679
685.936, 2598.988
686.419, 2587.027
686.901, 2570.211
687.383, 2549.873
687.865, 2533.277
688.347, 2527.643
688.829, 2519.834
689.311, 2499.357
689.793, 2475.045
690.276, 2457.781
690.758, 2449.037
691.240, 2445.749
691.722, 2447.775
692.204, 2449.175
692.686, 2431.479
693.168, 2392.929
693.650, 2361.610
694.132, 2342.128
694.615, 2331.440
695.097, 2331.234
695.579, 2338.453
696.061, 2336.565
696.543, 2319.249
697.025, 2302.400
697.507, 2285.653
697.989, 2272.629
698.471, 2268.088
698.954, 2269.656
699.436, 2271.206
699.918, 2270.069
700.400, 2266.890
700.882, 2262.673
701.364, 2257.081
701.846, 2247.975
702.328, 2235.025
702.810, 2223.338
703.293, 2216.233
703.775, 2211.491
704.257, 2203.132
704.739, 2186.370
705.221, 2177.642
705.703, 2187.640
706.185, 2193.717
706.667, 2182.299
707.149, 2163.739
707.632, 2152.843
708.114, 2153.013
708.596, 2158.416
709.078, 2170.276
709.560, 2182.380
710.042, 2187.049
710.524, 2185.413
711.006, 2182.467
711.489, 2180.105
711.971, 2176.432
712.453, 2167.689
712.935, 2154.056
713.417, 2149.277
713.899, 2157.474
714.381, 2163.507
714.863, 2162.707
715.346, 2157.327
715.828, 2148.805
716.310, 2137.286
716.792, 2127.584
717.274, 2121.415
717.756, 2116.081
718.238, 2107.878
718.720, 2101.327
719.203, 2104.327
719.685, 2115.816
720.167, 2125.061
720.649, 2123.457
721.131, 2116.450
721.613, 2114.439
722.095, 2116.655
722.577, 2117.393
723.059, 2115.773
723.542, 2110.423
724.024, 2098.615
724.506, 2082.827
724.988, 2075.341
725.470, 2083.986
725.952, 2087.939
726.434, 2080.413
726.916, 2074.388
727.398, 2080.903
727.881, 2093.265
728.363, 2096.141
728.845, 2082.807
729.327, 2069.943
729.809, 2070.985
730.291, 2076.513
730.773, 2071.676
731.255, 2059.684
731.737, 2056.870
732.220, 2070.673
732.702, 2089.469
733.184, 2095.702
733.666, 2089.310
734.148, 2085.224
734.630, 2084.947
735.112, 2081.667
735.594, 2070.662
736.076, 2057.312
736.559, 2048.220
737.041, 2043.103
737.523, 2044.129
738.005, 2057.220
738.487, 2069.506
738.969, 2078.967
739.451, 2083.703
739.933, 2077.881
740.416, 2063.898
740.898, 2055.799
741.380, 2065.461
741.862, 2080.981
742.344, 2087.456
742.826, 2086.642
743.308, 2083.574
743.790, 2079.262
744.273, 2073.603
744.755, 2066.389
745.237, 2058.041
745.719, 2049.630
746.201, 2040.544
746.683, 2033.006
747.165, 2021.648
747.647, 2019.253
748.130, 2044.677
748.612, 2080.148
749.094, 2091.445
749.576, 2066.763
750.058, 2049.997
750.540, 2063.564
751.022, 2079.773
751.504, 2074.720
751.986, 2058.922
752.469, 2056.006
752.951, 2072.186
753.433, 2087.791
753.915, 2078.955
754.397, 2056.732
754.879, 2050.220
755.361, 2058.144
755.843, 2066.488
756.325, 2071.047
756.808, 2075.115
757.290, 2083.225
757.772, 2094.573
758.254, 2095.605
758.736, 2080.528
759.218, 2065.821
759.700, 2050.290
760.182, 2038.984
760.664, 2036.844
761.147, 2041.540
761.629, 2046.115
762.111, 2048.247
762.593, 2051.897
763.075, 2061.211
763.557, 2070.953
764.039, 2076.547
764.521, 2078.042
765.003, 2077.142
765.486, 2074.583
765.968, 2069.395
766.450, 2056.264
766.932, 2039.508
767.414, 2038.373
767.896, 2053.352
768.378, 2063.430
768.860, 2059.763
769.343, 2050.733
769.825, 2046.742
770.307, 2047.894
770.789, 2052.192
771.271, 2065.812
771.753, 2072.591
772.235, 2062.797
772.717, 2050.664
773.200, 2047.529
773.682, 2051.731
774.164, 2053.928
774.646, 2051.308
775.128, 2047.102
775.610, 2038.217
776.092, 2031.752
776.574, 2040.413
777.057, 2058.330
777.539, 2066.117
778.021, 2053.982
778.503, 2034.146
778.985, 2016.084
779.467, 2003.232
779.949, 2014.564
780.431, 2049.794
780.913, 2069.584
781.396, 2054.923
781.878, 2028.533
782.360, 2022.758
782.842, 2039.231
783.324, 2047.055
783.806, 2041.120
784.288, 2035.997
784.770, 2040.632
785.252, 2042.630
785.735, 2027.131
786.217, 1998.585
786.699, 1981.085
787.181, 1987.231
787.663, 1993.364
788.145, 1988.182
788.627, 1982.119
789.109, 1987.330
789.591, 1999.796
790.074, 2007.206
790.556, 2004.070
791.038, 1995.474
791.520, 1985.108
792.002, 1973.640
792.484, 1959.770
792.966, 1944.993
793.448, 1939.982
793.930, 1949.194
794.413, 1964.195
794.895, 1976.100
795.377, 1984.428
795.859, 1978.534
796.341, 1950.553
796.823, 1934.969
797.305, 1947.147
797.787, 1964.365
798.270, 1968.905
798.752, 1961.216
799.234, 1946.689
799.716, 1912.527
800.198, 1890.057
800.680, 1888.036
801.162, 1894.211
801.644, 1906.266
802.127, 1919.040
802.609, 1923.858
803.091, 1917.857
803.573, 1909.157
804.055, 1902.642
804.537, 1896.745
805.019, 1889.154
805.501, 1880.739
805.984, 1873.558
806.466, 1868.321
806.948, 1865.390
807.430, 1865.000
807.912, 1867.217
808.394, 1873.940
808.876, 1885.172
809.358, 1890.748
809.840, 1888.090
810.323, 1883.501
810.805, 1881.962
811.287, 1881.521
811.769, 1875.216
812.251, 1855.236
812.733, 1847.318
813.215, 1859.627
813.697, 1874.324
814.179, 1892.366
814.662, 1904.969
815.144, 1896.806
815.626, 1865.704
816.108, 1842.170
816.590, 1835.766
817.072, 1837.280
817.554, 1848.790
818.036, 1861.451
818.518, 1863.949
819.001, 1856.876
819.483, 1849.535
819.965, 1847.294
820.447, 1846.534
820.929, 1841.070
821.411, 1834.597
821.893, 1839.348
822.375, 1853.375
822.857, 1856.622
823.340, 1839.040
823.822, 1814.154
824.304, 1800.433
824.786, 1797.721
825.268, 1807.348
825.750, 1833.048
826.232, 1850.824
826.714, 1852.365
827.197, 1845.936
827.679, 1838.781
828.161, 1830.972
828.643, 1823.279
829.125, 1812.694
829.607, 1806.994
830.089, 1813.605
830.571, 1817.934
831.054, 1808.844
831.536, 1792.941
832.018, 1782.355
832.500, 1779.409
832.982, 1780.520
833.464, 1785.544
833.946, 1793.013
834.428, 1803.898
834.911, 1815.718
835.393, 1826.412
835.875, 1834.699
836.357, 1837.197
836.839, 1829.526
837.321, 1818.101
837.803, 1808.799
838.285, 1802.921
838.767, 1806.728
839.250, 1819.158
839.732, 1827.474
840.214, 1824.355
840.696, 1814.369
841.178, 1803.471
841.660, 1791.730
842.142, 1786.498
842.624, 1788.480
843.106, 1792.872
843.589, 1798.225
844.071, 1805.376
844.553, 1817.525
845.035, 1833.773
845.517, 1834.381
845.999, 1807.042
846.481, 1785.824
846.963, 1771.912
847.445, 1767.608
847.928, 1780.604
848.410, 1802.511
848.892, 1816.454
849.374, 1818.939
849.856, 1820.034
850.338, 1824.495
850.820, 1825.671
851.302, 1816.785
851.784, 1804.163
852.267, 1796.212
852.749, 1793.799
853.231, 1792.153
853.713, 1788.657
854.195, 1784.840
854.677, 1779.052
855.159, 1775.372
855.641, 1784.003
856.124, 1801.986
856.606, 1814.216
857.088, 1813.166
857.570, 1806.837
858.052, 1803.731
858.534, 1804.260
859.016, 1812.698
859.498, 1828.241
859.981, 1838.105
860.463, 1838.412
860.945, 1831.916
861.427, 1819.556
861.909, 1804.069
862.391, 1799.793
862.873, 1810.221
863.355, 1815.901
863.838, 1813.559
864.320, 1809.519
864.802, 1807.796
865.284, 1806.016
865.766, 1798.383
866.248, 1781.156
866.730, 1774.294
867.212, 1788.154
867.694, 1798.448
868.177, 1797.176
868.659, 1792.162
869.141, 1788.504
869.623, 1786.918
870.105, 1788.603
870.587, 1796.376
871.069, 1802.404
871.551, 1802.657
872.033, 1801.236
872.516, 1803.272
872.998, 1805.262
873.480, 1798.256
873.962, 1780.861
874.444, 1767.523
874.926, 1769.279
875.408, 1778.686
875.890, 1791.825
876.372, 1805.436
876.855, 1814.608
877.337, 1818.058
877.819, 1812.834
878.301, 1796.006
878.783, 1779.781
879.265, 1787.895
879.747, 1811.117
880.229, 1813.335
880.711, 1795.444
881.194, 1784.249
881.676, 1789.202
882.158, 1800.877
882.640, 1810.424
883.122, 1817.469
883.604, 1818.931
884.086, 1813.794
884.568, 1810.642
885.051, 1809.892
885.533, 1814.874
886.015, 1832.453
886.497, 1850.500
886.979, 1841.609
887.461, 1796.069
887.943, 1776.179
888.425, 1802.035
888.907, 1820.560
889.390, 1810.839
889.872, 1795.818
890.354, 1795.881
890.836, 1807.524
891.318, 1815.088
891.800, 1817.252
892.282, 1815.933
892.765, 1804.460
893.247, 1797.036
893.729, 1806.352
894.211, 1821.869
894.693, 1827.765
895.175, 1822.267
895.657, 1817.787
896.139, 1822.797
896.621, 1825.923
897.104, 1820.153
897.586, 1809.781
898.068, 1794.957
898.550, 1780.226
899.032, 1776.669
899.514, 1789.169
899.996, 1805.268
900.478, 1817.634
900.960, 1825.616
901.443, 1826.346
901.925, 1822.528
902.407, 1820.297
902.889, 1820.693
903.371, 1820.296
903.853, 1816.356
904.335, 1811.453
904.817, 1810.289
905.299, 1811.561
905.782, 1810.895
906.264, 1808.182
906.746, 1804.359
907.228, 1799.712
907.710, 1799.901
908.192, 1814.020
908.674, 1837.011
909.156, 1845.381
909.638, 1838.941
910.121, 1827.400
910.603, 1811.340
911.085, 1797.394
911.567, 1790.002
912.049, 1786.511
912.531, 1780.655
913.013, 1771.057
913.495, 1773.703
913.978, 1795.021
914.460, 1809.141
914.942, 1806.024
915.424, 1798.473
915.906, 1796.710
916.388, 1800.156
916.870, 1806.651
917.352, 1823.421
917.835, 1828.959
918.317, 1817.182
918.799, 1801.945
919.281, 1781.609
919.763, 1764.805
920.245, 1765.053
920.727, 1781.795
921.209, 1790.661
921.692, 1783.377
922.174, 1777.026
922.656, 1773.790
923.138, 1773.342
923.620, 1778.356
924.102, 1784.902
924.584, 1784.435
925.066, 1774.696
925.549, 1771.033
926.031, 1787.339
926.513, 1800.224
926.995, 1793.496
927.477, 1780.911
927.959, 1775.306
928.441, 1777.190
928.923, 1784.143
929.405, 1797.341
929.888, 1804.650
930.370, 1792.866
930.852, 1777.387
931.334, 1770.368
931.816, 1770.111
932.298, 1774.581
932.780, 1781.942
933.262, 1787.195
933.744, 1787.180
934.227, 1785.067
934.709, 1782.307
935.191, 1780.586
935.673, 1785.162
936.155, 1792.843
936.637, 1793.238
937.119, 1783.868
937.601, 1773.195
938.083, 1767.753
938.566, 1766.362
939.048, 1766.404
939.530, 1769.042
940.012, 1784.140
940.494, 1807.599
940.976, 1808.226
941.458, 1772.042
941.940, 1732.389
942.422, 1733.185
942.905, 1761.018
943.387, 1772.796
943.869, 1770.832
944.351, 1770.452
944.833, 1774.393
945.315, 1778.589
945.797, 1780.641
946.279, 1780.835
946.762, 1779.050
947.244, 1775.537
947.726, 1774.422
948.208, 1775.896
948.690, 1772.062
949.172, 1759.573
949.654, 1753.184
950.136, 1766.791
950.619, 1790.052
951.101, 1793.773
951.583, 1775.392
952.065, 1763.556
952.547, 1760.725
953.029, 1753.996
953.511, 1736.355
953.993, 1721.546
954.476, 1725.183
954.958, 1742.478
955.440, 1749.093
955.922, 1741.625
956.404, 1735.552
956.886, 1729.726
957.368, 1731.357
957.850, 1749.301
958.332, 1767.151
958.815, 1761.093
959.297, 1733.182
959.779, 1723.513
960.261, 1742.699
960.743, 1755.715
961.225, 1757.405
961.707, 1755.792
962.189, 1755.687
962.671, 1753.963
963.154, 1744.068
963.636, 1724.841
964.118, 1713.072
964.600, 1713.551
965.082, 1713.771
965.564, 1710.685
966.046, 1708.576
966.528, 1711.481
967.010, 1716.507
967.493, 1717.347
967.975, 1712.281
968.457, 1712.126
968.939, 1723.114
969.421, 1730.867
969.903, 1731.785
970.385, 1729.301
970.867, 1725.168
971.349, 1719.632
971.832, 1711.735
972.314, 1698.415
972.796, 1694.633
973.278, 1713.109
973.760, 1727.175
974.242, 1725.507
974.724, 1718.552
975.206, 1712.335
975.689, 1708.623
976.171, 1711.982
976.653, 1727.016
977.135, 1736.480
977.617, 1734.899
978.099, 1729.465
978.581, 1718.632
979.063, 1708.937
979.545, 1707.089
980.028, 1712.169
980.510, 1719.797
980.992, 1734.206
981.474, 1737.425
981.956, 1710.143
982.438, 1686.960
982.920, 1689.968
983.403, 1704.456
983.885, 1716.494
984.367, 1723.379
984.849, 1721.735
985.331, 1705.932
985.813, 1692.170
986.295, 1681.454
986.777, 1679.471
987.259, 1701.979
987.742, 1727.931
988.224, 1725.616
988.706, 1697.507
989.188, 1679.046
989.670, 1686.116
990.152, 1695.693
990.634, 1699.825
991.116, 1702.019
991.598, 1705.855
992.081, 1708.673
992.563, 1704.750
993.045, 1694.761
993.527, 1688.566
994.009, 1693.227
994.491, 1695.985
994.973, 1685.562
995.455, 1676.650
995.938, 1684.765
996.420, 1699.687
996.902, 1704.123
997.384, 1696.636
997.866, 1690.750
998.348, 1694.868
998.830, 1696.727
999.312, 1685.553
999.794, 1674.706
1000.277, 1677.052
1000.759, 1686.131
1001.241, 1691.304
1001.723, 1690.743
1002.205, 1688.174
1002.687, 1686.462
1003.169, 1681.058
1003.651, 1664.472
1004.133, 1648.373
1004.616, 1640.654
1005.098, 1640.833
1005.580, 1650.144
1006.062, 1667.153
1006.544, 1678.188
1007.026, 1674.214
1007.508, 1668.125
1007.990, 1661.078
1008.473, 1659.024
1008.955, 1674.456
1009.437, 1694.765
1009.919, 1695.746
1010.401, 1675.523
1010.883, 1661.850
1011.365, 1672.658
1011.847, 1682.632
1012.329, 1678.889
1012.812, 1671.531
1013.294, 1665.790
1013.776, 1663.255
1014.258, 1666.851
1014.740, 1676.255
1015.222, 1683.627
1015.704, 1685.868
1016.186, 1685.696
1016.669, 1678.593
1017.151, 1675.043
1017.633, 1690.145
1018.115, 1710.407
1018.597, 1712.291
1019.079, 1694.198
1019.561, 1679.015
1020.043, 1672.538
1020.525, 1672.489
1021.008, 1684.539
1021.490, 1696.063
1021.972, 1697.940
1022.454, 1694.042
1022.936, 1690.368
1023.418, 1687.610
1023.900, 1683.639
1024.382, 1671.965
1024.865, 1668.013
1025.347, 1683.749
1025.829, 1700.146
1026.311, 1706.652
1026.793, 1706.360
1027.275, 1702.158
1027.757, 1695.232
1028.239, 1692.176
1028.721, 1697.175
1029.203, 1701.570
1029.686, 1703.096
1030.168, 1704.276
1030.650, 1709.956
1031.132, 1713.691
1031.614, 1704.744
1032.096, 1684.813
1032.578, 1671.642
1033.060, 1671.178
1033.543, 1671.176
1034.025, 1668.374
1034.507, 1668.000
1034.989, 1678.038
1035.471, 1687.445
1035.953, 1678.794
1036.435, 1656.492
1036.917, 1651.689
1037.400, 1681.063
1037.882, 1699.505
1038.364, 1699.364
1038.846, 1696.251
1039.328, 1693.938
1039.810, 1691.758
1040.292, 1690.473
1040.774, 1688.908
1041.256, 1681.261
1041.739, 1661.787
1042.221, 1650.539
1042.703, 1649.395
1043.185, 1653.528
1043.667, 1664.512
1044.149, 1676.708
1044.631, 1687.565
1045.113, 1695.019
1045.595, 1691.401
1046.078, 1671.396
1046.560, 1663.086
1047.042, 1672.750
1047.524, 1677.857
1048.006, 1670.849
1048.488, 1662.670
1048.970, 1661.851
1049.452, 1664.816
1049.935, 1662.403
1050.417, 1667.087
1050.899, 1655.365
1051.381, 1672.362
1051.863, 1681.927
1052.345, 1678.447
1052.827, 1671.275
1053.309, 1665.847
1053.792, 1661.138
1054.274, 1654.644
1054.756, 1646.861
1055.238, 1645.639
1055.720, 1651.254
1056.202, 1660.325
1056.684, 1673.095
1057.166, 1676.416
1057.648, 1662.273
1058.130, 1644.120
1058.613, 1640.992
1059.095, 1648.253
1059.577, 1645.845
1060.059, 1635.203
1060.541, 1629.595
1061.023, 1630.269
1061.505, 1631.002
1061.987, 1629.256
1062.470, 1629.786
1062.952, 1639.026
1063.434, 1650.950
1063.916, 1651.882
1064.398, 1644.551
1064.880, 1634.467
1065.362, 1624.404
1065.844, 1625.800
1066.327, 1640.739
1066.809, 1654.727
1067.291, 1656.924
1067.773, 1652.209
1068.255, 1642.510
1068.737, 1633.373
1069.219, 1638.687
1069.701, 1651.811
1070.183, 1653.169
1070.666, 1641.605
1071.148, 1635.315
1071.630, 1645.735
1072.112, 1656.290
1072.594, 1645.860
1073.076, 1633.982
1073.558, 1646.643
1074.040, 1668.735
1074.522, 1677.638
1075.005, 1672.409
1075.487, 1662.112
1075.969, 1649.267
1076.451, 1638.398
1076.933, 1635.847
1077.415, 1631.477
1077.897, 1610.447
1078.380, 1591.580
1078.862, 1599.887
1079.344, 1623.851
1079.826, 1633.848
1080.308, 1623.473
1080.790, 1616.955
1081.272, 1628.731
1081.754, 1634.742
1082.236, 1622.616
1082.719, 1607.777
1083.201, 1597.764
1083.683, 1592.595
1084.165, 1593.483
1084.647, 1600.172
1085.129, 1602.400
1085.611, 1594.668
1086.093, 1590.451
1086.575, 1593.078
1087.058, 1595.143
1087.540, 1592.951
1088.022, 1590.155
1088.504, 1591.009
1088.986, 1594.311
1089.468, 1594.864
1089.950, 1593.071
1090.432, 1585.813
1090.915, 1568.930
1091.397, 1561.150
1091.879, 1570.358
1092.361, 1580.258
1092.843, 1577.945
1093.325, 1570.251
1093.807, 1573.388
1094.289, 1566.765
1094.771, 1583.099
1095.254, 1562.992
1095.736, 1554.401
1096.218, 1562.371
1096.700, 1571.161
1097.182, 1572.901
1097.664, 1567.730
1098.146, 1552.679
1098.628, 1553.249
1099.110, 1532.647
1099.593, 1542.463
1100.075, 1542.953
1100.557, 1534.870
1101.039, 1533.140
1101.521, 1541.833
1102.003, 1548.790
1102.485, 1543.834
1102.967, 1535.413
1103.450, 1533.776
1103.932, 1535.208
1104.414, 1534.939
1104.896, 1533.348
1105.378, 1532.324
1105.860, 1531.647
1106.342, 1528.220
1106.824, 1519.626
1107.307, 1513.985
1107.789, 1521.015
1108.271, 1527.283
1108.753, 1521.909
1109.235, 1512.259
1109.717, 1504.679
1110.199, 1499.950
1110.681, 1498.440
1111.163, 1500.534
1111.646, 1501.147
1112.128, 1498.331
1112.610, 1495.039
1113.092, 1488.963
1113.574, 1485.963
1114.056, 1491.786
1114.538, 1501.139
1115.020, 1507.926
1115.502, 1512.003
1115.985, 1511.463
1116.467, 1505.021
1116.949, 1496.868
1117.431, 1485.436
1117.913, 1476.567
1118.395, 1472.844
1118.877, 1470.082
1119.359, 1464.290
1119.842, 1457.943
1120.324, 1456.951
1120.806, 1461.277
1121.288, 1468.598
1121.770, 1478.957
1122.252, 1488.524
1122.734, 1496.506
1123.216, 1497.293
1123.698, 1487.790
1124.181, 1475.858
1124.663, 1470.923
1125.145, 1470.166
1125.627, 1467.113
1126.109, 1463.334
1126.591, 1463.203
1127.073, 1466.160
1127.555, 1470.638
1128.037, 1475.188
1128.520, 1474.070
1129.002, 1462.574
1129.484, 1448.205
1129.966, 1432.161
1130.448, 1421.763
1130.930, 1428.337
1131.412, 1442.446
1131.894, 1454.545
1132.377, 1461.343
1132.859, 1457.587
1133.341, 1440.315
1133.823, 1426.204
1134.305, 1419.344
1134.787, 1418.594
1135.269, 1431.431
1135.751, 1441.969
1136.234, 1435.526
1136.716, 1422.545
1137.198, 1420.304
1137.680, 1428.038
1138.162, 1432.255
1138.644, 1431.706
1139.126, 1430.425
1139.608, 1427.480
1140.090, 1427.143
1140.573, 1432.806
1141.055, 1435.213
1141.537, 1425.403
1142.019, 1410.399
1142.501, 1405.470
1142.983, 1410.096
1143.465, 1417.762
1143.947, 1427.965
1144.429, 1431.857
1144.912, 1428.490
1145.394, 1423.702
1145.876, 1420.129
1146.358, 1416.539
1146.840, 1411.509
1147.322, 1406.154
1147.804, 1401.647
1148.286, 1398.453
1148.769, 1399.396
1149.251, 1401.644
1149.733, 1396.736
1150.215, 1385.562
1150.697, 1379.995
1151.179, 1385.729
1151.661, 1394.858
1152.143, 1410.391
1152.625, 1418.599
1153.108, 1399.990
1153.590, 1380.351
1154.072, 1388.395
1154.554, 1411.531
1155.036, 1421.893
1155.518, 1416.288
1156.000, 1409.937
1156.482, 1402.152
1156.964, 1396.698
1157.447, 1392.731
1157.929, 1393.459
1158.411, 1403.360
1158.893, 1412.289
1159.375, 1410.481
1159.857, 1401.345
1160.339, 1392.747
1160.821, 1384.583
1161.304, 1388.557
1161.786, 1404.605
1162.268, 1410.041
1162.750, 1401.254
1163.232, 1386.907
1163.714, 1371.031
1164.196, 1359.131
1164.678, 1356.962
1165.161, 1361.977
1165.643, 1374.010
1166.125, 1387.696
1166.607, 1393.570
1167.089, 1392.861
1167.571, 1388.917
1168.053, 1383.044
1168.535, 1376.046
1169.017, 1367.394
1169.500, 1362.685
1169.982, 1366.527
1170.464, 1373.097
1170.946, 1382.344
1171.428, 1389.997
1171.910, 1392.549
1172.392, 1391.180
1172.874, 1388.237
1173.356, 1383.804
1173.839, 1376.437
1174.321, 1360.055
1174.803, 1354.933
1175.285, 1367.115
1175.767, 1376.803
1176.249, 1377.455
1176.731, 1375.870
1177.213, 1376.748
1177.696, 1379.903
1178.178, 1386.471
1178.660, 1394.823
1179.142, 1393.639
1179.624, 1384.368
1180.106, 1375.192
1180.588, 1367.365
1181.070, 1360.484
1181.552, 1354.754
1182.035, 1354.643
1182.517, 1365.269
1182.999, 1376.712
1183.481, 1378.924
1183.963, 1376.343
1184.445, 1372.397
1184.927, 1367.633
1185.409, 1360.777
1185.891, 1353.761
1186.374, 1353.065
1186.856, 1360.780
1187.338, 1361.986
1187.820, 1341.629
1188.302, 1331.758
1188.784, 1346.850
1189.266, 1363.287
1189.748, 1374.675
1190.231, 1378.742
1190.713, 1369.197
1191.195, 1380.772
1191.677, 1359.406
1192.159, 1387.560
1192.641, 1400.250
1193.123, 1397.207
1193.605, 1383.964
1194.088, 1361.948
1194.570, 1346.773
1195.052, 1345.237
1195.534, 1349.838
1196.016, 1354.152
1196.498, 1358.847
1196.980, 1368.588
1197.462, 1376.585
1197.944, 1367.849
1198.427, 1351.791
1198.909, 1346.578
1199.391, 1352.063
1199.873, 1357.143
1200.355, 1358.359
1200.837, 1361.067
1201.319, 1375.657
1201.801, 1379.924
1202.283, 1353.634
1202.766, 1330.372
1203.248, 1332.889
1203.730, 1344.894
1204.212, 1351.341
1204.694, 1353.229
1205.176, 1354.026
1205.658, 1353.823
1206.140, 1351.144
1206.623, 1345.583
1207.105, 1341.951
1207.587, 1341.028
1208.069, 1342.552
1208.551, 1346.426
1209.033, 1351.365
1209.515, 1357.451
1209.997, 1360.526
1210.479, 1349.799
1210.962, 1334.863
1211.444, 1331.373
1211.926, 1335.408
1212.408, 1338.949
1212.890, 1341.116
1213.372, 1344.386
1213.854, 1349.576
1214.336, 1353.429
1214.818, 1357.212
1215.301, 1355.796
1215.783, 1342.582
1216.265, 1330.076
1216.747, 1323.591
1217.229, 1321.690
1217.711, 1324.165
1218.193, 1329.557
1218.675, 1334.508
1219.158, 1339.135
1219.640, 1338.248
1220.122, 1331.674
1220.604, 1325.143
1221.086, 1319.765
1221.568, 1324.475
1222.050, 1341.940
1222.532, 1355.579
1223.015, 1351.442
1223.497, 1340.653
1223.979, 1335.070
1224.461, 1332.457
1224.943, 1330.520
1225.425, 1329.411
1225.907, 1332.562
1226.389, 1335.967
1226.871, 1326.095
1227.354, 1301.574
1227.836, 1292.795
1228.318, 1320.628
1228.800, 1333.259
1229.282, 1340.241
1229.764, 1341.876
1230.246, 1322.154
1230.728, 1330.011
1231.210, 1326.815
1231.693, 1323.166
1232.175, 1334.904
1232.657, 1318.288
1233.139, 1329.782
1233.621, 1330.056
1234.103, 1335.465
1234.585, 1329.753
1235.067, 1327.476
1235.550, 1336.323
1236.032, 1339.010
1236.514, 1332.018
1236.996, 1337.754
1237.478, 1320.749
1237.960, 1323.699
1238.442, 1335.259
1238.924, 1328.826
1239.406, 1334.765
1239.889, 1335.991
1240.371, 1287.565
1240.853, 1300.800
1241.335, 1316.330
1241.817, 1337.709
1242.299, 1343.282
1242.781, 1327.807
1243.263, 1320.024
1243.745, 1325.466
1244.228, 1329.661
1244.710, 1326.274
1245.192, 1319.116
1245.674, 1310.244
1246.156, 1305.474
1246.638, 1320.989
1247.120, 1316.440
1247.602, 1340.021
1248.085, 1326.969
1248.567, 1327.398
1249.049, 1336.240
1249.531, 1330.099
1250.013, 1305.697
1250.495, 1291.361
1250.977, 1301.995
1251.459, 1311.643
1251.942, 1313.923
1252.424, 1317.904
1252.906, 1332.222
1253.388, 1336.667
1253.870, 1312.997
1254.352, 1284.114
1254.834, 1285.015
1255.316, 1306.987
1255.798, 1315.696
1256.281, 1313.524
1256.763, 1311.374
1257.245, 1310.938
1257.727, 1318.334
1258.209, 1331.932
1258.691, 1339.774
1259.173, 1336.982
1259.655, 1330.876
1260.137, 1324.652
1260.620, 1318.579
##END=



