##NAMES=Phlogopite
##RRUFFID=R050068
##IDEAL CHEMISTRY=KMg_3_(Si_3_Al)O_10_(OH)_2_
##LOCALITY=S.W. Jasper County, Georgia, USA
##OWNER=RRUFF
##SOURCE=Rock Currier
##DESCRIPTION=Dark brown micaceous single crystal
##STATUS=The identification of this mineral has been confirmed by X-ray diffraction and chemical analysis
##URL=rruff.info/R050068
##MEASURED CHEMISTRY=(K_0.94_Na_0.05_[box]_0.01_)(Mg_0.94_Fe_0.06_)_3_(Si_3.00_Al_1.00_)O_10_((OH)_0.53_F_0.47_)_2_
154.4830, 1183.130
154.9651, 1185.140
155.4472, 1188.963
155.9293, 1196.224
156.4115, 1203.532
156.8936, 1210.481
157.3757, 1217.041
157.8578, 1223.218
158.3399, 1229.338
158.8221, 1234.878
159.3042, 1239.541
159.7863, 1240.925
160.2684, 1243.699
160.7505, 1249.731
161.2326, 1258.788
161.7148, 1268.675
162.1969, 1280.974
162.6790, 1292.748
163.1611, 1301.027
163.6432, 1301.140
164.1253, 1300.562
164.6075, 1303.376
165.0896, 1309.734
165.5717, 1316.695
166.0538, 1323.625
166.5359, 1329.954
167.0180, 1334.900
167.5002, 1333.041
167.9823, 1332.892
168.4644, 1342.879
168.9465, 1365.026
169.4286, 1387.501
169.9107, 1400.460
170.3929, 1407.246
170.8750, 1415.243
171.3571, 1431.456
171.8392, 1449.285
172.3213, 1460.019
172.8034, 1460.148
173.2856, 1460.825
173.7677, 1474.680
174.2498, 1498.566
174.7319, 1521.396
175.2140, 1536.729
175.6961, 1546.762
176.1783, 1553.254
176.6604, 1553.281
177.1425, 1555.557
177.6246, 1572.267
178.1067, 1601.871
178.5888, 1635.586
179.0710, 1668.315
179.5531, 1700.035
180.0352, 1729.808
180.5173, 1755.822
180.9994, 1781.112
181.4815, 1810.202
181.9637, 1843.263
182.4458, 1877.620
182.9279, 1909.920
183.4100, 1941.511
183.8921, 1978.180
184.3742, 2023.289
184.8564, 2073.874
185.3385, 2121.979
185.8206, 2167.905
186.3027, 2212.720
186.7848, 2257.219
187.2669, 2301.551
187.7491, 2348.134
188.2312, 2396.326
188.7133, 2447.119
189.1954, 2510.315
189.6775, 2589.094
190.1596, 2664.181
190.6418, 2708.194
191.1239, 2721.649
191.6060, 2735.154
192.0881, 2766.211
192.5702, 2811.292
193.0524, 2839.698
193.5345, 2850.750
194.0166, 2846.913
194.4987, 2831.887
194.9808, 2805.822
195.4629, 2766.075
195.9451, 2708.182
196.4272, 2631.785
196.9093, 2553.683
197.3914, 2470.224
197.8735, 2391.615
198.3556, 2347.526
198.8378, 2345.958
199.3199, 2329.363
199.8020, 2254.793
200.2841, 2117.273
200.7662, 2007.236
201.2483, 1934.328
201.7305, 1887.627
202.2126, 1841.022
202.6947, 1793.324
203.1768, 1750.161
203.6589, 1716.108
204.1410, 1692.787
204.6232, 1669.115
205.1053, 1643.608
205.5874, 1617.365
206.0695, 1593.927
206.5516, 1573.388
207.0337, 1555.408
207.5159, 1539.730
207.9980, 1526.699
208.4801, 1515.908
208.9622, 1508.143
209.4443, 1502.578
209.9264, 1495.332
210.4086, 1486.473
210.8907, 1475.743
211.3728, 1461.509
211.8549, 1440.694
212.3370, 1427.112
212.8191, 1425.729
213.3013, 1434.371
213.7834, 1433.498
214.2655, 1418.887
214.7476, 1401.503
215.2297, 1390.658
215.7118, 1387.328
216.1940, 1387.801
216.6761, 1392.539
217.1582, 1401.294
217.6403, 1409.052
218.1224, 1418.527
218.6045, 1423.295
219.0867, 1414.520
219.5688, 1383.195
220.0509, 1359.984
220.5330, 1353.370
221.0151, 1363.649
221.4972, 1372.192
221.9794, 1379.684
222.4615, 1384.772
222.9436, 1385.347
223.4257, 1378.257
223.9078, 1373.246
224.3899, 1373.594
224.8721, 1380.005
225.3542, 1382.266
225.8363, 1378.346
226.3184, 1372.222
226.8005, 1368.507
227.2827, 1367.983
227.7648, 1368.470
228.2469, 1369.652
228.7290, 1371.647
229.2111, 1373.482
229.6932, 1375.651
230.1754, 1377.241
230.6575, 1377.226
231.1396, 1376.138
231.6217, 1372.307
232.1038, 1363.522
232.5859, 1347.350
233.0681, 1339.705
233.5502, 1343.629
234.0323, 1353.869
234.5144, 1363.362
234.9965, 1372.734
235.4786, 1380.148
235.9608, 1384.751
236.4429, 1385.884
236.9250, 1387.218
237.4071, 1389.880
237.8892, 1392.023
238.3713, 1390.111
238.8535, 1380.529
239.3356, 1372.997
239.8177, 1371.540
240.2998, 1378.814
240.7819, 1381.680
241.2640, 1377.962
241.7462, 1371.146
242.2283, 1367.189
242.7104, 1367.052
243.1925, 1368.176
243.6746, 1369.429
244.1567, 1369.922
244.6389, 1374.204
245.1210, 1385.287
245.6031, 1398.356
246.0852, 1404.354
246.5673, 1399.612
247.0494, 1394.016
247.5316, 1390.650
248.0137, 1389.426
248.4958, 1391.047
248.9779, 1397.049
249.4600, 1405.028
249.9421, 1410.135
250.4243, 1410.595
250.9064, 1411.440
251.3885, 1414.887
251.8706, 1422.355
252.3527, 1427.594
252.8348, 1429.633
253.3170, 1430.044
253.7991, 1431.482
254.2812, 1433.258
254.7633, 1437.384
255.2454, 1445.890
255.7275, 1461.501
256.2097, 1470.603
256.6918, 1470.400
257.1739, 1465.509
257.6560, 1463.674
258.1381, 1463.613
258.6202, 1469.406
259.1024, 1485.218
259.5845, 1515.771
260.0666, 1535.221
260.5487, 1538.992
261.0308, 1535.086
261.5129, 1538.751
261.9951, 1552.679
262.4772, 1567.669
262.9593, 1579.489
263.4414, 1586.862
263.9235, 1598.015
264.4056, 1614.610
264.8878, 1633.579
265.3699, 1649.863
265.8520, 1662.963
266.3341, 1675.160
266.8162, 1686.565
267.2983, 1696.259
267.7805, 1711.385
268.2626, 1734.673
268.7447, 1760.216
269.2268, 1775.899
269.7089, 1777.922
270.1910, 1783.731
270.6732, 1802.793
271.1553, 1837.234
271.6374, 1861.730
272.1195, 1872.469
272.6016, 1878.895
273.0837, 1898.124
273.5659, 1933.575
274.0480, 1964.735
274.5301, 1982.639
275.0122, 1986.693
275.4943, 1991.760
275.9764, 1998.398
276.4586, 2005.004
276.9407, 2010.814
277.4228, 2016.490
277.9049, 2015.335
278.3870, 2002.661
278.8691, 1979.019
279.3513, 1957.425
279.8334, 1938.563
280.3155, 1919.988
280.7976, 1897.514
281.2798, 1871.116
281.7619, 1845.929
282.2440, 1824.277
282.7261, 1805.721
283.2082, 1787.171
283.6903, 1768.755
284.1725, 1749.876
284.6546, 1727.623
285.1367, 1702.494
285.6188, 1682.718
286.1009, 1672.760
286.5830, 1670.687
287.0652, 1668.793
287.5473, 1667.197
288.0294, 1665.170
288.5115, 1662.058
288.9936, 1657.838
289.4757, 1652.406
289.9579, 1644.219
290.4400, 1635.136
290.9221, 1630.803
291.4042, 1631.507
291.8863, 1633.378
292.3684, 1633.469
292.8506, 1631.681
293.3327, 1627.167
293.8148, 1615.750
294.2969, 1603.650
294.7790, 1605.598
295.2611, 1621.647
295.7433, 1638.455
296.2254, 1642.148
296.7075, 1637.249
297.1896, 1636.485
297.6717, 1645.328
298.1538, 1658.617
298.6360, 1670.038
299.1181, 1679.556
299.6002, 1685.543
300.0823, 1682.550
300.5644, 1675.677
301.0465, 1674.715
301.5287, 1683.594
302.0108, 1697.678
302.4929, 1713.078
302.9750, 1729.660
303.4571, 1745.779
303.9392, 1761.160
304.4214, 1775.290
304.9035, 1787.292
305.3856, 1794.721
305.8677, 1803.144
306.3498, 1819.625
306.8319, 1841.730
307.3141, 1861.231
307.7962, 1867.471
308.2783, 1871.185
308.7604, 1885.425
309.2425, 1919.631
309.7246, 1948.959
310.2068, 1949.867
310.6889, 1932.564
311.1710, 1923.594
311.6531, 1944.808
312.1352, 1973.736
312.6173, 1993.331
313.0995, 1998.119
313.5816, 2000.947
314.0637, 2007.849
314.5458, 2016.989
315.0279, 2024.959
315.5100, 2030.588
315.9922, 2034.600
316.4743, 2036.316
316.9564, 2034.322
317.4385, 2035.602
317.9206, 2045.657
318.4027, 2059.641
318.8849, 2070.781
319.3670, 2075.247
319.8491, 2078.333
320.3312, 2082.735
320.8133, 2089.492
321.2954, 2092.413
321.7776, 2089.594
322.2597, 2082.676
322.7418, 2073.406
323.2239, 2056.130
323.7060, 2042.414
324.1881, 2037.040
324.6703, 2041.096
325.1524, 2040.996
325.6345, 2033.646
326.1166, 2022.938
326.5987, 2011.915
327.0808, 1999.763
327.5630, 1988.316
328.0451, 1978.515
328.5272, 1970.204
329.0093, 1959.899
329.4914, 1948.467
329.9735, 1934.533
330.4557, 1916.053
330.9378, 1882.861
331.4199, 1863.756
331.9020, 1869.113
332.3841, 1891.559
332.8662, 1893.390
333.3484, 1863.333
333.8305, 1829.725
334.3126, 1807.716
334.7947, 1800.492
335.2768, 1796.481
335.7589, 1797.993
336.2411, 1800.830
336.7232, 1792.489
337.2053, 1768.723
337.6874, 1746.352
338.1695, 1732.991
338.6516, 1729.338
339.1338, 1731.002
339.6159, 1740.503
340.0980, 1751.179
340.5801, 1749.942
341.0622, 1735.406
341.5443, 1721.483
342.0265, 1714.341
342.5086, 1713.230
342.9907, 1709.582
343.4728, 1702.467
343.9549, 1696.593
344.4370, 1700.744
344.9192, 1713.525
345.4013, 1721.457
345.8834, 1716.831
346.3655, 1704.705
346.8476, 1699.095
347.3297, 1700.202
347.8119, 1702.337
348.2940, 1699.176
348.7761, 1692.625
349.2582, 1689.102
349.7403, 1694.073
350.2225, 1699.076
350.7046, 1686.541
351.1867, 1659.164
351.6688, 1638.632
352.1509, 1646.992
352.6331, 1670.476
353.1152, 1689.022
353.5973, 1698.758
354.0794, 1701.416
354.5615, 1693.493
355.0436, 1678.677
355.5258, 1668.184
356.0079, 1672.607
356.4900, 1681.594
356.9721, 1685.436
357.4542, 1680.831
357.9363, 1677.240
358.4185, 1681.788
358.9006, 1690.751
359.3827, 1697.682
359.8648, 1700.942
360.3469, 1700.831
360.8290, 1695.169
361.3112, 1682.292
361.7933, 1675.001
362.2754, 1682.455
362.7575, 1695.606
363.2396, 1704.657
363.7217, 1701.824
364.2039, 1700.136
364.6860, 1705.818
365.1681, 1719.063
365.6502, 1724.257
366.1323, 1709.799
366.6144, 1692.739
367.0966, 1684.867
367.5787, 1698.843
368.0608, 1706.970
368.5429, 1704.533
369.0250, 1693.923
369.5071, 1687.614
369.9893, 1688.874
370.4714, 1690.641
370.9535, 1689.241
371.4356, 1682.308
371.9177, 1677.785
372.3998, 1676.869
372.8820, 1677.849
373.3641, 1676.584
373.8462, 1671.823
374.3283, 1668.096
374.8104, 1667.801
375.2925, 1671.379
375.7747, 1672.946
376.2568, 1671.974
376.7389, 1670.069
377.2210, 1669.704
377.7031, 1671.053
378.1852, 1671.314
378.6674, 1668.568
379.1495, 1664.101
379.6316, 1664.193
380.1137, 1669.298
380.5958, 1674.858
381.0779, 1676.384
381.5601, 1674.560
382.0422, 1672.691
382.5243, 1671.570
383.0064, 1670.656
383.4885, 1668.733
383.9706, 1665.964
384.4528, 1663.690
384.9349, 1664.372
385.4170, 1665.738
385.8991, 1663.101
386.3812, 1654.304
386.8633, 1646.153
387.3455, 1646.541
387.8276, 1652.497
388.3097, 1657.240
388.7918, 1654.148
389.2739, 1650.492
389.7560, 1654.041
390.2382, 1666.259
390.7203, 1675.100
391.2024, 1670.353
391.6845, 1659.922
392.1666, 1652.851
392.6487, 1653.458
393.1309, 1656.794
393.6130, 1662.980
394.0951, 1671.449
394.5772, 1676.243
395.0593, 1672.640
395.5414, 1666.921
396.0236, 1663.040
396.5057, 1663.792
396.9878, 1663.720
397.4699, 1662.110
397.9520, 1659.291
398.4341, 1656.212
398.9163, 1649.779
399.3984, 1646.317
399.8805, 1648.573
400.3626, 1658.690
400.8447, 1668.472
401.3268, 1679.478
401.8090, 1688.981
402.2911, 1692.886
402.7732, 1689.541
403.2553, 1684.617
403.7374, 1678.340
404.2195, 1671.041
404.7017, 1669.935
405.1838, 1677.075
405.6659, 1684.869
406.1480, 1685.523
406.6301, 1678.922
407.1122, 1673.760
407.5944, 1671.824
408.0765, 1671.983
408.5586, 1670.464
409.0407, 1667.343
409.5228, 1667.590
410.0049, 1678.648
410.4871, 1695.683
410.9692, 1705.251
411.4513, 1705.657
411.9334, 1699.919
412.4155, 1687.354
412.8976, 1670.721
413.3798, 1658.403
413.8619, 1655.513
414.3440, 1657.824
414.8261, 1662.196
415.3082, 1668.507
415.7903, 1673.788
416.2725, 1675.401
416.7546, 1675.216
417.2367, 1675.306
417.7188, 1675.028
418.2009, 1676.576
418.6830, 1684.804
419.1652, 1696.768
419.6473, 1701.338
420.1294, 1683.316
420.6115, 1665.436
421.0937, 1661.412
421.5758, 1682.634
422.0579, 1697.175
422.5400, 1695.973
423.0221, 1686.695
423.5042, 1681.845
423.9864, 1683.635
424.4685, 1687.944
424.9506, 1695.161
425.4327, 1705.680
425.9148, 1712.793
426.3969, 1716.015
426.8791, 1716.396
427.3612, 1714.045
427.8433, 1707.288
428.3254, 1702.869
428.8075, 1701.138
429.2896, 1702.651
429.7718, 1710.914
430.2539, 1727.439
430.7360, 1742.753
431.2181, 1751.078
431.7002, 1752.729
432.1823, 1751.967
432.6645, 1748.734
433.1466, 1743.968
433.6287, 1737.108
434.1108, 1729.125
434.5929, 1725.075
435.0750, 1729.844
435.5572, 1738.692
436.0393, 1743.435
436.5214, 1744.193
437.0035, 1743.531
437.4856, 1742.749
437.9677, 1742.002
438.4499, 1741.611
438.9320, 1742.083
439.4141, 1742.197
439.8962, 1739.019
440.3783, 1734.613
440.8604, 1734.207
441.3426, 1743.798
441.8247, 1755.262
442.3068, 1764.572
442.7889, 1771.445
443.2710, 1775.358
443.7531, 1775.502
444.2353, 1772.862
444.7174, 1768.527
445.1995, 1754.751
445.6816, 1748.015
446.1637, 1755.856
446.6458, 1776.191
447.1280, 1787.214
447.6101, 1784.239
448.0922, 1777.094
448.5743, 1770.895
449.0564, 1765.771
449.5385, 1761.249
450.0207, 1757.855
450.5028, 1754.585
450.9849, 1749.437
451.4670, 1742.208
451.9491, 1734.294
452.4312, 1725.258
452.9134, 1715.669
453.3955, 1709.782
453.8776, 1707.770
454.3597, 1708.266
454.8418, 1710.626
455.3239, 1714.570
455.8061, 1719.408
456.2882, 1726.654
456.7703, 1732.189
457.2524, 1729.064
457.7345, 1718.738
458.2166, 1707.015
458.6988, 1695.674
459.1809, 1685.663
459.6630, 1679.139
460.1451, 1676.861
460.6272, 1673.475
461.1093, 1662.539
461.5915, 1649.472
462.0736, 1641.248
462.5557, 1638.167
463.0378, 1642.246
463.5199, 1662.827
464.0020, 1695.819
464.4842, 1711.985
464.9663, 1691.452
465.4484, 1662.508
465.9305, 1639.777
466.4126, 1626.308
466.8947, 1614.292
467.3769, 1603.557
467.8590, 1594.382
468.3411, 1587.196
468.8232, 1582.512
469.3053, 1578.823
469.7874, 1575.203
470.2696, 1571.835
470.7517, 1572.733
471.2338, 1578.897
471.7159, 1586.213
472.1980, 1590.927
472.6801, 1593.129
473.1623, 1596.182
473.6444, 1601.067
474.1265, 1606.068
474.6086, 1607.482
475.0907, 1605.890
475.5728, 1605.057
476.0550, 1606.371
476.5371, 1609.938
477.0192, 1616.909
477.5013, 1627.396
477.9834, 1637.379
478.4655, 1645.721
478.9477, 1651.099
479.4298, 1651.297
479.9119, 1640.149
480.3940, 1630.668
480.8761, 1629.726
481.3582, 1635.827
481.8404, 1644.773
482.3225, 1662.108
482.8046, 1676.276
483.2867, 1680.029
483.7688, 1667.653
484.2509, 1662.633
484.7331, 1672.124
485.2152, 1687.199
485.6973, 1700.038
486.1794, 1710.519
486.6615, 1718.661
487.1436, 1722.417
487.6258, 1723.770
488.1079, 1734.298
488.5900, 1758.724
489.0721, 1779.057
489.5542, 1782.307
490.0363, 1768.305
490.5185, 1762.132
491.0006, 1765.754
491.4827, 1772.940
491.9648, 1773.720
492.4470, 1769.981
492.9291, 1772.594
493.4112, 1788.588
493.8933, 1809.980
494.3754, 1825.548
494.8575, 1835.612
495.3397, 1841.252
495.8218, 1838.464
496.3039, 1834.021
496.7860, 1835.621
497.2681, 1845.388
497.7502, 1857.299
498.2324, 1873.093
498.7145, 1887.770
499.1966, 1894.827
499.6787, 1881.050
500.1608, 1870.619
500.6429, 1874.159
501.1251, 1890.584
501.6072, 1900.262
502.0893, 1895.121
502.5714, 1889.020
503.0535, 1888.924
503.5356, 1899.391
504.0178, 1904.794
504.4999, 1903.584
504.9820, 1898.642
505.4641, 1893.624
505.9462, 1888.140
506.4283, 1884.829
506.9105, 1885.388
507.3926, 1888.517
507.8747, 1888.636
508.3568, 1885.584
508.8389, 1882.443
509.3210, 1882.084
509.8032, 1883.372
510.2853, 1883.655
510.7674, 1882.996
511.2495, 1879.638
511.7316, 1869.167
512.2137, 1854.753
512.6959, 1843.013
513.1780, 1838.029
513.6601, 1835.401
514.1422, 1833.119
514.6243, 1830.994
515.1064, 1828.050
515.5886, 1821.852
516.0707, 1816.140
516.5528, 1813.655
517.0349, 1817.440
517.5170, 1818.749
517.9991, 1815.619
518.4813, 1810.005
518.9634, 1791.270
519.4455, 1804.567
519.9276, 1810.948
520.4097, 1810.785
520.8918, 1784.477
521.3740, 1791.929
521.8561, 1785.852
522.3382, 1779.220
522.8203, 1791.425
523.3024, 1768.919
523.7845, 1780.825
524.2667, 1778.994
524.7488, 1783.451
525.2309, 1774.293
525.7130, 1770.653
526.1951, 1772.265
526.6772, 1772.054
527.1594, 1771.881
527.6415, 1774.899
528.1236, 1780.230
528.6057, 1784.074
529.0878, 1785.271
529.5699, 1783.440
530.0521, 1776.641
530.5342, 1762.506
531.0163, 1752.919
531.4984, 1755.165
531.9805, 1762.300
532.4626, 1766.930
532.9448, 1767.359
533.4269, 1765.952
533.9090, 1760.751
534.3911, 1753.662
534.8732, 1752.549
535.3553, 1759.615
535.8375, 1768.645
536.3196, 1777.865
536.8017, 1787.597
537.2838, 1792.745
537.7659, 1792.606
538.2480, 1790.355
538.7302, 1789.080
539.2123, 1788.661
539.6944, 1788.369
540.1765, 1788.076
540.6586, 1787.786
541.1407, 1787.908
541.6229, 1788.136
542.1050, 1787.384
542.5871, 1780.984
543.0692, 1776.008
543.5513, 1779.992
544.0334, 1793.231
544.5156, 1807.757
544.9977, 1823.435
545.4798, 1836.799
545.9619, 1844.818
546.4440, 1844.370
546.9261, 1842.378
547.4083, 1838.536
547.8904, 1833.946
548.3725, 1830.347
548.8546, 1825.664
549.3367, 1825.706
549.8188, 1834.848
550.3010, 1851.538
550.7831, 1856.409
551.2652, 1846.970
551.7473, 1833.975
552.2294, 1824.013
552.7115, 1816.994
553.1937, 1811.900
553.6758, 1808.041
554.1579, 1808.649
554.6400, 1822.641
555.1221, 1844.921
555.6042, 1860.654
556.0864, 1863.189
556.5685, 1858.514
557.0506, 1848.886
557.5327, 1835.984
558.0148, 1826.229
558.4969, 1825.780
558.9791, 1827.150
559.4612, 1825.372
559.9433, 1819.007
560.4254, 1814.370
560.9075, 1811.353
561.3896, 1811.353
561.8718, 1815.971
562.3539, 1832.700
562.8360, 1840.654
563.3181, 1833.789
563.8002, 1819.324
564.2823, 1815.898
564.7645, 1826.320
565.2466, 1835.041
565.7287, 1833.188
566.2108, 1824.365
566.6929, 1831.012
567.1750, 1853.998
567.6572, 1871.468
568.1393, 1858.912
568.6214, 1828.483
569.1035, 1803.727
569.5856, 1787.727
570.0677, 1779.222
570.5499, 1780.982
571.0320, 1788.609
571.5141, 1795.136
571.9962, 1799.226
572.4783, 1800.528
572.9604, 1796.390
573.4426, 1788.386
573.9247, 1784.418
574.4068, 1791.388
574.8889, 1797.472
575.3710, 1797.203
575.8531, 1788.461
576.3353, 1784.628
576.8174, 1786.889
577.2995, 1792.354
577.7816, 1800.228
578.2637, 1811.291
578.7458, 1814.678
579.2280, 1806.532
579.7101, 1794.240
580.1922, 1790.853
580.6743, 1795.309
581.1564, 1801.605
581.6385, 1808.129
582.1207, 1814.307
582.6028, 1819.423
583.0849, 1823.434
583.5670, 1826.363
584.0491, 1827.893
584.5313, 1828.543
585.0134, 1827.668
585.4955, 1823.067
585.9776, 1823.889
586.4597, 1837.775
586.9418, 1856.090
587.4240, 1868.964
587.9061, 1874.928
588.3882, 1877.427
588.8703, 1876.052
589.3524, 1871.658
589.8345, 1865.437
590.3167, 1855.639
590.7988, 1850.856
591.2809, 1856.323
591.7630, 1870.110
592.2451, 1883.506
592.7272, 1896.618
593.2094, 1906.765
593.6915, 1910.495
594.1736, 1909.920
594.6557, 1908.704
595.1378, 1907.198
595.6199, 1906.195
596.1021, 1905.352
596.5842, 1905.645
597.0663, 1908.475
597.5485, 1921.216
598.0306, 1929.229
598.5127, 1922.882
598.9948, 1906.576
599.4769, 1899.639
599.9590, 1911.202
600.4412, 1922.450
600.9233, 1927.047
601.4054, 1924.565
601.8875, 1921.390
602.3696, 1915.263
602.8517, 1914.104
603.3339, 1929.623
603.8160, 1959.938
604.2981, 1977.086
604.7802, 1975.990
605.2623, 1967.649
605.7444, 1964.727
606.2266, 1965.800
606.7087, 1967.139
607.1908, 1966.735
607.6729, 1966.713
608.1550, 1969.642
608.6371, 1974.507
609.1193, 1978.114
609.6014, 1974.359
610.0835, 1973.185
610.5656, 1980.338
611.0477, 1997.323
611.5298, 2013.812
612.0120, 2033.873
612.4941, 2048.831
612.9762, 2050.488
613.4583, 2032.324
613.9404, 2025.408
614.4225, 2033.936
614.9047, 2048.836
615.3868, 2056.684
615.8689, 2058.194
616.3510, 2062.481
616.8331, 2074.686
617.3152, 2087.778
617.7974, 2088.453
618.2795, 2079.835
618.7616, 2074.114
619.2437, 2081.137
619.7258, 2091.268
620.2079, 2096.458
620.6901, 2096.336
621.1722, 2099.073
621.6543, 2109.113
622.1364, 2121.850
622.6185, 2134.378
623.1006, 2146.851
623.5828, 2158.561
624.0649, 2169.621
624.5470, 2179.815
625.0291, 2188.473
625.5112, 2195.088
625.9933, 2203.424
626.4755, 2215.362
626.9576, 2227.619
627.4397, 2231.800
627.9218, 2228.952
628.4039, 2227.050
628.8860, 2232.118
629.3682, 2239.305
629.8503, 2240.120
630.3324, 2235.729
630.8145, 2235.064
631.2966, 2245.243
631.7787, 2259.663
632.2609, 2273.840
632.7430, 2286.942
633.2251, 2300.838
633.7072, 2324.466
634.1893, 2343.444
634.6714, 2344.197
635.1536, 2312.582
635.6357, 2294.277
636.1178, 2295.166
636.5999, 2308.229
637.0820, 2324.561
637.5641, 2344.555
638.0463, 2354.425
638.5284, 2343.369
639.0105, 2325.076
639.4926, 2331.195
639.9747, 2357.490
640.4568, 2379.178
640.9390, 2377.179
641.4211, 2366.499
641.9032, 2360.141
642.3853, 2359.061
642.8674, 2359.899
643.3495, 2363.570
643.8317, 2367.192
644.3138, 2368.433
644.7959, 2363.231
645.2780, 2363.402
645.7601, 2372.538
646.2422, 2383.882
646.7244, 2388.071
647.2065, 2382.474
647.6886, 2384.437
648.1707, 2400.311
648.6528, 2420.486
649.1349, 2422.878
649.6171, 2410.077
650.0992, 2400.531
650.5813, 2404.593
651.0634, 2415.521
651.5455, 2425.274
652.0276, 2434.483
652.5098, 2446.083
652.9919, 2467.132
653.4740, 2486.825
653.9561, 2496.963
654.4382, 2494.707
654.9203, 2495.589
655.4025, 2506.599
655.8846, 2517.195
656.3667, 2517.869
656.8488, 2499.135
657.3309, 2500.813
657.8130, 2528.939
658.2952, 2569.195
658.7773, 2604.794
659.2594, 2635.769
659.7415, 2658.080
660.2236, 2668.070
660.7057, 2673.402
661.1879, 2683.130
661.6700, 2696.908
662.1521, 2713.721
662.6342, 2732.733
663.1163, 2754.922
663.5984, 2782.297
664.0806, 2814.187
664.5627, 2845.376
665.0448, 2869.020
665.5269, 2896.577
666.0090, 2934.205
666.4911, 2983.455
666.9733, 3028.219
667.4554, 3066.219
667.9375, 3104.248
668.4196, 3148.270
668.9017, 3198.299
669.3839, 3249.099
669.8660, 3300.419
670.3481, 3350.571
670.8302, 3395.200
671.3123, 3437.167
671.7944, 3483.169
672.2766, 3537.295
672.7587, 3591.907
673.2408, 3642.241
673.7229, 3689.615
674.2050, 3737.619
674.6871, 3787.352
675.1693, 3837.674
675.6514, 3890.616
676.1335, 3944.996
676.6156, 3993.416
677.0977, 4035.165
677.5798, 4072.383
678.0620, 4105.508
678.5441, 4134.762
679.0262, 4160.952
679.5083, 4184.623
679.9904, 4199.723
680.4725, 4194.758
680.9547, 4179.990
681.4368, 4178.917
681.9189, 4197.172
682.4010, 4200.691
682.8831, 4153.208
683.3652, 4085.799
683.8474, 4030.873
684.3295, 4010.942
684.8116, 3979.369
685.2937, 3925.689
685.7758, 3858.239
686.2579, 3786.494
686.7401, 3707.319
687.2222, 3633.342
687.7043, 3568.697
688.1864, 3509.494
688.6685, 3448.447
689.1506, 3385.295
689.6328, 3315.735
690.1149, 3227.096
690.5970, 3137.123
691.0791, 3078.596
691.5612, 3045.046
692.0433, 3005.408
692.5255, 2929.938
693.0076, 2852.322
693.4897, 2797.092
693.9718, 2768.538
694.4539, 2731.012
694.9360, 2669.470
695.4182, 2607.340
695.9003, 2555.357
696.3824, 2514.453
696.8645, 2484.353
697.3466, 2467.397
697.8287, 2455.110
698.3109, 2443.152
698.7930, 2429.333
699.2751, 2398.068
699.7572, 2342.013
700.2393, 2286.365
700.7214, 2261.153
701.2036, 2253.774
701.6857, 2243.126
702.1678, 2214.555
702.6499, 2189.789
703.1320, 2183.379
703.6141, 2186.593
704.0963, 2176.468
704.5784, 2135.326
705.0605, 2106.320
705.5426, 2102.238
706.0247, 2117.048
706.5068, 2124.892
706.9890, 2125.608
707.4711, 2121.165
707.9532, 2109.087
708.4353, 2093.351
708.9174, 2085.332
709.3995, 2084.373
709.8817, 2084.487
710.3638, 2083.045
710.8459, 2079.905
711.3280, 2073.156
711.8101, 2061.561
712.2922, 2055.867
712.7744, 2067.977
713.2565, 2080.367
713.7386, 2080.437
714.2207, 2059.951
714.7028, 2048.776
715.1849, 2048.952
715.6671, 2054.728
716.1492, 2060.447
716.6313, 2066.092
717.1134, 2071.742
717.5955, 2076.944
718.0776, 2083.499
718.5598, 2095.069
719.0419, 2109.333
719.5240, 2121.985
720.0061, 2136.754
720.4882, 2143.306
720.9703, 2128.939
721.4525, 2103.459
721.9346, 2089.178
722.4167, 2098.767
722.8988, 2106.868
723.3809, 2107.896
723.8630, 2104.042
724.3452, 2104.333
724.8273, 2109.234
725.3094, 2115.030
725.7915, 2122.063
726.2736, 2127.964
726.7557, 2123.010
727.2379, 2108.973
727.7200, 2099.831
728.2021, 2108.207
728.6842, 2122.747
729.1663, 2136.062
729.6484, 2147.518
730.1306, 2153.904
730.6127, 2153.783
731.0948, 2148.462
731.5769, 2137.176
732.0590, 2115.990
732.5411, 2105.620
733.0233, 2108.324
733.5054, 2116.785
733.9875, 2126.148
734.4696, 2135.954
734.9517, 2142.126
735.4338, 2143.929
735.9160, 2144.063
736.3981, 2146.285
736.8802, 2148.285
737.3623, 2146.050
737.8444, 2134.977
738.3266, 2126.420
738.8087, 2127.206
739.2908, 2132.193
739.7729, 2133.841
740.2551, 2130.071
740.7372, 2126.631
741.2193, 2125.982
741.7014, 2124.495
742.1835, 2110.598
742.6656, 2084.140
743.1478, 2067.775
743.6299, 2073.309
744.1120, 2086.976
744.5941, 2086.573
745.0762, 2075.861
745.5583, 2066.510
746.0405, 2064.863
746.5226, 2065.698
747.0047, 2068.588
747.4868, 2072.363
747.9689, 2070.583
748.4510, 2057.370
748.9332, 2045.139
749.4153, 2037.223
749.8974, 2033.589
750.3795, 2034.063
750.8616, 2039.086
751.3438, 2044.716
751.8259, 2049.547
752.3080, 2052.921
752.7901, 2052.731
753.2722, 2049.074
753.7543, 2044.831
754.2365, 2042.745
754.7186, 2040.291
755.2007, 2034.786
755.6828, 2025.021
756.1649, 2017.481
756.6470, 2011.095
757.1292, 2009.078
757.6113, 2014.849
758.0934, 2031.437
758.5755, 2042.420
759.0576, 2047.793
759.5397, 2047.846
760.0219, 2039.974
760.5040, 2026.916
760.9861, 2016.804
761.4682, 2010.571
761.9503, 2009.688
762.4324, 2018.673
762.9146, 2032.270
763.3967, 2044.241
763.8788, 2051.095
764.3609, 2059.575
764.8430, 2079.485
765.3251, 2096.467
765.8073, 2090.486
766.2894, 2052.246
766.7715, 2028.080
767.2536, 2025.988
767.7357, 2037.771
768.2178, 2054.433
768.7000, 2074.137
769.1821, 2088.746
769.6642, 2094.582
770.1463, 2096.356
770.6284, 2093.953
771.1105, 2090.957
771.5927, 2094.290
772.0748, 2117.000
772.5569, 2133.546
773.0390, 2135.635
773.5211, 2127.952
774.0032, 2120.974
774.4854, 2113.831
774.9675, 2110.797
775.4496, 2113.768
775.9317, 2121.123
776.4138, 2131.281
776.8959, 2143.045
777.3781, 2150.403
777.8602, 2148.557
778.3423, 2142.250
778.8244, 2132.586
779.3065, 2121.163
779.7886, 2114.338
780.2708, 2111.625
780.7529, 2117.178
781.2350, 2139.486
781.7171, 2174.388
782.1992, 2177.776
782.6813, 2140.797
783.1635, 2107.526
783.6456, 2105.896
784.1277, 2124.493
784.6098, 2123.876
785.0919, 2105.841
785.5740, 2088.381
786.0562, 2082.773
786.5383, 2082.797
787.0204, 2085.422
787.5025, 2090.283
787.9846, 2090.950
788.4667, 2080.861
788.9489, 2071.163
789.4310, 2067.870
789.9131, 2071.770
790.3952, 2065.953
790.8773, 2048.184
791.3594, 2031.341
791.8416, 2027.499
792.3237, 2031.787
792.8058, 2032.078
793.2879, 2027.760
793.7700, 2019.653
794.2521, 2004.885
794.7343, 1988.887
795.2164, 1976.281
795.6985, 1967.950
796.1806, 1960.935
796.6627, 1954.312
797.1448, 1949.312
797.6270, 1947.067
798.1091, 1947.902
798.5912, 1949.741
799.0733, 1953.230
799.5554, 1954.186
800.0375, 1946.580
800.5197, 1934.124
801.0018, 1924.842
801.4839, 1920.579
801.9660, 1913.216
802.4481, 1889.131
802.9302, 1865.178
803.4124, 1857.384
803.8945, 1882.373
804.3766, 1889.914
804.8587, 1870.731
805.3408, 1846.334
805.8229, 1836.795
806.3051, 1842.019
806.7872, 1848.070
807.2693, 1854.265
807.7514, 1858.270
808.2335, 1856.308
808.7156, 1851.129
809.1978, 1846.986
809.6799, 1845.206
810.1620, 1842.994
810.6441, 1839.509
811.1262, 1834.829
811.6083, 1828.885
812.0905, 1820.153
812.5726, 1813.801
813.0547, 1810.558
813.5368, 1808.598
814.0189, 1803.796
814.5010, 1797.648
814.9832, 1801.757
815.4653, 1820.776
815.9474, 1836.348
816.4295, 1826.325
816.9116, 1805.153
817.3937, 1790.744
817.8759, 1789.842
818.3580, 1791.441
818.8401, 1797.240
819.3222, 1802.010
819.8043, 1799.597
820.2864, 1787.394
820.7686, 1780.902
821.2507, 1783.005
821.7328, 1786.606
822.2149, 1779.546
822.6970, 1766.933
823.1791, 1763.281
823.6613, 1775.339
824.1434, 1785.129
824.6255, 1775.451
825.1076, 1759.339
825.5897, 1751.440
826.0718, 1767.847
826.5540, 1772.014
827.0361, 1756.697
827.5182, 1737.406
828.0003, 1734.671
828.4824, 1748.262
828.9645, 1756.546
829.4467, 1756.089
829.9288, 1750.682
830.4109, 1740.065
830.8930, 1728.839
831.3751, 1724.545
831.8572, 1731.925
832.3394, 1740.072
832.8215, 1745.877
833.3036, 1750.231
833.7857, 1755.161
834.2678, 1764.101
834.7499, 1761.846
835.2321, 1730.026
835.7142, 1745.838
836.1963, 1754.733
836.6784, 1757.083
837.1605, 1733.289
837.6426, 1743.255
838.1248, 1739.692
838.6069, 1735.574
839.0890, 1750.293
839.5711, 1730.301
840.0532, 1744.720
840.5353, 1745.404
841.0175, 1752.374
841.4996, 1745.730
841.9817, 1743.292
842.4638, 1754.471
842.9459, 1758.110
843.4280, 1749.899
843.9102, 1757.269
844.3923, 1736.802
844.8744, 1740.762
845.3565, 1755.261
845.8386, 1747.735
846.3207, 1755.354
846.8029, 1757.204
847.2850, 1732.842
847.7671, 1754.067
848.2492, 1755.577
848.7313, 1736.843
849.2134, 1756.506
849.6956, 1740.564
850.1777, 1737.330
850.6598, 1743.661
851.1419, 1740.021
851.6240, 1752.101
852.1061, 1749.037
852.5883, 1754.578
853.0704, 1768.088
853.5525, 1770.160
854.0346, 1751.162
854.5167, 1744.995
854.9988, 1762.048
855.4810, 1780.997
855.9631, 1785.379
856.4452, 1774.904
856.9273, 1769.344
857.4094, 1769.323
857.8915, 1772.101
858.3737, 1776.485
858.8558, 1781.627
859.3379, 1786.856
859.8200, 1792.149
860.3021, 1795.918
860.7842, 1795.472
861.2664, 1795.104
861.7485, 1798.230
862.2306, 1805.844
862.7127, 1805.788
863.1948, 1796.297
863.6769, 1786.914
864.1591, 1783.802
864.6412, 1785.947
865.1233, 1792.599
865.6054, 1803.267
866.0875, 1811.808
866.5696, 1816.450
867.0518, 1816.308
867.5339, 1808.269
868.0160, 1791.644
868.4981, 1782.215
868.9802, 1782.060
869.4623, 1784.685
869.9445, 1786.988
870.4266, 1789.598
870.9087, 1795.914
871.3908, 1805.763
871.8729, 1816.354
872.3550, 1830.056
872.8372, 1840.632
873.3193, 1840.112
873.8014, 1830.634
874.2835, 1824.679
874.7656, 1831.283
875.2477, 1833.714
875.7299, 1823.753
876.2120, 1807.323
876.6941, 1811.709
877.1762, 1836.825
877.6583, 1854.754
878.1404, 1848.024
878.6226, 1833.102
879.1047, 1833.763
879.5869, 1843.874
880.0690, 1847.664
880.5511, 1825.167
881.0332, 1811.865
881.5153, 1826.445
881.9974, 1854.186
882.4796, 1864.433
882.9617, 1853.679
883.4438, 1845.124
883.9259, 1844.230
884.4080, 1848.069
884.8901, 1854.517
885.3723, 1861.924
885.8544, 1866.231
886.3365, 1863.836
886.8186, 1861.624
887.3007, 1862.794
887.7828, 1865.878
888.2650, 1869.055
888.7471, 1873.293
889.2292, 1874.378
889.7113, 1870.895
890.1934, 1866.604
890.6755, 1867.047
891.1577, 1870.720
891.6398, 1872.866
892.1219, 1872.414
892.6040, 1871.261
893.0861, 1868.395
893.5682, 1866.814
894.0504, 1870.081
894.5325, 1882.631
895.0146, 1889.383
895.4967, 1888.003
895.9788, 1885.131
896.4609, 1885.832
896.9431, 1889.847
897.4252, 1897.094
897.9073, 1907.630
898.3894, 1915.546
898.8715, 1913.109
899.3536, 1908.617
899.8358, 1911.387
900.3179, 1923.426
900.8000, 1925.310
901.2821, 1905.853
901.7642, 1890.109
902.2463, 1891.718
902.7285, 1907.585
903.2106, 1913.571
903.6927, 1909.983
904.1748, 1905.871
904.6569, 1908.412
905.1390, 1911.888
905.6212, 1908.787
906.1033, 1901.038
906.5854, 1897.242
907.0675, 1905.351
907.5496, 1910.938
908.0317, 1909.404
908.5139, 1903.506
908.9960, 1902.325
909.4781, 1905.895
909.9602, 1907.513
910.4423, 1903.876
910.9244, 1898.728
911.4066, 1895.427
911.8887, 1894.125
912.3708, 1895.082
912.8529, 1902.109
913.3350, 1906.405
913.8171, 1901.463
914.2993, 1896.582
914.7814, 1908.521
915.2635, 1939.735
915.7456, 1952.782
916.2277, 1939.585
916.7098, 1919.391
917.1920, 1911.361
917.6741, 1912.091
918.1562, 1917.859
918.6383, 1929.726
919.1204, 1939.695
919.6025, 1948.374
920.0847, 1951.600
920.5668, 1943.653
921.0489, 1920.900
921.5310, 1915.605
922.0131, 1929.686
922.4952, 1945.209
922.9774, 1946.351
923.4595, 1940.343
923.9416, 1936.832
924.4237, 1936.494
924.9058, 1938.800
925.3879, 1950.222
925.8701, 1957.076
926.3522, 1951.102
926.8343, 1934.745
927.3164, 1929.547
927.7985, 1936.887
928.2806, 1942.263
928.7628, 1936.911
929.2449, 1927.740
929.7270, 1927.655
930.2091, 1932.767
930.6912, 1932.526
931.1733, 1913.673
931.6555, 1899.322
932.1376, 1898.144
932.6197, 1905.039
933.1018, 1912.786
933.5839, 1921.741
934.0660, 1929.388
934.5482, 1935.387
935.0303, 1939.807
935.5124, 1942.863
935.9945, 1944.454
936.4766, 1944.688
936.9587, 1944.398
937.4409, 1940.565
937.9230, 1929.434
938.4051, 1916.366
938.8872, 1903.513
939.3693, 1888.445
939.8514, 1891.433
940.3336, 1915.181
940.8157, 1936.773
941.2978, 1932.239
941.7799, 1916.076
942.2620, 1909.138
942.7441, 1912.417
943.2263, 1917.035
943.7084, 1924.816
944.1905, 1927.222
944.6726, 1917.721
945.1547, 1899.567
945.6368, 1894.709
946.1190, 1903.871
946.6011, 1913.524
947.0832, 1917.549
947.5653, 1918.899
948.0474, 1922.241
948.5295, 1926.047
949.0117, 1926.760
949.4938, 1917.522
949.9759, 1912.507
950.4580, 1917.064
950.9401, 1924.999
951.4222, 1925.803
951.9044, 1919.293
952.3865, 1918.363
952.8686, 1926.575
953.3507, 1933.430
953.8328, 1923.753
954.3149, 1907.949
954.7971, 1900.015
955.2792, 1905.705
955.7613, 1907.385
956.2434, 1894.189
956.7255, 1886.240
957.2076, 1901.254
957.6898, 1938.032
958.1719, 1947.045
958.6540, 1928.782
959.1361, 1911.621
959.6182, 1919.915
960.1003, 1934.380
960.5825, 1935.952
961.0646, 1926.680
961.5467, 1922.434
962.0288, 1926.753
962.5109, 1936.237
962.9930, 1953.969
963.4752, 1972.956
963.9573, 1971.999
964.4394, 1954.360
964.9215, 1939.929
965.4036, 1935.191
965.8857, 1935.891
966.3679, 1941.824
966.8500, 1949.730
967.3321, 1955.521
967.8142, 1961.044
968.2963, 1958.648
968.7784, 1944.463
969.2606, 1930.145
969.7427, 1930.733
970.2248, 1941.260
970.7069, 1941.654
971.1890, 1930.555
971.6711, 1922.513
972.1533, 1928.396
972.6354, 1939.527
973.1175, 1952.858
973.5996, 1967.734
974.0817, 1973.548
974.5638, 1968.436
975.0460, 1960.489
975.5281, 1950.855
976.0102, 1942.492
976.4923, 1944.992
976.9744, 1954.259
977.4565, 1958.269
977.9387, 1940.860
978.4208, 1930.080
978.9029, 1943.464
979.3850, 1965.405
979.8671, 1974.012
980.3492, 1966.221
980.8314, 1963.866
981.3135, 1970.722
981.7956, 1976.861
982.2777, 1967.977
982.7598, 1952.981
983.2419, 1943.145
983.7241, 1939.664
984.2062, 1945.617
984.6883, 1974.701
985.1704, 2000.565
985.6525, 2011.770
986.1346, 2009.192
986.6168, 1997.355
987.0989, 1976.831
987.5810, 1965.542
988.0631, 1985.637
988.5452, 2009.763
989.0273, 2009.109
989.5095, 1991.991
989.9916, 1979.788
990.4737, 1979.958
990.9558, 1979.875
991.4379, 1977.047
991.9200, 1974.882
992.4022, 1980.885
992.8843, 1992.608
993.3664, 1999.221
993.8485, 1998.118
994.3306, 1995.350
994.8127, 1994.936
995.2949, 1994.777
995.7770, 1991.264
996.2591, 1982.321
996.7412, 1986.410
997.2233, 2007.498
997.7054, 2027.007
998.1876, 2031.928
998.6697, 2028.019
999.1518, 2029.870
999.6339, 2034.920
1000.116, 2033.058
1000.598, 2006.273
1001.080, 1987.507
1001.562, 1993.487
1002.044, 2011.938
1002.527, 2021.404
1003.009, 2021.159
1003.491, 2021.878
1003.973, 2026.094
1004.455, 2028.990
1004.937, 2022.175
1005.419, 2012.320
1005.901, 2008.460
1006.384, 2013.934
1006.866, 2018.159
1007.348, 2022.021
1007.830, 2021.130
1008.312, 2010.004
1008.794, 1991.610
1009.276, 1983.208
1009.758, 1984.315
1010.240, 1990.357
1010.723, 2008.560
1011.205, 2021.097
1011.687, 2010.023
1012.169, 1985.107
1012.651, 1973.021
1013.133, 1977.038
1013.615, 1987.542
1014.097, 2006.545
1014.580, 2022.441
1015.062, 2014.287
1015.544, 1992.667
1016.026, 1977.059
1016.508, 1971.322
1016.990, 1970.717
1017.472, 1976.746
1017.954, 1984.395
1018.436, 1991.161
1018.919, 1996.983
1019.401, 2002.170
1019.883, 2006.727
1020.365, 2008.437
1020.847, 2003.918
1021.329, 1997.690
1021.811, 1991.330
1022.293, 1987.008
1022.776, 1990.321
1023.258, 2013.059
1023.740, 2024.597
1024.222, 2017.825
1024.704, 2005.812
1025.186, 2006.322
1025.668, 2016.732
1026.150, 2030.334
1026.632, 2046.920
1027.115, 2057.021
1027.597, 2043.640
1028.079, 2031.471
1028.561, 2041.785
1029.043, 2073.086
1029.525, 2085.723
1030.007, 2077.099
1030.489, 2069.860
1030.972, 2076.769
1031.454, 2088.080
1031.936, 2091.354
1032.418, 2088.432
1032.900, 2083.266
1033.382, 2070.336
1033.864, 2065.349
1034.346, 2072.738
1034.828, 2084.231
1035.311, 2091.530
1035.793, 2094.812
1036.275, 2093.986
1036.757, 2089.028
1037.239, 2083.670
1037.721, 2080.130
1038.203, 2077.495
1038.685, 2074.468
1039.167, 2071.447
1039.650, 2072.905
1040.132, 2080.249
1040.614, 2086.147
1041.096, 2088.740
1041.578, 2087.413
1042.060, 2076.400
1042.542, 2061.788
1043.024, 2055.533
1043.507, 2067.649
1043.989, 2075.325
1044.471, 2070.579
1044.953, 2064.710
1045.435, 2068.563
1045.917, 2080.831
1046.399, 2082.652
1046.881, 2074.128
1047.364, 2065.053
1047.846, 2059.586
1048.328, 2058.103
1048.810, 2063.347
1049.292, 2073.228
1049.774, 2078.325
1050.256, 2076.508
1050.738, 2077.518
1051.220, 2083.934
1051.703, 2092.164
1052.185, 2099.883
1052.667, 2104.690
1053.149, 2100.403
1053.631, 2082.659
1054.113, 2071.075
1054.595, 2074.670
1055.077, 2081.342
1055.559, 2085.040
1056.042, 2086.529
1056.524, 2092.796
1057.006, 2102.975
1057.488, 2109.987
1057.970, 2107.241
1058.452, 2102.936
1058.934, 2101.709
1059.416, 2102.618
1059.899, 2103.416
1060.381, 2102.953
1060.863, 2107.035
1061.345, 2117.268
1061.827, 2127.274
1062.309, 2130.184
1062.791, 2128.888
1063.273, 2127.044
1063.755, 2125.037
1064.238, 2123.662
1064.720, 2121.841
1065.202, 2122.678
1065.684, 2128.412
1066.166, 2136.485
1066.648, 2136.861
1067.130, 2132.268
1067.612, 2136.730
1068.094, 2159.972
1068.577, 2180.570
1069.059, 2188.014
1069.541, 2184.731
1070.023, 2170.026
1070.505, 2137.987
1070.987, 2134.066
1071.469, 2160.829
1071.951, 2189.872
1072.434, 2202.463
1072.916, 2206.071
1073.398, 2207.515
1073.880, 2207.543
1074.362, 2208.183
1074.844, 2212.347
1075.326, 2211.707
1075.808, 2201.042
1076.291, 2192.678
1076.773, 2211.335
1077.255, 2245.723
1077.737, 2261.346
1078.219, 2252.420
1078.701, 2241.297
1079.183, 2236.388
1079.665, 2235.340
1080.147, 2238.078
1080.630, 2243.421
1081.112, 2242.761
1081.594, 2236.425
1082.076, 2234.998
1082.558, 2245.425
1083.040, 2256.551
1083.522, 2257.171
1084.004, 2252.976
1084.486, 2251.492
1084.969, 2253.719
1085.451, 2258.511
1085.933, 2266.747
1086.415, 2274.090
1086.897, 2278.016
1087.379, 2278.419
1087.861, 2273.585
1088.343, 2264.700
1088.826, 2256.676
1089.308, 2248.145
1089.790, 2245.873
1090.272, 2254.434
1090.754, 2265.413
1091.236, 2261.083
1091.718, 2246.670
1092.200, 2251.002
1092.682, 2280.182
1093.165, 2300.725
1093.647, 2278.885
1094.129, 2253.318
1094.611, 2250.575
1095.093, 2266.847
1095.575, 2274.504
1096.057, 2273.364
1096.539, 2268.101
1097.022, 2260.884
1097.504, 2249.603
1097.986, 2222.823
1098.468, 2194.587
1098.950, 2186.293
1099.432, 2212.640
1099.914, 2228.165
1100.396, 2232.289
1100.879, 2226.760
1101.361, 2204.256
1101.843, 2176.803
1102.325, 2169.682
1102.807, 2178.670
1103.289, 2187.243
1103.771, 2193.781
1104.253, 2192.308
1104.735, 2178.549
1105.218, 2161.251
1105.700, 2152.897
1106.182, 2151.892
1106.664, 2152.775
1107.146, 2155.019
1107.628, 2152.125
1108.110, 2131.559
1108.592, 2113.362
1109.074, 2112.028
1109.557, 2122.234
1110.039, 2123.461
1110.521, 2115.658
1111.003, 2101.525
1111.485, 2079.371
1111.967, 2059.221
1112.449, 2050.026
1112.931, 2048.745
1113.414, 2054.538
1113.896, 2070.596
1114.378, 2073.404
1114.860, 2060.326
1115.342, 2045.393
1115.824, 2035.184
1116.306, 2029.008
1116.788, 2025.911
1117.271, 2025.962
1117.753, 2029.315
1118.235, 2042.661
1118.717, 2049.159
1119.199, 2046.739
1119.681, 2039.543
1120.163, 2028.425
1120.645, 2016.306
1121.127, 2013.066
1121.609, 2018.293
1122.092, 2024.148
1122.574, 2032.463
1123.056, 2033.022
1123.538, 2018.203
1124.020, 1997.681
1124.502, 1993.737
1124.984, 2003.678
1125.466, 2002.446
1125.949, 1984.078
1126.431, 1967.711
1126.913, 1968.514
1127.395, 1974.854
1127.877, 1979.342
1128.359, 1981.815
1128.841, 1982.612
1129.323, 1981.699
1129.806, 1979.645
1130.288, 1976.682
1130.770, 1972.646
1131.252, 1962.803
1131.734, 1953.976
1132.216, 1956.700
1132.698, 1976.942
1133.180, 1990.601
1133.662, 1997.176
1134.145, 1998.862
1134.627, 1994.302
1135.109, 1987.580
1135.591, 1985.979
1136.073, 1987.445
1136.555, 1986.815
1137.037, 1978.893
1137.519, 1974.721
1138.001, 1976.069
1138.484, 1978.886
1138.966, 1976.083
1139.448, 1972.248
1139.930, 1981.932
1140.412, 2004.034
1140.894, 2020.866
1141.376, 2023.406
1141.858, 2021.894
1142.341, 2019.109
1142.823, 2014.190
1143.305, 2003.571
1143.787, 1989.031
1144.269, 1977.690
1144.751, 1970.526
1145.233, 1969.010
1145.715, 1977.989
1146.198, 1989.163
1146.680, 2000.174
1147.162, 2009.326
1147.644, 2005.637
1148.126, 1990.176
1148.608, 1977.500
1149.090, 1971.695
1149.572, 1970.883
1150.054, 1981.588
1150.536, 1990.826
1151.019, 1981.710
1151.501, 1951.167
1151.983, 1949.539
1152.465, 1977.967
1152.947, 2006.064
1153.429, 2016.763
1153.911, 2020.547
1154.393, 2028.764
1154.876, 2036.374
1155.358, 2032.825
1155.840, 2010.829
1156.322, 2000.279
1156.804, 2003.237
1157.286, 2009.288
1157.768, 2011.356
1158.250, 2010.775
1158.733, 2008.448
1159.215, 2004.865
1159.697, 2001.577
1160.179, 1999.191
1160.661, 1995.345
1161.143, 1987.916
1161.625, 1984.280
1162.107, 1998.030
1162.589, 2019.029
1163.072, 2030.822
1163.554, 2032.308
1164.036, 2028.332
1164.518, 2014.310
1165.000, 2004.980
1165.482, 2005.086
1165.964, 2009.604
1166.446, 2011.792
1166.928, 2010.812
1167.411, 2002.716
1167.893, 1985.018
1168.375, 1973.414
1168.857, 1974.940
1169.339, 1981.659
1169.821, 1993.027
1170.303, 2005.853
1170.785, 2011.121
1171.268, 2009.880
1171.750, 2004.656
1172.232, 1992.571
1172.714, 1986.319
1173.196, 1994.038
1173.678, 2007.021
1174.160, 2024.821
1174.642, 2044.082
1175.125, 2033.445
1175.607, 1999.085
1176.089, 1975.570
1176.571, 1987.183
1177.053, 2002.370
1177.535, 2010.835
1178.017, 2013.662
1178.499, 2008.523
1178.981, 1995.618
1179.464, 1999.102
1179.946, 2018.001
1180.428, 2032.734
1180.910, 2024.588
1181.392, 2015.974
1181.874, 2022.591
1182.356, 2034.446
1182.838, 2034.585
1183.320, 2022.394
1183.803, 2017.812
1184.285, 2022.566
1184.767, 2029.207
1185.249, 2033.115
1185.731, 2036.065
1186.213, 2041.195
1186.695, 2045.899
1187.177, 2041.673
1187.660, 2027.744
1188.142, 2017.106
1188.624, 2012.267
1189.106, 2008.319
1189.588, 1996.327
1190.070, 1987.270
1190.552, 1993.145
1191.034, 2011.675
1191.516, 2025.677
1191.999, 2035.541
1192.481, 2035.712
1192.963, 2022.405
1193.445, 2008.411
1193.927, 2004.942
1194.409, 2008.307
1194.891, 2017.580
1195.373, 2032.677
1195.855, 2037.438
1196.338, 2030.513
1196.820, 2025.105
1197.302, 2026.453
1197.784, 2031.250
1198.266, 2040.793
1198.748, 2049.072
1199.230, 2046.169
1199.712, 2028.133
1200.195, 2020.984
1200.677, 2026.157
1201.159, 2032.228
1201.641, 2033.048
1202.123, 2031.742
1202.605, 2030.276
1203.087, 2029.707
1203.569, 2032.261
1204.052, 2040.563
1204.534, 2044.985
1205.016, 2045.765
1205.498, 2041.408
1205.980, 2023.969
1206.462, 2006.380
1206.944, 2006.790
1207.426, 2018.048
1207.908, 2022.496
1208.391, 2010.448
1208.873, 2018.263
1209.355, 2052.054
1209.837, 2081.270
1210.319, 2072.427
1210.801, 2050.591
1211.283, 2044.859
1211.765, 2050.941
1212.247, 2049.773
1212.730, 2034.479
1213.212, 2030.959
1213.694, 2044.466
1214.176, 2057.502
1214.658, 2050.300
1215.140, 2035.433
1215.622, 2024.490
1216.104, 2018.855
1216.587, 2022.014
1217.069, 2037.260
1217.551, 2049.547
1218.033, 2056.694
1218.515, 2059.264
1218.997, 2055.730
1219.479, 2049.428
1219.961, 2042.456
1220.443, 2035.692
1220.926, 2035.712
1221.408, 2044.995
1221.890, 2051.446
1222.372, 2051.761
1222.854, 2050.093
1223.336, 2049.578
1223.818, 2051.029
1224.300, 2056.054
1224.782, 2065.036
1225.265, 2073.947
1225.747, 2084.307
1226.229, 2086.314
1226.711, 2074.577
1227.193, 2059.893
1227.675, 2055.731
1228.157, 2055.853
1228.639, 2051.719
1229.122, 2041.540
1229.604, 2041.047
1230.086, 2052.203
1230.568, 2059.459
1231.050, 2054.767
1231.532, 2047.976
1232.014, 2051.251
1232.496, 2058.600
1232.979, 2061.244
1233.461, 2057.070
1233.943, 2064.893
1234.425, 2086.408
1234.907, 2101.927
1235.389, 2099.007
1235.871, 2091.250
1236.353, 2093.768
1236.835, 2098.757
1237.318, 2094.192
1237.800, 2077.381
1238.282, 2070.396
1238.764, 2073.573
1239.246, 2080.976
1239.728, 2094.257
1240.210, 2104.082
1240.692, 2096.867
1241.175, 2076.145
1241.657, 2092.449
1242.139, 2101.838
1242.621, 2104.682
1243.103, 2081.380
1243.585, 2091.840
1244.067, 2088.770
1244.549, 2085.145
1245.031, 2100.357
1245.514, 2080.860
1245.996, 2095.773
1246.478, 2096.949
1246.960, 2104.413
1247.442, 2098.263
1247.924, 2096.318
1248.406, 2107.990
1248.888, 2089.913
1249.370, 2085.741
1249.853, 2082.420
1250.335, 2086.284
1250.817, 2096.806
1251.299, 2094.778
1251.781, 2080.594
1252.263, 2072.263
1252.745, 2093.603
1253.227, 2107.948
1253.710, 2088.687
1254.192, 2061.941
1254.674, 2064.131
1255.156, 2090.192
1255.638, 2102.103
1256.120, 2098.866
1256.602, 2097.516
1257.084, 2113.892
1257.567, 2124.830
1258.049, 2119.379
1258.531, 2109.726
1259.013, 2113.563
1259.495, 2127.576
1259.977, 2143.253
1260.459, 2158.748
1260.941, 2163.379
1261.423, 2139.405
1261.906, 2121.405
1262.388, 2118.229
1262.870, 2122.232
1263.352, 2124.394
1263.834, 2124.650
1264.316, 2121.417
1264.798, 2115.115
1265.280, 2112.058
1265.762, 2118.667
1266.245, 2120.063
1266.727, 2110.434
1267.209, 2102.063
1267.691, 2119.427
1268.173, 2145.844
1268.655, 2152.443
1269.137, 2137.749
1269.619, 2122.663
1270.102, 2109.168
1270.584, 2096.419
1271.066, 2082.618
1271.548, 2075.365
1272.030, 2090.536
1272.512, 2113.677
1272.994, 2128.945
1273.476, 2134.587
1273.958, 2134.998
1274.441, 2128.666
1274.923, 2126.150
1275.405, 2130.470
1275.887, 2135.992
1276.369, 2136.153
1276.851, 2135.217
1277.333, 2139.635
1277.815, 2147.371
1278.297, 2143.301
1278.780, 2126.728
1279.262, 2113.456
1279.744, 2106.919
1280.226, 2106.029
1280.708, 2110.709
1281.190, 2120.352
1281.672, 2139.806
1282.154, 2162.818
1282.637, 2162.010
1283.119, 2140.504
1283.601, 2128.465
1284.083, 2132.966
1284.565, 2141.482
1285.047, 2150.341
1285.529, 2156.908
1286.011, 2160.501
1286.494, 2160.818
1286.976, 2154.444
1287.458, 2144.024
1287.940, 2139.447
1288.422, 2143.591
1288.904, 2146.195
1289.386, 2138.987
1289.868, 2136.381
1290.350, 2145.559
1290.833, 2158.472
1291.315, 2155.568
1291.797, 2145.388
1292.279, 2147.266
1292.761, 2167.192
##END=



