##NAMES=Phlogopite
##RRUFFID=R040144
##IDEAL CHEMISTRY=KMg_3_(Si_3_Al)O_10_(OH)_2_
##LOCALITY=Brinton's Quarry, Chester County, Pennsylvania, USA
##OWNER=RRUFF
##SOURCE=University of Arizona Mineral Museum
##DESCRIPTION=Dark green mica book
##STATUS=The identification of this mineral has been confirmed by X-ray diffraction and chemical analysis
##URL=rruff.info/R040144
##MEASURED CHEMISTRY=(K_0.94_Na_0.04_)(Mg_0.82_Al_0.13_Fe_0.08_)_3_(Si_0.67_Al_0.33_)_4_O_10_((OH)_0.90_F_0.10_)_2_
155.7318, 1330.190
156.2139, 1330.255
156.6960, 1334.369
157.1782, 1348.271
157.6603, 1373.537
158.1424, 1399.530
158.6245, 1416.948
159.1066, 1428.603
159.5887, 1440.862
160.0709, 1454.434
160.5530, 1469.782
161.0351, 1487.507
161.5172, 1507.619
161.9993, 1529.840
162.4814, 1554.765
162.9636, 1581.515
163.4457, 1609.353
163.9278, 1638.310
164.4099, 1667.974
164.8920, 1697.706
165.3741, 1727.958
165.8563, 1756.779
166.3384, 1779.742
166.8205, 1800.688
167.3026, 1826.711
167.7847, 1863.551
168.2668, 1906.488
168.7490, 1945.201
169.2311, 1978.463
169.7132, 2010.541
170.1953, 2044.762
170.6774, 2079.351
171.1595, 2111.019
171.6417, 2135.776
172.1238, 2157.677
172.6059, 2185.021
173.0880, 2213.441
173.5701, 2257.713
174.0522, 2331.656
174.5344, 2422.420
175.0165, 2510.913
175.4986, 2587.388
175.9807, 2656.376
176.4628, 2731.450
176.9449, 2814.890
177.4271, 2900.786
177.9092, 2982.001
178.3913, 3064.686
178.8734, 3156.752
179.3555, 3262.747
179.8376, 3381.335
180.3197, 3510.730
180.8019, 3655.853
181.2840, 3803.779
181.7661, 3942.440
182.2482, 4083.323
182.7303, 4241.090
183.2124, 4424.958
183.6946, 4627.088
184.1767, 4824.043
184.6588, 5003.533
185.1409, 5198.488
185.6230, 5413.920
186.1051, 5646.583
186.5873, 5895.562
187.0694, 6161.866
187.5515, 6439.988
188.0336, 6719.632
188.5157, 6986.028
188.9978, 7278.817
189.4800, 7608.050
189.9621, 7959.789
190.4442, 8326.629
190.9263, 8703.744
191.4084, 9086.639
191.8905, 9462.736
192.3727, 9825.521
192.8548, 10196.07
193.3369, 10607.24
193.8190, 11014.64
194.3011, 11377.35
194.7832, 11679.14
195.2654, 11932.21
195.7475, 12166.09
196.2296, 12417.88
196.7117, 12574.01
197.1938, 12613.94
197.6759, 12575.31
198.1581, 12489.30
198.6402, 12366.64
199.1223, 12198.58
199.6044, 11966.65
200.0865, 11655.08
200.5686, 11302.45
201.0508, 10911.78
201.5329, 10490.27
202.0150, 10038.19
202.4971, 9556.161
202.9792, 9065.411
203.4613, 8596.270
203.9435, 8147.675
204.4256, 7728.534
204.9077, 7340.314
205.3898, 6974.209
205.8719, 6622.833
206.3540, 6285.198
206.8362, 5967.309
207.3183, 5677.349
207.8004, 5427.274
208.2825, 5181.739
208.7646, 4934.424
209.2467, 4694.960
209.7289, 4465.795
210.2110, 4250.227
210.6931, 4053.283
211.1752, 3882.567
211.6573, 3743.723
212.1395, 3614.930
212.6216, 3503.073
213.1037, 3395.242
213.5858, 3282.528
214.0679, 3167.248
214.5500, 3060.114
215.0322, 2974.501
215.5143, 2915.582
215.9964, 2845.162
216.4785, 2740.152
216.9606, 2644.804
217.4427, 2579.776
217.9249, 2539.966
218.4070, 2506.602
218.8891, 2464.179
219.3712, 2412.345
219.8533, 2364.271
220.3354, 2322.602
220.8176, 2282.327
221.2997, 2241.501
221.7818, 2201.075
222.2639, 2163.508
222.7460, 2131.429
223.2281, 2103.745
223.7103, 2071.456
224.1924, 2026.131
224.6745, 1985.227
225.1566, 1952.577
225.6387, 1926.442
226.1208, 1904.693
226.6030, 1886.718
227.0851, 1871.062
227.5672, 1851.452
228.0493, 1823.752
228.5314, 1797.370
229.0135, 1771.015
229.4957, 1747.834
229.9778, 1732.029
230.4599, 1725.641
230.9420, 1725.628
231.4241, 1725.370
231.9062, 1729.430
232.3884, 1724.471
232.8705, 1704.404
233.3526, 1678.553
233.8347, 1653.933
234.3168, 1633.076
234.7989, 1615.215
235.2811, 1598.532
235.7632, 1580.409
236.2453, 1570.135
236.7274, 1577.716
237.2095, 1585.936
237.6916, 1580.926
238.1738, 1561.136
238.6559, 1538.156
239.1380, 1528.023
239.6201, 1536.276
240.1022, 1536.673
240.5843, 1515.911
241.0665, 1497.256
241.5486, 1495.816
242.0307, 1509.522
242.5128, 1522.818
242.9949, 1518.415
243.4770, 1494.102
243.9592, 1478.748
244.4413, 1483.407
244.9234, 1486.871
245.4055, 1479.239
245.8876, 1463.607
246.3697, 1449.281
246.8519, 1443.765
247.3340, 1445.773
247.8161, 1443.757
248.2982, 1433.871
248.7803, 1424.977
249.2624, 1418.740
249.7446, 1415.610
250.2267, 1417.002
250.7088, 1425.364
251.1909, 1436.886
251.6730, 1440.201
252.1551, 1432.217
252.6373, 1421.947
253.1194, 1408.370
253.6015, 1395.856
254.0836, 1389.438
254.5657, 1391.224
255.0478, 1398.578
255.5300, 1409.391
256.0121, 1426.108
256.4942, 1436.764
256.9763, 1429.072
257.4584, 1419.030
257.9406, 1418.948
258.4227, 1431.598
258.9048, 1448.878
259.3869, 1463.643
259.8690, 1475.917
260.3511, 1485.268
260.8333, 1488.847
261.3154, 1491.917
261.7975, 1498.271
262.2796, 1507.957
262.7617, 1518.821
263.2438, 1530.190
263.7260, 1541.781
264.2081, 1551.276
264.6902, 1556.214
265.1723, 1562.571
265.6544, 1575.464
266.1365, 1593.372
266.6187, 1611.242
267.1008, 1624.108
267.5829, 1635.800
268.0650, 1656.199
268.5471, 1688.423
269.0292, 1719.788
269.5114, 1739.443
269.9935, 1752.280
270.4756, 1766.350
270.9577, 1785.186
271.4398, 1804.882
271.9219, 1820.088
272.4041, 1830.660
272.8862, 1842.683
273.3683, 1858.933
273.8504, 1878.900
274.3325, 1901.094
274.8146, 1926.603
275.2968, 1952.339
275.7789, 1980.393
276.2610, 2008.171
276.7431, 2024.332
277.2252, 2022.705
277.7073, 2010.207
278.1895, 1997.850
278.6716, 1985.651
279.1537, 1973.563
279.6358, 1965.089
280.1179, 1955.940
280.6000, 1936.291
281.0822, 1902.478
281.5643, 1867.244
282.0464, 1848.720
282.5285, 1849.241
283.0106, 1837.697
283.4927, 1800.994
283.9749, 1756.849
284.4570, 1718.345
284.9391, 1687.270
285.4212, 1664.604
285.9033, 1653.327
286.3854, 1653.216
286.8676, 1646.416
287.3497, 1629.426
287.8318, 1609.830
288.3139, 1591.364
288.7960, 1573.246
289.2781, 1551.836
289.7603, 1523.979
290.2424, 1493.148
290.7245, 1474.908
291.2066, 1482.257
291.6887, 1485.190
292.1708, 1475.461
292.6530, 1460.234
293.1351, 1448.816
293.6172, 1444.429
294.0993, 1443.169
294.5814, 1438.083
295.0635, 1426.081
295.5457, 1415.928
296.0278, 1407.428
296.5099, 1400.801
296.9920, 1397.680
297.4741, 1397.358
297.9562, 1396.010
298.4384, 1388.582
298.9205, 1372.936
299.4026, 1366.359
299.8847, 1376.196
300.3668, 1387.454
300.8489, 1396.834
301.3310, 1403.613
301.8131, 1407.230
302.2953, 1406.927
302.7774, 1403.606
303.2595, 1401.845
303.7416, 1402.110
304.2237, 1403.440
304.7058, 1406.099
305.1880, 1409.379
305.6701, 1412.619
306.1522, 1415.584
306.6343, 1418.273
307.1164, 1420.367
307.5985, 1421.318
308.0807, 1423.703
308.5628, 1433.187
309.0449, 1440.517
309.5270, 1435.780
310.0091, 1419.731
310.4912, 1407.906
310.9734, 1419.093
311.4555, 1450.383
311.9376, 1468.150
312.4197, 1461.783
312.9018, 1453.345
313.3839, 1458.388
313.8661, 1472.492
314.3482, 1484.002
314.8303, 1483.182
315.3124, 1478.533
315.7945, 1487.900
316.2766, 1514.274
316.7588, 1536.910
317.2409, 1540.843
317.7230, 1534.913
318.2051, 1533.711
318.6872, 1540.080
319.1693, 1549.344
319.6515, 1558.212
320.1336, 1567.020
320.6157, 1578.057
321.0978, 1593.312
321.5799, 1609.077
322.0620, 1618.431
322.5442, 1620.129
323.0263, 1624.319
323.5084, 1635.223
323.9905, 1649.660
324.4726, 1664.443
324.9547, 1679.068
325.4369, 1691.562
325.9190, 1698.336
326.4011, 1698.532
326.8832, 1708.946
327.3653, 1743.431
327.8474, 1775.125
328.3296, 1783.979
328.8117, 1776.573
329.2938, 1774.689
329.7759, 1791.878
330.2580, 1823.093
330.7401, 1844.904
331.2223, 1848.181
331.7044, 1853.415
332.1865, 1865.972
332.6686, 1880.043
333.1507, 1887.284
333.6328, 1885.792
334.1150, 1883.534
334.5971, 1893.144
335.0792, 1920.120
335.5613, 1944.195
336.0434, 1968.459
336.5255, 1987.526
337.0077, 1992.877
337.4898, 1989.271
337.9719, 1991.357
338.4540, 2012.442
338.9361, 2049.849
339.4182, 2079.725
339.9004, 2100.957
340.3825, 2115.126
340.8646, 2119.455
341.3467, 2119.205
341.8288, 2120.198
342.3109, 2124.250
342.7931, 2132.044
343.2752, 2146.252
343.7573, 2168.180
344.2394, 2187.267
344.7215, 2198.390
345.2036, 2207.871
345.6858, 2219.241
346.1679, 2232.919
346.6500, 2251.748
347.1321, 2282.929
347.6142, 2320.538
348.0963, 2346.840
348.5785, 2357.346
349.0606, 2365.324
349.5427, 2385.194
350.0248, 2411.425
350.5069, 2426.549
350.9890, 2414.322
351.4712, 2400.386
351.9533, 2408.080
352.4354, 2433.898
352.9175, 2458.607
353.3996, 2472.192
353.8817, 2480.210
354.3639, 2498.675
354.8460, 2534.598
355.3281, 2563.894
355.8102, 2578.639
356.2923, 2585.091
356.7744, 2590.176
357.2566, 2595.437
357.7387, 2598.261
358.2208, 2594.908
358.7029, 2583.170
359.1850, 2577.876
359.6671, 2584.272
360.1493, 2590.896
360.6314, 2594.183
361.1135, 2593.611
361.5956, 2589.223
362.0777, 2580.985
362.5598, 2569.053
363.0420, 2553.824
363.5241, 2533.774
364.0062, 2512.609
364.4883, 2490.014
364.9704, 2467.122
365.4525, 2444.463
365.9347, 2422.385
366.4168, 2401.406
366.8989, 2383.727
367.3810, 2369.699
367.8631, 2350.800
368.3452, 2326.053
368.8274, 2296.541
369.3095, 2259.879
369.7916, 2219.159
370.2737, 2181.537
370.7558, 2148.925
371.2379, 2122.424
371.7201, 2108.162
372.2022, 2108.143
372.6843, 2101.110
373.1664, 2075.271
373.6485, 2038.606
374.1306, 2002.638
374.6128, 1966.280
375.0949, 1935.803
375.5770, 1917.685
376.0591, 1907.440
376.5412, 1896.091
377.0233, 1881.631
377.5055, 1867.637
377.9876, 1858.651
378.4697, 1855.414
378.9518, 1847.750
379.4339, 1833.981
379.9160, 1817.186
380.3982, 1796.856
380.8803, 1774.859
381.3624, 1756.685
381.8445, 1745.805
382.3266, 1738.985
382.8087, 1726.054
383.2909, 1697.328
383.7730, 1675.317
384.2551, 1665.505
384.7372, 1659.272
385.2193, 1649.160
385.7014, 1634.299
386.1836, 1619.064
386.6657, 1608.000
387.1478, 1601.322
387.6299, 1595.696
388.1120, 1594.618
388.5941, 1590.287
389.0763, 1576.557
389.5584, 1558.895
390.0405, 1546.279
390.5226, 1543.063
391.0047, 1544.563
391.4868, 1543.192
391.9690, 1538.514
392.4511, 1535.319
392.9332, 1536.585
393.4153, 1538.240
393.8974, 1535.723
394.3795, 1529.051
394.8617, 1523.549
395.3438, 1523.530
395.8259, 1525.762
396.3080, 1523.770
396.7901, 1516.692
397.2722, 1511.462
397.7544, 1515.029
398.2365, 1524.528
398.7186, 1525.209
399.2007, 1507.278
399.6828, 1491.698
400.1649, 1488.190
400.6471, 1491.995
401.1292, 1496.063
401.6113, 1498.105
402.0934, 1497.615
402.5755, 1493.354
403.0576, 1482.833
403.5398, 1476.326
404.0219, 1474.295
404.5040, 1475.163
404.9861, 1479.506
405.4682, 1486.085
405.9503, 1492.700
406.4325, 1498.209
406.9146, 1502.180
407.3967, 1503.079
407.8788, 1500.973
408.3609, 1495.431
408.8430, 1484.345
409.3252, 1471.411
409.8073, 1456.937
410.2894, 1441.760
410.7715, 1432.738
411.2536, 1440.365
411.7357, 1460.648
412.2179, 1471.985
412.7000, 1470.158
413.1821, 1466.100
413.6642, 1466.077
414.1463, 1469.286
414.6284, 1474.816
415.1106, 1484.111
415.5927, 1493.750
416.0748, 1501.656
416.5569, 1507.929
417.0390, 1513.062
417.5211, 1517.405
418.0033, 1519.873
418.4854, 1518.471
418.9675, 1511.818
419.4496, 1505.773
419.9317, 1499.598
420.4138, 1494.885
420.8960, 1492.016
421.3781, 1491.458
421.8602, 1494.385
422.3423, 1501.770
422.8244, 1512.833
423.3065, 1524.310
423.7887, 1537.847
424.2708, 1549.143
424.7529, 1559.620
425.2350, 1566.721
425.7171, 1566.434
426.1992, 1559.210
426.6814, 1551.590
427.1635, 1550.144
427.6456, 1554.332
428.1277, 1558.322
428.6098, 1563.558
429.0919, 1565.726
429.5741, 1557.167
430.0562, 1545.626
430.5383, 1544.527
431.0204, 1562.478
431.5025, 1579.632
431.9846, 1576.866
432.4668, 1559.187
432.9489, 1543.205
433.4310, 1532.011
433.9131, 1527.751
434.3952, 1536.513
434.8773, 1560.401
435.3595, 1572.939
435.8416, 1562.698
436.3237, 1549.702
436.8058, 1545.373
437.2879, 1548.428
437.7701, 1555.318
438.2522, 1564.868
438.7343, 1572.857
439.2164, 1567.035
439.6985, 1529.448
440.1806, 1510.617
440.6628, 1525.928
441.1449, 1545.895
441.6270, 1550.882
442.1091, 1541.971
442.5912, 1532.258
443.0733, 1531.556
443.5555, 1537.741
444.0376, 1543.536
444.5197, 1550.447
445.0018, 1552.691
445.4839, 1541.244
445.9660, 1527.528
446.4482, 1525.277
446.9303, 1538.102
447.4124, 1546.955
447.8945, 1535.731
448.3766, 1513.126
448.8587, 1497.097
449.3409, 1490.121
449.8230, 1487.097
450.3051, 1484.071
450.7872, 1481.496
451.2693, 1482.719
451.7514, 1496.075
452.2336, 1503.297
452.7157, 1491.996
453.1978, 1473.244
453.6799, 1463.653
454.1620, 1467.618
454.6441, 1475.640
455.1263, 1475.074
455.6084, 1463.849
456.0905, 1455.794
456.5726, 1451.131
457.0547, 1449.747
457.5368, 1456.248
458.0190, 1464.961
458.5011, 1465.737
458.9832, 1453.040
459.4653, 1437.084
459.9474, 1433.789
460.4295, 1443.389
460.9117, 1450.270
461.3938, 1450.341
461.8759, 1448.386
462.3580, 1447.551
462.8401, 1448.026
463.3222, 1451.395
463.8044, 1463.510
464.2865, 1474.467
464.7686, 1473.532
465.2507, 1463.188
465.7328, 1454.337
466.2149, 1452.282
466.6971, 1452.122
467.1792, 1444.166
467.6613, 1423.199
468.1434, 1405.019
468.6255, 1386.095
469.1076, 1372.873
469.5898, 1372.533
470.0719, 1381.772
470.5540, 1391.855
471.0361, 1397.851
471.5182, 1399.498
472.0003, 1394.749
472.4825, 1379.814
472.9646, 1368.927
473.4467, 1368.817
473.9288, 1371.188
474.4109, 1372.033
474.8930, 1370.728
475.3752, 1366.414
475.8573, 1354.272
476.3394, 1340.524
476.8215, 1337.316
477.3036, 1345.005
477.7857, 1353.103
478.2679, 1356.938
478.7500, 1357.414
479.2321, 1356.210
479.7142, 1352.003
480.1963, 1349.644
480.6784, 1349.167
481.1606, 1351.528
481.6427, 1361.380
482.1248, 1376.359
482.6069, 1384.912
483.0890, 1377.206
483.5711, 1357.221
484.0533, 1347.287
484.5354, 1354.262
485.0175, 1360.346
485.4996, 1362.664
485.9817, 1363.417
486.4638, 1364.132
486.9460, 1365.065
487.4281, 1365.887
487.9102, 1367.202
488.3923, 1368.174
488.8744, 1365.650
489.3565, 1358.997
489.8387, 1352.286
490.3208, 1346.599
490.8029, 1342.772
491.2850, 1342.298
491.7671, 1346.150
492.2492, 1350.451
492.7314, 1352.944
493.2135, 1355.720
493.6956, 1363.935
494.1777, 1376.456
494.6598, 1382.836
495.1419, 1373.537
495.6241, 1352.313
496.1062, 1343.577
496.5883, 1358.457
497.0704, 1370.751
497.5525, 1376.924
498.0346, 1380.308
498.5168, 1383.225
498.9989, 1386.180
499.4810, 1389.036
499.9631, 1393.118
500.4452, 1396.965
500.9273, 1394.033
501.4095, 1382.778
501.8916, 1371.030
502.3737, 1360.401
502.8558, 1352.392
503.3379, 1349.480
503.8200, 1352.822
504.3022, 1356.594
504.7843, 1356.795
505.2664, 1357.329
505.7485, 1363.759
506.2306, 1375.776
506.7127, 1387.867
507.1949, 1396.250
507.6770, 1402.019
508.1591, 1410.139
508.6412, 1429.025
509.1233, 1437.479
509.6054, 1424.938
510.0876, 1409.384
510.5697, 1405.209
511.0518, 1411.645
511.5339, 1417.180
512.0161, 1411.035
512.4982, 1399.656
512.9803, 1403.462
513.4624, 1425.771
513.9445, 1442.580
514.4266, 1441.624
514.9088, 1434.449
515.3909, 1439.087
515.8730, 1457.276
516.3551, 1465.100
516.8372, 1443.431
517.3193, 1417.047
517.8015, 1410.280
518.2836, 1420.594
518.7657, 1431.929
519.2478, 1435.876
519.7299, 1435.225
520.2120, 1436.695
520.6942, 1442.454
521.1763, 1446.175
521.6584, 1448.447
522.1405, 1448.422
522.6226, 1443.284
523.1047, 1435.482
523.5869, 1431.435
524.0690, 1435.856
524.5511, 1442.648
525.0332, 1441.000
525.5153, 1430.970
525.9974, 1421.584
526.4796, 1413.956
526.9617, 1409.258
527.4438, 1409.807
527.9259, 1415.003
528.4080, 1420.715
528.8901, 1428.181
529.3723, 1434.237
529.8544, 1435.428
530.3365, 1434.167
530.8186, 1436.066
531.3007, 1442.906
531.7828, 1449.799
532.2650, 1449.819
532.7471, 1441.955
533.2292, 1433.413
533.7113, 1421.822
534.1934, 1412.322
534.6755, 1406.873
535.1577, 1404.248
535.6398, 1403.546
536.1219, 1404.859
536.6040, 1404.650
537.0861, 1395.619
537.5682, 1382.271
538.0504, 1383.027
538.5325, 1402.441
539.0146, 1416.597
539.4967, 1404.259
539.9788, 1372.882
540.4609, 1360.006
540.9431, 1381.181
541.4252, 1397.199
541.9073, 1397.381
542.3894, 1390.702
542.8715, 1383.793
543.3536, 1378.506
543.8358, 1376.089
544.3179, 1378.224
544.8000, 1383.345
545.2821, 1384.922
545.7642, 1383.342
546.2463, 1377.025
546.7285, 1356.979
547.2106, 1338.567
547.6926, 1337.200
548.1747, 1351.510
548.6569, 1361.053
549.1390, 1348.781
549.6211, 1333.035
550.1032, 1338.347
550.5853, 1359.519
551.0674, 1371.399
551.5496, 1363.057
552.0317, 1345.982
552.5138, 1339.062
552.9959, 1346.781
553.4780, 1349.451
553.9601, 1345.381
554.4423, 1338.869
554.9244, 1327.358
555.4065, 1315.868
555.8886, 1312.900
556.3707, 1321.755
556.8528, 1334.112
557.3350, 1340.360
557.8171, 1341.075
558.2992, 1340.771
558.7813, 1339.651
559.2634, 1338.232
559.7455, 1337.720
560.2277, 1336.955
560.7098, 1332.254
561.1919, 1318.666
561.6740, 1309.749
562.1561, 1314.955
562.6382, 1323.754
563.1204, 1324.042
563.6025, 1315.662
564.0846, 1306.593
564.5667, 1302.461
565.0488, 1302.398
565.5309, 1303.187
566.0131, 1305.574
566.4952, 1306.940
566.9773, 1307.793
567.4594, 1306.609
567.9415, 1299.556
568.4236, 1288.708
568.9058, 1283.221
569.3879, 1289.503
569.8700, 1300.517
570.3521, 1311.974
570.8342, 1322.498
571.3163, 1326.262
571.7985, 1321.030
572.2806, 1313.010
572.7627, 1309.342
573.2448, 1310.221
573.7269, 1313.632
574.2090, 1326.776
574.6912, 1333.783
575.1733, 1324.695
575.6554, 1310.550
576.1375, 1304.548
576.6196, 1309.165
577.1017, 1315.328
577.5839, 1312.116
578.0660, 1303.885
578.5481, 1307.788
579.0302, 1325.801
579.5123, 1339.995
579.9944, 1340.178
580.4766, 1333.550
580.9587, 1335.542
581.4408, 1350.128
581.9229, 1355.658
582.4050, 1337.901
582.8871, 1320.368
583.3693, 1320.643
583.8514, 1333.375
584.3335, 1345.101
584.8156, 1349.636
585.2977, 1350.122
585.7798, 1351.627
586.2620, 1354.423
586.7441, 1354.502
587.2262, 1348.955
587.7083, 1345.175
588.1904, 1348.872
588.6725, 1356.692
589.1547, 1363.702
589.6368, 1369.952
590.1189, 1373.562
590.6010, 1371.497
591.0831, 1367.442
591.5652, 1365.594
592.0474, 1366.466
592.5295, 1369.333
593.0116, 1373.707
593.4937, 1379.772
593.9758, 1389.294
594.4579, 1407.560
594.9401, 1416.581
595.4222, 1402.574
595.9043, 1390.126
596.3864, 1392.930
596.8685, 1407.107
597.3506, 1421.707
597.8328, 1432.954
598.3149, 1442.779
598.7970, 1456.682
599.2791, 1470.244
599.7612, 1468.053
600.2433, 1447.063
600.7255, 1428.474
601.2076, 1431.461
601.6897, 1452.781
602.1718, 1465.851
602.6539, 1459.557
603.1360, 1460.161
603.6182, 1480.074
604.1003, 1499.242
604.5824, 1497.482
605.0645, 1479.435
605.5466, 1469.303
606.0287, 1485.272
606.5109, 1510.761
606.9930, 1520.001
607.4751, 1514.965
607.9572, 1511.142
608.4393, 1512.338
608.9214, 1515.636
609.4036, 1517.945
609.8857, 1519.276
610.3678, 1523.418
610.8499, 1532.278
611.3320, 1541.219
611.8141, 1549.822
612.2963, 1557.607
612.7784, 1563.868
613.2605, 1568.688
613.7426, 1572.772
614.2247, 1576.179
614.7068, 1579.622
615.1890, 1585.452
615.6711, 1593.833
616.1532, 1601.127
616.6353, 1606.762
617.1174, 1609.959
617.5995, 1607.797
618.0817, 1600.142
618.5638, 1599.549
619.0459, 1610.863
619.5280, 1624.245
620.0101, 1636.009
620.4922, 1647.673
620.9744, 1662.959
621.4565, 1681.565
621.9386, 1697.375
622.4207, 1704.230
622.9028, 1704.183
623.3849, 1703.736
623.8671, 1701.808
624.3492, 1706.276
624.8313, 1722.263
625.3134, 1742.554
625.7955, 1758.436
626.2776, 1770.224
626.7598, 1782.802
627.2419, 1795.160
627.7240, 1810.198
628.2061, 1831.493
628.6882, 1855.445
629.1703, 1876.077
629.6525, 1892.367
630.1346, 1908.857
630.6167, 1930.857
631.0988, 1956.714
631.5809, 1975.403
632.0630, 1983.130
632.5452, 1999.366
633.0273, 2035.895
633.5094, 2077.950
633.9915, 2107.159
634.4736, 2124.353
634.9557, 2148.133
635.4379, 2185.399
635.9200, 2226.464
636.4021, 2271.596
636.8842, 2314.835
637.3663, 2342.792
637.8484, 2354.693
638.3306, 2369.484
638.8127, 2406.811
639.2948, 2463.259
639.7769, 2517.503
640.2590, 2569.504
640.7411, 2619.920
641.2233, 2668.170
641.7054, 2715.271
642.1875, 2761.823
642.6696, 2808.066
643.1517, 2856.354
643.6339, 2912.972
644.1160, 2965.584
644.5981, 3001.245
645.0802, 3031.004
645.5623, 3073.203
646.0444, 3130.572
646.5266, 3189.935
647.0087, 3239.028
647.4908, 3279.521
647.9729, 3320.057
648.4550, 3361.980
648.9371, 3396.783
649.4193, 3416.136
649.9014, 3434.215
650.3835, 3468.460
650.8656, 3515.760
651.3477, 3554.538
651.8298, 3582.400
652.3120, 3599.815
652.7941, 3602.734
653.2762, 3597.550
653.7583, 3594.250
654.2404, 3593.225
654.7225, 3584.793
655.2047, 3559.354
655.6868, 3522.968
656.1689, 3496.475
656.6510, 3481.448
657.1331, 3467.424
657.6152, 3456.215
658.0974, 3439.839
658.5795, 3404.544
659.0616, 3356.069
659.5437, 3321.382
660.0258, 3316.280
660.5079, 3308.491
660.9901, 3288.425
661.4722, 3259.424
661.9543, 3221.845
662.4364, 3178.256
662.9185, 3134.415
663.4006, 3093.179
663.8828, 3056.852
664.3649, 3033.535
664.8470, 3023.859
665.3291, 3004.869
665.8112, 2968.353
666.2933, 2933.050
666.7755, 2914.073
667.2576, 2907.995
667.7397, 2898.614
668.2218, 2886.352
668.7039, 2870.256
669.1860, 2847.637
669.6682, 2823.208
670.1503, 2797.289
670.6324, 2772.762
671.1145, 2756.905
671.5966, 2754.095
672.0787, 2754.873
672.5609, 2742.189
673.0430, 2719.298
673.5251, 2713.718
674.0072, 2732.058
674.4893, 2742.506
674.9714, 2720.960
675.4536, 2682.792
675.9357, 2669.160
676.4178, 2695.949
676.8999, 2712.527
677.3820, 2712.197
677.8641, 2706.932
678.3463, 2701.315
678.8284, 2695.626
679.3105, 2688.554
679.7926, 2679.701
680.2747, 2673.042
680.7568, 2676.895
681.2390, 2684.654
681.7211, 2678.496
682.2032, 2658.466
682.6853, 2637.621
683.1674, 2620.519
683.6495, 2609.046
684.1317, 2608.177
684.6138, 2622.903
685.0959, 2621.672
685.5780, 2590.007
686.0601, 2559.512
686.5422, 2541.054
687.0244, 2525.397
687.5065, 2500.250
687.9886, 2465.247
688.4707, 2435.299
688.9528, 2423.971
689.4349, 2418.063
689.9171, 2406.043
690.3992, 2386.885
690.8813, 2355.036
691.3634, 2309.373
691.8455, 2262.656
692.3276, 2228.460
692.8098, 2204.964
693.2919, 2175.844
693.7740, 2135.403
694.2561, 2101.947
694.7382, 2082.412
695.2203, 2067.740
695.7025, 2054.816
696.1846, 2041.814
696.6667, 2022.838
697.1488, 1995.461
697.6309, 1963.302
698.1130, 1923.057
698.5952, 1882.208
699.0773, 1850.692
699.5594, 1828.488
700.0415, 1809.473
700.5236, 1789.849
701.0057, 1770.734
701.4879, 1757.033
701.9700, 1749.519
702.4521, 1728.649
702.9342, 1686.466
703.4163, 1646.959
703.8984, 1625.807
704.3806, 1616.477
704.8627, 1602.389
705.3448, 1580.273
705.8269, 1563.055
706.3090, 1559.933
706.7911, 1554.669
707.2733, 1532.671
707.7554, 1503.408
708.2375, 1485.843
708.7196, 1484.959
709.2017, 1483.512
709.6838, 1457.986
710.1660, 1421.193
710.6481, 1410.055
711.1302, 1423.304
711.6123, 1430.336
712.0944, 1419.523
712.5765, 1401.845
713.0587, 1390.859
713.5408, 1386.996
714.0229, 1380.557
714.5050, 1367.347
714.9871, 1357.396
715.4692, 1356.101
715.9514, 1355.582
716.4335, 1347.924
716.9156, 1334.637
717.3977, 1324.901
717.8798, 1325.863
718.3619, 1326.601
718.8441, 1314.705
719.3262, 1298.107
719.8083, 1292.958
720.2904, 1299.341
720.7725, 1301.639
721.2546, 1288.494
721.7368, 1268.227
722.2189, 1263.481
722.7010, 1278.172
723.1831, 1279.724
723.6652, 1257.677
724.1473, 1238.242
724.6295, 1238.488
725.1116, 1250.379
725.5937, 1257.790
726.0758, 1260.777
726.5579, 1258.677
727.0400, 1246.145
727.5222, 1233.798
728.0043, 1227.099
728.4864, 1225.166
728.9685, 1228.863
729.4506, 1237.171
729.9327, 1240.015
730.4149, 1223.341
730.8970, 1196.723
731.3791, 1181.098
731.8612, 1175.955
732.3433, 1177.613
732.8254, 1185.779
733.3076, 1195.730
733.7897, 1203.455
734.2718, 1208.672
734.7539, 1207.498
735.2360, 1192.469
735.7181, 1183.581
736.2003, 1189.587
736.6824, 1196.097
737.1645, 1193.637
737.6466, 1184.489
738.1287, 1175.507
738.6108, 1167.226
739.0930, 1162.472
739.5751, 1164.842
740.0572, 1170.236
740.5393, 1176.503
741.0214, 1181.433
741.5035, 1178.937
741.9857, 1166.112
742.4678, 1150.028
742.9499, 1138.352
743.4320, 1131.544
743.9141, 1138.716
744.3962, 1163.741
744.8784, 1181.338
745.3605, 1178.652
745.8426, 1168.875
746.3247, 1171.288
746.8068, 1188.340
747.2889, 1194.066
747.7711, 1180.441
748.2532, 1166.633
748.7353, 1156.479
749.2174, 1148.477
749.6995, 1138.060
750.1816, 1127.742
750.6638, 1128.852
751.1459, 1153.101
751.6280, 1178.491
752.1101, 1184.068
752.5922, 1176.610
753.0743, 1164.807
753.5565, 1151.847
754.0386, 1148.038
754.5207, 1160.385
755.0028, 1178.446
755.4849, 1179.936
755.9670, 1162.287
756.4492, 1152.843
756.9313, 1155.491
757.4134, 1157.627
757.8955, 1152.312
758.3776, 1144.589
758.8597, 1142.780
759.3419, 1147.507
759.8240, 1150.466
760.3061, 1149.529
760.7882, 1148.480
761.2703, 1147.200
761.7524, 1147.524
762.2346, 1152.711
762.7167, 1161.854
763.1988, 1169.643
763.6809, 1173.325
764.1630, 1173.892
764.6451, 1172.054
765.1273, 1168.072
765.6094, 1161.563
766.0915, 1152.954
766.5736, 1145.352
767.0557, 1140.321
767.5378, 1139.169
768.0200, 1146.566
768.5021, 1165.082
768.9842, 1175.926
769.4663, 1175.683
769.9484, 1174.290
770.4305, 1174.110
770.9127, 1176.432
771.3948, 1185.740
771.8769, 1203.333
772.3590, 1210.752
772.8411, 1197.345
773.3232, 1183.578
773.8054, 1174.519
774.2875, 1170.919
774.7696, 1175.553
775.2517, 1186.621
775.7338, 1196.970
776.2159, 1203.301
776.6981, 1205.991
777.1802, 1203.710
777.6623, 1198.533
778.1444, 1196.118
778.6265, 1196.529
779.1086, 1193.476
779.5908, 1182.883
780.0729, 1170.974
780.5550, 1170.205
781.0371, 1181.881
781.5192, 1192.119
782.0013, 1201.670
782.4835, 1207.633
782.9656, 1206.783
783.4477, 1203.789
783.9298, 1205.074
784.4119, 1210.759
784.8940, 1214.584
785.3762, 1216.275
785.8583, 1216.078
786.3404, 1213.780
786.8225, 1209.845
787.3046, 1203.560
787.7867, 1195.941
788.2689, 1189.720
788.7510, 1185.990
789.2331, 1184.036
789.7152, 1183.697
790.1973, 1184.483
790.6794, 1185.769
791.1616, 1187.434
791.6437, 1190.320
792.1258, 1194.809
792.6079, 1196.610
793.0900, 1187.502
793.5721, 1169.463
794.0543, 1163.990
794.5364, 1173.476
795.0185, 1180.089
795.5006, 1177.729
795.9827, 1173.255
796.4648, 1174.848
796.9470, 1181.185
797.4291, 1178.024
797.9112, 1149.133
798.3933, 1134.184
798.8754, 1144.675
799.3575, 1159.848
799.8397, 1169.979
800.3218, 1175.575
800.8039, 1179.138
801.2860, 1181.229
801.7681, 1181.152
802.2502, 1177.923
802.7324, 1172.915
803.2145, 1166.655
803.6966, 1159.793
804.1787, 1152.010
804.6608, 1144.002
805.1429, 1140.792
805.6251, 1149.917
806.1072, 1162.121
806.5893, 1152.891
807.0714, 1126.003
807.5535, 1111.393
808.0356, 1114.622
808.5178, 1122.475
808.9999, 1127.061
809.4820, 1128.485
809.9641, 1125.713
810.4462, 1114.737
810.9283, 1115.388
811.4105, 1140.050
811.8926, 1156.025
812.3747, 1139.805
812.8568, 1115.733
813.3389, 1115.633
813.8210, 1139.561
814.3032, 1150.875
814.7853, 1132.030
815.2674, 1115.326
815.7495, 1112.638
816.2316, 1116.167
816.7137, 1122.518
817.1959, 1128.253
817.6780, 1125.436
818.1601, 1108.599
818.6422, 1092.829
819.1243, 1095.121
819.6064, 1104.246
820.0886, 1101.414
820.5707, 1089.042
821.0528, 1079.216
821.5349, 1076.312
822.0170, 1078.879
822.4991, 1087.422
822.9813, 1098.947
823.4634, 1099.261
823.9455, 1087.752
824.4276, 1077.043
824.9097, 1068.936
825.3918, 1065.656
825.8740, 1070.687
826.3561, 1080.471
826.8382, 1082.554
827.3203, 1071.699
827.8024, 1065.243
828.2845, 1065.882
828.7667, 1067.678
829.2488, 1069.996
829.7309, 1071.423
830.2130, 1068.514
830.6951, 1061.222
831.1772, 1059.596
831.6594, 1072.516
832.1415, 1083.641
832.6236, 1082.869
833.1057, 1079.115
833.5878, 1083.290
834.0699, 1093.186
834.5521, 1098.307
835.0342, 1093.563
835.5163, 1085.372
835.9984, 1076.251
836.4805, 1069.380
836.9626, 1073.844
837.4448, 1085.732
837.9269, 1088.947
838.4090, 1078.451
838.8911, 1064.845
839.3732, 1058.857
839.8553, 1059.100
840.3375, 1062.187
840.8196, 1068.285
841.3017, 1065.964
841.7838, 1050.204
842.2659, 1042.115
842.7480, 1059.957
843.2302, 1090.143
843.7123, 1097.169
844.1944, 1071.571
844.6765, 1054.525
845.1586, 1051.039
845.6407, 1048.645
846.1229, 1039.422
846.6050, 1032.026
847.0871, 1037.072
847.5692, 1053.518
848.0513, 1066.959
848.5334, 1077.938
849.0156, 1082.377
849.4977, 1072.147
849.9798, 1061.238
850.4619, 1062.891
850.9440, 1071.952
851.4261, 1075.511
851.9083, 1069.393
852.3904, 1061.456
852.8725, 1055.180
853.3546, 1051.031
853.8367, 1051.307
854.3188, 1053.492
854.8010, 1051.406
855.2831, 1044.731
855.7652, 1039.912
856.2473, 1041.878
856.7294, 1047.791
857.2115, 1054.009
857.6937, 1059.922
858.1758, 1063.063
858.6579, 1063.150
859.1400, 1058.862
859.6221, 1048.884
860.1042, 1039.212
860.5864, 1039.006
861.0685, 1047.864
861.5506, 1054.468
862.0327, 1058.540
862.5148, 1061.170
862.9969, 1061.490
863.4791, 1062.938
863.9612, 1070.922
864.4433, 1081.483
864.9254, 1079.420
865.4075, 1052.453
865.8896, 1038.555
866.3718, 1048.992
866.8539, 1058.403
867.3360, 1054.397
867.8181, 1047.047
868.3002, 1051.791
868.7823, 1067.741
869.2645, 1070.737
869.7466, 1037.205
870.2287, 1012.282
870.7108, 1017.559
871.1929, 1035.239
871.6750, 1057.355
872.1572, 1076.891
872.6393, 1080.760
873.1214, 1064.027
873.6035, 1045.724
874.0856, 1035.575
874.5677, 1034.308
875.0499, 1049.055
875.5320, 1071.389
876.0141, 1083.857
876.4962, 1083.849
876.9783, 1079.741
877.4604, 1076.703
877.9426, 1074.523
878.4247, 1073.030
878.9068, 1072.120
879.3889, 1070.964
879.8710, 1069.690
880.3531, 1070.647
880.8353, 1074.864
881.3174, 1080.475
881.7995, 1085.966
882.2816, 1090.612
882.7637, 1088.386
883.2458, 1077.786
883.7280, 1071.423
884.2101, 1071.231
884.6922, 1076.699
885.1743, 1090.698
885.6564, 1106.441
886.1385, 1108.294
886.6207, 1092.507
887.1028, 1079.238
887.5849, 1062.835
888.0670, 1058.398
888.5491, 1080.803
889.0313, 1107.163
889.5134, 1120.063
889.9955, 1120.359
890.4776, 1111.201
890.9597, 1076.653
891.4418, 1061.982
891.9240, 1093.176
892.4061, 1124.041
892.8882, 1130.088
893.3703, 1121.060
893.8524, 1107.809
894.3345, 1093.185
894.8167, 1086.672
895.2988, 1104.142
895.7809, 1116.018
896.2630, 1096.799
896.7451, 1071.502
897.2272, 1068.029
897.7094, 1081.384
898.1915, 1091.968
898.6736, 1092.760
899.1557, 1092.239
899.6378, 1098.294
900.1199, 1105.849
900.6021, 1107.861
901.0842, 1106.714
901.5663, 1107.328
902.0484, 1110.645
902.5305, 1116.363
903.0126, 1124.916
903.4948, 1131.763
903.9769, 1126.871
904.4590, 1115.300
904.9411, 1115.182
905.4232, 1125.346
905.9053, 1130.679
906.3875, 1126.287
906.8696, 1119.138
907.3517, 1115.569
907.8338, 1114.996
908.3159, 1116.733
908.7980, 1120.832
909.2802, 1119.088
909.7623, 1109.580
910.2444, 1102.940
910.7265, 1105.287
911.2086, 1109.811
911.6907, 1105.130
912.1729, 1091.545
912.6550, 1093.205
913.1371, 1117.544
913.6192, 1133.393
914.1013, 1133.662
914.5834, 1127.461
915.0656, 1117.321
915.5477, 1107.038
916.0298, 1106.334
916.5119, 1119.637
916.9940, 1125.809
917.4761, 1118.490
917.9583, 1113.037
918.4404, 1114.107
918.9225, 1117.383
919.4046, 1119.828
919.8867, 1121.651
920.3688, 1124.133
920.8510, 1129.617
921.3331, 1130.760
921.8152, 1123.095
922.2973, 1114.823
922.7794, 1108.626
923.2615, 1104.556
923.7437, 1101.458
924.2258, 1099.933
924.7079, 1104.550
925.1900, 1125.063
925.6721, 1138.080
926.1542, 1124.983
926.6364, 1109.167
927.1185, 1110.863
927.6006, 1122.775
928.0827, 1131.135
928.5648, 1132.691
929.0469, 1130.570
929.5291, 1123.006
930.0112, 1116.461
930.4933, 1117.403
930.9754, 1121.016
931.4575, 1120.102
931.9396, 1116.414
932.4218, 1118.369
932.9039, 1128.814
933.3860, 1135.887
933.8681, 1124.803
934.3502, 1108.298
934.8323, 1101.539
935.3145, 1102.449
935.7966, 1106.960
936.2787, 1114.416
936.7608, 1128.169
937.2429, 1150.657
937.7250, 1168.706
938.2072, 1162.192
938.6893, 1140.944
939.1714, 1123.406
939.6535, 1111.602
940.1356, 1115.570
940.6177, 1135.417
941.0999, 1149.876
941.5820, 1143.072
942.0641, 1127.093
942.5462, 1123.110
943.0283, 1129.356
943.5104, 1137.694
943.9926, 1147.555
944.4747, 1157.586
944.9568, 1167.469
945.4389, 1172.871
945.9210, 1168.920
946.4031, 1159.850
946.8853, 1158.396
947.3674, 1164.505
947.8495, 1166.788
948.3316, 1164.183
948.8137, 1161.212
949.2958, 1159.083
949.7780, 1160.319
950.2601, 1169.030
950.7422, 1182.675
951.2243, 1186.187
951.7064, 1177.083
952.1885, 1174.415
952.6707, 1181.270
953.1528, 1190.164
953.6349, 1198.942
954.1170, 1205.227
954.5991, 1205.351
955.0812, 1199.618
955.5634, 1194.692
956.0455, 1190.583
956.5276, 1186.735
957.0097, 1180.235
957.4918, 1180.538
957.9739, 1197.201
958.4561, 1218.749
958.9382, 1225.253
959.4203, 1215.208
959.9024, 1212.246
960.3845, 1221.835
960.8666, 1227.465
961.3488, 1224.612
961.8309, 1220.107
962.3130, 1216.481
962.7951, 1214.821
963.2772, 1217.976
963.7593, 1227.384
964.2415, 1233.927
964.7236, 1238.085
965.2057, 1238.676
965.6878, 1228.450
966.1699, 1221.463
966.6520, 1231.074
967.1342, 1249.543
967.6163, 1259.119
968.0984, 1257.708
968.5805, 1254.180
969.0626, 1246.298
969.5447, 1239.906
970.0269, 1234.973
970.5090, 1233.399
970.9911, 1236.878
971.4732, 1244.805
971.9553, 1256.734
972.4374, 1275.862
972.9196, 1287.348
973.4017, 1281.335
973.8838, 1277.503
974.3659, 1288.692
974.8480, 1300.000
975.3301, 1292.867
975.8123, 1274.771
976.2944, 1271.205
976.7765, 1290.256
977.2586, 1310.145
977.7407, 1329.451
978.2228, 1344.421
978.7050, 1353.264
979.1871, 1356.998
979.6692, 1355.423
980.1513, 1349.690
980.6334, 1341.854
981.1155, 1328.586
981.5977, 1325.208
982.0798, 1349.107
982.5619, 1368.963
983.0440, 1359.971
983.5261, 1345.033
984.0082, 1352.010
984.4904, 1377.377
984.9725, 1398.161
985.4546, 1408.395
985.9367, 1413.553
986.4188, 1411.264
986.9009, 1409.415
987.3831, 1413.370
987.8652, 1419.816
988.3473, 1426.096
988.8294, 1431.003
989.3115, 1431.512
989.7936, 1424.352
990.2758, 1419.763
990.7579, 1424.010
991.2400, 1429.932
991.7221, 1432.587
992.2042, 1434.471
992.6863, 1437.921
993.1685, 1443.812
993.6506, 1454.769
994.1327, 1475.621
994.6148, 1489.806
995.0969, 1485.283
995.5790, 1476.609
996.0612, 1469.562
996.5433, 1466.900
997.0254, 1475.426
997.5075, 1491.613
997.9896, 1497.814
998.4717, 1481.898
998.9539, 1474.025
999.4360, 1498.992
999.9181, 1525.235
1000.400, 1528.497
1000.882, 1521.243
1001.364, 1518.345
1001.847, 1521.838
1002.329, 1528.866
1002.811, 1537.753
1003.293, 1552.318
1003.775, 1578.171
1004.257, 1606.274
1004.739, 1635.376
1005.221, 1659.597
1005.703, 1668.027
1006.186, 1664.329
1006.668, 1665.790
1007.150, 1678.759
1007.632, 1695.257
1008.114, 1713.841
1008.596, 1732.298
1009.078, 1749.459
1009.560, 1765.474
1010.043, 1781.326
1010.525, 1796.378
1011.007, 1808.260
1011.489, 1816.170
1011.971, 1821.364
1012.453, 1820.257
1012.935, 1821.360
1013.417, 1834.095
1013.899, 1848.752
1014.382, 1851.859
1014.864, 1846.567
1015.346, 1847.958
1015.828, 1862.182
1016.310, 1874.281
1016.792, 1878.119
1017.274, 1878.819
1017.756, 1879.195
1018.239, 1877.832
1018.721, 1873.173
1019.203, 1865.361
1019.685, 1854.471
1020.167, 1839.322
1020.649, 1827.294
1021.131, 1824.915
1021.613, 1820.986
1022.095, 1806.010
1022.578, 1790.764
1023.060, 1789.362
1023.542, 1795.250
1024.024, 1788.652
1024.506, 1763.137
1024.988, 1744.042
1025.470, 1748.338
1025.952, 1746.587
1026.435, 1719.995
1026.917, 1690.399
1027.399, 1675.653
1027.881, 1671.604
1028.363, 1668.700
1028.845, 1666.652
1029.327, 1657.600
1029.809, 1633.365
1030.292, 1611.360
1030.774, 1599.451
1031.256, 1587.937
1031.738, 1567.439
1032.220, 1543.831
1032.702, 1529.215
1033.184, 1525.358
1033.666, 1517.071
1034.148, 1502.833
1034.630, 1484.152
1035.113, 1453.936
1035.595, 1427.266
1036.077, 1417.445
1036.559, 1413.740
1037.041, 1397.272
1037.523, 1367.049
1038.005, 1351.005
1038.487, 1363.682
1038.970, 1367.279
1039.452, 1353.663
1039.934, 1338.370
1040.416, 1328.144
1040.898, 1319.762
1041.380, 1309.039
1041.862, 1296.379
1042.344, 1286.514
1042.826, 1284.863
1043.309, 1273.381
1043.791, 1242.891
1044.273, 1218.801
1044.755, 1213.001
1045.237, 1213.546
1045.719, 1208.519
1046.201, 1199.360
1046.683, 1192.885
1047.166, 1190.224
1047.648, 1186.912
1048.130, 1185.086
1048.612, 1174.165
1049.094, 1144.828
1049.576, 1121.739
1050.058, 1128.013
1050.540, 1153.085
1051.022, 1169.956
1051.505, 1179.005
1051.987, 1172.948
1052.469, 1147.932
1052.951, 1133.607
1053.433, 1138.753
1053.915, 1145.317
1054.397, 1141.029
1054.879, 1131.332
1055.361, 1126.224
1055.844, 1125.240
1056.326, 1122.478
1056.808, 1117.932
1057.290, 1113.979
1057.772, 1110.991
1058.254, 1112.294
1058.736, 1119.959
1059.218, 1128.823
1059.701, 1131.776
1060.183, 1130.644
1060.665, 1134.015
1061.147, 1139.477
1061.629, 1129.870
1062.111, 1105.968
1062.593, 1090.311
1063.075, 1091.404
1063.557, 1097.302
1064.040, 1097.537
1064.522, 1093.394
1065.004, 1083.344
1065.486, 1072.139
1065.968, 1074.387
1066.450, 1086.584
1066.932, 1093.056
1067.414, 1090.211
1067.896, 1086.959
1068.379, 1090.525
1068.861, 1091.727
1069.343, 1073.812
1069.825, 1051.954
1070.307, 1048.394
1070.789, 1057.096
1071.271, 1067.281
1071.753, 1075.006
1072.236, 1075.245
1072.718, 1064.601
1073.200, 1054.416
1073.682, 1054.118
1074.164, 1056.394
1074.646, 1055.483
1075.128, 1053.279
1075.610, 1050.412
1076.093, 1048.905
1076.575, 1056.141
1077.057, 1074.700
1077.539, 1081.123
1078.021, 1052.398
1078.503, 1026.256
1078.985, 1020.296
1079.467, 1022.956
1079.949, 1032.670
1080.432, 1040.949
1080.914, 1030.629
1081.396, 1001.552
1081.878, 986.3904
1082.360, 1001.910
1082.842, 1014.872
1083.324, 1019.097
1083.806, 1021.196
1084.288, 1027.817
1084.771, 1030.974
1085.253, 1016.722
1085.735, 990.5006
1086.217, 979.5881
1086.699, 992.2491
1087.181, 998.0580
1087.663, 992.6536
1088.145, 989.5585
1088.628, 994.7394
1089.110, 998.1691
1089.592, 990.8487
1090.074, 978.8253
1090.556, 976.0266
1091.038, 982.9893
1091.520, 983.2349
1092.002, 975.5178
1092.484, 969.1000
1092.967, 965.6050
1093.449, 962.2248
1093.931, 957.2407
1094.413, 953.2721
1094.895, 954.1683
1095.377, 958.1597
1095.859, 959.1275
1096.341, 957.1675
1096.823, 951.8518
1097.306, 943.7391
1097.788, 936.6617
1098.270, 932.1938
1098.752, 935.2139
1099.234, 951.6046
1099.716, 969.0613
1100.198, 966.9550
1100.680, 953.1216
1101.163, 939.8076
1101.645, 929.5254
1102.127, 929.3493
1102.609, 937.4419
1103.091, 940.8189
1103.573, 933.0961
1104.055, 925.2078
1104.537, 927.4098
1105.020, 932.2301
1105.502, 932.8565
1105.984, 932.0667
1106.466, 933.8962
1106.948, 937.1068
1107.430, 938.9899
1107.912, 938.7313
1108.394, 934.4012
1108.876, 919.6678
1109.359, 909.1282
1109.841, 911.5266
1110.323, 916.0705
1110.805, 915.4457
1111.287, 913.7598
1111.769, 918.0579
1112.251, 926.7027
1112.733, 929.6865
1113.215, 924.8755
1113.698, 917.3576
1114.180, 903.6724
1114.662, 893.0641
1115.144, 886.7305
1115.626, 885.4285
1116.108, 891.9474
1116.590, 901.3710
1117.072, 903.3126
1117.555, 897.7050
1118.037, 904.0551
1118.519, 926.0610
1119.001, 938.2595
1119.483, 936.3355
1119.965, 933.7165
1120.447, 936.2537
1120.929, 938.4892
1121.411, 934.4578
1121.894, 926.8411
1122.376, 923.4304
1122.858, 922.8679
1123.340, 916.4324
1123.822, 905.4841
1124.304, 899.7621
1124.786, 900.8474
1125.268, 902.1088
1125.750, 899.8036
1126.233, 895.9440
1126.715, 890.8589
1127.197, 887.2515
1127.679, 889.3182
1128.161, 895.1777
1128.643, 905.2649
1129.125, 915.6326
1129.607, 915.5540
1130.090, 903.5500
1130.572, 894.7758
1131.054, 900.5656
1131.536, 904.6688
1132.018, 893.8407
1132.500, 883.7413
1132.982, 888.2773
1133.464, 897.3394
1133.947, 896.1594
1134.429, 887.7234
1134.911, 888.9802
1135.393, 907.3000
1135.875, 916.8698
1136.357, 902.8409
1136.839, 899.5956
1137.321, 924.1346
1137.803, 943.9922
1138.286, 937.6324
1138.768, 919.7318
1139.250, 911.3981
1139.732, 911.7864
1140.214, 913.1361
1140.696, 915.7730
1141.178, 916.6069
1141.660, 915.2380
1142.142, 915.0204
1142.625, 917.2527
1143.107, 916.3892
1143.589, 907.4063
1144.071, 896.4968
1144.553, 895.3481
1145.035, 900.7110
1145.517, 901.9225
1145.999, 901.1990
1146.482, 908.5694
1146.964, 921.8674
1147.446, 925.8901
1147.928, 915.5831
1148.410, 905.1259
1148.892, 907.2483
1149.374, 909.5969
1149.856, 896.4354
1150.339, 882.7459
1150.821, 886.3529
1151.303, 897.8759
1151.785, 901.6684
1152.267, 898.0326
1152.749, 898.7805
1153.231, 909.4847
1153.713, 913.6307
1154.195, 901.9550
1154.677, 890.8971
1155.160, 885.1104
1155.642, 881.7028
1156.124, 878.5048
1156.606, 876.8295
1157.088, 879.8092
1157.570, 886.6173
1158.052, 886.3131
1158.534, 875.5555
1159.017, 874.7067
1159.499, 887.4411
1159.981, 892.7566
1160.463, 883.3057
1160.945, 874.5080
1161.427, 877.8043
1161.909, 886.9041
1162.391, 892.9963
1162.874, 895.4837
1163.356, 889.5941
1163.838, 878.8854
1164.320, 874.8377
1164.802, 877.8226
1165.284, 884.0589
1165.766, 891.7593
1166.248, 897.8769
1166.730, 900.8248
1167.213, 900.4087
1167.695, 895.7722
1168.177, 888.4274
1168.659, 874.0319
1169.141, 861.9422
1169.623, 867.5010
1170.105, 884.8141
1170.587, 894.3915
1171.069, 892.1862
1171.552, 887.5903
1172.034, 875.4255
1172.516, 871.5419
1172.998, 884.5305
1173.480, 897.3308
1173.962, 903.9128
1174.444, 905.2655
1174.926, 900.7596
1175.409, 893.1566
1175.891, 893.0825
1176.373, 901.4366
1176.855, 904.2183
1177.337, 901.3344
1177.819, 897.3186
1178.301, 893.0086
1178.783, 886.2700
1179.266, 876.0214
1179.748, 869.4227
1180.230, 875.8872
1180.712, 887.1919
1181.194, 890.2815
1181.676, 888.7043
1182.158, 888.2950
1182.640, 888.1804
1183.122, 886.1707
1183.604, 881.6027
1184.087, 872.2038
1184.569, 855.4643
1185.051, 847.2505
1185.533, 863.4233
1186.015, 877.8777
1186.497, 876.4564
1186.979, 872.9186
1187.461, 879.5069
1187.944, 888.1503
1188.426, 884.4430
1188.908, 871.5022
1189.390, 869.3718
1189.872, 882.1134
1190.354, 891.7939
1190.836, 898.9766
1191.318, 900.4502
1191.801, 895.2155
1192.283, 884.9672
1192.765, 869.7864
1193.247, 857.2548
1193.729, 857.6073
1194.211, 866.4000
1194.693, 874.0785
1195.175, 880.8834
1195.657, 889.4730
1196.140, 897.3865
1196.622, 896.9662
1197.104, 887.8959
1197.586, 874.6453
1198.068, 858.0527
1198.550, 849.5175
1199.032, 861.6928
1199.514, 876.8188
1199.996, 891.1952
1200.479, 897.9460
1200.961, 886.9816
1201.443, 867.9986
1201.925, 851.7169
1202.407, 840.2996
1202.889, 842.1371
1203.371, 862.2042
1203.853, 880.5039
1204.336, 899.3070
1204.818, 908.5324
1205.300, 905.3068
1205.782, 895.4988
1206.264, 881.4921
1206.746, 866.7017
1207.228, 853.8242
1207.710, 845.8029
1208.193, 853.5692
1208.675, 871.0030
1209.157, 881.8057
1209.639, 885.9388
1210.121, 883.6203
1210.603, 877.4279
1211.085, 876.5248
1211.567, 884.6677
1212.049, 891.8216
1212.531, 891.6093
1213.014, 889.0652
1213.496, 884.2232
1213.978, 880.8938
1214.460, 883.1273
1214.942, 887.3755
1215.424, 889.7564
1215.906, 890.1824
1216.388, 888.7567
1216.871, 884.7837
1217.353, 883.9049
1217.835, 887.9474
1218.317, 885.9279
1218.799, 874.7261
1219.281, 870.0275
1219.763, 878.9362
1220.245, 887.9028
1220.728, 884.1077
1221.210, 874.9548
1221.692, 873.9747
1222.174, 876.8711
1222.656, 872.0862
1223.138, 865.4893
1223.620, 873.0045
1224.102, 889.7966
1224.584, 896.9136
1225.067, 890.1261
1225.549, 883.1025
1226.031, 880.6688
1226.513, 880.8268
1226.995, 884.8272
1227.477, 888.8085
1227.959, 892.1647
1228.441, 893.6184
1228.923, 890.8710
1229.406, 887.0999
1229.888, 888.7143
1230.370, 894.6742
1230.852, 892.8879
1231.334, 883.0458
1231.816, 872.4590
1232.298, 861.7465
1232.780, 853.0961
1233.263, 847.3066
1233.745, 847.5024
1234.227, 855.7441
1234.709, 862.3868
1235.191, 851.8975
1235.673, 841.0541
1236.155, 854.1523
1236.637, 871.8612
1237.120, 870.5860
1237.602, 859.5011
1238.084, 853.2656
1238.566, 853.6016
1239.048, 858.8598
1239.530, 870.6334
1240.012, 879.6001
1240.494, 891.0345
1240.976, 886.4188
1241.458, 854.1163
1241.941, 830.0856
1242.423, 829.9813
1242.905, 840.3176
##END=



