##NAMES=Phlogopite
##RRUFFID=R070330
##IDEAL CHEMISTRY=KMg_3_(Si_3_Al)O_10_(OH)_2_
##LOCALITY=Little Chief mine, Whitehorse, Yukon Territory, Canada
##OWNER=RRUFF
##SOURCE=Mark Mauthner
##DESCRIPTION=Green micaceous
##STATUS=The identification of this mineral has been confirmed by X-ray diffraction and chemical analysis
##URL=rruff.info/R070330
##MEASURED CHEMISTRY=K_1.00_(Mg_2.65_Fe^2+^_0.34_Ti_0.01_)_Σ=3_(Si_2.98_Al_1.02_)O_10_((OH)_1.77_F_0.23_)_Σ=2_; (gray area) trace amounts of Mn; OH by charge balance; light phase is diopside: Ca_1.00_(Mg_0.96_Fe_0.04_)_Σ=1_Si_2.00_O_6_; dark phase: Mg-rich chlorite
164.6075, 3875.572
165.0896, 3879.974
165.5717, 3885.734
166.0538, 3896.037
166.5359, 3909.591
167.0180, 3924.521
167.5002, 3939.988
167.9823, 3956.691
168.4644, 3975.448
168.9465, 3996.506
169.4286, 4018.327
169.9107, 4041.954
170.3929, 4065.512
170.8750, 4085.671
171.3571, 4093.861
171.8392, 4100.503
172.3213, 4116.700
172.8034, 4144.184
173.2856, 4179.522
173.7677, 4225.518
174.2498, 4278.698
174.7319, 4326.320
175.2140, 4356.435
175.6961, 4377.206
176.1783, 4399.363
176.6604, 4421.621
177.1425, 4451.144
177.6246, 4501.773
178.1067, 4570.383
178.5888, 4640.181
179.0710, 4697.079
179.5531, 4745.271
180.0352, 4792.553
180.5173, 4838.951
180.9994, 4886.696
181.4815, 4934.273
181.9637, 4982.459
182.4458, 5042.231
182.9279, 5131.669
183.4100, 5243.286
183.8921, 5349.535
184.3742, 5436.526
184.8564, 5515.985
185.3385, 5612.583
185.8206, 5727.711
186.3027, 5853.139
186.7848, 5985.517
187.2669, 6123.645
187.7491, 6262.604
188.2312, 6400.594
188.7133, 6537.485
189.1954, 6680.057
189.6775, 6830.407
190.1596, 6972.899
190.6418, 7092.847
191.1239, 7189.634
191.6060, 7264.632
192.0881, 7326.044
192.5702, 7370.347
193.0524, 7364.418
193.5345, 7305.120
194.0166, 7204.355
194.4987, 7075.063
194.9808, 6916.246
195.4629, 6743.161
195.9451, 6556.175
196.4272, 6353.543
196.9093, 6175.616
197.3914, 6028.443
197.8735, 5898.419
198.3556, 5757.531
198.8378, 5603.288
199.3199, 5457.003
199.8020, 5331.466
200.2841, 5228.537
200.7662, 5135.489
201.2483, 5053.090
201.7305, 4978.868
202.2126, 4905.770
202.6947, 4832.232
203.1768, 4765.653
203.6589, 4711.065
204.1410, 4669.955
204.6232, 4634.125
205.1053, 4603.908
205.5874, 4578.082
206.0695, 4552.967
206.5516, 4528.877
207.0337, 4504.673
207.5159, 4479.524
207.9980, 4453.958
208.4801, 4427.021
208.9622, 4397.943
209.4443, 4367.436
209.9264, 4337.817
210.4086, 4306.736
210.8907, 4281.196
211.3728, 4269.594
211.8549, 4277.911
212.3370, 4278.360
212.8191, 4261.785
213.3013, 4232.035
213.7834, 4223.167
214.2655, 4244.760
214.7476, 4271.893
215.2297, 4282.162
215.7118, 4269.791
216.1940, 4256.720
216.6761, 4246.692
217.1582, 4239.514
217.6403, 4231.670
218.1224, 4222.412
218.6045, 4213.606
219.0867, 4206.852
219.5688, 4201.914
220.0509, 4199.807
220.5330, 4201.350
221.0151, 4206.641
221.4972, 4212.531
221.9794, 4222.391
222.4615, 4229.163
222.9436, 4222.652
223.4257, 4190.862
223.9078, 4171.036
224.3899, 4176.618
224.8721, 4210.833
225.3542, 4228.253
225.8363, 4222.575
226.3184, 4206.256
226.8005, 4192.403
227.2827, 4177.525
227.7648, 4172.354
228.2469, 4182.379
228.7290, 4210.340
229.2111, 4232.368
229.6932, 4249.641
230.1754, 4259.785
230.6575, 4258.069
231.1396, 4235.925
231.6217, 4216.947
232.1038, 4206.490
232.5859, 4204.261
233.0681, 4213.985
233.5502, 4245.820
234.0323, 4282.265
234.5144, 4296.418
234.9965, 4274.054
235.4786, 4253.307
235.9608, 4247.475
236.4429, 4261.917
236.9250, 4265.809
237.4071, 4252.274
237.8892, 4232.423
238.3713, 4224.772
238.8535, 4237.391
239.3356, 4248.593
239.8177, 4249.537
240.2998, 4234.592
240.7819, 4232.046
241.2640, 4248.986
241.7462, 4274.157
242.2283, 4287.810
242.7104, 4283.991
243.1925, 4278.436
243.6746, 4276.402
244.1567, 4279.369
244.6389, 4280.862
245.1210, 4280.908
245.6031, 4279.479
246.0852, 4276.268
246.5673, 4270.155
247.0494, 4264.144
247.5316, 4258.929
248.0137, 4253.893
248.4958, 4251.808
248.9779, 4253.126
249.4600, 4257.171
249.9421, 4262.458
250.4243, 4268.124
250.9064, 4276.635
251.3885, 4289.522
251.8706, 4308.650
252.3527, 4327.030
252.8348, 4348.317
253.3170, 4366.618
253.7991, 4367.741
254.2812, 4340.124
254.7633, 4317.498
255.2454, 4314.079
255.7275, 4336.017
256.2097, 4354.948
256.6918, 4371.616
257.1739, 4384.568
257.6560, 4389.587
258.1381, 4381.129
258.6202, 4376.230
259.1024, 4382.426
259.5845, 4402.866
260.0666, 4421.042
260.5487, 4436.342
261.0308, 4449.801
261.5129, 4463.472
261.9951, 4476.289
262.4772, 4491.661
262.9593, 4512.760
263.4414, 4543.019
263.9235, 4561.790
264.4056, 4563.162
264.8878, 4558.777
265.3699, 4571.340
265.8520, 4607.625
266.3341, 4641.770
266.8162, 4661.735
267.2983, 4663.679
267.7805, 4675.689
268.2626, 4700.552
268.7447, 4732.321
269.2268, 4761.525
269.7089, 4788.187
270.1910, 4812.077
270.6732, 4832.649
271.1553, 4849.384
271.6374, 4865.991
272.1195, 4880.610
272.6016, 4897.879
273.0837, 4927.082
273.5659, 4971.155
274.0480, 5012.744
274.5301, 5045.315
275.0122, 5068.458
275.4943, 5089.233
275.9764, 5107.392
276.4586, 5123.649
276.9407, 5138.214
277.4228, 5150.491
277.9049, 5164.753
278.3870, 5185.732
278.8691, 5212.664
279.3513, 5227.123
279.8334, 5227.569
280.3155, 5219.505
280.7976, 5208.963
281.2798, 5195.967
281.7619, 5182.179
282.2440, 5168.837
282.7261, 5155.522
283.2082, 5139.820
283.6903, 5122.323
284.1725, 5100.260
284.6546, 5067.411
285.1367, 5024.506
285.6188, 4983.220
286.1009, 4947.180
286.5830, 4916.085
287.0652, 4888.250
287.5473, 4863.706
288.0294, 4843.726
288.5115, 4832.857
288.9936, 4829.738
289.4757, 4823.150
289.9579, 4803.959
290.4400, 4779.873
290.9221, 4776.024
291.4042, 4793.961
291.8863, 4812.820
292.3684, 4810.788
292.8506, 4791.274
293.3327, 4768.669
293.8148, 4743.288
294.2969, 4719.879
294.7790, 4709.187
295.2611, 4711.214
295.7433, 4716.460
296.2254, 4716.446
296.7075, 4713.053
297.1896, 4711.673
297.6717, 4714.794
298.1538, 4719.875
298.6360, 4722.629
299.1181, 4723.321
299.6002, 4724.791
300.0823, 4726.141
300.5644, 4730.176
301.0465, 4743.555
301.5287, 4774.759
302.0108, 4807.511
302.4929, 4822.167
302.9750, 4820.884
303.4571, 4815.204
303.9392, 4804.815
304.4214, 4797.155
304.9035, 4804.643
305.3856, 4839.985
305.8677, 4875.200
306.3498, 4880.219
306.8319, 4862.507
307.3141, 4848.477
307.7962, 4857.929
308.2783, 4876.748
308.7604, 4890.731
309.2425, 4894.250
309.7246, 4898.115
310.2068, 4911.450
310.6889, 4930.837
311.1710, 4947.532
311.6531, 4948.804
312.1352, 4950.978
312.6173, 4967.753
313.0995, 5005.621
313.5816, 5044.883
314.0637, 5081.007
314.5458, 5112.004
315.0279, 5134.521
315.5100, 5143.851
315.9922, 5146.938
316.4743, 5143.615
316.9564, 5129.282
317.4385, 5127.667
317.9206, 5154.196
318.4027, 5196.408
318.8849, 5236.888
319.3670, 5279.480
319.8491, 5312.065
320.3312, 5324.826
320.8133, 5312.194
321.2954, 5310.194
321.7776, 5334.648
322.2597, 5369.720
322.7418, 5398.534
323.2239, 5414.455
323.7060, 5428.103
324.1881, 5442.393
324.6703, 5457.752
325.1524, 5469.420
325.6345, 5464.418
326.1166, 5462.184
326.5987, 5478.558
327.0808, 5540.844
327.5630, 5589.556
328.0451, 5611.882
328.5272, 5609.386
329.0093, 5616.380
329.4914, 5638.587
329.9735, 5664.865
330.4557, 5687.564
330.9378, 5701.351
331.4199, 5721.563
331.9020, 5754.919
332.3841, 5796.625
332.8662, 5821.211
333.3484, 5816.447
333.8305, 5812.745
334.3126, 5829.206
334.7947, 5875.305
335.2768, 5910.855
335.7589, 5929.280
336.2411, 5938.541
336.7232, 5961.010
337.2053, 6001.433
337.6874, 6040.744
338.1695, 6069.847
338.6516, 6087.430
339.1338, 6102.334
339.6159, 6111.372
340.0980, 6122.858
340.5801, 6153.237
341.0622, 6204.906
341.5443, 6257.174
342.0265, 6305.803
342.5086, 6349.569
342.9907, 6377.161
343.4728, 6384.902
343.9549, 6389.977
344.4370, 6416.368
344.9192, 6461.621
345.4013, 6503.626
345.8834, 6530.535
346.3655, 6549.281
346.8476, 6577.200
347.3297, 6614.317
347.8119, 6655.748
348.2940, 6702.910
348.7761, 6751.366
349.2582, 6785.906
349.7403, 6796.592
350.2225, 6798.159
350.7046, 6812.708
351.1867, 6838.780
351.6688, 6864.105
352.1509, 6884.793
352.6331, 6897.891
353.1152, 6896.950
353.5973, 6874.348
354.0794, 6849.073
354.5615, 6841.898
355.0436, 6846.817
355.5258, 6845.550
356.0079, 6828.412
356.4900, 6800.492
356.9721, 6765.629
357.4542, 6723.871
357.9363, 6677.012
358.4185, 6615.575
358.9006, 6550.813
359.3827, 6502.195
359.8648, 6499.255
360.3469, 6497.022
360.8290, 6469.680
361.3112, 6411.511
361.7933, 6353.076
362.2754, 6292.340
362.7575, 6240.277
363.2396, 6208.691
363.7217, 6241.280
364.2039, 6254.045
364.6860, 6212.517
365.1681, 6115.436
365.6502, 6038.639
366.1323, 6003.855
366.6144, 5983.462
367.0966, 5958.485
367.5787, 5930.982
368.0608, 5895.578
368.5429, 5843.156
369.0250, 5779.593
369.5071, 5736.508
369.9893, 5723.726
370.4714, 5720.015
370.9535, 5716.934
371.4356, 5719.795
371.9177, 5710.038
372.3998, 5680.232
372.8820, 5641.255
373.3641, 5618.603
373.8462, 5617.455
374.3283, 5619.460
374.8104, 5620.773
375.2925, 5622.667
375.7747, 5603.943
376.2568, 5555.477
376.7389, 5504.146
377.2210, 5493.135
377.7031, 5525.823
378.1852, 5549.300
378.6674, 5540.779
379.1495, 5510.459
379.6316, 5505.505
380.1137, 5528.350
380.5958, 5554.904
381.0779, 5560.938
381.5601, 5550.406
382.0422, 5542.790
382.5243, 5543.626
383.0064, 5547.813
383.4885, 5545.269
383.9706, 5537.109
384.4528, 5531.738
384.9349, 5534.608
385.4170, 5544.045
385.8991, 5559.098
386.3812, 5582.162
386.8633, 5602.979
387.3455, 5609.892
387.8276, 5607.165
388.3097, 5604.630
388.7918, 5603.900
389.2739, 5607.507
389.7560, 5617.961
390.2382, 5635.688
390.7203, 5657.417
391.2024, 5686.035
391.6845, 5716.017
392.1666, 5741.349
392.6487, 5761.875
393.1309, 5775.393
393.6130, 5781.760
394.0951, 5780.820
394.5772, 5770.140
395.0593, 5736.103
395.5414, 5700.338
396.0236, 5676.743
396.5057, 5689.946
396.9878, 5688.322
397.4699, 5657.345
397.9520, 5606.790
398.4341, 5567.654
398.9163, 5544.740
399.3984, 5528.376
399.8805, 5516.180
400.3626, 5510.569
400.8447, 5501.650
401.3268, 5486.908
401.8090, 5470.730
402.2911, 5458.059
402.7732, 5447.192
403.2553, 5445.056
403.7374, 5456.823
404.2195, 5481.306
404.7017, 5496.243
405.1838, 5499.821
405.6659, 5498.771
406.1480, 5497.885
406.6301, 5497.111
407.1122, 5499.720
407.5944, 5507.939
408.0765, 5518.200
408.5586, 5520.541
409.0407, 5515.136
409.5228, 5510.158
410.0049, 5509.350
410.4871, 5513.112
410.9692, 5523.519
411.4513, 5541.681
411.9334, 5563.048
412.4155, 5588.327
412.8976, 5613.813
413.3798, 5628.186
413.8619, 5616.213
414.3440, 5596.785
414.8261, 5587.569
415.3082, 5589.080
415.7903, 5599.794
416.2725, 5625.552
416.7546, 5657.375
417.2367, 5686.002
417.7188, 5714.198
418.2009, 5731.560
418.6830, 5723.179
419.1652, 5697.092
419.6473, 5683.111
420.1294, 5698.050
420.6115, 5722.517
421.0937, 5747.790
421.5758, 5776.624
422.0579, 5796.705
422.5400, 5803.275
423.0221, 5800.877
423.5042, 5796.852
423.9864, 5782.891
424.4685, 5777.247
424.9506, 5790.427
425.4327, 5825.492
425.9148, 5835.009
426.3969, 5800.984
426.8791, 5761.928
427.3612, 5753.788
427.8433, 5787.912
428.3254, 5818.294
428.8075, 5841.703
429.2896, 5855.751
429.7718, 5846.663
430.2539, 5809.361
430.7360, 5775.766
431.2181, 5769.998
431.7002, 5789.557
432.1823, 5796.230
432.6645, 5785.829
433.1466, 5770.185
433.6287, 5768.354
434.1108, 5777.002
434.5929, 5779.099
435.0750, 5759.838
435.5572, 5733.004
436.0393, 5723.817
436.5214, 5731.705
437.0035, 5744.542
437.4856, 5759.893
437.9677, 5772.160
438.4499, 5772.322
438.9320, 5752.778
439.4141, 5729.664
439.8962, 5713.954
440.3783, 5703.648
440.8604, 5693.136
441.3426, 5674.526
441.8247, 5659.274
442.3068, 5655.263
442.7889, 5665.578
443.2710, 5676.324
443.7531, 5688.960
444.2353, 5698.106
444.7174, 5698.022
445.1995, 5667.741
445.6816, 5650.269
446.1637, 5662.557
446.6458, 5700.254
447.1280, 5716.354
447.6101, 5692.285
448.0922, 5667.067
448.5743, 5664.448
449.0564, 5698.270
449.5385, 5717.062
450.0207, 5715.313
450.5028, 5701.792
450.9849, 5691.747
451.4670, 5685.277
451.9491, 5682.053
452.4312, 5680.363
452.9134, 5681.268
453.3955, 5697.789
453.8776, 5732.621
454.3597, 5763.511
454.8418, 5753.831
455.3239, 5717.323
455.8061, 5716.464
456.2882, 5781.942
456.7703, 5863.313
457.2524, 5888.363
457.7345, 5865.948
458.2166, 5832.266
458.6988, 5802.262
459.1809, 5775.632
459.6630, 5753.684
460.1451, 5737.002
460.6272, 5719.839
461.1093, 5692.294
461.5915, 5664.120
462.0736, 5648.070
462.5557, 5665.529
463.0378, 5678.951
463.5199, 5672.459
464.0020, 5648.202
464.4842, 5623.377
464.9663, 5596.500
465.4484, 5573.874
465.9305, 5558.618
466.4126, 5550.915
466.8947, 5550.353
467.3769, 5560.974
467.8590, 5576.929
468.3411, 5590.021
468.8232, 5603.904
469.3053, 5606.684
469.7874, 5590.742
470.2696, 5557.717
470.7517, 5539.098
471.2338, 5537.646
471.7159, 5542.146
472.1980, 5544.724
472.6801, 5545.340
473.1623, 5541.109
473.6444, 5528.856
474.1265, 5516.959
474.6086, 5523.837
475.0907, 5546.504
475.5728, 5565.636
476.0550, 5567.752
476.5371, 5560.962
477.0192, 5558.728
477.5013, 5561.556
477.9834, 5563.607
478.4655, 5557.105
478.9477, 5548.127
479.4298, 5544.809
479.9119, 5552.184
480.3940, 5562.393
480.8761, 5572.789
481.3582, 5582.966
481.8404, 5591.614
482.3225, 5601.247
482.8046, 5606.813
483.2867, 5601.881
483.7688, 5577.160
484.2509, 5572.475
484.7331, 5609.878
485.2152, 5659.177
485.6973, 5693.378
486.1794, 5707.845
486.6615, 5714.235
487.1436, 5708.846
487.6258, 5696.396
488.1079, 5701.401
488.5900, 5729.488
489.0721, 5759.461
489.5542, 5778.948
490.0363, 5787.944
490.5185, 5798.873
491.0006, 5811.936
491.4827, 5827.013
491.9648, 5847.888
492.4470, 5872.263
492.9291, 5886.011
493.4112, 5876.799
493.8933, 5860.589
494.3754, 5863.970
494.8575, 5884.366
495.3397, 5905.350
495.8218, 5916.362
496.3039, 5922.435
496.7860, 5927.785
497.2681, 5931.916
497.7502, 5940.204
498.2324, 5959.362
498.7145, 5983.341
499.1966, 6004.290
499.6787, 6024.596
500.1608, 6036.545
500.6429, 6032.658
501.1251, 6014.361
501.6072, 6004.187
502.0893, 6003.030
502.5714, 6010.761
503.0535, 6029.228
503.5356, 6067.828
504.0178, 6094.337
504.4999, 6105.856
504.9820, 6107.611
505.4641, 6105.364
505.9462, 6097.236
506.4283, 6095.246
506.9105, 6105.043
507.3926, 6123.136
507.8747, 6135.438
508.3568, 6141.747
508.8389, 6146.606
509.3210, 6156.286
509.8032, 6167.228
510.2853, 6166.581
510.7674, 6149.455
511.2495, 6134.864
511.7316, 6151.941
512.2137, 6185.532
512.6959, 6204.616
513.1780, 6180.297
513.6601, 6150.663
514.1422, 6140.687
514.6243, 6148.349
515.1064, 6157.811
515.5886, 6162.330
516.0707, 6167.153
516.5528, 6174.863
517.0349, 6183.730
517.5170, 6199.942
517.9991, 6237.297
518.4813, 6277.074
518.9634, 6294.425
519.4455, 6276.741
519.9276, 6257.978
520.4097, 6243.482
520.8918, 6233.374
521.3740, 6225.743
521.8561, 6218.939
522.3382, 6220.086
522.8203, 6240.488
523.3024, 6278.039
523.7845, 6297.767
524.2667, 6295.773
524.7488, 6283.579
525.2309, 6272.254
525.7130, 6262.025
526.1951, 6253.366
526.6772, 6241.381
527.1594, 6235.751
527.6415, 6259.382
528.1236, 6303.621
528.6057, 6330.785
529.0878, 6307.907
529.5699, 6266.908
530.0521, 6227.099
530.5342, 6186.794
531.0163, 6165.406
531.4984, 6183.626
531.9805, 6217.467
532.4626, 6241.456
532.9448, 6247.257
533.4269, 6248.779
533.9090, 6245.613
534.3911, 6239.080
534.8732, 6233.881
535.3553, 6228.212
535.8375, 6227.341
536.3196, 6235.913
536.8017, 6254.866
537.2838, 6263.284
537.7659, 6257.932
538.2480, 6252.994
538.7302, 6266.372
539.2123, 6295.468
539.6944, 6320.804
540.1765, 6336.178
540.6586, 6349.637
541.1407, 6377.571
541.6229, 6414.924
542.1050, 6444.001
542.5871, 6446.583
543.0692, 6442.379
543.5513, 6449.880
544.0334, 6469.921
544.5156, 6489.471
544.9977, 6498.358
545.4798, 6506.590
545.9619, 6522.402
546.4440, 6556.056
546.9261, 6584.360
547.4083, 6602.509
547.8904, 6613.672
548.3725, 6623.928
548.8546, 6638.800
549.3367, 6643.425
549.8188, 6630.727
550.3010, 6602.692
550.7831, 6584.187
551.2652, 6578.448
551.7473, 6571.375
552.2294, 6551.910
552.7115, 6521.174
553.1937, 6490.607
553.6758, 6460.943
554.1579, 6432.159
554.6400, 6402.184
555.1221, 6372.747
555.6042, 6349.576
556.0864, 6338.476
556.5685, 6330.299
557.0506, 6320.492
557.5327, 6307.364
558.0148, 6284.591
558.4969, 6231.750
558.9791, 6181.259
559.4612, 6155.494
559.9433, 6161.425
560.4254, 6167.882
560.9075, 6169.259
561.3896, 6168.784
561.8718, 6169.894
562.3539, 6179.425
562.8360, 6177.883
563.3181, 6157.439
563.8002, 6128.148
564.2823, 6116.697
564.7645, 6128.095
565.2466, 6135.074
565.7287, 6124.719
566.2108, 6100.976
566.6929, 6083.791
567.1750, 6073.580
567.6572, 6063.690
568.1393, 6045.699
568.6214, 6024.693
569.1035, 6010.861
569.5856, 6005.398
570.0677, 6008.278
570.5499, 6033.944
571.0320, 6064.935
571.5141, 6073.890
571.9962, 6017.135
572.4783, 5969.943
572.9604, 5972.916
573.4426, 6015.748
573.9247, 6043.607
574.4068, 6034.323
574.8889, 6020.398
575.3710, 6014.309
575.8531, 6018.293
576.3353, 6018.834
576.8174, 6015.683
577.2995, 6009.447
577.7816, 5996.372
578.2637, 5974.402
578.7458, 5971.440
579.2280, 5996.910
579.7101, 6033.215
580.1922, 6049.054
580.6743, 6047.071
581.1564, 6042.211
581.6385, 6040.191
582.1207, 6039.846
582.6028, 6039.927
583.0849, 6040.420
583.5670, 6041.194
584.0491, 6050.319
584.5313, 6054.480
585.0134, 6038.099
585.4955, 5986.879
585.9776, 5954.750
586.4597, 5973.243
586.9418, 6010.626
587.4240, 6030.391
587.9061, 6015.868
588.3882, 6007.998
588.8703, 6011.523
589.3524, 6024.388
589.8345, 6042.895
590.3167, 6070.043
590.7988, 6091.318
591.2809, 6098.850
591.7630, 6094.955
592.2451, 6086.724
592.7272, 6073.612
593.2094, 6069.507
593.6915, 6100.187
594.1736, 6145.217
594.6557, 6161.617
595.1378, 6136.309
595.6199, 6107.350
596.1021, 6102.745
596.5842, 6112.576
597.0663, 6122.744
597.5485, 6134.036
598.0306, 6138.971
598.5127, 6128.227
598.9948, 6107.239
599.4769, 6099.598
599.9590, 6115.594
600.4412, 6134.141
600.9233, 6149.813
601.4054, 6162.935
601.8875, 6167.846
602.3696, 6161.029
602.8517, 6154.569
603.3339, 6159.726
603.8160, 6175.657
604.2981, 6191.859
604.7802, 6207.429
605.2623, 6221.649
605.7444, 6237.466
606.2266, 6251.354
606.7087, 6252.596
607.1908, 6222.922
607.6729, 6194.207
608.1550, 6199.680
608.6371, 6228.445
609.1193, 6245.269
609.6014, 6213.930
610.0835, 6186.245
610.5656, 6195.086
611.0477, 6250.374
611.5298, 6277.192
612.0120, 6250.502
612.4941, 6217.274
612.9762, 6209.976
613.4583, 6237.439
613.9404, 6258.073
614.4225, 6267.652
614.9047, 6274.521
615.3868, 6297.914
615.8689, 6335.383
616.3510, 6348.817
616.8331, 6313.493
617.3152, 6266.353
617.7974, 6271.246
618.2795, 6316.154
618.7616, 6354.393
619.2437, 6351.460
619.7258, 6338.555
620.2079, 6338.941
620.6901, 6353.863
621.1722, 6369.542
621.6543, 6380.419
622.1364, 6391.099
622.6185, 6404.957
623.1006, 6426.049
623.5828, 6441.431
624.0649, 6446.781
624.5470, 6450.387
625.0291, 6463.545
625.5112, 6488.761
625.9933, 6510.237
626.4755, 6524.960
626.9576, 6534.358
627.4397, 6536.929
627.9218, 6534.372
628.4039, 6539.659
628.8860, 6563.369
629.3682, 6596.509
629.8503, 6629.744
630.3324, 6662.457
630.8145, 6689.688
631.2966, 6702.027
631.7787, 6712.067
632.2609, 6730.864
632.7430, 6764.461
633.2251, 6788.408
633.7072, 6782.725
634.1893, 6774.680
634.6714, 6788.168
635.1536, 6837.199
635.6357, 6875.836
636.1178, 6895.240
636.5999, 6908.151
637.0820, 6942.085
637.5641, 6998.122
638.0463, 7043.749
638.5284, 7063.169
639.0105, 7070.703
639.4926, 7098.416
639.9747, 7142.802
640.4568, 7182.658
640.9390, 7205.935
641.4211, 7218.723
641.9032, 7218.726
642.3853, 7205.894
642.8674, 7212.503
643.3495, 7276.843
643.8317, 7348.124
644.3138, 7389.772
644.7959, 7369.772
645.2780, 7374.938
645.7601, 7422.280
646.2422, 7479.774
646.7244, 7508.513
647.2065, 7502.703
647.6886, 7495.476
648.1707, 7489.536
648.6528, 7489.324
649.1349, 7506.851
649.6171, 7540.114
650.0992, 7575.278
650.5813, 7610.452
651.0634, 7641.167
651.5455, 7655.098
652.0276, 7656.673
652.5098, 7669.070
652.9919, 7729.511
653.4740, 7785.382
653.9561, 7795.019
654.4382, 7742.809
654.9203, 7716.151
655.4025, 7732.113
655.8846, 7771.554
656.3667, 7826.597
656.8488, 7909.855
657.3309, 7969.445
657.8130, 7998.914
658.2952, 8013.663
658.7773, 8030.493
659.2594, 8050.168
659.7415, 8081.462
660.2236, 8131.194
660.7057, 8186.227
661.1879, 8219.868
661.6700, 8242.128
662.1521, 8280.682
662.6342, 8370.740
663.1163, 8462.539
663.5984, 8523.449
664.0806, 8556.017
664.5627, 8587.759
665.0448, 8603.331
665.5269, 8640.153
666.0090, 8721.424
666.4911, 8855.866
666.9733, 8962.141
667.4554, 9029.870
667.9375, 9089.994
668.4196, 9166.465
668.9017, 9259.342
669.3839, 9361.093
669.8660, 9472.718
670.3481, 9583.371
670.8302, 9670.915
671.3123, 9748.320
671.7944, 9846.362
672.2766, 9989.340
672.7587, 10129.61
673.2408, 10234.35
673.7229, 10314.67
674.2050, 10394.49
674.6871, 10470.09
675.1693, 10557.14
675.6514, 10667.50
676.1335, 10795.72
676.6156, 10913.19
677.0977, 11022.47
677.5798, 11114.71
678.0620, 11184.32
678.5441, 11232.58
679.0262, 11263.89
679.5083, 11278.00
679.9904, 11283.60
680.4725, 11289.88
680.9547, 11291.90
681.4368, 11281.75
681.9189, 11258.75
682.4010, 11221.88
682.8831, 11170.29
683.3652, 11104.70
683.8474, 11025.52
684.3295, 10921.45
684.8116, 10821.89
685.2937, 10740.72
685.7758, 10661.72
686.2579, 10565.94
686.7401, 10453.97
687.2222, 10321.62
687.7043, 10159.29
688.1864, 9985.705
688.6685, 9850.898
689.1506, 9752.523
689.6328, 9653.152
690.1149, 9532.151
690.5970, 9401.665
691.0791, 9279.134
691.5612, 9162.609
692.0433, 9046.176
692.5255, 8925.104
693.0076, 8801.355
693.4897, 8671.388
693.9718, 8533.311
694.4539, 8411.931
694.9360, 8316.324
695.4182, 8233.156
695.9003, 8157.603
696.3824, 8095.912
696.8645, 8015.910
697.3466, 7910.285
697.8287, 7805.538
698.3109, 7733.786
698.7930, 7689.472
699.2751, 7641.245
699.7572, 7581.595
700.2393, 7526.587
700.7214, 7499.888
701.2036, 7488.117
701.6857, 7468.920
702.1678, 7428.786
702.6499, 7386.361
703.1320, 7345.235
703.6141, 7306.981
704.0963, 7275.780
704.5784, 7257.554
705.0605, 7236.311
705.5426, 7205.022
706.0247, 7168.290
706.5068, 7151.142
706.9890, 7156.395
707.4711, 7156.841
707.9532, 7135.494
708.4353, 7099.676
708.9174, 7066.707
709.3995, 7036.575
709.8817, 7010.582
710.3638, 6997.309
710.8459, 6983.808
711.3280, 6952.321
711.8101, 6896.552
712.2922, 6862.593
712.7744, 6887.737
713.2565, 6920.958
713.7386, 6926.748
714.2207, 6890.093
714.7028, 6865.180
715.1849, 6855.072
715.6671, 6850.988
716.1492, 6842.777
716.6313, 6830.970
717.1134, 6821.157
717.5955, 6814.556
718.0776, 6809.629
718.5598, 6807.027
719.0419, 6804.491
719.5240, 6797.463
720.0061, 6778.699
720.4882, 6761.870
720.9703, 6754.760
721.4525, 6753.962
721.9346, 6751.574
722.4167, 6739.332
722.8988, 6735.350
723.3809, 6747.577
723.8630, 6770.131
724.3452, 6778.525
724.8273, 6771.281
725.3094, 6760.259
725.7915, 6747.667
726.2736, 6736.498
726.7557, 6736.194
727.2379, 6745.701
727.7200, 6756.707
728.2021, 6767.458
728.6842, 6774.835
729.1663, 6776.204
729.6484, 6771.253
730.1306, 6762.216
730.6127, 6739.805
731.0948, 6721.953
731.5769, 6720.302
732.0590, 6741.530
732.5411, 6750.354
733.0233, 6744.184
733.5054, 6731.411
733.9875, 6718.287
734.4696, 6704.946
734.9517, 6689.782
735.4338, 6670.385
735.9160, 6662.014
736.3981, 6693.177
736.8802, 6741.289
737.3623, 6773.348
737.8444, 6779.185
738.3266, 6770.514
738.8087, 6736.720
739.2908, 6696.085
739.7729, 6676.136
740.2551, 6687.534
740.7372, 6701.258
741.2193, 6714.406
741.7014, 6727.831
742.1835, 6746.790
742.6656, 6771.350
743.1478, 6783.734
743.6299, 6774.236
744.1120, 6754.694
744.5941, 6741.003
745.0762, 6732.702
745.5583, 6727.917
746.0405, 6723.470
746.5226, 6724.518
747.0047, 6739.480
747.4868, 6764.709
747.9689, 6778.715
748.4510, 6769.425
748.9332, 6760.760
749.4153, 6759.605
749.8974, 6765.613
750.3795, 6779.452
750.8616, 6804.029
751.3438, 6814.028
751.8259, 6773.856
752.3080, 6711.353
752.7901, 6699.689
753.2722, 6738.063
753.7543, 6776.430
754.2365, 6786.132
754.7186, 6778.797
755.2007, 6756.217
755.6828, 6712.193
756.1649, 6692.471
756.6470, 6720.320
757.1292, 6760.662
757.6113, 6796.028
758.0934, 6829.101
758.5755, 6840.824
759.0576, 6825.246
759.5397, 6808.572
760.0219, 6827.177
760.5040, 6867.595
760.9861, 6884.144
761.4682, 6866.455
761.9503, 6842.135
762.4324, 6824.520
762.9146, 6816.180
763.3967, 6821.267
763.8788, 6857.443
764.3609, 6879.843
764.8430, 6872.125
765.3251, 6851.953
765.8073, 6838.258
766.2894, 6832.266
766.7715, 6827.565
767.2536, 6822.310
767.7357, 6819.942
768.2178, 6826.922
768.7000, 6842.093
769.1821, 6861.683
769.6642, 6891.401
770.1463, 6914.051
770.6284, 6913.474
771.1105, 6895.320
771.5927, 6870.513
772.0748, 6827.957
772.5569, 6795.763
773.0390, 6778.933
773.5211, 6777.081
774.0032, 6794.405
774.4854, 6838.252
774.9675, 6873.746
775.4496, 6890.123
775.9317, 6891.780
776.4138, 6884.563
776.8959, 6870.686
777.3781, 6861.814
777.8602, 6875.480
778.3423, 6887.557
778.8244, 6868.158
779.3065, 6826.813
779.7886, 6804.355
780.2708, 6835.709
780.7529, 6864.361
781.2350, 6870.761
781.7171, 6857.312
782.1992, 6845.907
782.6813, 6836.721
783.1635, 6829.217
783.6456, 6821.227
784.1277, 6815.038
784.6098, 6822.199
785.0919, 6840.972
785.5740, 6854.467
786.0562, 6840.815
786.5383, 6825.335
787.0204, 6839.054
787.5025, 6883.183
787.9846, 6899.246
788.4667, 6840.709
788.9489, 6782.267
789.4310, 6754.323
789.9131, 6758.409
790.3952, 6770.736
790.8773, 6793.516
791.3594, 6813.771
791.8416, 6819.318
792.3237, 6815.036
792.8058, 6811.706
793.2879, 6809.956
793.7700, 6814.440
794.2521, 6843.044
794.7343, 6869.386
795.2164, 6867.376
795.6985, 6825.425
796.1806, 6794.736
796.6627, 6785.001
797.1448, 6782.672
797.6270, 6778.228
798.1091, 6769.947
798.5912, 6777.975
799.0733, 6806.375
799.5554, 6830.116
800.0375, 6811.609
800.5197, 6774.537
801.0018, 6770.463
801.4839, 6810.911
801.9660, 6845.133
802.4481, 6833.373
802.9302, 6807.489
803.4124, 6794.900
803.8945, 6808.684
804.3766, 6814.545
804.8587, 6808.042
805.3408, 6799.476
805.8229, 6798.894
806.3051, 6806.239
806.7872, 6813.858
807.2693, 6822.281
807.7514, 6823.677
808.2335, 6801.323
808.7156, 6769.730
809.1978, 6751.955
809.6799, 6756.320
810.1620, 6762.688
810.6441, 6762.008
811.1262, 6759.816
811.6083, 6761.701
812.0905, 6770.164
812.5726, 6776.899
813.0547, 6780.707
813.5368, 6784.648
814.0189, 6796.706
814.5010, 6813.696
814.9832, 6813.990
815.4653, 6791.011
815.9474, 6766.268
816.4295, 6754.921
816.9116, 6755.341
817.3937, 6767.532
817.8759, 6803.982
818.3580, 6827.296
818.8401, 6818.854
819.3222, 6800.957
819.8043, 6795.244
820.2864, 6805.987
820.7686, 6808.740
821.2507, 6800.313
821.7328, 6786.616
822.2149, 6773.895
822.6970, 6762.167
823.1791, 6751.115
823.6613, 6740.518
824.1434, 6731.486
824.6255, 6720.552
825.1076, 6713.606
825.5897, 6717.372
826.0718, 6743.303
826.5540, 6766.262
827.0361, 6789.207
827.5182, 6806.033
828.0003, 6806.901
828.4824, 6792.021
828.9645, 6780.074
829.4467, 6774.251
829.9288, 6770.154
830.4109, 6761.080
830.8930, 6750.980
831.3751, 6745.946
831.8572, 6748.439
832.3394, 6754.223
832.8215, 6762.228
833.3036, 6772.777
833.7857, 6787.897
834.2678, 6814.718
834.7499, 6822.461
835.2321, 6803.744
835.7142, 6778.334
836.1963, 6772.350
836.6784, 6780.870
837.1605, 6785.619
837.6426, 6782.172
838.1248, 6778.839
838.6069, 6778.358
839.0890, 6783.292
839.5711, 6797.937
840.0532, 6839.270
840.5353, 6859.808
841.0175, 6850.245
841.4996, 6826.492
841.9817, 6801.873
842.4638, 6775.944
842.9459, 6755.669
843.4280, 6740.454
843.9102, 6737.473
844.3923, 6767.575
844.8744, 6811.053
845.3565, 6833.868
845.8386, 6824.045
846.3207, 6813.899
846.8029, 6820.192
847.2850, 6829.400
847.7671, 6829.271
848.2492, 6814.992
848.7313, 6801.423
849.2134, 6784.008
849.6956, 6779.273
850.1777, 6819.650
850.6598, 6887.529
851.1419, 6915.134
851.6240, 6890.939
852.1061, 6863.400
852.5883, 6873.668
853.0704, 6895.106
853.5525, 6902.489
854.0346, 6886.020
854.5167, 6873.698
854.9988, 6867.560
855.4810, 6865.333
855.9631, 6864.264
856.4452, 6864.275
856.9273, 6877.452
857.4094, 6905.412
857.8915, 6927.738
858.3737, 6917.983
858.8558, 6896.060
859.3379, 6890.087
859.8200, 6904.879
860.3021, 6912.051
860.7842, 6884.502
861.2664, 6861.064
861.7485, 6868.779
862.2306, 6913.586
862.7127, 6924.398
863.1948, 6893.498
863.6769, 6862.957
864.1591, 6865.118
864.6412, 6889.221
865.1233, 6912.915
865.6054, 6935.146
866.0875, 6951.208
866.5696, 6949.803
867.0518, 6948.714
867.5339, 6964.227
868.0160, 6998.444
868.4981, 7011.979
868.9802, 6998.641
869.4623, 6977.252
869.9445, 6952.035
870.4266, 6926.313
870.9087, 6917.507
871.3908, 6924.431
871.8729, 6935.355
872.3550, 6945.748
872.8372, 6954.994
873.3193, 6963.261
873.8014, 6970.215
874.2835, 6973.705
874.7656, 6967.354
875.2477, 6964.952
875.7299, 6972.997
876.2120, 6986.948
876.6941, 6986.360
877.1762, 6971.282
877.6583, 6960.933
878.1404, 6967.008
878.6226, 6978.821
879.1047, 6983.260
879.5869, 6982.004
880.0690, 6979.490
880.5511, 6973.050
881.0332, 6970.665
881.5153, 6978.098
881.9974, 6989.960
882.4796, 6993.419
882.9617, 6985.281
883.4438, 6988.486
883.9259, 7012.329
884.4080, 7041.845
884.8901, 7053.744
885.3723, 7052.603
885.8544, 7048.625
886.3365, 7042.055
886.8186, 7038.709
887.3007, 7040.032
887.7828, 7046.780
888.2650, 7060.607
888.7471, 7085.770
889.2292, 7107.828
889.7113, 7129.170
890.1934, 7139.044
890.6755, 7109.280
891.1577, 7056.386
891.6398, 7035.369
892.1219, 7062.007
892.6040, 7093.149
893.0861, 7103.841
893.5682, 7101.747
894.0504, 7091.725
894.5325, 7065.015
895.0146, 7056.329
895.4967, 7072.268
895.9788, 7094.000
896.4609, 7107.512
896.9431, 7113.234
897.4252, 7110.635
897.9073, 7099.545
898.3894, 7090.904
898.8715, 7091.861
899.3536, 7099.502
899.8358, 7115.202
900.3179, 7140.267
900.8000, 7152.503
901.2821, 7140.527
901.7642, 7129.576
902.2463, 7133.243
902.7285, 7148.519
903.2106, 7149.180
903.6927, 7136.010
904.1748, 7129.429
904.6569, 7153.407
905.1390, 7181.474
905.6212, 7182.344
906.1033, 7162.285
906.5854, 7150.699
907.0675, 7168.246
907.5496, 7179.711
908.0317, 7172.738
908.5139, 7155.615
908.9960, 7158.028
909.4781, 7180.083
909.9602, 7189.947
910.4423, 7171.556
910.9244, 7143.638
911.4066, 7117.701
911.8887, 7100.777
912.3708, 7105.687
912.8529, 7169.147
913.3350, 7213.149
913.8171, 7213.335
914.2993, 7195.275
914.7814, 7192.846
915.2635, 7207.508
915.7456, 7217.577
916.2277, 7218.932
916.7098, 7219.792
917.1920, 7238.730
917.6741, 7259.816
918.1562, 7253.864
918.6383, 7202.471
919.1204, 7169.950
919.6025, 7191.334
920.0847, 7225.882
920.5668, 7247.995
921.0489, 7256.565
921.5310, 7261.570
922.0131, 7263.594
922.4952, 7257.419
922.9774, 7230.324
923.4595, 7196.461
923.9416, 7174.334
924.4237, 7165.455
924.9058, 7170.112
925.3879, 7210.313
925.8701, 7241.048
926.3522, 7238.288
926.8343, 7207.849
927.3164, 7200.205
927.7985, 7218.298
928.2806, 7231.069
928.7628, 7217.194
929.2449, 7196.416
929.7270, 7198.512
930.2091, 7219.242
930.6912, 7247.204
931.1733, 7303.241
931.6555, 7335.392
932.1376, 7306.795
932.6197, 7253.654
933.1018, 7239.409
933.5839, 7270.771
934.0660, 7287.902
934.5482, 7276.501
935.0303, 7258.917
935.5124, 7263.921
935.9945, 7283.134
936.4766, 7303.711
936.9587, 7328.013
937.4409, 7339.195
937.9230, 7324.123
938.4051, 7299.404
938.8872, 7274.693
939.3693, 7246.714
939.8514, 7238.495
940.3336, 7251.433
940.8157, 7274.457
941.2978, 7307.659
941.7799, 7340.718
942.2620, 7357.535
942.7441, 7357.731
943.2263, 7353.720
943.7084, 7344.257
944.1905, 7338.027
944.6726, 7340.443
945.1547, 7349.307
945.6368, 7346.311
946.1190, 7329.901
946.6011, 7329.363
947.0832, 7373.048
947.5653, 7422.848
948.0474, 7420.941
948.5295, 7385.770
949.0117, 7360.233
949.4938, 7366.337
949.9759, 7374.553
950.4580, 7377.094
950.9401, 7380.108
951.4222, 7395.927
951.9044, 7424.988
952.3865, 7444.006
952.8686, 7448.508
953.3507, 7446.011
953.8328, 7436.782
954.3149, 7429.002
954.7971, 7436.374
955.2792, 7468.931
955.7613, 7486.778
956.2434, 7474.697
956.7255, 7457.665
957.2076, 7446.195
957.6898, 7440.760
958.1719, 7466.888
958.6540, 7524.100
959.1361, 7566.323
959.6182, 7549.105
960.1003, 7512.861
960.5825, 7493.380
961.0646, 7488.953
961.5467, 7480.650
962.0288, 7454.634
962.5109, 7441.514
962.9930, 7453.940
963.4752, 7479.214
963.9573, 7483.337
964.4394, 7469.878
964.9215, 7460.981
965.4036, 7464.309
965.8857, 7473.815
966.3679, 7491.931
966.8500, 7510.196
967.3321, 7516.956
967.8142, 7497.277
968.2963, 7491.740
968.7784, 7505.749
969.2606, 7523.421
969.7427, 7526.447
970.2248, 7519.543
970.7069, 7520.786
971.1890, 7531.435
971.6711, 7541.913
972.1533, 7547.085
972.6354, 7548.923
973.1175, 7549.118
973.5996, 7547.609
974.0817, 7537.896
974.5638, 7514.314
975.0460, 7503.222
975.5281, 7520.165
976.0102, 7552.208
976.4923, 7576.948
976.9744, 7593.818
977.4565, 7601.162
977.9387, 7592.341
978.4208, 7580.790
978.9029, 7568.109
979.3850, 7556.893
979.8671, 7550.742
980.3492, 7550.217
980.8314, 7550.966
981.3135, 7551.699
981.7956, 7557.482
982.2777, 7577.351
982.7598, 7604.289
983.2419, 7631.924
983.7241, 7661.291
984.2062, 7673.818
984.6883, 7640.867
985.1704, 7613.671
985.6525, 7620.436
986.1346, 7656.097
986.6168, 7663.622
987.0989, 7643.844
987.5810, 7622.917
988.0631, 7606.688
988.5452, 7603.896
989.0273, 7640.283
989.5095, 7696.157
989.9916, 7719.860
990.4737, 7669.038
990.9558, 7636.682
991.4379, 7637.315
991.9200, 7655.711
992.4022, 7675.938
992.8843, 7694.525
993.3664, 7691.626
993.8485, 7658.835
994.3306, 7634.972
994.8127, 7664.448
995.2949, 7702.710
995.7770, 7705.718
996.2591, 7664.277
996.7412, 7644.813
997.2233, 7652.546
997.7054, 7663.808
998.1876, 7665.137
998.6697, 7659.592
999.1518, 7651.219
999.6339, 7641.483
1000.116, 7636.082
1000.598, 7646.856
1001.080, 7651.318
1001.562, 7630.688
1002.044, 7603.954
1002.527, 7610.173
1003.009, 7652.403
1003.491, 7682.269
1003.973, 7689.552
1004.455, 7686.880
1004.937, 7685.450
1005.419, 7683.405
1005.901, 7677.301
1006.384, 7664.335
1006.866, 7657.404
1007.348, 7662.156
1007.830, 7666.419
1008.312, 7660.252
1008.794, 7647.266
1009.276, 7653.229
1009.758, 7675.530
1010.240, 7692.593
1010.723, 7679.931
1011.205, 7669.789
1011.687, 7691.222
1012.169, 7730.043
1012.651, 7745.433
1013.133, 7724.094
1013.615, 7718.544
1014.097, 7741.005
1014.580, 7769.880
1015.062, 7767.836
1015.544, 7752.334
1016.026, 7761.210
1016.508, 7806.926
1016.990, 7843.645
1017.472, 7846.116
1017.954, 7840.027
1018.436, 7837.942
1018.919, 7840.029
1019.401, 7854.303
1019.883, 7880.819
1020.365, 7898.792
1020.847, 7887.002
1021.329, 7868.633
1021.811, 7864.845
1022.293, 7872.777
1022.776, 7885.418
1023.258, 7904.065
1023.740, 7923.514
1024.222, 7944.742
1024.704, 7964.183
1025.186, 7974.531
1025.668, 7978.803
1026.150, 7988.694
1026.632, 8006.619
1027.115, 8019.810
1027.597, 8013.754
1028.079, 8006.096
1028.561, 8011.312
1029.043, 8028.598
1029.525, 8032.290
1030.007, 8019.675
1030.489, 8016.020
1030.972, 8039.845
1031.454, 8071.233
1031.936, 8075.109
1032.418, 8066.283
1032.900, 8076.317
1033.382, 8155.266
1033.864, 8194.025
1034.346, 8164.444
1034.828, 8116.087
1035.311, 8108.146
1035.793, 8133.407
1036.275, 8144.364
1036.757, 8137.217
1037.239, 8124.968
1037.721, 8115.939
1038.203, 8105.906
1038.685, 8091.238
1039.167, 8072.417
1039.650, 8053.684
1040.132, 8033.756
1040.614, 8020.293
1041.096, 8016.873
1041.578, 8020.035
1042.060, 8024.681
1042.542, 8031.884
1043.024, 8045.198
1043.507, 8077.074
1043.989, 8091.129
1044.471, 8070.543
1044.953, 8042.793
1045.435, 8028.583
1045.917, 8026.971
1046.399, 8026.500
1046.881, 8026.783
1047.364, 8024.533
1047.846, 8011.279
1048.328, 8000.505
1048.810, 7999.532
1049.292, 8009.379
1049.774, 8033.408
1050.256, 8082.328
1050.738, 8104.013
1051.220, 8081.273
1051.703, 8045.878
1052.185, 8046.254
1052.667, 8065.211
1053.149, 8072.246
1053.631, 8057.446
1054.113, 8049.638
1054.595, 8061.572
1055.077, 8076.844
1055.559, 8091.136
1056.042, 8102.222
1056.524, 8086.798
1057.006, 8049.251
1057.488, 8025.463
1057.970, 8045.864
1058.452, 8074.953
1058.934, 8093.528
1059.416, 8104.726
1059.899, 8115.465
1060.381, 8128.229
1060.863, 8131.016
1061.345, 8120.456
1061.827, 8110.103
1062.309, 8115.033
1062.791, 8128.587
1063.273, 8142.106
1063.755, 8154.782
1064.238, 8165.109
1064.720, 8165.572
1065.202, 8173.874
1065.684, 8198.887
1066.166, 8232.514
1066.648, 8256.382
1067.130, 8268.886
1067.612, 8261.950
1068.094, 8223.760
1068.577, 8187.699
1069.059, 8168.278
1069.541, 8164.720
1070.023, 8176.688
1070.505, 8206.915
1070.987, 8238.064
1071.469, 8271.579
1071.951, 8295.894
1072.434, 8300.674
1072.916, 8293.918
1073.398, 8281.554
1073.880, 8265.465
1074.362, 8251.208
1074.844, 8228.292
1075.326, 8228.740
1075.808, 8264.600
1076.291, 8310.978
1076.773, 8335.608
1077.255, 8342.226
1077.737, 8340.491
1078.219, 8331.867
1078.701, 8314.240
1079.183, 8263.339
1079.665, 8228.207
1080.147, 8240.979
1080.630, 8290.020
1081.112, 8302.271
1081.594, 8279.047
1082.076, 8261.803
1082.558, 8271.878
1083.040, 8282.719
1083.522, 8267.969
1084.004, 8240.720
1084.486, 8217.784
1084.969, 8198.324
1085.451, 8192.359
1085.933, 8204.523
1086.415, 8212.952
1086.897, 8195.018
1087.379, 8165.143
1087.861, 8147.659
1088.343, 8141.167
1088.826, 8137.219
1089.308, 8140.008
1089.790, 8134.525
1090.272, 8113.886
1090.754, 8089.252
1091.236, 8081.681
1091.718, 8086.257
1092.200, 8078.186
1092.682, 8052.926
1093.165, 8029.091
1093.647, 8022.848
1094.129, 8017.509
1094.611, 7997.374
1095.093, 7966.878
1095.575, 7964.494
1096.057, 7991.742
1096.539, 8008.604
1097.022, 7996.749
1097.504, 7975.128
1097.986, 7957.899
1098.468, 7945.246
1098.950, 7938.625
1099.432, 7943.345
1099.914, 7938.186
1100.396, 7919.372
1100.879, 7903.226
1101.361, 7908.778
1101.843, 7921.855
1102.325, 7907.564
1102.807, 7874.747
1103.289, 7857.437
1103.771, 7889.104
1104.253, 7908.542
1104.735, 7900.980
1105.218, 7882.898
1105.700, 7877.533
1106.182, 7882.055
1106.664, 7883.354
1107.146, 7879.958
1107.628, 7875.110
1108.110, 7868.106
1108.592, 7862.805
1109.074, 7859.494
1109.557, 7859.649
1110.039, 7873.877
1110.521, 7902.584
1111.003, 7921.282
1111.485, 7921.664
1111.967, 7913.008
1112.449, 7896.275
1112.931, 7879.798
1113.414, 7873.901
1113.896, 7882.215
1114.378, 7887.491
1114.860, 7889.877
1115.342, 7888.304
1115.824, 7877.174
1116.306, 7865.948
1116.788, 7876.126
1117.271, 7897.260
1117.753, 7906.128
1118.235, 7870.865
1118.717, 7863.417
1119.199, 7902.399
1119.681, 7942.664
1120.163, 7930.315
1120.645, 7884.674
1121.127, 7862.473
1121.609, 7864.580
1122.092, 7872.302
1122.574, 7884.962
1123.056, 7890.619
1123.538, 7880.682
1124.020, 7865.613
1124.502, 7869.324
1124.984, 7889.004
1125.466, 7900.234
1125.949, 7897.879
1126.431, 7892.208
1126.913, 7884.304
1127.395, 7880.952
1127.877, 7888.767
1128.359, 7906.200
1128.841, 7927.639
1129.323, 7954.429
1129.806, 7957.062
1130.288, 7910.575
1130.770, 7866.462
1131.252, 7890.784
1131.734, 7942.598
1132.216, 7967.121
1132.698, 7950.296
1133.180, 7934.637
1133.662, 7919.712
1134.145, 7908.139
1134.627, 7895.589
1135.109, 7891.292
1135.591, 7922.752
1136.073, 7973.793
1136.555, 8002.610
1137.037, 7975.575
1137.519, 7959.654
1138.001, 7965.643
1138.484, 7968.976
1138.966, 7928.481
1139.448, 7869.698
1139.930, 7866.938
1140.412, 7916.607
1140.894, 7949.994
1141.376, 7919.817
1141.858, 7893.311
1142.341, 7885.109
1142.823, 7893.227
1143.305, 7927.167
1143.787, 7976.276
1144.269, 7984.952
1144.751, 7939.308
1145.233, 7905.654
1145.715, 7932.380
1146.198, 7972.224
1146.680, 8007.103
1147.162, 8032.026
1147.644, 8007.881
1148.126, 7940.153
1148.608, 7907.601
1149.090, 7947.844
1149.572, 7994.543
1150.054, 8000.364
1150.536, 7986.546
1151.019, 7968.030
1151.501, 7943.216
1151.983, 7954.083
1152.465, 8002.208
1152.947, 8047.666
1153.429, 8076.293
1153.911, 8084.332
1154.393, 8052.335
1154.876, 8001.823
1155.358, 7971.551
1155.840, 7971.388
1156.322, 7965.999
1156.804, 7952.050
1157.286, 7947.698
1157.768, 7980.253
1158.250, 8021.933
1158.733, 8038.451
1159.215, 8033.194
1159.697, 8022.270
1160.179, 8002.036
1160.661, 7990.830
1161.143, 7992.293
1161.625, 7998.889
1162.107, 7998.860
1162.589, 7999.429
1163.072, 8019.641
1163.554, 8058.500
1164.036, 8077.568
1164.518, 8056.893
1165.000, 8031.123
1165.482, 8001.618
1165.964, 7981.667
1166.446, 8010.997
1166.928, 8065.158
1167.411, 8085.055
1167.893, 8054.128
1168.375, 8031.240
1168.857, 8043.166
1169.339, 8057.215
1169.821, 8061.190
1170.303, 8058.651
1170.785, 8060.229
1171.268, 8064.305
1171.750, 8064.414
1172.232, 8053.947
1172.714, 8051.326
1173.196, 8078.952
1173.678, 8101.525
1174.160, 8091.475
1174.642, 8056.644
1175.125, 8053.895
1175.607, 8077.455
1176.089, 8095.622
1176.571, 8086.523
1177.053, 8078.073
1177.535, 8086.174
1178.017, 8097.862
1178.499, 8100.287
1178.981, 8093.629
1179.464, 8091.559
1179.946, 8094.253
1180.428, 8101.061
1180.910, 8117.002
1181.392, 8130.980
1181.874, 8141.328
1182.356, 8143.672
1182.838, 8123.974
1183.320, 8080.296
1183.803, 8075.203
1184.285, 8114.621
1184.767, 8157.065
1185.249, 8173.323
1185.731, 8180.287
1186.213, 8190.313
1186.695, 8199.664
1187.177, 8191.521
1187.660, 8163.244
1188.142, 8164.017
1188.624, 8205.820
1189.106, 8244.619
1189.588, 8235.576
1190.070, 8212.303
1190.552, 8203.740
1191.034, 8207.672
1191.516, 8194.318
1191.999, 8160.057
1192.481, 8145.197
1192.963, 8163.777
1193.445, 8189.151
1193.927, 8201.755
1194.409, 8202.916
1194.891, 8189.125
1195.373, 8160.133
1195.855, 8143.865
1196.338, 8140.800
1196.820, 8146.265
1197.302, 8161.681
1197.784, 8178.043
1198.266, 8184.844
1198.748, 8187.042
1199.230, 8191.807
1199.712, 8201.515
1200.195, 8202.297
1200.677, 8193.425
1201.159, 8179.617
1201.641, 8151.853
1202.123, 8134.951
1202.605, 8178.118
1203.087, 8244.339
1203.569, 8269.841
1204.052, 8226.273
1204.534, 8213.743
1205.016, 8237.588
1205.498, 8259.925
1205.980, 8252.093
1206.462, 8230.753
1206.944, 8200.437
1207.426, 8173.952
1207.908, 8187.842
1208.391, 8276.638
1208.873, 8305.390
1209.355, 8259.683
1209.837, 8202.670
1210.319, 8178.964
1210.801, 8180.375
1211.283, 8214.368
1211.765, 8266.915
1212.247, 8287.405
1212.730, 8259.732
1213.212, 8243.068
1213.694, 8244.575
1214.176, 8252.488
1214.658, 8256.354
1215.140, 8259.621
1215.622, 8273.081
1216.104, 8291.646
1216.587, 8280.854
1217.069, 8222.195
1217.551, 8197.001
1218.033, 8223.786
1218.515, 8263.679
1218.997, 8278.940
1219.479, 8279.655
1219.961, 8275.982
1220.443, 8268.592
1220.926, 8254.418
1221.408, 8229.657
1221.890, 8214.983
1222.372, 8217.058
1222.854, 8224.255
1223.336, 8213.575
1223.818, 8205.995
1224.300, 8235.327
1224.782, 8306.609
1225.265, 8336.372
1225.747, 8314.155
1226.229, 8300.946
1226.711, 8318.124
1227.193, 8344.307
1227.675, 8361.072
1228.157, 8367.646
1228.639, 8360.229
1229.122, 8336.939
1229.604, 8317.359
1230.086, 8300.778
1230.568, 8291.828
1231.050, 8292.269
1231.532, 8301.156
1232.014, 8323.918
1232.496, 8350.829
1232.979, 8370.291
1233.461, 8381.054
1233.943, 8389.051
1234.425, 8394.458
1234.907, 8394.671
1235.389, 8387.819
1235.871, 8376.186
1236.353, 8353.813
1236.835, 8332.228
1237.318, 8329.098
1237.800, 8347.386
1238.282, 8360.572
1238.764, 8368.468
1239.246, 8373.061
1239.728, 8372.531
1240.210, 8372.619
1240.692, 8378.356
1241.175, 8387.638
1241.657, 8400.008
1242.139, 8419.287
1242.621, 8409.802
1243.103, 8371.123
1243.585, 8342.130
1244.067, 8355.320
1244.549, 8376.398
1245.031, 8383.582
1245.514, 8383.690
1245.996, 8387.571
1246.478, 8396.082
1246.960, 8395.299
1247.442, 8385.677
1247.924, 8381.516
1248.406, 8395.343
1248.888, 8413.567
1249.370, 8434.947
1249.853, 8452.369
1250.335, 8456.676
1250.817, 8448.097
1251.299, 8428.322
1251.781, 8398.869
1252.263, 8379.046
1252.745, 8383.873
1253.227, 8397.753
1253.710, 8422.349
1254.192, 8445.277
1254.674, 8445.333
1255.156, 8427.443
1255.638, 8430.954
1256.120, 8456.085
1256.602, 8476.461
1257.084, 8481.841
1257.567, 8471.894
1258.049, 8432.197
1258.531, 8396.440
1259.013, 8425.309
1259.495, 8497.812
1259.977, 8536.635
1260.459, 8537.904
1260.941, 8531.391
1261.423, 8522.994
1261.906, 8518.656
1262.388, 8520.581
1262.870, 8525.387
1263.352, 8524.345
1263.834, 8523.516
1264.316, 8547.584
1264.798, 8594.152
1265.280, 8609.226
1265.762, 8544.657
1266.245, 8500.746
1266.727, 8500.833
1267.209, 8514.278
1267.691, 8488.358
1268.173, 8452.385
1268.655, 8466.242
1269.137, 8530.496
1269.619, 8558.670
1270.102, 8526.601
1270.584, 8499.903
1271.066, 8489.977
1271.548, 8497.215
1272.030, 8542.582
1272.512, 8591.782
1272.994, 8595.410
1273.476, 8553.624
1273.958, 8538.906
1274.441, 8560.533
1274.923, 8572.459
1275.405, 8563.109
1275.887, 8548.254
1276.369, 8535.903
1276.851, 8532.506
1277.333, 8550.262
1277.815, 8584.630
1278.297, 8609.117
1278.780, 8623.635
1279.262, 8623.919
1279.744, 8606.534
1280.226, 8589.499
1280.708, 8589.679
1281.190, 8593.520
1281.672, 8590.323
1282.154, 8582.696
1282.637, 8578.687
1283.119, 8578.889
1283.601, 8590.815
1284.083, 8617.949
1284.565, 8643.429
1285.047, 8671.959
1285.529, 8676.204
1286.011, 8631.408
1286.494, 8564.550
1286.976, 8555.417
1287.458, 8590.731
1287.940, 8632.520
1288.422, 8676.436
1288.904, 8697.017
1289.386, 8664.992
1289.868, 8633.316
1290.350, 8617.287
1290.833, 8613.944
1291.315, 8624.736
1291.797, 8641.660
1292.279, 8646.452
1292.761, 8633.355
1293.243, 8631.414
1293.725, 8646.918
1294.207, 8665.923
1294.689, 8687.885
1295.172, 8702.021
1295.654, 8681.878
1296.136, 8650.175
1296.618, 8640.115
1297.100, 8658.893
1297.582, 8658.678
1298.064, 8634.267
1298.546, 8625.630
1299.029, 8649.748
1299.511, 8679.263
1299.993, 8690.868
1300.475, 8689.632
1300.957, 8671.929
1301.439, 8643.502
1301.921, 8641.294
1302.403, 8664.480
1302.885, 8689.549
1303.368, 8712.740
1303.850, 8725.058
1304.332, 8704.906
1304.814, 8687.754
1305.296, 8699.205
1305.778, 8728.314
1306.260, 8733.814
1306.742, 8722.041
1307.224, 8722.133
1307.707, 8745.997
1308.189, 8753.788
1308.671, 8702.278
1309.153, 8670.215
1309.635, 8695.513
1310.117, 8744.833
1310.599, 8746.479
1311.081, 8718.676
1311.564, 8694.755
1312.046, 8680.327
1312.528, 8681.042
1313.010, 8702.633
1313.492, 8720.865
1313.974, 8727.609
1314.456, 8727.064
1314.938, 8716.159
##END=



